sender,sender_type,sender_id,timestamp,meta,,blockNo,condition,duration,ended_on,img_left,img_reveal,img_right,loser,practice,response,response_action,selection_duration,time_commit,time_end,time_render,time_run,time_show,time_switch,total_blocks,total_trials,trialNo,url,winner
informed_consent,html.Screen,0,2023-10-31T21:45:38.984Z,"{""labjs_version"":""20.2.4"",""labjs_build"":{""flavor"":""production"",""commit"":""f5b4a49f956347addd546a832a3327688c2c0fef""},""location"":""https://run.pavlovia.org/MurrayBennett/melanoma-2afc/?participant=66285&platform=sona"",""userAgent"":""Mozilla/5.0 (Macintosh; Intel Mac OS X 10_15_7) AppleWebKit/537.36 (KHTML, like Gecko) Chrome/116.0.0.0 Safari/537.36"",""platform"":""MacIntel"",""language"":""en-US"",""locale"":""en-US"",""timeZone"":""America/Chicago"",""timezoneOffset"":300,""screen_width"":1440,""screen_height"":900,""scroll_width"":1440,""scroll_height"":636,""window_innerWidth"":1440,""window_innerHeight"":684,""devicePixelRatio"":2}",,,,15423.395999964237,response,,,,,,consent,click button,,17235.69999998808,17232.099999964237,1675.376,1822.5,1808.704,17258.561,,,,"{""participant"":""66285"",""platform"":""sona""}",
Welcome,html.Screen,1,2023-10-31T21:45:43.507Z,,,,colourful,4496.638999988078,response,,,,,,continue,click button,,21758.69999998808,21755.19999998808,17225.229,17236.099999964237,17258.561,21758.744,,,,,
trial,html.Screen,2_0_0,2023-10-31T21:45:54.995Z,,0,0,,11516.423000000003,timeout,ISIC_0025593.JPG,,ISIC_0063388.JPG,,true,,,500,33246.299999952316,33245.69999998808,21742.078,21758.899999976158,21758.744,33275.167,1,6,1,,
sequence,flow.Sequence,2_0,2023-10-31T21:45:54.996Z,,0,,,11486.95599998808,completion,,,,,true,,,,33246.89999997616,33245.69999998808,21742.078,21758.899999976158,21758.744,33275.167,1,6,,,
trial,html.Screen,2_1_0,2023-10-31T21:46:04.712Z,,0,0,,9687.932999964236,response,ISIC_0028178.JPG,,ISIC_1309015.JPG,ISIC_1309015.JPG,true,0,keypress(z),500,42963.69999998808,42963.09999996424,33258.501,33247,33275.167,42974.779,1,6,2,,ISIC_0028178.JPG
sequence,flow.Sequence,2_1,2023-10-31T21:46:04.713Z,,0,,,9687.932999964236,completion,,,,,true,,,,42964.19999998808,42963.09999996424,33258.501,33247,33275.167,42974.779,1,6,,,
trial,html.Screen,2_2_0,2023-10-31T21:46:10.863Z,,0,0,,6138.520999952314,response,ISIC_3314853.JPG,,ISIC_0031128.JPG,ISIC_0031128.JPG,true,0,keypress(z),500,49113.89999997616,49113.299999952316,42958.113,42964.5,42974.779,49125.246,1,6,3,,ISIC_3314853.JPG
sequence,flow.Sequence,2_2,2023-10-31T21:46:10.863Z,,0,,,6138.520999952314,completion,,,,,true,,,,49114.299999952316,49113.299999952316,42958.113,42964.39999997616,42974.779,49125.246,1,6,,,
trial,html.Screen,2_3_0,2023-10-31T21:46:16.791Z,,0,0,,5916.754000000001,response,ISIC_8980141.JPG,,ISIC_0031612.JPG,ISIC_8980141.JPG,true,1,keypress(m),500,55042.39999997616,55042,49108.58,49114.69999998808,49125.246,55058.604,1,6,4,,ISIC_0031612.JPG
sequence,flow.Sequence,2_3,2023-10-31T21:46:16.792Z,,0,,,5916.754000000001,completion,,,,,true,,,,55043,55042,49108.58,49114.5,49125.246,55058.604,1,6,,,
trial,html.Screen,2_4_0,2023-10-31T21:46:22.505Z,,0,0,,5697.195999952317,response,ISIC_1197737.JPG,,ISIC_9721604.JPG,ISIC_9721604.JPG,true,0,keypress(z),500,60756.299999952316,60755.799999952316,55041.938,55043.19999998808,55058.604,60758.376,1,6,5,,ISIC_1197737.JPG
sequence,flow.Sequence,2_4,2023-10-31T21:46:22.506Z,,0,,,5697.195999952317,completion,,,,,true,,,,60756.799999952316,60755.799999952316,55041.938,55043.19999998808,55058.604,60758.376,1,6,,,
trial,html.Screen,2_5_0,2023-10-31T21:46:26.911Z,,0,0,,4403.723999964241,response,ISIC_0025346.JPG,,ISIC_0010681.JPG,ISIC_0010681.JPG,true,0,keypress(z),500,65162.59999996424,65162.09999996424,60741.71,60757.09999996424,60758.376,65175.322,1,6,6,,ISIC_0025346.JPG
sequence,flow.Sequence,2_5,2023-10-31T21:46:26.912Z,,0,,,4403.723999964241,completion,,,,,true,,,,65163.09999996424,65162.09999996424,60741.71,60757,60758.376,65175.322,1,6,,,
loop,flow.Loop,2,2023-10-31T21:46:26.912Z,,,,,43403.35599996424,completion,,,,,true,,,,65163.299999952316,65162.09999996424,21742.078,21758.899999976158,21758.744,65175.322,1,6,,,
exp_instructions,html.Screen,3,2023-10-31T21:46:39.912Z,,,,,12981.077999976158,response,,,,,,continue,keypress(Space),,78163,78156.39999997616,65158.656,65163.39999997616,65175.322,78174.802,,,,,
trial,html.Screen,4_0_0,2023-10-31T21:46:45.183Z,,0,1,,5258.597999976162,response,ISIC_0015132.JPG,9,ISIC_8211214.JPG,ISIC_8211214.JPG,false,0,keypress(z),500,83433.79999995232,83433.39999997616,78158.136,78163.5,78174.802,83441.874,8,400,1,,ISIC_0015132.JPG
break,html.Screen,4_0_1,2023-10-31T21:46:45.184Z,,0,,,NaN,,,,,,false,,,,83435.19999998808,83434.89999997616,,83434.09999996424,,83441.874,8,400,,,
break_continue,html.Screen,4_0_2,2023-10-31T21:46:45.185Z,,0,,,NaN,,,,,,false,,,,83435.59999996424,83435.5,,83435.39999997616,,83441.874,8,400,,,
sequence,flow.Sequence,4_0,2023-10-31T21:46:45.185Z,,0,,,5260.698000000004,completion,,,,,false,,,,83435.69999998808,83435.5,78158.136,78163.39999997616,78174.802,83441.874,8,400,,,
trial,html.Screen,4_1_0,2023-10-31T21:46:49.080Z,,0,1,,3888.325999988083,response,ISIC_0101540.JPG,8,ISIC_2226940.JPG,ISIC_2226940.JPG,false,0,keypress(z),500,87330.59999996424,87330.19999998808,83425.208,83435.79999995232,83441.874,87341.718,8,400,2,,ISIC_0101540.JPG
break,html.Screen,4_1_1,2023-10-31T21:46:49.082Z,,0,,,NaN,,,,,,false,,,,87332.69999998808,87332.5,,87332.09999996424,,87341.718,8,400,,,
break_continue,html.Screen,4_1_2,2023-10-31T21:46:49.082Z,,0,,,NaN,,,,,,false,,,,87332.89999997616,87332.79999995232,,87332.69999998808,,87341.718,8,400,,,
sequence,flow.Sequence,4_1,2023-10-31T21:46:49.082Z,,0,,,3890.92599995232,completion,,,,,false,,,,87333,87332.79999995232,83425.208,83435.79999995232,83441.874,87341.718,8,400,,,
trial,html.Screen,4_2_0,2023-10-31T21:46:53.453Z,,0,1,,4362.181999976165,response,ISIC_0024246.JPG,7,ISIC_3666094.JPG,ISIC_0024246.JPG,false,1,keypress(m),500,91704.29999995232,91703.89999997616,87325.052,87333.09999996424,87341.718,91708.611,8,400,3,,ISIC_3666094.JPG
break,html.Screen,4_2_1,2023-10-31T21:46:53.454Z,,0,,,NaN,,,,,,false,,,,91705.19999998808,91705.09999996424,,91704.5,,91708.611,8,400,,,
break_continue,html.Screen,4_2_2,2023-10-31T21:46:53.455Z,,0,,,NaN,,,,,,false,,,,91705.69999998808,91705.59999996424,,91705.5,,91708.611,8,400,,,
sequence,flow.Sequence,4_2,2023-10-31T21:46:53.455Z,,0,,,4363.881999964244,completion,,,,,false,,,,91705.79999995232,91705.59999996424,87325.052,87333,87341.718,91708.611,8,400,,,
trial,html.Screen,4_3_0,2023-10-31T21:46:58.962Z,,0,1,,5503.388999999996,response,ISIC_0010752.JPG,7,ISIC_8306983.JPG,ISIC_0010752.JPG,false,1,keypress(m),500,97212.39999997616,97212,91691.945,91706,91708.611,97241.723,8,400,4,,ISIC_8306983.JPG
break,html.Screen,4_3_1,2023-10-31T21:46:58.963Z,,0,,,NaN,,,,,,false,,,,97213.39999997616,97213.09999996424,,97212.79999995232,,97241.723,8,400,,,
break_continue,html.Screen,4_3_2,2023-10-31T21:46:58.963Z,,0,,,NaN,,,,,,false,,,,97213.69999998808,97213.59999996424,,97213.59999996424,,97241.723,8,400,,,
sequence,flow.Sequence,4_3,2023-10-31T21:46:58.963Z,,0,,,5504.988999964233,completion,,,,,false,,,,97213.89999997616,97213.59999996424,91691.945,91706,91708.611,97241.723,8,400,,,
trial,html.Screen,4_4_0,2023-10-31T21:47:02.614Z,,0,1,,3623.076999952318,response,ISIC_3430953.JPG,8,ISIC_2714572.JPG,ISIC_3430953.JPG,false,1,keypress(m),500,100865.19999998808,100864.79999995232,97225.057,97214.09999996424,97241.723,100875.303,8,400,5,,ISIC_2714572.JPG
break,html.Screen,4_4_1,2023-10-31T21:47:02.615Z,,0,,,NaN,,,,,,false,,,,100866.19999998808,100865.89999997616,,100865.5,,100875.303,8,400,,,
break_continue,html.Screen,4_4_2,2023-10-31T21:47:02.616Z,,0,,,NaN,,,,,,false,,,,100866.5,100866.39999997616,,100866.29999995232,,100875.303,8,400,,,
sequence,flow.Sequence,4_4,2023-10-31T21:47:02.616Z,,0,,,3624.67699997616,completion,,,,,false,,,,100866.69999998808,100866.39999997616,97225.057,97214,97241.723,100875.303,8,400,,,
trial,html.Screen,4_5_0,2023-10-31T21:47:06.313Z,,0,1,,3687.896999988079,response,ISIC_0072748.JPG,8,ISIC_3306135.JPG,ISIC_3306135.JPG,false,0,keypress(z),500,104563.69999998808,104563.19999998808,100858.637,100866.89999997616,100875.303,104575.155,8,400,6,,ISIC_0072748.JPG
break,html.Screen,4_5_1,2023-10-31T21:47:06.314Z,,0,,,NaN,,,,,,false,,,,104564.69999998808,104564.39999997616,,104563.89999997616,,104575.155,8,400,,,
break_continue,html.Screen,4_5_2,2023-10-31T21:47:06.315Z,,0,,,NaN,,,,,,false,,,,104565.39999997616,104565.29999995232,,104565,,104575.155,8,400,,,
sequence,flow.Sequence,4_5,2023-10-31T21:47:06.315Z,,0,,,3689.9969999523164,completion,,,,,false,,,,104565.59999996424,104565.29999995232,100858.637,100866.79999995232,100875.303,104575.155,8,400,,,
trial,html.Screen,4_6_0,2023-10-31T21:47:10.434Z,,0,1,,4108.944999964238,response,ISIC_0016161.JPG,8,ISIC_0028127.JPG,ISIC_0016161.JPG,false,1,keypress(m),500,108684.39999997616,108684.09999996424,104558.489,104565.69999998808,104575.155,108691.657,8,400,7,,ISIC_0028127.JPG
break,html.Screen,4_6_1,2023-10-31T21:47:10.435Z,,0,,,NaN,,,,,,false,,,,108685.39999997616,108685.19999998808,,108684.69999998808,,108691.657,8,400,,,
break_continue,html.Screen,4_6_2,2023-10-31T21:47:10.435Z,,0,,,NaN,,,,,,false,,,,108685.79999995232,108685.69999998808,,108685.59999996424,,108691.657,8,400,,,
sequence,flow.Sequence,4_6,2023-10-31T21:47:10.435Z,,0,,,4110.54499998808,completion,,,,,false,,,,108686,108685.69999998808,104558.489,104565.69999998808,104575.155,108691.657,8,400,,,
trial,html.Screen,4_7_0,2023-10-31T21:47:14.265Z,,0,1,,3823.9429999642307,response,ISIC_0059686.JPG,9,ISIC_9598638.JPG,ISIC_9598638.JPG,false,0,keypress(z),500,112515.79999995232,112515.59999996424,108674.991,108686.09999996424,108691.657,112525.28,8,400,8,,ISIC_0059686.JPG
break,html.Screen,4_7_1,2023-10-31T21:47:14.266Z,,0,,,NaN,,,,,,false,,,,112516.59999996424,112516.5,,112516.19999998808,,112525.28,8,400,,,
break_continue,html.Screen,4_7_2,2023-10-31T21:47:14.266Z,,0,,,NaN,,,,,,false,,,,112516.89999997616,112516.79999995232,,112516.69999998808,,112525.28,8,400,,,
sequence,flow.Sequence,4_7,2023-10-31T21:47:14.266Z,,0,,,3825.1429999523098,completion,,,,,false,,,,112517.09999996424,112516.79999995232,108674.991,108686,108691.657,112525.28,8,400,,,
trial,html.Screen,4_8_0,2023-10-31T21:47:17.984Z,,0,1,,3709.1199999761593,response,ISIC_0072876.JPG,8,ISIC_6184891.JPG,ISIC_6184891.JPG,false,0,keypress(z),500,116234.79999995232,116234.39999997616,112508.614,112517.19999998808,112525.28,116241.798,8,400,9,,ISIC_0072876.JPG
break,html.Screen,4_8_1,2023-10-31T21:47:17.985Z,,0,,,NaN,,,,,,false,,,,116235.79999995232,116235.59999996424,,116235.09999996424,,116241.798,8,400,,,
break_continue,html.Screen,4_8_2,2023-10-31T21:47:17.985Z,,0,,,NaN,,,,,,false,,,,116236.19999998808,116236.09999996424,,116236,,116241.798,8,400,,,
sequence,flow.Sequence,4_8,2023-10-31T21:47:17.986Z,,0,,,3710.8199999642384,completion,,,,,false,,,,116236.39999997616,116236.09999996424,112508.614,112517.19999998808,112525.28,116241.798,8,400,,,
trial,html.Screen,4_9_0,2023-10-31T21:47:22.162Z,,0,1,,4170.501999952321,response,ISIC_4191202.JPG,8,ISIC_8957571.JPG,ISIC_8957571.JPG,false,0,keypress(z),500,120412.69999998808,120412.29999995232,116225.132,116236.5,116241.798,120425.28,8,400,10,,ISIC_4191202.JPG
break,html.Screen,4_9_1,2023-10-31T21:47:22.163Z,,0,,,NaN,,,,,,false,,,,120413.59999996424,120413.39999997616,,120412.89999997616,,120425.28,8,400,,,
break_continue,html.Screen,4_9_2,2023-10-31T21:47:22.163Z,,0,,,NaN,,,,,,false,,,,120414,120414,,120413.79999995232,,120425.28,8,400,,,
sequence,flow.Sequence,4_9,2023-10-31T21:47:22.163Z,,0,,,4172.202000000005,completion,,,,,false,,,,120414.19999998808,120414,116225.132,116236.5,116241.798,120425.28,8,400,,,
trial,html.Screen,4_10_0,2023-10-31T21:47:25.200Z,,0,1,,3025.220000000001,response,ISIC_0073136.JPG,8,ISIC_7185036.JPG,ISIC_7185036.JPG,false,0,keypress(z),500,123450.79999995232,123450.5,120408.614,120414.29999995232,120425.28,123458.492,8,400,11,,ISIC_0073136.JPG
break,html.Screen,4_10_1,2023-10-31T21:47:25.201Z,,0,,,NaN,,,,,,false,,,,123451.89999997616,123451.59999996424,,123451.09999996424,,123458.492,8,400,,,
break_continue,html.Screen,4_10_2,2023-10-31T21:47:25.201Z,,0,,,NaN,,,,,,false,,,,123452.19999998808,123452,,123452,,123458.492,8,400,,,
sequence,flow.Sequence,4_10,2023-10-31T21:47:25.202Z,,0,,,3026.720000000001,completion,,,,,false,,,,123452.39999997616,123452,120408.614,120414.29999995232,120425.28,123458.492,8,400,,,
trial,html.Screen,4_11_0,2023-10-31T21:47:29.031Z,,0,1,,3822.4079999761598,response,ISIC_0027091.JPG,7,ISIC_0030845.JPG,ISIC_0027091.JPG,false,1,keypress(m),500,127281.29999995232,127280.89999997616,123441.826,123452.5,123458.492,127291.672,8,400,12,,ISIC_0030845.JPG
break,html.Screen,4_11_1,2023-10-31T21:47:29.032Z,,0,,,NaN,,,,,,false,,,,127282.29999995232,127282.19999998808,,127281.59999996424,,127291.672,8,400,,,
break_continue,html.Screen,4_11_2,2023-10-31T21:47:29.032Z,,0,,,NaN,,,,,,false,,,,127282.69999998808,127282.59999996424,,127282.5,,127291.672,8,400,,,
sequence,flow.Sequence,4_11,2023-10-31T21:47:29.032Z,,0,,,3824.107999964239,completion,,,,,false,,,,127282.89999997616,127282.59999996424,123441.826,123452.39999997616,123458.492,127291.672,8,400,,,
trial,html.Screen,4_12_0,2023-10-31T21:47:32.907Z,,0,1,,3865.527999988073,response,ISIC_8388593.JPG,5,ISIC_0000146.JPG,ISIC_8388593.JPG,false,1,keypress(m),500,131157.59999996424,131157.19999998808,127275.006,127282.89999997616,127291.672,131158.617,8,400,13,,ISIC_0000146.JPG
break,html.Screen,4_12_1,2023-10-31T21:47:32.908Z,,0,,,NaN,,,,,,false,,,,131158.59999996424,131158.39999997616,,131157.89999997616,,131158.617,8,400,,,
break_continue,html.Screen,4_12_2,2023-10-31T21:47:32.908Z,,0,,,NaN,,,,,,false,,,,131158.89999997616,131158.89999997616,,131158.79999995232,,131158.617,8,400,,,
sequence,flow.Sequence,4_12,2023-10-31T21:47:32.908Z,,0,,,3867.227999976152,completion,,,,,false,,,,131159.19999998808,131158.89999997616,127275.006,127282.89999997616,127291.672,131158.617,8,400,,,
trial,html.Screen,4_13_0,2023-10-31T21:47:37.218Z,,0,1,,4309.682999952318,response,ISIC_0026627.JPG,6,ISIC_3934537.JPG,ISIC_0026627.JPG,false,1,keypress(m),500,135468.69999998808,135468.29999995232,131141.951,131159.29999995232,131158.617,135475.111,8,400,14,,ISIC_3934537.JPG
break,html.Screen,4_13_1,2023-10-31T21:47:37.219Z,,0,,,NaN,,,,,,false,,,,135469.59999996424,135469.5,,135469,,135475.111,8,400,,,
break_continue,html.Screen,4_13_2,2023-10-31T21:47:37.219Z,,0,,,NaN,,,,,,false,,,,135470,135469.89999997616,,135469.69999998808,,135475.111,8,400,,,
sequence,flow.Sequence,4_13,2023-10-31T21:47:37.220Z,,0,,,4311.28299997616,completion,,,,,false,,,,135470.19999998808,135469.89999997616,131141.951,131159.19999998808,131158.617,135475.111,8,400,,,
trial,html.Screen,4_14_0,2023-10-31T21:47:41.079Z,,0,1,,3854.0889999880746,response,ISIC_6954782.JPG,8,ISIC_0011700.JPG,ISIC_6954782.JPG,false,1,keypress(m),500,139329.69999998808,139329.19999998808,135458.445,135470.39999997616,135475.111,139341.623,8,400,15,,ISIC_0011700.JPG
break,html.Screen,4_14_1,2023-10-31T21:47:41.080Z,,0,,,NaN,,,,,,false,,,,139330.59999996424,139330.39999997616,,139329.89999997616,,139341.623,8,400,,,
break_continue,html.Screen,4_14_2,2023-10-31T21:47:41.080Z,,0,,,NaN,,,,,,false,,,,139330.89999997616,139330.79999995232,,139330.69999998808,,139341.623,8,400,,,
sequence,flow.Sequence,4_14,2023-10-31T21:47:41.080Z,,0,,,3855.688999952312,completion,,,,,false,,,,139331.19999998808,139330.79999995232,135458.445,135470.29999995232,135475.111,139341.623,8,400,,,
trial,html.Screen,4_15_0,2023-10-31T21:47:45.935Z,,0,1,,4843.476999964245,response,ISIC_3300710.JPG,8,ISIC_0057395.JPG,ISIC_0057395.JPG,false,0,keypress(z),500,144185.5,144185.09999996424,139324.957,139331.29999995232,139341.623,144191.84,8,400,16,,ISIC_3300710.JPG
break,html.Screen,4_15_1,2023-10-31T21:47:45.936Z,,0,,,NaN,,,,,,false,,,,144186.39999997616,144186.29999995232,,144185.79999995232,,144191.84,8,400,,,
break_continue,html.Screen,4_15_2,2023-10-31T21:47:45.936Z,,0,,,NaN,,,,,,false,,,,144186.79999995232,144186.69999998808,,144186.5,,144191.84,8,400,,,
sequence,flow.Sequence,4_15,2023-10-31T21:47:45.936Z,,0,,,4845.076999988087,completion,,,,,false,,,,144187,144186.69999998808,139324.957,139331.29999995232,139341.623,144191.84,8,400,,,
trial,html.Screen,4_16_0,2023-10-31T21:47:49.734Z,,0,1,,3792.2599999642407,response,ISIC_9015182.JPG,5,ISIC_4648593.JPG,ISIC_4648593.JPG,false,0,keypress(z),500,147984.5,147984.09999996424,144175.174,144187.19999998808,144191.84,147991.688,8,400,17,,ISIC_9015182.JPG
break,html.Screen,4_16_1,2023-10-31T21:47:49.735Z,,0,,,NaN,,,,,,false,,,,147985.39999997616,147985.29999995232,,147984.79999995232,,147991.688,8,400,,,
break_continue,html.Screen,4_16_2,2023-10-31T21:47:49.735Z,,0,,,NaN,,,,,,false,,,,147985.79999995232,147985.69999998808,,147985.59999996424,,147991.688,8,400,,,
sequence,flow.Sequence,4_16,2023-10-31T21:47:49.735Z,,0,,,3793.8599999880826,completion,,,,,false,,,,147986,147985.69999998808,144175.174,144187.09999996424,144191.84,147991.688,8,400,,,
trial,html.Screen,4_17_0,2023-10-31T21:47:54.668Z,,0,1,,4927.011999988084,response,ISIC_0356904.JPG,9,ISIC_0026103.JPG,ISIC_0356904.JPG,false,1,keypress(m),500,152919.09999996424,152918.69999998808,147975.022,147986.09999996424,147991.688,152925.326,8,400,18,,ISIC_0026103.JPG
break,html.Screen,4_17_1,2023-10-31T21:47:54.669Z,,0,,,NaN,,,,,,false,,,,152920,152919.79999995232,,152919.39999997616,,152925.326,8,400,,,
break_continue,html.Screen,4_17_2,2023-10-31T21:47:54.670Z,,0,,,NaN,,,,,,false,,,,152920.39999997616,152920.29999995232,,152920.09999996424,,152925.326,8,400,,,
sequence,flow.Sequence,4_17,2023-10-31T21:47:54.670Z,,0,,,4928.611999952322,completion,,,,,false,,,,152920.59999996424,152920.29999995232,147975.022,147986.09999996424,147991.688,152925.326,8,400,,,
trial,html.Screen,4_18_0,2023-10-31T21:47:57.985Z,,0,1,,3309.673999999999,response,ISIC_9052604.JPG,5,ISIC_2177748.JPG,ISIC_2177748.JPG,false,0,keypress(z),500,156235.29999995232,156235,152908.66,152920.69999998808,152925.326,156241.86,8,400,19,,ISIC_9052604.JPG
break,html.Screen,4_18_1,2023-10-31T21:47:57.986Z,,0,,,NaN,,,,,,false,,,,156236.29999995232,156236.09999996424,,156235.69999998808,,156241.86,8,400,,,
break_continue,html.Screen,4_18_2,2023-10-31T21:47:57.986Z,,0,,,NaN,,,,,,false,,,,156236.69999998808,156236.59999996424,,156236.5,,156241.86,8,400,,,
sequence,flow.Sequence,4_18,2023-10-31T21:47:57.986Z,,0,,,3311.2739999642363,completion,,,,,false,,,,156236.89999997616,156236.59999996424,152908.66,152920.69999998808,152925.326,156241.86,8,400,,,
trial,html.Screen,4_19_0,2023-10-31T21:48:01.302Z,,0,1,,3310.039999976172,response,ISIC_3475660.JPG,8,ISIC_0026231.JPG,ISIC_3475660.JPG,false,1,keypress(m),500,159552.29999995232,159551.89999997616,156225.194,156237,156241.86,159558.394,8,400,20,,ISIC_0026231.JPG
break,html.Screen,4_19_1,2023-10-31T21:48:01.303Z,,0,,,NaN,,,,,,false,,,,159553.09999996424,159553,,159552.5,,159558.394,8,400,,,
break_continue,html.Screen,4_19_2,2023-10-31T21:48:01.303Z,,0,,,NaN,,,,,,false,,,,159553.5,159553.29999995232,,159553.19999998808,,159558.394,8,400,,,
sequence,flow.Sequence,4_19,2023-10-31T21:48:01.303Z,,0,,,3311.4399999523303,completion,,,,,false,,,,159553.69999998808,159553.29999995232,156225.194,156237,156241.86,159558.394,8,400,,,
trial,html.Screen,4_20_0,2023-10-31T21:48:04.432Z,,0,1,,3124.1059999999998,response,ISIC_0032504.JPG,8,ISIC_6434210.JPG,ISIC_6434210.JPG,false,0,keypress(z),500,162682.79999995232,162682.5,159541.728,159553.79999995232,159558.394,162691.602,8,400,21,,ISIC_0032504.JPG
break,html.Screen,4_20_1,2023-10-31T21:48:04.433Z,,0,,,NaN,,,,,,false,,,,162683.79999995232,162683.69999998808,,162683.09999996424,,162691.602,8,400,,,
break_continue,html.Screen,4_20_2,2023-10-31T21:48:04.434Z,,0,,,NaN,,,,,,false,,,,162684.39999997616,162684.19999998808,,162684,,162691.602,8,400,,,
sequence,flow.Sequence,4_20,2023-10-31T21:48:04.434Z,,0,,,3125.805999988079,completion,,,,,false,,,,162684.59999996424,162684.19999998808,159541.728,159553.79999995232,159558.394,162691.602,8,400,,,
trial,html.Screen,4_21_0,2023-10-31T21:48:08.055Z,,0,1,,3613.2979999761446,response,ISIC_0025418.JPG,7,ISIC_0026659.JPG,ISIC_0025418.JPG,false,1,keypress(m),500,166305.09999996424,166304.89999997616,162674.936,162684.69999998808,162691.602,166308.536,8,400,22,,ISIC_0026659.JPG
break,html.Screen,4_21_1,2023-10-31T21:48:08.056Z,,0,,,NaN,,,,,,false,,,,166306.09999996424,166305.89999997616,,166305.5,,166308.536,8,400,,,
break_continue,html.Screen,4_21_2,2023-10-31T21:48:08.056Z,,0,,,NaN,,,,,,false,,,,166306.39999997616,166306.29999995232,,166306.19999998808,,166308.536,8,400,,,
sequence,flow.Sequence,4_21,2023-10-31T21:48:08.056Z,,0,,,3614.697999952303,completion,,,,,false,,,,166306.59999996424,166306.29999995232,162674.936,162684.69999998808,162691.602,166308.536,8,400,,,
trial,html.Screen,4_22_0,2023-10-31T21:48:11.160Z,,0,1,,3101.964000000007,response,ISIC_5732201.JPG,8,ISIC_0026086.JPG,ISIC_5732201.JPG,false,1,keypress(m),500,169410.79999995232,169410.5,166291.87,166306.79999995232,166308.536,169441.744,8,400,23,,ISIC_0026086.JPG
break,html.Screen,4_22_1,2023-10-31T21:48:11.161Z,,0,,,NaN,,,,,,false,,,,169411.79999995232,169411.69999998808,,169411.09999996424,,169441.744,8,400,,,
break_continue,html.Screen,4_22_2,2023-10-31T21:48:11.162Z,,0,,,NaN,,,,,,false,,,,169412.19999998808,169412,,169411.89999997616,,169441.744,8,400,,,
sequence,flow.Sequence,4_22,2023-10-31T21:48:11.162Z,,0,,,3103.464000000007,completion,,,,,false,,,,169412.29999995232,169412,166291.87,166306.69999998808,166308.536,169441.744,8,400,,,
trial,html.Screen,4_23_0,2023-10-31T21:48:14.188Z,,0,1,,2996.755999999994,response,ISIC_4015508.JPG,6,ISIC_2177748.JPG,ISIC_2177748.JPG,false,0,keypress(z),500,172438.89999997616,172438.5,169425.078,169412.39999997616,169441.744,172441.624,8,400,24,,ISIC_4015508.JPG
break,html.Screen,4_23_1,2023-10-31T21:48:14.189Z,,0,,,NaN,,,,,,false,,,,172439.79999995232,172439.69999998808,,172439.19999998808,,172441.624,8,400,,,
break_continue,html.Screen,4_23_2,2023-10-31T21:48:14.190Z,,0,,,NaN,,,,,,false,,,,172440.19999998808,172440.09999996424,,172440,,172441.624,8,400,,,
sequence,flow.Sequence,4_23,2023-10-31T21:48:14.190Z,,0,,,2998.355999964231,completion,,,,,false,,,,172440.39999997616,172440.09999996424,169425.078,169412.39999997616,169441.744,172441.624,8,400,,,
trial,html.Screen,4_24_0,2023-10-31T21:48:18.720Z,,0,1,,4528.875999999989,response,ISIC_0000440.JPG,7,ISIC_0073173.JPG,ISIC_0000440.JPG,false,1,keypress(m),500,176970.89999997616,176970.5,172424.958,172440.59999996424,172441.624,176975.158,8,400,25,,ISIC_0073173.JPG
break,html.Screen,4_24_1,2023-10-31T21:48:18.721Z,,0,,,NaN,,,,,,false,,,,176971.79999995232,176971.59999996424,,176971.19999998808,,176975.158,8,400,,,
break_continue,html.Screen,4_24_2,2023-10-31T21:48:18.722Z,,0,,,NaN,,,,,,false,,,,176972.19999998808,176972.09999996424,,176972,,176975.158,8,400,,,
sequence,flow.Sequence,4_24,2023-10-31T21:48:18.722Z,,0,,,4530.4759999642265,completion,,,,,false,,,,176972.39999997616,176972.09999996424,172424.958,172440.59999996424,172441.624,176975.158,8,400,,,
trial,html.Screen,4_25_0,2023-10-31T21:48:22.774Z,,0,1,,4048.6419999523205,response,ISIC_0071809.JPG,6,ISIC_0047008.JPG,ISIC_0071809.JPG,false,1,keypress(m),500,181024.09999996424,181023.79999995232,176958.492,176972.59999996424,176975.158,181024.996,8,400,26,,ISIC_0047008.JPG
break,html.Screen,4_25_1,2023-10-31T21:48:22.775Z,,0,,,NaN,,,,,,false,,,,181025.09999996424,181024.89999997616,,181024.39999997616,,181024.996,8,400,,,
break_continue,html.Screen,4_25_2,2023-10-31T21:48:22.775Z,,0,,,NaN,,,,,,false,,,,181025.5,181025.39999997616,,181025.19999998808,,181024.996,8,400,,,
sequence,flow.Sequence,4_25,2023-10-31T21:48:22.775Z,,0,,,4050.2419999761623,completion,,,,,false,,,,181025.69999998808,181025.39999997616,176958.492,176972.5,176975.158,181024.996,8,400,,,
trial,html.Screen,4_26_0,2023-10-31T21:48:26.362Z,,0,1,,3586.6039999642235,response,ISIC_1208705.JPG,7,ISIC_0708542.JPG,ISIC_1208705.JPG,false,1,keypress(m),500,184612,184611.59999996424,181008.33,181025.79999995232,181024.996,184625.246,8,400,27,,ISIC_0708542.JPG
break,html.Screen,4_26_1,2023-10-31T21:48:26.363Z,,0,,,NaN,,,,,,false,,,,184613,184612.69999998808,,184612.29999995232,,184625.246,8,400,,,
break_continue,html.Screen,4_26_2,2023-10-31T21:48:26.363Z,,0,,,NaN,,,,,,false,,,,184613.29999995232,184613.19999998808,,184613,,184625.246,8,400,,,
sequence,flow.Sequence,4_26,2023-10-31T21:48:26.363Z,,0,,,3588.2039999880653,completion,,,,,false,,,,184613.5,184613.19999998808,181008.33,181025.69999998808,181024.996,184625.246,8,400,,,
trial,html.Screen,4_27_0,2023-10-31T21:48:29.569Z,,0,1,,3193.5539999523025,response,ISIC_2642873.JPG,8,ISIC_0012069.JPG,ISIC_2642873.JPG,false,1,keypress(m),500,187819.09999996424,187818.79999995232,184608.58,184613.69999998808,184625.246,187825.118,8,400,28,,ISIC_0012069.JPG
break,html.Screen,4_27_1,2023-10-31T21:48:29.570Z,,0,,,NaN,,,,,,false,,,,187820.19999998808,187819.89999997616,,187819.5,,187825.118,8,400,,,
break_continue,html.Screen,4_27_2,2023-10-31T21:48:29.570Z,,0,,,NaN,,,,,,false,,,,187820.5,187820.39999997616,,187820.29999995232,,187825.118,8,400,,,
sequence,flow.Sequence,4_27,2023-10-31T21:48:29.570Z,,0,,,3195.1539999761444,completion,,,,,false,,,,187820.69999998808,187820.39999997616,184608.58,184613.5,184625.246,187825.118,8,400,,,
trial,html.Screen,4_28_0,2023-10-31T21:48:32.338Z,,0,1,,2762.3820000000123,response,ISIC_0059082.JPG,8,ISIC_2685523.JPG,ISIC_2685523.JPG,false,0,keypress(z),500,190587.89999997616,190587.5,187808.452,187820.79999995232,187825.118,190591.674,8,400,29,,ISIC_0059082.JPG
break,html.Screen,4_28_1,2023-10-31T21:48:32.338Z,,0,,,NaN,,,,,,false,,,,190588.79999995232,190588.59999996424,,190588.09999996424,,190591.674,8,400,,,
break_continue,html.Screen,4_28_2,2023-10-31T21:48:32.339Z,,0,,,NaN,,,,,,false,,,,190589.19999998808,190589.09999996424,,190588.89999997616,,190591.674,8,400,,,
sequence,flow.Sequence,4_28,2023-10-31T21:48:32.339Z,,0,,,2763.9819999642496,completion,,,,,false,,,,190589.39999997616,190589.09999996424,187808.452,187820.79999995232,187825.118,190591.674,8,400,,,
trial,html.Screen,4_29_0,2023-10-31T21:48:36.194Z,,0,1,,3852.02599998808,response,ISIC_0283506.JPG,9,ISIC_5213829.JPG,ISIC_5213829.JPG,false,0,keypress(z),500,194444,194443.69999998808,190575.008,190589.5,190591.674,194458.186,8,400,30,,ISIC_0283506.JPG
break,html.Screen,4_29_1,2023-10-31T21:48:36.195Z,,0,,,NaN,,,,,,false,,,,194445,194444.69999998808,,194444.29999995232,,194458.186,8,400,,,
break_continue,html.Screen,4_29_2,2023-10-31T21:48:36.195Z,,0,,,NaN,,,,,,false,,,,194445.39999997616,194445.29999995232,,194445.09999996424,,194458.186,8,400,,,
sequence,flow.Sequence,4_29,2023-10-31T21:48:36.195Z,,0,,,3853.625999952317,completion,,,,,false,,,,194445.5,194445.29999995232,190575.008,190589.5,190591.674,194458.186,8,400,,,
trial,html.Screen,4_30_0,2023-10-31T21:48:39.207Z,,0,1,,2999.1139999523293,response,ISIC_0062114.JPG,8,ISIC_8278458.JPG,ISIC_0062114.JPG,false,1,keypress(m),500,197457.69999998808,197457.29999995232,194441.52,194445.69999998808,194458.186,197475.198,8,400,31,,ISIC_8278458.JPG
break,html.Screen,4_30_1,2023-10-31T21:48:39.208Z,,0,,,NaN,,,,,,false,,,,197458.69999998808,197458.5,,197458,,197475.198,8,400,,,
break_continue,html.Screen,4_30_2,2023-10-31T21:48:39.209Z,,0,,,NaN,,,,,,false,,,,197459.09999996424,197458.89999997616,,197458.79999995232,,197475.198,8,400,,,
sequence,flow.Sequence,4_30,2023-10-31T21:48:39.209Z,,0,,,3000.713999976171,completion,,,,,false,,,,197459.29999995232,197458.89999997616,194441.52,194445.69999998808,194458.186,197475.198,8,400,,,
trial,html.Screen,4_31_0,2023-10-31T21:48:42.030Z,,0,1,,2805.001999988075,response,ISIC_7004652.JPG,8,ISIC_0011704.JPG,ISIC_7004652.JPG,false,1,keypress(m),500,200280.5,200280.19999998808,197458.532,197459.5,197475.198,200291.752,8,400,32,,ISIC_0011704.JPG
break,html.Screen,4_31_1,2023-10-31T21:48:42.031Z,,0,,,NaN,,,,,,false,,,,200281.5,200281.29999995232,,200280.89999997616,,200291.752,8,400,,,
break_continue,html.Screen,4_31_2,2023-10-31T21:48:42.032Z,,0,,,NaN,,,,,,false,,,,200281.89999997616,200281.69999998808,,200281.59999996424,,200291.752,8,400,,,
sequence,flow.Sequence,4_31,2023-10-31T21:48:42.032Z,,0,,,2806.501999988075,completion,,,,,false,,,,200282,200281.69999998808,197458.532,197459.5,197475.198,200291.752,8,400,,,
trial,html.Screen,4_32_0,2023-10-31T21:48:45.429Z,,0,1,,3386.7479999999923,response,ISIC_0060937.JPG,9,ISIC_5141844.JPG,ISIC_5141844.JPG,false,0,keypress(z),500,203679,203678.5,200275.086,200282.09999996424,200291.752,203691.616,8,400,33,,ISIC_0060937.JPG
break,html.Screen,4_32_1,2023-10-31T21:48:45.430Z,,0,,,NaN,,,,,,false,,,,203679.89999997616,203679.69999998808,,203679.29999995232,,203691.616,8,400,,,
break_continue,html.Screen,4_32_2,2023-10-31T21:48:45.430Z,,0,,,NaN,,,,,,false,,,,203680.29999995232,203680.09999996424,,203680.09999996424,,203691.616,8,400,,,
sequence,flow.Sequence,4_32,2023-10-31T21:48:45.430Z,,0,,,3388.3479999642295,completion,,,,,false,,,,203680.5,203680.09999996424,200275.086,200282.09999996424,200291.752,203691.616,8,400,,,
trial,html.Screen,4_33_0,2023-10-31T21:48:48.314Z,,0,1,,2872.683999952307,response,ISIC_3286956.JPG,8,ISIC_6455702.JPG,ISIC_6455702.JPG,false,0,keypress(z),500,206564.59999996424,206564.29999995232,203674.95,203680.59999996424,203691.616,206575.233,8,400,34,,ISIC_3286956.JPG
break,html.Screen,4_33_1,2023-10-31T21:48:48.315Z,,0,,,NaN,,,,,,false,,,,206565.59999996424,206565.29999995232,,206564.79999995232,,206575.233,8,400,,,
break_continue,html.Screen,4_33_2,2023-10-31T21:48:48.316Z,,0,,,NaN,,,,,,false,,,,206566,206565.89999997616,,206565.69999998808,,206575.233,8,400,,,
sequence,flow.Sequence,4_33,2023-10-31T21:48:48.316Z,,0,,,2874.283999976149,completion,,,,,false,,,,206566.09999996424,206565.89999997616,203674.95,203680.59999996424,203691.616,206575.233,8,400,,,
trial,html.Screen,4_34_0,2023-10-31T21:48:51.770Z,,0,1,,3444.2669999999925,response,ISIC_0009510.JPG,7,ISIC_0028320.JPG,ISIC_0009510.JPG,false,1,keypress(m),500,210019.89999997616,210019.5,206558.567,206566.29999995232,206575.233,210025.095,8,400,35,,ISIC_0028320.JPG
break,html.Screen,4_34_1,2023-10-31T21:48:51.771Z,,0,,,NaN,,,,,,false,,,,210020.79999995232,210020.69999998808,,210020.19999998808,,210025.095,8,400,,,
break_continue,html.Screen,4_34_2,2023-10-31T21:48:51.771Z,,0,,,NaN,,,,,,false,,,,210021.19999998808,210021.09999996424,,210020.89999997616,,210025.095,8,400,,,
sequence,flow.Sequence,4_34,2023-10-31T21:48:51.771Z,,0,,,3445.8669999642298,completion,,,,,false,,,,210021.39999997616,210021.09999996424,206558.567,206566.19999998808,206575.233,210025.095,8,400,,,
trial,html.Screen,4_35_0,2023-10-31T21:48:55.129Z,,0,1,,3354.104999988078,response,ISIC_0058125.JPG,8,ISIC_4559115.JPG,ISIC_0058125.JPG,false,1,keypress(m),500,213379.5,213379.19999998808,210008.429,210021.59999996424,210025.095,213391.627,8,400,36,,ISIC_4559115.JPG
break,html.Screen,4_35_1,2023-10-31T21:48:55.130Z,,0,,,NaN,,,,,,false,,,,213380.39999997616,213380.19999998808,,213379.79999995232,,213391.627,8,400,,,
break_continue,html.Screen,4_35_2,2023-10-31T21:48:55.131Z,,0,,,NaN,,,,,,false,,,,213380.79999995232,213380.69999998808,,213380.5,,213391.627,8,400,,,
sequence,flow.Sequence,4_35,2023-10-31T21:48:55.131Z,,0,,,3355.604999988078,completion,,,,,false,,,,213381,213380.69999998808,210008.429,210021.5,210025.095,213391.627,8,400,,,
trial,html.Screen,4_36_0,2023-10-31T21:48:58.398Z,,0,1,,3255.8729999999923,response,ISIC_6178099.JPG,8,ISIC_9568138.JPG,ISIC_6178099.JPG,false,1,keypress(m),500,216647.89999997616,216647.5,213374.961,213381.09999996424,213391.627,216658.542,8,400,37,,ISIC_9568138.JPG
break,html.Screen,4_36_1,2023-10-31T21:48:58.399Z,,0,,,NaN,,,,,,false,,,,216648.89999997616,216648.69999998808,,216648.19999998808,,216658.542,8,400,,,
break_continue,html.Screen,4_36_2,2023-10-31T21:48:58.399Z,,0,,,NaN,,,,,,false,,,,216649.29999995232,216649.19999998808,,216649.09999996424,,216658.542,8,400,,,
sequence,flow.Sequence,4_36,2023-10-31T21:48:58.399Z,,0,,,3257.5729999880714,completion,,,,,false,,,,216649.39999997616,216649.19999998808,213374.961,213381,213391.627,216658.542,8,400,,,
trial,html.Screen,4_37_0,2023-10-31T21:49:02.453Z,,0,1,,4044.1579999880923,response,ISIC_0062770.JPG,8,ISIC_0056192.JPG,ISIC_0056192.JPG,false,0,keypress(z),500,220703.19999998808,220702.69999998808,216641.876,216649.59999996424,216658.542,220708.38,8,400,38,,ISIC_0062770.JPG
break,html.Screen,4_37_1,2023-10-31T21:49:02.454Z,,0,,,NaN,,,,,,false,,,,220704.19999998808,220704.09999996424,,220703.5,,220708.38,8,400,,,
break_continue,html.Screen,4_37_2,2023-10-31T21:49:02.454Z,,0,,,NaN,,,,,,false,,,,220704.59999996424,220704.5,,220704.29999995232,,220708.38,8,400,,,
sequence,flow.Sequence,4_37,2023-10-31T21:49:02.455Z,,0,,,4045.9580000000133,completion,,,,,false,,,,220704.79999995232,220704.5,216641.876,216649.5,216658.542,220708.38,8,400,,,
trial,html.Screen,4_38_0,2023-10-31T21:49:05.643Z,,0,1,,3184.6199999999953,response,ISIC_0029660.JPG,8,ISIC_3760796.JPG,ISIC_3760796.JPG,false,0,keypress(z),500,223893.39999997616,223893,220691.714,220704.89999997616,220708.38,223908.252,8,400,39,,ISIC_0029660.JPG
break,html.Screen,4_38_1,2023-10-31T21:49:05.644Z,,0,,,NaN,,,,,,false,,,,223894.29999995232,223894.09999996424,,223893.69999998808,,223908.252,8,400,,,
break_continue,html.Screen,4_38_2,2023-10-31T21:49:05.645Z,,0,,,NaN,,,,,,false,,,,223894.69999998808,223894.59999996424,,223894.39999997616,,223908.252,8,400,,,
sequence,flow.Sequence,4_38,2023-10-31T21:49:05.645Z,,0,,,3186.2199999642326,completion,,,,,false,,,,223894.89999997616,223894.59999996424,220691.714,220704.79999995232,220708.38,223908.252,8,400,,,
trial,html.Screen,4_39_0,2023-10-31T21:49:09.817Z,,0,1,,4158.3479999642295,response,ISIC_5955057.JPG,6,ISIC_0862745.JPG,ISIC_0862745.JPG,false,0,keypress(z),500,228067,228066.59999996424,223891.586,223895,223908.252,228075.163,8,400,40,,ISIC_5955057.JPG
break,html.Screen,4_39_1,2023-10-31T21:49:09.818Z,,0,,,NaN,,,,,,false,,,,228068,228067.79999995232,,228067.29999995232,,228075.163,8,400,,,
break_continue,html.Screen,4_39_2,2023-10-31T21:49:09.818Z,,0,,,NaN,,,,,,false,,,,228068.29999995232,228068.29999995232,,228068.09999996424,,228075.163,8,400,,,
sequence,flow.Sequence,4_39,2023-10-31T21:49:09.818Z,,0,,,4160.047999952309,completion,,,,,false,,,,228068.5,228068.29999995232,223891.586,223894.89999997616,223908.252,228075.163,8,400,,,
trial,html.Screen,4_40_0,2023-10-31T21:49:12.944Z,,0,1,,3118.7369999761577,response,ISIC_7694069.JPG,8,ISIC_8621568.JPG,ISIC_7694069.JPG,false,1,keypress(m),500,231194,231193.89999997616,228058.497,228068.69999998808,228075.163,231208.371,8,400,41,,ISIC_8621568.JPG
break,html.Screen,4_40_1,2023-10-31T21:49:12.944Z,,0,,,NaN,,,,,,false,,,,231194.39999997616,231194.29999995232,,231194.19999998808,,231208.371,8,400,,,
break_continue,html.Screen,4_40_2,2023-10-31T21:49:12.945Z,,0,,,NaN,,,,,,false,,,,231194.59999996424,231194.59999996424,,231194.5,,231208.371,8,400,,,
sequence,flow.Sequence,4_40,2023-10-31T21:49:12.945Z,,0,,,3119.4369999642367,completion,,,,,false,,,,231194.69999998808,231194.59999996424,228058.497,228068.59999996424,228075.163,231208.371,8,400,,,
trial,html.Screen,4_41_0,2023-10-31T21:49:17.394Z,,0,1,,4435.528999976144,response,ISIC_0011378.JPG,8,ISIC_0032517.JPG,ISIC_0011378.JPG,false,1,keypress(m),500,235644.09999996424,235643.89999997616,231191.705,231194.79999995232,231208.371,235658.587,8,400,42,,ISIC_0032517.JPG
break,html.Screen,4_41_1,2023-10-31T21:49:17.395Z,,0,,,NaN,,,,,,false,,,,235645.09999996424,235644.89999997616,,235644.39999997616,,235658.587,8,400,,,
break_continue,html.Screen,4_41_2,2023-10-31T21:49:17.395Z,,0,,,NaN,,,,,,false,,,,235645.39999997616,235645.29999995232,,235645.19999998808,,235658.587,8,400,,,
sequence,flow.Sequence,4_41,2023-10-31T21:49:17.396Z,,0,,,4436.928999952303,completion,,,,,false,,,,235645.59999996424,235645.29999995232,231191.705,231194.69999998808,231208.371,235658.587,8,400,,,
trial,html.Screen,4_42_0,2023-10-31T21:49:20.953Z,,0,1,,3543.7129999523167,response,ISIC_4752144.JPG,9,ISIC_0000413.JPG,ISIC_0000413.JPG,false,0,keypress(z),500,239202.59999996424,239202.29999995232,235641.921,235645.69999998808,235658.587,239208.445,8,400,43,,ISIC_4752144.JPG
break,html.Screen,4_42_1,2023-10-31T21:49:20.953Z,,0,,,NaN,,,,,,false,,,,239203.09999996424,239203,,239202.69999998808,,239208.445,8,400,,,
break_continue,html.Screen,4_42_2,2023-10-31T21:49:20.953Z,,0,,,NaN,,,,,,false,,,,239203.39999997616,239203.29999995232,,239203.29999995232,,239208.445,8,400,,,
sequence,flow.Sequence,4_42,2023-10-31T21:49:20.953Z,,0,,,3544.7129999523167,completion,,,,,false,,,,239203.5,239203.29999995232,235641.921,235645.69999998808,235658.587,239208.445,8,400,,,
trial,html.Screen,4_43_0,2023-10-31T21:49:23.998Z,,0,1,,3038.754999988072,response,ISIC_5611010.JPG,5,ISIC_4322723.JPG,ISIC_4322723.JPG,false,0,keypress(z),500,242247.69999998808,242247.19999998808,239191.779,239203.5,239208.445,242258.323,8,400,44,,ISIC_5611010.JPG
break,html.Screen,4_43_1,2023-10-31T21:49:23.998Z,,0,,,NaN,,,,,,false,,,,242248.39999997616,242248.39999997616,,242247.89999997616,,242258.323,8,400,,,
break_continue,html.Screen,4_43_2,2023-10-31T21:49:23.999Z,,0,,,NaN,,,,,,false,,,,242248.79999995232,242248.69999998808,,242248.69999998808,,242258.323,8,400,,,
sequence,flow.Sequence,4_43,2023-10-31T21:49:23.999Z,,0,,,3040.254999988072,completion,,,,,false,,,,242249.09999996424,242248.69999998808,239191.779,239203.5,239208.445,242258.323,8,400,,,
trial,html.Screen,4_44_0,2023-10-31T21:49:27.505Z,,0,1,,3496.176999999996,response,ISIC_0011483.JPG,8,ISIC_3945116.JPG,ISIC_0011483.JPG,false,1,keypress(m),500,245754.79999995232,245754.5,242241.657,242249.19999998808,242258.323,245758.582,8,400,45,,ISIC_3945116.JPG
break,html.Screen,4_44_1,2023-10-31T21:49:27.506Z,,0,,,NaN,,,,,,false,,,,245755.59999996424,245755.39999997616,,245755,,245758.582,8,400,,,
break_continue,html.Screen,4_44_2,2023-10-31T21:49:27.506Z,,0,,,NaN,,,,,,false,,,,245756,245756,,245755.79999995232,,245758.582,8,400,,,
sequence,flow.Sequence,4_44,2023-10-31T21:49:27.506Z,,0,,,3497.676999999996,completion,,,,,false,,,,245756.19999998808,245756,242241.657,242249.09999996424,242258.323,245758.582,8,400,,,
trial,html.Screen,4_45_0,2023-10-31T21:49:32.039Z,,0,1,,4529.918000000005,response,ISIC_0010067.JPG,7,ISIC_0059390.JPG,ISIC_0010067.JPG,false,1,keypress(m),500,250288.79999995232,250288.5,245741.916,245756.29999995232,245758.582,250291.734,8,400,46,,ISIC_0059390.JPG
break,html.Screen,4_45_1,2023-10-31T21:49:32.040Z,,0,,,NaN,,,,,,false,,,,250289.69999998808,250289.59999996424,,250289.19999998808,,250291.734,8,400,,,
break_continue,html.Screen,4_45_2,2023-10-31T21:49:32.040Z,,0,,,NaN,,,,,,false,,,,250290.09999996424,250290,,250289.89999997616,,250291.734,8,400,,,
sequence,flow.Sequence,4_45,2023-10-31T21:49:32.040Z,,0,,,4531.418000000005,completion,,,,,false,,,,250290.19999998808,250290,245741.916,245756.19999998808,245758.582,250291.734,8,400,,,
trial,html.Screen,4_46_0,2023-10-31T21:49:35.153Z,,0,1,,3110.5659999523195,response,ISIC_0033415.JPG,7,ISIC_0013777.JPG,ISIC_0013777.JPG,false,0,keypress(z),500,253402.59999996424,253402.29999995232,250275.068,250290.39999997616,250291.734,253408.276,8,400,47,,ISIC_0033415.JPG
break,html.Screen,4_46_1,2023-10-31T21:49:35.154Z,,0,,,NaN,,,,,,false,,,,253403.5,253403.29999995232,,253402.79999995232,,253408.276,8,400,,,
break_continue,html.Screen,4_46_2,2023-10-31T21:49:35.154Z,,0,,,NaN,,,,,,false,,,,253403.89999997616,253403.79999995232,,253403.59999996424,,253408.276,8,400,,,
sequence,flow.Sequence,4_46,2023-10-31T21:49:35.154Z,,0,,,3112.0659999523195,completion,,,,,false,,,,253404,253403.79999995232,250275.068,250290.29999995232,250291.734,253408.276,8,400,,,
trial,html.Screen,4_47_0,2023-10-31T21:49:37.813Z,,0,1,,2654.0239999523037,response,ISIC_0011950.JPG,7,ISIC_7755106.JPG,ISIC_7755106.JPG,false,0,keypress(z),500,256062.59999996424,256062.29999995232,253391.61,253404.09999996424,253408.276,256075.243,8,400,48,,ISIC_0011950.JPG
break,html.Screen,4_47_1,2023-10-31T21:49:37.814Z,,0,,,NaN,,,,,,false,,,,256063.59999996424,256063.29999995232,,256062.89999997616,,256075.243,8,400,,,
break_continue,html.Screen,4_47_2,2023-10-31T21:49:37.814Z,,0,,,NaN,,,,,,false,,,,256063.89999997616,256063.79999995232,,256063.69999998808,,256075.243,8,400,,,
sequence,flow.Sequence,4_47,2023-10-31T21:49:37.814Z,,0,,,2655.5239999523037,completion,,,,,false,,,,256064.09999996424,256063.79999995232,253391.61,253404.09999996424,253408.276,256075.243,8,400,,,
trial,html.Screen,4_48_0,2023-10-31T21:49:41.116Z,,0,1,,3290.1569999761705,response,ISIC_0013334.JPG,9,ISIC_0025779.JPG,ISIC_0025779.JPG,false,0,keypress(z),500,259365.89999997616,259365.39999997616,256058.577,256064.29999995232,256075.243,259375.111,8,400,49,,ISIC_0013334.JPG
break,html.Screen,4_48_1,2023-10-31T21:49:41.117Z,,0,,,NaN,,,,,,false,,,,259366.89999997616,259366.69999998808,,259366.19999998808,,259375.111,8,400,,,
break_continue,html.Screen,4_48_2,2023-10-31T21:49:41.117Z,,0,,,NaN,,,,,,false,,,,259367.39999997616,259367.19999998808,,259367,,259375.111,8,400,,,
sequence,flow.Sequence,4_48,2023-10-31T21:49:41.118Z,,0,,,3291.9569999880914,completion,,,,,false,,,,259367.5,259367.19999998808,256058.577,256064.19999998808,256075.243,259375.111,8,400,,,
trial,html.Screen,4_49_0,2023-10-31T21:49:44.442Z,,0,1,,3315.8889999999956,response,ISIC_0026258.JPG,8,ISIC_5785408.JPG,ISIC_5785408.JPG,false,0,keypress(z),500,262691.39999997616,262691,259358.445,259367.59999996424,259375.111,262708.311,8,400,50,,ISIC_0026258.JPG
break,html.Screen,4_49_1,2023-10-31T21:49:54.446Z,,0,,,9999.994999999995,timeout,,,,,false,,,,272695.7999999523,272691.64,262691.645,262691.7999999523,262708.311,272708.306,8,400,,,
break_continue,html.Screen,4_49_2,2023-10-31T21:49:59.019Z,,0,,,4547.593999976176,response,,,,,false,continue,keypress(Space),,277269.2999999523,277255.89999997616,272691.64,272696.09999996424,272708.306,277274.79,8,400,,,
sequence,flow.Sequence,4_49,2023-10-31T21:49:59.020Z,,0,,,17880.788999976154,completion,,,,,false,,,,277269.5,277255.89999997616,259358.445,259367.59999996424,259375.111,277274.79,8,400,,,
trial,html.Screen,4_50_0,2023-10-31T21:50:03.026Z,,0,2,,4000.210000000021,response,ISIC_3000569.JPG,8,ISIC_0001572.JPG,ISIC_3000569.JPG,false,1,keypress(m),500,281275.5,281275,277258.124,277269.59999996424,277274.79,281291.574,8,400,1,,ISIC_0001572.JPG
break,html.Screen,4_50_1,2023-10-31T21:50:03.027Z,,0,,,NaN,,,,,,false,,,,281276.5,281276.2999999523,,281275.7999999523,,281291.574,8,400,,,
break_continue,html.Screen,4_50_2,2023-10-31T21:50:03.027Z,,0,,,NaN,,,,,,false,,,,281276.89999997616,281276.7999999523,,281276.59999996424,,281291.574,8,400,,,
sequence,flow.Sequence,4_50,2023-10-31T21:50:03.027Z,,0,,,4002.0099999523372,completion,,,,,false,,,,281277.09999996424,281276.7999999523,277258.124,277269.5,277274.79,281291.574,8,400,,,
trial,html.Screen,4_51_0,2023-10-31T21:50:07.001Z,,0,2,,3959.025999964215,response,ISIC_0054651.JPG,8,ISIC_0028543.JPG,ISIC_0028543.JPG,false,0,keypress(z),500,285251,285250.59999996424,281274.908,281277.2999999523,281291.574,285258.082,8,400,2,,ISIC_0054651.JPG
break,html.Screen,4_51_1,2023-10-31T21:50:07.002Z,,0,,,NaN,,,,,,false,,,,285252,285251.7999999523,,285251.2999999523,,285258.082,8,400,,,
break_continue,html.Screen,4_51_2,2023-10-31T21:50:07.003Z,,0,,,NaN,,,,,,false,,,,285252.39999997616,285252.1999999881,,285252.09999996424,,285258.082,8,400,,,
sequence,flow.Sequence,4_51,2023-10-31T21:50:07.003Z,,0,,,3960.6259999880567,completion,,,,,false,,,,285252.5,285252.1999999881,281274.908,281277.1999999881,281291.574,285258.082,8,400,,,
trial,html.Screen,4_52_0,2023-10-31T21:50:10.832Z,,0,2,,3822.918000000005,response,ISIC_6458982.JPG,8,ISIC_0002613.JPG,ISIC_6458982.JPG,false,1,keypress(m),500,289081.5,289081,285241.416,285252.59999996424,285258.082,289091.876,8,400,3,,ISIC_0002613.JPG
break,html.Screen,4_52_1,2023-10-31T21:50:10.833Z,,0,,,NaN,,,,,,false,,,,289082.39999997616,289082.1999999881,,289081.6999999881,,289091.876,8,400,,,
break_continue,html.Screen,4_52_2,2023-10-31T21:50:10.833Z,,0,,,NaN,,,,,,false,,,,289082.7999999523,289082.6999999881,,289082.5,,289091.876,8,400,,,
sequence,flow.Sequence,4_52,2023-10-31T21:50:10.833Z,,0,,,3824.617999988084,completion,,,,,false,,,,289083,289082.6999999881,285241.416,285252.59999996424,285258.082,289091.876,8,400,,,
trial,html.Screen,4_53_0,2023-10-31T21:50:13.750Z,,0,2,,2907.82399998809,response,ISIC_0026500.JPG,4,ISIC_5223280.JPG,ISIC_5223280.JPG,false,0,keypress(z),500,292000.09999996424,291999.6999999881,289075.21,289083.09999996424,289091.876,292008.426,8,400,4,,ISIC_0026500.JPG
break,html.Screen,4_53_1,2023-10-31T21:50:13.751Z,,0,,,NaN,,,,,,false,,,,292001.1999999881,292000.89999997616,,292000.5,,292008.426,8,400,,,
break_continue,html.Screen,4_53_2,2023-10-31T21:50:13.752Z,,0,,,NaN,,,,,,false,,,,292001.5,292001.39999997616,,292001.2999999523,,292008.426,8,400,,,
sequence,flow.Sequence,4_53,2023-10-31T21:50:13.752Z,,0,,,2909.523999976169,completion,,,,,false,,,,292001.6999999881,292001.39999997616,289075.21,289083,289091.876,292008.426,8,400,,,
trial,html.Screen,4_54_0,2023-10-31T21:50:18.493Z,,0,2,,4734.273999988101,response,ISIC_0011686.JPG,7,ISIC_0010240.JPG,ISIC_0011686.JPG,false,1,keypress(m),500,296743.09999996424,296742.6999999881,291991.76,292001.7999999523,292008.426,296758.236,8,400,5,,ISIC_0010240.JPG
break,html.Screen,4_54_1,2023-10-31T21:50:18.494Z,,0,,,NaN,,,,,,false,,,,296744.09999996424,296743.89999997616,,296743.39999997616,,296758.236,8,400,,,
break_continue,html.Screen,4_54_2,2023-10-31T21:50:18.495Z,,0,,,NaN,,,,,,false,,,,296744.39999997616,296744.2999999523,,296744.1999999881,,296758.236,8,400,,,
sequence,flow.Sequence,4_54,2023-10-31T21:50:18.495Z,,0,,,4735.873999952339,completion,,,,,false,,,,296744.59999996424,296744.2999999523,291991.76,292001.7999999523,292008.426,296758.236,8,400,,,
trial,html.Screen,4_55_0,2023-10-31T21:50:21.652Z,,0,2,,3142.863999964262,response,ISIC_0055054.JPG,9,ISIC_6913272.JPG,ISIC_6913272.JPG,false,0,keypress(z),500,299901.5,299901.09999996424,296741.57,296744.6999999881,296758.236,299908.494,8,400,6,,ISIC_0055054.JPG
break,html.Screen,4_55_1,2023-10-31T21:50:21.653Z,,0,,,NaN,,,,,,false,,,,299902.5,299902.2999999523,,299901.7999999523,,299908.494,8,400,,,
break_continue,html.Screen,4_55_2,2023-10-31T21:50:21.653Z,,0,,,NaN,,,,,,false,,,,299902.7999999523,299902.6999999881,,299902.59999996424,,299908.494,8,400,,,
sequence,flow.Sequence,4_55,2023-10-31T21:50:21.653Z,,0,,,3144.4639999881038,completion,,,,,false,,,,299903,299902.6999999881,296741.57,296744.59999996424,296758.236,299908.494,8,400,,,
trial,html.Screen,4_56_0,2023-10-31T21:50:24.506Z,,0,2,,2846.8059999523102,response,ISIC_0065449.JPG,7,ISIC_0027882.JPG,ISIC_0027882.JPG,false,0,keypress(z),500,302755.6999999881,302755.2999999523,299891.828,299903.09999996424,299908.494,302758.38,8,400,7,,ISIC_0065449.JPG
break,html.Screen,4_56_1,2023-10-31T21:50:24.507Z,,0,,,NaN,,,,,,false,,,,302756.59999996424,302756.39999997616,,302755.89999997616,,302758.38,8,400,,,
break_continue,html.Screen,4_56_2,2023-10-31T21:50:24.507Z,,0,,,NaN,,,,,,false,,,,302756.89999997616,302756.7999999523,,302756.7999999523,,302758.38,8,400,,,
sequence,flow.Sequence,4_56,2023-10-31T21:50:24.507Z,,0,,,2848.3059999523102,completion,,,,,false,,,,302757.09999996424,302756.7999999523,299891.828,299903.09999996424,299908.494,302758.38,8,400,,,
trial,html.Screen,4_57_0,2023-10-31T21:50:27.969Z,,0,2,,3459.4199999523116,response,ISIC_0054568.JPG,8,ISIC_0024537.JPG,ISIC_0054568.JPG,false,1,keypress(m),500,306218.2999999523,306217.7999999523,302741.714,302757.2999999523,302758.38,306224.908,8,400,8,,ISIC_0024537.JPG
break,html.Screen,4_57_1,2023-10-31T21:50:27.970Z,,0,,,NaN,,,,,,false,,,,306219.2999999523,306219.09999996424,,306218.59999996424,,306224.908,8,400,,,
break_continue,html.Screen,4_57_2,2023-10-31T21:50:27.970Z,,0,,,NaN,,,,,,false,,,,306219.6999999881,306219.59999996424,,306219.5,,306224.908,8,400,,,
sequence,flow.Sequence,4_57,2023-10-31T21:50:27.970Z,,0,,,3461.2199999642326,completion,,,,,false,,,,306219.89999997616,306219.59999996424,302741.714,302757.1999999881,302758.38,306224.908,8,400,,,
trial,html.Screen,4_58_0,2023-10-31T21:50:30.963Z,,0,2,,2986.8919999523205,response,ISIC_0024720.JPG,8,ISIC_6162308.JPG,ISIC_6162308.JPG,false,0,keypress(z),500,309212.1999999881,309211.7999999523,306208.242,306220,306224.908,309224.788,8,400,9,,ISIC_0024720.JPG
break,html.Screen,4_58_1,2023-10-31T21:50:30.964Z,,0,,,NaN,,,,,,false,,,,309213.1999999881,309212.89999997616,,309212.5,,309224.788,8,400,,,
break_continue,html.Screen,4_58_2,2023-10-31T21:50:30.964Z,,0,,,NaN,,,,,,false,,,,309213.5,309213.39999997616,,309213.1999999881,,309224.788,8,400,,,
sequence,flow.Sequence,4_58,2023-10-31T21:50:30.964Z,,0,,,2988.4919999761623,completion,,,,,false,,,,309213.6999999881,309213.39999997616,306208.242,306220,306224.908,309224.788,8,400,,,
trial,html.Screen,4_59_0,2023-10-31T21:50:33.927Z,,0,2,,2951.011999952316,response,ISIC_0058376.JPG,7,ISIC_0072624.JPG,ISIC_0058376.JPG,false,1,keypress(m),500,312176.1999999881,312175.7999999523,309208.122,309213.7999999523,309224.788,312191.764,8,400,10,,ISIC_0072624.JPG
break,html.Screen,4_59_1,2023-10-31T21:50:33.928Z,,0,,,NaN,,,,,,false,,,,312177.09999996424,312176.89999997616,,312176.5,,312191.764,8,400,,,
break_continue,html.Screen,4_59_2,2023-10-31T21:50:33.928Z,,0,,,NaN,,,,,,false,,,,312177.5,312177.39999997616,,312177.1999999881,,312191.764,8,400,,,
sequence,flow.Sequence,4_59,2023-10-31T21:50:33.928Z,,0,,,2952.6119999761577,completion,,,,,false,,,,312177.7999999523,312177.39999997616,309208.122,309213.6999999881,309224.788,312191.764,8,400,,,
trial,html.Screen,4_60_0,2023-10-31T21:50:36.977Z,,0,2,,3034.4359999880544,response,ISIC_0064997.JPG,7,ISIC_0026694.JPG,ISIC_0026694.JPG,false,0,keypress(z),500,315226.5,315226.1999999881,312175.098,312177.89999997616,312191.764,315241.642,8,400,11,,ISIC_0064997.JPG
break,html.Screen,4_60_1,2023-10-31T21:50:36.978Z,,0,,,NaN,,,,,,false,,,,315227.39999997616,315227.2999999523,,315226.7999999523,,315241.642,8,400,,,
break_continue,html.Screen,4_60_2,2023-10-31T21:50:36.978Z,,0,,,NaN,,,,,,false,,,,315227.7999999523,315227.6999999881,,315227.59999996424,,315241.642,8,400,,,
sequence,flow.Sequence,4_60,2023-10-31T21:50:36.978Z,,0,,,3035.9359999880544,completion,,,,,false,,,,315228,315227.6999999881,312175.098,312177.7999999523,312191.764,315241.642,8,400,,,
trial,html.Screen,4_61_0,2023-10-31T21:50:39.825Z,,0,2,,2832.8580000000075,response,ISIC_0062196.JPG,8,ISIC_4189981.JPG,ISIC_4189981.JPG,false,0,keypress(z),500,318074.7999999523,318074.5,315224.976,315228.09999996424,315241.642,318091.528,8,400,12,,ISIC_0062196.JPG
break,html.Screen,4_61_1,2023-10-31T21:50:39.826Z,,0,,,NaN,,,,,,false,,,,318075.7999999523,318075.59999996424,,318075.09999996424,,318091.528,8,400,,,
break_continue,html.Screen,4_61_2,2023-10-31T21:50:39.827Z,,0,,,NaN,,,,,,false,,,,318076.1999999881,318076,,318075.89999997616,,318091.528,8,400,,,
sequence,flow.Sequence,4_61,2023-10-31T21:50:39.827Z,,0,,,2834.3580000000075,completion,,,,,false,,,,318076.2999999523,318076,315224.976,315228.09999996424,315241.642,318091.528,8,400,,,
trial,html.Screen,4_62_0,2023-10-31T21:50:43.349Z,,0,2,,3506.671999988088,response,ISIC_2993517.JPG,5,ISIC_8978290.JPG,ISIC_2993517.JPG,false,1,keypress(m),500,321598.6999999881,321598.1999999881,318074.862,318076.5,318091.528,321608.46,8,400,13,,ISIC_8978290.JPG
break,html.Screen,4_62_1,2023-10-31T21:50:43.350Z,,0,,,NaN,,,,,,false,,,,321599.6999999881,321599.5,,321599,,321608.46,8,400,,,
break_continue,html.Screen,4_62_2,2023-10-31T21:50:43.351Z,,0,,,NaN,,,,,,false,,,,321600.09999996424,321599.89999997616,,321599.89999997616,,321608.46,8,400,,,
sequence,flow.Sequence,4_62,2023-10-31T21:50:43.351Z,,0,,,3508.371999976167,completion,,,,,false,,,,321600.1999999881,321599.89999997616,318074.862,318076.5,318091.528,321608.46,8,400,,,
trial,html.Screen,4_63_0,2023-10-31T21:50:47.148Z,,0,2,,3788.6399999642163,response,ISIC_3475932.JPG,7,ISIC_0013672.JPG,ISIC_0013672.JPG,false,0,keypress(z),500,325397.5,325397.09999996424,321591.794,321600.39999997616,321608.46,325408.308,8,400,14,,ISIC_3475932.JPG
break,html.Screen,4_63_1,2023-10-31T21:50:47.149Z,,0,,,NaN,,,,,,false,,,,325398.39999997616,325398.2999999523,,325397.7999999523,,325408.308,8,400,,,
break_continue,html.Screen,4_63_2,2023-10-31T21:50:47.149Z,,0,,,NaN,,,,,,false,,,,325398.7999999523,325398.6999999881,,325398.59999996424,,325408.308,8,400,,,
sequence,flow.Sequence,4_63,2023-10-31T21:50:47.150Z,,0,,,3790.239999988058,completion,,,,,false,,,,325399,325398.6999999881,321591.794,321600.2999999523,321608.46,325408.308,8,400,,,
trial,html.Screen,4_64_0,2023-10-31T21:50:50.499Z,,0,2,,3339.491999952297,response,ISIC_0010822.JPG,5,ISIC_0029433.JPG,ISIC_0010822.JPG,false,1,keypress(m),500,328748.1999999881,328747.7999999523,325391.642,325399.1999999881,325408.308,328758.174,8,400,15,,ISIC_0029433.JPG
break,html.Screen,4_64_1,2023-10-31T21:50:50.500Z,,0,,,NaN,,,,,,false,,,,328749.1999999881,328749,,328748.59999996424,,328758.174,8,400,,,
break_continue,html.Screen,4_64_2,2023-10-31T21:50:50.500Z,,0,,,NaN,,,,,,false,,,,328749.59999996424,328749.5,,328749.2999999523,,328758.174,8,400,,,
sequence,flow.Sequence,4_64,2023-10-31T21:50:50.500Z,,0,,,3341.191999999981,completion,,,,,false,,,,328749.6999999881,328749.5,325391.642,325399.09999996424,325408.308,328758.174,8,400,,,
trial,html.Screen,4_65_0,2023-10-31T21:50:54.490Z,,0,2,,3980.725999976159,response,ISIC_5501183.JPG,6,ISIC_3389704.JPG,ISIC_3389704.JPG,false,0,keypress(z),500,332739.39999997616,332738.89999997616,328741.508,328749.89999997616,328758.174,332741.744,8,400,16,,ISIC_5501183.JPG
break,html.Screen,4_65_1,2023-10-31T21:50:54.491Z,,0,,,NaN,,,,,,false,,,,332740.39999997616,332740.09999996424,,332739.59999996424,,332741.744,8,400,,,
break_continue,html.Screen,4_65_2,2023-10-31T21:50:54.491Z,,0,,,NaN,,,,,,false,,,,332740.6999999881,332740.59999996424,,332740.5,,332741.744,8,400,,,
sequence,flow.Sequence,4_65,2023-10-31T21:50:54.491Z,,0,,,3982.425999964238,completion,,,,,false,,,,332740.89999997616,332740.59999996424,328741.508,328749.89999997616,328758.174,332741.744,8,400,,,
trial,html.Screen,4_66_0,2023-10-31T21:50:57.616Z,,0,2,,3123.655999976152,response,ISIC_3399603.JPG,8,ISIC_1971254.JPG,ISIC_1971254.JPG,false,0,keypress(z),500,335865.7999999523,335865.39999997616,332725.078,332741,332741.744,335874.952,8,400,17,,ISIC_3399603.JPG
break,html.Screen,4_66_1,2023-10-31T21:50:57.617Z,,0,,,NaN,,,,,,false,,,,335866.7999999523,335866.59999996424,,335866.09999996424,,335874.952,8,400,,,
break_continue,html.Screen,4_66_2,2023-10-31T21:50:57.618Z,,0,,,NaN,,,,,,false,,,,335867.09999996424,335867,,335866.89999997616,,335874.952,8,400,,,
sequence,flow.Sequence,4_66,2023-10-31T21:50:57.618Z,,0,,,3125.255999999994,completion,,,,,false,,,,335867.2999999523,335867,332725.078,332741,332741.744,335874.952,8,400,,,
trial,html.Screen,4_67_0,2023-10-31T21:51:00.633Z,,0,2,,3007.247999988089,response,ISIC_0046900.JPG,7,ISIC_3286956.JPG,ISIC_3286956.JPG,false,0,keypress(z),500,338882.59999996424,338882.1999999881,335858.286,335867.5,335874.952,338891.498,8,400,18,,ISIC_0046900.JPG
break,html.Screen,4_67_1,2023-10-31T21:51:00.634Z,,0,,,NaN,,,,,,false,,,,338883.2999999523,338883.09999996424,,338882.7999999523,,338891.498,8,400,,,
break_continue,html.Screen,4_67_2,2023-10-31T21:51:00.634Z,,0,,,NaN,,,,,,false,,,,338883.39999997616,338883.39999997616,,338883.2999999523,,338891.498,8,400,,,
sequence,flow.Sequence,4_67,2023-10-31T21:51:00.634Z,,0,,,3008.447999976168,completion,,,,,false,,,,338883.5,338883.39999997616,335858.286,335867.5,335874.952,338891.498,8,400,,,
trial,html.Screen,4_68_0,2023-10-31T21:51:04.348Z,,0,2,,3705.7019999880577,response,ISIC_3666094.JPG,8,ISIC_0001138.JPG,ISIC_3666094.JPG,false,1,keypress(m),500,342597.59999996424,342597.1999999881,338874.832,338883.59999996424,338891.498,342625.078,8,400,19,,ISIC_0001138.JPG
break,html.Screen,4_68_1,2023-10-31T21:51:04.349Z,,0,,,NaN,,,,,,false,,,,342598.5,342598.2999999523,,342597.89999997616,,342625.078,8,400,,,
break_continue,html.Screen,4_68_2,2023-10-31T21:51:04.350Z,,0,,,NaN,,,,,,false,,,,342598.89999997616,342598.7999999523,,342598.59999996424,,342625.078,8,400,,,
sequence,flow.Sequence,4_68,2023-10-31T21:51:04.350Z,,0,,,3707.301999952295,completion,,,,,false,,,,342599.09999996424,342598.7999999523,338874.832,338883.59999996424,338891.498,342625.078,8,400,,,
trial,html.Screen,4_69_0,2023-10-31T21:51:07.146Z,,0,2,,2769.9220000000205,response,ISIC_0028910.JPG,6,ISIC_0029639.JPG,ISIC_0029639.JPG,false,0,keypress(z),500,345395.39999997616,345395,342608.412,342599.1999999881,342625.078,345408.3,8,400,20,,ISIC_0028910.JPG
break,html.Screen,4_69_1,2023-10-31T21:51:07.147Z,,0,,,NaN,,,,,,false,,,,345396.1999999881,345396,,345395.5,,345408.3,8,400,,,
break_continue,html.Screen,4_69_2,2023-10-31T21:51:07.147Z,,0,,,NaN,,,,,,false,,,,345396.39999997616,345396.2999999523,,345396.1999999881,,345408.3,8,400,,,
sequence,flow.Sequence,4_69,2023-10-31T21:51:07.147Z,,0,,,2771.221999952337,completion,,,,,false,,,,345396.39999997616,345396.2999999523,342608.412,342599.1999999881,342625.078,345408.3,8,400,,,
trial,html.Screen,4_70_0,2023-10-31T21:51:09.900Z,,0,2,,2739.999999952328,response,ISIC_8065001.JPG,9,ISIC_6384906.JPG,ISIC_8065001.JPG,false,1,keypress(m),500,348148.89999997616,348148.2999999523,345391.634,345396.59999996424,345408.3,348158.19,8,400,21,,ISIC_6384906.JPG
break,html.Screen,4_70_1,2023-10-31T21:51:09.901Z,,0,,,NaN,,,,,,false,,,,348150,348149.7999999523,,348149.2999999523,,348158.19,8,400,,,
break_continue,html.Screen,4_70_2,2023-10-31T21:51:09.901Z,,0,,,NaN,,,,,,false,,,,348150.5,348150.2999999523,,348150.1999999881,,348158.19,8,400,,,
sequence,flow.Sequence,4_70,2023-10-31T21:51:09.901Z,,0,,,2741.999999952328,completion,,,,,false,,,,348150.6999999881,348150.2999999523,345391.634,345396.5,345408.3,348158.19,8,400,,,
trial,html.Screen,4_71_0,2023-10-31T21:51:13.282Z,,0,2,,3373.109999952314,response,ISIC_0067156.JPG,8,ISIC_4882123.JPG,ISIC_4882123.JPG,false,0,keypress(z),500,351531.59999996424,351531.2999999523,348141.524,348150.89999997616,348158.19,351541.772,8,400,22,,ISIC_0067156.JPG
break,html.Screen,4_71_1,2023-10-31T21:51:13.283Z,,0,,,NaN,,,,,,false,,,,351532.2999999523,351532.1999999881,,351531.7999999523,,351541.772,8,400,,,
break_continue,html.Screen,4_71_2,2023-10-31T21:51:13.283Z,,0,,,NaN,,,,,,false,,,,351532.5,351532.39999997616,,351532.39999997616,,351541.772,8,400,,,
sequence,flow.Sequence,4_71,2023-10-31T21:51:13.283Z,,0,,,3374.209999976156,completion,,,,,false,,,,351532.59999996424,351532.39999997616,348141.524,348150.7999999523,348158.19,351541.772,8,400,,,
trial,html.Screen,4_72_0,2023-10-31T21:51:16.872Z,,0,2,,3579.027999952319,response,ISIC_8401332.JPG,6,ISIC_9193127.JPG,ISIC_8401332.JPG,false,1,keypress(m),500,355121.2999999523,355120.7999999523,351525.106,351532.59999996424,351541.772,355124.962,8,400,23,,ISIC_9193127.JPG
break,html.Screen,4_72_1,2023-10-31T21:51:16.873Z,,0,,,NaN,,,,,,false,,,,355122.1999999881,355121.89999997616,,355121.5,,355124.962,8,400,,,
break_continue,html.Screen,4_72_2,2023-10-31T21:51:16.873Z,,0,,,NaN,,,,,,false,,,,355122.59999996424,355122.39999997616,,355122.2999999523,,355124.962,8,400,,,
sequence,flow.Sequence,4_72,2023-10-31T21:51:16.873Z,,0,,,3580.627999976161,completion,,,,,false,,,,355122.7999999523,355122.39999997616,351525.106,351532.59999996424,351541.772,355124.962,8,400,,,
trial,html.Screen,4_73_0,2023-10-31T21:51:21.503Z,,0,2,,4626.337999952317,response,ISIC_9100283.JPG,9,ISIC_0030417.JPG,ISIC_9100283.JPG,false,1,keypress(m),500,359751.89999997616,359751.2999999523,355108.296,355122.89999997616,355124.962,359758.11,8,400,24,,ISIC_0030417.JPG
break,html.Screen,4_73_1,2023-10-31T21:51:21.504Z,,0,,,NaN,,,,,,false,,,,359752.89999997616,359752.6999999881,,359752.09999996424,,359758.11,8,400,,,
break_continue,html.Screen,4_73_2,2023-10-31T21:51:21.504Z,,0,,,NaN,,,,,,false,,,,359753.2999999523,359753.09999996424,,359753,,359758.11,8,400,,,
sequence,flow.Sequence,4_73,2023-10-31T21:51:21.504Z,,0,,,4628.137999964238,completion,,,,,false,,,,359753.39999997616,359753.09999996424,355108.296,355122.7999999523,355124.962,359758.11,8,400,,,
trial,html.Screen,4_74_0,2023-10-31T21:51:25.029Z,,0,2,,3519.489999964251,response,ISIC_0031965.JPG,7,ISIC_0009955.JPG,ISIC_0009955.JPG,false,0,keypress(z),500,363278,363277.59999996424,359741.444,359753.59999996424,359758.11,363291.756,8,400,25,,ISIC_0031965.JPG
break,html.Screen,4_74_1,2023-10-31T21:51:25.030Z,,0,,,NaN,,,,,,false,,,,363279,363278.6999999881,,363278.2999999523,,363291.756,8,400,,,
break_continue,html.Screen,4_74_2,2023-10-31T21:51:25.030Z,,0,,,NaN,,,,,,false,,,,363279.39999997616,363279.1999999881,,363279.09999996424,,363291.756,8,400,,,
sequence,flow.Sequence,4_74,2023-10-31T21:51:25.030Z,,0,,,3521.089999988093,completion,,,,,false,,,,363279.5,363279.1999999881,359741.444,359753.5,359758.11,363291.756,8,400,,,
trial,html.Screen,4_75_0,2023-10-31T21:51:28.139Z,,0,2,,3096.3439999642433,response,ISIC_4548995.JPG,8,ISIC_0064941.JPG,ISIC_4548995.JPG,false,1,keypress(m),500,366388.5,366388.09999996424,363275.09,363279.6999999881,363291.756,366391.632,8,400,26,,ISIC_0064941.JPG
break,html.Screen,4_75_1,2023-10-31T21:51:28.140Z,,0,,,NaN,,,,,,false,,,,366389.5,366389.2999999523,,366388.7999999523,,366391.632,8,400,,,
break_continue,html.Screen,4_75_2,2023-10-31T21:51:28.141Z,,0,,,NaN,,,,,,false,,,,366389.89999997616,366389.6999999881,,366389.59999996424,,366391.632,8,400,,,
sequence,flow.Sequence,4_75,2023-10-31T21:51:28.141Z,,0,,,3097.943999988085,completion,,,,,false,,,,366390,366389.6999999881,363275.09,363279.5,363291.756,366391.632,8,400,,,
trial,html.Screen,4_76_0,2023-10-31T21:51:31.744Z,,0,2,,3601.267999976175,response,ISIC_2535541.JPG,7,ISIC_0029944.JPG,ISIC_2535541.JPG,false,1,keypress(m),500,369993.2999999523,369992.89999997616,366374.966,366390.09999996424,366391.632,370008.154,8,400,27,,ISIC_0029944.JPG
break,html.Screen,4_76_1,2023-10-31T21:51:31.745Z,,0,,,NaN,,,,,,false,,,,369994.39999997616,369994.1999999881,,369993.6999999881,,370008.154,8,400,,,
break_continue,html.Screen,4_76_2,2023-10-31T21:51:31.746Z,,0,,,NaN,,,,,,false,,,,369994.7999999523,369994.6999999881,,369994.59999996424,,370008.154,8,400,,,
sequence,flow.Sequence,4_76,2023-10-31T21:51:31.746Z,,0,,,3603.067999988096,completion,,,,,false,,,,369995,369994.6999999881,366374.966,366390.09999996424,366391.632,370008.154,8,400,,,
trial,html.Screen,4_77_0,2023-10-31T21:51:34.884Z,,0,2,,3124.2459999761777,response,ISIC_0687593.JPG,7,ISIC_0034217.JPG,ISIC_0687593.JPG,false,1,keypress(m),500,373132.89999997616,373132.39999997616,369991.488,369995.09999996424,370008.154,373158.408,8,400,28,,ISIC_0034217.JPG
break,html.Screen,4_77_1,2023-10-31T21:51:34.885Z,,0,,,NaN,,,,,,false,,,,373133.7999999523,373133.59999996424,,373133.09999996424,,373158.408,8,400,,,
break_continue,html.Screen,4_77_2,2023-10-31T21:51:34.885Z,,0,,,NaN,,,,,,false,,,,373134.09999996424,373134,,373133.89999997616,,373158.408,8,400,,,
sequence,flow.Sequence,4_77,2023-10-31T21:51:34.885Z,,0,,,3125.8460000000196,completion,,,,,false,,,,373134.2999999523,373134,369991.488,369995,370008.154,373158.408,8,400,,,
trial,html.Screen,4_78_0,2023-10-31T21:51:38.443Z,,0,2,,3533.3919999523205,response,ISIC_0014181.JPG,7,ISIC_7846309.JPG,ISIC_7846309.JPG,false,0,keypress(z),500,376692.1999999881,376691.7999999523,373141.742,373134.5,373158.408,376708.266,8,400,29,,ISIC_0014181.JPG
break,html.Screen,4_78_1,2023-10-31T21:51:38.444Z,,0,,,NaN,,,,,,false,,,,376693.09999996424,376692.89999997616,,376692.5,,376708.266,8,400,,,
break_continue,html.Screen,4_78_2,2023-10-31T21:51:38.444Z,,0,,,NaN,,,,,,false,,,,376693.59999996424,376693.5,,376693.2999999523,,376708.266,8,400,,,
sequence,flow.Sequence,4_78,2023-10-31T21:51:38.445Z,,0,,,3535.092000000004,completion,,,,,false,,,,376693.6999999881,376693.5,373141.742,373134.39999997616,373158.408,376708.266,8,400,,,
trial,html.Screen,4_79_0,2023-10-31T21:51:41.490Z,,0,2,,3029.933999988076,response,ISIC_3797095.JPG,8,ISIC_5611515.JPG,ISIC_3797095.JPG,false,1,keypress(m),500,379738.6999999881,379738.1999999881,376691.6,376694,376708.266,379741.478,8,400,30,,ISIC_5611515.JPG
break,html.Screen,4_79_1,2023-10-31T21:51:41.491Z,,0,,,NaN,,,,,,false,,,,379739.7999999523,379739.59999996424,,379739,,379741.478,8,400,,,
break_continue,html.Screen,4_79_2,2023-10-31T21:51:41.491Z,,0,,,NaN,,,,,,false,,,,379740.09999996424,379740.09999996424,,379740,,379741.478,8,400,,,
sequence,flow.Sequence,4_79,2023-10-31T21:51:41.491Z,,0,,,3031.833999964234,completion,,,,,false,,,,379740.2999999523,379740.09999996424,376691.6,376693.7999999523,376708.266,379741.478,8,400,,,
trial,html.Screen,4_80_0,2023-10-31T21:51:44.263Z,,0,2,,2770.3219999523135,response,ISIC_0004857.JPG,7,ISIC_0011529.JPG,ISIC_0004857.JPG,false,1,keypress(m),500,382512.2999999523,382511.7999999523,379724.812,379740.39999997616,379741.478,382525.103,8,400,31,,ISIC_0011529.JPG
break,html.Screen,4_80_1,2023-10-31T21:51:44.264Z,,0,,,NaN,,,,,,false,,,,382513.2999999523,382513.09999996424,,382512.59999996424,,382525.103,8,400,,,
break_continue,html.Screen,4_80_2,2023-10-31T21:51:44.265Z,,0,,,NaN,,,,,,false,,,,382513.6999999881,382513.59999996424,,382513.39999997616,,382525.103,8,400,,,
sequence,flow.Sequence,4_80,2023-10-31T21:51:44.265Z,,0,,,2772.1219999642344,completion,,,,,false,,,,382513.89999997616,382513.59999996424,379724.812,379740.2999999523,379741.478,382525.103,8,400,,,
trial,html.Screen,4_81_0,2023-10-31T21:51:47.602Z,,0,2,,3325.0969999880763,response,ISIC_1348843.JPG,7,ISIC_0028219.JPG,ISIC_1348843.JPG,false,1,keypress(m),500,385850.7999999523,385850.1999999881,382508.437,382514,382525.103,385858.303,8,400,32,,ISIC_0028219.JPG
break,html.Screen,4_81_1,2023-10-31T21:51:47.603Z,,0,,,NaN,,,,,,false,,,,385851.6999999881,385851.5,,385851,,385858.303,8,400,,,
break_continue,html.Screen,4_81_2,2023-10-31T21:51:47.603Z,,0,,,NaN,,,,,,false,,,,385852.09999996424,385852,,385851.7999999523,,385858.303,8,400,,,
sequence,flow.Sequence,4_81,2023-10-31T21:51:47.603Z,,0,,,3326.896999999997,completion,,,,,false,,,,385852.2999999523,385852,382508.437,382514,382525.103,385858.303,8,400,,,
trial,html.Screen,4_82_0,2023-10-31T21:51:50.530Z,,0,2,,2920.1969999999856,response,ISIC_9521776.JPG,7,ISIC_0073044.JPG,ISIC_9521776.JPG,false,1,keypress(m),500,388778.89999997616,388778.5,385841.637,385852.39999997616,385858.303,388791.519,8,400,33,,ISIC_0073044.JPG
break,html.Screen,4_82_1,2023-10-31T21:51:50.531Z,,0,,,NaN,,,,,,false,,,,388780,388779.7999999523,,388779.1999999881,,388791.519,8,400,,,
break_continue,html.Screen,4_82_2,2023-10-31T21:51:50.531Z,,0,,,NaN,,,,,,false,,,,388780.39999997616,388780.1999999881,,388780.09999996424,,388791.519,8,400,,,
sequence,flow.Sequence,4_82,2023-10-31T21:51:50.531Z,,0,,,2921.8969999880646,completion,,,,,false,,,,388780.5,388780.1999999881,385841.637,385852.2999999523,385858.303,388791.519,8,400,,,
trial,html.Screen,4_83_0,2023-10-31T21:51:53.848Z,,0,2,,3305.481000000029,response,ISIC_2563374.JPG,7,ISIC_7984569.JPG,ISIC_2563374.JPG,false,1,keypress(m),500,392097.39999997616,392097,388774.853,388780.6999999881,388791.519,392108.053,8,400,34,,ISIC_7984569.JPG
break,html.Screen,4_83_1,2023-10-31T21:51:53.849Z,,0,,,NaN,,,,,,false,,,,392098.39999997616,392098.2999999523,,392097.7999999523,,392108.053,8,400,,,
break_continue,html.Screen,4_83_2,2023-10-31T21:51:53.850Z,,0,,,NaN,,,,,,false,,,,392098.89999997616,392098.6999999881,,392098.59999996424,,392108.053,8,400,,,
sequence,flow.Sequence,4_83,2023-10-31T21:51:53.850Z,,0,,,3307.180999988108,completion,,,,,false,,,,392099,392098.6999999881,388774.853,388780.59999996424,388791.519,392108.053,8,400,,,
trial,html.Screen,4_84_0,2023-10-31T21:51:56.637Z,,0,2,,2777.1469999880646,response,ISIC_6774326.JPG,8,ISIC_0072030.JPG,ISIC_6774326.JPG,false,1,keypress(m),500,394885.59999996424,394885.1999999881,392091.387,392099.1999999881,392108.053,394891.7,8,400,35,,ISIC_0072030.JPG
break,html.Screen,4_84_1,2023-10-31T21:51:56.638Z,,0,,,NaN,,,,,,false,,,,394886.59999996424,394886.2999999523,,394885.7999999523,,394891.7,8,400,,,
break_continue,html.Screen,4_84_2,2023-10-31T21:51:56.638Z,,0,,,NaN,,,,,,false,,,,394887.09999996424,394886.89999997616,,394886.7999999523,,394891.7,8,400,,,
sequence,flow.Sequence,4_84,2023-10-31T21:51:56.638Z,,0,,,2778.8469999761437,completion,,,,,false,,,,394887.2999999523,394886.89999997616,392091.387,392099.09999996424,392108.053,394891.7,8,400,,,
trial,html.Screen,4_85_0,2023-10-31T21:52:00.634Z,,0,2,,3991.0999999523046,response,ISIC_6681802.JPG,6,ISIC_2309744.JPG,ISIC_6681802.JPG,false,1,keypress(m),500,398883.2999999523,398882.7999999523,394875.034,394887.39999997616,394891.7,398891.54,8,400,36,,ISIC_2309744.JPG
break,html.Screen,4_85_1,2023-10-31T21:52:00.635Z,,0,,,NaN,,,,,,false,,,,398884.2999999523,398884,,398883.59999996424,,398891.54,8,400,,,
break_continue,html.Screen,4_85_2,2023-10-31T21:52:00.636Z,,0,,,NaN,,,,,,false,,,,398884.59999996424,398884.5,,398884.39999997616,,398891.54,8,400,,,
sequence,flow.Sequence,4_85,2023-10-31T21:52:00.636Z,,0,,,3992.7999999999884,completion,,,,,false,,,,398884.7999999523,398884.5,394875.034,394887.39999997616,394891.7,398891.54,8,400,,,
trial,html.Screen,4_86_0,2023-10-31T21:52:03.503Z,,0,2,,2859.7599999523372,response,ISIC_8630818.JPG,9,ISIC_4554381.JPG,ISIC_4554381.JPG,false,0,keypress(z),500,401751.89999997616,401751.2999999523,398874.874,398885,398891.54,401758.092,8,400,37,,ISIC_8630818.JPG
break,html.Screen,4_86_1,2023-10-31T21:52:03.504Z,,0,,,NaN,,,,,,false,,,,401752.89999997616,401752.59999996424,,401752.09999996424,,401758.092,8,400,,,
break_continue,html.Screen,4_86_2,2023-10-31T21:52:03.504Z,,0,,,NaN,,,,,,false,,,,401753.2999999523,401753.09999996424,,401752.89999997616,,401758.092,8,400,,,
sequence,flow.Sequence,4_86,2023-10-31T21:52:03.504Z,,0,,,2861.559999964258,completion,,,,,false,,,,401753.39999997616,401753.09999996424,398874.874,398884.89999997616,398891.54,401758.092,8,400,,,
trial,html.Screen,4_87_0,2023-10-31T21:52:06.163Z,,0,2,,2653.407999999996,response,ISIC_0058224.JPG,8,ISIC_7888672.JPG,ISIC_7888672.JPG,false,0,keypress(z),500,404412,404411.5,401741.426,401753.5,401758.092,404425.068,8,400,38,,ISIC_0058224.JPG
break,html.Screen,4_87_1,2023-10-31T21:52:06.164Z,,0,,,NaN,,,,,,false,,,,404413,404412.7999999523,,404412.2999999523,,404425.068,8,400,,,
break_continue,html.Screen,4_87_2,2023-10-31T21:52:06.164Z,,0,,,NaN,,,,,,false,,,,404413.39999997616,404413.2999999523,,404413.1999999881,,404425.068,8,400,,,
sequence,flow.Sequence,4_87,2023-10-31T21:52:06.165Z,,0,,,2655.207999952312,completion,,,,,false,,,,404413.59999996424,404413.2999999523,401741.426,401753.5,401758.092,404425.068,8,400,,,
trial,html.Screen,4_88_0,2023-10-31T21:52:09.495Z,,0,2,,3318.6319999880507,response,ISIC_1961064.JPG,8,ISIC_0016033.JPG,ISIC_0016033.JPG,false,0,keypress(z),500,407743.89999997616,407743.6999999881,404408.402,404413.7999999523,404425.068,407758.268,8,400,39,,ISIC_1961064.JPG
break,html.Screen,4_88_1,2023-10-31T21:52:09.495Z,,0,,,NaN,,,,,,false,,,,407744.5,407744.2999999523,,407744.09999996424,,407758.268,8,400,,,
break_continue,html.Screen,4_88_2,2023-10-31T21:52:09.496Z,,0,,,NaN,,,,,,false,,,,407744.59999996424,407744.5,,407744.5,,407758.268,8,400,,,
sequence,flow.Sequence,4_88,2023-10-31T21:52:09.496Z,,0,,,3319.4319999999716,completion,,,,,false,,,,407744.59999996424,407744.5,404408.402,404413.6999999881,404425.068,407758.268,8,400,,,
trial,html.Screen,4_89_0,2023-10-31T21:52:12.498Z,,0,2,,2988.5319999523344,response,ISIC_0064023.JPG,6,ISIC_0294687.JPG,ISIC_0294687.JPG,false,0,keypress(z),500,410747.1999999881,410746.7999999523,407741.602,407744.6999999881,407758.268,410758.148,8,400,40,,ISIC_0064023.JPG
break,html.Screen,4_89_1,2023-10-31T21:52:12.499Z,,0,,,NaN,,,,,,false,,,,410748.1999999881,410748,,410747.5,,410758.148,8,400,,,
break_continue,html.Screen,4_89_2,2023-10-31T21:52:12.500Z,,0,,,NaN,,,,,,false,,,,410748.5,410748.39999997616,,410748.1999999881,,410758.148,8,400,,,
sequence,flow.Sequence,4_89,2023-10-31T21:52:12.500Z,,0,,,2990.1319999761763,completion,,,,,false,,,,410748.6999999881,410748.39999997616,407741.602,407744.6999999881,407758.268,410758.148,8,400,,,
trial,html.Screen,4_90_0,2023-10-31T21:52:15.191Z,,0,2,,2681.3520000000135,response,ISIC_4087267.JPG,6,ISIC_0010940.JPG,ISIC_0010940.JPG,false,0,keypress(z),500,413439.7999999523,413439.5,410741.482,410748.7999999523,410758.148,413441.748,8,400,41,,ISIC_4087267.JPG
break,html.Screen,4_90_1,2023-10-31T21:52:15.192Z,,0,,,NaN,,,,,,false,,,,413440.7999999523,413440.6999999881,,413440.1999999881,,413441.748,8,400,,,
break_continue,html.Screen,4_90_2,2023-10-31T21:52:15.192Z,,0,,,NaN,,,,,,false,,,,413441.1999999881,413441,,413441,,413441.748,8,400,,,
sequence,flow.Sequence,4_90,2023-10-31T21:52:15.192Z,,0,,,2682.8520000000135,completion,,,,,false,,,,413441.39999997616,413441,410741.482,410748.7999999523,410758.148,413441.748,8,400,,,
trial,html.Screen,4_91_0,2023-10-31T21:52:18.898Z,,0,2,,3704.9519999880577,response,ISIC_0030440.JPG,7,ISIC_8035608.JPG,ISIC_8035608.JPG,false,0,keypress(z),500,417147.1999999881,417146.6999999881,413425.082,413441.59999996424,413441.748,417158.266,8,400,42,,ISIC_0030440.JPG
break,html.Screen,4_91_1,2023-10-31T21:52:18.899Z,,0,,,NaN,,,,,,false,,,,417148.1999999881,417148,,417147.5,,417158.266,8,400,,,
break_continue,html.Screen,4_91_2,2023-10-31T21:52:18.900Z,,0,,,NaN,,,,,,false,,,,417148.5,417148.5,,417148.39999997616,,417158.266,8,400,,,
sequence,flow.Sequence,4_91,2023-10-31T21:52:18.900Z,,0,,,3706.7519999999786,completion,,,,,false,,,,417148.7999999523,417148.5,413425.082,413441.5,413441.748,417158.266,8,400,,,
trial,html.Screen,4_92_0,2023-10-31T21:52:22.249Z,,0,2,,3339.7339999999967,response,ISIC_8575769.JPG,8,ISIC_0032847.JPG,ISIC_0032847.JPG,false,0,keypress(z),500,420498.2999999523,420498,417141.6,417148.7999999523,417158.266,420508.132,8,400,43,,ISIC_8575769.JPG
break,html.Screen,4_92_1,2023-10-31T21:52:22.250Z,,0,,,NaN,,,,,,false,,,,420499.39999997616,420499.09999996424,,420498.59999996424,,420508.132,8,400,,,
break_continue,html.Screen,4_92_2,2023-10-31T21:52:22.251Z,,0,,,NaN,,,,,,false,,,,420499.7999999523,420499.59999996424,,420499.5,,420508.132,8,400,,,
sequence,flow.Sequence,4_92,2023-10-31T21:52:22.251Z,,0,,,3341.333999964234,completion,,,,,false,,,,420500,420499.59999996424,417141.6,417148.7999999523,417158.266,420508.132,8,400,,,
trial,html.Screen,4_93_0,2023-10-31T21:52:25.195Z,,0,2,,2935.3680000000168,response,ISIC_0061516.JPG,8,ISIC_0010267.JPG,ISIC_0010267.JPG,false,0,keypress(z),500,423443.89999997616,423443.5,420491.466,420500.09999996424,420508.132,423458.431,8,400,44,,ISIC_0061516.JPG
break,html.Screen,4_93_1,2023-10-31T21:52:25.196Z,,0,,,NaN,,,,,,false,,,,423444.7999999523,423444.6999999881,,423444.1999999881,,423458.431,8,400,,,
break_continue,html.Screen,4_93_2,2023-10-31T21:52:25.196Z,,0,,,NaN,,,,,,false,,,,423445.2999999523,423445.1999999881,,423445,,423458.431,8,400,,,
sequence,flow.Sequence,4_93,2023-10-31T21:52:25.197Z,,0,,,2937.067999988096,completion,,,,,false,,,,423445.39999997616,423445.1999999881,420491.466,420500.09999996424,420508.132,423458.431,8,400,,,
trial,html.Screen,4_94_0,2023-10-31T21:52:27.873Z,,0,2,,2663.168999964255,response,ISIC_0011496.JPG,9,ISIC_1700051.JPG,ISIC_1700051.JPG,false,0,keypress(z),500,426122,426121.59999996424,423441.765,423445.59999996424,423458.431,426124.991,8,400,45,,ISIC_0011496.JPG
break,html.Screen,4_94_1,2023-10-31T21:52:27.874Z,,0,,,NaN,,,,,,false,,,,426122.5,426122.39999997616,,426122.09999996424,,426124.991,8,400,,,
break_continue,html.Screen,4_94_2,2023-10-31T21:52:27.874Z,,0,,,NaN,,,,,,false,,,,426122.7999999523,426122.6999999881,,426122.59999996424,,426124.991,8,400,,,
sequence,flow.Sequence,4_94,2023-10-31T21:52:27.874Z,,0,,,2664.2689999880968,completion,,,,,false,,,,426122.89999997616,426122.6999999881,423441.765,423445.5,423458.431,426124.991,8,400,,,
trial,html.Screen,4_95_0,2023-10-31T21:52:31.286Z,,0,2,,3409.3089999523363,response,ISIC_0063190.JPG,7,ISIC_3392433.JPG,ISIC_3392433.JPG,false,0,keypress(z),500,429534.7999999523,429534.2999999523,426108.325,426122.89999997616,426124.991,429541.521,8,400,46,,ISIC_0063190.JPG
break,html.Screen,4_95_1,2023-10-31T21:52:31.287Z,,0,,,NaN,,,,,,false,,,,429535.7999999523,429535.5,,429535.09999996424,,429541.521,8,400,,,
break_continue,html.Screen,4_95_2,2023-10-31T21:52:31.287Z,,0,,,NaN,,,,,,false,,,,429536.1999999881,429536,,429535.89999997616,,429541.521,8,400,,,
sequence,flow.Sequence,4_95,2023-10-31T21:52:31.287Z,,0,,,3411.00900000002,completion,,,,,false,,,,429536.2999999523,429536,426108.325,426122.89999997616,426124.991,429541.521,8,400,,,
trial,html.Screen,4_96_0,2023-10-31T21:52:34.834Z,,0,2,,3540.678999988071,response,ISIC_3254309.JPG,8,ISIC_2067576.JPG,ISIC_2067576.JPG,false,0,keypress(z),500,433082.6999999881,433082.1999999881,429524.855,429536.39999997616,429541.521,433091.379,8,400,47,,ISIC_3254309.JPG
break,html.Screen,4_96_1,2023-10-31T21:52:34.835Z,,0,,,NaN,,,,,,false,,,,433083.6999999881,433083.39999997616,,433083,,433091.379,8,400,,,
break_continue,html.Screen,4_96_2,2023-10-31T21:52:34.835Z,,0,,,NaN,,,,,,false,,,,433084,433083.89999997616,,433083.7999999523,,433091.379,8,400,,,
sequence,flow.Sequence,4_96,2023-10-31T21:52:34.835Z,,0,,,3542.37899997615,completion,,,,,false,,,,433084.1999999881,433083.89999997616,429524.855,429536.39999997616,429541.521,433091.379,8,400,,,
trial,html.Screen,4_97_0,2023-10-31T21:52:37.682Z,,0,2,,2838.520999976143,response,ISIC_0029024.JPG,7,ISIC_0059773.JPG,ISIC_0029024.JPG,false,1,keypress(m),500,435930.2999999523,435929.89999997616,433074.713,433084.39999997616,433091.379,435941.663,8,400,48,,ISIC_0059773.JPG
break,html.Screen,4_97_1,2023-10-31T21:52:37.682Z,,0,,,NaN,,,,,,false,,,,435931.2999999523,435931.09999996424,,435930.59999996424,,435941.663,8,400,,,
break_continue,html.Screen,4_97_2,2023-10-31T21:52:37.683Z,,0,,,NaN,,,,,,false,,,,435931.6999999881,435931.59999996424,,435931.39999997616,,435941.663,8,400,,,
sequence,flow.Sequence,4_97,2023-10-31T21:52:37.683Z,,0,,,2840.220999964222,completion,,,,,false,,,,435931.7999999523,435931.59999996424,433074.713,433084.39999997616,433091.379,435941.663,8,400,,,
trial,html.Screen,4_98_0,2023-10-31T21:52:41.060Z,,0,2,,3366.8369999999995,response,ISIC_3463156.JPG,8,ISIC_0014093.JPG,ISIC_3463156.JPG,false,1,keypress(m),500,439308.7999999523,439308.5,435924.997,435932,435941.663,439324.861,8,400,49,,ISIC_0014093.JPG
break,html.Screen,4_98_1,2023-10-31T21:52:41.061Z,,0,,,NaN,,,,,,false,,,,439309.7999999523,439309.59999996424,,439309.09999996424,,439324.861,8,400,,,
break_continue,html.Screen,4_98_2,2023-10-31T21:52:41.061Z,,0,,,NaN,,,,,,false,,,,439310.1999999881,439310.09999996424,,439310,,439324.861,8,400,,,
sequence,flow.Sequence,4_98,2023-10-31T21:52:41.062Z,,0,,,3368.4369999642367,completion,,,,,false,,,,439310.39999997616,439310.09999996424,435924.997,435932,435941.663,439324.861,8,400,,,
trial,html.Screen,4_99_0,2023-10-31T21:52:44.875Z,,0,2,,3798.038999976183,response,ISIC_0064979.JPG,9,ISIC_3684488.JPG,ISIC_0064979.JPG,false,1,keypress(m),500,443123.2999999523,443122.89999997616,439308.195,439310.5,439324.861,443141.375,8,400,50,,ISIC_3684488.JPG
break,html.Screen,4_99_1,2023-10-31T21:52:54.880Z,,0,,,10000.004000000015,timeout,,,,,false,,,,453128.2999999523,453124.713,443124.709,443123.5,443141.375,453141.379,8,400,,,
break_continue,html.Screen,4_99_2,2023-10-31T21:52:57.616Z,,0,,,2686.720999964222,response,,,,,false,continue,keypress(Space),,455864.39999997616,455828.09999996424,453124.713,453128.5,453141.379,455874.603,8,400,,,
sequence,flow.Sequence,4_99,2023-10-31T21:52:57.616Z,,0,,,16503.238999964262,completion,,,,,false,,,,455864.5,455828.09999996424,439308.195,439310.5,439324.861,455874.603,8,400,,,
trial,html.Screen,4_100_0,2023-10-31T21:53:00.858Z,,0,3,,3231.4969999642344,response,ISIC_9950866.JPG,7,ISIC_7130929.JPG,ISIC_7130929.JPG,false,0,keypress(z),500,459106.5,459106.09999996424,455857.937,455864.59999996424,455874.603,459108.3,8,400,1,,ISIC_9950866.JPG
break,html.Screen,4_100_1,2023-10-31T21:53:00.859Z,,0,,,NaN,,,,,,false,,,,459107.5,459107.1999999881,,459106.7999999523,,459108.3,8,400,,,
break_continue,html.Screen,4_100_2,2023-10-31T21:53:00.859Z,,0,,,NaN,,,,,,false,,,,459107.7999999523,459107.6999999881,,459107.59999996424,,459108.3,8,400,,,
sequence,flow.Sequence,4_100,2023-10-31T21:53:00.859Z,,0,,,3233.0969999880763,completion,,,,,false,,,,459108.09999996424,459107.6999999881,455857.937,455864.59999996424,455874.603,459108.3,8,400,,,
trial,html.Screen,4_101_0,2023-10-31T21:53:03.265Z,,0,3,,2404.8999999880907,response,ISIC_4554381.JPG,9,ISIC_0068447.JPG,ISIC_0068447.JPG,false,0,keypress(z),500,461513.5,461513.1999999881,459091.634,459108.09999996424,459108.3,461524.87,8,400,2,,ISIC_4554381.JPG
break,html.Screen,4_101_1,2023-10-31T21:53:03.266Z,,0,,,NaN,,,,,,false,,,,461514.5,461514.2999999523,,461513.7999999523,,461524.87,8,400,,,
break_continue,html.Screen,4_101_2,2023-10-31T21:53:03.266Z,,0,,,NaN,,,,,,false,,,,461514.89999997616,461514.7999999523,,461514.6999999881,,461524.87,8,400,,,
sequence,flow.Sequence,4_101,2023-10-31T21:53:03.266Z,,0,,,2406.499999952328,completion,,,,,false,,,,461515.09999996424,461514.7999999523,459091.634,459108.09999996424,459108.3,461524.87,8,400,,,
trial,html.Screen,4_102_0,2023-10-31T21:53:06.421Z,,0,3,,3143.8299999880837,response,ISIC_4007322.JPG,7,ISIC_3067522.JPG,ISIC_3067522.JPG,false,0,keypress(z),500,464669.09999996424,464668.6999999881,461508.204,461515.2999999523,461524.87,464674.744,8,400,3,,ISIC_4007322.JPG
break,html.Screen,4_102_1,2023-10-31T21:53:06.421Z,,0,,,NaN,,,,,,false,,,,464670.09999996424,464669.89999997616,,464669.39999997616,,464674.744,8,400,,,
break_continue,html.Screen,4_102_2,2023-10-31T21:53:06.422Z,,0,,,NaN,,,,,,false,,,,464670.5,464670.39999997616,,464670.2999999523,,464674.744,8,400,,,
sequence,flow.Sequence,4_102,2023-10-31T21:53:06.422Z,,0,,,3145.529999976163,completion,,,,,false,,,,464670.6999999881,464670.39999997616,461508.204,461515.1999999881,461524.87,464674.744,8,400,,,
trial,html.Screen,4_103_0,2023-10-31T21:53:09.289Z,,0,3,,2862.955999988073,response,ISIC_0656395.JPG,8,ISIC_7822725.JPG,ISIC_0656395.JPG,false,1,keypress(m),500,467538,467537.6999999881,464658.078,464670.89999997616,464674.744,467541.695,8,400,4,,ISIC_7822725.JPG
break,html.Screen,4_103_1,2023-10-31T21:53:09.290Z,,0,,,NaN,,,,,,false,,,,467538.89999997616,467538.7999999523,,467538.2999999523,,467541.695,8,400,,,
break_continue,html.Screen,4_103_2,2023-10-31T21:53:09.291Z,,0,,,NaN,,,,,,false,,,,467539.2999999523,467539.2999999523,,467539.09999996424,,467541.695,8,400,,,
sequence,flow.Sequence,4_103,2023-10-31T21:53:09.291Z,,0,,,2864.5559999523102,completion,,,,,false,,,,467539.5,467539.2999999523,464658.078,464670.7999999523,464674.744,467541.695,8,400,,,
trial,html.Screen,4_104_0,2023-10-31T21:53:13.307Z,,0,3,,4013.9049999642302,response,ISIC_0870751.JPG,5,ISIC_0007501.JPG,ISIC_0870751.JPG,false,1,keypress(m),500,471555.7999999523,471555.59999996424,467525.029,467539.7999999523,467541.695,471558.201,8,400,5,,ISIC_0007501.JPG
break,html.Screen,4_104_1,2023-10-31T21:53:13.308Z,,0,,,NaN,,,,,,false,,,,471556.89999997616,471556.6999999881,,471556.09999996424,,471558.201,8,400,,,
break_continue,html.Screen,4_104_2,2023-10-31T21:53:13.309Z,,0,,,NaN,,,,,,false,,,,471557.09999996424,471557.09999996424,,471557,,471558.201,8,400,,,
sequence,flow.Sequence,4_104,2023-10-31T21:53:13.309Z,,0,,,4015.4049999642302,completion,,,,,false,,,,471557.2999999523,471557.09999996424,467525.029,467539.6999999881,467541.695,471558.201,8,400,,,
trial,html.Screen,4_105_0,2023-10-31T21:53:16.250Z,,0,3,,2939.998999988078,response,ISIC_9782083.JPG,8,ISIC_0781315.JPG,ISIC_0781315.JPG,false,0,keypress(z),500,474498.59999996424,474498.1999999881,471541.535,471557.5,471558.201,474508.083,8,400,6,,ISIC_9782083.JPG
break,html.Screen,4_105_1,2023-10-31T21:53:16.251Z,,0,,,NaN,,,,,,false,,,,474499.59999996424,474499.39999997616,,474498.89999997616,,474508.083,8,400,,,
break_continue,html.Screen,4_105_2,2023-10-31T21:53:16.251Z,,0,,,NaN,,,,,,false,,,,474500,474499.89999997616,,474499.6999999881,,474508.083,8,400,,,
sequence,flow.Sequence,4_105,2023-10-31T21:53:16.252Z,,0,,,2941.698999976157,completion,,,,,false,,,,474500.1999999881,474499.89999997616,471541.535,471557.39999997616,471558.201,474508.083,8,400,,,
trial,html.Screen,4_106_0,2023-10-31T21:53:20.843Z,,0,3,,4582.917000000016,response,ISIC_0929517.JPG,8,ISIC_6471212.JPG,ISIC_6471212.JPG,false,0,keypress(z),500,479091.2999999523,479091,474491.417,474500.2999999523,474508.083,479108.284,8,400,7,,ISIC_0929517.JPG
break,html.Screen,4_106_1,2023-10-31T21:53:20.844Z,,0,,,NaN,,,,,,false,,,,479092.39999997616,479092.09999996424,,479091.59999996424,,479108.284,8,400,,,
break_continue,html.Screen,4_106_2,2023-10-31T21:53:20.844Z,,0,,,NaN,,,,,,false,,,,479092.6999999881,479092.59999996424,,479092.39999997616,,479108.284,8,400,,,
sequence,flow.Sequence,4_106,2023-10-31T21:53:20.844Z,,0,,,4584.516999964253,completion,,,,,false,,,,479092.89999997616,479092.59999996424,474491.417,474500.2999999523,474508.083,479108.284,8,400,,,
trial,html.Screen,4_107_0,2023-10-31T21:53:23.836Z,,0,3,,2975.515999952331,response,ISIC_7921023.JPG,7,ISIC_9852341.JPG,ISIC_9852341.JPG,false,0,keypress(z),500,482084.09999996424,482083.7999999523,479091.618,479093,479108.284,482091.498,8,400,8,,ISIC_7921023.JPG
break,html.Screen,4_107_1,2023-10-31T21:53:23.837Z,,0,,,NaN,,,,,,false,,,,482085.09999996424,482084.89999997616,,482084.39999997616,,482091.498,8,400,,,
break_continue,html.Screen,4_107_2,2023-10-31T21:53:23.837Z,,0,,,NaN,,,,,,false,,,,482085.59999996424,482085.39999997616,,482085.2999999523,,482091.498,8,400,,,
sequence,flow.Sequence,4_107,2023-10-31T21:53:23.837Z,,0,,,2977.115999976173,completion,,,,,false,,,,482085.6999999881,482085.39999997616,479091.618,479092.89999997616,479108.284,482091.498,8,400,,,
trial,html.Screen,4_108_0,2023-10-31T21:53:26.795Z,,0,3,,2952.0019999999786,response,ISIC_7670817.JPG,8,ISIC_7438013.JPG,ISIC_7670817.JPG,false,1,keypress(m),500,485043.89999997616,485043.5,482074.832,482085.89999997616,482091.498,485058.046,8,400,9,,ISIC_7438013.JPG
break,html.Screen,4_108_1,2023-10-31T21:53:26.796Z,,0,,,NaN,,,,,,false,,,,485044.7999999523,485044.59999996424,,485044.1999999881,,485058.046,8,400,,,
break_continue,html.Screen,4_108_2,2023-10-31T21:53:26.797Z,,0,,,NaN,,,,,,false,,,,485045.2999999523,485045.09999996424,,485044.89999997616,,485058.046,8,400,,,
sequence,flow.Sequence,4_108,2023-10-31T21:53:26.797Z,,0,,,2953.601999964216,completion,,,,,false,,,,485045.39999997616,485045.09999996424,482074.832,482085.7999999523,482091.498,485058.046,8,400,,,
trial,html.Screen,4_109_0,2023-10-31T21:53:29.826Z,,0,3,,3015.853999976185,response,ISIC_0055859.JPG,5,ISIC_6916924.JPG,ISIC_6916924.JPG,false,0,keypress(z),500,488074.1999999881,488073.89999997616,485041.38,485045.5,485058.046,488091.708,8,400,10,,ISIC_0055859.JPG
break,html.Screen,4_109_1,2023-10-31T21:53:29.827Z,,0,,,NaN,,,,,,false,,,,488075.1999999881,488075,,488074.5,,488091.708,8,400,,,
break_continue,html.Screen,4_109_2,2023-10-31T21:53:29.827Z,,0,,,NaN,,,,,,false,,,,488075.5,488075.39999997616,,488075.2999999523,,488091.708,8,400,,,
sequence,flow.Sequence,4_109,2023-10-31T21:53:29.827Z,,0,,,3017.353999976185,completion,,,,,false,,,,488075.6999999881,488075.39999997616,485041.38,485045.39999997616,485058.046,488091.708,8,400,,,
trial,html.Screen,4_110_0,2023-10-31T21:53:32.870Z,,0,3,,3026.191999976174,response,ISIC_5552066.JPG,9,ISIC_0072516.JPG,ISIC_5552066.JPG,false,1,keypress(m),500,491118.1999999881,491117.89999997616,488075.042,488075.89999997616,488091.708,491124.92,8,400,11,,ISIC_0072516.JPG
break,html.Screen,4_110_1,2023-10-31T21:53:32.871Z,,0,,,NaN,,,,,,false,,,,491119.2999999523,491119,,491118.59999996424,,491124.92,8,400,,,
break_continue,html.Screen,4_110_2,2023-10-31T21:53:32.871Z,,0,,,NaN,,,,,,false,,,,491119.59999996424,491119.5,,491119.39999997616,,491124.92,8,400,,,
sequence,flow.Sequence,4_110,2023-10-31T21:53:32.871Z,,0,,,3027.792000000016,completion,,,,,false,,,,491119.6999999881,491119.5,488075.042,488075.89999997616,488091.708,491124.92,8,400,,,
trial,html.Screen,4_111_0,2023-10-31T21:53:36.221Z,,0,3,,3343.9799999761744,response,ISIC_1009042.JPG,9,ISIC_1605629.JPG,ISIC_1605629.JPG,false,0,keypress(z),500,494469.2999999523,494468.89999997616,491108.254,491119.89999997616,491124.92,494474.786,8,400,12,,ISIC_1009042.JPG
break,html.Screen,4_111_1,2023-10-31T21:53:36.222Z,,0,,,NaN,,,,,,false,,,,494470.39999997616,494470.09999996424,,494469.59999996424,,494474.786,8,400,,,
break_continue,html.Screen,4_111_2,2023-10-31T21:53:36.222Z,,0,,,NaN,,,,,,false,,,,494470.7999999523,494470.59999996424,,494470.5,,494474.786,8,400,,,
sequence,flow.Sequence,4_111,2023-10-31T21:53:36.222Z,,0,,,3345.6799999642535,completion,,,,,false,,,,494470.89999997616,494470.59999996424,491108.254,491119.89999997616,491124.92,494474.786,8,400,,,
trial,html.Screen,4_112_0,2023-10-31T21:53:39.410Z,,0,3,,3183.213999999978,response,ISIC_4540332.JPG,9,ISIC_9906378.JPG,ISIC_9906378.JPG,false,0,keypress(z),500,497658.39999997616,497658,494458.12,494471.09999996424,494474.786,497674.658,8,400,13,,ISIC_4540332.JPG
break,html.Screen,4_112_1,2023-10-31T21:53:39.411Z,,0,,,NaN,,,,,,false,,,,497659.39999997616,497659.1999999881,,497658.6999999881,,497674.658,8,400,,,
break_continue,html.Screen,4_112_2,2023-10-31T21:53:39.411Z,,0,,,NaN,,,,,,false,,,,497659.6999999881,497659.6999999881,,497659.5,,497674.658,8,400,,,
sequence,flow.Sequence,4_112,2023-10-31T21:53:39.411Z,,0,,,3184.913999988057,completion,,,,,false,,,,497660,497659.6999999881,494458.12,494471,494474.786,497674.658,8,400,,,
trial,html.Screen,4_113_0,2023-10-31T21:53:42.729Z,,0,3,,3302.842000000004,response,ISIC_7164403.JPG,7,ISIC_9860255.JPG,ISIC_9860255.JPG,false,0,keypress(z),500,500977.7999999523,500977.5,497657.992,497660.09999996424,497674.658,500991.589,8,400,14,,ISIC_7164403.JPG
break,html.Screen,4_113_1,2023-10-31T21:53:42.730Z,,0,,,NaN,,,,,,false,,,,500978.89999997616,500978.6999999881,,500978.1999999881,,500991.589,8,400,,,
break_continue,html.Screen,4_113_2,2023-10-31T21:53:42.731Z,,0,,,NaN,,,,,,false,,,,500979.1999999881,500979.09999996424,,500978.89999997616,,500991.589,8,400,,,
sequence,flow.Sequence,4_113,2023-10-31T21:53:42.731Z,,0,,,3304.4419999642414,completion,,,,,false,,,,500979.39999997616,500979.09999996424,497657.992,497660,497674.658,500991.589,8,400,,,
trial,html.Screen,4_114_0,2023-10-31T21:53:45.520Z,,0,3,,2776.010999964259,response,ISIC_0060968.JPG,8,ISIC_9008026.JPG,ISIC_9008026.JPG,false,0,keypress(z),500,503768.09999996424,503767.59999996424,500974.923,500979.5,500991.589,503774.811,8,400,15,,ISIC_0060968.JPG
break,html.Screen,4_114_1,2023-10-31T21:53:45.521Z,,0,,,NaN,,,,,,false,,,,503769,503768.7999999523,,503768.39999997616,,503774.811,8,400,,,
break_continue,html.Screen,4_114_2,2023-10-31T21:53:45.521Z,,0,,,NaN,,,,,,false,,,,503769.5,503769.2999999523,,503769.1999999881,,503774.811,8,400,,,
sequence,flow.Sequence,4_114,2023-10-31T21:53:45.521Z,,0,,,2777.710999952338,completion,,,,,false,,,,503769.6999999881,503769.2999999523,500974.923,500979.5,500991.589,503774.811,8,400,,,
trial,html.Screen,4_115_0,2023-10-31T21:53:48.309Z,,0,3,,2781.689000000013,response,ISIC_2565154.JPG,7,ISIC_2259861.JPG,ISIC_2565154.JPG,false,1,keypress(m),500,506556.89999997616,506556.5,503758.145,503769.7999999523,503774.811,506558.033,8,400,16,,ISIC_2259861.JPG
break,html.Screen,4_115_1,2023-10-31T21:53:48.309Z,,0,,,NaN,,,,,,false,,,,506557.89999997616,506557.59999996424,,506557.1999999881,,506558.033,8,400,,,
break_continue,html.Screen,4_115_2,2023-10-31T21:53:48.310Z,,0,,,NaN,,,,,,false,,,,506558.2999999523,506558.09999996424,,506558,,506558.033,8,400,,,
sequence,flow.Sequence,4_115,2023-10-31T21:53:48.310Z,,0,,,2783.2889999642503,completion,,,,,false,,,,506558.39999997616,506558.09999996424,503758.145,503769.6999999881,503774.811,506558.033,8,400,,,
trial,html.Screen,4_116_0,2023-10-31T21:53:51.980Z,,0,3,,3669.467000000004,response,ISIC_3984167.JPG,7,ISIC_7899041.JPG,ISIC_7899041.JPG,false,0,keypress(z),500,510228,510227.5,506541.367,506558.59999996424,506558.033,510241.626,8,400,17,,ISIC_3984167.JPG
break,html.Screen,4_116_1,2023-10-31T21:53:51.981Z,,0,,,NaN,,,,,,false,,,,510228.89999997616,510228.6999999881,,510228.2999999523,,510241.626,8,400,,,
break_continue,html.Screen,4_116_2,2023-10-31T21:53:51.981Z,,0,,,NaN,,,,,,false,,,,510229.2999999523,510229.1999999881,,510229,,510241.626,8,400,,,
sequence,flow.Sequence,4_116,2023-10-31T21:53:51.981Z,,0,,,3671.1669999880833,completion,,,,,false,,,,510229.5,510229.1999999881,506541.367,506558.5,506558.033,510241.626,8,400,,,
trial,html.Screen,4_117_0,2023-10-31T21:53:55.392Z,,0,3,,3397.8740000000107,response,ISIC_4750271.JPG,5,ISIC_8785329.JPG,ISIC_8785329.JPG,false,0,keypress(z),500,513640,513639.5,510224.96,510229.59999996424,510241.626,513658.156,8,400,18,,ISIC_4750271.JPG
break,html.Screen,4_117_1,2023-10-31T21:53:55.393Z,,0,,,NaN,,,,,,false,,,,513640.7999999523,513640.59999996424,,513640.1999999881,,513658.156,8,400,,,
break_continue,html.Screen,4_117_2,2023-10-31T21:53:55.393Z,,0,,,NaN,,,,,,false,,,,513641.1999999881,513641.09999996424,,513641,,513658.156,8,400,,,
sequence,flow.Sequence,4_117,2023-10-31T21:53:55.393Z,,0,,,3399.473999964248,completion,,,,,false,,,,513641.39999997616,513641.09999996424,510224.96,510229.59999996424,510241.626,513658.156,8,400,,,
trial,html.Screen,4_118_0,2023-10-31T21:53:58.326Z,,0,3,,2915.8439999999828,response,ISIC_0056788.JPG,7,ISIC_6458982.JPG,ISIC_6458982.JPG,false,0,keypress(z),500,516574.39999997616,516574,513641.49,513641.5,513658.156,516574.706,8,400,19,,ISIC_0056788.JPG
break,html.Screen,4_118_1,2023-10-31T21:53:58.327Z,,0,,,NaN,,,,,,false,,,,516575.39999997616,516575.09999996424,,516574.6999999881,,516574.706,8,400,,,
break_continue,html.Screen,4_118_2,2023-10-31T21:53:58.327Z,,0,,,NaN,,,,,,false,,,,516575.7999999523,516575.59999996424,,516575.5,,516574.706,8,400,,,
sequence,flow.Sequence,4_118,2023-10-31T21:53:58.328Z,,0,,,2917.44399996422,completion,,,,,false,,,,516575.89999997616,516575.59999996424,513641.49,513641.5,513658.156,516574.706,8,400,,,
trial,html.Screen,4_119_0,2023-10-31T21:54:01.259Z,,0,3,,2931.6939999761526,response,ISIC_8713330.JPG,8,ISIC_0002184.JPG,ISIC_0002184.JPG,false,0,keypress(z),500,519506.7999999523,519506.39999997616,516558.04,516576,516574.706,519508.314,8,400,20,,ISIC_8713330.JPG
break,html.Screen,4_119_1,2023-10-31T21:54:01.260Z,,0,,,NaN,,,,,,false,,,,519507.7999999523,519507.59999996424,,519507.09999996424,,519508.314,8,400,,,
break_continue,html.Screen,4_119_2,2023-10-31T21:54:01.260Z,,0,,,NaN,,,,,,false,,,,519508.1999999881,519508.09999996424,,519508,,519508.314,8,400,,,
sequence,flow.Sequence,4_119,2023-10-31T21:54:01.260Z,,0,,,2933.3939999642316,completion,,,,,false,,,,519508.39999997616,519508.09999996424,516558.04,516576,516574.706,519508.314,8,400,,,
trial,html.Screen,4_120_0,2023-10-31T21:54:04.673Z,,0,3,,3412.885999988066,response,ISIC_0033071.JPG,7,ISIC_0068477.JPG,ISIC_0068477.JPG,false,0,keypress(z),500,522921.6999999881,522921.1999999881,519491.648,519508.5,519508.314,522924.844,8,400,21,,ISIC_0033071.JPG
break,html.Screen,4_120_1,2023-10-31T21:54:04.674Z,,0,,,NaN,,,,,,false,,,,522922.59999996424,522922.5,,522921.89999997616,,522924.844,8,400,,,
break_continue,html.Screen,4_120_2,2023-10-31T21:54:04.675Z,,0,,,NaN,,,,,,false,,,,522923.1999999881,522923,,522922.89999997616,,522924.844,8,400,,,
sequence,flow.Sequence,4_120,2023-10-31T21:54:04.675Z,,0,,,3414.685999999987,completion,,,,,false,,,,522923.2999999523,522923,519491.648,519508.5,519508.314,522924.844,8,400,,,
trial,html.Screen,4_121_0,2023-10-31T21:54:07.861Z,,0,3,,3184.2559999642544,response,ISIC_5789994.JPG,7,ISIC_9983696.JPG,ISIC_5789994.JPG,false,1,keypress(m),500,526109.5999999642,526109.0999999642,522908.178,522923.39999997616,522924.844,526124.716,8,400,22,,ISIC_9983696.JPG
break,html.Screen,4_121_1,2023-10-31T21:54:07.862Z,,0,,,NaN,,,,,,false,,,,526110.6999999881,526110.3999999762,,526109.8999999762,,526124.716,8,400,,,
break_continue,html.Screen,4_121_2,2023-10-31T21:54:07.863Z,,0,,,NaN,,,,,,false,,,,526111,526110.7999999523,,526110.7999999523,,526124.716,8,400,,,
sequence,flow.Sequence,4_121,2023-10-31T21:54:07.863Z,,0,,,3185.9559999523335,completion,,,,,false,,,,526111.1999999881,526110.7999999523,522908.178,522923.39999997616,522924.844,526124.716,8,400,,,
trial,html.Screen,4_122_0,2023-10-31T21:54:10.940Z,,0,3,,3063.483999988064,response,ISIC_0025289.JPG,7,ISIC_0026745.JPG,ISIC_0025289.JPG,false,1,keypress(m),500,529188.5999999642,529188.1999999881,526108.05,526111.3999999762,526124.716,529191.673,8,400,23,,ISIC_0026745.JPG
break,html.Screen,4_122_1,2023-10-31T21:54:10.941Z,,0,,,NaN,,,,,,false,,,,529189.5,529189.3999999762,,529188.8999999762,,529191.673,8,400,,,
break_continue,html.Screen,4_122_2,2023-10-31T21:54:10.942Z,,0,,,NaN,,,,,,false,,,,529189.8999999762,529189.7999999523,,529189.5999999642,,529191.673,8,400,,,
sequence,flow.Sequence,4_122,2023-10-31T21:54:10.942Z,,0,,,3065.0839999523014,completion,,,,,false,,,,529190,529189.7999999523,526108.05,526111.2999999523,526124.716,529191.673,8,400,,,
trial,html.Screen,4_123_0,2023-10-31T21:54:14.515Z,,0,3,,3571.2269999762066,response,ISIC_0011728.JPG,7,ISIC_0057307.JPG,ISIC_0057307.JPG,false,0,keypress(z),500,532763.2999999523,532762.8999999762,529175.007,529190.1999999881,529191.673,532774.863,8,400,24,,ISIC_0011728.JPG
break,html.Screen,4_123_1,2023-10-31T21:54:14.516Z,,0,,,NaN,,,,,,false,,,,532764.2999999523,532764,,532763.5,,532774.863,8,400,,,
break_continue,html.Screen,4_123_2,2023-10-31T21:54:14.516Z,,0,,,NaN,,,,,,false,,,,532764.6999999881,532764.5,,532764.3999999762,,532774.863,8,400,,,
sequence,flow.Sequence,4_123,2023-10-31T21:54:14.517Z,,0,,,3572.8270000000484,completion,,,,,false,,,,532764.8999999762,532764.5,529175.007,529190.0999999642,529191.673,532774.863,8,400,,,
trial,html.Screen,4_124_0,2023-10-31T21:54:17.865Z,,0,3,,3337.636999999988,response,ISIC_0029480.JPG,8,ISIC_0055859.JPG,ISIC_0055859.JPG,false,0,keypress(z),500,536112.8999999762,536112.5,532758.197,532765,532774.863,536141.395,8,400,25,,ISIC_0029480.JPG
break,html.Screen,4_124_1,2023-10-31T21:54:17.866Z,,0,,,NaN,,,,,,false,,,,536113.6999999881,536113.5999999642,,536113.0999999642,,536141.395,8,400,,,
break_continue,html.Screen,4_124_2,2023-10-31T21:54:17.866Z,,0,,,NaN,,,,,,false,,,,536114.0999999642,536114,,536113.8999999762,,536141.395,8,400,,,
sequence,flow.Sequence,4_124,2023-10-31T21:54:17.866Z,,0,,,3339.136999999988,completion,,,,,false,,,,536114.1999999881,536114,532758.197,532765,532774.863,536141.395,8,400,,,
trial,html.Screen,4_125_0,2023-10-31T21:54:21.104Z,,0,3,,3210.1049999999814,response,ISIC_0538042.JPG,7,ISIC_1165548.JPG,ISIC_1165548.JPG,false,0,keypress(z),500,539351.7999999523,539351.5,536124.729,536114.3999999762,536141.395,539358.33,8,400,26,,ISIC_0538042.JPG
break,html.Screen,4_125_1,2023-10-31T21:54:21.105Z,,0,,,NaN,,,,,,false,,,,539352.6999999881,539352.5,,539352.0999999642,,539358.33,8,400,,,
break_continue,html.Screen,4_125_2,2023-10-31T21:54:21.105Z,,0,,,NaN,,,,,,false,,,,539353.0999999642,539353,,539352.7999999523,,539358.33,8,400,,,
sequence,flow.Sequence,4_125,2023-10-31T21:54:21.105Z,,0,,,3211.6049999999814,completion,,,,,false,,,,539353.1999999881,539353,536124.729,536114.2999999523,536141.395,539358.33,8,400,,,
