sender,sender_type,sender_id,timestamp,meta,,blockNo,condition,duration,ended_on,img_left,img_reveal,img_right,loser,practice,response,response_action,selection_duration,time_commit,time_end,time_render,time_run,time_show,time_switch,total_blocks,total_trials,trialNo,url,winner
informed_consent,html.Screen,0,2023-09-11T21:04:57.423Z,"{""labjs_version"":""20.2.4"",""labjs_build"":{""flavor"":""production"",""commit"":""f5b4a49f956347addd546a832a3327688c2c0fef""},""location"":""https://run.pavlovia.org/MurrayBennett/melanoma-2afc/?participant=66894&platform=sona"",""userAgent"":""Mozilla/5.0 (Macintosh; Intel Mac OS X 10_15_7) AppleWebKit/537.36 (KHTML, like Gecko) Chrome/116.0.0.0 Safari/537.36"",""platform"":""MacIntel"",""language"":""en-US"",""locale"":""en-US"",""timeZone"":""America/Chicago"",""timezoneOffset"":300,""screen_width"":1440,""screen_height"":900,""scroll_width"":1440,""scroll_height"":678,""window_innerWidth"":1440,""window_innerHeight"":726,""devicePixelRatio"":2}",,,,4688.727,response,,,,,,consent,click button,,7368.5999999940395,7365.5,2493.447,2679.5,2676.773,7376.585,,,,"{""participant"":""66894"",""platform"":""sona""}",
Welcome,html.Screen,1,2023-09-11T21:05:18.672Z,,,,asymmetry,21239.71499999702,response,,,,,,continue,click button,,28618.90000000596,28616.29999999702,7359.919,7368.70000000298,7376.585,28627.765,,,,,
trial,html.Screen,2_0_0,2023-09-11T21:05:30.171Z,,0,0,,11517.010000000002,timeout,ISIC_0069348.JPG,,ISIC_6997061.JPG,,true,,,500,40117.79999999702,40117.20000000298,28611.099,28619.29999999702,28627.765,40144.775,1,6,1,,
sequence,flow.Sequence,2_0,2023-09-11T21:05:30.172Z,,0,,,11489.43500000298,completion,,,,,true,,,,40118.40000000596,40117.20000000298,28611.099,28619.20000000298,28627.765,40144.775,1,6,,,
trial,html.Screen,2_1_0,2023-09-11T21:05:35.225Z,,0,0,,5026.7249999999985,response,ISIC_0009529.JPG,,ISIC_0057368.JPG,ISIC_0009529.JPG,true,1,keypress(m),500,45172,45171.5,40128.109,40118.59999999404,40144.775,45177.907,1,6,2,,ISIC_0057368.JPG
sequence,flow.Sequence,2_1,2023-09-11T21:05:35.226Z,,0,,,5026.7249999999985,completion,,,,,true,,,,45172.5,45171.5,40128.109,40118.5,40144.775,45177.907,1,6,,,
trial,html.Screen,2_2_0,2023-09-11T21:05:43.711Z,,0,0,,8479.093,response,ISIC_0064954.JPG,,ISIC_9758671.JPG,ISIC_0064954.JPG,true,1,keypress(m),500,53657.59999999404,53657,45161.241,45172.70000000298,45177.907,53661.502,1,6,3,,ISIC_9758671.JPG
sequence,flow.Sequence,2_2,2023-09-11T21:05:43.711Z,,0,,,8479.093,completion,,,,,true,,,,53658.09999999404,53657,45161.241,45172.59999999404,45177.907,53661.502,1,6,,,
trial,html.Screen,2_3_0,2023-09-11T21:05:47.365Z,,0,0,,3649.69800000298,response,ISIC_0005785.JPG,,ISIC_0000080.JPG,ISIC_0000080.JPG,true,0,keypress(z),500,57311.70000000298,57311.20000000298,53644.836,53658.40000000596,53661.502,57328.022,1,6,4,,ISIC_0005785.JPG
sequence,flow.Sequence,2_3,2023-09-11T21:05:47.365Z,,0,,,3649.69800000298,completion,,,,,true,,,,57312.29999999702,57311.20000000298,53644.836,53658.29999999702,53661.502,57328.022,1,6,,,
trial,html.Screen,2_4_0,2023-09-11T21:05:56.288Z,,0,0,,8906.978000000003,response,ISIC_5390060.JPG,,ISIC_7944028.JPG,ISIC_7944028.JPG,true,0,keypress(z),500,66235.5,66235,57311.356,57312.70000000298,57328.022,66245.188,1,6,5,,ISIC_5390060.JPG
sequence,flow.Sequence,2_4,2023-09-11T21:05:56.289Z,,0,,,8906.978000000003,completion,,,,,true,,,,66235.90000000596,66235,57311.356,57312.59999999404,57328.022,66245.188,1,6,,,
trial,html.Screen,2_5_0,2023-09-11T21:05:59.816Z,,0,0,,3517.411999994045,response,ISIC_0794216.JPG,,ISIC_0010188.JPG,ISIC_0794216.JPG,true,1,keypress(m),500,69763.09999999404,69762.59999999404,66228.522,66236.09999999404,66245.188,69779.187,1,6,6,,ISIC_0010188.JPG
sequence,flow.Sequence,2_5,2023-09-11T21:05:59.816Z,,0,,,3517.411999994045,completion,,,,,true,,,,69763.70000000298,69762.59999999404,66228.522,66236.09999999404,66245.188,69779.187,1,6,,,
loop,flow.Loop,2,2023-09-11T21:05:59.817Z,,,,,41134.83499999404,completion,,,,,true,,,,69763.90000000596,69762.59999999404,28611.099,28619.09999999404,28627.765,69779.187,1,6,,,
exp_instructions,html.Screen,3,2023-09-11T21:06:08.985Z,,,,,9147.013000002975,response,,,,,,continue,keypress(Space),,78932.70000000298,78926.20000000298,69762.521,69764.09999999404,69779.187,78945.487,,,,,
trial,html.Screen,4_0_0,2023-09-11T21:06:12.968Z,,0,1,,3969.9130000059668,response,ISIC_6444989.JPG,7,ISIC_0678758.JPG,ISIC_0678758.JPG,false,0,keypress(z),500,82915.90000000596,82915.40000000596,78928.821,78933,78945.487,82929.445,8,400,1,,ISIC_6444989.JPG
break,html.Screen,4_0_1,2023-09-11T21:06:12.970Z,,0,,,NaN,,,,,,false,,,,82917.40000000596,82917.09999999404,,82916.20000000298,,82929.445,8,400,,,
break_continue,html.Screen,4_0_2,2023-09-11T21:06:12.970Z,,0,,,NaN,,,,,,false,,,,82917.90000000596,82917.79999999702,,82917.59999999404,,82929.445,8,400,,,
sequence,flow.Sequence,4_0,2023-09-11T21:06:12.971Z,,0,,,3972.312999997026,completion,,,,,false,,,,82918.20000000298,82917.79999999702,78928.821,78933,78945.487,82929.445,8,400,,,
trial,html.Screen,4_1_0,2023-09-11T21:06:18.816Z,,0,1,,5834.255000002973,response,ISIC_5298216.JPG,5,ISIC_0011030.JPG,ISIC_5298216.JPG,false,1,keypress(m),500,88764.09999999404,88763.70000000298,82912.779,82918.29999999702,82929.445,88779.211,8,400,2,,ISIC_0011030.JPG
break,html.Screen,4_1_1,2023-09-11T21:06:18.818Z,,0,,,NaN,,,,,,false,,,,88765.20000000298,88765,,88764.40000000596,,88779.211,8,400,,,
break_continue,html.Screen,4_1_2,2023-09-11T21:06:18.818Z,,0,,,NaN,,,,,,false,,,,88765.70000000298,88765.59999999404,,88765.40000000596,,88779.211,8,400,,,
sequence,flow.Sequence,4_1,2023-09-11T21:06:18.818Z,,0,,,5836.154999994033,completion,,,,,false,,,,88765.90000000596,88765.59999999404,82912.779,82918.20000000298,82929.445,88779.211,8,400,,,
trial,html.Screen,4_2_0,2023-09-11T21:06:26.440Z,,0,1,,7607.888999994044,response,ISIC_0066674.JPG,8,ISIC_0025219.JPG,ISIC_0025219.JPG,false,0,keypress(z),500,96387.5,96387.09999999404,88762.545,88766,88779.211,96396.277,8,400,3,,ISIC_0066674.JPG
break,html.Screen,4_2_1,2023-09-11T21:06:26.441Z,,0,,,NaN,,,,,,false,,,,96388.70000000298,96388.5,,96387.79999999702,,96396.277,8,400,,,
break_continue,html.Screen,4_2_2,2023-09-11T21:06:26.441Z,,0,,,NaN,,,,,,false,,,,96389.09999999404,96388.90000000596,,96388.79999999702,,96396.277,8,400,,,
sequence,flow.Sequence,4_2,2023-09-11T21:06:26.441Z,,0,,,7609.689000005965,completion,,,,,false,,,,96389.20000000298,96388.90000000596,88762.545,88765.90000000596,88779.211,96396.277,8,400,,,
trial,html.Screen,4_3_0,2023-09-11T21:06:29.918Z,,0,1,,3468.8229999940377,response,ISIC_0031784.JPG,9,ISIC_3947143.JPG,ISIC_3947143.JPG,false,0,keypress(z),500,99865.59999999404,99865.09999999404,96379.611,96389.29999999702,96396.277,99879.471,8,400,4,,ISIC_0031784.JPG
break,html.Screen,4_3_1,2023-09-11T21:06:29.919Z,,0,,,NaN,,,,,,false,,,,99866.90000000596,99866.70000000298,,99866,,99879.471,8,400,,,
break_continue,html.Screen,4_3_2,2023-09-11T21:06:29.919Z,,0,,,NaN,,,,,,false,,,,99867.20000000298,99867.20000000298,,99867,,99879.471,8,400,,,
sequence,flow.Sequence,4_3,2023-09-11T21:06:29.920Z,,0,,,3470.9230000029784,completion,,,,,false,,,,99867.40000000596,99867.20000000298,96379.611,96389.29999999702,96396.277,99879.471,8,400,,,
trial,html.Screen,4_4_0,2023-09-11T21:06:35.317Z,,0,1,,5385.328999997015,response,ISIC_0357043.JPG,6,ISIC_9028726.JPG,ISIC_9028726.JPG,false,0,keypress(z),500,105265.09999999404,105264.79999999702,99862.805,99867.70000000298,99879.471,105280.049,8,400,5,,ISIC_0357043.JPG
break,html.Screen,4_4_1,2023-09-11T21:06:35.318Z,,0,,,NaN,,,,,,false,,,,105266.09999999404,105265.90000000596,,105265.29999999702,,105280.049,8,400,,,
break_continue,html.Screen,4_4_2,2023-09-11T21:06:35.318Z,,0,,,NaN,,,,,,false,,,,105266.40000000596,105266.29999999702,,105266.20000000298,,105280.049,8,400,,,
sequence,flow.Sequence,4_4,2023-09-11T21:06:35.319Z,,0,,,5386.828999997015,completion,,,,,false,,,,105266.59999999404,105266.29999999702,99862.805,99867.5,99879.471,105280.049,8,400,,,
trial,html.Screen,4_5_0,2023-09-11T21:06:38.815Z,,0,1,,3482.451000000001,response,ISIC_7482149.JPG,8,ISIC_1398618.JPG,ISIC_1398618.JPG,false,0,keypress(z),500,108763.09999999404,108762.5,105263.383,105266.70000000298,105280.049,108779.909,8,400,6,,ISIC_7482149.JPG
break,html.Screen,4_5_1,2023-09-11T21:06:38.816Z,,0,,,NaN,,,,,,false,,,,108764.20000000298,108764,,108763.40000000596,,108779.909,8,400,,,
break_continue,html.Screen,4_5_2,2023-09-11T21:06:38.817Z,,0,,,NaN,,,,,,false,,,,108764.70000000298,108764.5,,108764.40000000596,,108779.909,8,400,,,
sequence,flow.Sequence,4_5,2023-09-11T21:06:38.817Z,,0,,,3484.451000000001,completion,,,,,false,,,,108764.90000000596,108764.5,105263.383,105266.59999999404,105280.049,108779.909,8,400,,,
trial,html.Screen,4_6_0,2023-09-11T21:06:45.808Z,,0,1,,6976.291000002981,response,ISIC_9458746.JPG,5,ISIC_5092834.JPG,ISIC_5092834.JPG,false,0,keypress(z),500,115756.59999999404,115756.20000000298,108763.243,108764.90000000596,108779.909,115763.635,8,400,7,,ISIC_9458746.JPG
break,html.Screen,4_6_1,2023-09-11T21:06:45.810Z,,0,,,NaN,,,,,,false,,,,115757.79999999702,115757.59999999404,,115756.90000000596,,115763.635,8,400,,,
break_continue,html.Screen,4_6_2,2023-09-11T21:06:45.810Z,,0,,,NaN,,,,,,false,,,,115758.09999999404,115758,,115758,,115763.635,8,400,,,
sequence,flow.Sequence,4_6,2023-09-11T21:06:45.810Z,,0,,,6978.091,completion,,,,,false,,,,115758.5,115758,108763.243,108764.90000000596,108779.909,115763.635,8,400,,,
trial,html.Screen,4_7_0,2023-09-11T21:06:52.438Z,,0,1,,6622.365000000005,response,ISIC_0060297.JPG,8,ISIC_6809586.JPG,ISIC_0060297.JPG,false,1,keypress(m),500,122386.20000000298,122386,115746.969,115758.59999999404,115763.635,122396.703,8,400,8,,ISIC_6809586.JPG
break,html.Screen,4_7_1,2023-09-11T21:06:52.439Z,,0,,,NaN,,,,,,false,,,,122387.5,122387.20000000298,,122386.70000000298,,122396.703,8,400,,,
break_continue,html.Screen,4_7_2,2023-09-11T21:06:52.439Z,,0,,,NaN,,,,,,false,,,,122387.79999999702,122387.70000000298,,122387.59999999404,,122396.703,8,400,,,
sequence,flow.Sequence,4_7,2023-09-11T21:06:52.440Z,,0,,,6624.0650000029855,completion,,,,,false,,,,122387.90000000596,122387.70000000298,115746.969,115758.59999999404,115763.635,122396.703,8,400,,,
trial,html.Screen,4_8_0,2023-09-11T21:06:59.804Z,,0,1,,7354.697000005966,response,ISIC_1228845.JPG,7,ISIC_8785329.JPG,ISIC_1228845.JPG,false,1,keypress(m),500,129752.09999999404,129751.40000000596,122380.037,122388.09999999404,122396.703,129764.057,8,400,9,,ISIC_8785329.JPG
break,html.Screen,4_8_1,2023-09-11T21:06:59.805Z,,0,,,NaN,,,,,,false,,,,129753.29999999702,129753,,129752.29999999702,,129764.057,8,400,,,
break_continue,html.Screen,4_8_2,2023-09-11T21:06:59.805Z,,0,,,NaN,,,,,,false,,,,129753.90000000596,129753.70000000298,,129753.5,,129764.057,8,400,,,
sequence,flow.Sequence,4_8,2023-09-11T21:06:59.806Z,,0,,,7356.997000002986,completion,,,,,false,,,,129754.09999999404,129753.70000000298,122380.037,122388,122396.703,129764.057,8,400,,,
trial,html.Screen,4_9_0,2023-09-11T21:07:06.912Z,,0,1,,7096.042999994039,response,ISIC_0065807.JPG,6,ISIC_0010862.JPG,ISIC_0065807.JPG,false,1,keypress(m),500,136860.59999999404,136860.09999999404,129747.391,129754.20000000298,129764.057,136864.293,8,400,10,,ISIC_0010862.JPG
break,html.Screen,4_9_1,2023-09-11T21:07:06.913Z,,0,,,NaN,,,,,,false,,,,136861.79999999702,136861.59999999404,,136860.90000000596,,136864.293,8,400,,,
break_continue,html.Screen,4_9_2,2023-09-11T21:07:06.914Z,,0,,,NaN,,,,,,false,,,,136862.20000000298,136862,,136861.90000000596,,136864.293,8,400,,,
sequence,flow.Sequence,4_9,2023-09-11T21:07:06.914Z,,0,,,7097.942999999999,completion,,,,,false,,,,136862.29999999702,136862,129747.391,129754.20000000298,129764.057,136864.293,8,400,,,
trial,html.Screen,4_10_0,2023-09-11T21:07:10.550Z,,0,1,,3634.5069999970146,response,ISIC_1102391.JPG,7,ISIC_4653167.JPG,ISIC_1102391.JPG,false,1,keypress(m),500,140499,140498.79999999702,136847.627,136862.59999999404,136864.293,140514.147,8,400,11,,ISIC_4653167.JPG
break,html.Screen,4_10_1,2023-09-11T21:07:10.551Z,,0,,,NaN,,,,,,false,,,,140499.5,140499.5,,140499.09999999404,,140514.147,8,400,,,
break_continue,html.Screen,4_10_2,2023-09-11T21:07:10.551Z,,0,,,NaN,,,,,,false,,,,140499.79999999702,140499.70000000298,,140499.59999999404,,140514.147,8,400,,,
sequence,flow.Sequence,4_10,2023-09-11T21:07:10.551Z,,0,,,3635.407000002975,completion,,,,,false,,,,140499.79999999702,140499.70000000298,136847.627,136862.40000000596,136864.293,140514.147,8,400,,,
trial,html.Screen,4_11_0,2023-09-11T21:07:14.249Z,,0,1,,3683.553000002983,response,ISIC_0026666.JPG,6,ISIC_0024679.JPG,ISIC_0026666.JPG,false,1,keypress(m),500,144198.09999999404,144197.70000000298,140497.481,140499.90000000596,140514.147,144213.999,8,400,12,,ISIC_0024679.JPG
break,html.Screen,4_11_1,2023-09-11T21:07:14.250Z,,0,,,NaN,,,,,,false,,,,144199.29999999702,144199.09999999404,,144198.5,,144213.999,8,400,,,
break_continue,html.Screen,4_11_2,2023-09-11T21:07:14.251Z,,0,,,NaN,,,,,,false,,,,144199.59999999404,144199.5,,144199.40000000596,,144213.999,8,400,,,
sequence,flow.Sequence,4_11,2023-09-11T21:07:14.251Z,,0,,,3685.353000000003,completion,,,,,false,,,,144199.79999999702,144199.5,140497.481,140499.79999999702,140514.147,144213.999,8,400,,,
trial,html.Screen,4_12_0,2023-09-11T21:07:21.056Z,,0,1,,6790.7010000029695,response,ISIC_3689759.JPG,5,ISIC_2772217.JPG,ISIC_3689759.JPG,false,1,keypress(m),500,151005.20000000298,151004.70000000298,144197.333,144200,144213.999,151014.759,8,400,13,,ISIC_2772217.JPG
break,html.Screen,4_12_1,2023-09-11T21:07:21.057Z,,0,,,NaN,,,,,,false,,,,151006.29999999702,151006.20000000298,,151005.5,,151014.759,8,400,,,
break_continue,html.Screen,4_12_2,2023-09-11T21:07:21.058Z,,0,,,NaN,,,,,,false,,,,151006.70000000298,151006.59999999404,,151006.5,,151014.759,8,400,,,
sequence,flow.Sequence,4_12,2023-09-11T21:07:21.058Z,,0,,,6792.600999994029,completion,,,,,false,,,,151006.79999999702,151006.59999999404,144197.333,144200,144213.999,151014.759,8,400,,,
trial,html.Screen,4_13_0,2023-09-11T21:07:29.672Z,,0,1,,8605.840999994049,response,ISIC_4603706.JPG,7,ISIC_6024335.JPG,ISIC_6024335.JPG,false,0,keypress(z),500,159621.09999999404,159620.59999999404,150998.093,151007,151014.759,159632.042,8,400,14,,ISIC_4603706.JPG
break,html.Screen,4_13_1,2023-09-11T21:07:29.674Z,,0,,,NaN,,,,,,false,,,,159623.09999999404,159622.79999999702,,159622.20000000298,,159632.042,8,400,,,
break_continue,html.Screen,4_13_2,2023-09-11T21:07:29.674Z,,0,,,NaN,,,,,,false,,,,159623.40000000596,159623.29999999702,,159623.20000000298,,159632.042,8,400,,,
sequence,flow.Sequence,4_13,2023-09-11T21:07:29.674Z,,0,,,8608.540999997029,completion,,,,,false,,,,159623.59999999404,159623.29999999702,150998.093,151006.90000000596,151014.759,159632.042,8,400,,,
trial,html.Screen,4_14_0,2023-09-11T21:07:35.647Z,,0,1,,5964.057999994053,response,ISIC_5732487.JPG,7,ISIC_7599444.JPG,ISIC_5732487.JPG,false,1,keypress(m),500,165596.29999999702,165596.09999999404,159615.376,159623.70000000298,159632.042,165598.47,8,400,15,,ISIC_7599444.JPG
break,html.Screen,4_14_1,2023-09-11T21:07:35.648Z,,0,,,NaN,,,,,,false,,,,165596.90000000596,165596.79999999702,,165596.59999999404,,165598.47,8,400,,,
break_continue,html.Screen,4_14_2,2023-09-11T21:07:35.648Z,,0,,,NaN,,,,,,false,,,,165597.29999999702,165597.20000000298,,165597.09999999404,,165598.47,8,400,,,
sequence,flow.Sequence,4_14,2023-09-11T21:07:35.648Z,,0,,,5965.1580000029935,completion,,,,,false,,,,165597.40000000596,165597.20000000298,159615.376,159623.70000000298,159632.042,165598.47,8,400,,,
trial,html.Screen,4_15_0,2023-09-11T21:07:43.397Z,,0,1,,7747.529999999999,response,ISIC_0034101.JPG,5,ISIC_9572152.JPG,ISIC_9572152.JPG,false,0,keypress(z),500,173346.40000000596,173346,165581.804,165597.40000000596,165598.47,173348.73,8,400,16,,ISIC_0034101.JPG
break,html.Screen,4_15_1,2023-09-11T21:07:43.398Z,,0,,,NaN,,,,,,false,,,,173347.40000000596,173347.20000000298,,173346.70000000298,,173348.73,8,400,,,
break_continue,html.Screen,4_15_2,2023-09-11T21:07:43.398Z,,0,,,NaN,,,,,,false,,,,173347.70000000298,173347.59999999404,,173347.40000000596,,173348.73,8,400,,,
sequence,flow.Sequence,4_15,2023-09-11T21:07:43.398Z,,0,,,7749.129999994038,completion,,,,,false,,,,173347.70000000298,173347.59999999404,165581.804,165597.40000000596,165598.47,173348.73,8,400,,,
trial,html.Screen,4_16_0,2023-09-11T21:07:47.403Z,,0,1,,4003.4700000029698,response,ISIC_8790198.JPG,6,ISIC_0156642.JPG,ISIC_8790198.JPG,false,1,keypress(m),500,177352.59999999404,177352.20000000298,173332.064,173347.90000000596,173348.73,177365.236,8,400,17,,ISIC_0156642.JPG
break,html.Screen,4_16_1,2023-09-11T21:07:47.404Z,,0,,,NaN,,,,,,false,,,,177353.40000000596,177353.20000000298,,177352.79999999702,,177365.236,8,400,,,
break_continue,html.Screen,4_16_2,2023-09-11T21:07:47.404Z,,0,,,NaN,,,,,,false,,,,177353.70000000298,177353.59999999404,,177353.5,,177365.236,8,400,,,
sequence,flow.Sequence,4_16,2023-09-11T21:07:47.404Z,,0,,,4004.869999994029,completion,,,,,false,,,,177353.90000000596,177353.59999999404,173332.064,173347.79999999702,173348.73,177365.236,8,400,,,
trial,html.Screen,4_17_0,2023-09-11T21:07:51.569Z,,0,1,,4152.863999994035,response,ISIC_7623407.JPG,8,ISIC_4024062.JPG,ISIC_7623407.JPG,false,1,keypress(m),500,181518.59999999404,181518.09999999404,177348.57,177354.09999999404,177365.236,181532.578,8,400,18,,ISIC_4024062.JPG
break,html.Screen,4_17_1,2023-09-11T21:07:51.570Z,,0,,,NaN,,,,,,false,,,,181519.79999999702,181519.59999999404,,181518.90000000596,,181532.578,8,400,,,
break_continue,html.Screen,4_17_2,2023-09-11T21:07:51.571Z,,0,,,NaN,,,,,,false,,,,181520.20000000298,181520,,181519.90000000596,,181532.578,8,400,,,
sequence,flow.Sequence,4_17,2023-09-11T21:07:51.571Z,,0,,,4154.763999999996,completion,,,,,false,,,,181520.29999999702,181520,177348.57,177354,177365.236,181532.578,8,400,,,
trial,html.Screen,4_18_0,2023-09-11T21:07:58.807Z,,0,1,,7223.622000002972,response,ISIC_0031463.JPG,7,ISIC_3552245.JPG,ISIC_0031463.JPG,false,1,keypress(m),500,188756.5,188756.20000000298,181515.912,181520.5,181532.578,188765.622,8,400,19,,ISIC_3552245.JPG
break,html.Screen,4_18_1,2023-09-11T21:07:58.808Z,,0,,,NaN,,,,,,false,,,,188757.40000000596,188757.20000000298,,188756.79999999702,,188765.622,8,400,,,
break_continue,html.Screen,4_18_2,2023-09-11T21:07:58.808Z,,0,,,NaN,,,,,,false,,,,188757.59999999404,188757.5,,188757.5,,188765.622,8,400,,,
sequence,flow.Sequence,4_18,2023-09-11T21:07:58.808Z,,0,,,7224.921999999991,completion,,,,,false,,,,188757.59999999404,188757.5,181515.912,181520.5,181532.578,188765.622,8,400,,,
trial,html.Screen,4_19_0,2023-09-11T21:08:03.996Z,,0,1,,5179.778000005957,response,ISIC_0011949.JPG,8,ISIC_5312584.JPG,ISIC_5312584.JPG,false,0,keypress(z),500,193945.79999999702,193945.40000000596,188748.956,188757.70000000298,188765.622,193949.503,8,400,20,,ISIC_0011949.JPG
break,html.Screen,4_19_1,2023-09-11T21:08:03.997Z,,0,,,NaN,,,,,,false,,,,193947.09999999404,193946.90000000596,,193946.09999999404,,193949.503,8,400,,,
break_continue,html.Screen,4_19_2,2023-09-11T21:08:03.998Z,,0,,,NaN,,,,,,false,,,,193947.5,193947.40000000596,,193947.29999999702,,193949.503,8,400,,,
sequence,flow.Sequence,4_19,2023-09-11T21:08:03.998Z,,0,,,5181.778000005957,completion,,,,,false,,,,193947.70000000298,193947.40000000596,188748.956,188757.70000000298,188765.622,193949.503,8,400,,,
trial,html.Screen,4_20_0,2023-09-11T21:08:09.315Z,,0,1,,5315.497000000003,response,ISIC_0011534.JPG,6,ISIC_0021901.JPG,ISIC_0021901.JPG,false,0,keypress(z),500,199265.40000000596,199265,193932.837,193947.90000000596,193949.503,199282.623,8,400,21,,ISIC_0011534.JPG
break,html.Screen,4_20_1,2023-09-11T21:08:09.317Z,,0,,,NaN,,,,,,false,,,,199266.5,199266.29999999702,,199265.70000000298,,199282.623,8,400,,,
break_continue,html.Screen,4_20_2,2023-09-11T21:08:09.317Z,,0,,,NaN,,,,,,false,,,,199266.90000000596,199266.79999999702,,199266.70000000298,,199282.623,8,400,,,
sequence,flow.Sequence,4_20,2023-09-11T21:08:09.317Z,,0,,,5317.296999997023,completion,,,,,false,,,,199267.09999999404,199266.79999999702,193932.837,193947.79999999702,193949.503,199282.623,8,400,,,
trial,html.Screen,4_21_0,2023-09-11T21:08:13.801Z,,0,1,,4468.176999997027,response,ISIC_0024513.JPG,5,ISIC_2377039.JPG,ISIC_0024513.JPG,false,1,keypress(m),500,203751.29999999702,203750.79999999702,199265.957,199267.29999999702,199282.623,203766.767,8,400,22,,ISIC_2377039.JPG
break,html.Screen,4_21_1,2023-09-11T21:08:13.802Z,,0,,,NaN,,,,,,false,,,,203752.09999999404,203751.90000000596,,203751.59999999404,,203766.767,8,400,,,
break_continue,html.Screen,4_21_2,2023-09-11T21:08:13.802Z,,0,,,NaN,,,,,,false,,,,203752.29999999702,203752.29999999702,,203752.09999999404,,203766.767,8,400,,,
sequence,flow.Sequence,4_21,2023-09-11T21:08:13.802Z,,0,,,4469.676999997027,completion,,,,,false,,,,203752.40000000596,203752.29999999702,199265.957,199267.20000000298,199282.623,203766.767,8,400,,,
trial,html.Screen,4_22_0,2023-09-11T21:08:20.294Z,,0,1,,6476.433000002988,response,ISIC_0026166.JPG,7,ISIC_0025500.JPG,ISIC_0026166.JPG,false,1,keypress(m),500,210243.79999999702,210243.20000000298,203750.101,203752.5,203766.767,210249.841,8,400,23,,ISIC_0025500.JPG
break,html.Screen,4_22_1,2023-09-11T21:08:20.295Z,,0,,,NaN,,,,,,false,,,,210245.09999999404,210244.79999999702,,210244.09999999404,,210249.841,8,400,,,
break_continue,html.Screen,4_22_2,2023-09-11T21:08:20.295Z,,0,,,NaN,,,,,,false,,,,210245.40000000596,210245.29999999702,,210245.20000000298,,210249.841,8,400,,,
sequence,flow.Sequence,4_22,2023-09-11T21:08:20.295Z,,0,,,6478.532999997027,completion,,,,,false,,,,210245.59999999404,210245.29999999702,203750.101,203752.5,203766.767,210249.841,8,400,,,
trial,html.Screen,4_23_0,2023-09-11T21:08:24.507Z,,0,1,,4206.659000000014,response,ISIC_5768032.JPG,8,ISIC_3826001.JPG,ISIC_3826001.JPG,false,0,keypress(z),500,214457,214456.5,210233.175,210245.79999999702,210249.841,214466.948,8,400,24,,ISIC_5768032.JPG
break,html.Screen,4_23_1,2023-09-11T21:08:24.508Z,,0,,,NaN,,,,,,false,,,,214458.29999999702,214458.09999999404,,214457.29999999702,,214466.948,8,400,,,
break_continue,html.Screen,4_23_2,2023-09-11T21:08:24.508Z,,0,,,NaN,,,,,,false,,,,214458.59999999404,214458.5,,214458.40000000596,,214466.948,8,400,,,
sequence,flow.Sequence,4_23,2023-09-11T21:08:24.509Z,,0,,,4208.659000000014,completion,,,,,false,,,,214458.79999999702,214458.5,210233.175,210245.70000000298,210249.841,214466.948,8,400,,,
trial,html.Screen,4_24_0,2023-09-11T21:08:29.520Z,,0,1,,5003.351999997016,response,ISIC_0015436.JPG,5,ISIC_0162967.JPG,ISIC_0015436.JPG,false,1,keypress(m),500,219470.70000000298,219470.29999999702,214450.282,214458.90000000596,214466.948,219483.414,8,400,25,,ISIC_0162967.JPG
break,html.Screen,4_24_1,2023-09-11T21:08:29.522Z,,0,,,NaN,,,,,,false,,,,219472.20000000298,219472,,219470.90000000596,,219483.414,8,400,,,
break_continue,html.Screen,4_24_2,2023-09-11T21:08:29.522Z,,0,,,NaN,,,,,,false,,,,219472.70000000298,219472.5,,219472.40000000596,,219483.414,8,400,,,
sequence,flow.Sequence,4_24,2023-09-11T21:08:29.522Z,,0,,,5005.551999999996,completion,,,,,false,,,,219472.79999999702,219472.5,214450.282,214458.79999999702,214466.948,219483.414,8,400,,,
trial,html.Screen,4_25_0,2023-09-11T21:08:35.175Z,,0,1,,5641.68599999405,response,ISIC_0026344.JPG,6,ISIC_1957685.JPG,ISIC_0026344.JPG,false,1,keypress(m),500,225125.59999999404,225125.09999999404,219466.748,219472.90000000596,219483.414,225133.849,8,400,26,,ISIC_1957685.JPG
break,html.Screen,4_25_1,2023-09-11T21:08:35.176Z,,0,,,NaN,,,,,,false,,,,225126.79999999702,225126.70000000298,,225125.90000000596,,225133.849,8,400,,,
break_continue,html.Screen,4_25_2,2023-09-11T21:08:35.177Z,,0,,,NaN,,,,,,false,,,,225127.20000000298,225127.09999999404,,225126.90000000596,,225133.849,8,400,,,
sequence,flow.Sequence,4_25,2023-09-11T21:08:35.177Z,,0,,,5643.68599999405,completion,,,,,false,,,,225127.40000000596,225127.09999999404,219466.748,219472.90000000596,219483.414,225133.849,8,400,,,
trial,html.Screen,4_26_0,2023-09-11T21:08:38.589Z,,0,1,,3405.051000005973,response,ISIC_0031224.JPG,7,ISIC_0016082.JPG,ISIC_0031224.JPG,false,1,keypress(m),500,228539.40000000596,228538.90000000596,225117.183,225127.70000000298,225133.849,228550.379,8,400,27,,ISIC_0016082.JPG
break,html.Screen,4_26_1,2023-09-11T21:08:38.590Z,,0,,,NaN,,,,,,false,,,,228540.5,228540.29999999702,,228539.70000000298,,228550.379,8,400,,,
break_continue,html.Screen,4_26_2,2023-09-11T21:08:38.590Z,,0,,,NaN,,,,,,false,,,,228541,228540.90000000596,,228540.70000000298,,228550.379,8,400,,,
sequence,flow.Sequence,4_26,2023-09-11T21:08:38.591Z,,0,,,3407.051000005973,completion,,,,,false,,,,228541.09999999404,228540.90000000596,225117.183,225127.70000000298,225133.849,228550.379,8,400,,,
trial,html.Screen,4_27_0,2023-09-11T21:08:44.738Z,,0,1,,6137.4209999970335,response,ISIC_0580054.JPG,10,ISIC_0032441.JPG,ISIC_0032441.JPG,false,0,keypress(z),500,234688.40000000596,234687.79999999702,228533.713,228541.29999999702,228550.379,234700.133,8,400,28,,ISIC_0580054.JPG
break,html.Screen,4_27_1,2023-09-11T21:08:44.739Z,,0,,,NaN,,,,,,false,,,,234689.59999999404,234689.40000000596,,234688.70000000298,,234700.133,8,400,,,
break_continue,html.Screen,4_27_2,2023-09-11T21:08:44.739Z,,0,,,NaN,,,,,,false,,,,234690,234689.79999999702,,234689.70000000298,,234700.133,8,400,,,
sequence,flow.Sequence,4_27,2023-09-11T21:08:44.740Z,,0,,,6139.4209999970335,completion,,,,,false,,,,234690.09999999404,234689.79999999702,228533.713,228541.20000000298,228550.379,234700.133,8,400,,,
trial,html.Screen,4_28_0,2023-09-11T21:08:47.897Z,,0,1,,3146.767000005959,response,ISIC_5005961.JPG,8,ISIC_0024552.JPG,ISIC_5005961.JPG,false,1,keypress(m),500,237847.40000000596,237846.90000000596,234683.467,234690.40000000596,234700.133,237850.949,8,400,29,,ISIC_0024552.JPG
break,html.Screen,4_28_1,2023-09-11T21:08:47.898Z,,0,,,NaN,,,,,,false,,,,237848.5,237848.29999999702,,237847.70000000298,,237850.949,8,400,,,
break_continue,html.Screen,4_28_2,2023-09-11T21:08:47.898Z,,0,,,NaN,,,,,,false,,,,237849,237848.79999999702,,237848.70000000298,,237850.949,8,400,,,
sequence,flow.Sequence,4_28,2023-09-11T21:08:47.898Z,,0,,,3148.666999997018,completion,,,,,false,,,,237849.20000000298,237848.79999999702,234683.467,234690.29999999702,234700.133,237850.949,8,400,,,
trial,html.Screen,4_29_0,2023-09-11T21:08:52.895Z,,0,1,,4994.751000002987,response,ISIC_7833008.JPG,8,ISIC_3899323.JPG,ISIC_3899323.JPG,false,0,keypress(z),500,242845.90000000596,242845.70000000298,237834.283,237849.29999999702,237850.949,242850.749,8,400,30,,ISIC_7833008.JPG
break,html.Screen,4_29_1,2023-09-11T21:08:52.896Z,,0,,,NaN,,,,,,false,,,,242846.79999999702,242846.70000000298,,242846.20000000298,,242850.749,8,400,,,
break_continue,html.Screen,4_29_2,2023-09-11T21:08:52.896Z,,0,,,NaN,,,,,,false,,,,242847.20000000298,242847,,242847,,242850.749,8,400,,,
sequence,flow.Sequence,4_29,2023-09-11T21:08:52.896Z,,0,,,4996.051000000007,completion,,,,,false,,,,242847.29999999702,242847,237834.283,237849.20000000298,237850.949,242850.749,8,400,,,
trial,html.Screen,4_30_0,2023-09-11T21:08:57.477Z,,0,1,,4576.550999997009,response,ISIC_0032504.JPG,8,ISIC_8139762.JPG,ISIC_8139762.JPG,false,0,keypress(z),500,247427.70000000298,247427.29999999702,242834.083,242847.59999999404,242850.749,247434.809,8,400,31,,ISIC_0032504.JPG
break,html.Screen,4_30_1,2023-09-11T21:08:57.478Z,,0,,,NaN,,,,,,false,,,,247428.59999999404,247428.40000000596,,247427.79999999702,,247434.809,8,400,,,
break_continue,html.Screen,4_30_2,2023-09-11T21:08:57.478Z,,0,,,NaN,,,,,,false,,,,247428.90000000596,247428.79999999702,,247428.70000000298,,247434.809,8,400,,,
sequence,flow.Sequence,4_30,2023-09-11T21:08:57.478Z,,0,,,4578.050999997009,completion,,,,,false,,,,247429,247428.79999999702,242834.083,242847.5,242850.749,247434.809,8,400,,,
trial,html.Screen,4_31_0,2023-09-11T21:09:02.747Z,,0,1,,5262.391000002972,response,ISIC_0027069.JPG,7,ISIC_7939816.JPG,ISIC_7939816.JPG,false,0,keypress(z),500,252697.70000000298,252697.20000000298,247418.143,247429.20000000298,247434.809,252717.931,8,400,32,,ISIC_0027069.JPG
break,html.Screen,4_31_1,2023-09-11T21:09:02.748Z,,0,,,NaN,,,,,,false,,,,252698.79999999702,252698.59999999404,,252697.90000000596,,252717.931,8,400,,,
break_continue,html.Screen,4_31_2,2023-09-11T21:09:02.748Z,,0,,,NaN,,,,,,false,,,,252699.20000000298,252699.09999999404,,252698.90000000596,,252717.931,8,400,,,
sequence,flow.Sequence,4_31,2023-09-11T21:09:02.748Z,,0,,,5264.290999994031,completion,,,,,false,,,,252699.40000000596,252699.09999999404,247418.143,247429.09999999404,247434.809,252717.931,8,400,,,
trial,html.Screen,4_32_0,2023-09-11T21:09:06.303Z,,0,1,,3535.769000002969,response,ISIC_0296109.JPG,9,ISIC_7181296.JPG,ISIC_0296109.JPG,false,1,keypress(m),500,256254.20000000298,256253.70000000298,252701.265,252699.59999999404,252717.931,256267.789,8,400,33,,ISIC_7181296.JPG
break,html.Screen,4_32_1,2023-09-11T21:09:06.304Z,,0,,,NaN,,,,,,false,,,,256255.40000000596,256255.29999999702,,256254.5,,256267.789,8,400,,,
break_continue,html.Screen,4_32_2,2023-09-11T21:09:06.305Z,,0,,,NaN,,,,,,false,,,,256255.79999999702,256255.59999999404,,256255.59999999404,,256267.789,8,400,,,
sequence,flow.Sequence,4_32,2023-09-11T21:09:06.305Z,,0,,,3537.668999994028,completion,,,,,false,,,,256256,256255.59999999404,252701.265,252699.5,252717.931,256267.789,8,400,,,
trial,html.Screen,4_33_0,2023-09-11T21:09:10.219Z,,0,1,,3902.31099999405,response,ISIC_7702483.JPG,8,ISIC_6844752.JPG,ISIC_6844752.JPG,false,0,keypress(z),500,260170.59999999404,260170.09999999404,256251.123,256256.20000000298,256267.789,260184.97,8,400,34,,ISIC_7702483.JPG
break,html.Screen,4_33_1,2023-09-11T21:09:10.221Z,,0,,,NaN,,,,,,false,,,,260171.70000000298,260171.59999999404,,260171,,260184.97,8,400,,,
break_continue,html.Screen,4_33_2,2023-09-11T21:09:10.221Z,,0,,,NaN,,,,,,false,,,,260172,260171.90000000596,,260171.79999999702,,260184.97,8,400,,,
sequence,flow.Sequence,4_33,2023-09-11T21:09:10.221Z,,0,,,3904.1110000059707,completion,,,,,false,,,,260172.20000000298,260171.90000000596,256251.123,256256.09999999404,256267.789,260184.97,8,400,,,
trial,html.Screen,4_34_0,2023-09-11T21:09:16.639Z,,0,1,,6404.730000002979,response,ISIC_2545299.JPG,5,ISIC_0029078.JPG,ISIC_2545299.JPG,false,1,keypress(m),500,266590.299999997,266589.700000003,260168.304,260172.29999999702,260184.97,266601.38,8,400,35,,ISIC_0029078.JPG
break,html.Screen,4_34_1,2023-09-11T21:09:16.640Z,,0,,,NaN,,,,,,false,,,,266591.5,266591.299999997,,266590.59999999404,,266601.38,8,400,,,
break_continue,html.Screen,4_34_2,2023-09-11T21:09:16.641Z,,0,,,NaN,,,,,,false,,,,266591.90000000596,266591.799999997,,266591.59999999404,,266601.38,8,400,,,
sequence,flow.Sequence,4_34,2023-09-11T21:09:16.641Z,,0,,,6406.829999997019,completion,,,,,false,,,,266592,266591.799999997,260168.304,260172.29999999702,260184.97,266601.38,8,400,,,
trial,html.Screen,4_35_0,2023-09-11T21:09:20.342Z,,0,1,,3691.520000005956,response,ISIC_4034644.JPG,8,ISIC_6258744.JPG,ISIC_6258744.JPG,false,0,keypress(z),500,270293.299999997,270292.90000000596,266584.714,266592.200000003,266601.38,270302.044,8,400,36,,ISIC_4034644.JPG
break,html.Screen,4_35_1,2023-09-11T21:09:20.343Z,,0,,,NaN,,,,,,false,,,,270294.59999999404,270294.40000000596,,270293.700000003,,270302.044,8,400,,,
break_continue,html.Screen,4_35_2,2023-09-11T21:09:20.344Z,,0,,,NaN,,,,,,false,,,,270295,270294.90000000596,,270294.799999997,,270302.044,8,400,,,
sequence,flow.Sequence,4_35,2023-09-11T21:09:20.344Z,,0,,,3693.520000005956,completion,,,,,false,,,,270295.09999999404,270294.90000000596,266584.714,266592.09999999404,266601.38,270302.044,8,400,,,
trial,html.Screen,4_36_0,2023-09-11T21:09:25.451Z,,0,1,,5099.656000002986,response,ISIC_0014221.JPG,6,ISIC_6536232.JPG,ISIC_6536232.JPG,false,0,keypress(z),500,275402.200000003,275401.700000003,270285.378,270295.299999997,270302.044,275418.506,8,400,37,,ISIC_0014221.JPG
break,html.Screen,4_36_1,2023-09-11T21:09:25.452Z,,0,,,NaN,,,,,,false,,,,275403.59999999404,275403.299999997,,275402.59999999404,,275418.506,8,400,,,
break_continue,html.Screen,4_36_2,2023-09-11T21:09:25.452Z,,0,,,NaN,,,,,,false,,,,275404,275403.90000000596,,275403.700000003,,275418.506,8,400,,,
sequence,flow.Sequence,4_36,2023-09-11T21:09:25.453Z,,0,,,5101.856000005966,completion,,,,,false,,,,275404.09999999404,275403.90000000596,270285.378,270295.200000003,270302.044,275418.506,8,400,,,
trial,html.Screen,4_37_0,2023-09-11T21:09:30.368Z,,0,1,,4900.593999994046,response,ISIC_4590810.JPG,7,ISIC_5732487.JPG,ISIC_5732487.JPG,false,0,keypress(z),500,280319.5,280319.09999999404,275401.84,275404.299999997,275418.506,280319.184,8,400,38,,ISIC_4590810.JPG
break,html.Screen,4_37_1,2023-09-11T21:09:30.369Z,,0,,,NaN,,,,,,false,,,,280320.59999999404,280320.5,,280319.799999997,,280319.184,8,400,,,
break_continue,html.Screen,4_37_2,2023-09-11T21:09:30.369Z,,0,,,NaN,,,,,,false,,,,280321,280320.90000000596,,280320.799999997,,280319.184,8,400,,,
sequence,flow.Sequence,4_37,2023-09-11T21:09:30.370Z,,0,,,4902.3940000059665,completion,,,,,false,,,,280321.09999999404,280320.90000000596,275401.84,275404.299999997,275418.506,280319.184,8,400,,,
trial,html.Screen,4_38_0,2023-09-11T21:09:33.654Z,,0,1,,3286.415999994031,response,ISIC_0029078.JPG,8,ISIC_1078854.JPG,ISIC_1078854.JPG,false,0,keypress(z),500,283606.200000003,283605.59999999404,280302.518,280321.299999997,280319.184,283619.052,8,400,39,,ISIC_0029078.JPG
break,html.Screen,4_38_1,2023-09-11T21:09:33.656Z,,0,,,NaN,,,,,,false,,,,283607.40000000596,283607.200000003,,283606.5,,283619.052,8,400,,,
break_continue,html.Screen,4_38_2,2023-09-11T21:09:33.656Z,,0,,,NaN,,,,,,false,,,,283607.799999997,283607.59999999404,,283607.5,,283619.052,8,400,,,
sequence,flow.Sequence,4_38,2023-09-11T21:09:33.656Z,,0,,,3288.415999994031,completion,,,,,false,,,,283607.90000000596,283607.59999999404,280302.518,280321.299999997,280319.184,283619.052,8,400,,,
trial,html.Screen,4_39_0,2023-09-11T21:09:39.443Z,,0,1,,5775.148000002955,response,ISIC_0029283.JPG,5,ISIC_0063295.JPG,ISIC_0029283.JPG,false,1,keypress(m),500,289394.700000003,289394.200000003,283602.386,283608,283619.052,289402.154,8,400,40,,ISIC_0063295.JPG
break,html.Screen,4_39_1,2023-09-11T21:09:39.444Z,,0,,,NaN,,,,,,false,,,,289395.799999997,289395.59999999404,,289395,,289402.154,8,400,,,
break_continue,html.Screen,4_39_2,2023-09-11T21:09:39.444Z,,0,,,NaN,,,,,,false,,,,289396.299999997,289396.09999999404,,289396,,289402.154,8,400,,,
sequence,flow.Sequence,4_39,2023-09-11T21:09:39.445Z,,0,,,5777.047999994014,completion,,,,,false,,,,289396.40000000596,289396.09999999404,283602.386,283608,283619.052,289402.154,8,400,,,
trial,html.Screen,4_40_0,2023-09-11T21:09:42.778Z,,0,1,,3327.8460000000196,response,ISIC_0029809.JPG,7,ISIC_0032922.JPG,ISIC_0032922.JPG,false,0,keypress(z),500,292730.299999997,292730,289385.488,289396.59999999404,289402.154,292736.041,8,400,41,,ISIC_0029809.JPG
break,html.Screen,4_40_1,2023-09-11T21:09:42.779Z,,0,,,NaN,,,,,,false,,,,292731.200000003,292731,,292730.59999999404,,292736.041,8,400,,,
break_continue,html.Screen,4_40_2,2023-09-11T21:09:42.780Z,,0,,,NaN,,,,,,false,,,,292731.5,292731.40000000596,,292731.299999997,,292736.041,8,400,,,
sequence,flow.Sequence,4_40,2023-09-11T21:09:42.780Z,,0,,,3329.24600000598,completion,,,,,false,,,,292731.700000003,292731.40000000596,289385.488,289396.5,289402.154,292736.041,8,400,,,
trial,html.Screen,4_41_0,2023-09-11T21:09:48.718Z,,0,1,,5933.058999994013,response,ISIC_0002675.JPG,5,ISIC_6552552.JPG,ISIC_6552552.JPG,false,0,keypress(z),500,298669.59999999404,298669.09999999404,292719.375,292731.90000000596,292736.041,298685.803,8,400,42,,ISIC_0002675.JPG
break,html.Screen,4_41_1,2023-09-11T21:09:48.719Z,,0,,,NaN,,,,,,false,,,,298670.799999997,298670.59999999404,,298669.799999997,,298685.803,8,400,,,
break_continue,html.Screen,4_41_2,2023-09-11T21:09:48.719Z,,0,,,NaN,,,,,,false,,,,298671.200000003,298671,,298670.90000000596,,298685.803,8,400,,,
sequence,flow.Sequence,4_41,2023-09-11T21:09:48.719Z,,0,,,5934.9589999999735,completion,,,,,false,,,,298671.299999997,298671,292719.375,292731.799999997,292736.041,298685.803,8,400,,,
trial,html.Screen,4_42_0,2023-09-11T21:09:56.485Z,,0,1,,7750.496999997005,response,ISIC_5247560.JPG,8,ISIC_1159891.JPG,ISIC_5247560.JPG,false,1,keypress(m),500,306436.799999997,306436.299999997,298669.137,298671.59999999404,298685.803,306452.93,8,400,43,,ISIC_1159891.JPG
break,html.Screen,4_42_1,2023-09-11T21:09:56.486Z,,0,,,NaN,,,,,,false,,,,306438,306437.799999997,,306437.200000003,,306452.93,8,400,,,
break_continue,html.Screen,4_42_2,2023-09-11T21:09:56.486Z,,0,,,NaN,,,,,,false,,,,306438.40000000596,306438.299999997,,306438.09999999404,,306452.93,8,400,,,
sequence,flow.Sequence,4_42,2023-09-11T21:09:56.486Z,,0,,,7752.496999997005,completion,,,,,false,,,,306438.59999999404,306438.299999997,298669.137,298671.5,298685.803,306452.93,8,400,,,
trial,html.Screen,4_43_0,2023-09-11T21:09:59.452Z,,0,1,,2950.270000002987,response,ISIC_0053734.JPG,8,ISIC_0624498.JPG,ISIC_0624498.JPG,false,0,keypress(z),500,309403.700000003,309403.200000003,306436.264,306438.700000003,306452.93,309419.478,8,400,44,,ISIC_0053734.JPG
break,html.Screen,4_43_1,2023-09-11T21:09:59.453Z,,0,,,NaN,,,,,,false,,,,309404.90000000596,309404.700000003,,309404,,309419.478,8,400,,,
break_continue,html.Screen,4_43_2,2023-09-11T21:09:59.453Z,,0,,,NaN,,,,,,false,,,,309405.200000003,309405.09999999404,,309405,,309419.478,8,400,,,
sequence,flow.Sequence,4_43,2023-09-11T21:09:59.453Z,,0,,,2952.1699999940465,completion,,,,,false,,,,309405.299999997,309405.09999999404,306436.264,306438.700000003,306452.93,309419.478,8,400,,,
trial,html.Screen,4_44_0,2023-09-11T21:10:03.792Z,,0,1,,4324.521999999997,response,ISIC_6529819.JPG,7,ISIC_2532544.JPG,ISIC_2532544.JPG,false,0,keypress(z),500,313744.5,313744,309402.812,309405.5,309419.478,313753.369,8,400,45,,ISIC_6529819.JPG
break,html.Screen,4_44_1,2023-09-11T21:10:03.794Z,,0,,,NaN,,,,,,false,,,,313745.700000003,313745.59999999404,,313744.799999997,,313753.369,8,400,,,
break_continue,html.Screen,4_44_2,2023-09-11T21:10:03.794Z,,0,,,NaN,,,,,,false,,,,313746.09999999404,313746,,313746,,313753.369,8,400,,,
sequence,flow.Sequence,4_44,2023-09-11T21:10:03.794Z,,0,,,4326.521999999997,completion,,,,,false,,,,313746.200000003,313746,309402.812,309405.5,309419.478,313753.369,8,400,,,
trial,html.Screen,4_45_0,2023-09-11T21:10:08.840Z,,0,1,,5038.031000005954,response,ISIC_0011040.JPG,6,ISIC_2029418.JPG,ISIC_2029418.JPG,false,0,keypress(z),500,318791.90000000596,318791.40000000596,313736.703,313746.40000000596,313753.369,318803.167,8,400,46,,ISIC_0011040.JPG
break,html.Screen,4_45_1,2023-09-11T21:10:08.841Z,,0,,,NaN,,,,,,false,,,,318793.200000003,318792.90000000596,,318792.299999997,,318803.167,8,400,,,
break_continue,html.Screen,4_45_2,2023-09-11T21:10:08.841Z,,0,,,NaN,,,,,,false,,,,318793.59999999404,318793.40000000596,,318793.299999997,,318803.167,8,400,,,
sequence,flow.Sequence,4_45,2023-09-11T21:10:08.841Z,,0,,,5040.031000005954,completion,,,,,false,,,,318793.799999997,318793.40000000596,313736.703,313746.299999997,313753.369,318803.167,8,400,,,
trial,html.Screen,4_46_0,2023-09-11T21:10:12.396Z,,0,1,,3544.632999997004,response,ISIC_0030695.JPG,8,ISIC_9167290.JPG,ISIC_9167290.JPG,false,0,keypress(z),500,322348.200000003,322347.799999997,318786.501,318793.90000000596,318803.167,322353.734,8,400,47,,ISIC_0030695.JPG
break,html.Screen,4_46_1,2023-09-11T21:10:12.397Z,,0,,,NaN,,,,,,false,,,,322349.299999997,322349.200000003,,322348.59999999404,,322353.734,8,400,,,
break_continue,html.Screen,4_46_2,2023-09-11T21:10:12.397Z,,0,,,NaN,,,,,,false,,,,322349.59999999404,322349.5,,322349.40000000596,,322353.734,8,400,,,
sequence,flow.Sequence,4_46,2023-09-11T21:10:12.397Z,,0,,,3546.332999999984,completion,,,,,false,,,,322349.799999997,322349.5,318786.501,318793.90000000596,318803.167,322353.734,8,400,,,
trial,html.Screen,4_47_0,2023-09-11T21:10:17.923Z,,0,1,,5520.9660000029835,response,ISIC_6875745.JPG,9,ISIC_0029021.JPG,ISIC_0029021.JPG,false,0,keypress(z),500,327875.200000003,327874.700000003,322337.068,322349.90000000596,322353.734,327886.846,8,400,48,,ISIC_6875745.JPG
break,html.Screen,4_47_1,2023-09-11T21:10:17.924Z,,0,,,NaN,,,,,,false,,,,327876.40000000596,327876.09999999404,,327875.40000000596,,327886.846,8,400,,,
break_continue,html.Screen,4_47_2,2023-09-11T21:10:17.924Z,,0,,,NaN,,,,,,false,,,,327876.799999997,327876.700000003,,327876.40000000596,,327886.846,8,400,,,
sequence,flow.Sequence,4_47,2023-09-11T21:10:17.924Z,,0,,,5522.9660000029835,completion,,,,,false,,,,327877,327876.700000003,322337.068,322349.90000000596,322353.734,327886.846,8,400,,,
trial,html.Screen,4_48_0,2023-09-11T21:10:25.129Z,,0,1,,7194.75399999402,response,ISIC_0003201.JPG,8,ISIC_0008423.JPG,ISIC_0008423.JPG,false,0,keypress(z),500,335082.09999999404,335081.59999999404,327870.18,327877.09999999404,327886.846,335087.208,8,400,49,,ISIC_0003201.JPG
break,html.Screen,4_48_1,2023-09-11T21:10:25.131Z,,0,,,NaN,,,,,,false,,,,335083.200000003,335083.09999999404,,335082.40000000596,,335087.208,8,400,,,
break_continue,html.Screen,4_48_2,2023-09-11T21:10:25.131Z,,0,,,NaN,,,,,,false,,,,335083.700000003,335083.5,,335083.40000000596,,335087.208,8,400,,,
sequence,flow.Sequence,4_48,2023-09-11T21:10:25.131Z,,0,,,7196.65399999998,completion,,,,,false,,,,335083.799999997,335083.5,327870.18,327877,327886.846,335087.208,8,400,,,
trial,html.Screen,4_49_0,2023-09-11T21:10:30.850Z,,0,1,,5715.292000000016,response,ISIC_0033584.JPG,7,ISIC_1264725.JPG,ISIC_1264725.JPG,false,0,keypress(z),500,340803,340802.5,335070.542,335084,335087.208,340820.312,8,400,50,,ISIC_0033584.JPG
break,html.Screen,4_49_1,2023-09-11T21:10:40.856Z,,0,,,10000.466000000015,timeout,,,,,false,,,,350809.5,350804.112,340803.646,340803.299999997,340820.312,350820.778,8,400,,,
break_continue,html.Screen,4_49_2,2023-09-11T21:11:15.893Z,,0,,,35011.32199999405,response,,,,,false,continue,keypress(Space),,385846.700000003,385832.09999999404,350804.112,350809.700000003,350820.778,385852.71,8,400,,,
sequence,flow.Sequence,4_49,2023-09-11T21:11:15.893Z,,0,,,50744.891999994055,completion,,,,,false,,,,385846.799999997,385832.09999999404,335070.542,335083.90000000596,335087.208,385852.71,8,400,,,
trial,html.Screen,4_50_0,2023-09-11T21:11:24.730Z,,0,2,,8830.889999994019,response,ISIC_0012059.JPG,8,ISIC_4451735.JPG,ISIC_4451735.JPG,false,0,keypress(z),500,394684.200000003,394683.59999999404,385836.044,385847,385852.71,394688.853,8,400,1,,ISIC_0012059.JPG
break,html.Screen,4_50_1,2023-09-11T21:11:24.732Z,,0,,,NaN,,,,,,false,,,,394685.5,394685.200000003,,394684.5,,394688.853,8,400,,,
break_continue,html.Screen,4_50_2,2023-09-11T21:11:24.732Z,,0,,,NaN,,,,,,false,,,,394685.799999997,394685.700000003,,394685.59999999404,,394688.853,8,400,,,
sequence,flow.Sequence,4_50,2023-09-11T21:11:24.732Z,,0,,,8832.99000000296,completion,,,,,false,,,,394686,394685.700000003,385836.044,385846.90000000596,385852.71,394688.853,8,400,,,
trial,html.Screen,4_51_0,2023-09-11T21:11:27.886Z,,0,2,,3150.8470000029774,response,ISIC_6220953.JPG,5,ISIC_8169564.JPG,ISIC_8169564.JPG,false,0,keypress(z),500,397840,397839.700000003,394672.187,394686.200000003,394688.853,397856.143,8,400,2,,ISIC_6220953.JPG
break,html.Screen,4_51_1,2023-09-11T21:11:27.887Z,,0,,,NaN,,,,,,false,,,,397840.90000000596,397840.700000003,,397840.200000003,,397856.143,8,400,,,
break_continue,html.Screen,4_51_2,2023-09-11T21:11:27.887Z,,0,,,NaN,,,,,,false,,,,397841.200000003,397841,,397841,,397856.143,8,400,,,
sequence,flow.Sequence,4_51,2023-09-11T21:11:27.887Z,,0,,,3152.146999999997,completion,,,,,false,,,,397841.299999997,397841,394672.187,394686.09999999404,394688.853,397856.143,8,400,,,
trial,html.Screen,4_52_0,2023-09-11T21:11:31.107Z,,0,2,,3204.857000000018,response,ISIC_0060486.JPG,8,ISIC_4288845.JPG,ISIC_4288845.JPG,false,0,keypress(z),500,401061.40000000596,401061,397839.477,397841.40000000596,397856.143,401072.681,8,400,3,,ISIC_0060486.JPG
break,html.Screen,4_52_1,2023-09-11T21:11:31.108Z,,0,,,NaN,,,,,,false,,,,401062.09999999404,401062,,401061.59999999404,,401072.681,8,400,,,
break_continue,html.Screen,4_52_2,2023-09-11T21:11:31.108Z,,0,,,NaN,,,,,,false,,,,401062.299999997,401062.299999997,,401062.200000003,,401072.681,8,400,,,
sequence,flow.Sequence,4_52,2023-09-11T21:11:31.108Z,,0,,,3206.156999997038,completion,,,,,false,,,,401062.5,401062.299999997,397839.477,397841.40000000596,397856.143,401072.681,8,400,,,
trial,html.Screen,4_53_0,2023-09-11T21:11:34.664Z,,0,2,,3544.8190000000177,response,ISIC_9348399.JPG,8,ISIC_4264600.JPG,ISIC_4264600.JPG,false,0,keypress(z),500,404618,404617.5,401056.015,401062.5,401072.681,404639.205,8,400,4,,ISIC_9348399.JPG
break,html.Screen,4_53_1,2023-09-11T21:11:34.665Z,,0,,,NaN,,,,,,false,,,,404619.200000003,404619,,404618.200000003,,404639.205,8,400,,,
break_continue,html.Screen,4_53_2,2023-09-11T21:11:34.665Z,,0,,,NaN,,,,,,false,,,,404619.5,404619.40000000596,,404619.299999997,,404639.205,8,400,,,
sequence,flow.Sequence,4_53,2023-09-11T21:11:34.666Z,,0,,,3546.719000005978,completion,,,,,false,,,,404619.799999997,404619.40000000596,401056.015,401062.5,401072.681,404639.205,8,400,,,
trial,html.Screen,4_54_0,2023-09-11T21:11:39.198Z,,0,2,,4512.894999994023,response,ISIC_0054932.JPG,5,ISIC_0057089.JPG,ISIC_0057089.JPG,false,0,keypress(z),500,409152.59999999404,409152.09999999404,404622.539,404619.90000000596,404639.205,409156.493,8,400,5,,ISIC_0054932.JPG
break,html.Screen,4_54_1,2023-09-11T21:11:39.200Z,,0,,,NaN,,,,,,false,,,,409153.799999997,409153.59999999404,,409153,,409156.493,8,400,,,
break_continue,html.Screen,4_54_2,2023-09-11T21:11:39.200Z,,0,,,NaN,,,,,,false,,,,409154.09999999404,409154,,409153.90000000596,,409156.493,8,400,,,
sequence,flow.Sequence,4_54,2023-09-11T21:11:39.200Z,,0,,,4514.794999999984,completion,,,,,false,,,,409154.299999997,409154,404622.539,404619.799999997,404639.205,409156.493,8,400,,,
trial,html.Screen,4_55_0,2023-09-11T21:11:43.042Z,,0,2,,3839.2070000029635,response,ISIC_3590997.JPG,7,ISIC_1410408.JPG,ISIC_3590997.JPG,false,1,keypress(m),500,412996.299999997,412995.700000003,409139.827,409154.40000000596,409156.493,413006.339,8,400,6,,ISIC_1410408.JPG
break,html.Screen,4_55_1,2023-09-11T21:11:43.043Z,,0,,,NaN,,,,,,false,,,,412997.299999997,412997.200000003,,412996.5,,413006.339,8,400,,,
break_continue,html.Screen,4_55_2,2023-09-11T21:11:43.043Z,,0,,,NaN,,,,,,false,,,,412997.799999997,412997.59999999404,,412997.5,,413006.339,8,400,,,
sequence,flow.Sequence,4_55,2023-09-11T21:11:43.044Z,,0,,,3841.1069999940228,completion,,,,,false,,,,412998,412997.59999999404,409139.827,409154.299999997,409156.493,413006.339,8,400,,,
trial,html.Screen,4_56_0,2023-09-11T21:11:46.121Z,,0,2,,3068.361000003002,response,ISIC_0067417.JPG,5,ISIC_0032160.JPG,ISIC_0032160.JPG,false,0,keypress(z),500,416075.09999999404,416074.700000003,412989.673,412998.09999999404,413006.339,416089.549,8,400,7,,ISIC_0067417.JPG
break,html.Screen,4_56_1,2023-09-11T21:11:46.122Z,,0,,,NaN,,,,,,false,,,,416076.299999997,416076,,416075.40000000596,,416089.549,8,400,,,
break_continue,html.Screen,4_56_2,2023-09-11T21:11:46.122Z,,0,,,NaN,,,,,,false,,,,416076.59999999404,416076.40000000596,,416076.299999997,,416089.549,8,400,,,
sequence,flow.Sequence,4_56,2023-09-11T21:11:46.122Z,,0,,,3070.0610000059824,completion,,,,,false,,,,416076.700000003,416076.40000000596,412989.673,412998.09999999404,413006.339,416089.549,8,400,,,
trial,html.Screen,4_57_0,2023-09-11T21:11:51.438Z,,0,2,,5302.851000005961,response,ISIC_5646706.JPG,9,ISIC_0000072.JPG,ISIC_5646706.JPG,false,1,keypress(m),500,421392.799999997,421392.40000000596,416072.883,416076.90000000596,416089.549,421406.802,8,400,8,,ISIC_0000072.JPG
break,html.Screen,4_57_1,2023-09-11T21:11:51.439Z,,0,,,NaN,,,,,,false,,,,421393.700000003,421393.5,,421393,,421406.802,8,400,,,
break_continue,html.Screen,4_57_2,2023-09-11T21:11:51.440Z,,0,,,NaN,,,,,,false,,,,421394,421393.90000000596,,421393.799999997,,421406.802,8,400,,,
sequence,flow.Sequence,4_57,2023-09-11T21:11:51.440Z,,0,,,5304.351000005961,completion,,,,,false,,,,421394.09999999404,421393.90000000596,416072.883,416076.799999997,416089.549,421406.802,8,400,,,
trial,html.Screen,4_58_0,2023-09-11T21:11:56.729Z,,0,2,,5275.898000002955,response,ISIC_0033806.JPG,6,ISIC_0070566.JPG,ISIC_0033806.JPG,false,1,keypress(m),500,426683.200000003,426682.700000003,421390.136,421394.200000003,421406.802,426689.924,8,400,9,,ISIC_0070566.JPG
break,html.Screen,4_58_1,2023-09-11T21:11:56.730Z,,0,,,NaN,,,,,,false,,,,426684.299999997,426684.09999999404,,426683.40000000596,,426689.924,8,400,,,
break_continue,html.Screen,4_58_2,2023-09-11T21:11:56.730Z,,0,,,NaN,,,,,,false,,,,426684.59999999404,426684.5,,426684.40000000596,,426689.924,8,400,,,
sequence,flow.Sequence,4_58,2023-09-11T21:11:56.730Z,,0,,,5277.697999999975,completion,,,,,false,,,,426684.799999997,426684.5,421390.136,421394.200000003,421406.802,426689.924,8,400,,,
trial,html.Screen,4_59_0,2023-09-11T21:12:03.728Z,,0,2,,6992.276000002981,response,ISIC_0033238.JPG,7,ISIC_0031546.JPG,ISIC_0031546.JPG,false,0,keypress(z),500,433682.700000003,433682.200000003,426673.258,426685,426689.924,433690.494,8,400,10,,ISIC_0033238.JPG
break,html.Screen,4_59_1,2023-09-11T21:12:03.729Z,,0,,,NaN,,,,,,false,,,,433683.90000000596,433683.700000003,,433683.09999999404,,433690.494,8,400,,,
break_continue,html.Screen,4_59_2,2023-09-11T21:12:03.730Z,,0,,,NaN,,,,,,false,,,,433684.299999997,433684.200000003,,433684,,433690.494,8,400,,,
sequence,flow.Sequence,4_59,2023-09-11T21:12:03.730Z,,0,,,6994.276000002981,completion,,,,,false,,,,433684.5,433684.200000003,426673.258,426684.90000000596,426689.924,433690.494,8,400,,,
trial,html.Screen,4_60_0,2023-09-11T21:12:07.991Z,,0,2,,4254.406000005954,response,ISIC_8492957.JPG,5,ISIC_6093728.JPG,ISIC_6093728.JPG,false,0,keypress(z),500,437945.40000000596,437944.90000000596,433673.828,433684.59999999404,433690.494,437956.99,8,400,11,,ISIC_8492957.JPG
break,html.Screen,4_60_1,2023-09-11T21:12:07.992Z,,0,,,NaN,,,,,,false,,,,437946.5,437946.200000003,,437945.700000003,,437956.99,8,400,,,
break_continue,html.Screen,4_60_2,2023-09-11T21:12:07.992Z,,0,,,NaN,,,,,,false,,,,437946.799999997,437946.700000003,,437946.59999999404,,437956.99,8,400,,,
sequence,flow.Sequence,4_60,2023-09-11T21:12:07.992Z,,0,,,4256.206000002974,completion,,,,,false,,,,437947,437946.700000003,433673.828,433684.59999999404,433690.494,437956.99,8,400,,,
trial,html.Screen,4_61_0,2023-09-11T21:12:14.559Z,,0,2,,6556.510000000009,response,ISIC_8712559.JPG,5,ISIC_0010960.JPG,ISIC_0010960.JPG,false,0,keypress(z),500,444514,444513.5,437940.324,437947.200000003,437956.99,444524.229,8,400,12,,ISIC_8712559.JPG
break,html.Screen,4_61_1,2023-09-11T21:12:14.560Z,,0,,,NaN,,,,,,false,,,,444515.200000003,444515,,444514.200000003,,444524.229,8,400,,,
break_continue,html.Screen,4_61_2,2023-09-11T21:12:14.561Z,,0,,,NaN,,,,,,false,,,,444515.5,444515.40000000596,,444515.299999997,,444524.229,8,400,,,
sequence,flow.Sequence,4_61,2023-09-11T21:12:14.561Z,,0,,,6558.41000000597,completion,,,,,false,,,,444515.59999999404,444515.40000000596,437940.324,437947.09999999404,437956.99,444524.229,8,400,,,
trial,html.Screen,4_62_0,2023-09-11T21:12:18.612Z,,0,2,,4042.271000000008,response,ISIC_0015189.JPG,5,ISIC_0065622.JPG,ISIC_0015189.JPG,false,1,keypress(m),500,448567,448566.5,444507.563,444515.799999997,444524.229,448574.067,8,400,13,,ISIC_0065622.JPG
break,html.Screen,4_62_1,2023-09-11T21:12:18.613Z,,0,,,NaN,,,,,,false,,,,448568.200000003,448567.90000000596,,448567.299999997,,448574.067,8,400,,,
break_continue,html.Screen,4_62_2,2023-09-11T21:12:18.615Z,,0,,,NaN,,,,,,false,,,,448569.799999997,448569.59999999404,,448568.200000003,,448574.067,8,400,,,
sequence,flow.Sequence,4_62,2023-09-11T21:12:18.615Z,,0,,,4045.3709999940475,completion,,,,,false,,,,448569.90000000596,448569.59999999404,444507.563,444515.700000003,444524.229,448574.067,8,400,,,
trial,html.Screen,4_63_0,2023-09-11T21:12:21.788Z,,0,2,,3168.933000000019,response,ISIC_0060946.JPG,7,ISIC_0053841.JPG,ISIC_0053841.JPG,false,0,keypress(z),500,451743.299999997,451743,448557.401,448570,448574.067,451757.273,8,400,14,,ISIC_0060946.JPG
break,html.Screen,4_63_1,2023-09-11T21:12:21.789Z,,0,,,NaN,,,,,,false,,,,451744.09999999404,451744,,451743.5,,451757.273,8,400,,,
break_continue,html.Screen,4_63_2,2023-09-11T21:12:21.789Z,,0,,,NaN,,,,,,false,,,,451744.299999997,451744.200000003,,451744.200000003,,451757.273,8,400,,,
sequence,flow.Sequence,4_63,2023-09-11T21:12:21.789Z,,0,,,3170.1330000029993,completion,,,,,false,,,,451744.40000000596,451744.200000003,448557.401,448569.90000000596,448574.067,451757.273,8,400,,,
trial,html.Screen,4_64_0,2023-09-11T21:12:26.146Z,,0,2,,4343.627000005974,response,ISIC_1394786.JPG,8,ISIC_0032922.JPG,ISIC_1394786.JPG,false,1,keypress(m),500,456101.5,456100.90000000596,451740.607,451744.5,451757.273,456107.895,8,400,15,,ISIC_0032922.JPG
break,html.Screen,4_64_1,2023-09-11T21:12:26.148Z,,0,,,NaN,,,,,,false,,,,456102.799999997,456102.59999999404,,456101.799999997,,456107.895,8,400,,,
break_continue,html.Screen,4_64_2,2023-09-11T21:12:26.148Z,,0,,,NaN,,,,,,false,,,,456103,456103,,456102.90000000596,,456107.895,8,400,,,
sequence,flow.Sequence,4_64,2023-09-11T21:12:26.148Z,,0,,,4345.7270000000135,completion,,,,,false,,,,456103.200000003,456103,451740.607,451744.5,451757.273,456107.895,8,400,,,
trial,html.Screen,4_65_0,2023-09-11T21:12:29.728Z,,0,2,,3575.204999994021,response,ISIC_5988539.JPG,6,ISIC_0579047.JPG,ISIC_0579047.JPG,false,0,keypress(z),500,459683.40000000596,459683.09999999404,456091.229,456103.299999997,456107.895,459691.085,8,400,16,,ISIC_5988539.JPG
break,html.Screen,4_65_1,2023-09-11T21:12:29.729Z,,0,,,NaN,,,,,,false,,,,459684.299999997,459684.09999999404,,459683.59999999404,,459691.085,8,400,,,
break_continue,html.Screen,4_65_2,2023-09-11T21:12:29.729Z,,0,,,NaN,,,,,,false,,,,459684.700000003,459684.5,,459684.5,,459691.085,8,400,,,
sequence,flow.Sequence,4_65,2023-09-11T21:12:29.730Z,,0,,,3576.6049999999814,completion,,,,,false,,,,459684.90000000596,459684.5,456091.229,456103.299999997,456107.895,459691.085,8,400,,,
trial,html.Screen,4_66_0,2023-09-11T21:12:35.638Z,,0,2,,5901.914999999979,response,ISIC_9828053.JPG,9,ISIC_0024421.JPG,ISIC_0024421.JPG,false,0,keypress(z),500,465593.40000000596,465593,459674.419,459685,459691.085,465608.358,8,400,17,,ISIC_9828053.JPG
break,html.Screen,4_66_1,2023-09-11T21:12:35.639Z,,0,,,NaN,,,,,,false,,,,465594.200000003,465594.09999999404,,465593.59999999404,,465608.358,8,400,,,
break_continue,html.Screen,4_66_2,2023-09-11T21:12:35.639Z,,0,,,NaN,,,,,,false,,,,465594.59999999404,465594.5,,465594.40000000596,,465608.358,8,400,,,
sequence,flow.Sequence,4_66,2023-09-11T21:12:35.639Z,,0,,,5903.414999999979,completion,,,,,false,,,,465594.700000003,465594.5,459674.419,459685,459691.085,465608.358,8,400,,,
trial,html.Screen,4_67_0,2023-09-11T21:12:40.126Z,,0,2,,4472.141999999993,response,ISIC_0069865.JPG,6,ISIC_8822738.JPG,ISIC_8822738.JPG,false,0,keypress(z),500,470081,470080.5,465591.692,465594.90000000596,465608.358,470091.512,8,400,18,,ISIC_0069865.JPG
break,html.Screen,4_67_1,2023-09-11T21:12:40.127Z,,0,,,NaN,,,,,,false,,,,470082.200000003,470082,,470081.299999997,,470091.512,8,400,,,
break_continue,html.Screen,4_67_2,2023-09-11T21:12:40.127Z,,0,,,NaN,,,,,,false,,,,470082.5,470082.40000000596,,470082.299999997,,470091.512,8,400,,,
sequence,flow.Sequence,4_67,2023-09-11T21:12:40.127Z,,0,,,4474.042000005953,completion,,,,,false,,,,470082.700000003,470082.40000000596,465591.692,465594.799999997,465608.358,470091.512,8,400,,,
trial,html.Screen,4_68_0,2023-09-11T21:12:45.012Z,,0,2,,4875.787999997032,response,ISIC_0024650.JPG,5,ISIC_9847428.JPG,ISIC_9847428.JPG,false,0,keypress(z),500,474967.700000003,474967.299999997,470074.846,470082.799999997,470091.512,474974.65,8,400,19,,ISIC_0024650.JPG
break,html.Screen,4_68_1,2023-09-11T21:12:45.013Z,,0,,,NaN,,,,,,false,,,,474968.90000000596,474968.700000003,,474968,,474974.65,8,400,,,
break_continue,html.Screen,4_68_2,2023-09-11T21:12:45.014Z,,0,,,NaN,,,,,,false,,,,474969.200000003,474969.09999999404,,474969,,474974.65,8,400,,,
sequence,flow.Sequence,4_68,2023-09-11T21:12:45.014Z,,0,,,4877.587999994052,completion,,,,,false,,,,474969.40000000596,474969.09999999404,470074.846,470082.799999997,470091.512,474974.65,8,400,,,
trial,html.Screen,4_69_0,2023-09-11T21:12:49.776Z,,0,2,,4756.349999999977,response,ISIC_9407667.JPG,4,ISIC_0031517.JPG,ISIC_9407667.JPG,false,1,keypress(m),500,479731.5,479731,474957.984,474969.59999999404,474974.65,479741.717,8,400,20,,ISIC_0031517.JPG
break,html.Screen,4_69_1,2023-09-11T21:12:49.777Z,,0,,,NaN,,,,,,false,,,,479732.700000003,479732.40000000596,,479731.700000003,,479741.717,8,400,,,
break_continue,html.Screen,4_69_2,2023-09-11T21:12:49.777Z,,0,,,NaN,,,,,,false,,,,479733,479732.799999997,,479732.700000003,,479741.717,8,400,,,
sequence,flow.Sequence,4_69,2023-09-11T21:12:49.777Z,,0,,,4758.1499999969965,completion,,,,,false,,,,479733.200000003,479732.799999997,474957.984,474969.5,474974.65,479741.717,8,400,,,
trial,html.Screen,4_70_0,2023-09-11T21:12:53.204Z,,0,2,,3417.483000002976,response,ISIC_2558816.JPG,7,ISIC_0010235.JPG,ISIC_2558816.JPG,false,1,keypress(m),500,483159.59999999404,483159.200000003,479725.051,479733.40000000596,479741.717,483174.913,8,400,21,,ISIC_0010235.JPG
break,html.Screen,4_70_1,2023-09-11T21:12:53.205Z,,0,,,NaN,,,,,,false,,,,483160.700000003,483160.40000000596,,483159.90000000596,,483174.913,8,400,,,
break_continue,html.Screen,4_70_2,2023-09-11T21:12:53.205Z,,0,,,NaN,,,,,,false,,,,483160.90000000596,483160.799999997,,483160.700000003,,483174.913,8,400,,,
sequence,flow.Sequence,4_70,2023-09-11T21:12:53.205Z,,0,,,3419.0829999970156,completion,,,,,false,,,,483161,483160.799999997,479725.051,479733.299999997,479741.717,483174.913,8,400,,,
trial,html.Screen,4_71_0,2023-09-11T21:12:56.475Z,,0,2,,3255.5869999999995,response,ISIC_0070074.JPG,8,ISIC_0263478.JPG,ISIC_0263478.JPG,false,0,keypress(z),500,486430.90000000596,486430.5,483158.247,483161.200000003,483174.913,486442.35,8,400,22,,ISIC_0070074.JPG
break,html.Screen,4_71_1,2023-09-11T21:12:56.476Z,,0,,,NaN,,,,,,false,,,,486432,486431.90000000596,,486431.200000003,,486442.35,8,400,,,
break_continue,html.Screen,4_71_2,2023-09-11T21:12:56.477Z,,0,,,NaN,,,,,,false,,,,486432.5,486432.299999997,,486432.200000003,,486442.35,8,400,,,
sequence,flow.Sequence,4_71,2023-09-11T21:12:56.477Z,,0,,,3257.3869999970193,completion,,,,,false,,,,486432.59999999404,486432.299999997,483158.247,483161.09999999404,483174.913,486442.35,8,400,,,
trial,html.Screen,4_72_0,2023-09-11T21:13:02.567Z,,0,2,,6080.3500000030035,response,ISIC_0061359.JPG,7,ISIC_4055361.JPG,ISIC_4055361.JPG,false,0,keypress(z),500,492523.09999999404,492522.700000003,486425.684,486432.700000003,486442.35,492525.44,8,400,23,,ISIC_0061359.JPG
break,html.Screen,4_72_1,2023-09-11T21:13:02.568Z,,0,,,NaN,,,,,,false,,,,492524.299999997,492524,,492523.40000000596,,492525.44,8,400,,,
break_continue,html.Screen,4_72_2,2023-09-11T21:13:02.569Z,,0,,,NaN,,,,,,false,,,,492524.700000003,492524.5,,492524.40000000596,,492525.44,8,400,,,
sequence,flow.Sequence,4_72,2023-09-11T21:13:02.569Z,,0,,,6082.150000000023,completion,,,,,false,,,,492524.799999997,492524.5,486425.684,486432.700000003,486442.35,492525.44,8,400,,,
trial,html.Screen,4_73_0,2023-09-11T21:13:05.614Z,,0,2,,3044.659999994037,response,ISIC_0033278.JPG,8,ISIC_0033152.JPG,ISIC_0033152.JPG,false,0,keypress(z),500,495570.299999997,495570.09999999404,492508.774,492524.90000000596,492525.44,495575.318,8,400,24,,ISIC_0033278.JPG
break,html.Screen,4_73_1,2023-09-11T21:13:05.615Z,,0,,,NaN,,,,,,false,,,,495571.09999999404,495571,,495570.5,,495575.318,8,400,,,
break_continue,html.Screen,4_73_2,2023-09-11T21:13:05.615Z,,0,,,NaN,,,,,,false,,,,495571.40000000596,495571.40000000596,,495571.299999997,,495575.318,8,400,,,
sequence,flow.Sequence,4_73,2023-09-11T21:13:05.616Z,,0,,,3045.960000005958,completion,,,,,false,,,,495571.59999999404,495571.40000000596,492508.774,492524.799999997,492525.44,495575.318,8,400,,,
trial,html.Screen,4_74_0,2023-09-11T21:13:11.328Z,,0,2,,5708.781999994011,response,ISIC_1850674.JPG,9,ISIC_3166535.JPG,ISIC_3166535.JPG,false,0,keypress(z),500,501284.59999999404,501284.09999999404,495558.652,495571.700000003,495575.318,501292.458,8,400,25,,ISIC_1850674.JPG
break,html.Screen,4_74_1,2023-09-11T21:13:11.330Z,,0,,,NaN,,,,,,false,,,,501285.799999997,501285.59999999404,,501284.90000000596,,501292.458,8,400,,,
break_continue,html.Screen,4_74_2,2023-09-11T21:13:11.330Z,,0,,,NaN,,,,,,false,,,,501286.200000003,501286.09999999404,,501285.90000000596,,501292.458,8,400,,,
sequence,flow.Sequence,4_74,2023-09-11T21:13:11.330Z,,0,,,5710.781999994011,completion,,,,,false,,,,501286.299999997,501286.09999999404,495558.652,495571.700000003,495575.318,501292.458,8,400,,,
trial,html.Screen,4_75_0,2023-09-11T21:13:14.981Z,,0,2,,3644.1419999940554,response,ISIC_3664380.JPG,9,ISIC_0056292.JPG,ISIC_3664380.JPG,false,1,keypress(m),500,504937,504936.59999999404,501275.792,501286.5,501292.458,504942.312,8,400,26,,ISIC_0056292.JPG
break,html.Screen,4_75_1,2023-09-11T21:13:14.982Z,,0,,,NaN,,,,,,false,,,,504938.09999999404,504937.90000000596,,504937.299999997,,504942.312,8,400,,,
break_continue,html.Screen,4_75_2,2023-09-11T21:13:14.982Z,,0,,,NaN,,,,,,false,,,,504938.40000000596,504938.40000000596,,504938.200000003,,504942.312,8,400,,,
sequence,flow.Sequence,4_75,2023-09-11T21:13:14.982Z,,0,,,3645.9420000059763,completion,,,,,false,,,,504938.59999999404,504938.40000000596,501275.792,501286.40000000596,501292.458,504942.312,8,400,,,
trial,html.Screen,4_76_0,2023-09-11T21:13:22.041Z,,0,2,,7054.787999994063,response,ISIC_0015226.JPG,7,ISIC_3696726.JPG,ISIC_0015226.JPG,false,1,keypress(m),500,511997.59999999404,511997.09999999404,504925.646,504938.700000003,504942.312,512009.426,8,400,27,,ISIC_3696726.JPG
break,html.Screen,4_76_1,2023-09-11T21:13:22.042Z,,0,,,NaN,,,,,,false,,,,511998.799999997,511998.59999999404,,511997.90000000596,,512009.426,8,400,,,
break_continue,html.Screen,4_76_2,2023-09-11T21:13:22.043Z,,0,,,NaN,,,,,,false,,,,511999.200000003,511999,,511998.90000000596,,512009.426,8,400,,,
sequence,flow.Sequence,4_76,2023-09-11T21:13:22.043Z,,0,,,7056.688000000024,completion,,,,,false,,,,511999.299999997,511999,504925.646,504938.700000003,504942.312,512009.426,8,400,,,
trial,html.Screen,4_77_0,2023-09-11T21:13:27.807Z,,0,2,,5753.373999997042,response,ISIC_5666345.JPG,7,ISIC_0011772.JPG,ISIC_0011772.JPG,false,0,keypress(z),500,517763.200000003,517762.799999997,511992.76,511999.5,512009.426,517776.616,8,400,28,,ISIC_5666345.JPG
break,html.Screen,4_77_1,2023-09-11T21:13:27.808Z,,0,,,NaN,,,,,,false,,,,517764,517763.90000000596,,517763.40000000596,,517776.616,8,400,,,
break_continue,html.Screen,4_77_2,2023-09-11T21:13:27.808Z,,0,,,NaN,,,,,,false,,,,517764.200000003,517764.09999999404,,517764,,517776.616,8,400,,,
sequence,flow.Sequence,4_77,2023-09-11T21:13:27.808Z,,0,,,5754.673999994062,completion,,,,,false,,,,517764.299999997,517764.09999999404,511992.76,511999.40000000596,512009.426,517776.616,8,400,,,
trial,html.Screen,4_78_0,2023-09-11T21:13:37.412Z,,0,2,,9591.584000003,response,ISIC_1569775.JPG,8,ISIC_7959386.JPG,ISIC_1569775.JPG,false,1,keypress(m),500,527368.799999997,527368.200000003,517759.95,517764.40000000596,517776.616,527376.232,8,400,29,,ISIC_7959386.JPG
break,html.Screen,4_78_1,2023-09-11T21:13:37.413Z,,0,,,NaN,,,,,,false,,,,527370.099999994,527369.700000003,,527369.099999994,,527376.232,8,400,,,
break_continue,html.Screen,4_78_2,2023-09-11T21:13:37.414Z,,0,,,NaN,,,,,,false,,,,527370.400000006,527370.299999997,,527370.099999994,,527376.232,8,400,,,
sequence,flow.Sequence,4_78,2023-09-11T21:13:37.414Z,,0,,,9593.68399999704,completion,,,,,false,,,,527370.599999994,527370.299999997,517759.95,517764.40000000596,517776.616,527376.232,8,400,,,
trial,html.Screen,4_79_0,2023-09-11T21:13:41.144Z,,0,2,,3724.1680000060005,response,ISIC_5620802.JPG,8,ISIC_0004000.JPG,ISIC_0004000.JPG,false,0,keypress(z),500,531100.900000006,531100.400000006,527359.566,527370.700000003,527376.232,531110.103,8,400,30,,ISIC_5620802.JPG
break,html.Screen,4_79_1,2023-09-11T21:13:41.145Z,,0,,,NaN,,,,,,false,,,,531102,531101.799999997,,531101.200000003,,531110.103,8,400,,,
break_continue,html.Screen,4_79_2,2023-09-11T21:13:41.146Z,,0,,,NaN,,,,,,false,,,,531102.400000006,531102.400000006,,531102.200000003,,531110.103,8,400,,,
sequence,flow.Sequence,4_79,2023-09-11T21:13:41.146Z,,0,,,3726.1680000060005,completion,,,,,false,,,,531102.5,531102.400000006,527359.566,527370.599999994,527376.232,531110.103,8,400,,,
trial,html.Screen,4_80_0,2023-09-11T21:13:47.167Z,,0,2,,6013.196999997017,response,ISIC_9745038.JPG,7,ISIC_0543351.JPG,ISIC_0543351.JPG,false,0,keypress(z),500,537123.799999997,537123.299999997,531093.437,531102.700000003,531110.103,537126.529,8,400,31,,ISIC_9745038.JPG
break,html.Screen,4_80_1,2023-09-11T21:13:47.168Z,,0,,,NaN,,,,,,false,,,,537124.900000006,537124.599999994,,537124.099999994,,537126.529,8,400,,,
break_continue,html.Screen,4_80_2,2023-09-11T21:13:47.168Z,,0,,,NaN,,,,,,false,,,,537125.200000003,537125.099999994,,537124.900000006,,537126.529,8,400,,,
sequence,flow.Sequence,4_80,2023-09-11T21:13:47.169Z,,0,,,6014.996999994037,completion,,,,,false,,,,537125.299999997,537125.099999994,531093.437,531102.700000003,531110.103,537126.529,8,400,,,
trial,html.Screen,4_81_0,2023-09-11T21:13:54.015Z,,0,2,,6845.070999994059,response,ISIC_4620425.JPG,8,ISIC_0072990.JPG,ISIC_4620425.JPG,false,1,keypress(m),500,543972.200000003,543971.599999994,537109.863,537125.5,537126.529,543977.007,8,400,32,,ISIC_0072990.JPG
break,html.Screen,4_81_1,2023-09-11T21:13:54.016Z,,0,,,NaN,,,,,,false,,,,543973.299999997,543973.099999994,,543972.5,,543977.007,8,400,,,
break_continue,html.Screen,4_81_2,2023-09-11T21:13:54.017Z,,0,,,NaN,,,,,,false,,,,543973.700000003,543973.599999994,,543973.400000006,,543977.007,8,400,,,
sequence,flow.Sequence,4_81,2023-09-11T21:13:54.017Z,,0,,,6847.070999994059,completion,,,,,false,,,,543973.900000006,543973.599999994,537109.863,537125.5,537126.529,543977.007,8,400,,,
trial,html.Screen,4_82_0,2023-09-11T21:13:58.918Z,,0,2,,4897.7929999970365,response,ISIC_2853290.JPG,8,ISIC_1264725.JPG,ISIC_1264725.JPG,false,0,keypress(z),500,548875.200000003,548874.799999997,543960.341,543974,543977.007,548877.653,8,400,33,,ISIC_2853290.JPG
break,html.Screen,4_82_1,2023-09-11T21:13:58.919Z,,0,,,NaN,,,,,,false,,,,548876.299999997,548876.099999994,,548875.5,,548877.653,8,400,,,
break_continue,html.Screen,4_82_2,2023-09-11T21:13:58.920Z,,0,,,NaN,,,,,,false,,,,548876.700000003,548876.599999994,,548876.5,,548877.653,8,400,,,
sequence,flow.Sequence,4_82,2023-09-11T21:13:58.920Z,,0,,,4899.592999994056,completion,,,,,false,,,,548876.799999997,548876.599999994,543960.341,543974,543977.007,548877.653,8,400,,,
trial,html.Screen,4_83_0,2023-09-11T21:14:03.915Z,,0,2,,4993.94699999399,response,ISIC_0033196.JPG,9,ISIC_6785041.JPG,ISIC_6785041.JPG,false,0,keypress(z),500,553872,553871.599999994,548860.987,548876.900000006,548877.653,553894.119,8,400,34,,ISIC_0033196.JPG
break,html.Screen,4_83_1,2023-09-11T21:14:03.916Z,,0,,,NaN,,,,,,false,,,,553873.200000003,553872.900000006,,553872.299999997,,553894.119,8,400,,,
break_continue,html.Screen,4_83_2,2023-09-11T21:14:03.916Z,,0,,,NaN,,,,,,false,,,,553873.599999994,553873.400000006,,553873.299999997,,553894.119,8,400,,,
sequence,flow.Sequence,4_83,2023-09-11T21:14:03.916Z,,0,,,4995.747000005911,completion,,,,,false,,,,553873.700000003,553873.400000006,548860.987,548876.900000006,548877.653,553894.119,8,400,,,
trial,html.Screen,4_84_0,2023-09-11T21:14:07.109Z,,0,2,,3171.9809999940917,response,ISIC_0031482.JPG,7,ISIC_9096302.JPG,ISIC_9096302.JPG,false,0,keypress(z),500,557066.700000003,557066.099999994,553877.453,553873.799999997,553894.119,557077.325,8,400,35,,ISIC_0031482.JPG
break,html.Screen,4_84_1,2023-09-11T21:14:07.111Z,,0,,,NaN,,,,,,false,,,,557067.900000006,557067.599999994,,557067,,557077.325,8,400,,,
break_continue,html.Screen,4_84_2,2023-09-11T21:14:07.111Z,,0,,,NaN,,,,,,false,,,,557068.200000003,557068.099999994,,557068,,557077.325,8,400,,,
sequence,flow.Sequence,4_84,2023-09-11T21:14:07.111Z,,0,,,3173.9809999940917,completion,,,,,false,,,,557068.400000006,557068.099999994,553877.453,553873.700000003,553894.119,557077.325,8,400,,,
trial,html.Screen,4_85_0,2023-09-11T21:14:13.418Z,,0,2,,6297.974999997066,response,ISIC_0006624.JPG,5,ISIC_1358527.JPG,ISIC_1358527.JPG,false,0,keypress(z),500,563375.700000003,563375.299999997,557060.659,557068.5,557077.325,563377.767,8,400,36,,ISIC_0006624.JPG
break,html.Screen,4_85_1,2023-09-11T21:14:13.419Z,,0,,,NaN,,,,,,false,,,,563376.900000006,563376.599999994,,563375.900000006,,563377.767,8,400,,,
break_continue,html.Screen,4_85_2,2023-09-11T21:14:13.420Z,,0,,,NaN,,,,,,false,,,,563377.200000003,563377.099999994,,563377,,563377.767,8,400,,,
sequence,flow.Sequence,4_85,2023-09-11T21:14:13.420Z,,0,,,6299.774999994086,completion,,,,,false,,,,563377.400000006,563377.099999994,557060.659,557068.5,557077.325,563377.767,8,400,,,
trial,html.Screen,4_86_0,2023-09-11T21:14:17.040Z,,0,2,,3619.633000005968,response,ISIC_0065582.JPG,5,ISIC_0026812.JPG,ISIC_0026812.JPG,false,0,keypress(z),500,566997.799999997,566997.400000006,563361.101,563377.5,563377.767,567010.955,8,400,37,,ISIC_0065582.JPG
break,html.Screen,4_86_1,2023-09-11T21:14:17.042Z,,0,,,NaN,,,,,,false,,,,566999.099999994,566998.900000006,,566998.200000003,,567010.955,8,400,,,
break_continue,html.Screen,4_86_2,2023-09-11T21:14:17.042Z,,0,,,NaN,,,,,,false,,,,566999.5,566999.400000006,,566999.200000003,,567010.955,8,400,,,
sequence,flow.Sequence,4_86,2023-09-11T21:14:17.042Z,,0,,,3621.633000005968,completion,,,,,false,,,,566999.700000003,566999.400000006,563361.101,563377.5,563377.767,567010.955,8,400,,,
trial,html.Screen,4_87_0,2023-09-11T21:14:22.765Z,,0,2,,5711.245000003022,response,ISIC_0000240.JPG,7,ISIC_0070974.JPG,ISIC_0000240.JPG,false,1,keypress(m),500,572722.599999994,572722.200000003,566994.289,566999.700000003,567010.955,572728.4,8,400,38,,ISIC_0070974.JPG
break,html.Screen,4_87_1,2023-09-11T21:14:22.766Z,,0,,,NaN,,,,,,false,,,,572723.799999997,572723.599999994,,572723,,572728.4,8,400,,,
break_continue,html.Screen,4_87_2,2023-09-11T21:14:22.767Z,,0,,,NaN,,,,,,false,,,,572724.099999994,572724,,572723.900000006,,572728.4,8,400,,,
sequence,flow.Sequence,4_87,2023-09-11T21:14:22.767Z,,0,,,5713.045000000042,completion,,,,,false,,,,572724.299999997,572724,566994.289,566999.700000003,567010.955,572728.4,8,400,,,
trial,html.Screen,4_88_0,2023-09-11T21:14:26.661Z,,0,2,,3890.000000005937,response,ISIC_0073015.JPG,7,ISIC_9690263.JPG,ISIC_0073015.JPG,false,1,keypress(m),500,576619,576618.400000006,572711.734,572724.400000006,572728.4,576628.244,8,400,39,,ISIC_9690263.JPG
break,html.Screen,4_88_1,2023-09-11T21:14:26.662Z,,0,,,NaN,,,,,,false,,,,576620.099999994,576619.900000006,,576619.200000003,,576628.244,8,400,,,
break_continue,html.Screen,4_88_2,2023-09-11T21:14:26.663Z,,0,,,NaN,,,,,,false,,,,576620.400000006,576620.400000006,,576620.200000003,,576628.244,8,400,,,
sequence,flow.Sequence,4_88,2023-09-11T21:14:26.663Z,,0,,,3892.000000005937,completion,,,,,false,,,,576620.599999994,576620.400000006,572711.734,572724.299999997,572728.4,576628.244,8,400,,,
trial,html.Screen,4_89_0,2023-09-11T21:14:30.154Z,,0,2,,3482.9560000030324,response,ISIC_0026155.JPG,8,ISIC_0030754.JPG,ISIC_0026155.JPG,false,1,keypress(m),500,580111.700000003,580111.200000003,576611.578,576620.799999997,576628.244,580128.104,8,400,40,,ISIC_0030754.JPG
break,html.Screen,4_89_1,2023-09-11T21:14:30.155Z,,0,,,NaN,,,,,,false,,,,580112.799999997,580112.599999994,,580112,,580128.104,8,400,,,
break_continue,html.Screen,4_89_2,2023-09-11T21:14:30.155Z,,0,,,NaN,,,,,,false,,,,580113.099999994,580113.099999994,,580112.900000006,,580128.104,8,400,,,
sequence,flow.Sequence,4_89,2023-09-11T21:14:30.156Z,,0,,,3484.8559999940917,completion,,,,,false,,,,580113.299999997,580113.099999994,576611.578,576620.599999994,576628.244,580128.104,8,400,,,
trial,html.Screen,4_90_0,2023-09-11T21:14:33.457Z,,0,2,,3285.79600000591,response,ISIC_1711185.JPG,9,ISIC_0011721.JPG,ISIC_0011721.JPG,false,0,keypress(z),500,583414.299999997,583413.900000006,580111.438,580113.299999997,580128.104,583428.692,8,400,41,,ISIC_1711185.JPG
break,html.Screen,4_90_1,2023-09-11T21:14:33.458Z,,0,,,NaN,,,,,,false,,,,583415.5,583415.200000003,,583414.700000003,,583428.692,8,400,,,
break_continue,html.Screen,4_90_2,2023-09-11T21:14:33.458Z,,0,,,NaN,,,,,,false,,,,583416.200000003,583416,,583415.900000006,,583428.692,8,400,,,
sequence,flow.Sequence,4_90,2023-09-11T21:14:33.459Z,,0,,,3287.8959999999497,completion,,,,,false,,,,583416.299999997,583416,580111.438,580113.299999997,580128.104,583428.692,8,400,,,
trial,html.Screen,4_91_0,2023-09-11T21:14:38.713Z,,0,2,,5241.407999994,response,ISIC_2741857.JPG,8,ISIC_6178099.JPG,ISIC_6178099.JPG,false,0,keypress(z),500,588670.5,588670.099999994,583412.026,583416.400000006,583428.692,588678.482,8,400,42,,ISIC_2741857.JPG
break,html.Screen,4_91_1,2023-09-11T21:14:38.714Z,,0,,,NaN,,,,,,false,,,,588671.700000003,588671.599999994,,588670.799999997,,588678.482,8,400,,,
break_continue,html.Screen,4_91_2,2023-09-11T21:14:38.714Z,,0,,,NaN,,,,,,false,,,,588672.099999994,588672,,588671.900000006,,588678.482,8,400,,,
sequence,flow.Sequence,4_91,2023-09-11T21:14:38.714Z,,0,,,5243.307999999961,completion,,,,,false,,,,588672.299999997,588672,583412.026,583416.400000006,583428.692,588678.482,8,400,,,
trial,html.Screen,4_92_0,2023-09-11T21:14:43.045Z,,0,2,,4324.31799999706,response,ISIC_0031039.JPG,7,ISIC_0000301.JPG,ISIC_0000301.JPG,false,0,keypress(z),500,593003.400000006,593002.799999997,588661.816,588672.400000006,588678.482,593011.642,8,400,43,,ISIC_0031039.JPG
break,html.Screen,4_92_1,2023-09-11T21:14:43.046Z,,0,,,NaN,,,,,,false,,,,593004.5,593004.299999997,,593003.599999994,,593011.642,8,400,,,
break_continue,html.Screen,4_92_2,2023-09-11T21:14:43.047Z,,0,,,NaN,,,,,,false,,,,593004.900000006,593004.799999997,,593004.599999994,,593011.642,8,400,,,
sequence,flow.Sequence,4_92,2023-09-11T21:14:43.047Z,,0,,,4326.31799999706,completion,,,,,false,,,,593005.099999994,593004.799999997,588661.816,588672.299999997,588678.482,593011.642,8,400,,,
trial,html.Screen,4_93_0,2023-09-11T21:14:49.981Z,,0,2,,6926.657999997027,response,ISIC_4573624.JPG,9,ISIC_0060621.JPG,ISIC_4573624.JPG,false,1,keypress(m),500,599938.799999997,599938.299999997,592994.976,593005.200000003,593011.642,599945.431,8,400,44,,ISIC_0060621.JPG
break,html.Screen,4_93_1,2023-09-11T21:14:49.982Z,,0,,,NaN,,,,,,false,,,,599940,599939.799999997,,599939.200000003,,599945.431,8,400,,,
break_continue,html.Screen,4_93_2,2023-09-11T21:14:49.982Z,,0,,,NaN,,,,,,false,,,,599940.400000006,599940.299999997,,599940.099999994,,599945.431,8,400,,,
sequence,flow.Sequence,4_93,2023-09-11T21:14:49.982Z,,0,,,6928.657999997027,completion,,,,,false,,,,599940.599999994,599940.299999997,592994.976,593005.200000003,593011.642,599945.431,8,400,,,
trial,html.Screen,4_94_0,2023-09-11T21:14:53.604Z,,0,2,,3615.969000005978,response,ISIC_0059925.JPG,6,ISIC_0062160.JPG,ISIC_0059925.JPG,false,1,keypress(m),500,603561.799999997,603561.400000006,599928.765,599940.799999997,599945.431,603562.708,8,400,45,,ISIC_0062160.JPG
break,html.Screen,4_94_1,2023-09-11T21:14:53.605Z,,0,,,NaN,,,,,,false,,,,603562.900000006,603562.799999997,,603562.099999994,,603562.708,8,400,,,
break_continue,html.Screen,4_94_2,2023-09-11T21:14:53.605Z,,0,,,NaN,,,,,,false,,,,603563.400000006,603563.200000003,,603563.099999994,,603562.708,8,400,,,
sequence,flow.Sequence,4_94,2023-09-11T21:14:53.605Z,,0,,,3617.769000002998,completion,,,,,false,,,,603563.400000006,603563.200000003,599928.765,599940.700000003,599945.431,603562.708,8,400,,,
trial,html.Screen,4_95_0,2023-09-11T21:14:57.479Z,,0,2,,3874.0919999970356,response,ISIC_0579047.JPG,6,ISIC_0033500.JPG,ISIC_0033500.JPG,false,0,keypress(z),500,607437.200000003,607436.799999997,603546.042,603563.599999994,603562.708,607445.886,8,400,46,,ISIC_0579047.JPG
break,html.Screen,4_95_1,2023-09-11T21:14:57.480Z,,0,,,NaN,,,,,,false,,,,607438.400000006,607438.200000003,,607437.599999994,,607445.886,8,400,,,
break_continue,html.Screen,4_95_2,2023-09-11T21:14:57.481Z,,0,,,NaN,,,,,,false,,,,607438.799999997,607438.700000003,,607438.599999994,,607445.886,8,400,,,
sequence,flow.Sequence,4_95,2023-09-11T21:14:57.481Z,,0,,,3875.992000002996,completion,,,,,false,,,,607439,607438.700000003,603546.042,603563.5,603562.708,607445.886,8,400,,,
trial,html.Screen,4_96_0,2023-09-11T21:15:03.199Z,,0,2,,5711.514000005904,response,ISIC_5219334.JPG,7,ISIC_0011649.JPG,ISIC_0011649.JPG,false,0,keypress(z),500,613157.799999997,613157.400000006,607429.22,607440.299999997,607445.886,613162.324,8,400,47,,ISIC_5219334.JPG
break,html.Screen,4_96_1,2023-09-11T21:15:03.201Z,,0,,,NaN,,,,,,false,,,,613159.200000003,613158.799999997,,613158.099999994,,613162.324,8,400,,,
break_continue,html.Screen,4_96_2,2023-09-11T21:15:03.201Z,,0,,,NaN,,,,,,false,,,,613159.5,613159.299999997,,613159.299999997,,613162.324,8,400,,,
sequence,flow.Sequence,4_96,2023-09-11T21:15:03.201Z,,0,,,5713.413999996963,completion,,,,,false,,,,613159.599999994,613159.299999997,607429.22,607440.200000003,607445.886,613162.324,8,400,,,
trial,html.Screen,4_97_0,2023-09-11T21:15:06.925Z,,0,2,,3720.9759999969974,response,ISIC_0061475.JPG,6,ISIC_0070248.JPG,ISIC_0070248.JPG,false,0,keypress(z),500,616883.700000003,616883.299999997,613145.658,613159.700000003,613162.324,616896.161,8,400,48,,ISIC_0061475.JPG
break,html.Screen,4_97_1,2023-09-11T21:15:06.926Z,,0,,,NaN,,,,,,false,,,,616884.900000006,616884.700000003,,616884,,616896.161,8,400,,,
break_continue,html.Screen,4_97_2,2023-09-11T21:15:06.927Z,,0,,,NaN,,,,,,false,,,,616885.299999997,616885.099999994,,616885.099999994,,616896.161,8,400,,,
sequence,flow.Sequence,4_97,2023-09-11T21:15:06.927Z,,0,,,3722.775999994017,completion,,,,,false,,,,616885.5,616885.099999994,613145.658,613159.700000003,613162.324,616896.161,8,400,,,
trial,html.Screen,4_98_0,2023-09-11T21:15:10.308Z,,0,2,,3369.938999994076,response,ISIC_2822622.JPG,9,ISIC_0025579.JPG,ISIC_0025579.JPG,false,0,keypress(z),500,620266.599999994,620266.099999994,616879.495,616885.599999994,616896.161,620279.359,8,400,49,,ISIC_2822622.JPG
break,html.Screen,4_98_1,2023-09-11T21:15:10.309Z,,0,,,NaN,,,,,,false,,,,620267.799999997,620267.599999994,,620267,,620279.359,8,400,,,
break_continue,html.Screen,4_98_2,2023-09-11T21:15:10.310Z,,0,,,NaN,,,,,,false,,,,620268.200000003,620268.099999994,,620267.900000006,,620279.359,8,400,,,
sequence,flow.Sequence,4_98,2023-09-11T21:15:10.310Z,,0,,,3371.938999994076,completion,,,,,false,,,,620268.5,620268.099999994,616879.495,616885.599999994,616896.161,620279.359,8,400,,,
trial,html.Screen,4_99_0,2023-09-11T21:15:13.452Z,,0,2,,3130.640999999945,response,ISIC_5437785.JPG,6,ISIC_0033725.JPG,ISIC_5437785.JPG,false,1,keypress(m),500,623410.5,623410,620262.693,620268.5,620279.359,623412.567,8,400,50,,ISIC_0033725.JPG
break,html.Screen,4_99_1,2023-09-11T21:15:23.439Z,,0,,,10000.368999999948,timeout,,,,,false,,,,633397.799999997,633396.27,623395.901,623410.700000003,623412.567,633412.936,8,400,,,
break_continue,html.Screen,4_99_2,2023-09-11T21:15:28.039Z,,0,,,4565.4640000059735,response,,,,,false,continue,keypress(Space),,637997.599999994,637978.400000006,633396.27,633397.900000006,633412.936,638013.504,8,400,,,
sequence,flow.Sequence,4_99,2023-09-11T21:15:28.039Z,,0,,,17699.041000005906,completion,,,,,false,,,,637997.700000003,637978.400000006,620262.693,620268.5,620279.359,638013.504,8,400,,,
trial,html.Screen,4_100_0,2023-09-11T21:15:31.813Z,,0,3,,3757.8960000060033,response,ISIC_5526879.JPG,9,ISIC_0011964.JPG,ISIC_5526879.JPG,false,1,keypress(m),500,641771.900000006,641771.400000006,637996.838,637997.799999997,638013.504,641780.02,8,400,1,,ISIC_0011964.JPG
break,html.Screen,4_100_1,2023-09-11T21:15:31.814Z,,0,,,NaN,,,,,,false,,,,641773.099999994,641772.799999997,,641772.200000003,,641780.02,8,400,,,
break_continue,html.Screen,4_100_2,2023-09-11T21:15:31.814Z,,0,,,NaN,,,,,,false,,,,641773.5,641773.400000006,,641773.200000003,,641780.02,8,400,,,
sequence,flow.Sequence,4_100,2023-09-11T21:15:31.815Z,,0,,,3759.8960000060033,completion,,,,,false,,,,641773.599999994,641773.400000006,637996.838,637997.799999997,638013.504,641780.02,8,400,,,
trial,html.Screen,4_101_0,2023-09-11T21:15:35.078Z,,0,3,,3256.380000005942,response,ISIC_7885010.JPG,6,ISIC_0746397.JPG,ISIC_0746397.JPG,false,0,keypress(z),500,645036.799999997,645036.400000006,641763.354,641773.700000003,641780.02,645047.212,8,400,2,,ISIC_7885010.JPG
break,html.Screen,4_101_1,2023-09-11T21:15:35.079Z,,0,,,NaN,,,,,,false,,,,645038.200000003,645038,,645037.200000003,,645047.212,8,400,,,
break_continue,html.Screen,4_101_2,2023-09-11T21:15:35.080Z,,0,,,NaN,,,,,,false,,,,645038.599999994,645038.400000006,,645038.299999997,,645047.212,8,400,,,
sequence,flow.Sequence,4_101,2023-09-11T21:15:35.080Z,,0,,,3258.380000005942,completion,,,,,false,,,,645038.700000003,645038.400000006,641763.354,641773.700000003,641780.02,645047.212,8,400,,,
trial,html.Screen,4_102_0,2023-09-11T21:15:39.333Z,,0,3,,4243.9880000029225,response,ISIC_0034253.JPG,6,ISIC_0067840.JPG,ISIC_0067840.JPG,false,0,keypress(z),500,649291.799999997,649291.200000003,645030.546,645038.900000006,645047.212,649297.042,8,400,3,,ISIC_0034253.JPG
break,html.Screen,4_102_1,2023-09-11T21:15:39.334Z,,0,,,NaN,,,,,,false,,,,649293.099999994,649292.900000006,,649292.200000003,,649297.042,8,400,,,
break_continue,html.Screen,4_102_2,2023-09-11T21:15:39.334Z,,0,,,NaN,,,,,,false,,,,649293.5,649293.400000006,,649293.200000003,,649297.042,8,400,,,
sequence,flow.Sequence,4_102,2023-09-11T21:15:39.335Z,,0,,,4246.188000005903,completion,,,,,false,,,,649293.599999994,649293.400000006,645030.546,645038.799999997,645047.212,649297.042,8,400,,,
trial,html.Screen,4_103_0,2023-09-11T21:15:42.731Z,,0,3,,3393.1580000029644,response,ISIC_4329176.JPG,8,ISIC_0069486.JPG,ISIC_4329176.JPG,false,1,keypress(m),500,652690.5,652690.200000003,649280.376,649293.900000006,649297.042,652696.906,8,400,4,,ISIC_0069486.JPG
break,html.Screen,4_103_1,2023-09-11T21:15:42.732Z,,0,,,NaN,,,,,,false,,,,652691.5,652691.299999997,,652690.799999997,,652696.906,8,400,,,
break_continue,html.Screen,4_103_2,2023-09-11T21:15:42.733Z,,0,,,NaN,,,,,,false,,,,652691.799999997,652691.599999994,,652691.599999994,,652696.906,8,400,,,
sequence,flow.Sequence,4_103,2023-09-11T21:15:42.733Z,,0,,,3394.5579999940237,completion,,,,,false,,,,652691.900000006,652691.599999994,649280.376,649293.799999997,649297.042,652696.906,8,400,,,
trial,html.Screen,4_104_0,2023-09-11T21:15:45.954Z,,0,3,,3215.9940000060014,response,ISIC_9986760.JPG,7,ISIC_2266011.JPG,ISIC_9986760.JPG,false,1,keypress(m),500,655913.400000006,655912.900000006,652680.24,652692.099999994,652696.906,655930.94,8,400,5,,ISIC_2266011.JPG
break,html.Screen,4_104_1,2023-09-11T21:15:45.955Z,,0,,,NaN,,,,,,false,,,,655914.400000006,655914.299999997,,655913.700000003,,655930.94,8,400,,,
break_continue,html.Screen,4_104_2,2023-09-11T21:15:45.956Z,,0,,,NaN,,,,,,false,,,,655914.799999997,655914.700000003,,655914.5,,655930.94,8,400,,,
sequence,flow.Sequence,4_104,2023-09-11T21:15:45.956Z,,0,,,3217.794000003021,completion,,,,,false,,,,655915,655914.700000003,652680.24,652692,652696.906,655930.94,8,400,,,
trial,html.Screen,4_105_0,2023-09-11T21:15:51.369Z,,0,3,,5396.859999997076,response,ISIC_1195689.JPG,8,ISIC_1513720.JPG,ISIC_1195689.JPG,false,1,keypress(m),500,661328.200000003,661327.799999997,655914.274,655915.200000003,655930.94,661330.724,8,400,6,,ISIC_1513720.JPG
break,html.Screen,4_105_1,2023-09-11T21:15:51.370Z,,0,,,NaN,,,,,,false,,,,661329.5,661329.200000003,,661328.599999994,,661330.724,8,400,,,
break_continue,html.Screen,4_105_2,2023-09-11T21:15:51.371Z,,0,,,NaN,,,,,,false,,,,661329.900000006,661329.700000003,,661329.599999994,,661330.724,8,400,,,
sequence,flow.Sequence,4_105,2023-09-11T21:15:51.371Z,,0,,,5398.760000003036,completion,,,,,false,,,,661330.099999994,661329.700000003,655914.274,655915.099999994,655930.94,661330.724,8,400,,,
trial,html.Screen,4_106_0,2023-09-11T21:15:54.273Z,,0,3,,2900.7759999999544,response,ISIC_4404772.JPG,8,ISIC_4943797.JPG,ISIC_4943797.JPG,false,0,keypress(z),500,664232,664231.5,661314.058,661330.200000003,661330.724,664247.274,8,400,7,,ISIC_4404772.JPG
break,html.Screen,4_106_1,2023-09-11T21:15:54.274Z,,0,,,NaN,,,,,,false,,,,664233.299999997,664233,,664232.400000006,,664247.274,8,400,,,
break_continue,html.Screen,4_106_2,2023-09-11T21:15:54.274Z,,0,,,NaN,,,,,,false,,,,664233.599999994,664233.5,,664233.400000006,,664247.274,8,400,,,
sequence,flow.Sequence,4_106,2023-09-11T21:15:54.274Z,,0,,,2902.7759999999544,completion,,,,,false,,,,664233.799999997,664233.5,661314.058,661330.200000003,661330.724,664247.274,8,400,,,
trial,html.Screen,4_107_0,2023-09-11T21:15:57.355Z,,0,3,,3067.1260000059847,response,ISIC_6780901.JPG,6,ISIC_8713330.JPG,ISIC_6780901.JPG,false,1,keypress(m),500,667314.599999994,667314.400000006,664230.608,664233.900000006,664247.274,667331.202,8,400,8,,ISIC_8713330.JPG
break,html.Screen,4_107_1,2023-09-11T21:15:57.356Z,,0,,,NaN,,,,,,false,,,,667315.400000006,667315.200000003,,667314.799999997,,667331.202,8,400,,,
break_continue,html.Screen,4_107_2,2023-09-11T21:15:57.356Z,,0,,,NaN,,,,,,false,,,,667315.700000003,667315.599999994,,667315.5,,667331.202,8,400,,,
sequence,flow.Sequence,4_107,2023-09-11T21:15:57.356Z,,0,,,3068.3259999940637,completion,,,,,false,,,,667315.900000006,667315.599999994,664230.608,664233.900000006,664247.274,667331.202,8,400,,,
trial,html.Screen,4_108_0,2023-09-11T21:16:02.800Z,,0,3,,5427.797999999952,response,ISIC_1504257.JPG,8,ISIC_4229473.JPG,ISIC_1504257.JPG,false,1,keypress(m),500,672759.400000006,672759,667314.536,667316,667331.202,672764.318,8,400,9,,ISIC_4229473.JPG
break,html.Screen,4_108_1,2023-09-11T21:16:02.801Z,,0,,,NaN,,,,,,false,,,,672760.299999997,672760.099999994,,672759.599999994,,672764.318,8,400,,,
break_continue,html.Screen,4_108_2,2023-09-11T21:16:02.801Z,,0,,,NaN,,,,,,false,,,,672760.599999994,672760.5,,672760.400000006,,672764.318,8,400,,,
sequence,flow.Sequence,4_108,2023-09-11T21:16:02.801Z,,0,,,5429.297999999952,completion,,,,,false,,,,672760.700000003,672760.5,667314.536,667315.900000006,667331.202,672764.318,8,400,,,
trial,html.Screen,4_109_0,2023-09-11T21:16:07.989Z,,0,3,,5184.08200000599,response,ISIC_0056784.JPG,7,ISIC_0033500.JPG,ISIC_0033500.JPG,false,0,keypress(z),500,677948.799999997,677948.400000006,672747.652,672760.900000006,672764.318,677965.028,8,400,10,,ISIC_0056784.JPG
break,html.Screen,4_109_1,2023-09-11T21:16:07.990Z,,0,,,NaN,,,,,,false,,,,677949.900000006,677949.700000003,,677949,,677965.028,8,400,,,
break_continue,html.Screen,4_109_2,2023-09-11T21:16:07.991Z,,0,,,NaN,,,,,,false,,,,677950.400000006,677950.200000003,,677950.099999994,,677965.028,8,400,,,
sequence,flow.Sequence,4_109,2023-09-11T21:16:07.991Z,,0,,,5185.88200000301,completion,,,,,false,,,,677950.5,677950.200000003,672747.652,672760.799999997,672764.318,677965.028,8,400,,,
trial,html.Screen,4_110_0,2023-09-11T21:16:12.389Z,,0,3,,4383.07199999399,response,ISIC_6701139.JPG,6,ISIC_0011857.JPG,ISIC_6701139.JPG,false,1,keypress(m),500,682348.599999994,682348.099999994,677948.362,677950.700000003,677965.028,682364.852,8,400,11,,ISIC_0011857.JPG
break,html.Screen,4_110_1,2023-09-11T21:16:12.390Z,,0,,,NaN,,,,,,false,,,,682349.799999997,682349.599999994,,682348.799999997,,682364.852,8,400,,,
break_continue,html.Screen,4_110_2,2023-09-11T21:16:12.390Z,,0,,,NaN,,,,,,false,,,,682350.099999994,682350.099999994,,682349.900000006,,682364.852,8,400,,,
sequence,flow.Sequence,4_110,2023-09-11T21:16:12.390Z,,0,,,4385.07199999399,completion,,,,,false,,,,682350.299999997,682350.099999994,677948.362,677950.599999994,677965.028,682364.852,8,400,,,
trial,html.Screen,4_111_0,2023-09-11T21:16:15.673Z,,0,3,,3267.4479999970645,response,ISIC_3868662.JPG,8,ISIC_0009918.JPG,ISIC_3868662.JPG,false,1,keypress(m),500,685632.799999997,685632.299999997,682348.186,682350.400000006,682364.852,685648.054,8,400,12,,ISIC_0009918.JPG
break,html.Screen,4_111_1,2023-09-11T21:16:15.674Z,,0,,,NaN,,,,,,false,,,,685633.900000006,685633.700000003,,685633,,685648.054,8,400,,,
break_continue,html.Screen,4_111_2,2023-09-11T21:16:15.674Z,,0,,,NaN,,,,,,false,,,,685634.299999997,685634.200000003,,685634.099999994,,685648.054,8,400,,,
sequence,flow.Sequence,4_111,2023-09-11T21:16:15.675Z,,0,,,3269.348000003025,completion,,,,,false,,,,685634.5,685634.200000003,682348.186,682350.400000006,682364.852,685648.054,8,400,,,
trial,html.Screen,4_112_0,2023-09-11T21:16:22.507Z,,0,3,,6818.945999999996,response,ISIC_0031914.JPG,9,ISIC_0068798.JPG,ISIC_0031914.JPG,false,1,keypress(m),500,692467.5,692467,685631.388,685634.700000003,685648.054,692481.834,8,400,13,,ISIC_0068798.JPG
break,html.Screen,4_112_1,2023-09-11T21:16:22.509Z,,0,,,NaN,,,,,,false,,,,692468.599999994,692468.299999997,,692467.700000003,,692481.834,8,400,,,
break_continue,html.Screen,4_112_2,2023-09-11T21:16:22.509Z,,0,,,NaN,,,,,,false,,,,692469,692468.900000006,,692468.799999997,,692481.834,8,400,,,
sequence,flow.Sequence,4_112,2023-09-11T21:16:22.509Z,,0,,,6820.846000005957,completion,,,,,false,,,,692469.200000003,692468.900000006,685631.388,685634.700000003,685648.054,692481.834,8,400,,,
trial,html.Screen,4_113_0,2023-09-11T21:16:28.531Z,,0,3,,6008.665999999968,response,ISIC_0033473.JPG,5,ISIC_0027021.JPG,ISIC_0033473.JPG,false,1,keypress(m),500,698490.900000006,698490.5,692465.168,692469.400000006,692481.834,698499.031,8,400,14,,ISIC_0027021.JPG
break,html.Screen,4_113_1,2023-09-11T21:16:28.532Z,,0,,,NaN,,,,,,false,,,,698491.799999997,698491.599999994,,698491.099999994,,698499.031,8,400,,,
break_continue,html.Screen,4_113_2,2023-09-11T21:16:28.532Z,,0,,,NaN,,,,,,false,,,,698492,698491.900000006,,698491.900000006,,698499.031,8,400,,,
sequence,flow.Sequence,4_113,2023-09-11T21:16:28.532Z,,0,,,6010.066000005929,completion,,,,,false,,,,698492.099999994,698491.900000006,692465.168,692469.299999997,692481.834,698499.031,8,400,,,
trial,html.Screen,4_114_0,2023-09-11T21:16:31.690Z,,0,3,,3150.7689999970607,response,ISIC_0028641.JPG,8,ISIC_0293086.JPG,ISIC_0028641.JPG,false,1,keypress(m),500,701650.299999997,701649.799999997,698482.365,698492.200000003,698499.031,701665.571,8,400,15,,ISIC_0293086.JPG
break,html.Screen,4_114_1,2023-09-11T21:16:31.691Z,,0,,,NaN,,,,,,false,,,,701651.400000006,701651.099999994,,701650.5,,701665.571,8,400,,,
break_continue,html.Screen,4_114_2,2023-09-11T21:16:31.692Z,,0,,,NaN,,,,,,false,,,,701651.700000003,701651.599999994,,701651.5,,701665.571,8,400,,,
sequence,flow.Sequence,4_114,2023-09-11T21:16:31.692Z,,0,,,3152.5689999940805,completion,,,,,false,,,,701652,701651.599999994,698482.365,698492.200000003,698499.031,701665.571,8,400,,,
trial,html.Screen,4_115_0,2023-09-11T21:16:39.116Z,,0,3,,7410.429000000004,response,ISIC_6717322.JPG,7,ISIC_1676261.JPG,ISIC_6717322.JPG,false,1,keypress(m),500,709076.5,709076,701648.905,701652.200000003,701665.571,709082.678,8,400,16,,ISIC_1676261.JPG
break,html.Screen,4_115_1,2023-09-11T21:16:39.117Z,,0,,,NaN,,,,,,false,,,,709077.599999994,709077.400000006,,709076.799999997,,709082.678,8,400,,,
break_continue,html.Screen,4_115_2,2023-09-11T21:16:39.118Z,,0,,,NaN,,,,,,false,,,,709078,709077.900000006,,709077.799999997,,709082.678,8,400,,,
sequence,flow.Sequence,4_115,2023-09-11T21:16:39.118Z,,0,,,7412.329000005964,completion,,,,,false,,,,709078.200000003,709077.900000006,701648.905,701652.200000003,701665.571,709082.678,8,400,,,
trial,html.Screen,4_116_0,2023-09-11T21:16:44.132Z,,0,3,,5009.1219999970635,response,ISIC_0033119.JPG,7,ISIC_0013457.JPG,ISIC_0013457.JPG,false,0,keypress(z),500,714092.299999997,714091.799999997,709066.012,709078.299999997,709082.678,714099.144,8,400,17,,ISIC_0033119.JPG
break,html.Screen,4_116_1,2023-09-11T21:16:44.133Z,,0,,,NaN,,,,,,false,,,,714093.400000006,714093.299999997,,714092.5,,714099.144,8,400,,,
break_continue,html.Screen,4_116_2,2023-09-11T21:16:44.133Z,,0,,,NaN,,,,,,false,,,,714093.799999997,714093.700000003,,714093.599999994,,714099.144,8,400,,,
sequence,flow.Sequence,4_116,2023-09-11T21:16:44.134Z,,0,,,5011.022000003024,completion,,,,,false,,,,714094,714093.700000003,709066.012,709078.299999997,709082.678,714099.144,8,400,,,
trial,html.Screen,4_117_0,2023-09-11T21:16:47.547Z,,0,3,,3408.2560000059893,response,ISIC_6533176.JPG,7,ISIC_0394030.JPG,ISIC_0394030.JPG,false,0,keypress(z),500,717507.799999997,717507.400000006,714082.478,714094.200000003,714099.144,717515.674,8,400,18,,ISIC_6533176.JPG
break,html.Screen,4_117_1,2023-09-11T21:16:47.548Z,,0,,,NaN,,,,,,false,,,,717508.599999994,717508.5,,717508,,717515.674,8,400,,,
break_continue,html.Screen,4_117_2,2023-09-11T21:16:47.548Z,,0,,,NaN,,,,,,false,,,,717508.900000006,717508.799999997,,717508.700000003,,717515.674,8,400,,,
sequence,flow.Sequence,4_117,2023-09-11T21:16:47.549Z,,0,,,3409.6559999970486,completion,,,,,false,,,,717509.099999994,717508.799999997,714082.478,714094.099999994,714099.144,717515.674,8,400,,,
trial,html.Screen,4_118_0,2023-09-11T21:16:52.208Z,,0,3,,4652.625999997021,response,ISIC_0032377.JPG,9,ISIC_0026272.JPG,ISIC_0032377.JPG,false,1,keypress(m),500,722168.799999997,722168.299999997,717499.008,717509.299999997,717515.674,722182.888,8,400,19,,ISIC_0026272.JPG
break,html.Screen,4_118_1,2023-09-11T21:16:52.209Z,,0,,,NaN,,,,,,false,,,,722170,722169.799999997,,722169,,722182.888,8,400,,,
break_continue,html.Screen,4_118_2,2023-09-11T21:16:52.210Z,,0,,,NaN,,,,,,false,,,,722170.299999997,722170.099999994,,722170.099999994,,722182.888,8,400,,,
sequence,flow.Sequence,4_118,2023-09-11T21:16:52.210Z,,0,,,4654.4259999940405,completion,,,,,false,,,,722170.5,722170.099999994,717499.008,717509.299999997,717515.674,722182.888,8,400,,,
trial,html.Screen,4_119_0,2023-09-11T21:16:57.671Z,,0,3,,5448.611999999965,response,ISIC_0055003.JPG,6,ISIC_0030002.JPG,ISIC_0030002.JPG,false,0,keypress(z),500,727631.900000006,727631.5,722166.222,722170.700000003,722182.888,727649.336,8,400,20,,ISIC_0055003.JPG
break,html.Screen,4_119_1,2023-09-11T21:16:57.672Z,,0,,,NaN,,,,,,false,,,,727633.099999994,727632.799999997,,727632.200000003,,727649.336,8,400,,,
break_continue,html.Screen,4_119_2,2023-09-11T21:16:57.673Z,,0,,,NaN,,,,,,false,,,,727633.5,727633.400000006,,727633.200000003,,727649.336,8,400,,,
sequence,flow.Sequence,4_119,2023-09-11T21:16:57.673Z,,0,,,5450.512000005925,completion,,,,,false,,,,727633.599999994,727633.400000006,722166.222,722170.599999994,722182.888,727649.336,8,400,,,
trial,html.Screen,4_120_0,2023-09-11T21:17:01.326Z,,0,3,,3637.4639999970095,response,ISIC_0059625.JPG,6,ISIC_8956001.JPG,ISIC_0059625.JPG,false,1,keypress(m),500,731287,731286.799999997,727632.67,727633.799999997,727649.336,731299.843,8,400,21,,ISIC_8956001.JPG
break,html.Screen,4_120_1,2023-09-11T21:17:01.327Z,,0,,,NaN,,,,,,false,,,,731288.099999994,731288,,731287.400000006,,731299.843,8,400,,,
break_continue,html.Screen,4_120_2,2023-09-11T21:17:01.328Z,,0,,,NaN,,,,,,false,,,,731288.400000006,731288.400000006,,731288.299999997,,731299.843,8,400,,,
sequence,flow.Sequence,4_120,2023-09-11T21:17:01.328Z,,0,,,3639.06400000595,completion,,,,,false,,,,731288.599999994,731288.400000006,727632.67,727633.700000003,727649.336,731299.843,8,400,,,
trial,html.Screen,4_121_0,2023-09-11T21:17:04.730Z,,0,3,,3390.6570000000065,response,ISIC_2324728.JPG,8,ISIC_3635014.JPG,ISIC_2324728.JPG,false,1,keypress(m),500,734691.099999994,734690.5,731283.177,731288.700000003,731299.843,734699.707,8,400,22,,ISIC_3635014.JPG
break,html.Screen,4_121_1,2023-09-11T21:17:04.731Z,,0,,,NaN,,,,,,false,,,,734692.400000006,734692.099999994,,734691.400000006,,734699.707,8,400,,,
break_continue,html.Screen,4_121_2,2023-09-11T21:17:04.732Z,,0,,,NaN,,,,,,false,,,,734692.700000003,734692.700000003,,734692.5,,734699.707,8,400,,,
sequence,flow.Sequence,4_121,2023-09-11T21:17:04.732Z,,0,,,3392.8570000029868,completion,,,,,false,,,,734692.900000006,734692.700000003,731283.177,731288.700000003,731299.843,734699.707,8,400,,,
trial,html.Screen,4_122_0,2023-09-11T21:17:09.650Z,,0,3,,4910.693000005907,response,ISIC_0033812.JPG,8,ISIC_5644242.JPG,ISIC_0033812.JPG,false,1,keypress(m),500,739610.900000006,739610.400000006,734683.041,734693.099999994,734699.707,739616.801,8,400,23,,ISIC_5644242.JPG
break,html.Screen,4_122_1,2023-09-11T21:17:09.651Z,,0,,,NaN,,,,,,false,,,,739612,739611.900000006,,739611.200000003,,739616.801,8,400,,,
break_continue,html.Screen,4_122_2,2023-09-11T21:17:09.651Z,,0,,,NaN,,,,,,false,,,,739612.5,739612.299999997,,739612.200000003,,739616.801,8,400,,,
sequence,flow.Sequence,4_122,2023-09-11T21:17:09.652Z,,0,,,4912.592999996967,completion,,,,,false,,,,739612.599999994,739612.299999997,734683.041,734693.099999994,734699.707,739616.801,8,400,,,
trial,html.Screen,4_123_0,2023-09-11T21:17:14.170Z,,0,3,,4513.599000005983,response,ISIC_9234944.JPG,7,ISIC_0064125.JPG,ISIC_9234944.JPG,false,1,keypress(m),500,744130.900000006,744130.400000006,739600.135,739612.700000003,739616.801,744133.287,8,400,24,,ISIC_0064125.JPG
break,html.Screen,4_123_1,2023-09-11T21:17:14.171Z,,0,,,NaN,,,,,,false,,,,744132,744131.799999997,,744131.200000003,,744133.287,8,400,,,
break_continue,html.Screen,4_123_2,2023-09-11T21:17:14.171Z,,0,,,NaN,,,,,,false,,,,744132.400000006,744132.299999997,,744132.099999994,,744133.287,8,400,,,
sequence,flow.Sequence,4_123,2023-09-11T21:17:14.172Z,,0,,,4515.498999997042,completion,,,,,false,,,,744132.599999994,744132.299999997,739600.135,739612.700000003,739616.801,744133.287,8,400,,,
trial,html.Screen,4_124_0,2023-09-11T21:17:18.113Z,,0,3,,3940.0129999970086,response,ISIC_0069398.JPG,9,ISIC_8161933.JPG,ISIC_0069398.JPG,false,1,keypress(m),500,748073.900000006,748073.299999997,744116.621,744132.799999997,744133.287,748083.129,8,400,25,,ISIC_8161933.JPG
break,html.Screen,4_124_1,2023-09-11T21:17:18.114Z,,0,,,NaN,,,,,,false,,,,748074.900000006,748074.799999997,,748074.099999994,,748083.129,8,400,,,
break_continue,html.Screen,4_124_2,2023-09-11T21:17:18.114Z,,0,,,NaN,,,,,,false,,,,748075.200000003,748075.200000003,,748075,,748083.129,8,400,,,
sequence,flow.Sequence,4_124,2023-09-11T21:17:18.114Z,,0,,,3941.913000002969,completion,,,,,false,,,,748075.400000006,748075.200000003,744116.621,744132.700000003,744133.287,748083.129,8,400,,,
trial,html.Screen,4_125_0,2023-09-11T21:17:23.816Z,,0,3,,5693.170999997063,response,ISIC_0900349.JPG,7,ISIC_0072631.JPG,ISIC_0900349.JPG,false,1,keypress(m),500,753776.799999997,753776.299999997,748066.463,748075.5,748083.129,753783.81,8,400,26,,ISIC_0072631.JPG
break,html.Screen,4_125_1,2023-09-11T21:17:23.817Z,,0,,,NaN,,,,,,false,,,,753778,753777.799999997,,753777.099999994,,753783.81,8,400,,,
break_continue,html.Screen,4_125_2,2023-09-11T21:17:23.817Z,,0,,,NaN,,,,,,false,,,,753778.400000006,753778.299999997,,753778.200000003,,753783.81,8,400,,,
sequence,flow.Sequence,4_125,2023-09-11T21:17:23.817Z,,0,,,5695.170999997063,completion,,,,,false,,,,753778.599999994,753778.299999997,748066.463,748075.400000006,748083.129,753783.81,8,400,,,
trial,html.Screen,4_126_0,2023-09-11T21:17:30.511Z,,0,3,,6688.189999999944,response,ISIC_4728167.JPG,8,ISIC_0026909.JPG,ISIC_4728167.JPG,false,1,keypress(m),500,760472.400000006,760472,753767.144,753778.700000003,753783.81,760484.188,8,400,27,,ISIC_0026909.JPG
break,html.Screen,4_126_1,2023-09-11T21:17:30.512Z,,0,,,NaN,,,,,,false,,,,760473.599999994,760473.400000006,,760472.700000003,,760484.188,8,400,,,
break_continue,html.Screen,4_126_2,2023-09-11T21:17:30.513Z,,0,,,NaN,,,,,,false,,,,760473.900000006,760473.799999997,,760473.700000003,,760484.188,8,400,,,
sequence,flow.Sequence,4_126,2023-09-11T21:17:30.513Z,,0,,,6689.989999996964,completion,,,,,false,,,,760474.099999994,760473.799999997,753767.144,753778.599999994,753783.81,760484.188,8,400,,,
