sender,sender_type,sender_id,timestamp,meta,,blockNo,condition,duration,ended_on,img_left,img_reveal,img_right,loser,practice,response,response_action,selection_duration,time_commit,time_end,time_render,time_run,time_show,time_switch,total_blocks,total_trials,trialNo,url,winner
informed_consent,html.Screen,0,2023-09-08T16:56:02.401Z,"{""labjs_version"":""20.2.4"",""labjs_build"":{""flavor"":""production"",""commit"":""f5b4a49f956347addd546a832a3327688c2c0fef""},""location"":""https://run.pavlovia.org/MurrayBennett/melanoma-2afc/?participant=636694f5d3b82c1a8279cf72&STUDY_ID=64f8c92207ba404bcb356c90&SESSION_ID=64fb51ebf840668dae982799&platform=prolific"",""userAgent"":""Mozilla/5.0 (Windows NT 10.0; Win64; x64) AppleWebKit/537.36 (KHTML, like Gecko) Chrome/116.0.0.0 Safari/537.36"",""platform"":""Win32"",""language"":""en-US"",""locale"":""en-US"",""timeZone"":""America/New_York"",""timezoneOffset"":240,""screen_width"":1366,""screen_height"":768,""scroll_width"":1366,""scroll_height"":595,""window_innerWidth"":1366,""window_innerHeight"":643,""devicePixelRatio"":1}",,,,43880.986999904635,response,,,,,,consent,click button,,47032.90000009537,47029.09999990463,3131.525,3127.5999999046326,3148.113,47055.13,,,,"{""participant"":""636694f5d3b82c1a8279cf72"",""STUDY_ID"":""64f8c92207ba404bcb356c90"",""SESSION_ID"":""64fb51ebf840668dae982799"",""platform"":""prolific""}",
Welcome,html.Screen,1,2023-09-08T16:56:35.115Z,,,,asymmetry,32689.870000000003,response,,,,,,continue,click button,,79746.90000009537,79745,47021.96,47033.59999990463,47055.13,79756.463,,,,,
trial,html.Screen,2_0_0,2023-09-08T16:56:42.891Z,,0,0,,7765.23700004768,response,ISIC_0069348.JPG,,ISIC_6997061.JPG,ISIC_6997061.JPG,true,0,keypress(z),500,87522.5,87521.70000004768,79739.824,79747.5,79756.463,87532.213,1,6,1,,ISIC_0069348.JPG
sequence,flow.Sequence,2_0,2023-09-08T16:56:42.892Z,,0,,,7765.23700004768,completion,,,,,true,,,,87523.5,87521.70000004768,79739.824,79747.40000009537,79756.463,87532.213,1,6,,,
trial,html.Screen,2_1_0,2023-09-08T16:56:48.511Z,,0,0,,5610.086999952313,response,ISIC_0057368.JPG,,ISIC_0009529.JPG,ISIC_0009529.JPG,true,0,keypress(z),500,93142.90000009537,93142.29999995232,87515.662,87523.90000009537,87532.213,93159.983,1,6,2,,ISIC_0057368.JPG
sequence,flow.Sequence,2_1,2023-09-08T16:56:48.512Z,,0,,,5610.086999952313,completion,,,,,true,,,,93143.59999990463,93142.29999995232,87515.662,87523.79999995232,87532.213,93159.983,1,6,,,
trial,html.Screen,2_2_0,2023-09-08T16:56:54.100Z,,0,0,,5571.61699990464,response,ISIC_9758671.JPG,,ISIC_0064954.JPG,ISIC_0064954.JPG,true,0,keypress(z),500,98732.20000004768,98731.59999990463,93143.476,93144.20000004768,93159.983,98737.84,1,6,3,,ISIC_9758671.JPG
sequence,flow.Sequence,2_2,2023-09-08T16:56:54.101Z,,0,,,5571.61699990464,completion,,,,,true,,,,98732.90000009537,98731.59999990463,93143.476,93143.90000009537,93159.983,98737.84,1,6,,,
trial,html.Screen,2_3_0,2023-09-08T16:56:57.836Z,,0,0,,3729.759999904636,response,ISIC_0005785.JPG,,ISIC_0000080.JPG,ISIC_0000080.JPG,true,0,keypress(z),500,102468.20000004768,102467.59999990463,98721.392,98733.5,98737.84,102484.171,1,6,4,,ISIC_0005785.JPG
sequence,flow.Sequence,2_3,2023-09-08T16:56:57.837Z,,0,,,3729.759999904636,completion,,,,,true,,,,102469.20000004768,102467.59999990463,98721.392,98733.29999995232,98737.84,102484.171,1,6,,,
trial,html.Screen,2_4_0,2023-09-08T16:57:01.169Z,,0,0,,3315.7290000953653,response,ISIC_5390060.JPG,,ISIC_7944028.JPG,ISIC_7944028.JPG,true,0,keypress(z),500,105800.70000004768,105799.90000009537,102467.615,102469.79999995232,102484.171,105814.242,1,6,5,,ISIC_5390060.JPG
sequence,flow.Sequence,2_4,2023-09-08T16:57:01.170Z,,0,,,3315.7290000953653,completion,,,,,true,,,,105801.5,105799.90000009537,102467.615,102469.59999990463,102484.171,105814.242,1,6,,,
trial,html.Screen,2_5_0,2023-09-08T16:57:05.451Z,,0,0,,4267.658000095369,response,ISIC_0794216.JPG,,ISIC_0010188.JPG,ISIC_0794216.JPG,true,1,keypress(m),500,110082.59999990463,110081.90000009537,105797.599,105802,105814.242,110093.395,1,6,6,,ISIC_0010188.JPG
sequence,flow.Sequence,2_5,2023-09-08T16:57:05.452Z,,0,,,4267.658000095369,completion,,,,,true,,,,110083.40000009537,110081.90000009537,105797.599,105801.79999995232,105814.242,110093.395,1,6,,,
loop,flow.Loop,2,2023-09-08T16:57:05.452Z,,,,,30325.437000095364,completion,,,,,true,,,,110084.09999990463,110081.90000009537,79739.824,79747.29999995232,79756.463,110093.395,1,6,,,
exp_instructions,html.Screen,3,2023-09-08T16:57:12.952Z,,,,,7488.7049999046285,response,,,,,,continue,keypress(Space),,117583.59999990463,117582.09999990463,110077.034,110084.40000009537,110093.395,117603.599,,,,,
trial,html.Screen,4_0_0,2023-09-08T16:57:17.383Z,,0,1,,4410.801000095365,response,ISIC_6125358.JPG,5,ISIC_0010251.JPG,ISIC_6125358.JPG,false,1,keypress(m),500,122015,122014.40000009537,117569.592,117584.20000004768,117603.599,122031.656,8,400,1,,ISIC_0010251.JPG
break,html.Screen,4_0_1,2023-09-08T16:57:17.386Z,,0,,,NaN,,,,,,false,,,,122017.59999990463,122016.90000009537,,122015.5,,122031.656,8,400,,,
break_continue,html.Screen,4_0_2,2023-09-08T16:57:17.387Z,,0,,,NaN,,,,,,false,,,,122019,122018.59999990463,,122018,,122031.656,8,400,,,
sequence,flow.Sequence,4_0,2023-09-08T16:57:17.388Z,,0,,,4415.000999904631,completion,,,,,false,,,,122019.5,122018.59999990463,117569.592,117584.20000004768,117603.599,122031.656,8,400,,,
trial,html.Screen,4_1_0,2023-09-08T16:57:21.735Z,,0,1,,4334.244000095365,response,ISIC_0025409.JPG,5,ISIC_0028915.JPG,ISIC_0028915.JPG,false,0,keypress(z),500,126366.5,126365.90000009537,122015.256,122019.90000009537,122031.656,126377.434,8,400,2,,ISIC_0025409.JPG
break,html.Screen,4_1_1,2023-09-08T16:57:21.737Z,,0,,,NaN,,,,,,false,,,,126368.40000009537,126367.79999995232,,126366.90000009537,,126377.434,8,400,,,
break_continue,html.Screen,4_1_2,2023-09-08T16:57:21.738Z,,0,,,NaN,,,,,,false,,,,126369.5,126369.20000004768,,126368.79999995232,,126377.434,8,400,,,
sequence,flow.Sequence,4_1,2023-09-08T16:57:21.738Z,,0,,,4337.544000047681,completion,,,,,false,,,,126370,126369.20000004768,122015.256,122019.79999995232,122031.656,126377.434,8,400,,,
trial,html.Screen,4_2_0,2023-09-08T16:57:24.959Z,,0,1,,3212.3659999523225,response,ISIC_0011045.JPG,5,ISIC_0014694.JPG,ISIC_0014694.JPG,false,0,keypress(z),500,129590.29999995232,129589.79999995232,126361.084,126370.40000009537,126377.434,129607.761,8,400,3,,ISIC_0011045.JPG
break,html.Screen,4_2_1,2023-09-08T16:57:24.961Z,,0,,,NaN,,,,,,false,,,,129592.29999995232,129591.70000004768,,129590.70000004768,,129607.761,8,400,,,
break_continue,html.Screen,4_2_2,2023-09-08T16:57:24.962Z,,0,,,NaN,,,,,,false,,,,129593.40000009537,129593.09999990463,,129592.70000004768,,129607.761,8,400,,,
sequence,flow.Sequence,4_2,2023-09-08T16:57:24.962Z,,0,,,3215.6659999046387,completion,,,,,false,,,,129593.90000009537,129593.09999990463,126361.084,126370.20000004768,126377.434,129607.761,8,400,,,
trial,html.Screen,4_3_0,2023-09-08T16:57:28.007Z,,0,1,,3030.639000095369,response,ISIC_0204355.JPG,6,ISIC_4730433.JPG,ISIC_0204355.JPG,false,1,keypress(m),500,132638.90000009537,132638.40000009537,129591.144,129594.29999995232,129607.761,132654.615,8,400,4,,ISIC_4730433.JPG
break,html.Screen,4_3_1,2023-09-08T16:57:28.009Z,,0,,,NaN,,,,,,false,,,,132640.79999995232,132640.20000004768,,132639.29999995232,,132654.615,8,400,,,
break_continue,html.Screen,4_3_2,2023-09-08T16:57:28.010Z,,0,,,NaN,,,,,,false,,,,132641.79999995232,132641.59999990463,,132641.20000004768,,132654.615,8,400,,,
sequence,flow.Sequence,4_3,2023-09-08T16:57:28.011Z,,0,,,3033.838999904634,completion,,,,,false,,,,132642.40000009537,132641.59999990463,129591.144,129594.09999990463,129607.761,132654.615,8,400,,,
trial,html.Screen,4_4_0,2023-09-08T16:57:31.331Z,,0,1,,3307.2850000953767,response,ISIC_0013867.JPG,5,ISIC_5768602.JPG,ISIC_0013867.JPG,false,1,keypress(m),500,135962.40000009537,135961.90000009537,132638.048,132642.70000004768,132654.615,135968.053,8,400,5,,ISIC_5768602.JPG
break,html.Screen,4_4_1,2023-09-08T16:57:31.333Z,,0,,,NaN,,,,,,false,,,,135964.70000004768,135964.20000004768,,135962.90000009537,,135968.053,8,400,,,
break_continue,html.Screen,4_4_2,2023-09-08T16:57:31.334Z,,0,,,NaN,,,,,,false,,,,135965.79999995232,135965.5,,135965.09999990463,,135968.053,8,400,,,
sequence,flow.Sequence,4_4,2023-09-08T16:57:31.335Z,,0,,,3310.8850000000093,completion,,,,,false,,,,135966.29999995232,135965.5,132638.048,132642.70000004768,132654.615,135968.053,8,400,,,
trial,html.Screen,4_5_0,2023-09-08T16:57:34.555Z,,0,1,,3218.1470000476693,response,ISIC_8535451.JPG,5,ISIC_6334958.JPG,ISIC_8535451.JPG,false,1,keypress(m),500,139186.59999990463,139186.20000004768,135951.675,135966.79999995232,135968.053,139198.221,8,400,6,,ISIC_6334958.JPG
break,html.Screen,4_5_1,2023-09-08T16:57:34.557Z,,0,,,NaN,,,,,,false,,,,139188.59999990463,139188.09999990463,,139187.09999990463,,139198.221,8,400,,,
break_continue,html.Screen,4_5_2,2023-09-08T16:57:34.558Z,,0,,,NaN,,,,,,false,,,,139189.90000009537,139189.5,,139189.20000004768,,139198.221,8,400,,,
sequence,flow.Sequence,4_5,2023-09-08T16:57:34.559Z,,0,,,3221.4469999999856,completion,,,,,false,,,,139190.5,139189.5,135951.675,135966.59999990463,135968.053,139198.221,8,400,,,
trial,html.Screen,4_6_0,2023-09-08T16:57:38.054Z,,0,1,,3487.179000095377,response,ISIC_8094432.JPG,6,ISIC_0026402.JPG,ISIC_8094432.JPG,false,1,keypress(m),500,142685.59999990463,142685.40000009537,139181.54,139190.90000009537,139198.221,142711.394,8,400,7,,ISIC_0026402.JPG
break,html.Screen,4_6_1,2023-09-08T16:57:38.055Z,,0,,,NaN,,,,,,false,,,,142686.29999995232,142686.20000004768,,142685.70000004768,,142711.394,8,400,,,
break_continue,html.Screen,4_6_2,2023-09-08T16:57:38.055Z,,0,,,NaN,,,,,,false,,,,142686.59999990463,142686.59999990463,,142686.5,,142711.394,8,400,,,
sequence,flow.Sequence,4_6,2023-09-08T16:57:38.055Z,,0,,,3488.378999904642,completion,,,,,false,,,,142686.79999995232,142686.59999990463,139181.54,139190.70000004768,139198.221,142711.394,8,400,,,
trial,html.Screen,4_7_0,2023-09-08T16:57:42.073Z,,0,1,,3992.8060000476835,response,ISIC_6066292.JPG,4,ISIC_0231167.JPG,ISIC_0231167.JPG,false,0,keypress(z),500,146704.70000004768,146704.20000004768,142694.781,142686.90000009537,142711.394,146707.491,8,400,8,,ISIC_6066292.JPG
break,html.Screen,4_7_1,2023-09-08T16:57:42.075Z,,0,,,NaN,,,,,,false,,,,146706.59999990463,146706,,146705.20000004768,,146707.491,8,400,,,
break_continue,html.Screen,4_7_2,2023-09-08T16:57:42.076Z,,0,,,NaN,,,,,,false,,,,146707.70000004768,146707.29999995232,,146706.90000009537,,146707.491,8,400,,,
sequence,flow.Sequence,4_7,2023-09-08T16:57:42.077Z,,0,,,3995.905999952316,completion,,,,,false,,,,146708.29999995232,146707.29999995232,142694.781,142686.79999995232,142711.394,146707.491,8,400,,,
trial,html.Screen,4_8_0,2023-09-08T16:57:45.927Z,,0,1,,3850.508999999991,response,ISIC_6801680.JPG,5,ISIC_7421214.JPG,ISIC_6801680.JPG,false,1,keypress(m),500,150558.40000009537,150558,146690.975,146708.59999990463,146707.491,150570.393,8,400,9,,ISIC_7421214.JPG
break,html.Screen,4_8_1,2023-09-08T16:57:45.929Z,,0,,,NaN,,,,,,false,,,,150560.40000009537,150559.70000004768,,150558.90000009537,,150570.393,8,400,,,
break_continue,html.Screen,4_8_2,2023-09-08T16:57:45.930Z,,0,,,NaN,,,,,,false,,,,150561.5,150561.20000004768,,150560.70000004768,,150570.393,8,400,,,
sequence,flow.Sequence,4_8,2023-09-08T16:57:45.930Z,,0,,,3853.7090000476746,completion,,,,,false,,,,150561.90000009537,150561.20000004768,146690.975,146708.40000009537,146707.491,150570.393,8,400,,,
trial,html.Screen,4_9_0,2023-09-08T16:57:49.999Z,,0,1,,4059.4069999523053,response,ISIC_1585370.JPG,5,ISIC_0000554.JPG,ISIC_1585370.JPG,false,1,keypress(m),500,154630.20000004768,154629.79999995232,150553.918,150562.29999995232,150570.393,154633.059,8,400,10,,ISIC_0000554.JPG
break,html.Screen,4_9_1,2023-09-08T16:57:50.001Z,,0,,,NaN,,,,,,false,,,,154632.29999995232,154631.59999990463,,154630.70000004768,,154633.059,8,400,,,
break_continue,html.Screen,4_9_2,2023-09-08T16:57:50.002Z,,0,,,NaN,,,,,,false,,,,154633.40000009537,154633,,154632.59999990463,,154633.059,8,400,,,
sequence,flow.Sequence,4_9,2023-09-08T16:57:50.002Z,,0,,,4062.606999999989,completion,,,,,false,,,,154633.79999995232,154633,150553.918,150562.20000004768,150570.393,154633.059,8,400,,,
trial,html.Screen,4_10_0,2023-09-08T16:57:52.797Z,,0,1,,2795.040999904624,response,ISIC_0010773.JPG,6,ISIC_0060741.JPG,ISIC_0060741.JPG,false,0,keypress(z),500,157428.5,157428.09999990463,154616.713,154634.20000004768,154633.059,157447.989,8,400,11,,ISIC_0010773.JPG
break,html.Screen,4_10_1,2023-09-08T16:57:52.799Z,,0,,,NaN,,,,,,false,,,,157430.40000009537,157429.79999995232,,157429,,157447.989,8,400,,,
break_continue,html.Screen,4_10_2,2023-09-08T16:57:52.800Z,,0,,,NaN,,,,,,false,,,,157431.59999990463,157431.29999995232,,157430.79999995232,,157447.989,8,400,,,
sequence,flow.Sequence,4_10,2023-09-08T16:57:52.800Z,,0,,,2798.240999952308,completion,,,,,false,,,,157432,157431.29999995232,154616.713,154634.09999990463,154633.059,157447.989,8,400,,,
trial,html.Screen,4_11_0,2023-09-08T16:57:55.636Z,,0,1,,2819.0109999999986,response,ISIC_0064095.JPG,5,ISIC_0070447.JPG,ISIC_0070447.JPG,false,0,keypress(z),500,160267.40000009537,160267,157413.742,157432.40000009537,157447.989,160277.656,8,400,12,,ISIC_0064095.JPG
break,html.Screen,4_11_1,2023-09-08T16:57:55.638Z,,0,,,NaN,,,,,,false,,,,160269.5,160269,,160268,,160277.656,8,400,,,
break_continue,html.Screen,4_11_2,2023-09-08T16:57:55.639Z,,0,,,NaN,,,,,,false,,,,160270.5,160270.20000004768,,160269.79999995232,,160277.656,8,400,,,
sequence,flow.Sequence,4_11,2023-09-08T16:57:55.639Z,,0,,,2822.2110000476823,completion,,,,,false,,,,160271,160270.20000004768,157413.742,157432.40000009537,157447.989,160277.656,8,400,,,
trial,html.Screen,4_12_0,2023-09-08T16:57:59.483Z,,0,1,,3836.344000000012,response,ISIC_5552381.JPG,5,ISIC_2458609.JPG,ISIC_2458609.JPG,false,0,keypress(z),500,164114.40000009537,164114,160261.052,160271.40000009537,160277.656,164123.741,8,400,13,,ISIC_5552381.JPG
break,html.Screen,4_12_1,2023-09-08T16:57:59.484Z,,0,,,NaN,,,,,,false,,,,164116.09999990463,164115.5,,164114.79999995232,,164123.741,8,400,,,
break_continue,html.Screen,4_12_2,2023-09-08T16:57:59.485Z,,0,,,NaN,,,,,,false,,,,164117.20000004768,164116.90000009537,,164116.40000009537,,164123.741,8,400,,,
sequence,flow.Sequence,4_12,2023-09-08T16:57:59.486Z,,0,,,3839.2440000953793,completion,,,,,false,,,,164117.59999990463,164116.90000009537,160261.052,160271.29999995232,160277.656,164123.741,8,400,,,
trial,html.Screen,4_13_0,2023-09-08T16:58:03.202Z,,0,1,,3709.1590000953584,response,ISIC_0072041.JPG,5,ISIC_0068080.JPG,ISIC_0072041.JPG,false,1,keypress(m),500,167833.40000009537,167832.90000009537,164107.263,164118,164123.741,167836.779,8,400,14,,ISIC_0068080.JPG
break,html.Screen,4_13_1,2023-09-08T16:58:03.204Z,,0,,,NaN,,,,,,false,,,,167835.70000004768,167835.09999990463,,167833.90000009537,,167836.779,8,400,,,
break_continue,html.Screen,4_13_2,2023-09-08T16:58:03.205Z,,0,,,NaN,,,,,,false,,,,167836.90000009537,167836.5,,167836.09999990463,,167836.779,8,400,,,
sequence,flow.Sequence,4_13,2023-09-08T16:58:03.206Z,,0,,,3712.758999999991,completion,,,,,false,,,,167837.5,167836.5,164107.263,164117.90000009537,164123.741,167836.779,8,400,,,
trial,html.Screen,4_14_0,2023-09-08T16:58:06.094Z,,0,1,,2888.121000095358,response,ISIC_0031221.JPG,5,ISIC_8127394.JPG,ISIC_0031221.JPG,false,1,keypress(m),500,170725.29999995232,170724.90000009537,167820.177,167838,167836.779,170734.037,8,400,15,,ISIC_8127394.JPG
break,html.Screen,4_14_1,2023-09-08T16:58:06.096Z,,0,,,NaN,,,,,,false,,,,170727.29999995232,170726.70000004768,,170725.79999995232,,170734.037,8,400,,,
break_continue,html.Screen,4_14_2,2023-09-08T16:58:06.099Z,,0,,,NaN,,,,,,false,,,,170730.5,170728.20000004768,,170727.79999995232,,170734.037,8,400,,,
sequence,flow.Sequence,4_14,2023-09-08T16:58:06.099Z,,0,,,2891.421000047674,completion,,,,,false,,,,170731.09999990463,170728.20000004768,167820.177,167837.90000009537,167836.779,170734.037,8,400,,,
trial,html.Screen,4_15_0,2023-09-08T16:58:11.543Z,,0,1,,5440.363000095356,response,ISIC_0055491.JPG,6,ISIC_7462953.JPG,ISIC_7462953.JPG,false,0,keypress(z),500,176174.79999995232,176174.40000009537,170717.402,170731.5,170734.037,176178.612,8,400,16,,ISIC_0055491.JPG
break,html.Screen,4_15_1,2023-09-08T16:58:11.545Z,,0,,,NaN,,,,,,false,,,,176176.90000009537,176176.20000004768,,176175.40000009537,,176178.612,8,400,,,
break_continue,html.Screen,4_15_2,2023-09-08T16:58:11.546Z,,0,,,NaN,,,,,,false,,,,176177.90000009537,176177.70000004768,,176177.20000004768,,176178.612,8,400,,,
sequence,flow.Sequence,4_15,2023-09-08T16:58:11.547Z,,0,,,5443.6630000476725,completion,,,,,false,,,,176178.5,176177.70000004768,170717.402,170731.29999995232,170734.037,176178.612,8,400,,,
trial,html.Screen,4_16_0,2023-09-08T16:58:14.367Z,,0,1,,2819.487999904639,response,ISIC_1706912.JPG,4,ISIC_0067339.JPG,ISIC_1706912.JPG,false,1,keypress(m),500,178998.59999990463,178998.09999990463,176162.254,176178.79999995232,176178.612,179009.217,8,400,17,,ISIC_0067339.JPG
break,html.Screen,4_16_1,2023-09-08T16:58:14.369Z,,0,,,NaN,,,,,,false,,,,179000.5,178999.79999995232,,178999,,179009.217,8,400,,,
break_continue,html.Screen,4_16_2,2023-09-08T16:58:14.370Z,,0,,,NaN,,,,,,false,,,,179001.70000004768,179001.40000009537,,179000.79999995232,,179009.217,8,400,,,
sequence,flow.Sequence,4_16,2023-09-08T16:58:14.371Z,,0,,,2822.7880000953737,completion,,,,,false,,,,179002.29999995232,179001.40000009537,176162.254,176178.70000004768,176178.612,179009.217,8,400,,,
trial,html.Screen,4_17_0,2023-09-08T16:58:18.391Z,,0,1,,4013.1830000953632,response,ISIC_0064472.JPG,5,ISIC_0011797.JPG,ISIC_0064472.JPG,false,1,keypress(m),500,183022.90000009537,183022.40000009537,178992.814,179002.59999990463,179009.217,183038.562,8,400,18,,ISIC_0011797.JPG
break,html.Screen,4_17_1,2023-09-08T16:58:18.393Z,,0,,,NaN,,,,,,false,,,,183024.90000009537,183024.29999995232,,183023.40000009537,,183038.562,8,400,,,
break_continue,html.Screen,4_17_2,2023-09-08T16:58:18.394Z,,0,,,NaN,,,,,,false,,,,183025.79999995232,183025.5,,183025.20000004768,,183038.562,8,400,,,
sequence,flow.Sequence,4_17,2023-09-08T16:58:18.395Z,,0,,,4016.282999999996,completion,,,,,false,,,,183026.29999995232,183025.5,178992.814,179002.5,179009.217,183038.562,8,400,,,
trial,html.Screen,4_18_0,2023-09-08T16:58:21.680Z,,0,1,,3272.237999952311,response,ISIC_5591622.JPG,4,ISIC_0028341.JPG,ISIC_5591622.JPG,false,1,keypress(m),500,186311.40000009537,186310.79999995232,183021.952,183026.70000004768,183038.562,186318.689,8,400,19,,ISIC_0028341.JPG
break,html.Screen,4_18_1,2023-09-08T16:58:21.682Z,,0,,,NaN,,,,,,false,,,,186313.5,186312.90000009537,,186311.79999995232,,186318.689,8,400,,,
break_continue,html.Screen,4_18_2,2023-09-08T16:58:21.683Z,,0,,,NaN,,,,,,false,,,,186314.5,186314.29999995232,,186313.90000009537,,186318.689,8,400,,,
sequence,flow.Sequence,4_18,2023-09-08T16:58:21.683Z,,0,,,3275.737999952311,completion,,,,,false,,,,186315.09999990463,186314.29999995232,183021.952,183026.59999990463,183038.562,186318.689,8,400,,,
trial,html.Screen,4_19_0,2023-09-08T16:58:25.479Z,,0,1,,3791.310999999987,response,ISIC_0033226.JPG,5,ISIC_0026738.JPG,ISIC_0033226.JPG,false,1,keypress(m),500,190110.5,190110,186302.085,186315.5,186318.689,190114.971,8,400,20,,ISIC_0026738.JPG
break,html.Screen,4_19_1,2023-09-08T16:58:25.481Z,,0,,,NaN,,,,,,false,,,,190112.5,190111.79999995232,,190111,,190114.971,8,400,,,
break_continue,html.Screen,4_19_2,2023-09-08T16:58:25.482Z,,0,,,NaN,,,,,,false,,,,190113.79999995232,190113.29999995232,,190112.79999995232,,190114.971,8,400,,,
sequence,flow.Sequence,4_19,2023-09-08T16:58:25.483Z,,0,,,3794.6109999523032,completion,,,,,false,,,,190114.29999995232,190113.29999995232,186302.085,186315.40000009537,186318.689,190114.971,8,400,,,
trial,html.Screen,4_20_0,2023-09-08T16:58:28.814Z,,0,1,,3331.0290000000095,response,ISIC_0001110.JPG,5,ISIC_0070463.JPG,ISIC_0070463.JPG,false,0,keypress(z),500,193446.20000004768,193446,190098.399,190115.09999990463,190114.971,193461.646,8,400,21,,ISIC_0001110.JPG
break,html.Screen,4_20_1,2023-09-08T16:58:28.815Z,,0,,,NaN,,,,,,false,,,,193447.09999990463,193446.70000004768,,193446.29999995232,,193461.646,8,400,,,
break_continue,html.Screen,4_20_2,2023-09-08T16:58:28.816Z,,0,,,NaN,,,,,,false,,,,193447.5,193447.29999995232,,193447.09999990463,,193461.646,8,400,,,
sequence,flow.Sequence,4_20,2023-09-08T16:58:28.816Z,,0,,,3332.328999952326,completion,,,,,false,,,,193447.59999990463,193447.29999995232,190098.399,190114.70000004768,190114.971,193461.646,8,400,,,
trial,html.Screen,4_21_0,2023-09-08T16:58:33.698Z,,0,1,,4867.853999999992,response,ISIC_0032622.JPG,5,ISIC_0254517.JPG,ISIC_0254517.JPG,false,0,keypress(z),500,198330,198329.5,193445.36,193447.79999995232,193461.646,198340.267,8,400,22,,ISIC_0032622.JPG
break,html.Screen,4_21_1,2023-09-08T16:58:33.701Z,,0,,,NaN,,,,,,false,,,,198332.29999995232,198331.70000004768,,198330.5,,198340.267,8,400,,,
break_continue,html.Screen,4_21_2,2023-09-08T16:58:33.702Z,,0,,,NaN,,,,,,false,,,,198333.29999995232,198333,,198332.59999990463,,198340.267,8,400,,,
sequence,flow.Sequence,4_21,2023-09-08T16:58:33.702Z,,0,,,4871.353999999992,completion,,,,,false,,,,198333.79999995232,198333,193445.36,193447.70000004768,193461.646,198340.267,8,400,,,
trial,html.Screen,4_22_0,2023-09-08T16:58:37.274Z,,0,1,,3564.933000047691,response,ISIC_0031304.JPG,5,ISIC_1776777.JPG,ISIC_1776777.JPG,false,0,keypress(z),500,201905.70000004768,201905.20000004768,198323.789,198334.20000004768,198340.267,201920.059,8,400,23,,ISIC_0031304.JPG
break,html.Screen,4_22_1,2023-09-08T16:58:37.276Z,,0,,,NaN,,,,,,false,,,,201907.70000004768,201907.20000004768,,201906.20000004768,,201920.059,8,400,,,
break_continue,html.Screen,4_22_2,2023-09-08T16:58:37.277Z,,0,,,NaN,,,,,,false,,,,201908.90000009537,201908.40000009537,,201908,,201920.059,8,400,,,
sequence,flow.Sequence,4_22,2023-09-08T16:58:37.278Z,,0,,,3568.133000095375,completion,,,,,false,,,,201909.29999995232,201908.40000009537,198323.789,198334.09999990463,198340.267,201920.059,8,400,,,
trial,html.Screen,4_23_0,2023-09-08T16:58:40.563Z,,0,1,,3274.240999952308,response,ISIC_3586824.JPG,5,ISIC_0296109.JPG,ISIC_3586824.JPG,false,1,keypress(m),500,205194.79999995232,205194.29999995232,201903.594,201909.70000004768,201920.059,205200.174,8,400,24,,ISIC_0296109.JPG
break,html.Screen,4_23_1,2023-09-08T16:58:40.565Z,,0,,,NaN,,,,,,false,,,,205196.79999995232,205196.09999990463,,205195.29999995232,,205200.174,8,400,,,
break_continue,html.Screen,4_23_2,2023-09-08T16:58:40.566Z,,0,,,NaN,,,,,,false,,,,205197.79999995232,205197.5,,205197.09999990463,,205200.174,8,400,,,
sequence,flow.Sequence,4_23,2023-09-08T16:58:40.567Z,,0,,,3277.4409999999916,completion,,,,,false,,,,205198.29999995232,205197.5,201903.594,201909.59999990463,201920.059,205200.174,8,400,,,
trial,html.Screen,4_24_0,2023-09-08T16:58:43.711Z,,0,1,,3141.826000000001,response,ISIC_7198887.JPG,4,ISIC_7592920.JPG,ISIC_7592920.JPG,false,0,keypress(z),500,208342.59999990463,208342,205183.714,205198.70000004768,205200.174,208364.052,8,400,25,,ISIC_7198887.JPG
break,html.Screen,4_24_1,2023-09-08T16:58:43.713Z,,0,,,NaN,,,,,,false,,,,208344.5,208343.90000009537,,208343.09999990463,,208364.052,8,400,,,
break_continue,html.Screen,4_24_2,2023-09-08T16:58:43.714Z,,0,,,NaN,,,,,,false,,,,208345.59999990463,208345.20000004768,,208344.79999995232,,208364.052,8,400,,,
sequence,flow.Sequence,4_24,2023-09-08T16:58:43.714Z,,0,,,3145.0260000476846,completion,,,,,false,,,,208346,208345.20000004768,205183.714,205198.59999990463,205200.174,208364.052,8,400,,,
trial,html.Screen,4_25_0,2023-09-08T16:58:48.438Z,,0,1,,4705.148000047688,response,ISIC_0394030.JPG,5,ISIC_2376758.JPG,ISIC_0394030.JPG,false,1,keypress(m),500,213069.59999990463,213069.20000004768,208347.175,208346.40000009537,208364.052,213075.805,8,400,26,,ISIC_2376758.JPG
break,html.Screen,4_25_1,2023-09-08T16:58:48.440Z,,0,,,NaN,,,,,,false,,,,213071.5,213071,,213070.09999990463,,213075.805,8,400,,,
break_continue,html.Screen,4_25_2,2023-09-08T16:58:48.441Z,,0,,,NaN,,,,,,false,,,,213072.59999990463,213072.29999995232,,213071.90000009537,,213075.805,8,400,,,
sequence,flow.Sequence,4_25,2023-09-08T16:58:48.441Z,,0,,,4708.24799995232,completion,,,,,false,,,,213073,213072.29999995232,208347.175,208346.20000004768,208364.052,213075.805,8,400,,,
trial,html.Screen,4_26_0,2023-09-08T16:58:51.907Z,,0,1,,3461.8950000476907,response,ISIC_0010046.JPG,5,ISIC_4961708.JPG,ISIC_4961708.JPG,false,0,keypress(z),500,216538.20000004768,216537.70000004768,213059.13,213073.5,213075.805,216555.731,8,400,27,,ISIC_0010046.JPG
break,html.Screen,4_26_1,2023-09-08T16:58:51.909Z,,0,,,NaN,,,,,,false,,,,216540.29999995232,216539.59999990463,,216538.79999995232,,216555.731,8,400,,,
break_continue,html.Screen,4_26_2,2023-09-08T16:58:51.910Z,,0,,,NaN,,,,,,false,,,,216541.40000009537,216541.09999990463,,216540.70000004768,,216555.731,8,400,,,
sequence,flow.Sequence,4_26,2023-09-08T16:58:51.911Z,,0,,,3465.2949999046396,completion,,,,,false,,,,216542.59999990463,216541.09999990463,213059.13,213073.29999995232,213075.805,216555.731,8,400,,,
trial,html.Screen,4_27_0,2023-09-08T16:58:55.802Z,,0,1,,3877.469000047684,response,ISIC_0034118.JPG,4,ISIC_2287083.JPG,ISIC_2287083.JPG,false,0,keypress(z),500,220433.79999995232,220433.20000004768,216539.395,216543,216555.731,220451.936,8,400,28,,ISIC_0034118.JPG
break,html.Screen,4_27_1,2023-09-08T16:58:55.804Z,,0,,,NaN,,,,,,false,,,,220435.70000004768,220435.09999990463,,220434.09999990463,,220451.936,8,400,,,
break_continue,html.Screen,4_27_2,2023-09-08T16:58:55.805Z,,0,,,NaN,,,,,,false,,,,220436.70000004768,220436.40000009537,,220436,,220451.936,8,400,,,
sequence,flow.Sequence,4_27,2023-09-08T16:58:55.806Z,,0,,,3880.6690000953677,completion,,,,,false,,,,220437.20000004768,220436.40000009537,216539.395,216542.79999995232,216555.731,220451.936,8,400,,,
trial,html.Screen,4_28_0,2023-09-08T16:59:01.010Z,,0,1,,5188.863999952329,response,ISIC_0060585.JPG,4,ISIC_0024802.JPG,ISIC_0060585.JPG,false,1,keypress(m),500,225641.40000009537,225640.79999995232,220418.723,220437.59999990463,220451.936,225646.833,8,400,29,,ISIC_0024802.JPG
break,html.Screen,4_28_1,2023-09-08T16:59:01.012Z,,0,,,NaN,,,,,,false,,,,225643.59999990463,225642.79999995232,,225642.09999990463,,225646.833,8,400,,,
break_continue,html.Screen,4_28_2,2023-09-08T16:59:01.013Z,,0,,,NaN,,,,,,false,,,,225644.59999990463,225644.29999995232,,225644,,225646.833,8,400,,,
sequence,flow.Sequence,4_28,2023-09-08T16:59:01.013Z,,0,,,5192.363999952329,completion,,,,,false,,,,225645.20000004768,225644.29999995232,220418.723,220437.5,220451.936,225646.833,8,400,,,
trial,html.Screen,4_29_0,2023-09-08T16:59:05.594Z,,0,1,,4578.266999904619,response,ISIC_0063980.JPG,6,ISIC_0029250.JPG,ISIC_0063980.JPG,false,1,keypress(m),500,230225.59999990463,230225.09999990463,225630.288,225645.59999990463,225646.833,230242.335,8,400,30,,ISIC_0029250.JPG
break,html.Screen,4_29_1,2023-09-08T16:59:05.596Z,,0,,,NaN,,,,,,false,,,,230227.59999990463,230227,,230226.09999990463,,230242.335,8,400,,,
break_continue,html.Screen,4_29_2,2023-09-08T16:59:05.597Z,,0,,,NaN,,,,,,false,,,,230228.70000004768,230228.29999995232,,230227.90000009537,,230242.335,8,400,,,
sequence,flow.Sequence,4_29,2023-09-08T16:59:05.597Z,,0,,,4581.466999952303,completion,,,,,false,,,,230229.09999990463,230228.29999995232,225630.288,225645.5,225646.833,230242.335,8,400,,,
trial,html.Screen,4_30_0,2023-09-08T16:59:09.105Z,,0,1,,3493.5650000953756,response,ISIC_6684042.JPG,5,ISIC_0068233.JPG,ISIC_0068233.JPG,false,0,keypress(z),500,233736.40000009537,233735.90000009537,230225.944,230229.59999990463,230242.335,233756.107,8,400,31,,ISIC_6684042.JPG
break,html.Screen,4_30_1,2023-09-08T16:59:09.107Z,,0,,,NaN,,,,,,false,,,,233738.5,233737.79999995232,,233736.90000009537,,233756.107,8,400,,,
break_continue,html.Screen,4_30_2,2023-09-08T16:59:09.108Z,,0,,,NaN,,,,,,false,,,,233739.5,233739.29999995232,,233738.90000009537,,233756.107,8,400,,,
sequence,flow.Sequence,4_30,2023-09-08T16:59:09.108Z,,0,,,3496.9649999523244,completion,,,,,false,,,,233740.09999990463,233739.29999995232,230225.944,230229.40000009537,230242.335,233756.107,8,400,,,
trial,html.Screen,4_31_0,2023-09-08T16:59:13.344Z,,0,1,,4218.692999952327,response,ISIC_0004042.JPG,6,ISIC_0000387.JPG,ISIC_0004042.JPG,false,1,keypress(m),500,237975.29999995232,237974.79999995232,233722.47,233740.40000009537,233756.107,237984.744,8,400,32,,ISIC_0000387.JPG
break,html.Screen,4_31_1,2023-09-08T16:59:13.346Z,,0,,,NaN,,,,,,false,,,,237977.29999995232,237976.59999990463,,237975.79999995232,,237984.744,8,400,,,
break_continue,html.Screen,4_31_2,2023-09-08T16:59:13.347Z,,0,,,NaN,,,,,,false,,,,237978.79999995232,237978.29999995232,,237977.79999995232,,237984.744,8,400,,,
sequence,flow.Sequence,4_31,2023-09-08T16:59:13.348Z,,0,,,4222.192999952327,completion,,,,,false,,,,237979.29999995232,237978.29999995232,233722.47,233740.29999995232,233756.107,237984.744,8,400,,,
trial,html.Screen,4_32_0,2023-09-08T16:59:17.928Z,,0,1,,4574.3559999046265,response,ISIC_0024236.JPG,5,ISIC_6002694.JPG,ISIC_0024236.JPG,false,1,keypress(m),500,242559.59999990463,242559.09999990463,237968.38,237979.79999995232,237984.744,242563.562,8,400,33,,ISIC_6002694.JPG
break,html.Screen,4_32_1,2023-09-08T16:59:17.930Z,,0,,,NaN,,,,,,false,,,,242561.5,242560.90000009537,,242560,,242563.562,8,400,,,
break_continue,html.Screen,4_32_2,2023-09-08T16:59:17.931Z,,0,,,NaN,,,,,,false,,,,242562.5,242562.29999995232,,242561.79999995232,,242563.562,8,400,,,
sequence,flow.Sequence,4_32,2023-09-08T16:59:17.931Z,,0,,,4577.55599995231,completion,,,,,false,,,,242563,242562.29999995232,237968.38,237979.70000004768,237984.744,242563.562,8,400,,,
trial,html.Screen,4_33_0,2023-09-08T16:59:23.311Z,,0,1,,5378.437999999995,response,ISIC_0012018.JPG,6,ISIC_0072843.JPG,ISIC_0012018.JPG,false,1,keypress(m),500,247942.40000009537,247942,242547.069,242563.40000009537,242563.562,247958.268,8,400,34,,ISIC_0072843.JPG
break,html.Screen,4_33_1,2023-09-08T16:59:23.313Z,,0,,,NaN,,,,,,false,,,,247944.20000004768,247943.79999995232,,247943,,247958.268,8,400,,,
break_continue,html.Screen,4_33_2,2023-09-08T16:59:23.314Z,,0,,,NaN,,,,,,false,,,,247945.20000004768,247945,,247944.5,,247958.268,8,400,,,
sequence,flow.Sequence,4_33,2023-09-08T16:59:23.314Z,,0,,,5381.437999999995,completion,,,,,false,,,,247945.70000004768,247945,242547.069,242563.29999995232,242563.562,247958.268,8,400,,,
trial,html.Screen,4_34_0,2023-09-08T16:59:26.157Z,,0,1,,2829.6320000953565,response,ISIC_3002956.JPG,5,ISIC_0058836.JPG,ISIC_0058836.JPG,false,0,keypress(z),500,250788.5,250787.90000009537,247941.665,247946.09999990463,247958.268,250805.476,8,400,35,,ISIC_3002956.JPG
break,html.Screen,4_34_1,2023-09-08T16:59:26.159Z,,0,,,NaN,,,,,,false,,,,250790.59999990463,250789.79999995232,,250789,,250805.476,8,400,,,
break_continue,html.Screen,4_34_2,2023-09-08T16:59:26.160Z,,0,,,NaN,,,,,,false,,,,250791.59999990463,250791.29999995232,,250790.90000009537,,250805.476,8,400,,,
sequence,flow.Sequence,4_34,2023-09-08T16:59:26.160Z,,0,,,2833.0319999523053,completion,,,,,false,,,,250792.09999990463,250791.29999995232,247941.665,247946,247958.268,250805.476,8,400,,,
trial,html.Screen,4_35_0,2023-09-08T16:59:29.657Z,,0,1,,3482.7240000476886,response,ISIC_0001101.JPG,6,ISIC_0053841.JPG,ISIC_0053841.JPG,false,0,keypress(z),500,254288.70000004768,254288.20000004768,250788.867,250792.5,250805.476,254302.384,8,400,36,,ISIC_0001101.JPG
break,html.Screen,4_35_1,2023-09-08T16:59:29.659Z,,0,,,NaN,,,,,,false,,,,254290.59999990463,254290,,254289.20000004768,,254302.384,8,400,,,
break_continue,html.Screen,4_35_2,2023-09-08T16:59:29.660Z,,0,,,NaN,,,,,,false,,,,254291.59999990463,254291.29999995232,,254291,,254302.384,8,400,,,
sequence,flow.Sequence,4_35,2023-09-08T16:59:29.660Z,,0,,,3485.823999952321,completion,,,,,false,,,,254292.09999990463,254291.29999995232,250788.867,250792.40000009537,250805.476,254302.384,8,400,,,
trial,html.Screen,4_36_0,2023-09-08T16:59:33.424Z,,0,1,,3752.7159999046416,response,ISIC_0056723.JPG,5,ISIC_6507792.JPG,ISIC_6507792.JPG,false,0,keypress(z),500,258055.59999990463,258055.09999990463,254285.719,254292.5,254302.384,258065.067,8,400,37,,ISIC_0056723.JPG
break,html.Screen,4_36_1,2023-09-08T16:59:33.426Z,,0,,,NaN,,,,,,false,,,,258057.59999990463,258056.90000009537,,258056.09999990463,,258065.067,8,400,,,
break_continue,html.Screen,4_36_2,2023-09-08T16:59:33.427Z,,0,,,NaN,,,,,,false,,,,258059,258058.59999990463,,258058.09999990463,,258065.067,8,400,,,
sequence,flow.Sequence,4_36,2023-09-08T16:59:33.428Z,,0,,,3756.2159999046416,completion,,,,,false,,,,258059.59999990463,258058.59999990463,254285.719,254292.5,254302.384,258065.067,8,400,,,
trial,html.Screen,4_37_0,2023-09-08T16:59:36.827Z,,0,1,,3393.2329999523063,response,ISIC_4414811.JPG,5,ISIC_8156101.JPG,ISIC_4414811.JPG,false,1,keypress(m),500,261458.79999995232,261458.29999995232,258048.497,258060,258065.067,261461.712,8,400,38,,ISIC_8156101.JPG
break,html.Screen,4_37_1,2023-09-08T16:59:36.830Z,,0,,,NaN,,,,,,false,,,,261461.20000004768,261460.59999990463,,261459.5,,261461.712,8,400,,,
break_continue,html.Screen,4_37_2,2023-09-08T16:59:36.831Z,,0,,,NaN,,,,,,false,,,,261462.5,261462.09999990463,,261461.59999990463,,261461.712,8,400,,,
sequence,flow.Sequence,4_37,2023-09-08T16:59:36.831Z,,0,,,3397.0329999046226,completion,,,,,false,,,,261462.90000009537,261462.09999990463,258048.497,258059.90000009537,258065.067,261461.712,8,400,,,
trial,html.Screen,4_38_0,2023-09-08T16:59:42.283Z,,0,1,,5452.188000095368,response,ISIC_0062114.JPG,6,ISIC_5706908.JPG,ISIC_5706908.JPG,false,0,keypress(z),500,266914.40000009537,266913.90000009537,261445.442,261463.40000009537,261461.712,266923.824,8,400,39,,ISIC_0062114.JPG
break,html.Screen,4_38_1,2023-09-08T16:59:42.285Z,,0,,,NaN,,,,,,false,,,,266916.40000009537,266915.7000000477,,266914.90000009537,,266923.824,8,400,,,
break_continue,html.Screen,4_38_2,2023-09-08T16:59:42.286Z,,0,,,NaN,,,,,,false,,,,266917.5,266917.09999990463,,266916.7000000477,,266923.824,8,400,,,
sequence,flow.Sequence,4_38,2023-09-08T16:59:42.286Z,,0,,,5455.387999904633,completion,,,,,false,,,,266917.90000009537,266917.09999990463,261445.442,261463.20000004768,261461.712,266923.824,8,400,,,
trial,html.Screen,4_39_0,2023-09-08T16:59:46.066Z,,0,1,,3773.076000095345,response,ISIC_0029705.JPG,5,ISIC_0065727.JPG,ISIC_0029705.JPG,false,1,keypress(m),500,270697.5,270696.90000009537,266906.611,266918.40000009537,266923.824,270702.664,8,400,40,,ISIC_0065727.JPG
break,html.Screen,4_39_1,2023-09-08T16:59:46.068Z,,0,,,NaN,,,,,,false,,,,270699.5,270698.7999999523,,270697.90000009537,,270702.664,8,400,,,
break_continue,html.Screen,4_39_2,2023-09-08T16:59:46.069Z,,0,,,NaN,,,,,,false,,,,270700.59999990463,270700.2000000477,,270699.7999999523,,270702.664,8,400,,,
sequence,flow.Sequence,4_39,2023-09-08T16:59:46.069Z,,0,,,3776.3760000476614,completion,,,,,false,,,,270701,270700.2000000477,266906.611,266918.2000000477,266923.824,270702.664,8,400,,,
trial,html.Screen,4_40_0,2023-09-08T16:59:49.565Z,,0,1,,3493.435999904643,response,ISIC_0012708.JPG,6,ISIC_2057184.JPG,ISIC_0012708.JPG,false,1,keypress(m),500,274196.2999999523,274196.09999990463,270686.322,270701.40000009537,270702.664,274199.221,8,400,41,,ISIC_2057184.JPG
break,html.Screen,4_40_1,2023-09-08T16:59:49.565Z,,0,,,NaN,,,,,,false,,,,274197.2999999523,274196.90000009537,,274196.5,,274199.221,8,400,,,
break_continue,html.Screen,4_40_2,2023-09-08T16:59:49.566Z,,0,,,NaN,,,,,,false,,,,274197.59999990463,274197.5,,274197.40000009537,,274199.221,8,400,,,
sequence,flow.Sequence,4_40,2023-09-08T16:59:49.566Z,,0,,,3494.8360000000102,completion,,,,,false,,,,274197.7999999523,274197.5,270686.322,270701.2999999523,270702.664,274199.221,8,400,,,
trial,html.Screen,4_41_0,2023-09-08T16:59:52.800Z,,0,1,,3232.479000047664,response,ISIC_5294540.JPG,4,ISIC_0033636.JPG,ISIC_5294540.JPG,false,1,keypress(m),500,277431.90000009537,277431.7000000477,274182.444,274197.90000009537,274199.221,277445.99,8,400,42,,ISIC_0033636.JPG
break,html.Screen,4_41_1,2023-09-08T16:59:52.801Z,,0,,,NaN,,,,,,false,,,,277433.09999990463,277432.7999999523,,277432.09999990463,,277445.99,8,400,,,
break_continue,html.Screen,4_41_2,2023-09-08T16:59:52.802Z,,0,,,NaN,,,,,,false,,,,277433.5,277433.40000009537,,277433.2000000477,,277445.99,8,400,,,
sequence,flow.Sequence,4_41,2023-09-08T16:59:52.802Z,,0,,,3234.179000095348,completion,,,,,false,,,,277433.7000000477,277433.40000009537,274182.444,274197.90000009537,274199.221,277445.99,8,400,,,
trial,html.Screen,4_42_0,2023-09-08T16:59:56.438Z,,0,1,,3622.9100000953767,response,ISIC_6942437.JPG,6,ISIC_0062684.JPG,ISIC_0062684.JPG,false,0,keypress(z),500,281069.40000009537,281068.90000009537,277429.548,277433.7999999523,277445.99,281075.825,8,400,43,,ISIC_6942437.JPG
break,html.Screen,4_42_1,2023-09-08T16:59:56.440Z,,0,,,NaN,,,,,,false,,,,281071.5,281070.90000009537,,281069.90000009537,,281075.825,8,400,,,
break_continue,html.Screen,4_42_2,2023-09-08T16:59:56.441Z,,0,,,NaN,,,,,,false,,,,281072.7000000477,281072.2000000477,,281071.90000009537,,281075.825,8,400,,,
sequence,flow.Sequence,4_42,2023-09-08T16:59:56.442Z,,0,,,3626.210000047693,completion,,,,,false,,,,281073.2999999523,281072.2000000477,277429.548,277433.7000000477,277445.99,281075.825,8,400,,,
trial,html.Screen,4_43_0,2023-09-08T17:00:02.093Z,,0,1,,5648.174999999988,response,ISIC_2597678.JPG,5,ISIC_4396553.JPG,ISIC_2597678.JPG,false,1,keypress(m),500,286724.5,286724,281059.258,281073.7000000477,281075.825,286736.96,8,400,44,,ISIC_4396553.JPG
break,html.Screen,4_43_1,2023-09-08T17:00:02.095Z,,0,,,NaN,,,,,,false,,,,286726.5,286725.90000009537,,286725.09999990463,,286736.96,8,400,,,
break_continue,html.Screen,4_43_2,2023-09-08T17:00:02.096Z,,0,,,NaN,,,,,,false,,,,286727.59999990463,286727.2999999523,,286727,,286736.96,8,400,,,
sequence,flow.Sequence,4_43,2023-09-08T17:00:02.096Z,,0,,,5651.474999952305,completion,,,,,false,,,,286728.2000000477,286727.2999999523,281059.258,281073.59999990463,281075.825,286736.96,8,400,,,
trial,html.Screen,4_44_0,2023-09-08T17:00:05.732Z,,0,1,,3626.6399999046116,response,ISIC_8174881.JPG,6,ISIC_0026020.JPG,ISIC_0026020.JPG,false,0,keypress(z),500,290364,290363.59999990463,286720.474,286728.5,286736.96,290366.717,8,400,45,,ISIC_8174881.JPG
break,html.Screen,4_44_1,2023-09-08T17:00:05.734Z,,0,,,NaN,,,,,,false,,,,290366,290365.2999999523,,290364.59999990463,,290366.717,8,400,,,
break_continue,html.Screen,4_44_2,2023-09-08T17:00:05.735Z,,0,,,NaN,,,,,,false,,,,290367.09999990463,290366.7000000477,,290366.40000009537,,290366.717,8,400,,,
sequence,flow.Sequence,4_44,2023-09-08T17:00:05.736Z,,0,,,3629.7400000476628,completion,,,,,false,,,,290367.59999990463,290366.7000000477,286720.474,286728.5,286736.96,290366.717,8,400,,,
trial,html.Screen,4_45_0,2023-09-08T17:00:09.212Z,,0,1,,3476.1830000953632,response,ISIC_2031626.JPG,5,ISIC_5706956.JPG,ISIC_5706956.JPG,false,0,keypress(z),500,293843.5,293842.90000009537,290350.323,290368,290366.717,293846.659,8,400,46,,ISIC_2031626.JPG
break,html.Screen,4_45_1,2023-09-08T17:00:09.214Z,,0,,,NaN,,,,,,false,,,,293845.2999999523,293844.7000000477,,293843.90000009537,,293846.659,8,400,,,
break_continue,html.Screen,4_45_2,2023-09-08T17:00:09.215Z,,0,,,NaN,,,,,,false,,,,293846.40000009537,293846.09999990463,,293845.7000000477,,293846.659,8,400,,,
sequence,flow.Sequence,4_45,2023-09-08T17:00:09.215Z,,0,,,3479.3829999046284,completion,,,,,false,,,,293846.90000009537,293846.09999990463,290350.323,290367.90000009537,290366.717,293846.659,8,400,,,
trial,html.Screen,4_46_0,2023-09-08T17:00:13.395Z,,0,1,,4179.841000000015,response,ISIC_3306135.JPG,6,ISIC_0032494.JPG,ISIC_0032494.JPG,false,0,keypress(z),500,298027,298026.5,293830.132,293847.59999990463,293846.659,298042.536,8,400,47,,ISIC_3306135.JPG
break,html.Screen,4_46_1,2023-09-08T17:00:13.397Z,,0,,,NaN,,,,,,false,,,,298029,298028.2999999523,,298027.5,,298042.536,8,400,,,
break_continue,html.Screen,4_46_2,2023-09-08T17:00:13.398Z,,0,,,NaN,,,,,,false,,,,298030.09999990463,298029.7000000477,,298029.2999999523,,298042.536,8,400,,,
sequence,flow.Sequence,4_46,2023-09-08T17:00:13.399Z,,0,,,4183.041000047699,completion,,,,,false,,,,298030.5,298029.7000000477,293830.132,293847.40000009537,293846.659,298042.536,8,400,,,
trial,html.Screen,4_47_0,2023-09-08T17:00:16.234Z,,0,1,,2822.8640000953455,response,ISIC_0058024.JPG,6,ISIC_3289574.JPG,ISIC_3289574.JPG,false,0,keypress(z),500,300865.90000009537,300865.40000009537,298026.071,298030.7999999523,298042.536,300873.113,8,400,48,,ISIC_0058024.JPG
break,html.Screen,4_47_1,2023-09-08T17:00:16.236Z,,0,,,NaN,,,,,,false,,,,300867.90000009537,300867.40000009537,,300866.40000009537,,300873.113,8,400,,,
break_continue,html.Screen,4_47_2,2023-09-08T17:00:16.237Z,,0,,,NaN,,,,,,false,,,,300869,300868.7000000477,,300868.2999999523,,300873.113,8,400,,,
sequence,flow.Sequence,4_47,2023-09-08T17:00:16.238Z,,0,,,2826.164000047662,completion,,,,,false,,,,300869.5,300868.7000000477,298026.071,298030.7000000477,298042.536,300873.113,8,400,,,
trial,html.Screen,4_48_0,2023-09-08T17:00:18.962Z,,0,1,,2719.7870000953553,response,ISIC_4713698.JPG,6,ISIC_0032492.JPG,ISIC_4713698.JPG,false,1,keypress(m),500,303593.40000009537,303592.90000009537,300856.512,300869.90000009537,300873.113,303603.781,8,400,49,,ISIC_0032492.JPG
break,html.Screen,4_48_1,2023-09-08T17:00:18.964Z,,0,,,NaN,,,,,,false,,,,303595.40000009537,303594.7000000477,,303594,,303603.781,8,400,,,
break_continue,html.Screen,4_48_2,2023-09-08T17:00:18.965Z,,0,,,NaN,,,,,,false,,,,303596.40000009537,303596.09999990463,,303595.7000000477,,303603.781,8,400,,,
sequence,flow.Sequence,4_48,2023-09-08T17:00:18.965Z,,0,,,2722.9869999046205,completion,,,,,false,,,,303596.90000009537,303596.09999990463,300856.512,300869.7999999523,300873.113,303603.781,8,400,,,
trial,html.Screen,4_49_0,2023-09-08T17:00:22.107Z,,0,1,,3134.11900009535,response,ISIC_9048192.JPG,5,ISIC_3343475.JPG,ISIC_9048192.JPG,false,1,keypress(m),500,306738.40000009537,306737.90000009537,303587.273,303597.2999999523,303603.781,306750.668,8,400,50,,ISIC_3343475.JPG
break,html.Screen,4_49_1,2023-09-08T17:00:32.110Z,,0,,,10007.065000000002,timeout,,,,,false,,,,316741.90000009537,316741.051,306734.393,306738.90000009537,306750.668,316757.733,8,400,,,
break_continue,html.Screen,4_49_2,2023-09-08T17:00:33.510Z,,0,,,1357.16700009536,response,,,,,false,continue,keypress(Space),,318141.90000009537,318114.90000009537,316741.051,316742.09999990463,316757.733,318156.205,8,400,,,
sequence,flow.Sequence,4_49,2023-09-08T17:00:33.511Z,,0,,,14511.11900009535,completion,,,,,false,,,,318142.40000009537,318114.90000009537,303587.273,303597.2000000477,303603.781,318156.205,8,400,,,
trial,html.Screen,4_50_0,2023-09-08T17:00:36.589Z,,0,2,,3063.9950000476674,response,ISIC_2993517.JPG,5,ISIC_9317929.JPG,ISIC_2993517.JPG,false,1,keypress(m),500,321220.7000000477,321220.2000000477,318139.626,318145,318156.205,321236.511,8,400,1,,ISIC_9317929.JPG
break,html.Screen,4_50_1,2023-09-08T17:00:36.591Z,,0,,,NaN,,,,,,false,,,,321222.7999999523,321222.09999990463,,321221.2000000477,,321236.511,8,400,,,
break_continue,html.Screen,4_50_2,2023-09-08T17:00:36.592Z,,0,,,NaN,,,,,,false,,,,321223.7999999523,321223.5,,321223.09999990463,,321236.511,8,400,,,
sequence,flow.Sequence,4_50,2023-09-08T17:00:36.593Z,,0,,,3067.2949999999837,completion,,,,,false,,,,321224.2999999523,321223.5,318139.626,318144.7000000477,318156.205,321236.511,8,400,,,
trial,html.Screen,4_51_0,2023-09-08T17:00:40.022Z,,0,2,,3416.389000095369,response,ISIC_9445196.JPG,5,ISIC_4943797.JPG,ISIC_9445196.JPG,false,1,keypress(m),500,324653.40000009537,324652.90000009537,321220.055,321224.7000000477,321236.511,324666.478,8,400,2,,ISIC_4943797.JPG
break,html.Screen,4_51_1,2023-09-08T17:00:40.024Z,,0,,,NaN,,,,,,false,,,,324655.7000000477,324655.2000000477,,324654,,324666.478,8,400,,,
break_continue,html.Screen,4_51_2,2023-09-08T17:00:40.025Z,,0,,,NaN,,,,,,false,,,,324656.7999999523,324656.40000009537,,324656.09999990463,,324666.478,8,400,,,
sequence,flow.Sequence,4_51,2023-09-08T17:00:40.026Z,,0,,,3419.889000095369,completion,,,,,false,,,,324657.2000000477,324656.40000009537,321220.055,321224.59999990463,321236.511,324666.478,8,400,,,
trial,html.Screen,4_52_0,2023-09-08T17:00:43.440Z,,0,2,,3405.021999999997,response,ISIC_0613014.JPG,5,ISIC_9944671.JPG,ISIC_0613014.JPG,false,1,keypress(m),500,328072,328071.5,324650.045,324657.7000000477,324666.478,328079.799,8,400,3,,ISIC_9944671.JPG
break,html.Screen,4_52_1,2023-09-08T17:00:43.442Z,,0,,,NaN,,,,,,false,,,,328074,328073.40000009537,,328072.5,,328079.799,8,400,,,
break_continue,html.Screen,4_52_2,2023-09-08T17:00:43.443Z,,0,,,NaN,,,,,,false,,,,328075,328074.7000000477,,328074.2999999523,,328079.799,8,400,,,
sequence,flow.Sequence,4_52,2023-09-08T17:00:43.443Z,,0,,,3408.222000047681,completion,,,,,false,,,,328075.7000000477,328074.7000000477,324650.045,324657.59999990463,324666.478,328079.799,8,400,,,
trial,html.Screen,4_53_0,2023-09-08T17:00:48.295Z,,0,2,,4846.901000047685,response,ISIC_0013651.JPG,6,ISIC_0011364.JPG,ISIC_0013651.JPG,false,1,keypress(m),500,332927.2999999523,332926.7000000477,328063.361,328076.09999990463,328079.799,332941.728,8,400,4,,ISIC_0011364.JPG
break,html.Screen,4_53_1,2023-09-08T17:00:48.297Z,,0,,,NaN,,,,,,false,,,,332929.2999999523,332928.7000000477,,332927.7999999523,,332941.728,8,400,,,
break_continue,html.Screen,4_53_2,2023-09-08T17:00:48.298Z,,0,,,NaN,,,,,,false,,,,332930.40000009537,332930.09999990463,,332929.59999990463,,332941.728,8,400,,,
sequence,flow.Sequence,4_53,2023-09-08T17:00:48.299Z,,0,,,4850.3009999046335,completion,,,,,false,,,,332930.90000009537,332930.09999990463,328063.361,328075.90000009537,328079.799,332941.728,8,400,,,
trial,html.Screen,4_54_0,2023-09-08T17:00:51.934Z,,0,2,,3624.37199990463,response,ISIC_0027573.JPG,4,ISIC_0014422.JPG,ISIC_0027573.JPG,false,1,keypress(m),500,336566.59999990463,336566.09999990463,332925.151,332931.2000000477,332941.728,336571.456,8,400,5,,ISIC_0014422.JPG
break,html.Screen,4_54_1,2023-09-08T17:00:51.939Z,,0,,,NaN,,,,,,false,,,,336570.90000009537,336567.90000009537,,336567.09999990463,,336571.456,8,400,,,
break_continue,html.Screen,4_54_2,2023-09-08T17:00:51.940Z,,0,,,NaN,,,,,,false,,,,336572.09999990463,336571.7000000477,,336571.2000000477,,336571.456,8,400,,,
sequence,flow.Sequence,4_54,2023-09-08T17:00:51.940Z,,0,,,3629.972000047681,completion,,,,,false,,,,336572.59999990463,336571.7000000477,332925.151,332931.09999990463,332941.728,336571.456,8,400,,,
trial,html.Screen,4_55_0,2023-09-08T17:00:55.261Z,,0,2,,3320.744000047678,response,ISIC_8907232.JPG,5,ISIC_5656921.JPG,ISIC_5656921.JPG,false,0,keypress(z),500,339892.7999999523,339892.2000000477,336555.029,336573,336571.456,339901.542,8,400,6,,ISIC_8907232.JPG
break,html.Screen,4_55_1,2023-09-08T17:00:55.263Z,,0,,,NaN,,,,,,false,,,,339894.7000000477,339894.09999990463,,339893.2000000477,,339901.542,8,400,,,
break_continue,html.Screen,4_55_2,2023-09-08T17:00:55.264Z,,0,,,NaN,,,,,,false,,,,339895.7000000477,339895.40000009537,,339895,,339901.542,8,400,,,
sequence,flow.Sequence,4_55,2023-09-08T17:00:55.264Z,,0,,,3323.944000095362,completion,,,,,false,,,,339896.09999990463,339895.40000009537,336555.029,336572.7999999523,336571.456,339901.542,8,400,,,
trial,html.Screen,4_56_0,2023-09-08T17:00:59.139Z,,0,2,,3869.457999999984,response,ISIC_4967639.JPG,5,ISIC_4532303.JPG,ISIC_4532303.JPG,false,0,keypress(z),500,343771.5,343771,339884.983,339896.59999990463,339901.542,343781.075,8,400,7,,ISIC_4967639.JPG
break,html.Screen,4_56_1,2023-09-08T17:00:59.141Z,,0,,,NaN,,,,,,false,,,,343773.5,343772.90000009537,,343772.09999990463,,343781.075,8,400,,,
break_continue,html.Screen,4_56_2,2023-09-08T17:00:59.142Z,,0,,,NaN,,,,,,false,,,,343774.59999990463,343774.2999999523,,343773.90000009537,,343781.075,8,400,,,
sequence,flow.Sequence,4_56,2023-09-08T17:00:59.143Z,,0,,,3872.7579999523005,completion,,,,,false,,,,343775,343774.2999999523,339884.983,339896.40000009537,339901.542,343781.075,8,400,,,
trial,html.Screen,4_57_0,2023-09-08T17:01:02.235Z,,0,2,,3085.2249999523046,response,ISIC_8077943.JPG,6,ISIC_6201199.JPG,ISIC_8077943.JPG,false,1,keypress(m),500,346866.7999999523,346866.2999999523,343764.607,343775.40000009537,343781.075,346878.007,8,400,8,,ISIC_6201199.JPG
break,html.Screen,4_57_1,2023-09-08T17:01:02.237Z,,0,,,NaN,,,,,,false,,,,346868.7999999523,346868.09999990463,,346867.2999999523,,346878.007,8,400,,,
break_continue,html.Screen,4_57_2,2023-09-08T17:01:02.238Z,,0,,,NaN,,,,,,false,,,,346870,346869.59999990463,,346869.2000000477,,346878.007,8,400,,,
sequence,flow.Sequence,4_57,2023-09-08T17:01:02.238Z,,0,,,3088.524999904621,completion,,,,,false,,,,346870.40000009537,346869.59999990463,343764.607,343775.2999999523,343781.075,346878.007,8,400,,,
trial,html.Screen,4_58_0,2023-09-08T17:01:04.915Z,,0,2,,2668.792999952333,response,ISIC_0010597.JPG,5,ISIC_0029209.JPG,ISIC_0029209.JPG,false,0,keypress(z),500,349547.2999999523,349546.7999999523,346861.542,346870.7999999523,346878.007,349558.735,8,400,9,,ISIC_0010597.JPG
break,html.Screen,4_58_1,2023-09-08T17:01:04.917Z,,0,,,NaN,,,,,,false,,,,349549.5,349549,,349547.7000000477,,349558.735,8,400,,,
break_continue,html.Screen,4_58_2,2023-09-08T17:01:04.918Z,,0,,,NaN,,,,,,false,,,,349550.5,349550.2000000477,,349549.7999999523,,349558.735,8,400,,,
sequence,flow.Sequence,4_58,2023-09-08T17:01:04.919Z,,0,,,2672.1930000477005,completion,,,,,false,,,,349551.09999990463,349550.2000000477,346861.542,346870.59999990463,346878.007,349558.735,8,400,,,
trial,html.Screen,4_59_0,2023-09-08T17:01:07.949Z,,0,2,,3021.8649999046465,response,ISIC_0014932.JPG,5,ISIC_2006783.JPG,ISIC_2006783.JPG,false,0,keypress(z),500,352581.09999990463,352580.59999990463,349542.188,349551.2999999523,349558.735,352589.127,8,400,10,,ISIC_0014932.JPG
break,html.Screen,4_59_1,2023-09-08T17:01:07.951Z,,0,,,NaN,,,,,,false,,,,352582.90000009537,352582.40000009537,,352581.5,,352589.127,8,400,,,
break_continue,html.Screen,4_59_2,2023-09-08T17:01:07.952Z,,0,,,NaN,,,,,,false,,,,352583.90000009537,352583.59999990463,,352583.2000000477,,352589.127,8,400,,,
sequence,flow.Sequence,4_59,2023-09-08T17:01:07.952Z,,0,,,3024.8649999046465,completion,,,,,false,,,,352584.59999990463,352583.59999990463,349542.188,349551.2999999523,349558.735,352589.127,8,400,,,
trial,html.Screen,4_60_0,2023-09-08T17:01:10.836Z,,0,2,,2879.273000095389,response,ISIC_4957216.JPG,6,ISIC_0032598.JPG,ISIC_4957216.JPG,false,1,keypress(m),500,355468.59999990463,355468.40000009537,352572.646,352585,352589.127,355487.186,8,400,11,,ISIC_0032598.JPG
break,html.Screen,4_60_1,2023-09-08T17:01:10.838Z,,0,,,NaN,,,,,,false,,,,355469.90000009537,355469.59999990463,,355468.7999999523,,355487.186,8,400,,,
break_continue,html.Screen,4_60_2,2023-09-08T17:01:10.838Z,,0,,,NaN,,,,,,false,,,,355470.2999999523,355470.2000000477,,355470.09999990463,,355487.186,8,400,,,
sequence,flow.Sequence,4_60,2023-09-08T17:01:10.838Z,,0,,,2881.073000047705,completion,,,,,false,,,,355470.5,355470.2000000477,352572.646,352584.90000009537,352589.127,355487.186,8,400,,,
trial,html.Screen,4_61_0,2023-09-08T17:01:13.720Z,,0,2,,2864.6139999523293,response,ISIC_0011256.JPG,5,ISIC_8429798.JPG,ISIC_0011256.JPG,false,1,keypress(m),500,358352.40000009537,358351.7999999523,355452.914,355470.59999990463,355487.186,358366.767,8,400,12,,ISIC_8429798.JPG
break,html.Screen,4_61_1,2023-09-08T17:01:13.722Z,,0,,,NaN,,,,,,false,,,,358354.5,358353.7999999523,,358353,,358366.767,8,400,,,
break_continue,html.Screen,4_61_2,2023-09-08T17:01:13.723Z,,0,,,NaN,,,,,,false,,,,358355.59999990463,358355.2000000477,,358354.7999999523,,358366.767,8,400,,,
sequence,flow.Sequence,4_61,2023-09-08T17:01:13.724Z,,0,,,2868.0140000476968,completion,,,,,false,,,,358355.90000009537,358355.2000000477,355452.914,355470.59999990463,355487.186,358366.767,8,400,,,
trial,html.Screen,4_62_0,2023-09-08T17:01:16.624Z,,0,2,,2889.133000095375,response,ISIC_0070210.JPG,5,ISIC_0063425.JPG,ISIC_0063425.JPG,false,0,keypress(z),500,361256.5,361255.90000009537,358350.351,358356.40000009537,358366.767,361263.933,8,400,13,,ISIC_0070210.JPG
break,html.Screen,4_62_1,2023-09-08T17:01:16.627Z,,0,,,NaN,,,,,,false,,,,361259.09999990463,361258.59999990463,,361256.90000009537,,361263.933,8,400,,,
break_continue,html.Screen,4_62_2,2023-09-08T17:01:16.628Z,,0,,,NaN,,,,,,false,,,,361260.2999999523,361259.90000009537,,361259.40000009537,,361263.933,8,400,,,
sequence,flow.Sequence,4_62,2023-09-08T17:01:16.629Z,,0,,,2893.133000095375,completion,,,,,false,,,,361260.7000000477,361259.90000009537,358350.351,358356.2000000477,358366.767,361263.933,8,400,,,
trial,html.Screen,4_63_0,2023-09-08T17:01:21.465Z,,0,2,,4832.967000095348,response,ISIC_0698821.JPG,6,ISIC_0033621.JPG,ISIC_0698821.JPG,false,1,keypress(m),500,366097.2999999523,366096.90000009537,361247.391,361261.09999990463,361263.933,366109.282,8,400,14,,ISIC_0033621.JPG
break,html.Screen,4_63_1,2023-09-08T17:01:21.467Z,,0,,,NaN,,,,,,false,,,,366099.09999990463,366098.59999990463,,366097.7999999523,,366109.282,8,400,,,
break_continue,html.Screen,4_63_2,2023-09-08T17:01:21.468Z,,0,,,NaN,,,,,,false,,,,366100.09999990463,366099.7999999523,,366099.40000009537,,366109.282,8,400,,,
sequence,flow.Sequence,4_63,2023-09-08T17:01:21.468Z,,0,,,4835.866999952297,completion,,,,,false,,,,366100.59999990463,366099.7999999523,361247.391,361261,361263.933,366109.282,8,400,,,
trial,html.Screen,4_64_0,2023-09-08T17:01:24.210Z,,0,2,,2732.618000095361,response,ISIC_7658133.JPG,5,ISIC_0062497.JPG,ISIC_7658133.JPG,false,1,keypress(m),500,368842.40000009537,368841.90000009537,366092.554,366100.90000009537,366109.282,368856.531,8,400,15,,ISIC_0062497.JPG
break,html.Screen,4_64_1,2023-09-08T17:01:24.212Z,,0,,,NaN,,,,,,false,,,,368844.2000000477,368843.7000000477,,368842.7999999523,,368856.531,8,400,,,
break_continue,html.Screen,4_64_2,2023-09-08T17:01:24.213Z,,0,,,NaN,,,,,,false,,,,368845.2999999523,368844.90000009537,,368844.5,,368856.531,8,400,,,
sequence,flow.Sequence,4_64,2023-09-08T17:01:24.214Z,,0,,,2735.618000095361,completion,,,,,false,,,,368845.7000000477,368844.90000009537,366092.554,366100.90000009537,366109.282,368856.531,8,400,,,
trial,html.Screen,4_65_0,2023-09-08T17:01:27.147Z,,0,2,,2922.0689999046153,response,ISIC_0028915.JPG,5,ISIC_2652721.JPG,ISIC_2652721.JPG,false,0,keypress(z),500,371779.09999990463,371778.59999990463,368839.958,368846.09999990463,368856.531,371786.955,8,400,16,,ISIC_0028915.JPG
break,html.Screen,4_65_1,2023-09-08T17:01:27.149Z,,0,,,NaN,,,,,,false,,,,371781.09999990463,371780.5,,371779.59999990463,,371786.955,8,400,,,
break_continue,html.Screen,4_65_2,2023-09-08T17:01:27.150Z,,0,,,NaN,,,,,,false,,,,371782.2000000477,371781.7999999523,,371781.40000009537,,371786.955,8,400,,,
sequence,flow.Sequence,4_65,2023-09-08T17:01:27.151Z,,0,,,2925.268999952299,completion,,,,,false,,,,371782.7000000477,371781.7999999523,368839.958,368846,368856.531,371786.955,8,400,,,
trial,html.Screen,4_66_0,2023-09-08T17:01:30.131Z,,0,2,,2976.1449999046163,response,ISIC_0068217.JPG,6,ISIC_2006783.JPG,ISIC_0068217.JPG,false,1,keypress(m),500,374763.59999990463,374763.09999990463,371770.501,371783,371786.955,374767.356,8,400,17,,ISIC_2006783.JPG
break,html.Screen,4_66_1,2023-09-08T17:01:30.133Z,,0,,,NaN,,,,,,false,,,,374765.59999990463,374764.90000009537,,374764.09999990463,,374767.356,8,400,,,
break_continue,html.Screen,4_66_2,2023-09-08T17:01:30.135Z,,0,,,NaN,,,,,,false,,,,374766.7999999523,374766.40000009537,,374766,,374767.356,8,400,,,
sequence,flow.Sequence,4_66,2023-09-08T17:01:30.135Z,,0,,,2979.445000095351,completion,,,,,false,,,,374767.2999999523,374766.40000009537,371770.501,371783,371786.955,374767.356,8,400,,,
trial,html.Screen,4_67_0,2023-09-08T17:01:33.835Z,,0,2,,3699.143999999971,response,ISIC_3786438.JPG,6,ISIC_0007749.JPG,ISIC_0007749.JPG,false,0,keypress(z),500,378467,378466.5,374750.748,374767.7999999523,374767.356,378480.394,8,400,18,,ISIC_3786438.JPG
break,html.Screen,4_67_1,2023-09-08T17:01:33.837Z,,0,,,NaN,,,,,,false,,,,378468.90000009537,378468.2999999523,,378467.5,,378480.394,8,400,,,
break_continue,html.Screen,4_67_2,2023-09-08T17:01:33.838Z,,0,,,NaN,,,,,,false,,,,378470,378469.7000000477,,378469.2999999523,,378480.394,8,400,,,
sequence,flow.Sequence,4_67,2023-09-08T17:01:33.838Z,,0,,,3702.344000047655,completion,,,,,false,,,,378470.40000009537,378469.7000000477,374750.748,374767.59999990463,374767.356,378480.394,8,400,,,
trial,html.Screen,4_68_0,2023-09-08T17:01:38.754Z,,0,2,,4905.405999952345,response,ISIC_0011964.JPG,6,ISIC_1265755.JPG,ISIC_0011964.JPG,false,1,keypress(m),500,383386.2999999523,383385.7999999523,378463.896,378470.7999999523,378480.394,383392.234,8,400,19,,ISIC_1265755.JPG
break,html.Screen,4_68_1,2023-09-08T17:01:38.756Z,,0,,,NaN,,,,,,false,,,,383388.40000009537,383387.7000000477,,383386.90000009537,,383392.234,8,400,,,
break_continue,html.Screen,4_68_2,2023-09-08T17:01:38.757Z,,0,,,NaN,,,,,,false,,,,383389.40000009537,383389.09999990463,,383388.59999990463,,383392.234,8,400,,,
sequence,flow.Sequence,4_68,2023-09-08T17:01:38.758Z,,0,,,4908.705999904661,completion,,,,,false,,,,383389.90000009537,383389.09999990463,378463.896,378470.7000000477,378480.394,383392.234,8,400,,,
trial,html.Screen,4_69_0,2023-09-08T17:01:41.518Z,,0,2,,2756.466000047687,response,ISIC_0046225.JPG,4,ISIC_4131353.JPG,ISIC_4131353.JPG,false,0,keypress(z),500,386149.2000000477,386148.7000000477,383375.621,383390.2999999523,383392.234,386156.406,8,400,20,,ISIC_0046225.JPG
break,html.Screen,4_69_1,2023-09-08T17:01:41.520Z,,0,,,NaN,,,,,,false,,,,386151.40000009537,386150.90000009537,,386149.7000000477,,386156.406,8,400,,,
break_continue,html.Screen,4_69_2,2023-09-08T17:01:41.521Z,,0,,,NaN,,,,,,false,,,,386152.5,386152.09999990463,,386151.7999999523,,386156.406,8,400,,,
sequence,flow.Sequence,4_69,2023-09-08T17:01:41.521Z,,0,,,2759.865999904636,completion,,,,,false,,,,386152.90000009537,386152.09999990463,383375.621,383390.09999990463,383392.234,386156.406,8,400,,,
trial,html.Screen,4_70_0,2023-09-08T17:01:45.829Z,,0,2,,4303.693999904615,response,ISIC_0059368.JPG,5,ISIC_6001936.JPG,ISIC_0059368.JPG,false,1,keypress(m),500,390460.7000000477,390460.09999990463,386139.792,386153.2999999523,386156.406,390485.373,8,400,21,,ISIC_6001936.JPG
break,html.Screen,4_70_1,2023-09-08T17:01:45.831Z,,0,,,NaN,,,,,,false,,,,390462.2999999523,390462,,390461.09999990463,,390485.373,8,400,,,
break_continue,html.Screen,4_70_2,2023-09-08T17:01:45.832Z,,0,,,NaN,,,,,,false,,,,390463.40000009537,390463.09999990463,,390462.7000000477,,390485.373,8,400,,,
sequence,flow.Sequence,4_70,2023-09-08T17:01:45.832Z,,0,,,4306.693999904615,completion,,,,,false,,,,390463.90000009537,390463.09999990463,386139.792,386153.2000000477,386156.406,390485.373,8,400,,,
trial,html.Screen,4_71_0,2023-09-08T17:01:49.708Z,,0,2,,3854.1269999999786,response,ISIC_0071771.JPG,5,ISIC_3409824.JPG,ISIC_3409824.JPG,false,0,keypress(z),500,394340,394339.5,390468.659,390464.2999999523,390485.373,394348.184,8,400,22,,ISIC_0071771.JPG
break,html.Screen,4_71_1,2023-09-08T17:01:49.711Z,,0,,,NaN,,,,,,false,,,,394342.40000009537,394341.7999999523,,394340.40000009537,,394348.184,8,400,,,
break_continue,html.Screen,4_71_2,2023-09-08T17:01:49.712Z,,0,,,NaN,,,,,,false,,,,394343.5,394343.2000000477,,394342.7000000477,,394348.184,8,400,,,
sequence,flow.Sequence,4_71,2023-09-08T17:01:49.712Z,,0,,,3857.8270000476623,completion,,,,,false,,,,394343.90000009537,394343.2000000477,390468.659,390464.09999990463,390485.373,394348.184,8,400,,,
trial,html.Screen,4_72_0,2023-09-08T17:01:52.628Z,,0,2,,2910.5160000476753,response,ISIC_1700051.JPG,5,ISIC_2805634.JPG,ISIC_1700051.JPG,false,1,keypress(m),500,397259.2000000477,397258.7000000477,394331.627,394344.2999999523,394348.184,397261.97,8,400,23,,ISIC_2805634.JPG
break,html.Screen,4_72_1,2023-09-08T17:01:52.629Z,,0,,,NaN,,,,,,false,,,,397261.2000000477,397260.5,,397259.7000000477,,397261.97,8,400,,,
break_continue,html.Screen,4_72_2,2023-09-08T17:01:52.631Z,,0,,,NaN,,,,,,false,,,,397263.09999990463,397262.5,,397261.7999999523,,397261.97,8,400,,,
sequence,flow.Sequence,4_72,2023-09-08T17:01:52.632Z,,0,,,2914.3159999999916,completion,,,,,false,,,,397263.59999990463,397262.5,394331.627,394344.2999999523,394348.184,397261.97,8,400,,,
trial,html.Screen,4_73_0,2023-09-08T17:01:55.388Z,,0,2,,2756.6299999046605,response,ISIC_0011958.JPG,5,ISIC_9223679.JPG,ISIC_9223679.JPG,false,0,keypress(z),500,400019.2999999523,400018.59999990463,397245.366,397264,397261.97,400025.944,8,400,24,,ISIC_0011958.JPG
break,html.Screen,4_73_1,2023-09-08T17:01:55.389Z,,0,,,NaN,,,,,,false,,,,400021.09999990463,400020.59999990463,,400019.59999990463,,400025.944,8,400,,,
break_continue,html.Screen,4_73_2,2023-09-08T17:01:55.391Z,,0,,,NaN,,,,,,false,,,,400022.2999999523,400021.90000009537,,400021.5,,400025.944,8,400,,,
sequence,flow.Sequence,4_73,2023-09-08T17:01:55.391Z,,0,,,2759.9300000953954,completion,,,,,false,,,,400022.59999990463,400021.90000009537,397245.366,397263.90000009537,397261.97,400025.944,8,400,,,
trial,html.Screen,4_74_0,2023-09-08T17:01:59.378Z,,0,2,,3983.3559999522986,response,ISIC_0870751.JPG,4,ISIC_5527447.JPG,ISIC_0870751.JPG,false,1,keypress(m),500,404009.90000009537,404009.2999999523,400009.496,400023,400025.944,404039.203,8,400,25,,ISIC_5527447.JPG
break,html.Screen,4_74_1,2023-09-08T17:01:59.380Z,,0,,,NaN,,,,,,false,,,,404011.5,404011,,404010.2999999523,,404039.203,8,400,,,
break_continue,html.Screen,4_74_2,2023-09-08T17:01:59.381Z,,0,,,NaN,,,,,,false,,,,404012.59999990463,404012.2999999523,,404011.90000009537,,404039.203,8,400,,,
sequence,flow.Sequence,4_74,2023-09-08T17:01:59.381Z,,0,,,3986.3559999522986,completion,,,,,false,,,,404013,404012.2999999523,400009.496,400023,400025.944,404039.203,8,400,,,
trial,html.Screen,4_75_0,2023-09-08T17:02:03.673Z,,0,2,,4265.396999904653,response,ISIC_6710082.JPG,6,ISIC_2143002.JPG,ISIC_2143002.JPG,false,0,keypress(z),500,408305.2000000477,408304.59999990463,404022.059,404013.5,404039.203,408317.802,8,400,26,,ISIC_6710082.JPG
break,html.Screen,4_75_1,2023-09-08T17:02:03.676Z,,0,,,NaN,,,,,,false,,,,408307.40000009537,408306.59999990463,,408305.7999999523,,408317.802,8,400,,,
break_continue,html.Screen,4_75_2,2023-09-08T17:02:03.677Z,,0,,,NaN,,,,,,false,,,,408308.5,408308.2000000477,,408307.7000000477,,408317.802,8,400,,,
sequence,flow.Sequence,4_75,2023-09-08T17:02:03.677Z,,0,,,4268.997000047704,completion,,,,,false,,,,408309,408308.2000000477,404022.059,404013.2999999523,404039.203,408317.802,8,400,,,
trial,html.Screen,4_76_0,2023-09-08T17:02:07.826Z,,0,2,,4139.098000095342,response,ISIC_0189336.JPG,4,ISIC_8120622.JPG,ISIC_8120622.JPG,false,0,keypress(z),500,412457.40000009537,412456.90000009537,408301.291,408309.40000009537,408317.802,412463.782,8,400,27,,ISIC_0189336.JPG
break,html.Screen,4_76_1,2023-09-08T17:02:07.828Z,,0,,,NaN,,,,,,false,,,,412459.5,412458.59999990463,,412457.7999999523,,412463.782,8,400,,,
break_continue,html.Screen,4_76_2,2023-09-08T17:02:07.829Z,,0,,,NaN,,,,,,false,,,,412460.5,412460.2000000477,,412459.7999999523,,412463.782,8,400,,,
sequence,flow.Sequence,4_76,2023-09-08T17:02:07.829Z,,0,,,4142.398000047659,completion,,,,,false,,,,412460.90000009537,412460.2000000477,408301.291,408309.2999999523,408317.802,412463.782,8,400,,,
trial,html.Screen,4_77_0,2023-09-08T17:02:11.001Z,,0,2,,3167.918000047677,response,ISIC_3254309.JPG,5,ISIC_0030929.JPG,ISIC_3254309.JPG,false,1,keypress(m),500,415632.2000000477,415631.7000000477,412447.316,412461.2999999523,412463.782,415643.982,8,400,28,,ISIC_0030929.JPG
break,html.Screen,4_77_1,2023-09-08T17:02:11.002Z,,0,,,NaN,,,,,,false,,,,415634,415633.5,,415632.7000000477,,415643.982,8,400,,,
break_continue,html.Screen,4_77_2,2023-09-08T17:02:11.003Z,,0,,,NaN,,,,,,false,,,,415634.90000009537,415634.59999990463,,415634.2999999523,,415643.982,8,400,,,
sequence,flow.Sequence,4_77,2023-09-08T17:02:11.004Z,,0,,,3170.817999904626,completion,,,,,false,,,,415635.40000009537,415634.59999990463,412447.316,412461.2000000477,412463.782,415643.982,8,400,,,
trial,html.Screen,4_78_0,2023-09-08T17:02:13.999Z,,0,2,,2986.6179999046144,response,ISIC_0030443.JPG,5,ISIC_2291059.JPG,ISIC_2291059.JPG,false,0,keypress(z),500,418631.09999990463,418630.59999990463,415627.352,415635.7999999523,415643.982,418641.048,8,400,29,,ISIC_0030443.JPG
break,html.Screen,4_78_1,2023-09-08T17:02:14.002Z,,0,,,NaN,,,,,,false,,,,418633.2999999523,418632.5,,418631.59999990463,,418641.048,8,400,,,
break_continue,html.Screen,4_78_2,2023-09-08T17:02:14.003Z,,0,,,NaN,,,,,,false,,,,418634.2999999523,418634,,418633.59999990463,,418641.048,8,400,,,
sequence,flow.Sequence,4_78,2023-09-08T17:02:14.003Z,,0,,,2990.017999999982,completion,,,,,false,,,,418634.7999999523,418634,415627.352,415635.59999990463,415643.982,418641.048,8,400,,,
trial,html.Screen,4_79_0,2023-09-08T17:02:16.759Z,,0,2,,2749.152000047674,response,ISIC_0012740.JPG,5,ISIC_0645834.JPG,ISIC_0012740.JPG,false,1,keypress(m),500,421390.7000000477,421390.2000000477,418624.502,418635.09999990463,418641.048,421405.096,8,400,30,,ISIC_0645834.JPG
break,html.Screen,4_79_1,2023-09-08T17:02:16.761Z,,0,,,NaN,,,,,,false,,,,421392.59999990463,421391.90000009537,,421391.09999990463,,421405.096,8,400,,,
break_continue,html.Screen,4_79_2,2023-09-08T17:02:16.762Z,,0,,,NaN,,,,,,false,,,,421393.59999990463,421393.2999999523,,421393,,421405.096,8,400,,,
sequence,flow.Sequence,4_79,2023-09-08T17:02:16.762Z,,0,,,2752.2519999523065,completion,,,,,false,,,,421394.09999990463,421393.2999999523,418624.502,418635,418641.048,421405.096,8,400,,,
trial,html.Screen,4_80_0,2023-09-08T17:02:19.982Z,,0,2,,3208.2039999522967,response,ISIC_1473511.JPG,5,ISIC_0655635.JPG,ISIC_1473511.JPG,false,1,keypress(m),500,424613.7999999523,424613.2999999523,421388.328,421394.5,421405.096,424618.545,8,400,31,,ISIC_0655635.JPG
break,html.Screen,4_80_1,2023-09-08T17:02:19.984Z,,0,,,NaN,,,,,,false,,,,424615.90000009537,424615.2000000477,,424614.2000000477,,424618.545,8,400,,,
break_continue,html.Screen,4_80_2,2023-09-08T17:02:19.985Z,,0,,,NaN,,,,,,false,,,,424617.09999990463,424616.7000000477,,424616.2000000477,,424618.545,8,400,,,
sequence,flow.Sequence,4_80,2023-09-08T17:02:19.986Z,,0,,,3211.604000047664,completion,,,,,false,,,,424617.59999990463,424616.7000000477,421388.328,421394.40000009537,421405.096,424618.545,8,400,,,
trial,html.Screen,4_81_0,2023-09-08T17:02:22.854Z,,0,2,,2866.8550000953837,response,ISIC_0056047.JPG,6,ISIC_0015443.JPG,ISIC_0015443.JPG,false,0,keypress(z),500,427485.7000000477,427485.40000009537,424602.126,424618,424618.545,427499.01,8,400,32,,ISIC_0056047.JPG
break,html.Screen,4_81_1,2023-09-08T17:02:22.855Z,,0,,,NaN,,,,,,false,,,,427486.40000009537,427486.2999999523,,427485.7999999523,,427499.01,8,400,,,
break_continue,html.Screen,4_81_2,2023-09-08T17:02:22.855Z,,0,,,NaN,,,,,,false,,,,427486.7000000477,427486.7000000477,,427486.5,,427499.01,8,400,,,
sequence,flow.Sequence,4_81,2023-09-08T17:02:22.855Z,,0,,,2868.1550000477,completion,,,,,false,,,,427486.90000009537,427486.7000000477,424602.126,424617.90000009537,424618.545,427499.01,8,400,,,
trial,html.Screen,4_82_0,2023-09-08T17:02:26.413Z,,0,2,,3544.890000095358,response,ISIC_0058418.JPG,4,ISIC_0033621.JPG,ISIC_0033621.JPG,false,0,keypress(z),500,431044.40000009537,431043.90000009537,427482.35,427487,427499.01,431062.173,8,400,33,,ISIC_0058418.JPG
break,html.Screen,4_82_1,2023-09-08T17:02:26.415Z,,0,,,NaN,,,,,,false,,,,431046.40000009537,431045.7000000477,,431044.7999999523,,431062.173,8,400,,,
break_continue,html.Screen,4_82_2,2023-09-08T17:02:26.416Z,,0,,,NaN,,,,,,false,,,,431047.59999990463,431047.2000000477,,431046.7000000477,,431062.173,8,400,,,
sequence,flow.Sequence,4_82,2023-09-08T17:02:26.416Z,,0,,,3548.1900000476744,completion,,,,,false,,,,431048,431047.2000000477,427482.35,427487,427499.01,431062.173,8,400,,,
trial,html.Screen,4_83_0,2023-09-08T17:02:29.620Z,,0,2,,3188.527000047674,response,ISIC_1805163.JPG,5,ISIC_3676643.JPG,ISIC_1805163.JPG,false,1,keypress(m),500,434251.2000000477,434250.7000000477,431045.635,431048.2999999523,431062.173,434259.075,8,400,34,,ISIC_3676643.JPG
break,html.Screen,4_83_1,2023-09-08T17:02:29.622Z,,0,,,NaN,,,,,,false,,,,434253.2000000477,434252.5,,434251.7999999523,,434259.075,8,400,,,
break_continue,html.Screen,4_83_2,2023-09-08T17:02:29.623Z,,0,,,NaN,,,,,,false,,,,434254.2999999523,434254,,434253.5,,434259.075,8,400,,,
sequence,flow.Sequence,4_83,2023-09-08T17:02:29.623Z,,0,,,3191.82699999999,completion,,,,,false,,,,434254.7000000477,434254,431045.635,431048.2999999523,431062.173,434259.075,8,400,,,
trial,html.Screen,4_84_0,2023-09-08T17:02:32.554Z,,0,2,,2926.524999904621,response,ISIC_3652884.JPG,5,ISIC_0060321.JPG,ISIC_3652884.JPG,false,1,keypress(m),500,437186.09999990463,437185.59999990463,434242.42,434255.2000000477,434259.075,437189.514,8,400,35,,ISIC_0060321.JPG
break,html.Screen,4_84_1,2023-09-08T17:02:32.556Z,,0,,,NaN,,,,,,false,,,,437188,437187.40000009537,,437186.5,,437189.514,8,400,,,
break_continue,html.Screen,4_84_2,2023-09-08T17:02:32.557Z,,0,,,NaN,,,,,,false,,,,437188.90000009537,437188.59999990463,,437188.2999999523,,437189.514,8,400,,,
sequence,flow.Sequence,4_84,2023-09-08T17:02:32.558Z,,0,,,2929.524999904621,completion,,,,,false,,,,437189.59999990463,437188.59999990463,434242.42,434255.09999990463,434259.075,437189.514,8,400,,,
trial,html.Screen,4_85_0,2023-09-08T17:02:35.810Z,,0,2,,3251.585999904608,response,ISIC_0066213.JPG,5,ISIC_9063429.JPG,ISIC_9063429.JPG,false,0,keypress(z),500,440441.59999990463,440441.09999990463,437172.991,437190.2000000477,437189.514,440453.005,8,400,36,,ISIC_0066213.JPG
break,html.Screen,4_85_1,2023-09-08T17:02:35.812Z,,0,,,NaN,,,,,,false,,,,440443.40000009537,440442.7999999523,,440441.90000009537,,440453.005,8,400,,,
break_continue,html.Screen,4_85_2,2023-09-08T17:02:35.813Z,,0,,,NaN,,,,,,false,,,,440444.40000009537,440444.09999990463,,440443.7000000477,,440453.005,8,400,,,
sequence,flow.Sequence,4_85,2023-09-08T17:02:35.813Z,,0,,,3254.585999904608,completion,,,,,false,,,,440444.7999999523,440444.09999990463,437172.991,437190,437189.514,440453.005,8,400,,,
trial,html.Screen,4_86_0,2023-09-08T17:02:39.324Z,,0,2,,3502.2949999523116,response,ISIC_0033876.JPG,5,ISIC_0071857.JPG,ISIC_0071857.JPG,false,0,keypress(z),500,443955.7999999523,443955.2999999523,440436.411,440445.09999990463,440453.005,443966.289,8,400,37,,ISIC_0033876.JPG
break,html.Screen,4_86_1,2023-09-08T17:02:39.325Z,,0,,,NaN,,,,,,false,,,,443956.90000009537,443956.7999999523,,443956.2999999523,,443966.289,8,400,,,
break_continue,html.Screen,4_86_2,2023-09-08T17:02:39.326Z,,0,,,NaN,,,,,,false,,,,443957.2999999523,443957.09999990463,,443957,,443966.289,8,400,,,
sequence,flow.Sequence,4_86,2023-09-08T17:02:39.326Z,,0,,,3504.094999904628,completion,,,,,false,,,,443957.40000009537,443957.09999990463,440436.411,440445,440453.005,443966.289,8,400,,,
trial,html.Screen,4_87_0,2023-09-08T17:02:43.732Z,,0,2,,4396.810999904643,response,ISIC_4069690.JPG,6,ISIC_0033800.JPG,ISIC_4069690.JPG,false,1,keypress(m),500,448363.59999990463,448363.09999990463,443949.484,443957.40000009537,443966.289,448378.937,8,400,38,,ISIC_0033800.JPG
break,html.Screen,4_87_1,2023-09-08T17:02:43.734Z,,0,,,NaN,,,,,,false,,,,448365.7000000477,448364.7999999523,,448364.09999990463,,448378.937,8,400,,,
break_continue,html.Screen,4_87_2,2023-09-08T17:02:43.735Z,,0,,,NaN,,,,,,false,,,,448366.7999999523,448366.5,,448366.09999990463,,448378.937,8,400,,,
sequence,flow.Sequence,4_87,2023-09-08T17:02:43.736Z,,0,,,4400.21100000001,completion,,,,,false,,,,448367.2999999523,448366.5,443949.484,443957.40000009537,443966.289,448378.937,8,400,,,
trial,html.Screen,4_88_0,2023-09-08T17:02:48.480Z,,0,2,,4732.063000000024,response,ISIC_2887355.JPG,5,ISIC_9050826.JPG,ISIC_2887355.JPG,false,1,keypress(m),500,453111.40000009537,453111,448362.02,448367.7000000477,448378.937,453123.949,8,400,39,,ISIC_9050826.JPG
break,html.Screen,4_88_1,2023-09-08T17:02:48.482Z,,0,,,NaN,,,,,,false,,,,453113.2000000477,453112.7000000477,,453111.7999999523,,453123.949,8,400,,,
break_continue,html.Screen,4_88_2,2023-09-08T17:02:48.483Z,,0,,,NaN,,,,,,false,,,,453114.2000000477,453113.90000009537,,453113.59999990463,,453123.949,8,400,,,
sequence,flow.Sequence,4_88,2023-09-08T17:02:48.483Z,,0,,,4734.963000095391,completion,,,,,false,,,,453114.7000000477,453113.90000009537,448362.02,448367.5,448378.937,453123.949,8,400,,,
trial,html.Screen,4_89_0,2023-09-08T17:02:51.498Z,,0,2,,3004.7510000476614,response,ISIC_3296136.JPG,4,ISIC_0033845.JPG,ISIC_3296136.JPG,false,1,keypress(m),500,456129.2000000477,456128.7000000477,453107.498,453115,453123.949,456137.621,8,400,40,,ISIC_0033845.JPG
break,html.Screen,4_89_1,2023-09-08T17:02:51.499Z,,0,,,NaN,,,,,,false,,,,456131.2000000477,456130.5,,456129.7000000477,,456137.621,8,400,,,
break_continue,html.Screen,4_89_2,2023-09-08T17:02:51.500Z,,0,,,NaN,,,,,,false,,,,456132.2000000477,456131.90000009537,,456131.5,,456137.621,8,400,,,
sequence,flow.Sequence,4_89,2023-09-08T17:02:51.501Z,,0,,,3007.951000095345,completion,,,,,false,,,,456132.59999990463,456131.90000009537,453107.498,453114.90000009537,453123.949,456137.621,8,400,,,
trial,html.Screen,4_90_0,2023-09-08T17:02:54.384Z,,0,2,,2878.1789999523317,response,ISIC_0010648.JPG,5,ISIC_6392478.JPG,ISIC_6392478.JPG,false,0,keypress(z),500,459016,459015.7999999523,456121.066,456133,456137.621,459018.129,8,400,41,,ISIC_0010648.JPG
break,html.Screen,4_90_1,2023-09-08T17:02:54.385Z,,0,,,NaN,,,,,,false,,,,459016.7000000477,459016.59999990463,,459016.09999990463,,459018.129,8,400,,,
break_continue,html.Screen,4_90_2,2023-09-08T17:02:54.385Z,,0,,,NaN,,,,,,false,,,,459017.09999990463,459017,,459016.7999999523,,459018.129,8,400,,,
sequence,flow.Sequence,4_90,2023-09-08T17:02:54.385Z,,0,,,2879.3790000000154,completion,,,,,false,,,,459017.09999990463,459017,456121.066,456132.90000009537,456137.621,459018.129,8,400,,,
trial,html.Screen,4_91_0,2023-09-08T17:02:57.251Z,,0,2,,2864.271000095352,response,ISIC_0046609.JPG,4,ISIC_0682543.JPG,ISIC_0682543.JPG,false,0,keypress(z),500,461882.7999999523,461882.40000009537,459001.68,459017.2999999523,459018.129,461898.714,8,400,42,,ISIC_0046609.JPG
break,html.Screen,4_91_1,2023-09-08T17:02:57.253Z,,0,,,NaN,,,,,,false,,,,461884.7000000477,461884.2000000477,,461883.2999999523,,461898.714,8,400,,,
break_continue,html.Screen,4_91_2,2023-09-08T17:02:57.254Z,,0,,,NaN,,,,,,false,,,,461885.7999999523,461885.5,,461885.09999990463,,461898.714,8,400,,,
sequence,flow.Sequence,4_91,2023-09-08T17:02:57.255Z,,0,,,2867.3709999999846,completion,,,,,false,,,,461886.2000000477,461885.5,459001.68,459017.2999999523,459018.129,461898.714,8,400,,,
trial,html.Screen,4_92_0,2023-09-08T17:03:00.187Z,,0,2,,2919.085999952338,response,ISIC_1670165.JPG,6,ISIC_9556334.JPG,ISIC_1670165.JPG,false,1,keypress(m),500,464818.2999999523,464817.7999999523,461882.179,461886.7000000477,461898.714,464829.158,8,400,43,,ISIC_9556334.JPG
break,html.Screen,4_92_1,2023-09-08T17:03:00.189Z,,0,,,NaN,,,,,,false,,,,464820.40000009537,464819.90000009537,,464818.7999999523,,464829.158,8,400,,,
break_continue,html.Screen,4_92_2,2023-09-08T17:03:00.190Z,,0,,,NaN,,,,,,false,,,,464821.40000009537,464821.2000000477,,464820.7000000477,,464829.158,8,400,,,
sequence,flow.Sequence,4_92,2023-09-08T17:03:00.190Z,,0,,,2922.4860000477056,completion,,,,,false,,,,464821.90000009537,464821.2000000477,461882.179,461886.5,461898.714,464829.158,8,400,,,
trial,html.Screen,4_93_0,2023-09-08T17:03:03.475Z,,0,2,,3276.6419999523205,response,ISIC_1847556.JPG,5,ISIC_2771979.JPG,ISIC_1847556.JPG,false,1,keypress(m),500,468106.40000009537,468105.7999999523,464812.508,464822.2999999523,464829.158,468109.222,8,400,44,,ISIC_2771979.JPG
break,html.Screen,4_93_1,2023-09-08T17:03:03.477Z,,0,,,NaN,,,,,,false,,,,468108.5,468108,,468106.90000009537,,468109.222,8,400,,,
break_continue,html.Screen,4_93_2,2023-09-08T17:03:03.478Z,,0,,,NaN,,,,,,false,,,,468109.59999990463,468109.09999990463,,468108.7999999523,,468109.222,8,400,,,
sequence,flow.Sequence,4_93,2023-09-08T17:03:03.478Z,,0,,,3279.9419999046368,completion,,,,,false,,,,468110.09999990463,468109.09999990463,464812.508,464822.2000000477,464829.158,468109.222,8,400,,,
trial,html.Screen,4_94_0,2023-09-08T17:03:09.098Z,,0,2,,5620.478000047675,response,ISIC_0066483.JPG,7,ISIC_9439034.JPG,ISIC_9439034.JPG,false,0,keypress(z),500,473730.2000000477,473729.7000000477,468092.7,468110.5,468109.222,473737.046,8,400,45,,ISIC_0066483.JPG
break,html.Screen,4_94_1,2023-09-08T17:03:09.100Z,,0,,,NaN,,,,,,false,,,,473732.09999990463,473731.5,,473730.7000000477,,473737.046,8,400,,,
break_continue,html.Screen,4_94_2,2023-09-08T17:03:09.101Z,,0,,,NaN,,,,,,false,,,,473733.2000000477,473732.7999999523,,473732.5,,473737.046,8,400,,,
sequence,flow.Sequence,4_94,2023-09-08T17:03:09.102Z,,0,,,5623.577999952307,completion,,,,,false,,,,473733.59999990463,473732.7999999523,468092.7,468110.40000009537,468109.222,473737.046,8,400,,,
trial,html.Screen,4_95_0,2023-09-08T17:03:12.401Z,,0,2,,3295.6540000477107,response,ISIC_0046983.JPG,5,ISIC_2997601.JPG,ISIC_0046983.JPG,false,1,keypress(m),500,477033.09999990463,477032.7000000477,473720.608,473734,473737.046,477050.452,8,400,46,,ISIC_2997601.JPG
break,html.Screen,4_95_1,2023-09-08T17:03:12.403Z,,0,,,NaN,,,,,,false,,,,477035.09999990463,477034.5,,477033.59999990463,,477050.452,8,400,,,
break_continue,html.Screen,4_95_2,2023-09-08T17:03:12.404Z,,0,,,NaN,,,,,,false,,,,477036,477035.7999999523,,477035.40000009537,,477050.452,8,400,,,
sequence,flow.Sequence,4_95,2023-09-08T17:03:12.405Z,,0,,,3298.7539999523433,completion,,,,,false,,,,477036.5,477035.7999999523,473720.608,473733.7999999523,473737.046,477050.452,8,400,,,
trial,html.Screen,4_96_0,2023-09-08T17:03:15.384Z,,0,2,,2965.2480000476935,response,ISIC_4074537.JPG,4,ISIC_9743052.JPG,ISIC_4074537.JPG,false,1,keypress(m),500,480016.2000000477,480015.7000000477,477033.964,477036.90000009537,477050.452,480030.882,8,400,47,,ISIC_9743052.JPG
break,html.Screen,4_96_1,2023-09-08T17:03:15.387Z,,0,,,NaN,,,,,,false,,,,480018.2999999523,480017.59999990463,,480016.7999999523,,480030.882,8,400,,,
break_continue,html.Screen,4_96_2,2023-09-08T17:03:15.388Z,,0,,,NaN,,,,,,false,,,,480019.2999999523,480019,,480018.59999990463,,480030.882,8,400,,,
sequence,flow.Sequence,4_96,2023-09-08T17:03:15.388Z,,0,,,2968.54800000001,completion,,,,,false,,,,480019.7999999523,480019,477033.964,477036.7999999523,477050.452,480030.882,8,400,,,
trial,html.Screen,4_97_0,2023-09-08T17:03:19.970Z,,0,2,,4569.8180000477005,response,ISIC_0002900.JPG,6,ISIC_0058625.JPG,ISIC_0002900.JPG,false,1,keypress(m),500,484601.2000000477,484600.7000000477,480014.349,480020.2000000477,480030.882,484609.738,8,400,48,,ISIC_0058625.JPG
break,html.Screen,4_97_1,2023-09-08T17:03:19.971Z,,0,,,NaN,,,,,,false,,,,484603.09999990463,484602.59999990463,,484601.7000000477,,484609.738,8,400,,,
break_continue,html.Screen,4_97_2,2023-09-08T17:03:19.973Z,,0,,,NaN,,,,,,false,,,,484604.2000000477,484603.90000009537,,484603.5,,484609.738,8,400,,,
sequence,flow.Sequence,4_97,2023-09-08T17:03:19.973Z,,0,,,4573.018000095384,completion,,,,,false,,,,484604.7000000477,484603.90000009537,480014.349,480020,480030.882,484609.738,8,400,,,
trial,html.Screen,4_98_0,2023-09-08T17:03:22.952Z,,0,2,,2973.8619999046205,response,ISIC_8087949.JPG,5,ISIC_0033058.JPG,ISIC_8087949.JPG,false,1,keypress(m),500,487584.2000000477,487583.59999990463,484593.358,484605,484609.738,487590.138,8,400,49,,ISIC_0033058.JPG
break,html.Screen,4_98_1,2023-09-08T17:03:22.954Z,,0,,,NaN,,,,,,false,,,,487586.09999990463,487585.5,,487584.59999990463,,487590.138,8,400,,,
break_continue,html.Screen,4_98_2,2023-09-08T17:03:22.955Z,,0,,,NaN,,,,,,false,,,,487587.09999990463,487586.7999999523,,487586.5,,487590.138,8,400,,,
sequence,flow.Sequence,4_98,2023-09-08T17:03:22.956Z,,0,,,2977.061999952304,completion,,,,,false,,,,487587.59999990463,487586.7999999523,484593.358,484605,484609.738,487590.138,8,400,,,
trial,html.Screen,4_99_0,2023-09-08T17:03:26.016Z,,0,2,,3056.7620000953902,response,ISIC_4130478.JPG,5,ISIC_9403390.JPG,ISIC_9403390.JPG,false,0,keypress(z),500,490647.5,490646.90000009537,487573.679,487588,487590.138,490653.83,8,400,50,,ISIC_4130478.JPG
break,html.Screen,4_99_1,2023-09-08T17:03:36.014Z,,0,,,10007.072999999975,timeout,,,,,false,,,,500645.59999990463,500644.251,490637.281,490648.2999999523,490653.83,500660.903,8,400,,,
break_continue,html.Screen,4_99_2,2023-09-08T17:03:37.711Z,,0,,,1647.2970000476926,response,,,,,false,continue,keypress(Space),,502342.7999999523,502308.2000000477,500644.251,500645.90000009537,500660.903,502359.138,8,400,,,
sequence,flow.Sequence,4_99,2023-09-08T17:03:37.711Z,,0,,,14718.062000047707,completion,,,,,false,,,,502343,502308.2000000477,487573.679,487587.90000009537,487590.138,502359.138,8,400,,,
trial,html.Screen,4_100_0,2023-09-08T17:03:40.746Z,,0,3,,3017.661999952339,response,ISIC_8363069.JPG,5,ISIC_0067226.JPG,ISIC_8363069.JPG,false,1,keypress(m),500,505377.2999999523,505376.7999999523,502342.446,502343.09999990463,502359.138,505389.376,8,400,1,,ISIC_0067226.JPG
break,html.Screen,4_100_1,2023-09-08T17:03:40.748Z,,0,,,NaN,,,,,,false,,,,505379.2999999523,505378.7000000477,,505377.90000009537,,505389.376,8,400,,,
break_continue,html.Screen,4_100_2,2023-09-08T17:03:40.749Z,,0,,,NaN,,,,,,false,,,,505380.2999999523,505380,,505379.59999990463,,505389.376,8,400,,,
sequence,flow.Sequence,4_100,2023-09-08T17:03:40.749Z,,0,,,3020.862000000023,completion,,,,,false,,,,505380.7999999523,505380,502342.446,502343.09999990463,502359.138,505389.376,8,400,,,
trial,html.Screen,4_101_0,2023-09-08T17:03:43.536Z,,0,3,,2778.3240000476944,response,ISIC_1850388.JPG,6,ISIC_0961235.JPG,ISIC_0961235.JPG,false,0,keypress(z),500,508168.2000000477,508167.7000000477,505372.802,505381.2000000477,505389.376,508187.68,8,400,2,,ISIC_1850388.JPG
break,html.Screen,4_101_1,2023-09-08T17:03:43.538Z,,0,,,NaN,,,,,,false,,,,508170.09999990463,508169.40000009537,,508168.7000000477,,508187.68,8,400,,,
break_continue,html.Screen,4_101_2,2023-09-08T17:03:43.539Z,,0,,,NaN,,,,,,false,,,,508171.2000000477,508170.7999999523,,508170.40000009537,,508187.68,8,400,,,
sequence,flow.Sequence,4_101,2023-09-08T17:03:43.540Z,,0,,,2781.423999952327,completion,,,,,false,,,,508171.59999990463,508170.7999999523,505372.802,505381.09999990463,505389.376,508187.68,8,400,,,
trial,html.Screen,4_102_0,2023-09-08T17:03:46.407Z,,0,3,,2850.820000000007,response,ISIC_0011797.JPG,5,ISIC_0732375.JPG,ISIC_0732375.JPG,false,0,keypress(z),500,511039,511038.5,508153.522,508172,508187.68,511050.5,8,400,3,,ISIC_0011797.JPG
break,html.Screen,4_102_1,2023-09-08T17:03:46.409Z,,0,,,NaN,,,,,,false,,,,511041,511040.2999999523,,511039.5,,511050.5,8,400,,,
break_continue,html.Screen,4_102_2,2023-09-08T17:03:46.410Z,,0,,,NaN,,,,,,false,,,,511042,511041.59999990463,,511041.2999999523,,511050.5,8,400,,,
sequence,flow.Sequence,4_102,2023-09-08T17:03:46.411Z,,0,,,2853.9199999046396,completion,,,,,false,,,,511042.59999990463,511041.59999990463,508153.522,508171.90000009537,508187.68,511050.5,8,400,,,
trial,html.Screen,4_103_0,2023-09-08T17:03:50.386Z,,0,3,,3966.2000000476837,response,ISIC_8135931.JPG,5,ISIC_9921747.JPG,ISIC_8135931.JPG,false,1,keypress(m),500,515017.2000000477,515016.7000000477,511033.945,511042.90000009537,511050.5,515029.886,8,400,4,,ISIC_9921747.JPG
break,html.Screen,4_103_1,2023-09-08T17:03:50.388Z,,0,,,NaN,,,,,,false,,,,515019.2999999523,515018.7000000477,,515017.7000000477,,515029.886,8,400,,,
break_continue,html.Screen,4_103_2,2023-09-08T17:03:50.389Z,,0,,,NaN,,,,,,false,,,,515020.40000009537,515020,,515019.59999990463,,515029.886,8,400,,,
sequence,flow.Sequence,4_103,2023-09-08T17:03:50.389Z,,0,,,3969.5,completion,,,,,false,,,,515020.7000000477,515020,511033.945,511042.90000009537,511050.5,515029.886,8,400,,,
trial,html.Screen,4_104_0,2023-09-08T17:03:53.897Z,,0,3,,3498.4139999523177,response,ISIC_9386509.JPG,5,ISIC_4509925.JPG,ISIC_4509925.JPG,false,0,keypress(z),500,518528.7999999523,518528.2999999523,515013.532,515021.40000009537,515029.886,518543.238,8,400,5,,ISIC_9386509.JPG
break,html.Screen,4_104_1,2023-09-08T17:03:53.900Z,,0,,,NaN,,,,,,false,,,,518531.59999990463,518530.59999990463,,518529.2999999523,,518543.238,8,400,,,
break_continue,html.Screen,4_104_2,2023-09-08T17:03:53.902Z,,0,,,NaN,,,,,,false,,,,518533.5,518533.09999990463,,518532.5,,518543.238,8,400,,,
sequence,flow.Sequence,4_104,2023-09-08T17:03:53.902Z,,0,,,3503.213999904634,completion,,,,,false,,,,518534,518533.09999990463,515013.532,515021.2000000477,515029.886,518543.238,8,400,,,
trial,html.Screen,4_105_0,2023-09-08T17:03:57.604Z,,0,3,,3691.761999999988,response,ISIC_5457229.JPG,6,ISIC_0031586.JPG,ISIC_5457229.JPG,false,1,keypress(m),500,522235.40000009537,522235,518526.741,518534.2999999523,518543.238,522239.54,8,400,6,,ISIC_0031586.JPG
break,html.Screen,4_105_1,2023-09-08T17:03:57.606Z,,0,,,NaN,,,,,,false,,,,522237.40000009537,522236.7000000477,,522235.90000009537,,522239.54,8,400,,,
break_continue,html.Screen,4_105_2,2023-09-08T17:03:57.607Z,,0,,,NaN,,,,,,false,,,,522238.7000000477,522238.2999999523,,522237.7999999523,,522239.54,8,400,,,
sequence,flow.Sequence,4_105,2023-09-08T17:03:57.607Z,,0,,,3695.061999952304,completion,,,,,false,,,,522239.2000000477,522238.2999999523,518526.741,518534.2999999523,518543.238,522239.54,8,400,,,
trial,html.Screen,4_106_0,2023-09-08T17:04:09.098Z,,0,3,,11522.031000000017,timeout,ISIC_0033950.JPG,6,ISIC_0033643.JPG,,false,,,500,533729.9000000954,533729.2000000477,522222.915,522239.59999990463,522239.54,533761.571,8,400,7,,
break,html.Screen,4_106_1,2023-09-08T17:04:09.100Z,,0,,,NaN,,,,,,false,,,,533731.4000000954,533730.9000000954,,533730.0999999046,,533761.571,8,400,,,
break_continue,html.Screen,4_106_2,2023-09-08T17:04:09.101Z,,0,,,NaN,,,,,,false,,,,533732.4000000954,533732.0999999046,,533731.7000000477,,533761.571,8,400,,,
sequence,flow.Sequence,4_106,2023-09-08T17:04:09.101Z,,0,,,11492.559999904654,completion,,,,,false,,,,533732.7999999523,533732.0999999046,522222.915,522239.5,522239.54,533761.571,8,400,,,
trial,html.Screen,4_107_0,2023-09-08T17:04:12.034Z,,0,3,,2903.1290000476874,response,ISIC_0054892.JPG,5,ISIC_3319229.JPG,ISIC_3319229.JPG,false,0,keypress(z),500,536665.4000000954,536664.7000000477,533744.905,533733.2000000477,533761.571,536675.386,8,400,8,,ISIC_0054892.JPG
break,html.Screen,4_107_1,2023-09-08T17:04:12.036Z,,0,,,NaN,,,,,,false,,,,536667.4000000954,536666.7999999523,,536665.7999999523,,536675.386,8,400,,,
break_continue,html.Screen,4_107_2,2023-09-08T17:04:12.037Z,,0,,,NaN,,,,,,false,,,,536668.4000000954,536668.0999999046,,536667.5999999046,,536675.386,8,400,,,
sequence,flow.Sequence,4_107,2023-09-08T17:04:12.037Z,,0,,,2906.5289999046363,completion,,,,,false,,,,536668.7999999523,536668.0999999046,533744.905,533733.0999999046,533761.571,536675.386,8,400,,,
trial,html.Screen,4_108_0,2023-09-08T17:04:15.592Z,,0,3,,3548.0140000953106,response,ISIC_4434803.JPG,5,ISIC_3963183.JPG,ISIC_3963183.JPG,false,0,keypress(z),500,540223.7999999523,540223.4000000954,536658.913,536669.2000000477,536675.386,540238.534,8,400,9,,ISIC_4434803.JPG
break,html.Screen,4_108_1,2023-09-08T17:04:15.594Z,,0,,,NaN,,,,,,false,,,,540225.4000000954,540224.7999999523,,540224.2000000477,,540238.534,8,400,,,
break_continue,html.Screen,4_108_2,2023-09-08T17:04:15.595Z,,0,,,NaN,,,,,,false,,,,540226.2999999523,540225.9000000954,,540225.5999999046,,540238.534,8,400,,,
sequence,flow.Sequence,4_108,2023-09-08T17:04:15.595Z,,0,,,3550.5140000953106,completion,,,,,false,,,,540226.7000000477,540225.9000000954,536658.913,536669.0999999046,536675.386,540238.534,8,400,,,
trial,html.Screen,4_109_0,2023-09-08T17:04:20.750Z,,0,3,,5143.166000047699,response,ISIC_0650126.JPG,6,ISIC_0413563.JPG,ISIC_0413563.JPG,false,0,keypress(z),500,545382.2000000477,545381.7000000477,540221.955,540227,540238.534,545400.138,8,400,10,,ISIC_0650126.JPG
break,html.Screen,4_109_1,2023-09-08T17:04:20.752Z,,0,,,NaN,,,,,,false,,,,545384.0999999046,545383.5,,545382.7000000477,,545400.138,8,400,,,
break_continue,html.Screen,4_109_2,2023-09-08T17:04:20.753Z,,0,,,NaN,,,,,,false,,,,545385.0999999046,545384.7999999523,,545384.4000000954,,545400.138,8,400,,,
sequence,flow.Sequence,4_109,2023-09-08T17:04:20.754Z,,0,,,5146.265999952331,completion,,,,,false,,,,545385.5999999046,545384.7999999523,540221.955,540226.9000000954,540238.534,545400.138,8,400,,,
trial,html.Screen,4_110_0,2023-09-08T17:04:24.053Z,,0,3,,3284.5620000476483,response,ISIC_0054444.JPG,5,ISIC_0062468.JPG,ISIC_0054444.JPG,false,1,keypress(m),500,548685.2000000477,548684.7000000477,545367.098,545385.9000000954,545400.138,548696.907,8,400,11,,ISIC_0062468.JPG
break,html.Screen,4_110_1,2023-09-08T17:04:24.055Z,,0,,,NaN,,,,,,false,,,,548687.0999999046,548686.5,,548685.7000000477,,548696.907,8,400,,,
break_continue,html.Screen,4_110_2,2023-09-08T17:04:24.056Z,,0,,,NaN,,,,,,false,,,,548688.2000000477,548687.9000000954,,548687.4000000954,,548696.907,8,400,,,
sequence,flow.Sequence,4_110,2023-09-08T17:04:24.057Z,,0,,,3287.762000095332,completion,,,,,false,,,,548688.5999999046,548687.9000000954,545367.098,545385.7999999523,545400.138,548696.907,8,400,,,
trial,html.Screen,4_111_0,2023-09-08T17:04:27.661Z,,0,3,,3595.293000047677,response,ISIC_0028136.JPG,6,ISIC_3179296.JPG,ISIC_3179296.JPG,false,0,keypress(z),500,552292.7000000477,552292.2000000477,548680.464,548689,548696.907,552310.061,8,400,12,,ISIC_0028136.JPG
break,html.Screen,4_111_1,2023-09-08T17:04:27.663Z,,0,,,NaN,,,,,,false,,,,552294.7999999523,552294,,552293.0999999046,,552310.061,8,400,,,
break_continue,html.Screen,4_111_2,2023-09-08T17:04:27.664Z,,0,,,NaN,,,,,,false,,,,552296,552295.5999999046,,552295.2000000477,,552310.061,8,400,,,
sequence,flow.Sequence,4_111,2023-09-08T17:04:27.665Z,,0,,,3598.692999904626,completion,,,,,false,,,,552296.2999999523,552295.5999999046,548680.464,548688.7999999523,548696.907,552310.061,8,400,,,
trial,html.Screen,4_112_0,2023-09-08T17:04:31.156Z,,0,3,,3477.5389999046456,response,ISIC_7418723.JPG,6,ISIC_7621412.JPG,ISIC_7418723.JPG,false,1,keypress(m),500,555788.2000000477,555787.5999999046,552293.461,552296.7000000477,552310.061,555807.271,8,400,13,,ISIC_7621412.JPG
break,html.Screen,4_112_1,2023-09-08T17:04:31.158Z,,0,,,NaN,,,,,,false,,,,555790.0999999046,555789.4000000954,,555788.5999999046,,555807.271,8,400,,,
break_continue,html.Screen,4_112_2,2023-09-08T17:04:31.159Z,,0,,,NaN,,,,,,false,,,,555791.0999999046,555790.7999999523,,555790.4000000954,,555807.271,8,400,,,
sequence,flow.Sequence,4_112,2023-09-08T17:04:31.160Z,,0,,,3480.7389999523293,completion,,,,,false,,,,555791.5999999046,555790.7999999523,552293.461,552296.5999999046,552310.061,555807.271,8,400,,,
trial,html.Screen,4_113_0,2023-09-08T17:04:34.709Z,,0,3,,3533.1290000954177,response,ISIC_0055226.JPG,5,ISIC_0009941.JPG,ISIC_0009941.JPG,false,0,keypress(z),500,559341,559340.4000000954,555773.474,555791.9000000954,555807.271,559353.181,8,400,14,,ISIC_0055226.JPG
break,html.Screen,4_113_1,2023-09-08T17:04:34.712Z,,0,,,NaN,,,,,,false,,,,559343.4000000954,559342.5999999046,,559341.5,,559353.181,8,400,,,
break_continue,html.Screen,4_113_2,2023-09-08T17:04:34.713Z,,0,,,NaN,,,,,,false,,,,559344.7000000477,559344.2999999523,,559343.9000000954,,559353.181,8,400,,,
sequence,flow.Sequence,4_113,2023-09-08T17:04:34.713Z,,0,,,3537.0289999523666,completion,,,,,false,,,,559345.0999999046,559344.2999999523,555773.474,555791.9000000954,555807.271,559353.181,8,400,,,
trial,html.Screen,4_114_0,2023-09-08T17:04:37.618Z,,0,3,,2895.719000095385,response,ISIC_0011917.JPG,5,ISIC_0033029.JPG,ISIC_0033029.JPG,false,0,keypress(z),500,562249.4000000954,562248.9000000954,559336.521,559345.5,559353.181,562267.019,8,400,15,,ISIC_0011917.JPG
break,html.Screen,4_114_1,2023-09-08T17:04:37.620Z,,0,,,NaN,,,,,,false,,,,562251.2999999523,562250.7999999523,,562249.7999999523,,562267.019,8,400,,,
break_continue,html.Screen,4_114_2,2023-09-08T17:04:37.621Z,,0,,,NaN,,,,,,false,,,,562252.4000000954,562252.0999999046,,562251.7000000477,,562267.019,8,400,,,
sequence,flow.Sequence,4_114,2023-09-08T17:04:37.621Z,,0,,,2898.9189999046503,completion,,,,,false,,,,562252.7999999523,562252.0999999046,559336.521,559345.4000000954,559353.181,562267.019,8,400,,,
trial,html.Screen,4_115_0,2023-09-08T17:04:41.211Z,,0,3,,3575.3810000953963,response,ISIC_0065658.JPG,5,ISIC_0055282.JPG,ISIC_0065658.JPG,false,1,keypress(m),500,565842.9000000954,565842.4000000954,562250.323,562253.2000000477,562267.019,565863.42,8,400,16,,ISIC_0055282.JPG
break,html.Screen,4_115_1,2023-09-08T17:04:41.213Z,,0,,,NaN,,,,,,false,,,,565844.7999999523,565844.0999999046,,565843.4000000954,,565863.42,8,400,,,
break_continue,html.Screen,4_115_2,2023-09-08T17:04:41.214Z,,0,,,NaN,,,,,,false,,,,565845.7999999523,565845.5,,565845.0999999046,,565863.42,8,400,,,
sequence,flow.Sequence,4_115,2023-09-08T17:04:41.215Z,,0,,,3578.481000000029,completion,,,,,false,,,,565846.2999999523,565845.5,562250.323,562253.0999999046,562267.019,565863.42,8,400,,,
trial,html.Screen,4_116_0,2023-09-08T17:04:44.402Z,,0,3,,3169.579999999958,response,ISIC_0024574.JPG,5,ISIC_0054185.JPG,ISIC_0024574.JPG,false,1,keypress(m),500,569033.5999999046,569033,565846.791,565846.7000000477,565863.42,569043.687,8,400,17,,ISIC_0054185.JPG
break,html.Screen,4_116_1,2023-09-08T17:04:44.404Z,,0,,,NaN,,,,,,false,,,,569035.5999999046,569035,,569034,,569043.687,8,400,,,
break_continue,html.Screen,4_116_2,2023-09-08T17:04:44.405Z,,0,,,NaN,,,,,,false,,,,569036.5999999046,569036.2999999523,,569035.9000000954,,569043.687,8,400,,,
sequence,flow.Sequence,4_116,2023-09-08T17:04:44.405Z,,0,,,3172.8799999522744,completion,,,,,false,,,,569037.0999999046,569036.2999999523,565846.791,565846.5999999046,565863.42,569043.687,8,400,,,
trial,html.Screen,4_117_0,2023-09-08T17:04:47.625Z,,0,3,,3212.912999904598,response,ISIC_0046633.JPG,5,ISIC_0034243.JPG,ISIC_0034243.JPG,false,0,keypress(z),500,572257.0999999046,572256.5999999046,569027.322,569037.4000000954,569043.687,572273.918,8,400,18,,ISIC_0046633.JPG
break,html.Screen,4_117_1,2023-09-08T17:04:47.627Z,,0,,,NaN,,,,,,false,,,,572259,572258.5,,572257.5999999046,,572273.918,8,400,,,
break_continue,html.Screen,4_117_2,2023-09-08T17:04:47.628Z,,0,,,NaN,,,,,,false,,,,572260.0999999046,572259.7000000477,,572259.4000000954,,572273.918,8,400,,,
sequence,flow.Sequence,4_117,2023-09-08T17:04:47.629Z,,0,,,3216.0130000476493,completion,,,,,false,,,,572260.5,572259.7000000477,569027.322,569037.4000000954,569043.687,572273.918,8,400,,,
trial,html.Screen,4_118_0,2023-09-08T17:04:52.273Z,,0,3,,4630.681999904686,response,ISIC_0000490.JPG,4,ISIC_7503950.JPG,ISIC_7503950.JPG,false,0,keypress(z),500,576905.2000000477,576904.5999999046,572257.225,572260.9000000954,572273.918,576919.276,8,400,19,,ISIC_0000490.JPG
break,html.Screen,4_118_1,2023-09-08T17:04:52.275Z,,0,,,NaN,,,,,,false,,,,576907.0999999046,576906.4000000954,,576905.5,,576919.276,8,400,,,
break_continue,html.Screen,4_118_2,2023-09-08T17:04:52.276Z,,0,,,NaN,,,,,,false,,,,576908.2000000477,576907.7999999523,,576907.4000000954,,576919.276,8,400,,,
sequence,flow.Sequence,4_118,2023-09-08T17:04:52.277Z,,0,,,4633.881999952369,completion,,,,,false,,,,576908.5999999046,576907.7999999523,572257.225,572260.7999999523,572273.918,576919.276,8,400,,,
trial,html.Screen,4_119_0,2023-09-08T17:04:56.408Z,,0,3,,4120.224000000046,response,ISIC_1081430.JPG,6,ISIC_0890398.JPG,ISIC_1081430.JPG,false,1,keypress(m),500,581040,581039.5,576902.78,576908.9000000954,576919.276,581048.572,8,400,20,,ISIC_0890398.JPG
break,html.Screen,4_119_1,2023-09-08T17:04:56.410Z,,0,,,NaN,,,,,,false,,,,581041.9000000954,581041.2999999523,,581040.4000000954,,581048.572,8,400,,,
break_continue,html.Screen,4_119_2,2023-09-08T17:04:56.411Z,,0,,,NaN,,,,,,false,,,,581043,581042.5999999046,,581042.2000000477,,581048.572,8,400,,,
sequence,flow.Sequence,4_119,2023-09-08T17:04:56.412Z,,0,,,4123.323999904678,completion,,,,,false,,,,581043.4000000954,581042.5999999046,576902.78,576908.9000000954,576919.276,581048.572,8,400,,,
trial,html.Screen,4_120_0,2023-09-08T17:04:59.619Z,,0,3,,3201.3280000953237,response,ISIC_6569060.JPG,5,ISIC_7358691.JPG,ISIC_7358691.JPG,false,0,keypress(z),500,584250.4000000954,584249.9000000954,581031.939,581043.7000000477,581048.572,584262.041,8,400,21,,ISIC_6569060.JPG
break,html.Screen,4_120_1,2023-09-08T17:04:59.620Z,,0,,,NaN,,,,,,false,,,,584252.2000000477,584251.5,,584250.7000000477,,584262.041,8,400,,,
break_continue,html.Screen,4_120_2,2023-09-08T17:04:59.622Z,,0,,,NaN,,,,,,false,,,,584253.2999999523,584253,,584252.5,,584262.041,8,400,,,
sequence,flow.Sequence,4_120,2023-09-08T17:04:59.622Z,,0,,,3204.4279999999562,completion,,,,,false,,,,584253.7000000477,584253,581031.939,581043.7000000477,581048.572,584262.041,8,400,,,
trial,html.Screen,4_121_0,2023-09-08T17:05:02.475Z,,0,3,,2844.5589999046642,response,ISIC_0064026.JPG,4,ISIC_7501061.JPG,ISIC_7501061.JPG,false,0,keypress(z),500,587107.0999999046,587106.5999999046,584245.554,584253.9000000954,584262.041,587126.875,8,400,22,,ISIC_0064026.JPG
break,html.Screen,4_121_1,2023-09-08T17:05:02.477Z,,0,,,NaN,,,,,,false,,,,587109.0999999046,587108.5,,587107.5999999046,,587126.875,8,400,,,
break_continue,html.Screen,4_121_2,2023-09-08T17:05:02.479Z,,0,,,NaN,,,,,,false,,,,587110.2999999523,587109.9000000954,,587109.5,,587126.875,8,400,,,
sequence,flow.Sequence,4_121,2023-09-08T17:05:02.479Z,,0,,,2847.859000095399,completion,,,,,false,,,,587110.7000000477,587109.9000000954,584245.554,584253.7999999523,584262.041,587126.875,8,400,,,
trial,html.Screen,4_122_0,2023-09-08T17:05:05.491Z,,0,3,,2995.7249999046326,response,ISIC_2259190.JPG,6,ISIC_9518180.JPG,ISIC_2259190.JPG,false,1,keypress(m),500,590123.0999999046,590122.5999999046,587092.741,587111.2999999523,587126.875,590139.619,8,400,23,,ISIC_9518180.JPG
break,html.Screen,4_122_1,2023-09-08T17:05:05.494Z,,0,,,NaN,,,,,,false,,,,590125.4000000954,590124.9000000954,,590123.7000000477,,590139.619,8,400,,,
break_continue,html.Screen,4_122_2,2023-09-08T17:05:05.495Z,,0,,,NaN,,,,,,false,,,,590126.5,590126.2000000477,,590125.7999999523,,590139.619,8,400,,,
sequence,flow.Sequence,4_122,2023-09-08T17:05:05.495Z,,0,,,2999.3250000476837,completion,,,,,false,,,,590127,590126.2000000477,587092.741,587111,587126.875,590139.619,8,400,,,
trial,html.Screen,4_123_0,2023-09-08T17:05:08.499Z,,0,3,,2990.381000000052,response,ISIC_7288818.JPG,5,ISIC_2447578.JPG,ISIC_2447578.JPG,false,0,keypress(z),500,593130.5,593130,590123.054,590127.2999999523,590139.619,593136.755,8,400,24,,ISIC_7288818.JPG
break,html.Screen,4_123_1,2023-09-08T17:05:08.501Z,,0,,,NaN,,,,,,false,,,,593132.2000000477,593131.7000000477,,593130.9000000954,,593136.755,8,400,,,
break_continue,html.Screen,4_123_2,2023-09-08T17:05:08.501Z,,0,,,NaN,,,,,,false,,,,593133.2000000477,593132.9000000954,,593132.5,,593136.755,8,400,,,
sequence,flow.Sequence,4_123,2023-09-08T17:05:08.502Z,,0,,,2993.2810000954196,completion,,,,,false,,,,593133.5999999046,593132.9000000954,590123.054,590127.2000000477,590139.619,593136.755,8,400,,,
trial,html.Screen,4_124_0,2023-09-08T17:05:11.625Z,,0,3,,3119.445000047679,response,ISIC_8244535.JPG,5,ISIC_0031586.JPG,ISIC_8244535.JPG,false,1,keypress(m),500,596256.7000000477,596256.2000000477,593120.028,593134,593136.755,596266.996,8,400,25,,ISIC_0031586.JPG
break,html.Screen,4_124_1,2023-09-08T17:05:11.627Z,,0,,,NaN,,,,,,false,,,,596258.7000000477,596258,,596257.2000000477,,596266.996,8,400,,,
break_continue,html.Screen,4_124_2,2023-09-08T17:05:11.628Z,,0,,,NaN,,,,,,false,,,,596259.9000000954,596259.5,,596259,,596266.996,8,400,,,
sequence,flow.Sequence,4_124,2023-09-08T17:05:11.629Z,,0,,,3122.7449999999953,completion,,,,,false,,,,596260.2999999523,596259.5,593120.028,593133.7999999523,593136.755,596266.996,8,400,,,
