sender,sender_type,sender_id,timestamp,meta,,blockNo,condition,duration,ended_on,img_left,img_reveal,img_right,loser,practice,response,response_action,selection_duration,time_commit,time_end,time_render,time_run,time_show,time_switch,total_blocks,total_trials,trialNo,url,winner
informed_consent,html.Screen,0,2023-10-31T17:06:58.426Z,"{""labjs_version"":""20.2.4"",""labjs_build"":{""flavor"":""production"",""commit"":""f5b4a49f956347addd546a832a3327688c2c0fef""},""location"":""https://run.pavlovia.org/MurrayBennett/melanoma-2afc/?participant=66313&platform=sona"",""userAgent"":""Mozilla/5.0 (Windows NT 10.0; Win64; x64) AppleWebKit/537.36 (KHTML, like Gecko) Chrome/118.0.0.0 Safari/537.36"",""platform"":""Win32"",""language"":""en-US"",""locale"":""en-US"",""timeZone"":""America/Chicago"",""timezoneOffset"":300,""screen_width"":1920,""screen_height"":1080,""scroll_width"":1920,""scroll_height"":915,""window_innerWidth"":1920,""window_innerHeight"":963,""devicePixelRatio"":1}",,,,3410.5249999284742,response,,,,,,consent,click button,,5871.899999976158,5870.699999928474,2110.13,2422.2999999523163,2460.175,5993.541,,,,"{""participant"":""66313"",""platform"":""sona""}",
Welcome,html.Screen,1,2023-10-31T17:07:00.610Z,,,,uniform,2061.459,response,,,,,,continue,click button,,8055.699999928474,8055,5860.156,5872,5993.541,8060.134,,,,,
trial,html.Screen,2_0_0,2023-10-31T17:07:12.099Z,,0,0,,11516.769999999999,timeout,ISIC_0063388.JPG,,ISIC_0025593.JPG,,true,,,500,19545.199999928474,19544.699999928474,8043.722,8055.899999976158,8060.134,19576.904,1,6,1,,
sequence,flow.Sequence,2_0,2023-10-31T17:07:12.100Z,,0,,,11484.565999928474,completion,,,,,true,,,,19545.600000023842,19544.699999928474,8043.722,8055.899999976158,8060.134,19576.904,1,6,,,
trial,html.Screen,2_1_0,2023-10-31T17:07:23.616Z,,0,0,,11516.862000000001,timeout,ISIC_0028178.JPG,,ISIC_1309015.JPG,,true,,,500,31061.399999976158,31061,19560.268,19545.799999952316,19576.904,31093.766,1,6,2,,
sequence,flow.Sequence,2_1,2023-10-31T17:07:23.616Z,,0,,,11484.096000000001,completion,,,,,true,,,,31061.699999928474,31061,19560.268,19545.799999952316,19576.904,31093.766,1,6,,,
trial,html.Screen,2_2_0,2023-10-31T17:07:28.708Z,,0,0,,5058.834000023842,response,ISIC_3314853.JPG,,ISIC_0031128.JPG,ISIC_3314853.JPG,true,1,keypress(m),500,36153.199999928474,36152.60000002384,31076.955,31062,31093.766,36160.152,1,6,3,,ISIC_0031128.JPG
sequence,flow.Sequence,2_2,2023-10-31T17:07:28.708Z,,0,,,5058.834000023842,completion,,,,,true,,,,36153.89999997616,36152.60000002384,31076.955,31061.899999976158,31093.766,36160.152,1,6,,,
trial,html.Screen,2_3_0,2023-10-31T17:07:33.399Z,,0,0,,4683.647999952314,response,ISIC_0031612.JPG,,ISIC_8980141.JPG,ISIC_8980141.JPG,true,0,keypress(z),500,40844.299999952316,40843.799999952316,36143.604,36154.299999952316,36160.152,40860.183,1,6,4,,ISIC_0031612.JPG
sequence,flow.Sequence,2_3,2023-10-31T17:07:33.399Z,,0,,,4683.647999952314,completion,,,,,true,,,,40844.89999997616,40843.799999952316,36143.604,36154.10000002384,36160.152,40860.183,1,6,,,
trial,html.Screen,2_4_0,2023-10-31T17:07:36.585Z,,0,0,,3169.8170000000027,response,ISIC_1197737.JPG,,ISIC_9721604.JPG,ISIC_9721604.JPG,true,0,keypress(z),500,44030.39999997616,44030,40843.529,40845,40860.183,44043.552,1,6,5,,ISIC_1197737.JPG
sequence,flow.Sequence,2_4,2023-10-31T17:07:36.585Z,,0,,,3169.8170000000027,completion,,,,,true,,,,44031,44030,40843.529,40845,40860.183,44043.552,1,6,,,
trial,html.Screen,2_5_0,2023-10-31T17:07:39.659Z,,0,0,,3061.147999928471,response,ISIC_0010681.JPG,,ISIC_0025346.JPG,ISIC_0025346.JPG,true,0,keypress(z),500,47105.10000002384,47104.699999928474,44027.139,44031.299999952316,44043.552,47110.194,1,6,6,,ISIC_0010681.JPG
sequence,flow.Sequence,2_5,2023-10-31T17:07:39.660Z,,0,,,3061.147999928471,completion,,,,,true,,,,47105.60000002384,47104.699999928474,44027.139,44031.199999928474,44043.552,47110.194,1,6,,,
loop,flow.Loop,2,2023-10-31T17:07:39.660Z,,,,,39044.565999928476,completion,,,,,true,,,,47106,47104.699999928474,8043.722,8055.799999952316,8060.134,47110.194,1,6,,,
exp_instructions,html.Screen,3,2023-10-31T17:07:52.860Z,,,,,13193.005999928471,response,,,,,,continue,keypress(Space),,60303.699999928474,60303.199999928474,47093.785,47106.199999928474,47110.194,60310.284,,,,,
trial,html.Screen,4_0_0,2023-10-31T17:07:57.614Z,,0,1,,4747.415999928475,response,ISIC_3151260.JPG,5,ISIC_0011959.JPG,ISIC_3151260.JPG,false,1,keypress(m),500,65058,65057.699999928474,60293.868,60303.699999928474,60310.284,65060.313,8,400,1,,ISIC_0011959.JPG
break,html.Screen,4_0_1,2023-10-31T17:07:57.615Z,,0,,,NaN,,,,,,false,,,,65059.60000002384,65059.199999928474,,65058.5,,65060.313,8,400,,,
break_continue,html.Screen,4_0_2,2023-10-31T17:07:57.616Z,,0,,,NaN,,,,,,false,,,,65060.299999952316,65060.10000002384,,65059.799999952316,,65060.313,8,400,,,
sequence,flow.Sequence,4_0,2023-10-31T17:07:57.617Z,,0,,,4749.816000023842,completion,,,,,false,,,,65060.89999997616,65060.10000002384,60293.868,60303.699999928474,60310.284,65060.313,8,400,,,
trial,html.Screen,4_1_0,2023-10-31T17:08:00.389Z,,0,1,,2772.4869999523144,response,ISIC_0899961.JPG,5,ISIC_0012425.JPG,ISIC_0012425.JPG,false,0,keypress(z),500,67833.10000002384,67832.79999995232,65043.935,65061.199999928474,65060.313,67843.808,8,400,2,,ISIC_0899961.JPG
break,html.Screen,4_1_1,2023-10-31T17:08:00.390Z,,0,,,NaN,,,,,,false,,,,67834.19999992847,67833.89999997616,,67833.5,,67843.808,8,400,,,
break_continue,html.Screen,4_1_2,2023-10-31T17:08:00.391Z,,0,,,NaN,,,,,,false,,,,67834.79999995232,67834.5,,67834.39999997616,,67843.808,8,400,,,
sequence,flow.Sequence,4_1,2023-10-31T17:08:00.391Z,,0,,,2774.186999999998,completion,,,,,false,,,,67835,67834.5,65043.935,65061.10000002384,65060.313,67843.808,8,400,,,
trial,html.Screen,4_2_0,2023-10-31T17:08:03.354Z,,0,1,,2953.5919999761536,response,ISIC_0011802.JPG,5,ISIC_6806124.JPG,ISIC_6806124.JPG,false,0,keypress(z),500,70797.69999992847,70797.39999997616,67827.159,67835.29999995232,67843.808,70810.57,8,400,3,,ISIC_0011802.JPG
break,html.Screen,4_2_1,2023-10-31T17:08:03.355Z,,0,,,NaN,,,,,,false,,,,70798.69999992847,70798.39999997616,,70798,,70810.57,8,400,,,
break_continue,html.Screen,4_2_2,2023-10-31T17:08:03.355Z,,0,,,NaN,,,,,,false,,,,70799.29999995232,70799.19999992847,,70799,,70810.57,8,400,,,
sequence,flow.Sequence,4_2,2023-10-31T17:08:03.356Z,,0,,,2955.39199992847,completion,,,,,false,,,,70799.60000002384,70799.19999992847,67827.159,67835.19999992847,67843.808,70810.57,8,400,,,
trial,html.Screen,4_3_0,2023-10-31T17:08:07.503Z,,0,1,,4136.429999999993,response,ISIC_6652978.JPG,5,ISIC_6392089.JPG,ISIC_6652978.JPG,false,1,keypress(m),500,74947.29999995232,74947,70793.776,70799.89999997616,70810.57,74977.249,8,400,4,,ISIC_6392089.JPG
break,html.Screen,4_3_1,2023-10-31T17:08:07.504Z,,0,,,NaN,,,,,,false,,,,74948.39999997616,74948.10000002384,,74947.69999992847,,74977.249,8,400,,,
break_continue,html.Screen,4_3_2,2023-10-31T17:08:07.505Z,,0,,,NaN,,,,,,false,,,,74949,74948.79999995232,,74948.69999992847,,74977.249,8,400,,,
sequence,flow.Sequence,4_3,2023-10-31T17:08:07.505Z,,0,,,4138.229999952309,completion,,,,,false,,,,74949.29999995232,74948.79999995232,70793.776,70799.79999995232,70810.57,74977.249,8,400,,,
trial,html.Screen,4_4_0,2023-10-31T17:08:10.725Z,,0,1,,3191.650999976162,response,ISIC_5504286.JPG,4,ISIC_2911251.JPG,ISIC_2911251.JPG,false,0,keypress(z),500,78169.19999992847,78168.89999997616,74960.581,74949.60000002384,74977.249,78176.946,8,400,5,,ISIC_5504286.JPG
break,html.Screen,4_4_1,2023-10-31T17:08:10.726Z,,0,,,NaN,,,,,,false,,,,78170.19999992847,78169.89999997616,,78169.5,,78176.946,8,400,,,
break_continue,html.Screen,4_4_2,2023-10-31T17:08:10.727Z,,0,,,NaN,,,,,,false,,,,78170.79999995232,78170.60000002384,,78170.39999997616,,78176.946,8,400,,,
sequence,flow.Sequence,4_4,2023-10-31T17:08:10.727Z,,0,,,3193.3510000238457,completion,,,,,false,,,,78171,78170.60000002384,74960.581,74949.5,74977.249,78176.946,8,400,,,
trial,html.Screen,4_5_0,2023-10-31T17:08:14.330Z,,0,1,,3597.5540000000037,response,ISIC_0026039.JPG,5,ISIC_1925632.JPG,ISIC_0026039.JPG,false,1,keypress(m),500,81774.69999992847,81774.5,78160.268,78171.29999995232,78176.946,81776.912,8,400,6,,ISIC_1925632.JPG
break,html.Screen,4_5_1,2023-10-31T17:08:14.331Z,,0,,,NaN,,,,,,false,,,,81775.10000002384,81774.89999997616,,81774.79999995232,,81776.912,8,400,,,
break_continue,html.Screen,4_5_2,2023-10-31T17:08:14.331Z,,0,,,NaN,,,,,,false,,,,81775.19999992847,81775.19999992847,,81775.19999992847,,81776.912,8,400,,,
sequence,flow.Sequence,4_5,2023-10-31T17:08:14.331Z,,0,,,3598.253999928478,completion,,,,,false,,,,81775.39999997616,81775.19999992847,78160.268,78171.19999992847,78176.946,81776.912,8,400,,,
trial,html.Screen,4_6_0,2023-10-31T17:08:17.469Z,,0,1,,3136.1880000238452,response,ISIC_0065823.JPG,4,ISIC_0697953.JPG,ISIC_0697953.JPG,false,0,keypress(z),500,84913.29999995232,84913.10000002384,81760.487,81775.39999997616,81776.912,84943.68,8,400,7,,ISIC_0065823.JPG
break,html.Screen,4_6_1,2023-10-31T17:08:17.470Z,,0,,,NaN,,,,,,false,,,,84914.39999997616,84914.10000002384,,84913.69999992847,,84943.68,8,400,,,
break_continue,html.Screen,4_6_2,2023-10-31T17:08:17.471Z,,0,,,NaN,,,,,,false,,,,84915,84914.79999995232,,84914.60000002384,,84943.68,8,400,,,
sequence,flow.Sequence,4_6,2023-10-31T17:08:17.471Z,,0,,,3137.8879999523197,completion,,,,,false,,,,84915.29999995232,84914.79999995232,81760.487,81775.39999997616,81776.912,84943.68,8,400,,,
trial,html.Screen,4_7_0,2023-10-31T17:08:23.170Z,,0,1,,5670.519999928481,response,ISIC_4530249.JPG,4,ISIC_0025735.JPG,ISIC_0025735.JPG,false,0,keypress(z),500,90614.29999995232,90614.19999992847,84927.194,84915.5,84943.68,90626.948,8,400,8,,ISIC_4530249.JPG
break,html.Screen,4_7_1,2023-10-31T17:08:23.170Z,,0,,,NaN,,,,,,false,,,,90614.60000002384,90614.5,,90614.39999997616,,90626.948,8,400,,,
break_continue,html.Screen,4_7_2,2023-10-31T17:08:23.171Z,,0,,,NaN,,,,,,false,,,,90614.79999995232,90614.79999995232,,90614.60000002384,,90626.948,8,400,,,
sequence,flow.Sequence,4_7,2023-10-31T17:08:23.171Z,,0,,,5671.119999952323,completion,,,,,false,,,,90614.89999997616,90614.79999995232,84927.194,84915.39999997616,84943.68,90626.948,8,400,,,
trial,html.Screen,4_8_0,2023-10-31T17:08:26.293Z,,0,1,,3109.8519999523123,response,ISIC_3673517.JPG,6,ISIC_0872145.JPG,ISIC_0872145.JPG,false,0,keypress(z),500,93737.10000002384,93736.79999995232,90610.236,90615,90626.948,93743.632,8,400,9,,ISIC_3673517.JPG
break,html.Screen,4_8_1,2023-10-31T17:08:26.294Z,,0,,,NaN,,,,,,false,,,,93738,93737.69999992847,,93737.39999997616,,93743.632,8,400,,,
break_continue,html.Screen,4_8_2,2023-10-31T17:08:26.294Z,,0,,,NaN,,,,,,false,,,,93738.5,93738.39999997616,,93738.19999992847,,93743.632,8,400,,,
sequence,flow.Sequence,4_8,2023-10-31T17:08:26.295Z,,0,,,3111.451999976154,completion,,,,,false,,,,93738.79999995232,93738.39999997616,90610.236,90614.89999997616,90626.948,93743.632,8,400,,,
trial,html.Screen,4_9_0,2023-10-31T17:08:30.106Z,,0,1,,3805.6679999523185,response,ISIC_0029209.JPG,5,ISIC_6326803.JPG,ISIC_0029209.JPG,false,1,keypress(m),500,97549.79999995232,97549.29999995232,93726.954,93739.10000002384,93743.632,97560.462,8,400,10,,ISIC_6326803.JPG
break,html.Screen,4_9_1,2023-10-31T17:08:30.107Z,,0,,,NaN,,,,,,false,,,,97550.79999995232,97550.60000002384,,97550.10000002384,,97560.462,8,400,,,
break_continue,html.Screen,4_9_2,2023-10-31T17:08:30.107Z,,0,,,NaN,,,,,,false,,,,97551.5,97551.19999992847,,97551.10000002384,,97560.462,8,400,,,
sequence,flow.Sequence,4_9,2023-10-31T17:08:30.108Z,,0,,,3807.5679999284766,completion,,,,,false,,,,97551.69999992847,97551.19999992847,93726.954,93739,93743.632,97560.462,8,400,,,
trial,html.Screen,4_10_0,2023-10-31T17:08:33.390Z,,0,1,,3273.6380000238423,response,ISIC_0070447.JPG,5,ISIC_0900349.JPG,ISIC_0900349.JPG,false,0,keypress(z),500,100834.5,100834.10000002384,97543.981,97551.89999997616,97560.462,100843.638,8,400,11,,ISIC_0070447.JPG
break,html.Screen,4_10_1,2023-10-31T17:08:33.391Z,,0,,,NaN,,,,,,false,,,,100835.5,100835.19999992847,,100834.79999995232,,100843.638,8,400,,,
break_continue,html.Screen,4_10_2,2023-10-31T17:08:33.392Z,,0,,,NaN,,,,,,false,,,,100836,100835.89999997616,,100835.69999992847,,100843.638,8,400,,,
sequence,flow.Sequence,4_10,2023-10-31T17:08:33.392Z,,0,,,3275.4379999761586,completion,,,,,false,,,,100836.29999995232,100835.89999997616,97543.981,97551.79999995232,97560.462,100843.638,8,400,,,
trial,html.Screen,4_11_0,2023-10-31T17:08:38.579Z,,0,1,,5179.061999928468,response,ISIC_6002694.JPG,6,ISIC_0065013.JPG,ISIC_6002694.JPG,false,1,keypress(m),500,106022.89999997616,106022.69999992847,100826.988,100836.60000002384,100843.638,106027.035,8,400,12,,ISIC_0065013.JPG
break,html.Screen,4_11_1,2023-10-31T17:08:38.580Z,,0,,,NaN,,,,,,false,,,,106023.89999997616,106023.69999992847,,106023.19999992847,,106027.035,8,400,,,
break_continue,html.Screen,4_11_2,2023-10-31T17:08:38.580Z,,0,,,NaN,,,,,,false,,,,106024.5,106024.29999995232,,106024.19999992847,,106027.035,8,400,,,
sequence,flow.Sequence,4_11,2023-10-31T17:08:38.581Z,,0,,,5180.66199995231,completion,,,,,false,,,,106024.69999992847,106024.29999995232,100826.988,100836.5,100843.638,106027.035,8,400,,,
trial,html.Screen,4_12_0,2023-10-31T17:08:42.665Z,,0,1,,4082.3649999761546,response,ISIC_5441247.JPG,5,ISIC_0058346.JPG,ISIC_5441247.JPG,false,1,keypress(m),500,110109.5,110109.39999997616,106010.394,106025,106027.035,110127.801,8,400,13,,ISIC_0058346.JPG
break,html.Screen,4_12_1,2023-10-31T17:08:42.666Z,,0,,,NaN,,,,,,false,,,,110109.89999997616,110109.69999992847,,110109.60000002384,,110127.801,8,400,,,
break_continue,html.Screen,4_12_2,2023-10-31T17:08:42.666Z,,0,,,NaN,,,,,,false,,,,110110.10000002384,110110.10000002384,,110110,,110127.801,8,400,,,
sequence,flow.Sequence,4_12,2023-10-31T17:08:42.666Z,,0,,,4083.0650000238384,completion,,,,,false,,,,110110.19999992847,110110.10000002384,106010.394,106025,106027.035,110127.801,8,400,,,
trial,html.Screen,4_13_0,2023-10-31T17:08:48.076Z,,0,1,,5392.299000023835,response,ISIC_0027867.JPG,5,ISIC_0273046.JPG,ISIC_0027867.JPG,false,1,keypress(m),500,115520.19999992847,115520.10000002384,110093.938,110110.39999997616,110127.801,115527.054,8,400,14,,ISIC_0273046.JPG
break,html.Screen,4_13_1,2023-10-31T17:08:48.076Z,,0,,,NaN,,,,,,false,,,,115520.5,115520.5,,115520.29999995232,,115527.054,8,400,,,
break_continue,html.Screen,4_13_2,2023-10-31T17:08:48.077Z,,0,,,NaN,,,,,,false,,,,115520.79999995232,115520.69999992847,,115520.69999992847,,115527.054,8,400,,,
sequence,flow.Sequence,4_13,2023-10-31T17:08:48.077Z,,0,,,5392.898999928468,completion,,,,,false,,,,115520.89999997616,115520.69999992847,110093.938,110110.39999997616,110127.801,115527.054,8,400,,,
trial,html.Screen,4_14_0,2023-10-31T17:08:51.711Z,,0,1,,3627.6459999284707,response,ISIC_7852890.JPG,5,ISIC_2412113.JPG,ISIC_7852890.JPG,false,1,keypress(m),500,119154.89999997616,119154.69999992847,115510.394,115521,115527.054,119160.32,8,400,15,,ISIC_2412113.JPG
break,html.Screen,4_14_1,2023-10-31T17:08:51.712Z,,0,,,NaN,,,,,,false,,,,119156,119155.79999995232,,119155.29999995232,,119160.32,8,400,,,
break_continue,html.Screen,4_14_2,2023-10-31T17:08:51.712Z,,0,,,NaN,,,,,,false,,,,119156.60000002384,119156.5,,119156.19999992847,,119160.32,8,400,,,
sequence,flow.Sequence,4_14,2023-10-31T17:08:51.713Z,,0,,,3629.4459999999963,completion,,,,,false,,,,119156.89999997616,119156.5,115510.394,115521,115527.054,119160.32,8,400,,,
trial,html.Screen,4_15_0,2023-10-31T17:08:54.388Z,,0,1,,2670.9799999523093,response,ISIC_0653633.JPG,6,ISIC_1788979.JPG,ISIC_0653633.JPG,false,1,keypress(m),500,121831.69999992847,121831.29999995232,119143.986,119157.10000002384,119160.32,121843.93,8,400,16,,ISIC_1788979.JPG
break,html.Screen,4_15_1,2023-10-31T17:08:54.389Z,,0,,,NaN,,,,,,false,,,,121832.60000002384,121832.29999995232,,121831.89999997616,,121843.93,8,400,,,
break_continue,html.Screen,4_15_2,2023-10-31T17:08:54.389Z,,0,,,NaN,,,,,,false,,,,121833.10000002384,121832.89999997616,,121832.69999992847,,121843.93,8,400,,,
sequence,flow.Sequence,4_15,2023-10-31T17:08:54.390Z,,0,,,2672.579999976151,completion,,,,,false,,,,121833.29999995232,121832.89999997616,119143.986,119157,119160.32,121843.93,8,400,,,
trial,html.Screen,4_16_0,2023-10-31T17:08:57.080Z,,0,1,,2680.170000023849,response,ISIC_0010313.JPG,5,ISIC_9088073.JPG,ISIC_9088073.JPG,false,0,keypress(z),500,124524.19999992847,124524.10000002384,121827.273,121833.60000002384,121843.93,124527.018,8,400,17,,ISIC_0010313.JPG
break,html.Screen,4_16_1,2023-10-31T17:08:57.081Z,,0,,,NaN,,,,,,false,,,,124524.60000002384,124524.5,,124524.39999997616,,124527.018,8,400,,,
break_continue,html.Screen,4_16_2,2023-10-31T17:08:57.081Z,,0,,,NaN,,,,,,false,,,,124524.79999995232,124524.79999995232,,124524.60000002384,,124527.018,8,400,,,
sequence,flow.Sequence,4_16,2023-10-31T17:08:57.082Z,,0,,,2680.8699999523233,completion,,,,,false,,,,124525.5,124524.79999995232,121827.273,121833.60000002384,121843.93,124527.018,8,400,,,
trial,html.Screen,4_17_0,2023-10-31T17:08:59.916Z,,0,1,,2832.181999928478,response,ISIC_0067621.JPG,5,ISIC_0027928.JPG,ISIC_0027928.JPG,false,0,keypress(z),500,127359.5,127359.19999992847,124510.423,124525.5,124527.018,127393.733,8,400,18,,ISIC_0067621.JPG
break,html.Screen,4_17_1,2023-10-31T17:08:59.917Z,,0,,,NaN,,,,,,false,,,,127360.69999992847,127360.29999995232,,127359.79999995232,,127393.733,8,400,,,
break_continue,html.Screen,4_17_2,2023-10-31T17:08:59.918Z,,0,,,NaN,,,,,,false,,,,127361.39999997616,127361.10000002384,,127360.89999997616,,127393.733,8,400,,,
sequence,flow.Sequence,4_17,2023-10-31T17:08:59.918Z,,0,,,2834.0820000238455,completion,,,,,false,,,,127361.69999992847,127361.10000002384,124510.423,124525.5,124527.018,127393.733,8,400,,,
trial,html.Screen,4_18_0,2023-10-31T17:09:02.705Z,,0,1,,2754.267000000007,response,ISIC_0055783.JPG,5,ISIC_3916064.JPG,ISIC_3916064.JPG,false,0,keypress(z),500,130148.29999995232,130148,127377.375,127361.79999995232,127393.733,130160.628,8,400,19,,ISIC_0055783.JPG
break,html.Screen,4_18_1,2023-10-31T17:09:02.706Z,,0,,,NaN,,,,,,false,,,,130149.19999992847,130149,,130148.5,,130160.628,8,400,,,
break_continue,html.Screen,4_18_2,2023-10-31T17:09:02.706Z,,0,,,NaN,,,,,,false,,,,130149.79999995232,130149.69999992847,,130149.39999997616,,130160.628,8,400,,,
sequence,flow.Sequence,4_18,2023-10-31T17:09:02.706Z,,0,,,2755.9669999284815,completion,,,,,false,,,,130150.10000002384,130149.69999992847,127377.375,127361.79999995232,127393.733,130160.628,8,400,,,
trial,html.Screen,4_19_0,2023-10-31T17:09:05.397Z,,0,1,,2679.972000023845,response,ISIC_8206667.JPG,4,ISIC_0054287.JPG,ISIC_8206667.JPG,false,1,keypress(m),500,132841,132840.60000002384,130144.01,130150.29999995232,130160.628,132843.757,8,400,20,,ISIC_0054287.JPG
break,html.Screen,4_19_1,2023-10-31T17:09:05.398Z,,0,,,NaN,,,,,,false,,,,132842.10000002384,132841.79999995232,,132841.39999997616,,132843.757,8,400,,,
break_continue,html.Screen,4_19_2,2023-10-31T17:09:05.399Z,,0,,,NaN,,,,,,false,,,,132842.69999992847,132842.5,,132842.29999995232,,132843.757,8,400,,,
sequence,flow.Sequence,4_19,2023-10-31T17:09:05.399Z,,0,,,2681.872000000003,completion,,,,,false,,,,132843,132842.5,130144.01,130150.29999995232,130160.628,132843.757,8,400,,,
trial,html.Screen,4_20_0,2023-10-31T17:09:07.946Z,,0,1,,2545.2429999999877,response,ISIC_0033090.JPG,5,ISIC_7144739.JPG,ISIC_7144739.JPG,false,0,keypress(z),500,135389.39999997616,135389,132827.054,132843.19999992847,132843.757,135393.756,8,400,21,,ISIC_0033090.JPG
break,html.Screen,4_20_1,2023-10-31T17:09:07.947Z,,0,,,NaN,,,,,,false,,,,135390.29999995232,135390.10000002384,,135389.60000002384,,135393.756,8,400,,,
break_continue,html.Screen,4_20_2,2023-10-31T17:09:07.947Z,,0,,,NaN,,,,,,false,,,,135390.89999997616,135390.69999992847,,135390.5,,135393.756,8,400,,,
sequence,flow.Sequence,4_20,2023-10-31T17:09:07.947Z,,0,,,2546.942999928462,completion,,,,,false,,,,135391.19999992847,135390.69999992847,132827.054,132843.10000002384,132843.757,135393.756,8,400,,,
trial,html.Screen,4_21_0,2023-10-31T17:09:12.223Z,,0,1,,4272.244000000006,response,ISIC_2465895.JPG,6,ISIC_2075546.JPG,ISIC_2465895.JPG,false,1,keypress(m),500,139666.39999997616,139666,135377.31,135391.39999997616,135393.756,139677.328,8,400,22,,ISIC_2075546.JPG
break,html.Screen,4_21_1,2023-10-31T17:09:12.224Z,,0,,,NaN,,,,,,false,,,,139667.39999997616,139667.19999992847,,139666.69999992847,,139677.328,8,400,,,
break_continue,html.Screen,4_21_2,2023-10-31T17:09:12.224Z,,0,,,NaN,,,,,,false,,,,139668,139667.79999995232,,139667.60000002384,,139677.328,8,400,,,
sequence,flow.Sequence,4_21,2023-10-31T17:09:12.225Z,,0,,,4274.043999952322,completion,,,,,false,,,,139668.19999992847,139667.79999995232,135377.31,135391.29999995232,135393.756,139677.328,8,400,,,
trial,html.Screen,4_22_0,2023-10-31T17:09:15.124Z,,0,1,,2890.0719999761495,response,ISIC_0708542.JPG,6,ISIC_2999018.JPG,ISIC_0708542.JPG,false,1,keypress(m),500,142567.69999992847,142567.39999997616,139660.683,139668.69999992847,139677.328,142577.325,8,400,23,,ISIC_2999018.JPG
break,html.Screen,4_22_1,2023-10-31T17:09:15.125Z,,0,,,NaN,,,,,,false,,,,142568.69999992847,142568.39999997616,,142568,,142577.325,8,400,,,
break_continue,html.Screen,4_22_2,2023-10-31T17:09:15.125Z,,0,,,NaN,,,,,,false,,,,142569.19999992847,142569.10000002384,,142568.89999997616,,142577.325,8,400,,,
sequence,flow.Sequence,4_22,2023-10-31T17:09:15.126Z,,0,,,2891.7720000238332,completion,,,,,false,,,,142569.5,142569.10000002384,139660.683,139668.60000002384,139677.328,142577.325,8,400,,,
trial,html.Screen,4_23_0,2023-10-31T17:09:18.009Z,,0,1,,2874.6749999999884,response,ISIC_0058376.JPG,5,ISIC_1115160.JPG,ISIC_1115160.JPG,false,0,keypress(z),500,145452.29999995232,145452,142560.374,142569.69999992847,142577.325,145460.461,8,400,24,,ISIC_0058376.JPG
break,html.Screen,4_23_1,2023-10-31T17:09:18.009Z,,0,,,NaN,,,,,,false,,,,145453,145452.79999995232,,145452.5,,145460.461,8,400,,,
break_continue,html.Screen,4_23_2,2023-10-31T17:09:18.010Z,,0,,,NaN,,,,,,false,,,,145453.60000002384,145453.39999997616,,145453.19999992847,,145460.461,8,400,,,
sequence,flow.Sequence,4_23,2023-10-31T17:09:18.010Z,,0,,,2876.0749999761465,completion,,,,,false,,,,145453.89999997616,145453.39999997616,142560.374,142569.60000002384,142577.325,145460.461,8,400,,,
trial,html.Screen,4_24_0,2023-10-31T17:09:20.765Z,,0,1,,2747.6390000238316,response,ISIC_0028915.JPG,6,ISIC_8812781.JPG,ISIC_8812781.JPG,false,0,keypress(z),500,148208.5,148208.10000002384,145443.695,145454,145460.461,148227.512,8,400,25,,ISIC_0028915.JPG
break,html.Screen,4_24_1,2023-10-31T17:09:20.766Z,,0,,,NaN,,,,,,false,,,,148209.39999997616,148209.19999992847,,148208.79999995232,,148227.512,8,400,,,
break_continue,html.Screen,4_24_2,2023-10-31T17:09:20.766Z,,0,,,NaN,,,,,,false,,,,148210,148209.89999997616,,148209.60000002384,,148227.512,8,400,,,
sequence,flow.Sequence,4_24,2023-10-31T17:09:20.767Z,,0,,,2749.438999976148,completion,,,,,false,,,,148210.29999995232,148209.89999997616,145443.695,145453.89999997616,145460.461,148227.512,8,400,,,
trial,html.Screen,4_25_0,2023-10-31T17:09:24.402Z,,0,1,,3617.8879999761702,response,ISIC_0032742.JPG,5,ISIC_0226072.JPG,ISIC_0226072.JPG,false,0,keypress(z),500,151845.5,151845.39999997616,148194.079,148210.5,148227.512,151860.711,8,400,26,,ISIC_0032742.JPG
break,html.Screen,4_25_1,2023-10-31T17:09:24.402Z,,0,,,NaN,,,,,,false,,,,151845.89999997616,151845.89999997616,,151845.69999992847,,151860.711,8,400,,,
break_continue,html.Screen,4_25_2,2023-10-31T17:09:24.402Z,,0,,,NaN,,,,,,false,,,,151846.19999992847,151846.10000002384,,151846,,151860.711,8,400,,,
sequence,flow.Sequence,4_25,2023-10-31T17:09:24.403Z,,0,,,3618.588000023854,completion,,,,,false,,,,151846.29999995232,151846.10000002384,148194.079,148210.5,148227.512,151860.711,8,400,,,
trial,html.Screen,4_26_0,2023-10-31T17:09:27.828Z,,0,1,,3411.188999976148,response,ISIC_3065253.JPG,5,ISIC_3646670.JPG,ISIC_3065253.JPG,false,1,keypress(m),500,155272,155271.89999997616,151843.956,151846.29999995232,151860.711,155277.075,8,400,27,,ISIC_3646670.JPG
break,html.Screen,4_26_1,2023-10-31T17:09:27.829Z,,0,,,NaN,,,,,,false,,,,155272.39999997616,155272.29999995232,,155272.10000002384,,155277.075,8,400,,,
break_continue,html.Screen,4_26_2,2023-10-31T17:09:27.829Z,,0,,,NaN,,,,,,false,,,,155272.5,155272.5,,155272.5,,155277.075,8,400,,,
sequence,flow.Sequence,4_26,2023-10-31T17:09:27.829Z,,0,,,3411.7889999999898,completion,,,,,false,,,,155272.60000002384,155272.5,151843.956,151846.29999995232,151860.711,155277.075,8,400,,,
trial,html.Screen,4_27_0,2023-10-31T17:09:30.583Z,,0,1,,2749.3249999761465,response,ISIC_0011375.JPG,5,ISIC_0027263.JPG,ISIC_0027263.JPG,false,0,keypress(z),500,158026.69999992847,158026.39999997616,155260.505,155272.69999992847,155277.075,158043.874,8,400,28,,ISIC_0011375.JPG
break,html.Screen,4_27_1,2023-10-31T17:09:30.584Z,,0,,,NaN,,,,,,false,,,,158027.79999995232,158027.5,,158027,,158043.874,8,400,,,
break_continue,html.Screen,4_27_2,2023-10-31T17:09:30.585Z,,0,,,NaN,,,,,,false,,,,158028.39999997616,158028.19999992847,,158028.10000002384,,158043.874,8,400,,,
sequence,flow.Sequence,4_27,2023-10-31T17:09:30.585Z,,0,,,2751.124999928463,completion,,,,,false,,,,158028.69999992847,158028.19999992847,155260.505,155272.69999992847,155277.075,158043.874,8,400,,,
trial,html.Screen,4_28_0,2023-10-31T17:09:33.212Z,,0,1,,2611.726000023831,response,ISIC_4613437.JPG,5,ISIC_3043219.JPG,ISIC_4613437.JPG,false,1,keypress(m),500,160655.89999997616,160655.60000002384,158027.278,158029,158043.874,160660.452,8,400,29,,ISIC_3043219.JPG
break,html.Screen,4_28_1,2023-10-31T17:09:33.213Z,,0,,,NaN,,,,,,false,,,,160656.79999995232,160656.60000002384,,160656.19999992847,,160660.452,8,400,,,
break_continue,html.Screen,4_28_2,2023-10-31T17:09:33.214Z,,0,,,NaN,,,,,,false,,,,160657.39999997616,160657.19999992847,,160657,,160660.452,8,400,,,
sequence,flow.Sequence,4_28,2023-10-31T17:09:33.214Z,,0,,,2613.3259999284637,completion,,,,,false,,,,160657.69999992847,160657.19999992847,158027.278,158028.89999997616,158043.874,160660.452,8,400,,,
trial,html.Screen,4_29_0,2023-10-31T17:09:35.745Z,,0,1,,2527.54800000001,response,ISIC_0028579.JPG,6,ISIC_0032369.JPG,ISIC_0028579.JPG,false,1,keypress(m),500,163188.19999992847,163188,160644.027,160657.89999997616,160660.452,163193.808,8,400,30,,ISIC_0032369.JPG
break,html.Screen,4_29_1,2023-10-31T17:09:35.746Z,,0,,,NaN,,,,,,false,,,,163189.29999995232,163189,,163188.60000002384,,163193.808,8,400,,,
break_continue,html.Screen,4_29_2,2023-10-31T17:09:35.746Z,,0,,,NaN,,,,,,false,,,,163189.79999995232,163189.69999992847,,163189.5,,163193.808,8,400,,,
sequence,flow.Sequence,4_29,2023-10-31T17:09:35.746Z,,0,,,2529.247999928484,completion,,,,,false,,,,163190.10000002384,163189.69999992847,160644.027,160657.79999995232,160660.452,163193.808,8,400,,,
trial,html.Screen,4_30_0,2023-10-31T17:09:38.229Z,,0,1,,2478.292000023852,response,ISIC_6002694.JPG,4,ISIC_0062935.JPG,ISIC_6002694.JPG,false,1,keypress(m),500,165672.39999997616,165672.10000002384,163177.42,163190.39999997616,163193.808,165677.115,8,400,31,,ISIC_0062935.JPG
break,html.Screen,4_30_1,2023-10-31T17:09:38.230Z,,0,,,NaN,,,,,,false,,,,165673.5,165673.19999992847,,165672.79999995232,,165677.115,8,400,,,
break_continue,html.Screen,4_30_2,2023-10-31T17:09:38.230Z,,0,,,NaN,,,,,,false,,,,165674,165673.79999995232,,165673.60000002384,,165677.115,8,400,,,
sequence,flow.Sequence,4_30,2023-10-31T17:09:38.231Z,,0,,,2479.9919999523263,completion,,,,,false,,,,165674.29999995232,165673.79999995232,163177.42,163190.29999995232,163193.808,165677.115,8,400,,,
trial,html.Screen,4_31_0,2023-10-31T17:09:41.112Z,,0,1,,2878.8850000000093,response,ISIC_0030641.JPG,5,ISIC_2015441.JPG,ISIC_0030641.JPG,false,1,keypress(m),500,168556.19999992847,168556,165660.652,165674.5,165677.115,168560.542,8,400,32,,ISIC_2015441.JPG
break,html.Screen,4_31_1,2023-10-31T17:09:41.113Z,,0,,,NaN,,,,,,false,,,,168556.5,168556.5,,168556.29999995232,,168560.542,8,400,,,
break_continue,html.Screen,4_31_2,2023-10-31T17:09:41.113Z,,0,,,NaN,,,,,,false,,,,168556.60000002384,168556.60000002384,,168556.5,,168560.542,8,400,,,
sequence,flow.Sequence,4_31,2023-10-31T17:09:41.113Z,,0,,,2879.485000023851,completion,,,,,false,,,,168556.69999992847,168556.60000002384,165660.652,165674.5,165677.115,168560.542,8,400,,,
trial,html.Screen,4_32_0,2023-10-31T17:09:43.851Z,,0,1,,2733.7579999523296,response,ISIC_0013678.JPG,5,ISIC_5647554.JPG,ISIC_5647554.JPG,false,0,keypress(z),500,171294.60000002384,171294.29999995232,168543.771,168556.79999995232,168560.542,171310.617,8,400,33,,ISIC_0013678.JPG
break,html.Screen,4_32_1,2023-10-31T17:09:43.852Z,,0,,,NaN,,,,,,false,,,,171295.69999992847,171295.39999997616,,171295,,171310.617,8,400,,,
break_continue,html.Screen,4_32_2,2023-10-31T17:09:43.852Z,,0,,,NaN,,,,,,false,,,,171296.19999992847,171296.10000002384,,171295.89999997616,,171310.617,8,400,,,
sequence,flow.Sequence,4_32,2023-10-31T17:09:43.853Z,,0,,,2735.558000023855,completion,,,,,false,,,,171296.5,171296.10000002384,168543.771,168556.79999995232,168560.542,171310.617,8,400,,,
trial,html.Screen,4_33_0,2023-10-31T17:09:46.639Z,,0,1,,2772.182999952318,response,ISIC_0067094.JPG,5,ISIC_1330008.JPG,ISIC_1330008.JPG,false,0,keypress(z),500,174083.10000002384,174082.79999995232,171293.841,171296.69999992847,171310.617,174094.008,8,400,34,,ISIC_0067094.JPG
break,html.Screen,4_33_1,2023-10-31T17:09:46.640Z,,0,,,NaN,,,,,,false,,,,174084.10000002384,174083.89999997616,,174083.39999997616,,174094.008,8,400,,,
break_continue,html.Screen,4_33_2,2023-10-31T17:09:46.641Z,,0,,,NaN,,,,,,false,,,,174084.69999992847,174084.39999997616,,174084.29999995232,,174094.008,8,400,,,
sequence,flow.Sequence,4_33,2023-10-31T17:09:46.641Z,,0,,,2773.7829999761598,completion,,,,,false,,,,174084.89999997616,174084.39999997616,171293.841,171296.60000002384,171310.617,174094.008,8,400,,,
trial,html.Screen,4_34_0,2023-10-31T17:09:49.907Z,,0,1,,3256.9919999999984,response,ISIC_0061152.JPG,5,ISIC_7604870.JPG,ISIC_7604870.JPG,false,0,keypress(z),500,177351.10000002384,177351,174077.183,174085.10000002384,174094.008,177360.422,8,400,35,,ISIC_0061152.JPG
break,html.Screen,4_34_1,2023-10-31T17:09:49.908Z,,0,,,NaN,,,,,,false,,,,177351.39999997616,177351.29999995232,,177351.19999992847,,177360.422,8,400,,,
break_continue,html.Screen,4_34_2,2023-10-31T17:09:49.908Z,,0,,,NaN,,,,,,false,,,,177351.69999992847,177351.60000002384,,177351.5,,177360.422,8,400,,,
sequence,flow.Sequence,4_34,2023-10-31T17:09:49.908Z,,0,,,3257.5920000238402,completion,,,,,false,,,,177351.69999992847,177351.60000002384,174077.183,174085,174094.008,177360.422,8,400,,,
trial,html.Screen,4_35_0,2023-10-31T17:09:52.901Z,,0,1,,2983.9779999761668,response,ISIC_0944273.JPG,5,ISIC_0006829.JPG,ISIC_0006829.JPG,false,0,keypress(z),500,180344.5,180344.39999997616,177343.846,177351.79999995232,177360.422,180360.759,8,400,36,,ISIC_0944273.JPG
break,html.Screen,4_35_1,2023-10-31T17:09:52.901Z,,0,,,NaN,,,,,,false,,,,180344.79999995232,180344.69999992847,,180344.5,,180360.759,8,400,,,
break_continue,html.Screen,4_35_2,2023-10-31T17:09:52.901Z,,0,,,NaN,,,,,,false,,,,180345,180344.89999997616,,180344.79999995232,,180360.759,8,400,,,
sequence,flow.Sequence,4_35,2023-10-31T17:09:52.901Z,,0,,,2984.4779999761668,completion,,,,,false,,,,180345,180344.89999997616,177343.846,177351.79999995232,177360.422,180360.759,8,400,,,
trial,html.Screen,4_36_0,2023-10-31T17:09:55.959Z,,0,1,,3041.9409999284835,response,ISIC_0029050.JPG,5,ISIC_0064761.JPG,ISIC_0064761.JPG,false,0,keypress(z),500,183403,183402.69999992847,180343.771,180345.10000002384,180360.759,183410.519,8,400,37,,ISIC_0029050.JPG
break,html.Screen,4_36_1,2023-10-31T17:09:55.960Z,,0,,,NaN,,,,,,false,,,,183404.10000002384,183403.79999995232,,183403.29999995232,,183410.519,8,400,,,
break_continue,html.Screen,4_36_2,2023-10-31T17:09:55.961Z,,0,,,NaN,,,,,,false,,,,183404.60000002384,183404.39999997616,,183404.19999992847,,183410.519,8,400,,,
sequence,flow.Sequence,4_36,2023-10-31T17:09:55.961Z,,0,,,3043.640999976167,completion,,,,,false,,,,183404.89999997616,183404.39999997616,180343.771,180345.10000002384,180360.759,183410.519,8,400,,,
trial,html.Screen,4_37_0,2023-10-31T17:09:58.540Z,,0,1,,2572.680999928474,response,ISIC_8263741.JPG,4,ISIC_0026924.JPG,ISIC_8263741.JPG,false,1,keypress(m),500,185983.29999995232,185983.19999992847,183394.114,183405.10000002384,183410.519,185994.037,8,400,38,,ISIC_0026924.JPG
break,html.Screen,4_37_1,2023-10-31T17:09:58.540Z,,0,,,NaN,,,,,,false,,,,185983.69999992847,185983.5,,185983.39999997616,,185994.037,8,400,,,
break_continue,html.Screen,4_37_2,2023-10-31T17:09:58.540Z,,0,,,NaN,,,,,,false,,,,185983.89999997616,185983.79999995232,,185983.69999992847,,185994.037,8,400,,,
sequence,flow.Sequence,4_37,2023-10-31T17:09:58.540Z,,0,,,2573.280999952316,completion,,,,,false,,,,185983.89999997616,185983.79999995232,183394.114,183405.10000002384,183410.519,185994.037,8,400,,,
trial,html.Screen,4_38_0,2023-10-31T17:10:01.262Z,,0,1,,2711.5630000238307,response,ISIC_9513918.JPG,5,ISIC_0011481.JPG,ISIC_0011481.JPG,false,0,keypress(z),500,188705.89999997616,188705.60000002384,185977.133,185984,185994.037,188710.504,8,400,39,,ISIC_9513918.JPG
break,html.Screen,4_38_1,2023-10-31T17:10:01.263Z,,0,,,NaN,,,,,,false,,,,188706.89999997616,188706.69999992847,,188706.19999992847,,188710.504,8,400,,,
break_continue,html.Screen,4_38_2,2023-10-31T17:10:01.264Z,,0,,,NaN,,,,,,false,,,,188707.5,188707.29999995232,,188707.10000002384,,188710.504,8,400,,,
sequence,flow.Sequence,4_38,2023-10-31T17:10:01.264Z,,0,,,2713.262999952305,completion,,,,,false,,,,188707.69999992847,188707.29999995232,185977.133,185984,185994.037,188710.504,8,400,,,
trial,html.Screen,4_39_0,2023-10-31T17:10:04.563Z,,0,1,,3295.395999976172,response,ISIC_0001142.JPG,6,ISIC_0058723.JPG,ISIC_0058723.JPG,false,0,keypress(z),500,192006.29999995232,192005.89999997616,188693.781,188707.89999997616,188710.504,192010.532,8,400,40,,ISIC_0001142.JPG
break,html.Screen,4_39_1,2023-10-31T17:10:04.564Z,,0,,,NaN,,,,,,false,,,,192007.39999997616,192007.19999992847,,192006.79999995232,,192010.532,8,400,,,
break_continue,html.Screen,4_39_2,2023-10-31T17:10:04.564Z,,0,,,NaN,,,,,,false,,,,192008,192007.89999997616,,192007.69999992847,,192010.532,8,400,,,
sequence,flow.Sequence,4_39,2023-10-31T17:10:04.565Z,,0,,,3297.395999976172,completion,,,,,false,,,,192008.39999997616,192007.89999997616,188693.781,188707.89999997616,188710.504,192010.532,8,400,,,
trial,html.Screen,4_40_0,2023-10-31T17:10:07.688Z,,0,1,,3120.3679999761516,response,ISIC_4526581.JPG,5,ISIC_9775430.JPG,ISIC_4526581.JPG,false,1,keypress(m),500,195131.19999992847,195130.89999997616,191994.095,192008.5,192010.532,195143.796,8,400,41,,ISIC_9775430.JPG
break,html.Screen,4_40_1,2023-10-31T17:10:07.689Z,,0,,,NaN,,,,,,false,,,,195132.10000002384,195131.89999997616,,195131.5,,195143.796,8,400,,,
break_continue,html.Screen,4_40_2,2023-10-31T17:10:07.689Z,,0,,,NaN,,,,,,false,,,,195132.60000002384,195132.5,,195132.29999995232,,195143.796,8,400,,,
sequence,flow.Sequence,4_40,2023-10-31T17:10:07.689Z,,0,,,3121.9679999999935,completion,,,,,false,,,,195132.89999997616,195132.5,191994.095,192008.5,192010.532,195143.796,8,400,,,
trial,html.Screen,4_41_0,2023-10-31T17:10:10.220Z,,0,1,,2519.4039999284723,response,ISIC_0011958.JPG,4,ISIC_2528656.JPG,ISIC_2528656.JPG,false,0,keypress(z),500,197663.5,197663.19999992847,195127.351,195133.19999992847,195143.796,197677.567,8,400,42,,ISIC_0011958.JPG
break,html.Screen,4_41_1,2023-10-31T17:10:10.221Z,,0,,,NaN,,,,,,false,,,,197664.5,197664.29999995232,,197663.79999995232,,197677.567,8,400,,,
break_continue,html.Screen,4_41_2,2023-10-31T17:10:10.221Z,,0,,,NaN,,,,,,false,,,,197665,197664.89999997616,,197664.69999992847,,197677.567,8,400,,,
sequence,flow.Sequence,4_41,2023-10-31T17:10:10.222Z,,0,,,2521.103999976156,completion,,,,,false,,,,197665.39999997616,197664.89999997616,195127.351,195133.10000002384,195143.796,197677.567,8,400,,,
trial,html.Screen,4_42_0,2023-10-31T17:10:13.201Z,,0,1,,2966.7329999523063,response,ISIC_0067077.JPG,5,ISIC_7620514.JPG,ISIC_0067077.JPG,false,1,keypress(m),500,200644.60000002384,200644.29999995232,197660.769,197665.69999992847,197677.567,200660.74,8,400,43,,ISIC_7620514.JPG
break,html.Screen,4_42_1,2023-10-31T17:10:13.202Z,,0,,,NaN,,,,,,false,,,,200645.69999992847,200645.39999997616,,200645,,200660.74,8,400,,,
break_continue,html.Screen,4_42_2,2023-10-31T17:10:13.203Z,,0,,,NaN,,,,,,false,,,,200646.19999992847,200646,,200645.89999997616,,200660.74,8,400,,,
sequence,flow.Sequence,4_42,2023-10-31T17:10:13.203Z,,0,,,2968.43299999999,completion,,,,,false,,,,200646.5,200646,197660.769,197665.60000002384,197677.567,200660.74,8,400,,,
trial,html.Screen,4_43_0,2023-10-31T17:10:17.045Z,,0,1,,3828.1599999761675,response,ISIC_0025550.JPG,6,ISIC_2818530.JPG,ISIC_2818530.JPG,false,0,keypress(z),500,204489,204488.89999997616,200644.074,200646.60000002384,200660.74,204493.878,8,400,44,,ISIC_0025550.JPG
break,html.Screen,4_43_1,2023-10-31T17:10:17.046Z,,0,,,NaN,,,,,,false,,,,204489.29999995232,204489.19999992847,,204489.10000002384,,204493.878,8,400,,,
break_continue,html.Screen,4_43_2,2023-10-31T17:10:17.046Z,,0,,,NaN,,,,,,false,,,,204489.60000002384,204489.5,,204489.39999997616,,204493.878,8,400,,,
sequence,flow.Sequence,4_43,2023-10-31T17:10:17.046Z,,0,,,3828.7600000000093,completion,,,,,false,,,,204489.60000002384,204489.5,200644.074,200646.60000002384,200660.74,204493.878,8,400,,,
trial,html.Screen,4_44_0,2023-10-31T17:10:19.832Z,,0,1,,2781.222000023845,response,ISIC_0065746.JPG,5,ISIC_0009959.JPG,ISIC_0009959.JPG,false,0,keypress(z),500,207275.39999997616,207275.10000002384,204477.465,204489.69999992847,204493.878,207294.053,8,400,45,,ISIC_0065746.JPG
break,html.Screen,4_44_1,2023-10-31T17:10:19.834Z,,0,,,NaN,,,,,,false,,,,207277.60000002384,207277.29999995232,,207276.79999995232,,207294.053,8,400,,,
break_continue,html.Screen,4_44_2,2023-10-31T17:10:19.834Z,,0,,,NaN,,,,,,false,,,,207278.10000002384,207277.89999997616,,207277.69999992847,,207294.053,8,400,,,
sequence,flow.Sequence,4_44,2023-10-31T17:10:19.835Z,,0,,,2784.021999976161,completion,,,,,false,,,,207278.29999995232,207277.89999997616,204477.465,204489.69999992847,204493.878,207294.053,8,400,,,
trial,html.Screen,4_45_0,2023-10-31T17:10:22.814Z,,0,1,,2963.3469999761437,response,ISIC_0012072.JPG,5,ISIC_0011128.JPG,ISIC_0011128.JPG,false,0,keypress(z),500,210257.5,210257.39999997616,207277.423,207278.5,207294.053,210260.496,8,400,46,,ISIC_0012072.JPG
break,html.Screen,4_45_1,2023-10-31T17:10:22.814Z,,0,,,NaN,,,,,,false,,,,210257.79999995232,210257.69999992847,,210257.60000002384,,210260.496,8,400,,,
break_continue,html.Screen,4_45_2,2023-10-31T17:10:22.814Z,,0,,,NaN,,,,,,false,,,,210257.89999997616,210257.89999997616,,210257.79999995232,,210260.496,8,400,,,
sequence,flow.Sequence,4_45,2023-10-31T17:10:22.814Z,,0,,,2963.8469999761437,completion,,,,,false,,,,210258,210257.89999997616,207277.423,207278.39999997616,207294.053,210260.496,8,400,,,
trial,html.Screen,4_46_0,2023-10-31T17:10:25.520Z,,0,1,,2702.7039999284607,response,ISIC_8316125.JPG,5,ISIC_3031102.JPG,ISIC_8316125.JPG,false,1,keypress(m),500,212963.60000002384,212963.19999992847,210244.081,210258.10000002384,210260.496,212977.485,8,400,47,,ISIC_3031102.JPG
break,html.Screen,4_46_1,2023-10-31T17:10:25.521Z,,0,,,NaN,,,,,,false,,,,212964.5,212964.19999992847,,212963.79999995232,,212977.485,8,400,,,
break_continue,html.Screen,4_46_2,2023-10-31T17:10:25.521Z,,0,,,NaN,,,,,,false,,,,212965,212964.79999995232,,212964.60000002384,,212977.485,8,400,,,
sequence,flow.Sequence,4_46,2023-10-31T17:10:25.522Z,,0,,,2704.3039999523025,completion,,,,,false,,,,212965.19999992847,212964.79999995232,210244.081,210258,210260.496,212977.485,8,400,,,
trial,html.Screen,4_47_0,2023-10-31T17:10:29.268Z,,0,1,,3733.615000023856,response,ISIC_7454679.JPG,4,ISIC_0033148.JPG,ISIC_7454679.JPG,false,1,keypress(m),500,216711.29999995232,216711.10000002384,212960.55,212965.39999997616,212977.485,216727.486,8,400,48,,ISIC_0033148.JPG
break,html.Screen,4_47_1,2023-10-31T17:10:29.269Z,,0,,,NaN,,,,,,false,,,,216712.39999997616,216712.10000002384,,216711.60000002384,,216727.486,8,400,,,
break_continue,html.Screen,4_47_2,2023-10-31T17:10:29.269Z,,0,,,NaN,,,,,,false,,,,216713.10000002384,216712.79999995232,,216712.60000002384,,216727.486,8,400,,,
sequence,flow.Sequence,4_47,2023-10-31T17:10:29.270Z,,0,,,3735.3149999523303,completion,,,,,false,,,,216713.39999997616,216712.79999995232,212960.55,212965.29999995232,212977.485,216727.486,8,400,,,
trial,html.Screen,4_48_0,2023-10-31T17:10:31.881Z,,0,1,,2596.5139999999956,response,ISIC_0061829.JPG,5,ISIC_1693572.JPG,ISIC_1693572.JPG,false,0,keypress(z),500,219324.29999995232,219324,216710.774,216713.60000002384,216727.486,219327.231,8,400,49,,ISIC_0061829.JPG
break,html.Screen,4_48_1,2023-10-31T17:10:31.882Z,,0,,,NaN,,,,,,false,,,,219325.19999992847,219325,,219324.60000002384,,219327.231,8,400,,,
break_continue,html.Screen,4_48_2,2023-10-31T17:10:31.882Z,,0,,,NaN,,,,,,false,,,,219325.69999992847,219325.60000002384,,219325.39999997616,,219327.231,8,400,,,
sequence,flow.Sequence,4_48,2023-10-31T17:10:31.882Z,,0,,,2598.1140000238374,completion,,,,,false,,,,219326.10000002384,219325.60000002384,216710.774,216713.5,216727.486,219327.231,8,400,,,
trial,html.Screen,4_49_0,2023-10-31T17:10:34.461Z,,0,1,,2576.9689999284747,response,ISIC_5238649.JPG,5,ISIC_8708106.JPG,ISIC_5238649.JPG,false,1,keypress(m),500,221904.60000002384,221904.19999992847,219310.687,219326.19999992847,219327.231,221910.586,8,400,50,,ISIC_8708106.JPG
break,html.Screen,4_49_1,2023-10-31T17:10:44.451Z,,0,,,10000.135999999999,timeout,,,,,false,,,,231895,231893.964,221894.06,221904.79999995232,221910.586,231910.722,8,400,,,
break_continue,html.Screen,4_49_2,2023-10-31T17:10:45.609Z,,0,,,1136.7779999999912,response,,,,,false,continue,keypress(Space),,233052.39999997616,233047.5,231893.964,231895.29999995232,231910.722,233060.754,8,400,,,
sequence,flow.Sequence,4_49,2023-10-31T17:10:45.609Z,,0,,,13720.269,completion,,,,,false,,,,233052.5,233047.5,219310.687,219326.19999992847,219327.231,233060.754,8,400,,,
trial,html.Screen,4_50_0,2023-10-31T17:10:49.211Z,,0,2,,3593.645999976172,response,ISIC_1027512.JPG,5,ISIC_0029550.JPG,ISIC_0029550.JPG,false,0,keypress(z),500,236654.60000002384,236654.39999997616,233044.04,233052.60000002384,233060.754,236660.584,8,400,1,,ISIC_1027512.JPG
break,html.Screen,4_50_1,2023-10-31T17:10:49.211Z,,0,,,NaN,,,,,,false,,,,236654.89999997616,236654.79999995232,,236654.69999992847,,236660.584,8,400,,,
break_continue,html.Screen,4_50_2,2023-10-31T17:10:49.212Z,,0,,,NaN,,,,,,false,,,,236655.19999992847,236655,,236655,,236660.584,8,400,,,
sequence,flow.Sequence,4_50,2023-10-31T17:10:49.212Z,,0,,,3594.2460000000137,completion,,,,,false,,,,236655.19999992847,236655,233044.04,233052.60000002384,233060.754,236660.584,8,400,,,
trial,html.Screen,4_51_0,2023-10-31T17:10:52.302Z,,0,2,,3084.7159999523137,response,ISIC_8438811.JPG,5,ISIC_0871853.JPG,ISIC_8438811.JPG,false,1,keypress(m),500,239745.5,239745.29999995232,236643.95,236655.29999995232,236660.584,239760.568,8,400,2,,ISIC_0871853.JPG
break,html.Screen,4_51_1,2023-10-31T17:10:52.303Z,,0,,,NaN,,,,,,false,,,,239746.60000002384,239746.29999995232,,239745.89999997616,,239760.568,8,400,,,
break_continue,html.Screen,4_51_2,2023-10-31T17:10:52.304Z,,0,,,NaN,,,,,,false,,,,239747.10000002384,239746.89999997616,,239746.79999995232,,239760.568,8,400,,,
sequence,flow.Sequence,4_51,2023-10-31T17:10:52.304Z,,0,,,3086.3159999761556,completion,,,,,false,,,,239747.39999997616,239746.89999997616,236643.95,236655.29999995232,236660.584,239760.568,8,400,,,
trial,html.Screen,4_52_0,2023-10-31T17:10:55.059Z,,0,2,,2741.731999952317,response,ISIC_8029613.JPG,6,ISIC_0558485.JPG,ISIC_0558485.JPG,false,0,keypress(z),500,242502.29999995232,242502.29999995232,239744.197,239747.60000002384,239760.568,242510.84,8,400,3,,ISIC_8029613.JPG
break,html.Screen,4_52_1,2023-10-31T17:10:55.059Z,,0,,,NaN,,,,,,false,,,,242502.69999992847,242502.69999992847,,242502.39999997616,,242510.84,8,400,,,
break_continue,html.Screen,4_52_2,2023-10-31T17:10:55.060Z,,0,,,NaN,,,,,,false,,,,242503,242502.89999997616,,242502.89999997616,,242510.84,8,400,,,
sequence,flow.Sequence,4_52,2023-10-31T17:10:55.060Z,,0,,,2742.331999976159,completion,,,,,false,,,,242503.10000002384,242502.89999997616,239744.197,239747.5,239760.568,242510.84,8,400,,,
trial,html.Screen,4_53_0,2023-10-31T17:10:57.766Z,,0,2,,2697.7600000238454,response,ISIC_7340247.JPG,6,ISIC_0011434.JPG,ISIC_7340247.JPG,false,1,keypress(m),500,245208.89999997616,245208.60000002384,242494.173,242503.29999995232,242510.84,245227.702,8,400,4,,ISIC_0011434.JPG
break,html.Screen,4_53_1,2023-10-31T17:10:57.767Z,,0,,,NaN,,,,,,false,,,,245209.89999997616,245209.60000002384,,245209.10000002384,,245227.702,8,400,,,
break_continue,html.Screen,4_53_2,2023-10-31T17:10:57.767Z,,0,,,NaN,,,,,,false,,,,245210.5,245210.19999992847,,245210.10000002384,,245227.702,8,400,,,
sequence,flow.Sequence,4_53,2023-10-31T17:10:57.767Z,,0,,,2699.359999928478,completion,,,,,false,,,,245210.79999995232,245210.19999992847,242494.173,242503.19999992847,242510.84,245227.702,8,400,,,
trial,html.Screen,4_54_0,2023-10-31T17:11:00.234Z,,0,2,,2449.697999976168,response,ISIC_0054134.JPG,4,ISIC_0150363.JPG,ISIC_0150363.JPG,false,0,keypress(z),500,247677.79999995232,247677.39999997616,245194.216,245210.89999997616,245227.702,247694.152,8,400,5,,ISIC_0054134.JPG
break,html.Screen,4_54_1,2023-10-31T17:11:00.236Z,,0,,,NaN,,,,,,false,,,,247678.79999995232,247678.5,,247678.10000002384,,247694.152,8,400,,,
break_continue,html.Screen,4_54_2,2023-10-31T17:11:00.236Z,,0,,,NaN,,,,,,false,,,,247679.39999997616,247679.19999992847,,247679,,247694.152,8,400,,,
sequence,flow.Sequence,4_54,2023-10-31T17:11:00.236Z,,0,,,2451.497999928484,completion,,,,,false,,,,247679.60000002384,247679.19999992847,245194.216,245210.89999997616,245227.702,247694.152,8,400,,,
trial,html.Screen,4_55_0,2023-10-31T17:11:02.894Z,,0,2,,2643.2479999761563,response,ISIC_0054705.JPG,5,ISIC_0002811.JPG,ISIC_0002811.JPG,false,0,keypress(z),500,250337.79999995232,250337.39999997616,247677.5,247679.79999995232,247694.152,250343.909,8,400,6,,ISIC_0054705.JPG
break,html.Screen,4_55_1,2023-10-31T17:11:02.896Z,,0,,,NaN,,,,,,false,,,,250338.79999995232,250338.5,,250338,,250343.909,8,400,,,
break_continue,html.Screen,4_55_2,2023-10-31T17:11:02.896Z,,0,,,NaN,,,,,,false,,,,250339.29999995232,250339.19999992847,,250339,,250343.909,8,400,,,
sequence,flow.Sequence,4_55,2023-10-31T17:11:02.896Z,,0,,,2645.0479999284726,completion,,,,,false,,,,250339.60000002384,250339.19999992847,247677.5,247679.79999995232,247694.152,250343.909,8,400,,,
trial,html.Screen,4_56_0,2023-10-31T17:11:05.428Z,,0,2,,2526.590999999986,response,ISIC_0046225.JPG,5,ISIC_5514594.JPG,ISIC_5514594.JPG,false,0,keypress(z),500,252870.89999997616,252870.5,250327.446,250339.89999997616,250343.909,252877.273,8,400,7,,ISIC_0046225.JPG
break,html.Screen,4_56_1,2023-10-31T17:11:05.429Z,,0,,,NaN,,,,,,false,,,,252871.79999995232,252871.5,,252871.19999992847,,252877.273,8,400,,,
break_continue,html.Screen,4_56_2,2023-10-31T17:11:05.429Z,,0,,,NaN,,,,,,false,,,,252872.29999995232,252872.19999992847,,252872.10000002384,,252877.273,8,400,,,
sequence,flow.Sequence,4_56,2023-10-31T17:11:05.429Z,,0,,,2528.29099992846,completion,,,,,false,,,,252872.69999992847,252872.19999992847,250327.446,250339.69999992847,250343.909,252877.273,8,400,,,
trial,html.Screen,4_57_0,2023-10-31T17:11:08.185Z,,0,2,,2750.2270000000135,response,ISIC_4720306.JPG,6,ISIC_3474681.JPG,ISIC_4720306.JPG,false,1,keypress(m),500,255627.79999995232,255627.5,252860.828,252872.89999997616,252877.273,255644.173,8,400,8,,ISIC_3474681.JPG
break,html.Screen,4_57_1,2023-10-31T17:11:08.186Z,,0,,,NaN,,,,,,false,,,,255628.79999995232,255628.60000002384,,255628.19999992847,,255644.173,8,400,,,
break_continue,html.Screen,4_57_2,2023-10-31T17:11:08.186Z,,0,,,NaN,,,,,,false,,,,255629.29999995232,255629.19999992847,,255629,,255644.173,8,400,,,
sequence,flow.Sequence,4_57,2023-10-31T17:11:08.186Z,,0,,,2751.926999928488,completion,,,,,false,,,,255629.69999992847,255629.19999992847,252860.828,252872.89999997616,252877.273,255644.173,8,400,,,
trial,html.Screen,4_58_0,2023-10-31T17:11:10.909Z,,0,2,,2707.6269999523065,response,ISIC_0066105.JPG,4,ISIC_3093026.JPG,ISIC_3093026.JPG,false,0,keypress(z),500,258352.10000002384,258351.79999995232,255627.293,255629.79999995232,255644.173,258360.553,8,400,9,,ISIC_0066105.JPG
break,html.Screen,4_58_1,2023-10-31T17:11:10.910Z,,0,,,NaN,,,,,,false,,,,258353,258352.79999995232,,258352.39999997616,,258360.553,8,400,,,
break_continue,html.Screen,4_58_2,2023-10-31T17:11:10.910Z,,0,,,NaN,,,,,,false,,,,258353.69999992847,258353.5,,258353.29999995232,,258360.553,8,400,,,
sequence,flow.Sequence,4_58,2023-10-31T17:11:10.911Z,,0,,,2709.32699999999,completion,,,,,false,,,,258353.89999997616,258353.5,255627.293,255629.79999995232,255644.173,258360.553,8,400,,,
trial,html.Screen,4_59_0,2023-10-31T17:11:13.809Z,,0,2,,2891.5470000238274,response,ISIC_9125409.JPG,5,ISIC_6448312.JPG,ISIC_6448312.JPG,false,0,keypress(z),500,261252.39999997616,261252.10000002384,258344.169,258354.10000002384,258360.553,261260.647,8,400,10,,ISIC_9125409.JPG
break,html.Screen,4_59_1,2023-10-31T17:11:13.810Z,,0,,,NaN,,,,,,false,,,,261253.39999997616,261253.10000002384,,261252.69999992847,,261260.647,8,400,,,
break_continue,html.Screen,4_59_2,2023-10-31T17:11:13.811Z,,0,,,NaN,,,,,,false,,,,261253.89999997616,261253.69999992847,,261253.5,,261260.647,8,400,,,
sequence,flow.Sequence,4_59,2023-10-31T17:11:13.811Z,,0,,,2893.14699992846,completion,,,,,false,,,,261254.29999995232,261253.69999992847,258344.169,258354.10000002384,258360.553,261260.647,8,400,,,
trial,html.Screen,4_60_0,2023-10-31T17:11:16.838Z,,0,2,,3020.152999952319,response,ISIC_0070137.JPG,5,ISIC_0059905.JPG,ISIC_0059905.JPG,false,0,keypress(z),500,264280.89999997616,264280.7999999523,261244.224,261254.60000002384,261260.647,264294.149,8,400,11,,ISIC_0070137.JPG
break,html.Screen,4_60_1,2023-10-31T17:11:16.838Z,,0,,,NaN,,,,,,false,,,,264281.2999999523,264281.1999999285,,264281,,264294.149,8,400,,,
break_continue,html.Screen,4_60_2,2023-10-31T17:11:16.838Z,,0,,,NaN,,,,,,false,,,,264281.39999997616,264281.39999997616,,264281.2999999523,,264294.149,8,400,,,
sequence,flow.Sequence,4_60,2023-10-31T17:11:16.838Z,,0,,,3020.752999976161,completion,,,,,false,,,,264281.6999999285,264281.39999997616,261244.224,261254.5,261260.647,264294.149,8,400,,,
trial,html.Screen,4_61_0,2023-10-31T17:11:20.280Z,,0,2,,3428.7509999761824,response,ISIC_5666345.JPG,5,ISIC_7454487.JPG,ISIC_7454487.JPG,false,0,keypress(z),500,267723.1999999285,267722.89999997616,264277.28,264281.6999999285,264294.149,267727.315,8,400,12,,ISIC_5666345.JPG
break,html.Screen,4_61_1,2023-10-31T17:11:20.281Z,,0,,,NaN,,,,,,false,,,,267724.10000002384,267724,,267723.5,,267727.315,8,400,,,
break_continue,html.Screen,4_61_2,2023-10-31T17:11:20.281Z,,0,,,NaN,,,,,,false,,,,267724.6999999285,267724.5,,267724.39999997616,,267727.315,8,400,,,
sequence,flow.Sequence,4_61,2023-10-31T17:11:20.282Z,,0,,,3430.351000000024,completion,,,,,false,,,,267725,267724.5,264277.28,264281.6999999285,264294.149,267727.315,8,400,,,
trial,html.Screen,4_62_0,2023-10-31T17:11:23.933Z,,0,2,,3648.484999952314,response,ISIC_0638857.JPG,5,ISIC_0962787.JPG,ISIC_0962787.JPG,false,0,keypress(z),500,271376.10000002384,271375.7999999523,267710.902,267725.1999999285,267727.315,271394.328,8,400,13,,ISIC_0638857.JPG
break,html.Screen,4_62_1,2023-10-31T17:11:23.934Z,,0,,,NaN,,,,,,false,,,,271377.10000002384,271376.89999997616,,271376.39999997616,,271394.328,8,400,,,
break_continue,html.Screen,4_62_2,2023-10-31T17:11:23.934Z,,0,,,NaN,,,,,,false,,,,271377.6999999285,271377.5,,271377.2999999523,,271394.328,8,400,,,
sequence,flow.Sequence,4_62,2023-10-31T17:11:23.935Z,,0,,,3650.1849999999977,completion,,,,,false,,,,271377.89999997616,271377.5,267710.902,267725.1999999285,267727.315,271394.328,8,400,,,
trial,html.Screen,4_63_0,2023-10-31T17:11:26.625Z,,0,2,,2673.471999952337,response,ISIC_4887874.JPG,5,ISIC_1554992.JPG,ISIC_1554992.JPG,false,0,keypress(z),500,274067.89999997616,274067.7999999523,271360.655,271378.1999999285,271394.328,274077.571,8,400,14,,ISIC_4887874.JPG
break,html.Screen,4_63_1,2023-10-31T17:11:26.625Z,,0,,,NaN,,,,,,false,,,,274068.1999999285,274068.10000002384,,274068,,274077.571,8,400,,,
break_continue,html.Screen,4_63_2,2023-10-31T17:11:26.625Z,,0,,,NaN,,,,,,false,,,,274068.39999997616,274068.39999997616,,274068.2999999523,,274077.571,8,400,,,
sequence,flow.Sequence,4_63,2023-10-31T17:11:26.625Z,,0,,,2674.0719999761786,completion,,,,,false,,,,274068.5,274068.39999997616,271360.655,271378.10000002384,271394.328,274077.571,8,400,,,
trial,html.Screen,4_64_0,2023-10-31T17:11:30.707Z,,0,2,,4072.128999928478,response,ISIC_4534608.JPG,4,ISIC_0015455.JPG,ISIC_4534608.JPG,false,1,keypress(m),500,278150,278149.6999999285,274060.944,274068.5,274077.571,278160.928,8,400,15,,ISIC_0015455.JPG
break,html.Screen,4_64_1,2023-10-31T17:11:30.708Z,,0,,,NaN,,,,,,false,,,,278151,278150.7999999523,,278150.39999997616,,278160.928,8,400,,,
break_continue,html.Screen,4_64_2,2023-10-31T17:11:30.708Z,,0,,,NaN,,,,,,false,,,,278151.60000002384,278151.2999999523,,278151.1999999285,,278160.928,8,400,,,
sequence,flow.Sequence,4_64,2023-10-31T17:11:30.709Z,,0,,,4073.72899995232,completion,,,,,false,,,,278151.89999997616,278151.2999999523,274060.944,274068.5,274077.571,278160.928,8,400,,,
trial,html.Screen,4_65_0,2023-10-31T17:11:34.343Z,,0,2,,3624.9719999761437,response,ISIC_0027085.JPG,5,ISIC_0000297.JPG,ISIC_0027085.JPG,false,1,keypress(m),500,281786.2999999523,281785.89999997616,278143.937,278152,278160.928,281794.06,8,400,16,,ISIC_0000297.JPG
break,html.Screen,4_65_1,2023-10-31T17:11:34.344Z,,0,,,NaN,,,,,,false,,,,281787.1999999285,281787.10000002384,,281786.60000002384,,281794.06,8,400,,,
break_continue,html.Screen,4_65_2,2023-10-31T17:11:34.345Z,,0,,,NaN,,,,,,false,,,,281787.7999999523,281787.60000002384,,281787.5,,281794.06,8,400,,,
sequence,flow.Sequence,4_65,2023-10-31T17:11:34.345Z,,0,,,3626.6720000238274,completion,,,,,false,,,,281788.10000002384,281787.60000002384,278143.937,278152,278160.928,281794.06,8,400,,,
trial,html.Screen,4_66_0,2023-10-31T17:11:37.659Z,,0,2,,3308.1399999284768,response,ISIC_0010838.JPG,5,ISIC_0070974.JPG,ISIC_0070974.JPG,false,0,keypress(z),500,285102.39999997616,285102.1999999285,281777.582,281788.2999999523,281794.06,285110.729,8,400,17,,ISIC_0010838.JPG
break,html.Screen,4_66_1,2023-10-31T17:11:37.659Z,,0,,,NaN,,,,,,false,,,,285102.6999999285,285102.60000002384,,285102.39999997616,,285110.729,8,400,,,
break_continue,html.Screen,4_66_2,2023-10-31T17:11:37.660Z,,0,,,NaN,,,,,,false,,,,285102.89999997616,285102.7999999523,,285102.7999999523,,285110.729,8,400,,,
sequence,flow.Sequence,4_66,2023-10-31T17:11:37.660Z,,0,,,3308.7399999523186,completion,,,,,false,,,,285102.89999997616,285102.7999999523,281777.582,281788.2999999523,281794.06,285110.729,8,400,,,
trial,html.Screen,4_67_0,2023-10-31T17:11:40.333Z,,0,2,,2665.170999976166,response,ISIC_0064270.JPG,5,ISIC_0027502.JPG,ISIC_0027502.JPG,false,0,keypress(z),500,287776.1999999285,287775.89999997616,285094.052,285103,285110.729,287795.593,8,400,18,,ISIC_0064270.JPG
break,html.Screen,4_67_1,2023-10-31T17:11:40.334Z,,0,,,NaN,,,,,,false,,,,287777.2999999523,287776.89999997616,,287776.5,,287795.593,8,400,,,
break_continue,html.Screen,4_67_2,2023-10-31T17:11:40.335Z,,0,,,NaN,,,,,,false,,,,287777.89999997616,287777.6999999285,,287777.5,,287795.593,8,400,,,
sequence,flow.Sequence,4_67,2023-10-31T17:11:40.335Z,,0,,,2666.9709999284823,completion,,,,,false,,,,287778.1999999285,287777.6999999285,285094.052,285102.89999997616,285110.729,287795.593,8,400,,,
trial,html.Screen,4_68_0,2023-10-31T17:11:43.265Z,,0,2,,2912.606999928481,response,ISIC_5315062.JPG,6,ISIC_0046443.JPG,ISIC_5315062.JPG,false,1,keypress(m),500,290708.39999997616,290708.1999999285,287760.878,287778.39999997616,287795.593,290710.689,8,400,19,,ISIC_0046443.JPG
break,html.Screen,4_68_1,2023-10-31T17:11:43.266Z,,0,,,NaN,,,,,,false,,,,290709.39999997616,290709.1999999285,,290708.7999999523,,290710.689,8,400,,,
break_continue,html.Screen,4_68_2,2023-10-31T17:11:43.267Z,,0,,,NaN,,,,,,false,,,,290710.10000002384,290709.89999997616,,290709.6999999285,,290710.689,8,400,,,
sequence,flow.Sequence,4_68,2023-10-31T17:11:43.267Z,,0,,,2914.3069999761647,completion,,,,,false,,,,290710.2999999523,290709.89999997616,287760.878,287778.39999997616,287795.593,290710.689,8,400,,,
trial,html.Screen,4_69_0,2023-10-31T17:11:46.390Z,,0,2,,3121.911000023829,response,ISIC_9053988.JPG,5,ISIC_3335505.JPG,ISIC_3335505.JPG,false,0,keypress(z),500,293832.89999997616,293832.60000002384,290694.297,290710.5,290710.689,293843.978,8,400,20,,ISIC_9053988.JPG
break,html.Screen,4_69_1,2023-10-31T17:11:46.391Z,,0,,,NaN,,,,,,false,,,,293833.7999999523,293833.6999999285,,293833.1999999285,,293843.978,8,400,,,
break_continue,html.Screen,4_69_2,2023-10-31T17:11:46.391Z,,0,,,NaN,,,,,,false,,,,293834.39999997616,293834.1999999285,,293834.10000002384,,293843.978,8,400,,,
sequence,flow.Sequence,4_69,2023-10-31T17:11:46.391Z,,0,,,3123.5109999284614,completion,,,,,false,,,,293834.6999999285,293834.1999999285,290694.297,290710.5,290710.689,293843.978,8,400,,,
trial,html.Screen,4_70_0,2023-10-31T17:11:48.954Z,,0,2,,2552.9219999761553,response,ISIC_4229473.JPG,6,ISIC_0011948.JPG,ISIC_4229473.JPG,false,1,keypress(m),500,296397.10000002384,296396.89999997616,293827.504,293834.89999997616,293843.978,296410.961,8,400,21,,ISIC_0011948.JPG
break,html.Screen,4_70_1,2023-10-31T17:11:48.954Z,,0,,,NaN,,,,,,false,,,,296397.60000002384,296397.5,,296397.2999999523,,296410.961,8,400,,,
break_continue,html.Screen,4_70_2,2023-10-31T17:11:48.955Z,,0,,,NaN,,,,,,false,,,,296397.89999997616,296397.7999999523,,296397.6999999285,,296410.961,8,400,,,
sequence,flow.Sequence,4_70,2023-10-31T17:11:48.955Z,,0,,,2553.8219999523135,completion,,,,,false,,,,296398.10000002384,296397.7999999523,293827.504,293834.7999999523,293843.978,296410.961,8,400,,,
trial,html.Screen,4_71_0,2023-10-31T17:11:51.837Z,,0,2,,2869.1390000238316,response,ISIC_3747979.JPG,4,ISIC_6966001.JPG,ISIC_3747979.JPG,false,1,keypress(m),500,299280.1999999285,299280.10000002384,296394.318,296398.1999999285,296410.961,299294.216,8,400,22,,ISIC_6966001.JPG
break,html.Screen,4_71_1,2023-10-31T17:11:51.837Z,,0,,,NaN,,,,,,false,,,,299280.5,299280.5,,299280.39999997616,,299294.216,8,400,,,
break_continue,html.Screen,4_71_2,2023-10-31T17:11:51.837Z,,0,,,NaN,,,,,,false,,,,299280.6999999285,299280.60000002384,,299280.60000002384,,299294.216,8,400,,,
sequence,flow.Sequence,4_71,2023-10-31T17:11:51.837Z,,0,,,2869.6390000238316,completion,,,,,false,,,,299280.6999999285,299280.60000002384,296394.318,296398.1999999285,296410.961,299294.216,8,400,,,
trial,html.Screen,4_72_0,2023-10-31T17:11:54.720Z,,0,2,,2868.4839999284595,response,ISIC_4398011.JPG,5,ISIC_0014684.JPG,ISIC_4398011.JPG,false,1,keypress(m),500,302163,302162.6999999285,299277.654,299280.7999999523,299294.216,302177.631,8,400,23,,ISIC_0014684.JPG
break,html.Screen,4_72_1,2023-10-31T17:11:54.721Z,,0,,,NaN,,,,,,false,,,,302164,302163.6999999285,,302163.2999999523,,302177.631,8,400,,,
break_continue,html.Screen,4_72_2,2023-10-31T17:11:54.722Z,,0,,,NaN,,,,,,false,,,,302164.5,302164.2999999523,,302164.10000002384,,302177.631,8,400,,,
sequence,flow.Sequence,4_72,2023-10-31T17:11:54.722Z,,0,,,2870.0839999523014,completion,,,,,false,,,,302164.7999999523,302164.2999999523,299277.654,299280.7999999523,299294.216,302177.631,8,400,,,
trial,html.Screen,4_73_0,2023-10-31T17:11:57.573Z,,0,2,,2837.768999976164,response,ISIC_0058508.JPG,5,ISIC_7196249.JPG,ISIC_7196249.JPG,false,0,keypress(z),500,305015.5,305015.39999997616,302160.734,302165,302177.631,305027.551,8,400,24,,ISIC_0058508.JPG
break,html.Screen,4_73_1,2023-10-31T17:11:57.573Z,,0,,,NaN,,,,,,false,,,,305015.7999999523,305015.6999999285,,305015.5,,305027.551,8,400,,,
break_continue,html.Screen,4_73_2,2023-10-31T17:11:57.573Z,,0,,,NaN,,,,,,false,,,,305016,305016,,305015.89999997616,,305027.551,8,400,,,
sequence,flow.Sequence,4_73,2023-10-31T17:11:57.573Z,,0,,,2838.369000000006,completion,,,,,false,,,,305016.10000002384,305016,302160.734,302164.89999997616,302177.631,305027.551,8,400,,,
trial,html.Screen,4_74_0,2023-10-31T17:12:00.519Z,,0,2,,2933.7489999523386,response,ISIC_0399220.JPG,6,ISIC_2902328.JPG,ISIC_2902328.JPG,false,0,keypress(z),500,307961.60000002384,307961.2999999523,305010.934,305016.1999999285,305027.551,307977.65,8,400,25,,ISIC_0399220.JPG
break,html.Screen,4_74_1,2023-10-31T17:12:00.520Z,,0,,,NaN,,,,,,false,,,,307962.60000002384,307962.2999999523,,307962,,307977.65,8,400,,,
break_continue,html.Screen,4_74_2,2023-10-31T17:12:00.520Z,,0,,,NaN,,,,,,false,,,,307963.1999999285,307963,,307962.7999999523,,307977.65,8,400,,,
sequence,flow.Sequence,4_74,2023-10-31T17:12:00.520Z,,0,,,2935.4490000000224,completion,,,,,false,,,,307963.39999997616,307963,305010.934,305016.1999999285,305027.551,307977.65,8,400,,,
trial,html.Screen,4_75_0,2023-10-31T17:12:03.484Z,,0,2,,2948.649999952293,response,ISIC_4425766.JPG,5,ISIC_0031629.JPG,ISIC_0031629.JPG,false,0,keypress(z),500,310926.6999999285,310926.2999999523,307960.62,307963.6999999285,307977.65,310944.273,8,400,26,,ISIC_4425766.JPG
break,html.Screen,4_75_1,2023-10-31T17:12:03.485Z,,0,,,NaN,,,,,,false,,,,310927.7999999523,310927.39999997616,,310927,,310944.273,8,400,,,
break_continue,html.Screen,4_75_2,2023-10-31T17:12:03.485Z,,0,,,NaN,,,,,,false,,,,310928.39999997616,310928.10000002384,,310928,,310944.273,8,400,,,
sequence,flow.Sequence,4_75,2023-10-31T17:12:03.486Z,,0,,,2950.4500000238186,completion,,,,,false,,,,310928.6999999285,310928.10000002384,307960.62,307963.60000002384,307977.65,310944.273,8,400,,,
trial,html.Screen,4_76_0,2023-10-31T17:12:05.825Z,,0,2,,2323.2270000000135,response,ISIC_9244047.JPG,5,ISIC_0066411.JPG,ISIC_9244047.JPG,false,1,keypress(m),500,313267.89999997616,313267.5,310927.594,310928.89999997616,310944.273,313277.629,8,400,27,,ISIC_0066411.JPG
break,html.Screen,4_76_1,2023-10-31T17:12:05.826Z,,0,,,NaN,,,,,,false,,,,313268.7999999523,313268.60000002384,,313268.10000002384,,313277.629,8,400,,,
break_continue,html.Screen,4_76_2,2023-10-31T17:12:05.826Z,,0,,,NaN,,,,,,false,,,,313269.2999999523,313269.10000002384,,313269,,313277.629,8,400,,,
sequence,flow.Sequence,4_76,2023-10-31T17:12:05.827Z,,0,,,2324.8270000238554,completion,,,,,false,,,,313269.60000002384,313269.10000002384,310927.594,310928.7999999523,310944.273,313277.629,8,400,,,
trial,html.Screen,4_77_0,2023-10-31T17:12:08.389Z,,0,2,,2554.270999976143,response,ISIC_2146346.JPG,5,ISIC_0000036.JPG,ISIC_2146346.JPG,false,1,keypress(m),500,315832.1999999285,315831.89999997616,313260.916,313269.7999999523,313277.629,315844.238,8,400,28,,ISIC_0000036.JPG
break,html.Screen,4_77_1,2023-10-31T17:12:08.390Z,,0,,,NaN,,,,,,false,,,,315833.1999999285,315833,,315832.5,,315844.238,8,400,,,
break_continue,html.Screen,4_77_2,2023-10-31T17:12:08.391Z,,0,,,NaN,,,,,,false,,,,315833.7999999523,315833.60000002384,,315833.39999997616,,315844.238,8,400,,,
sequence,flow.Sequence,4_77,2023-10-31T17:12:08.391Z,,0,,,2555.9710000238265,completion,,,,,false,,,,315834.10000002384,315833.60000002384,313260.916,313269.7999999523,313277.629,315844.238,8,400,,,
trial,html.Screen,4_78_0,2023-10-31T17:12:11.002Z,,0,2,,2600.161999976146,response,ISIC_9596721.JPG,6,ISIC_0013634.JPG,ISIC_0013634.JPG,false,0,keypress(z),500,318444.6999999285,318444.39999997616,315827.696,315834.2999999523,315844.238,318460.979,8,400,29,,ISIC_9596721.JPG
break,html.Screen,4_78_1,2023-10-31T17:12:11.003Z,,0,,,NaN,,,,,,false,,,,318445.6999999285,318445.39999997616,,318445,,318460.979,8,400,,,
break_continue,html.Screen,4_78_2,2023-10-31T17:12:11.003Z,,0,,,NaN,,,,,,false,,,,318446.2999999523,318446.10000002384,,318445.89999997616,,318460.979,8,400,,,
sequence,flow.Sequence,4_78,2023-10-31T17:12:11.004Z,,0,,,2601.8620000238298,completion,,,,,false,,,,318446.5,318446.10000002384,315827.696,315834.1999999285,315844.238,318460.979,8,400,,,
trial,html.Screen,4_79_0,2023-10-31T17:12:13.326Z,,0,2,,2307.820999952324,response,ISIC_8516223.JPG,4,ISIC_0011150.JPG,ISIC_8516223.JPG,false,1,keypress(m),500,320769,320768.7999999523,318444.28,318446.6999999285,318460.979,320777.316,8,400,30,,ISIC_0011150.JPG
break,html.Screen,4_79_1,2023-10-31T17:12:13.326Z,,0,,,NaN,,,,,,false,,,,320769.2999999523,320769.10000002384,,320769.10000002384,,320777.316,8,400,,,
break_continue,html.Screen,4_79_2,2023-10-31T17:12:13.327Z,,0,,,NaN,,,,,,false,,,,320769.5,320769.39999997616,,320769.2999999523,,320777.316,8,400,,,
sequence,flow.Sequence,4_79,2023-10-31T17:12:13.327Z,,0,,,2308.420999976166,completion,,,,,false,,,,320769.60000002384,320769.39999997616,318444.28,318446.6999999285,318460.979,320777.316,8,400,,,
trial,html.Screen,4_80_0,2023-10-31T17:12:15.600Z,,0,2,,2265.383999928483,response,ISIC_4645995.JPG,5,ISIC_3685955.JPG,ISIC_3685955.JPG,false,0,keypress(z),500,323042.7999999523,323042.6999999285,320760.914,320769.6999999285,320777.316,323062.07,8,400,31,,ISIC_4645995.JPG
break,html.Screen,4_80_1,2023-10-31T17:12:15.600Z,,0,,,NaN,,,,,,false,,,,323043.1999999285,323043,,323042.89999997616,,323062.07,8,400,,,
break_continue,html.Screen,4_80_2,2023-10-31T17:12:15.600Z,,0,,,NaN,,,,,,false,,,,323043.5,323043.39999997616,,323043.2999999523,,323062.07,8,400,,,
sequence,flow.Sequence,4_80,2023-10-31T17:12:15.601Z,,0,,,2266.0839999761665,completion,,,,,false,,,,323043.60000002384,323043.39999997616,320760.914,320769.60000002384,320777.316,323062.07,8,400,,,
trial,html.Screen,4_81_0,2023-10-31T17:12:18.707Z,,0,2,,3087.329999976151,response,ISIC_6882080.JPG,5,ISIC_0634107.JPG,ISIC_0634107.JPG,false,0,keypress(z),500,326149.5,326149.39999997616,323027.455,323043.60000002384,323062.07,326160.947,8,400,32,,ISIC_6882080.JPG
break,html.Screen,4_81_1,2023-10-31T17:12:18.707Z,,0,,,NaN,,,,,,false,,,,326149.89999997616,326149.6999999285,,326149.6999999285,,326160.947,8,400,,,
break_continue,html.Screen,4_81_2,2023-10-31T17:12:18.707Z,,0,,,NaN,,,,,,false,,,,326150.10000002384,326150,,326149.89999997616,,326160.947,8,400,,,
sequence,flow.Sequence,4_81,2023-10-31T17:12:18.707Z,,0,,,3087.929999999993,completion,,,,,false,,,,326150.10000002384,326150,323027.455,323043.60000002384,323062.07,326160.947,8,400,,,
trial,html.Screen,4_82_0,2023-10-31T17:12:21.509Z,,0,2,,2790.6530000238563,response,ISIC_1351604.JPG,5,ISIC_0033946.JPG,ISIC_1351604.JPG,false,1,keypress(m),500,328951.89999997616,328951.60000002384,326144.104,326150.2999999523,326160.947,328960.777,8,400,33,,ISIC_0033946.JPG
break,html.Screen,4_82_1,2023-10-31T17:12:21.510Z,,0,,,NaN,,,,,,false,,,,328952.7999999523,328952.60000002384,,328952.1999999285,,328960.777,8,400,,,
break_continue,html.Screen,4_82_2,2023-10-31T17:12:21.510Z,,0,,,NaN,,,,,,false,,,,328953.5,328953.1999999285,,328953.10000002384,,328960.777,8,400,,,
sequence,flow.Sequence,4_82,2023-10-31T17:12:21.511Z,,0,,,2792.252999928489,completion,,,,,false,,,,328953.6999999285,328953.1999999285,326144.104,326150.2999999523,326160.947,328960.777,8,400,,,
trial,html.Screen,4_83_0,2023-10-31T17:12:24.506Z,,0,2,,2987.5229999523144,response,ISIC_0061265.JPG,5,ISIC_0056771.JPG,ISIC_0061265.JPG,false,1,keypress(m),500,331948.60000002384,331948.2999999523,328944.339,328953.89999997616,328960.777,331961.024,8,400,34,,ISIC_0056771.JPG
break,html.Screen,4_83_1,2023-10-31T17:12:24.507Z,,0,,,NaN,,,,,,false,,,,331949.6999999285,331949.39999997616,,331948.89999997616,,331961.024,8,400,,,
break_continue,html.Screen,4_83_2,2023-10-31T17:12:24.507Z,,0,,,NaN,,,,,,false,,,,331950.1999999285,331950,,331949.89999997616,,331961.024,8,400,,,
sequence,flow.Sequence,4_83,2023-10-31T17:12:24.508Z,,0,,,2989.222999999998,completion,,,,,false,,,,331950.5,331950,328944.339,328953.89999997616,328960.777,331961.024,8,400,,,
trial,html.Screen,4_84_0,2023-10-31T17:12:27.934Z,,0,2,,3416.076000023866,response,ISIC_0887792.JPG,5,ISIC_6976570.JPG,ISIC_0887792.JPG,false,1,keypress(m),500,335377.39999997616,335377.10000002384,331944.127,331950.6999999285,331961.024,335394.268,8,400,35,,ISIC_6976570.JPG
break,html.Screen,4_84_1,2023-10-31T17:12:27.936Z,,0,,,NaN,,,,,,false,,,,335378.5,335378.1999999285,,335377.7999999523,,335394.268,8,400,,,
break_continue,html.Screen,4_84_2,2023-10-31T17:12:27.936Z,,0,,,NaN,,,,,,false,,,,335379.10000002384,335378.89999997616,,335378.6999999285,,335394.268,8,400,,,
sequence,flow.Sequence,4_84,2023-10-31T17:12:27.936Z,,0,,,3417.8759999761824,completion,,,,,false,,,,335379.39999997616,335378.89999997616,331944.127,331950.60000002384,331961.024,335394.268,8,400,,,
trial,html.Screen,4_85_0,2023-10-31T17:12:30.963Z,,0,2,,3011.83200002386,response,ISIC_3093026.JPG,5,ISIC_6517082.JPG,ISIC_3093026.JPG,false,1,keypress(m),500,338406.1999999285,338406.10000002384,335377.504,335379.60000002384,335394.268,338410.731,8,400,36,,ISIC_6517082.JPG
break,html.Screen,4_85_1,2023-10-31T17:12:30.964Z,,0,,,NaN,,,,,,false,,,,338406.60000002384,338406.5,,338406.2999999523,,338410.731,8,400,,,
break_continue,html.Screen,4_85_2,2023-10-31T17:12:30.964Z,,0,,,NaN,,,,,,false,,,,338406.6999999285,338406.6999999285,,338406.60000002384,,338410.731,8,400,,,
sequence,flow.Sequence,4_85,2023-10-31T17:12:30.964Z,,0,,,3012.4319999284926,completion,,,,,false,,,,338406.7999999523,338406.6999999285,335377.504,335379.60000002384,335394.268,338410.731,8,400,,,
trial,html.Screen,4_86_0,2023-10-31T17:12:33.621Z,,0,2,,2652.9689999284456,response,ISIC_1507583.JPG,5,ISIC_0010372.JPG,ISIC_1507583.JPG,false,1,keypress(m),500,341064.10000002384,341063.6999999285,338394.06,338406.89999997616,338410.731,341077.706,8,400,37,,ISIC_0010372.JPG
break,html.Screen,4_86_1,2023-10-31T17:12:33.622Z,,0,,,NaN,,,,,,false,,,,341065.10000002384,341064.7999999523,,341064.2999999523,,341077.706,8,400,,,
break_continue,html.Screen,4_86_2,2023-10-31T17:12:33.623Z,,0,,,NaN,,,,,,false,,,,341065.60000002384,341065.39999997616,,341065.1999999285,,341077.706,8,400,,,
sequence,flow.Sequence,4_86,2023-10-31T17:12:33.623Z,,0,,,2654.6689999761293,completion,,,,,false,,,,341066,341065.39999997616,338394.06,338406.89999997616,338410.731,341077.706,8,400,,,
trial,html.Screen,4_87_0,2023-10-31T17:12:36.938Z,,0,2,,3302.993999928469,response,ISIC_8899350.JPG,5,ISIC_7203184.JPG,ISIC_7203184.JPG,false,0,keypress(z),500,344381,344380.6999999285,341061.065,341066.10000002384,341077.706,344394.308,8,400,38,,ISIC_8899350.JPG
break,html.Screen,4_87_1,2023-10-31T17:12:36.939Z,,0,,,NaN,,,,,,false,,,,344382,344381.7999999523,,344381.2999999523,,344394.308,8,400,,,
break_continue,html.Screen,4_87_2,2023-10-31T17:12:36.940Z,,0,,,NaN,,,,,,false,,,,344382.5,344382.2999999523,,344382.1999999285,,344394.308,8,400,,,
sequence,flow.Sequence,4_87,2023-10-31T17:12:36.940Z,,0,,,3304.5939999523107,completion,,,,,false,,,,344382.7999999523,344382.2999999523,341061.065,341066.10000002384,341077.706,344394.308,8,400,,,
trial,html.Screen,4_88_0,2023-10-31T17:12:41.471Z,,0,2,,4519.091999976139,response,ISIC_1178518.JPG,5,ISIC_0030795.JPG,ISIC_1178518.JPG,false,1,keypress(m),500,348913.6999999285,348913.39999997616,344377.622,344383.10000002384,344394.308,348927.611,8,400,39,,ISIC_0030795.JPG
break,html.Screen,4_88_1,2023-10-31T17:12:41.472Z,,0,,,NaN,,,,,,false,,,,348914.6999999285,348914.5,,348914,,348927.611,8,400,,,
break_continue,html.Screen,4_88_2,2023-10-31T17:12:41.472Z,,0,,,NaN,,,,,,false,,,,348915.2999999523,348915.10000002384,,348914.89999997616,,348927.611,8,400,,,
sequence,flow.Sequence,4_88,2023-10-31T17:12:41.473Z,,0,,,4520.792000023823,completion,,,,,false,,,,348915.60000002384,348915.10000002384,344377.622,344383,344394.308,348927.611,8,400,,,
trial,html.Screen,4_89_0,2023-10-31T17:12:44.195Z,,0,2,,2710.3890000000247,response,ISIC_0027993.JPG,5,ISIC_9559922.JPG,ISIC_9559922.JPG,false,0,keypress(z),500,351638.1999999285,351638,348910.955,348915.7999999523,348927.611,351644.271,8,400,40,,ISIC_0027993.JPG
break,html.Screen,4_89_1,2023-10-31T17:12:44.196Z,,0,,,NaN,,,,,,false,,,,351638.60000002384,351638.5,,351638.2999999523,,351644.271,8,400,,,
break_continue,html.Screen,4_89_2,2023-10-31T17:12:44.196Z,,0,,,NaN,,,,,,false,,,,351638.7999999523,351638.7999999523,,351638.6999999285,,351644.271,8,400,,,
sequence,flow.Sequence,4_89,2023-10-31T17:12:44.196Z,,0,,,2711.188999952341,completion,,,,,false,,,,351638.89999997616,351638.7999999523,348910.955,348915.7999999523,348927.611,351644.271,8,400,,,
trial,html.Screen,4_90_0,2023-10-31T17:12:46.790Z,,0,2,,2588.9289999284665,response,ISIC_5275138.JPG,6,ISIC_0028878.JPG,ISIC_5275138.JPG,false,1,keypress(m),500,354233.2999999523,354233.1999999285,351627.687,351639,351644.271,354244.051,8,400,41,,ISIC_0028878.JPG
break,html.Screen,4_90_1,2023-10-31T17:12:46.791Z,,0,,,NaN,,,,,,false,,,,354233.6999999285,354233.60000002384,,354233.5,,354244.051,8,400,,,
break_continue,html.Screen,4_90_2,2023-10-31T17:12:46.791Z,,0,,,NaN,,,,,,false,,,,354233.89999997616,354233.7999999523,,354233.7999999523,,354244.051,8,400,,,
sequence,flow.Sequence,4_90,2023-10-31T17:12:46.791Z,,0,,,2589.5289999523084,completion,,,,,false,,,,354234,354233.7999999523,351627.687,351639,351644.271,354244.051,8,400,,,
trial,html.Screen,4_91_0,2023-10-31T17:12:49.369Z,,0,2,,2568.2489999523386,response,ISIC_5247383.JPG,6,ISIC_0000401.JPG,ISIC_5247383.JPG,false,1,keypress(m),500,356812.39999997616,356812.2999999523,354227.356,354234,354244.051,356827.404,8,400,42,,ISIC_0000401.JPG
break,html.Screen,4_91_1,2023-10-31T17:12:49.370Z,,0,,,NaN,,,,,,false,,,,356812.6999999285,356812.60000002384,,356812.5,,356827.404,8,400,,,
break_continue,html.Screen,4_91_2,2023-10-31T17:12:49.370Z,,0,,,NaN,,,,,,false,,,,356812.89999997616,356812.89999997616,,356812.89999997616,,356827.404,8,400,,,
sequence,flow.Sequence,4_91,2023-10-31T17:12:49.370Z,,0,,,2568.8489999761805,completion,,,,,false,,,,356813.10000002384,356812.89999997616,354227.356,354234,354244.051,356827.404,8,400,,,
trial,html.Screen,4_92_0,2023-10-31T17:12:52.283Z,,0,2,,2898.6960000238614,response,ISIC_0010523.JPG,5,ISIC_0057313.JPG,ISIC_0057313.JPG,false,0,keypress(z),500,359726.39999997616,359726.10000002384,356811.045,356813.10000002384,356827.404,359744.316,8,400,43,,ISIC_0010523.JPG
break,html.Screen,4_92_1,2023-10-31T17:12:52.284Z,,0,,,NaN,,,,,,false,,,,359727.39999997616,359727.10000002384,,359726.60000002384,,359744.316,8,400,,,
break_continue,html.Screen,4_92_2,2023-10-31T17:12:52.285Z,,0,,,NaN,,,,,,false,,,,359728,359727.6999999285,,359727.60000002384,,359744.316,8,400,,,
sequence,flow.Sequence,4_92,2023-10-31T17:12:52.285Z,,0,,,2900.295999928494,completion,,,,,false,,,,359728.1999999285,359727.6999999285,356811.045,356813.10000002384,356827.404,359744.316,8,400,,,
trial,html.Screen,4_93_0,2023-10-31T17:12:55.008Z,,0,2,,2705.7840000238502,response,ISIC_0028489.JPG,6,ISIC_0031096.JPG,ISIC_0031096.JPG,false,0,keypress(z),500,362450.2999999523,362450.10000002384,359711.034,359728.2999999523,359744.316,362460.707,8,400,44,,ISIC_0028489.JPG
break,html.Screen,4_93_1,2023-10-31T17:12:55.009Z,,0,,,NaN,,,,,,false,,,,362451.2999999523,362451.10000002384,,362450.6999999285,,362460.707,8,400,,,
break_continue,html.Screen,4_93_2,2023-10-31T17:12:55.009Z,,0,,,NaN,,,,,,false,,,,362451.89999997616,362451.6999999285,,362451.5,,362460.707,8,400,,,
sequence,flow.Sequence,4_93,2023-10-31T17:12:55.009Z,,0,,,2707.383999928483,completion,,,,,false,,,,362452.10000002384,362451.6999999285,359711.034,359728.2999999523,359744.316,362460.707,8,400,,,
trial,html.Screen,4_94_0,2023-10-31T17:12:59.684Z,,0,2,,4665.293000000005,response,ISIC_0012425.JPG,5,ISIC_0014422.JPG,ISIC_0012425.JPG,false,1,keypress(m),500,367126.39999997616,367126,362444.435,362452.2999999523,362460.707,367144.334,8,400,45,,ISIC_0014422.JPG
break,html.Screen,4_94_1,2023-10-31T17:12:59.685Z,,0,,,NaN,,,,,,false,,,,367127.60000002384,367127.2999999523,,367126.89999997616,,367144.334,8,400,,,
break_continue,html.Screen,4_94_2,2023-10-31T17:12:59.685Z,,0,,,NaN,,,,,,false,,,,367128.1999999285,367128,,367127.7999999523,,367144.334,8,400,,,
sequence,flow.Sequence,4_94,2023-10-31T17:12:59.686Z,,0,,,4667.293000000005,completion,,,,,false,,,,367128.5,367128,362444.435,362452.2999999523,362460.707,367144.334,8,400,,,
trial,html.Screen,4_95_0,2023-10-31T17:13:02.345Z,,0,2,,2643.2660000238684,response,ISIC_6618652.JPG,6,ISIC_3009877.JPG,ISIC_6618652.JPG,false,1,keypress(m),500,369787.89999997616,369787.60000002384,367127.369,367128.6999999285,367144.334,369794.157,8,400,46,,ISIC_3009877.JPG
break,html.Screen,4_95_1,2023-10-31T17:13:02.346Z,,0,,,NaN,,,,,,false,,,,369788.89999997616,369788.6999999285,,369788.2999999523,,369794.157,8,400,,,
break_continue,html.Screen,4_95_2,2023-10-31T17:13:02.347Z,,0,,,NaN,,,,,,false,,,,369789.60000002384,369789.39999997616,,369789.1999999285,,369794.157,8,400,,,
sequence,flow.Sequence,4_95,2023-10-31T17:13:02.347Z,,0,,,2645.0659999761847,completion,,,,,false,,,,369789.7999999523,369789.39999997616,367127.369,367128.60000002384,367144.334,369794.157,8,400,,,
trial,html.Screen,4_96_0,2023-10-31T17:13:05.917Z,,0,2,,3565.542999928468,response,ISIC_6378169.JPG,6,ISIC_1863917.JPG,ISIC_6378169.JPG,false,1,keypress(m),500,373360,373359.6999999285,369777.685,369790.10000002384,369794.157,373377.772,8,400,47,,ISIC_1863917.JPG
break,html.Screen,4_96_1,2023-10-31T17:13:05.918Z,,0,,,NaN,,,,,,false,,,,373361.10000002384,373360.7999999523,,373360.2999999523,,373377.772,8,400,,,
break_continue,html.Screen,4_96_2,2023-10-31T17:13:05.919Z,,0,,,NaN,,,,,,false,,,,373361.6999999285,373361.5,,373361.2999999523,,373377.772,8,400,,,
sequence,flow.Sequence,4_96,2023-10-31T17:13:05.919Z,,0,,,3567.3429999999935,completion,,,,,false,,,,373362.10000002384,373361.5,369777.685,369790.10000002384,369794.157,373377.772,8,400,,,
trial,html.Screen,4_97_0,2023-10-31T17:13:08.898Z,,0,2,,2962.8280000238447,response,ISIC_0030546.JPG,4,ISIC_6089318.JPG,ISIC_6089318.JPG,false,0,keypress(z),500,376340.7999999523,376340.60000002384,373360.736,373362.2999999523,373377.772,376344.145,8,400,48,,ISIC_0030546.JPG
break,html.Screen,4_97_1,2023-10-31T17:13:08.899Z,,0,,,NaN,,,,,,false,,,,376341.60000002384,376341.39999997616,,376341.10000002384,,376344.145,8,400,,,
break_continue,html.Screen,4_97_2,2023-10-31T17:13:08.899Z,,0,,,NaN,,,,,,false,,,,376342,376341.89999997616,,376341.6999999285,,376344.145,8,400,,,
sequence,flow.Sequence,4_97,2023-10-31T17:13:08.899Z,,0,,,2964.127999976161,completion,,,,,false,,,,376342.10000002384,376341.89999997616,373360.736,373362.1999999285,373377.772,376344.145,8,400,,,
trial,html.Screen,4_98_0,2023-10-31T17:13:11.573Z,,0,2,,2671.554999928456,response,ISIC_5537876.JPG,6,ISIC_0059846.JPG,ISIC_5537876.JPG,false,1,keypress(m),500,379015.89999997616,379015.6999999285,376327.835,376342.39999997616,376344.145,379027.761,8,400,49,,ISIC_0059846.JPG
break,html.Screen,4_98_1,2023-10-31T17:13:11.574Z,,0,,,NaN,,,,,,false,,,,379016.2999999523,379016.10000002384,,379016,,379027.761,8,400,,,
break_continue,html.Screen,4_98_2,2023-10-31T17:13:11.574Z,,0,,,NaN,,,,,,false,,,,379016.5,379016.39999997616,,379016.39999997616,,379027.761,8,400,,,
sequence,flow.Sequence,4_98,2023-10-31T17:13:11.574Z,,0,,,2672.2549999761395,completion,,,,,false,,,,379016.60000002384,379016.39999997616,376327.835,376342.1999999285,376344.145,379027.761,8,400,,,
trial,html.Screen,4_99_0,2023-10-31T17:13:14.759Z,,0,2,,3174.1389999761595,response,ISIC_3981425.JPG,5,ISIC_0007501.JPG,ISIC_0007501.JPG,false,0,keypress(z),500,382202.1999999285,382201.89999997616,379011.109,379016.6999999285,379027.761,382210.844,8,400,50,,ISIC_3981425.JPG
break,html.Screen,4_99_1,2023-10-31T17:13:24.753Z,,0,,,10000.326000000001,timeout,,,,,false,,,,392195.5,392194.432,382194.42,382202.39999997616,382210.844,392211.17,8,400,,,
break_continue,html.Screen,4_99_2,2023-10-31T17:13:59.805Z,,0,,,35028.02999992849,response,,,,,false,continue,keypress(Space),,427247.6999999285,427239.1999999285,392194.432,392195.60000002384,392211.17,427260.964,8,400,,,
sequence,flow.Sequence,4_99,2023-10-31T17:13:59.805Z,,0,,,48211.438999928476,completion,,,,,false,,,,427247.89999997616,427239.1999999285,379011.109,379016.6999999285,379027.761,427260.964,8,400,,,
trial,html.Screen,4_100_0,2023-10-31T17:14:02.560Z,,0,3,,2741.335999952338,response,ISIC_4509925.JPG,5,ISIC_0000310.JPG,ISIC_4509925.JPG,false,1,keypress(m),500,430002.39999997616,430002.2999999523,427242.974,427247.89999997616,427260.964,430010.858,8,400,1,,ISIC_0000310.JPG
break,html.Screen,4_100_1,2023-10-31T17:14:02.560Z,,0,,,NaN,,,,,,false,,,,430002.89999997616,430002.7999999523,,430002.5,,430010.858,8,400,,,
break_continue,html.Screen,4_100_2,2023-10-31T17:14:02.560Z,,0,,,NaN,,,,,,false,,,,430003.10000002384,430003,,430003,,430010.858,8,400,,,
sequence,flow.Sequence,4_100,2023-10-31T17:14:02.560Z,,0,,,2742.036000000022,completion,,,,,false,,,,430003.1999999285,430003,427242.974,427247.89999997616,427260.964,430010.858,8,400,,,
trial,html.Screen,4_101_0,2023-10-31T17:14:05.106Z,,0,3,,2537.7420000238344,response,ISIC_2844539.JPG,4,ISIC_0064344.JPG,ISIC_2844539.JPG,false,1,keypress(m),500,432548.89999997616,432548.60000002384,429994.52,430003.2999999523,430010.858,432560.9,8,400,2,,ISIC_0064344.JPG
break,html.Screen,4_101_1,2023-10-31T17:14:05.107Z,,0,,,NaN,,,,,,false,,,,432550,432549.6999999285,,432549.1999999285,,432560.9,8,400,,,
break_continue,html.Screen,4_101_2,2023-10-31T17:14:05.108Z,,0,,,NaN,,,,,,false,,,,432550.5,432550.39999997616,,432550.10000002384,,432560.9,8,400,,,
sequence,flow.Sequence,4_101,2023-10-31T17:14:05.108Z,,0,,,2539.5419999761507,completion,,,,,false,,,,432550.7999999523,432550.39999997616,429994.52,430003.2999999523,430010.858,432560.9,8,400,,,
trial,html.Screen,4_102_0,2023-10-31T17:14:07.622Z,,0,3,,2504.0999999999767,response,ISIC_7227223.JPG,5,ISIC_1216139.JPG,ISIC_7227223.JPG,false,1,keypress(m),500,435065.39999997616,435065,432544.551,432551,432560.9,435077.899,8,400,3,,ISIC_1216139.JPG
break,html.Screen,4_102_1,2023-10-31T17:14:07.623Z,,0,,,NaN,,,,,,false,,,,435066.39999997616,435066.10000002384,,435065.6999999285,,435077.899,8,400,,,
break_continue,html.Screen,4_102_2,2023-10-31T17:14:07.624Z,,0,,,NaN,,,,,,false,,,,435066.89999997616,435066.6999999285,,435066.5,,435077.899,8,400,,,
sequence,flow.Sequence,4_102,2023-10-31T17:14:07.624Z,,0,,,2505.799999928451,completion,,,,,false,,,,435067.1999999285,435066.6999999285,432544.551,432551,432560.9,435077.899,8,400,,,
trial,html.Screen,4_103_0,2023-10-31T17:14:10.155Z,,0,3,,2520.201000023866,response,ISIC_1530981.JPG,5,ISIC_9684318.JPG,ISIC_9684318.JPG,false,0,keypress(z),500,437598.1999999285,437598.10000002384,435061.089,435067.39999997616,435077.899,437610.884,8,400,4,,ISIC_1530981.JPG
break,html.Screen,4_103_1,2023-10-31T17:14:10.156Z,,0,,,NaN,,,,,,false,,,,437598.5,437598.5,,437598.1999999285,,437610.884,8,400,,,
break_continue,html.Screen,4_103_2,2023-10-31T17:14:10.156Z,,0,,,NaN,,,,,,false,,,,437598.7999999523,437598.6999999285,,437598.60000002384,,437610.884,8,400,,,
sequence,flow.Sequence,4_103,2023-10-31T17:14:10.156Z,,0,,,2520.8009999284986,completion,,,,,false,,,,437598.7999999523,437598.6999999285,435061.089,435067.2999999523,435077.899,437610.884,8,400,,,
trial,html.Screen,4_104_0,2023-10-31T17:14:12.798Z,,0,3,,2629.61599999998,response,ISIC_7973598.JPG,5,ISIC_0030469.JPG,ISIC_7973598.JPG,false,1,keypress(m),500,440240.60000002384,440240.5,437594.57,437598.7999999523,437610.884,440244.281,8,400,5,,ISIC_0030469.JPG
break,html.Screen,4_104_1,2023-10-31T17:14:12.798Z,,0,,,NaN,,,,,,false,,,,440241,440240.7999999523,,440240.6999999285,,440244.281,8,400,,,
break_continue,html.Screen,4_104_2,2023-10-31T17:14:12.798Z,,0,,,NaN,,,,,,false,,,,440241.1999999285,440241.10000002384,,440241,,440244.281,8,400,,,
sequence,flow.Sequence,4_104,2023-10-31T17:14:12.798Z,,0,,,2630.216000023822,completion,,,,,false,,,,440241.2999999523,440241.10000002384,437594.57,437598.7999999523,437610.884,440244.281,8,400,,,
trial,html.Screen,4_105_0,2023-10-31T17:14:15.791Z,,0,3,,2989.918999928457,response,ISIC_0031202.JPG,5,ISIC_0031752.JPG,ISIC_0031752.JPG,false,0,keypress(z),500,443234.39999997616,443234.1999999285,440227.862,440241.2999999523,440244.281,443244.459,8,400,6,,ISIC_0031202.JPG
break,html.Screen,4_105_1,2023-10-31T17:14:15.792Z,,0,,,NaN,,,,,,false,,,,443234.6999999285,443234.60000002384,,443234.39999997616,,443244.459,8,400,,,
break_continue,html.Screen,4_105_2,2023-10-31T17:14:15.792Z,,0,,,NaN,,,,,,false,,,,443234.89999997616,443234.7999999523,,443234.7999999523,,443244.459,8,400,,,
sequence,flow.Sequence,4_105,2023-10-31T17:14:15.792Z,,0,,,2990.518999952299,completion,,,,,false,,,,443235,443234.7999999523,440227.862,440241.2999999523,440244.281,443244.459,8,400,,,
trial,html.Screen,4_106_0,2023-10-31T17:14:18.530Z,,0,3,,2727.6410000238684,response,ISIC_2096695.JPG,5,ISIC_0066492.JPG,ISIC_2096695.JPG,false,1,keypress(m),500,445972.39999997616,445972.10000002384,443227.647,443235,443244.459,445977.624,8,400,7,,ISIC_0066492.JPG
break,html.Screen,4_106_1,2023-10-31T17:14:18.531Z,,0,,,NaN,,,,,,false,,,,445973.5,445973.1999999285,,445972.7999999523,,445977.624,8,400,,,
break_continue,html.Screen,4_106_2,2023-10-31T17:14:18.531Z,,0,,,NaN,,,,,,false,,,,445974.10000002384,445973.89999997616,,445973.60000002384,,445977.624,8,400,,,
sequence,flow.Sequence,4_106,2023-10-31T17:14:18.534Z,,0,,,2729.4409999761847,completion,,,,,false,,,,445976.60000002384,445973.89999997616,443227.647,443235,443244.459,445977.624,8,400,,,
trial,html.Screen,4_107_0,2023-10-31T17:14:21.082Z,,0,3,,2546.476000023831,response,ISIC_0000305.JPG,5,ISIC_9244047.JPG,ISIC_9244047.JPG,false,0,keypress(z),500,448524.39999997616,448524.10000002384,445961.221,445976.89999997616,445977.624,448527.634,8,400,8,,ISIC_0000305.JPG
break,html.Screen,4_107_1,2023-10-31T17:14:21.083Z,,0,,,NaN,,,,,,false,,,,448525.5,448525.2999999523,,448524.7999999523,,448527.634,8,400,,,
break_continue,html.Screen,4_107_2,2023-10-31T17:14:21.083Z,,0,,,NaN,,,,,,false,,,,448526.10000002384,448525.7999999523,,448525.6999999285,,448527.634,8,400,,,
sequence,flow.Sequence,4_107,2023-10-31T17:14:21.083Z,,0,,,2548.1759999523056,completion,,,,,false,,,,448526.2999999523,448525.7999999523,445961.221,445976.89999997616,445977.624,448527.634,8,400,,,
trial,html.Screen,4_108_0,2023-10-31T17:14:24.574Z,,0,3,,3488.765999976138,response,ISIC_1870309.JPG,4,ISIC_9668514.JPG,ISIC_9668514.JPG,false,0,keypress(z),500,452016.5,452016.39999997616,448511.179,448526.5,448527.634,452027.646,8,400,9,,ISIC_1870309.JPG
break,html.Screen,4_108_1,2023-10-31T17:14:24.574Z,,0,,,NaN,,,,,,false,,,,452016.89999997616,452016.6999999285,,452016.60000002384,,452027.646,8,400,,,
break_continue,html.Screen,4_108_2,2023-10-31T17:14:24.574Z,,0,,,NaN,,,,,,false,,,,452017.10000002384,452016.89999997616,,452016.89999997616,,452027.646,8,400,,,
sequence,flow.Sequence,4_108,2023-10-31T17:14:24.574Z,,0,,,3489.265999976138,completion,,,,,false,,,,452017.10000002384,452016.89999997616,448511.179,448526.5,448527.634,452027.646,8,400,,,
trial,html.Screen,4_109_0,2023-10-31T17:14:27.360Z,,0,3,,2774.6539999523084,response,ISIC_0025215.JPG,5,ISIC_8953848.JPG,ISIC_0025215.JPG,false,1,keypress(m),500,454802.6999999285,454802.2999999523,452010.919,452017.10000002384,452027.646,454810.921,8,400,10,,ISIC_8953848.JPG
break,html.Screen,4_109_1,2023-10-31T17:14:27.361Z,,0,,,NaN,,,,,,false,,,,454803.6999999285,454803.39999997616,,454803,,454810.921,8,400,,,
break_continue,html.Screen,4_109_2,2023-10-31T17:14:27.361Z,,0,,,NaN,,,,,,false,,,,454804.1999999285,454804.10000002384,,454803.89999997616,,454810.921,8,400,,,
sequence,flow.Sequence,4_109,2023-10-31T17:14:27.362Z,,0,,,2776.454000023834,completion,,,,,false,,,,454804.5,454804.10000002384,452010.919,452017.10000002384,452027.646,454810.921,8,400,,,
trial,html.Screen,4_110_0,2023-10-31T17:14:29.972Z,,0,3,,2603.7789999285014,response,ISIC_0024853.JPG,5,ISIC_9719936.JPG,ISIC_9719936.JPG,false,0,keypress(z),500,457414.89999997616,457414.6999999285,454794.351,454804.6999999285,454810.921,457427.889,8,400,11,,ISIC_0024853.JPG
break,html.Screen,4_110_1,2023-10-31T17:14:29.973Z,,0,,,NaN,,,,,,false,,,,457415.89999997616,457415.6999999285,,457415.1999999285,,457427.889,8,400,,,
break_continue,html.Screen,4_110_2,2023-10-31T17:14:29.974Z,,0,,,NaN,,,,,,false,,,,457416.5,457416.1999999285,,457416.10000002384,,457427.889,8,400,,,
sequence,flow.Sequence,4_110,2023-10-31T17:14:29.974Z,,0,,,2605.2789999285014,completion,,,,,false,,,,457416.6999999285,457416.1999999285,454794.351,454804.6999999285,454810.921,457427.889,8,400,,,
trial,html.Screen,4_111_0,2023-10-31T17:14:33.608Z,,0,3,,3622.4109999522916,response,ISIC_0028405.JPG,5,ISIC_1514401.JPG,ISIC_1514401.JPG,false,0,keypress(z),500,461050.39999997616,461050.2999999523,457411.258,457416.89999997616,457427.889,461061.229,8,400,12,,ISIC_0028405.JPG
break,html.Screen,4_111_1,2023-10-31T17:14:33.608Z,,0,,,NaN,,,,,,false,,,,461050.7999999523,461050.60000002384,,461050.60000002384,,461061.229,8,400,,,
break_continue,html.Screen,4_111_2,2023-10-31T17:14:33.608Z,,0,,,NaN,,,,,,false,,,,461050.89999997616,461050.89999997616,,461050.7999999523,,461061.229,8,400,,,
sequence,flow.Sequence,4_111,2023-10-31T17:14:33.608Z,,0,,,3623.0109999761335,completion,,,,,false,,,,461051,461050.89999997616,457411.258,457416.7999999523,457427.889,461061.229,8,400,,,
trial,html.Screen,4_112_0,2023-10-31T17:14:36.265Z,,0,3,,2646.87100002385,response,ISIC_0059836.JPG,5,ISIC_0069330.JPG,ISIC_0059836.JPG,false,1,keypress(m),500,463708.1999999285,463708.10000002384,461044.581,461051.10000002384,461061.229,463710.935,8,400,13,,ISIC_0069330.JPG
break,html.Screen,4_112_1,2023-10-31T17:14:36.266Z,,0,,,NaN,,,,,,false,,,,463708.60000002384,463708.5,,463708.39999997616,,463710.935,8,400,,,
break_continue,html.Screen,4_112_2,2023-10-31T17:14:36.266Z,,0,,,NaN,,,,,,false,,,,463708.7999999523,463708.6999999285,,463708.6999999285,,463710.935,8,400,,,
sequence,flow.Sequence,4_112,2023-10-31T17:14:36.266Z,,0,,,2647.4709999284823,completion,,,,,false,,,,463708.89999997616,463708.6999999285,461044.581,461051.10000002384,461061.229,463710.935,8,400,,,
trial,html.Screen,4_113_0,2023-10-31T17:14:39.211Z,,0,3,,2942.7649999284768,response,ISIC_1026382.JPG,5,ISIC_0026545.JPG,ISIC_1026382.JPG,false,1,keypress(m),500,466654,466653.6999999285,463694.501,463708.89999997616,463710.935,466660.933,8,400,14,,ISIC_0026545.JPG
break,html.Screen,4_113_1,2023-10-31T17:14:39.212Z,,0,,,NaN,,,,,,false,,,,466655,466654.7999999523,,466654.2999999523,,466660.933,8,400,,,
break_continue,html.Screen,4_113_2,2023-10-31T17:14:39.213Z,,0,,,NaN,,,,,,false,,,,466655.60000002384,466655.39999997616,,466655.1999999285,,466660.933,8,400,,,
sequence,flow.Sequence,4_113,2023-10-31T17:14:39.213Z,,0,,,2944.4649999761605,completion,,,,,false,,,,466655.89999997616,466655.39999997616,463694.501,463708.89999997616,463710.935,466660.933,8,400,,,
trial,html.Screen,4_114_0,2023-10-31T17:14:50.703Z,,0,3,,11500.684999952326,timeout,ISIC_0012681.JPG,5,ISIC_0025653.JPG,ISIC_0012681.JPG,false,,,500,478145.60000002384,478145.2999999523,466644.615,466656.10000002384,466660.933,,8,400,15,,ISIC_0025653.JPG
break,html.Screen,4_114_1,2023-10-31T17:14:50.704Z,,0,,,NaN,,,,,,false,,,,478146.60000002384,478146.39999997616,,478146,,478177.716,8,400,,,
break_continue,html.Screen,4_114_2,2023-10-31T17:14:50.704Z,,0,,,NaN,,,,,,false,,,,478147.1999999285,478147,,478146.7999999523,,478177.716,8,400,,,
sequence,flow.Sequence,4_114,2023-10-31T17:14:50.705Z,,0,,,11486.06699999998,completion,,,,,false,,,,478147.5,478147,466644.615,466656,466660.933,478177.716,8,400,,,
trial,html.Screen,4_114_0,2023-10-31T17:14:50.724Z,,0,3,,11505.466999976139,response,ISIC_0012681.JPG,5,ISIC_0025653.JPG,ISIC_0012681.JPG,false,1,keypress(m),500,478166.60000002384,478166.39999997616,466644.615,466656.10000002384,466660.933,478177.716,8,400,15,,ISIC_0025653.JPG
trial,html.Screen,4_115_0,2023-10-31T17:14:53.426Z,,0,3,,2691.5839999523014,response,ISIC_3212050.JPG,5,ISIC_0010546.JPG,ISIC_3212050.JPG,false,1,keypress(m),500,480869.39999997616,480869.2999999523,478161.277,478147.6999999285,478177.716,480877.936,8,400,16,,ISIC_0010546.JPG
break,html.Screen,4_115_1,2023-10-31T17:14:53.427Z,,0,,,NaN,,,,,,false,,,,480869.6999999285,480869.60000002384,,480869.39999997616,,480877.936,8,400,,,
break_continue,html.Screen,4_115_2,2023-10-31T17:14:53.427Z,,0,,,NaN,,,,,,false,,,,480869.89999997616,480869.89999997616,,480869.6999999285,,480877.936,8,400,,,
sequence,flow.Sequence,4_115,2023-10-31T17:14:53.427Z,,0,,,2692.1839999761432,completion,,,,,false,,,,480870,480869.89999997616,478161.277,478147.60000002384,478177.716,480877.936,8,400,,,
trial,html.Screen,4_116_0,2023-10-31T17:14:56.005Z,,0,3,,2569.7639999284875,response,ISIC_9106601.JPG,6,ISIC_3985782.JPG,ISIC_3985782.JPG,false,0,keypress(z),500,483447.7999999523,483447.6999999285,480861.186,480870.10000002384,480877.936,483461.272,8,400,17,,ISIC_9106601.JPG
break,html.Screen,4_116_1,2023-10-31T17:14:56.005Z,,0,,,NaN,,,,,,false,,,,483448.1999999285,483448.10000002384,,483448,,483461.272,8,400,,,
break_continue,html.Screen,4_116_2,2023-10-31T17:14:56.006Z,,0,,,NaN,,,,,,false,,,,483448.39999997616,483448.2999999523,,483448.2999999523,,483461.272,8,400,,,
sequence,flow.Sequence,4_116,2023-10-31T17:14:56.006Z,,0,,,2570.3639999523293,completion,,,,,false,,,,483448.5,483448.2999999523,480861.186,480870,480877.936,483461.272,8,400,,,
trial,html.Screen,4_117_0,2023-10-31T17:14:59.063Z,,0,3,,3044.228000000003,response,ISIC_8008242.JPG,5,ISIC_3067522.JPG,ISIC_3067522.JPG,false,0,keypress(z),500,486505.7999999523,486505.5,483444.391,483448.60000002384,483461.272,486510.98,8,400,18,,ISIC_8008242.JPG
break,html.Screen,4_117_1,2023-10-31T17:14:59.064Z,,0,,,NaN,,,,,,false,,,,486506.7999999523,486506.5,,486506.10000002384,,486510.98,8,400,,,
break_continue,html.Screen,4_117_2,2023-10-31T17:14:59.064Z,,0,,,NaN,,,,,,false,,,,486507.39999997616,486507.10000002384,,486507,,486510.98,8,400,,,
sequence,flow.Sequence,4_117,2023-10-31T17:14:59.065Z,,0,,,3045.8280000238447,completion,,,,,false,,,,486507.6999999285,486507.10000002384,483444.391,483448.60000002384,483461.272,486510.98,8,400,,,
trial,html.Screen,4_118_0,2023-10-31T17:15:02.061Z,,0,3,,2992.0200000000186,response,ISIC_5771106.JPG,6,ISIC_0011247.JPG,ISIC_5771106.JPG,false,1,keypress(m),500,489503.10000002384,489503,486494.616,486507.89999997616,486510.98,489510.982,8,400,19,,ISIC_0011247.JPG
break,html.Screen,4_118_1,2023-10-31T17:15:02.061Z,,0,,,NaN,,,,,,false,,,,489503.39999997616,489503.39999997616,,489503.1999999285,,489510.982,8,400,,,
break_continue,html.Screen,4_118_2,2023-10-31T17:15:02.061Z,,0,,,NaN,,,,,,false,,,,489503.6999999285,489503.60000002384,,489503.5,,489510.982,8,400,,,
sequence,flow.Sequence,4_118,2023-10-31T17:15:02.061Z,,0,,,2992.6200000238605,completion,,,,,false,,,,489503.7999999523,489503.60000002384,486494.616,486507.7999999523,486510.98,489510.982,8,400,,,
trial,html.Screen,4_119_0,2023-10-31T17:15:04.542Z,,0,3,,2473.6180000238237,response,ISIC_0061581.JPG,5,ISIC_0011684.JPG,ISIC_0061581.JPG,false,1,keypress(m),500,491985,491984.60000002384,489494.659,489503.7999999523,489510.982,491994.335,8,400,20,,ISIC_0011684.JPG
break,html.Screen,4_119_1,2023-10-31T17:15:04.544Z,,0,,,NaN,,,,,,false,,,,491986,491985.7999999523,,491985.1999999285,,491994.335,8,400,,,
break_continue,html.Screen,4_119_2,2023-10-31T17:15:04.544Z,,0,,,NaN,,,,,,false,,,,491986.5,491986.2999999523,,491986.1999999285,,491994.335,8,400,,,
sequence,flow.Sequence,4_119,2023-10-31T17:15:04.544Z,,0,,,2475.317999952298,completion,,,,,false,,,,491986.89999997616,491986.2999999523,489494.659,489503.7999999523,489510.982,491994.335,8,400,,,
trial,html.Screen,4_120_0,2023-10-31T17:15:07.171Z,,0,3,,2619.164999999979,response,ISIC_9934037.JPG,6,ISIC_0772836.JPG,ISIC_0772836.JPG,false,0,keypress(z),500,494613.7999999523,494613.5,491977.88,491987.10000002384,491994.335,494627.963,8,400,21,,ISIC_9934037.JPG
break,html.Screen,4_120_1,2023-10-31T17:15:07.172Z,,0,,,NaN,,,,,,false,,,,494614.39999997616,494614.1999999285,,494613.89999997616,,494627.963,8,400,,,
break_continue,html.Screen,4_120_2,2023-10-31T17:15:07.172Z,,0,,,NaN,,,,,,false,,,,494614.6999999285,494614.60000002384,,494614.5,,494627.963,8,400,,,
sequence,flow.Sequence,4_120,2023-10-31T17:15:07.172Z,,0,,,2620.265000023821,completion,,,,,false,,,,494614.89999997616,494614.60000002384,491977.88,491987,491994.335,494627.963,8,400,,,
trial,html.Screen,4_121_0,2023-10-31T17:15:10.551Z,,0,3,,3364.7369999284856,response,ISIC_0030597.JPG,5,ISIC_0011349.JPG,ISIC_0030597.JPG,false,1,keypress(m),500,497993,497992.6999999285,494611.257,494615.10000002384,494627.963,498011.462,8,400,22,,ISIC_0011349.JPG
break,html.Screen,4_121_1,2023-10-31T17:15:10.552Z,,0,,,NaN,,,,,,false,,,,497994.10000002384,497993.7999999523,,497993.2999999523,,498011.462,8,400,,,
break_continue,html.Screen,4_121_2,2023-10-31T17:15:10.552Z,,0,,,NaN,,,,,,false,,,,497994.60000002384,497994.39999997616,,497994.1999999285,,498011.462,8,400,,,
sequence,flow.Sequence,4_121,2023-10-31T17:15:10.552Z,,0,,,3366.4369999761693,completion,,,,,false,,,,497994.7999999523,497994.39999997616,494611.257,494615,494627.963,498011.462,8,400,,,
trial,html.Screen,4_122_0,2023-10-31T17:15:13.723Z,,0,3,,3153.737999928475,response,ISIC_0011315.JPG,4,ISIC_0010411.JPG,ISIC_0011315.JPG,false,1,keypress(m),500,501165.60000002384,501165.1999999285,497977.709,497995.10000002384,498011.462,501177.675,8,400,23,,ISIC_0010411.JPG
break,html.Screen,4_122_1,2023-10-31T17:15:13.724Z,,0,,,NaN,,,,,,false,,,,501166.60000002384,501166.2999999523,,501165.7999999523,,501177.675,8,400,,,
break_continue,html.Screen,4_122_2,2023-10-31T17:15:13.725Z,,0,,,NaN,,,,,,false,,,,501167.2999999523,501166.89999997616,,501166.6999999285,,501177.675,8,400,,,
sequence,flow.Sequence,4_122,2023-10-31T17:15:13.725Z,,0,,,3155.4379999761586,completion,,,,,false,,,,501167.60000002384,501166.89999997616,497977.709,497995,498011.462,501177.675,8,400,,,
trial,html.Screen,4_123_0,2023-10-31T17:15:16.210Z,,0,3,,2474.124999952328,response,ISIC_8378321.JPG,6,ISIC_0046429.JPG,ISIC_8378321.JPG,false,1,keypress(m),500,503652.10000002384,503651.7999999523,501161.421,501167.7999999523,501177.675,503661.053,8,400,24,,ISIC_0046429.JPG
break,html.Screen,4_123_1,2023-10-31T17:15:16.211Z,,0,,,NaN,,,,,,false,,,,503653.1999999285,503653,,503652.5,,503661.053,8,400,,,
break_continue,html.Screen,4_123_2,2023-10-31T17:15:16.211Z,,0,,,NaN,,,,,,false,,,,503653.89999997616,503653.6999999285,,503653.5,,503661.053,8,400,,,
sequence,flow.Sequence,4_123,2023-10-31T17:15:16.212Z,,0,,,2476.024999928486,completion,,,,,false,,,,503654.1999999285,503653.6999999285,501161.421,501167.6999999285,501177.675,503661.053,8,400,,,
trial,html.Screen,4_124_0,2023-10-31T17:15:18.872Z,,0,3,,2653.746999952302,response,ISIC_9155028.JPG,4,ISIC_1956354.JPG,ISIC_1956354.JPG,false,0,keypress(z),500,506314.89999997616,506314.7999999523,503644.681,503654.39999997616,503661.053,506327.66,8,400,25,,ISIC_9155028.JPG
break,html.Screen,4_124_1,2023-10-31T17:15:18.873Z,,0,,,NaN,,,,,,false,,,,506315.1999999285,506315.10000002384,,506315,,506327.66,8,400,,,
break_continue,html.Screen,4_124_2,2023-10-31T17:15:18.873Z,,0,,,NaN,,,,,,false,,,,506315.5,506315.39999997616,,506315.39999997616,,506327.66,8,400,,,
sequence,flow.Sequence,4_124,2023-10-31T17:15:18.873Z,,0,,,2654.3469999761437,completion,,,,,false,,,,506315.60000002384,506315.39999997616,503644.681,503654.39999997616,503661.053,506327.66,8,400,,,
trial,html.Screen,4_125_0,2023-10-31T17:15:21.435Z,,0,3,,2549.2399999761838,response,ISIC_0001152.JPG,5,ISIC_0804420.JPG,ISIC_0804420.JPG,false,0,keypress(z),500,508877.10000002384,508876.89999997616,506311.346,506315.60000002384,506327.66,508894.632,8,400,26,,ISIC_0001152.JPG
