sender,sender_type,sender_id,timestamp,meta,,blockNo,condition,duration,ended_on,img_left,img_reveal,img_right,loser,practice,response,response_action,selection_duration,time_commit,time_end,time_render,time_run,time_show,time_switch,total_blocks,total_trials,trialNo,url,winner
informed_consent,html.Screen,0,2023-10-30T21:54:46.190Z,"{""labjs_version"":""20.2.4"",""labjs_build"":{""flavor"":""production"",""commit"":""f5b4a49f956347addd546a832a3327688c2c0fef""},""location"":""https://run.pavlovia.org/MurrayBennett/melanoma-2afc/?participant=66750&platform=sona"",""userAgent"":""Mozilla/5.0 (Windows NT 10.0; Win64; x64) AppleWebKit/537.36 (KHTML, like Gecko) Chrome/118.0.0.0 Safari/537.36 Edg/118.0.2088.61"",""platform"":""Win32"",""language"":""en-US"",""locale"":""en-US"",""timeZone"":""America/Chicago"",""timezoneOffset"":300,""screen_width"":1536,""screen_height"":864,""scroll_width"":1528,""scroll_height"":694,""window_innerWidth"":1528,""window_innerHeight"":742,""devicePixelRatio"":1.25}",,,,6111.271999976158,response,,,,,,consent,click button,,6617,6614.399999976158,269.745,507.0999999642372,503.128,6620.035,,,,"{""participant"":""66750"",""platform"":""sona""}",
Welcome,html.Screen,1,2023-10-30T21:54:47.065Z,,,,regular,869.7650000119211,response,,,,,,continue,click button,,7491.399999976158,7489.800000011921,6603.403,6617.399999976158,6620.035,7503.248,,,,,
trial,html.Screen,2_0_0,2023-10-30T21:54:52.831Z,,0,0,,5754.252,response,ISIC_0061792.JPG,,ISIC_4679428.JPG,ISIC_4679428.JPG,true,0,keypress(z),500,13257.800000011921,13257.5,7486.708,7492,7503.248,13270.079,1,6,1,,ISIC_0061792.JPG
sequence,flow.Sequence,2_0,2023-10-30T21:54:52.831Z,,0,,,5754.252,completion,,,,,true,,,,13258.199999988079,13257.5,7486.708,7492,7503.248,13270.079,1,6,,,
trial,html.Screen,2_1_0,2023-10-30T21:54:58.631Z,,0,0,,5787.421,response,ISIC_0776486.JPG,,ISIC_5199497.JPG,ISIC_0776486.JPG,true,1,keypress(m),500,19057.69999998808,19057.5,13253.224,13258.300000011921,13270.079,19069.907,1,6,2,,ISIC_5199497.JPG
sequence,flow.Sequence,2_1,2023-10-30T21:54:58.631Z,,0,,,5787.421,completion,,,,,true,,,,19058,19057.5,13253.224,13258.300000011921,13270.079,19069.907,1,6,,,
trial,html.Screen,2_2_0,2023-10-30T21:55:05.181Z,,0,0,,6537.192999964238,response,ISIC_8575776.JPG,,ISIC_2556187.JPG,ISIC_2556187.JPG,true,0,keypress(z),500,25607.30000001192,25607.099999964237,19053.968,19058.19999998808,19069.907,25619.802,1,6,3,,ISIC_8575776.JPG
sequence,flow.Sequence,2_2,2023-10-30T21:55:05.181Z,,0,,,6537.192999964238,completion,,,,,true,,,,25607.599999964237,25607.099999964237,19053.968,19058.099999964237,19069.907,25619.802,1,6,,,
trial,html.Screen,2_3_0,2023-10-30T21:55:08.691Z,,0,0,,3497.4980000119212,response,ISIC_8141769.JPG,,ISIC_9238366.JPG,ISIC_8141769.JPG,true,1,keypress(m),500,29117.599999964237,29117.30000001192,25603.58,25607.80000001192,25619.802,29119.806,1,6,4,,ISIC_9238366.JPG
sequence,flow.Sequence,2_3,2023-10-30T21:55:08.691Z,,0,,,3497.4980000119212,completion,,,,,true,,,,29117.899999976158,29117.30000001192,25603.58,25607.69999998808,25619.802,29119.806,1,6,,,
trial,html.Screen,2_4_0,2023-10-30T21:55:16.296Z,,0,0,,7602.593999976158,response,ISIC_8949026.JPG,,ISIC_9959593.JPG,ISIC_9959593.JPG,true,0,keypress(z),500,36722.80000001192,36722.39999997616,29103.393,29118,29119.806,36736.691,1,6,5,,ISIC_8949026.JPG
sequence,flow.Sequence,2_4,2023-10-30T21:55:16.297Z,,0,,,7602.593999976158,completion,,,,,true,,,,36723.19999998808,36722.39999997616,29103.393,29117.899999976158,29119.806,36736.691,1,6,,,
trial,html.Screen,2_5_0,2023-10-30T21:55:22.750Z,,0,0,,6439.809000000001,response,ISIC_0010479.JPG,,ISIC_0460240.JPG,ISIC_0010479.JPG,true,1,keypress(m),500,43176.80000001192,43176.5,36719.988,36723.30000001192,36736.691,43186.506,1,6,6,,ISIC_0460240.JPG
sequence,flow.Sequence,2_5,2023-10-30T21:55:22.750Z,,0,,,6439.809000000001,completion,,,,,true,,,,43177.09999996424,43176.5,36719.988,36723.30000001192,36736.691,43186.506,1,6,,,
loop,flow.Loop,2,2023-10-30T21:55:22.751Z,,,,,35673.252,completion,,,,,true,,,,43177.19999998808,43176.5,7486.708,7491.800000011921,7503.248,43186.506,1,6,,,
exp_instructions,html.Screen,3,2023-10-30T21:55:29.453Z,,,,,6691.893999976157,response,,,,,,continue,keypress(Space),,49879.30000001192,49878.39999997616,43169.921,43177.39999997616,43186.506,49886.688,,,,,
trial,html.Screen,4_0_0,2023-10-30T21:55:33.410Z,,0,1,,3949.511999988077,response,ISIC_8796456.JPG,4,ISIC_4903988.JPG,ISIC_8796456.JPG,false,1,keypress(m),500,53836.5,53836.19999998808,49871.449,49879.39999997616,49886.688,53853.33,8,400,1,,ISIC_4903988.JPG
break,html.Screen,4_0_1,2023-10-30T21:55:33.411Z,,0,,,NaN,,,,,,false,,,,53837.69999998808,53837.39999997616,,53836.69999998808,,53853.33,8,400,,,
break_continue,html.Screen,4_0_2,2023-10-30T21:55:33.411Z,,0,,,NaN,,,,,,false,,,,53838.09999996424,53838,,53837.89999997616,,53853.33,8,400,,,
sequence,flow.Sequence,4_0,2023-10-30T21:55:33.412Z,,0,,,3951.311999999998,completion,,,,,false,,,,53838.19999998808,53838,49871.449,49879.39999997616,49886.688,53853.33,8,400,,,
trial,html.Screen,4_1_0,2023-10-30T21:55:38.539Z,,0,1,,5111.869999988077,response,ISIC_0061336.JPG,15,ISIC_4393704.JPG,ISIC_4393704.JPG,false,0,keypress(z),500,58965.39999997616,58965.19999998808,53820.696,53838.30000001192,53853.33,58970.455,8,400,2,,ISIC_0061336.JPG
break,html.Screen,4_1_1,2023-10-30T21:55:38.540Z,,0,,,NaN,,,,,,false,,,,58966.39999997616,58966,,58965.5,,58970.455,8,400,,,
break_continue,html.Screen,4_1_2,2023-10-30T21:55:38.540Z,,0,,,NaN,,,,,,false,,,,58966.69999998808,58966.69999998808,,58966.59999996424,,58970.455,8,400,,,
sequence,flow.Sequence,4_1,2023-10-30T21:55:38.540Z,,0,,,5113.369999988077,completion,,,,,false,,,,58966.89999997616,58966.69999998808,53820.696,53838.30000001192,53853.33,58970.455,8,400,,,
trial,html.Screen,4_2_0,2023-10-30T21:55:42.368Z,,0,1,,3823.2449999880773,response,ISIC_0071118.JPG,5,ISIC_0012263.JPG,ISIC_0012263.JPG,false,0,keypress(z),500,62794,62793.69999998808,58953.344,58967,58970.455,62803.208,8,400,3,,ISIC_0071118.JPG
break,html.Screen,4_2_1,2023-10-30T21:55:42.369Z,,0,,,NaN,,,,,,false,,,,62795.09999996424,62794.80000001192,,62794.19999998808,,62803.208,8,400,,,
break_continue,html.Screen,4_2_2,2023-10-30T21:55:42.369Z,,0,,,NaN,,,,,,false,,,,62795.39999997616,62795.19999998808,,62795.19999998808,,62803.208,8,400,,,
sequence,flow.Sequence,4_2,2023-10-30T21:55:42.369Z,,0,,,3824.7449999880773,completion,,,,,false,,,,62795.5,62795.19999998808,58953.344,58967,58970.455,62803.208,8,400,,,
trial,html.Screen,4_3_0,2023-10-30T21:55:50.410Z,,0,1,,8032.792000000001,response,ISIC_5275138.JPG,23,ISIC_0013801.JPG,ISIC_0013801.JPG,false,0,keypress(z),500,70836.19999998808,70836,62786.578,62795.59999996424,62803.208,70870.019,8,400,4,,ISIC_5275138.JPG
break,html.Screen,4_3_1,2023-10-30T21:55:50.411Z,,0,,,NaN,,,,,,false,,,,70837.39999997616,70836.89999997616,,70836.5,,70870.019,8,400,,,
break_continue,html.Screen,4_3_2,2023-10-30T21:55:50.411Z,,0,,,NaN,,,,,,false,,,,70837.69999998808,70837.59999996424,,70837.5,,70870.019,8,400,,,
sequence,flow.Sequence,4_3,2023-10-30T21:55:50.411Z,,0,,,8034.3919999642385,completion,,,,,false,,,,70837.80000001192,70837.59999996424,62786.578,62795.59999996424,62803.208,70870.019,8,400,,,
trial,html.Screen,4_4_0,2023-10-30T21:55:57.521Z,,0,1,,7076.880999976158,response,ISIC_0033157.JPG,12,ISIC_5204408.JPG,ISIC_5204408.JPG,false,0,keypress(z),500,77947.19999998808,77946.89999997616,70853.238,70838.69999998808,70870.019,77953.623,8,400,5,,ISIC_0033157.JPG
break,html.Screen,4_4_1,2023-10-30T21:55:57.522Z,,0,,,NaN,,,,,,false,,,,77948.30000001192,77948,,77947.39999997616,,77953.623,8,400,,,
break_continue,html.Screen,4_4_2,2023-10-30T21:55:57.522Z,,0,,,NaN,,,,,,false,,,,77948.59999996424,77948.5,,77948.30000001192,,77953.623,8,400,,,
sequence,flow.Sequence,4_4,2023-10-30T21:55:57.522Z,,0,,,7078.481,completion,,,,,false,,,,77948.69999998808,77948.5,70853.238,70838.69999998808,70870.019,77953.623,8,400,,,
trial,html.Screen,4_5_0,2023-10-30T21:56:00.362Z,,0,1,,2834.177000011914,response,ISIC_6451703.JPG,6,ISIC_4286715.JPG,ISIC_4286715.JPG,false,0,keypress(z),500,80788,80787.80000001192,77937.171,77948.69999998808,77953.623,80820.307,8,400,6,,ISIC_6451703.JPG
break,html.Screen,4_5_1,2023-10-30T21:56:00.362Z,,0,,,NaN,,,,,,false,,,,80788.69999998808,80788.5,,80788.30000001192,,80820.307,8,400,,,
break_continue,html.Screen,4_5_2,2023-10-30T21:56:00.363Z,,0,,,NaN,,,,,,false,,,,80789,80788.89999997616,,80788.69999998808,,80820.307,8,400,,,
sequence,flow.Sequence,4_5,2023-10-30T21:56:00.363Z,,0,,,2835.2769999761513,completion,,,,,false,,,,80789.09999996424,80788.89999997616,77937.171,77948.69999998808,77953.623,80820.307,8,400,,,
trial,html.Screen,4_6_0,2023-10-30T21:56:03.535Z,,0,1,,3140.5929999761574,response,ISIC_3256887.JPG,5,ISIC_0030437.JPG,ISIC_3256887.JPG,false,1,keypress(m),500,83961,83960.89999997616,80803.51,80789.39999997616,80820.307,83969.987,8,400,7,,ISIC_0030437.JPG
break,html.Screen,4_6_1,2023-10-30T21:56:03.536Z,,0,,,NaN,,,,,,false,,,,83962.09999996424,83961.80000001192,,83961.19999998808,,83969.987,8,400,,,
break_continue,html.Screen,4_6_2,2023-10-30T21:56:03.536Z,,0,,,NaN,,,,,,false,,,,83962.5,83962.39999997616,,83962.30000001192,,83969.987,8,400,,,
sequence,flow.Sequence,4_6,2023-10-30T21:56:03.536Z,,0,,,3142.0929999761574,completion,,,,,false,,,,83962.59999996424,83962.39999997616,80803.51,80789.09999996424,80820.307,83969.987,8,400,,,
trial,html.Screen,4_7_0,2023-10-30T21:56:06.837Z,,0,1,,3293.0130000000063,response,ISIC_0001100.JPG,10,ISIC_4023381.JPG,ISIC_0001100.JPG,false,1,keypress(m),500,87263.39999997616,87263,83953.675,83962.59999996424,83969.987,87269.904,8,400,8,,ISIC_4023381.JPG
break,html.Screen,4_7_1,2023-10-30T21:56:06.838Z,,0,,,NaN,,,,,,false,,,,87264.5,87264.09999996424,,87263.59999996424,,87269.904,8,400,,,
break_continue,html.Screen,4_7_2,2023-10-30T21:56:06.838Z,,0,,,NaN,,,,,,false,,,,87264.80000001192,87264.69999998808,,87264.59999996424,,87269.904,8,400,,,
sequence,flow.Sequence,4_7,2023-10-30T21:56:06.839Z,,0,,,3294.7129999880854,completion,,,,,false,,,,87264.89999997616,87264.69999998808,83953.675,83962.59999996424,83969.987,87269.904,8,400,,,
trial,html.Screen,4_8_0,2023-10-30T21:56:11.133Z,,0,1,,4289.495999976163,response,ISIC_0067172.JPG,9,ISIC_0032722.JPG,ISIC_0067172.JPG,false,1,keypress(m),500,91559.59999996424,91559.39999997616,87253.121,87265,87269.904,91570.126,8,400,9,,ISIC_0032722.JPG
break,html.Screen,4_8_1,2023-10-30T21:56:11.134Z,,0,,,NaN,,,,,,false,,,,91560.59999996424,91560.19999998808,,91559.80000001192,,91570.126,8,400,,,
break_continue,html.Screen,4_8_2,2023-10-30T21:56:11.135Z,,0,,,NaN,,,,,,false,,,,91561,91560.89999997616,,91560.69999998808,,91570.126,8,400,,,
sequence,flow.Sequence,4_8,2023-10-30T21:56:11.135Z,,0,,,4290.995999976163,completion,,,,,false,,,,91561.09999996424,91560.89999997616,87253.121,87265,87269.904,91570.126,8,400,,,
trial,html.Screen,4_9_0,2023-10-30T21:56:15.694Z,,0,1,,4550.473999964233,response,ISIC_0024656.JPG,7,ISIC_2057184.JPG,ISIC_0024656.JPG,false,1,keypress(m),500,96120.80000001192,96120.59999996424,91553.739,91561.19999998808,91570.126,96136.629,8,400,10,,ISIC_2057184.JPG
break,html.Screen,4_9_1,2023-10-30T21:56:15.695Z,,0,,,NaN,,,,,,false,,,,96121.30000001192,96121.09999996424,,96120.89999997616,,96136.629,8,400,,,
break_continue,html.Screen,4_9_2,2023-10-30T21:56:15.695Z,,0,,,NaN,,,,,,false,,,,96121.5,96121.39999997616,,96121.30000001192,,96136.629,8,400,,,
sequence,flow.Sequence,4_9,2023-10-30T21:56:15.695Z,,0,,,4551.273999976154,completion,,,,,false,,,,96121.59999996424,96121.39999997616,91553.739,91561.19999998808,91570.126,96136.629,8,400,,,
trial,html.Screen,4_10_0,2023-10-30T21:56:20.471Z,,0,1,,4760.870999999999,response,ISIC_5382189.JPG,32,ISIC_3503302.JPG,ISIC_3503302.JPG,false,0,keypress(z),500,100897.80000001192,100897.5,96119.857,96121.59999996424,96136.629,100904.3,8,400,11,,ISIC_5382189.JPG
break,html.Screen,4_10_1,2023-10-30T21:56:20.472Z,,0,,,NaN,,,,,,false,,,,100898.69999998808,100898.30000001192,,100897.89999997616,,100904.3,8,400,,,
break_continue,html.Screen,4_10_2,2023-10-30T21:56:20.473Z,,0,,,NaN,,,,,,false,,,,100899.09999996424,100899.09999996424,,100898.89999997616,,100904.3,8,400,,,
sequence,flow.Sequence,4_10,2023-10-30T21:56:20.473Z,,0,,,4762.470999964236,completion,,,,,false,,,,100899.19999998808,100899.09999996424,96119.857,96121.59999996424,96136.629,100904.3,8,400,,,
trial,html.Screen,4_11_0,2023-10-30T21:56:25.055Z,,0,1,,4577.199999999997,response,ISIC_3590814.JPG,5,ISIC_3303825.JPG,ISIC_3590814.JPG,false,1,keypress(m),500,105481.80000001192,105481.5,100887.17,100899.30000001192,100904.3,105487.175,8,400,12,,ISIC_3303825.JPG
break,html.Screen,4_11_1,2023-10-30T21:56:25.057Z,,0,,,NaN,,,,,,false,,,,105482.89999997616,105482.69999998808,,105482,,105487.175,8,400,,,
break_continue,html.Screen,4_11_2,2023-10-30T21:56:25.057Z,,0,,,NaN,,,,,,false,,,,105483.19999998808,105483.09999996424,,105483,,105487.175,8,400,,,
sequence,flow.Sequence,4_11,2023-10-30T21:56:25.057Z,,0,,,4578.799999964234,completion,,,,,false,,,,105483.30000001192,105483.09999996424,100887.17,100899.30000001192,100904.3,105487.175,8,400,,,
trial,html.Screen,4_12_0,2023-10-30T21:56:32.889Z,,0,1,,7827.524999988076,response,ISIC_5563553.JPG,30,ISIC_2808622.JPG,ISIC_2808622.JPG,false,0,keypress(z),500,113315,113314.69999998808,105470.133,105483.39999997616,105487.175,113320.274,8,400,13,,ISIC_5563553.JPG
break,html.Screen,4_12_1,2023-10-30T21:56:32.890Z,,0,,,NaN,,,,,,false,,,,113316,113315.59999996424,,113315.19999998808,,113320.274,8,400,,,
break_continue,html.Screen,4_12_2,2023-10-30T21:56:32.890Z,,0,,,NaN,,,,,,false,,,,113316.30000001192,113316.30000001192,,113316.19999998808,,113320.274,8,400,,,
sequence,flow.Sequence,4_12,2023-10-30T21:56:32.890Z,,0,,,7829.125000011918,completion,,,,,false,,,,113316.5,113316.30000001192,105470.133,105483.30000001192,105487.175,113320.274,8,400,,,
trial,html.Screen,4_13_0,2023-10-30T21:56:38.419Z,,0,1,,5524.526000011916,response,ISIC_0033061.JPG,6,ISIC_3179296.JPG,ISIC_3179296.JPG,false,0,keypress(z),500,118845,118844.80000001192,113303.908,113316.59999996424,113320.274,118853.264,8,400,14,,ISIC_0033061.JPG
break,html.Screen,4_13_1,2023-10-30T21:56:38.420Z,,0,,,NaN,,,,,,false,,,,118845.89999997616,118845.59999996424,,118845.19999998808,,118853.264,8,400,,,
break_continue,html.Screen,4_13_2,2023-10-30T21:56:38.420Z,,0,,,NaN,,,,,,false,,,,118846.30000001192,118846.19999998808,,118846.09999996424,,118853.264,8,400,,,
sequence,flow.Sequence,4_13,2023-10-30T21:56:38.420Z,,0,,,5525.925999988074,completion,,,,,false,,,,118846.39999997616,118846.19999998808,113303.908,113316.5,113320.274,118853.264,8,400,,,
trial,html.Screen,4_14_0,2023-10-30T21:56:42.358Z,,0,1,,3931.2360000000044,response,ISIC_0026595.JPG,5,ISIC_2783450.JPG,ISIC_0026595.JPG,false,1,keypress(m),500,122784.69999998808,122784.5,118836.775,118846.5,118853.264,122808.617,8,400,15,,ISIC_2783450.JPG
break,html.Screen,4_14_1,2023-10-30T21:56:42.360Z,,0,,,NaN,,,,,,false,,,,122785.80000001192,122785.39999997616,,122784.89999997616,,122808.617,8,400,,,
break_continue,html.Screen,4_14_2,2023-10-30T21:56:42.360Z,,0,,,NaN,,,,,,false,,,,122786.09999996424,122786,,122786,,122808.617,8,400,,,
sequence,flow.Sequence,4_14,2023-10-30T21:56:42.360Z,,0,,,3932.7360000000044,completion,,,,,false,,,,122786.19999998808,122786,118836.775,118846.5,118853.264,122808.617,8,400,,,
trial,html.Screen,4_15_0,2023-10-30T21:56:49.005Z,,0,1,,6622.383000000002,response,ISIC_0031379.JPG,2,ISIC_0025357.JPG,ISIC_0031379.JPG,false,1,keypress(m),500,129431.30000001192,129431,122770.29,122786.30000001192,122808.617,129454.912,8,400,16,,ISIC_0025357.JPG
break,html.Screen,4_15_1,2023-10-30T21:56:49.006Z,,0,,,NaN,,,,,,false,,,,129432.09999996424,129432,,129431.5,,129454.912,8,400,,,
break_continue,html.Screen,4_15_2,2023-10-30T21:56:49.006Z,,0,,,NaN,,,,,,false,,,,129432.59999996424,129432.5,,129432.30000001192,,129454.912,8,400,,,
sequence,flow.Sequence,4_15,2023-10-30T21:56:49.007Z,,0,,,6623.883000000002,completion,,,,,false,,,,129432.69999998808,129432.5,122770.29,122786.30000001192,122808.617,129454.912,8,400,,,
trial,html.Screen,4_16_0,2023-10-30T21:56:53.687Z,,0,1,,4657.9879999761615,response,ISIC_0053801.JPG,7,ISIC_9574191.JPG,ISIC_9574191.JPG,false,0,keypress(z),500,134113.09999996424,134112.89999997616,129420.13,129432.89999997616,129454.912,134119.945,8,400,17,,ISIC_0053801.JPG
break,html.Screen,4_16_1,2023-10-30T21:56:53.688Z,,0,,,NaN,,,,,,false,,,,134114.09999996424,134113.80000001192,,134113.30000001192,,134119.945,8,400,,,
break_continue,html.Screen,4_16_2,2023-10-30T21:56:53.688Z,,0,,,NaN,,,,,,false,,,,134114.39999997616,134114.30000001192,,134114.19999998808,,134119.945,8,400,,,
sequence,flow.Sequence,4_16,2023-10-30T21:56:53.688Z,,0,,,4659.388000011924,completion,,,,,false,,,,134114.59999996424,134114.30000001192,129420.13,129432.89999997616,129454.912,134119.945,8,400,,,
trial,html.Screen,4_17_0,2023-10-30T21:56:57.186Z,,0,1,,3491.6549999642302,response,ISIC_0028129.JPG,20,ISIC_0010397.JPG,ISIC_0028129.JPG,false,1,keypress(m),500,137611.80000001192,137611.59999996424,134103.842,134114.59999996424,134119.945,137620.032,8,400,18,,ISIC_0010397.JPG
break,html.Screen,4_17_1,2023-10-30T21:56:57.187Z,,0,,,NaN,,,,,,false,,,,137612.69999998808,137612.39999997616,,137611.89999997616,,137620.032,8,400,,,
break_continue,html.Screen,4_17_2,2023-10-30T21:56:57.187Z,,0,,,NaN,,,,,,false,,,,137613.09999996424,137613,,137612.89999997616,,137620.032,8,400,,,
sequence,flow.Sequence,4_17,2023-10-30T21:56:57.187Z,,0,,,3493.054999999993,completion,,,,,false,,,,137613.19999998808,137613,134103.842,134114.59999996424,134119.945,137620.032,8,400,,,
trial,html.Screen,4_18_0,2023-10-30T21:57:02.040Z,,0,1,,4845.667999988073,response,ISIC_9612228.JPG,10,ISIC_0011564.JPG,ISIC_9612228.JPG,false,1,keypress(m),500,142466,142465.69999998808,137603.396,137613.39999997616,137620.032,142470.001,8,400,19,,ISIC_0011564.JPG
break,html.Screen,4_18_1,2023-10-30T21:57:02.041Z,,0,,,NaN,,,,,,false,,,,142466.89999997616,142466.69999998808,,142466.09999996424,,142470.001,8,400,,,
break_continue,html.Screen,4_18_2,2023-10-30T21:57:02.041Z,,0,,,NaN,,,,,,false,,,,142467.30000001192,142467.19999998808,,142467,,142470.001,8,400,,,
sequence,flow.Sequence,4_18,2023-10-30T21:57:02.041Z,,0,,,4847.167999988073,completion,,,,,false,,,,142467.39999997616,142467.19999998808,137603.396,137613.30000001192,137620.032,142470.001,8,400,,,
trial,html.Screen,4_19_0,2023-10-30T21:57:10.626Z,,0,1,,8581.799000011932,response,ISIC_0010860.JPG,9,ISIC_4708642.JPG,ISIC_0010860.JPG,false,1,keypress(m),500,151051.89999997616,151051.80000001192,142453.273,142467.5,142470.001,151075.958,8,400,20,,ISIC_4708642.JPG
break,html.Screen,4_19_1,2023-10-30T21:57:10.627Z,,0,,,NaN,,,,,,false,,,,151053,151052.80000001192,,151052.19999998808,,151075.958,8,400,,,
break_continue,html.Screen,4_19_2,2023-10-30T21:57:10.627Z,,0,,,NaN,,,,,,false,,,,151053.39999997616,151053.30000001192,,151053.09999996424,,151075.958,8,400,,,
sequence,flow.Sequence,4_19,2023-10-30T21:57:10.627Z,,0,,,8583.299000011932,completion,,,,,false,,,,151053.5,151053.30000001192,142453.273,142467.5,142470.001,151075.958,8,400,,,
trial,html.Screen,4_20_0,2023-10-30T21:57:14.535Z,,0,1,,3885.141999964224,response,ISIC_1962845.JPG,10,ISIC_0000167.JPG,ISIC_0000167.JPG,false,0,keypress(z),500,154961.5,154961.09999996424,151037.162,151053.69999998808,151075.958,154970.17,8,400,21,,ISIC_1962845.JPG
break,html.Screen,4_20_1,2023-10-30T21:57:14.536Z,,0,,,NaN,,,,,,false,,,,154962.30000001192,154962.19999998808,,154961.69999998808,,154970.17,8,400,,,
break_continue,html.Screen,4_20_2,2023-10-30T21:57:14.536Z,,0,,,NaN,,,,,,false,,,,154962.69999998808,154962.59999996424,,154962.5,,154970.17,8,400,,,
sequence,flow.Sequence,4_20,2023-10-30T21:57:14.537Z,,0,,,3886.641999964224,completion,,,,,false,,,,154963.19999998808,154962.59999996424,151037.162,151053.69999998808,151075.958,154970.17,8,400,,,
trial,html.Screen,4_21_0,2023-10-30T21:57:24.145Z,,0,1,,9601.229999976145,response,ISIC_3673517.JPG,19,ISIC_0032709.JPG,ISIC_3673517.JPG,false,1,keypress(m),500,164571.59999996424,164571.39999997616,154954.256,154963.39999997616,154970.17,164587.064,8,400,22,,ISIC_0032709.JPG
break,html.Screen,4_21_1,2023-10-30T21:57:24.146Z,,0,,,NaN,,,,,,false,,,,164572.5,164572.19999998808,,164571.69999998808,,164587.064,8,400,,,
break_continue,html.Screen,4_21_2,2023-10-30T21:57:24.147Z,,0,,,NaN,,,,,,false,,,,164572.89999997616,164572.80000001192,,164572.69999998808,,164587.064,8,400,,,
sequence,flow.Sequence,4_21,2023-10-30T21:57:24.147Z,,0,,,9602.630000011908,completion,,,,,false,,,,164573.09999996424,164572.80000001192,154954.256,154963.30000001192,154970.17,164587.064,8,400,,,
trial,html.Screen,4_22_0,2023-10-30T21:57:28.923Z,,0,1,,4761.535999964224,response,ISIC_0012067.JPG,12,ISIC_8570555.JPG,ISIC_0012067.JPG,false,1,keypress(m),500,169348.89999997616,169348.59999996424,164570.319,164573.19999998808,164587.064,169353.317,8,400,23,,ISIC_8570555.JPG
break,html.Screen,4_22_1,2023-10-30T21:57:28.924Z,,0,,,NaN,,,,,,false,,,,169349.80000001192,169349.39999997616,,169349,,169353.317,8,400,,,
break_continue,html.Screen,4_22_2,2023-10-30T21:57:28.924Z,,0,,,NaN,,,,,,false,,,,169350,169350,,169349.89999997616,,169353.317,8,400,,,
sequence,flow.Sequence,4_22,2023-10-30T21:57:28.924Z,,0,,,4762.935999999987,completion,,,,,false,,,,169350.19999998808,169350,164570.319,164573.09999996424,164587.064,169353.317,8,400,,,
trial,html.Screen,4_23_0,2023-10-30T21:57:32.079Z,,0,1,,3151.983000011911,response,ISIC_9001948.JPG,4,ISIC_0064625.JPG,ISIC_0064625.JPG,false,0,keypress(z),500,172505.59999996424,172505.30000001192,169336.675,169350.30000001192,169353.317,172520.309,8,400,24,,ISIC_9001948.JPG
break,html.Screen,4_23_1,2023-10-30T21:57:32.080Z,,0,,,NaN,,,,,,false,,,,172506.5,172506.09999996424,,172505.69999998808,,172520.309,8,400,,,
break_continue,html.Screen,4_23_2,2023-10-30T21:57:32.081Z,,0,,,NaN,,,,,,false,,,,172506.69999998808,172506.69999998808,,172506.5,,172520.309,8,400,,,
sequence,flow.Sequence,4_23,2023-10-30T21:57:32.081Z,,0,,,3153.382999988069,completion,,,,,false,,,,172506.89999997616,172506.69999998808,169336.675,169350.30000001192,169353.317,172520.309,8,400,,,
trial,html.Screen,4_24_0,2023-10-30T21:57:39.945Z,,0,1,,7850.290999964229,response,ISIC_5651106.JPG,5,ISIC_7738955.JPG,ISIC_7738955.JPG,false,0,keypress(z),500,180370.89999997616,180370.59999996424,172503.821,172506.89999997616,172520.309,180386.655,8,400,25,,ISIC_5651106.JPG
break,html.Screen,4_24_1,2023-10-30T21:57:39.946Z,,0,,,NaN,,,,,,false,,,,180371.80000001192,180371.39999997616,,180371,,180386.655,8,400,,,
break_continue,html.Screen,4_24_2,2023-10-30T21:57:39.946Z,,0,,,NaN,,,,,,false,,,,180372.09999996424,180372,,180372,,180386.655,8,400,,,
sequence,flow.Sequence,4_24,2023-10-30T21:57:39.946Z,,0,,,7851.690999999992,completion,,,,,false,,,,180372.30000001192,180372,172503.821,172506.89999997616,172520.309,180386.655,8,400,,,
trial,html.Screen,4_25_0,2023-10-30T21:57:51.445Z,,0,1,,11516.962,timeout,ISIC_4525317.JPG,9,ISIC_0012040.JPG,,false,,,500,191871.19999998808,191871,180370.396,180372.39999997616,180386.655,191903.617,8,400,26,,
break,html.Screen,4_25_1,2023-10-30T21:57:51.446Z,,0,,,NaN,,,,,,false,,,,191871.80000001192,191871.59999996424,,191871.39999997616,,191903.617,8,400,,,
break_continue,html.Screen,4_25_2,2023-10-30T21:57:51.446Z,,0,,,NaN,,,,,,false,,,,191872.09999996424,191872,,191871.89999997616,,191903.617,8,400,,,
sequence,flow.Sequence,4_25,2023-10-30T21:57:51.446Z,,0,,,11485.345000000001,completion,,,,,false,,,,191872.19999998808,191872,180370.396,180372.39999997616,180386.655,191903.617,8,400,,,
trial,html.Screen,4_26_0,2023-10-30T21:57:54.893Z,,0,1,,3415.1830000119226,response,ISIC_1971254.JPG,9,ISIC_0000569.JPG,ISIC_1971254.JPG,false,1,keypress(m),500,195319.09999996424,195318.80000001192,191886.766,191873.80000001192,191903.617,195337.047,8,400,27,,ISIC_0000569.JPG
break,html.Screen,4_26_1,2023-10-30T21:57:54.894Z,,0,,,NaN,,,,,,false,,,,195320.09999996424,195319.80000001192,,195319.39999997616,,195337.047,8,400,,,
break_continue,html.Screen,4_26_2,2023-10-30T21:57:54.894Z,,0,,,NaN,,,,,,false,,,,195320.5,195320.39999997616,,195320.30000001192,,195337.047,8,400,,,
sequence,flow.Sequence,4_26,2023-10-30T21:57:54.894Z,,0,,,3416.7829999761598,completion,,,,,false,,,,195320.69999998808,195320.39999997616,191886.766,191873.80000001192,191903.617,195337.047,8,400,,,
trial,html.Screen,4_27_0,2023-10-30T21:57:58.404Z,,0,1,,3493.3529999761668,response,ISIC_0031010.JPG,7,ISIC_0061371.JPG,ISIC_0061371.JPG,false,0,keypress(z),500,198830.59999996424,198830.39999997616,195303.582,195320.69999998808,195337.047,198837.205,8,400,28,,ISIC_0031010.JPG
break,html.Screen,4_27_1,2023-10-30T21:57:58.405Z,,0,,,NaN,,,,,,false,,,,198831.59999996424,198831.39999997616,,198830.80000001192,,198837.205,8,400,,,
break_continue,html.Screen,4_27_2,2023-10-30T21:57:58.406Z,,0,,,NaN,,,,,,false,,,,198831.89999997616,198831.80000001192,,198831.69999998808,,198837.205,8,400,,,
sequence,flow.Sequence,4_27,2023-10-30T21:57:58.406Z,,0,,,3494.7530000119295,completion,,,,,false,,,,198832.09999996424,198831.80000001192,195303.582,195320.69999998808,195337.047,198837.205,8,400,,,
trial,html.Screen,4_28_0,2023-10-30T21:58:02.459Z,,0,1,,4047.89499996425,response,ISIC_0054670.JPG,12,ISIC_0054048.JPG,ISIC_0054048.JPG,false,0,keypress(z),500,202885.19999998808,202885.09999996424,198820.521,198832.09999996424,198837.205,202909.372,8,400,29,,ISIC_0054670.JPG
break,html.Screen,4_28_1,2023-10-30T21:58:02.460Z,,0,,,NaN,,,,,,false,,,,202886.19999998808,202886.09999996424,,202885.5,,202909.372,8,400,,,
break_continue,html.Screen,4_28_2,2023-10-30T21:58:02.460Z,,0,,,NaN,,,,,,false,,,,202886.5,202886.5,,202886.39999997616,,202909.372,8,400,,,
sequence,flow.Sequence,4_28,2023-10-30T21:58:02.461Z,,0,,,4049.295000000013,completion,,,,,false,,,,202886.80000001192,202886.5,198820.521,198832.09999996424,198837.205,202909.372,8,400,,,
trial,html.Screen,4_29_0,2023-10-30T21:58:05.955Z,,0,1,,3471.827999988076,response,ISIC_8584239.JPG,2,ISIC_7575957.JPG,ISIC_8584239.JPG,false,1,keypress(m),500,206381.30000001192,206381.19999998808,202870.492,202886.89999997616,202909.372,206387.361,8,400,30,,ISIC_7575957.JPG
break,html.Screen,4_29_1,2023-10-30T21:58:05.956Z,,0,,,NaN,,,,,,false,,,,206382.30000001192,206381.89999997616,,206381.5,,206387.361,8,400,,,
break_continue,html.Screen,4_29_2,2023-10-30T21:58:05.956Z,,0,,,NaN,,,,,,false,,,,206382.59999996424,206382.5,,206382.5,,206387.361,8,400,,,
sequence,flow.Sequence,4_29,2023-10-30T21:58:05.956Z,,0,,,3473.127999999997,completion,,,,,false,,,,206382.69999998808,206382.5,202870.492,202886.89999997616,202909.372,206387.361,8,400,,,
trial,html.Screen,4_30_0,2023-10-30T21:58:10.626Z,,0,1,,4665.038999976154,response,ISIC_9209245.JPG,9,ISIC_1034397.JPG,ISIC_9209245.JPG,false,1,keypress(m),500,211052.59999996424,211052.39999997616,206370.741,206382.89999997616,206387.361,211070.355,8,400,31,,ISIC_1034397.JPG
break,html.Screen,4_30_1,2023-10-30T21:58:10.627Z,,0,,,NaN,,,,,,false,,,,211053.5,211053.39999997616,,211052.80000001192,,211070.355,8,400,,,
break_continue,html.Screen,4_30_2,2023-10-30T21:58:10.628Z,,0,,,NaN,,,,,,false,,,,211053.89999997616,211053.80000001192,,211053.69999998808,,211070.355,8,400,,,
sequence,flow.Sequence,4_30,2023-10-30T21:58:10.629Z,,0,,,4666.4390000119165,completion,,,,,false,,,,211055,211053.80000001192,206370.741,206382.80000001192,206387.361,211070.355,8,400,,,
trial,html.Screen,4_31_0,2023-10-30T21:58:14.735Z,,0,1,,4090.2449999642267,response,ISIC_5476770.JPG,28,ISIC_0034304.JPG,ISIC_0034304.JPG,false,0,keypress(z),500,215160.69999998808,215160.59999996424,211053.169,211055.09999996424,211070.355,215170.108,8,400,32,,ISIC_5476770.JPG
break,html.Screen,4_31_1,2023-10-30T21:58:14.736Z,,0,,,NaN,,,,,,false,,,,215161.80000001192,215161.39999997616,,215160.89999997616,,215170.108,8,400,,,
break_continue,html.Screen,4_31_2,2023-10-30T21:58:14.736Z,,0,,,NaN,,,,,,false,,,,215162.09999996424,215162,,215161.89999997616,,215170.108,8,400,,,
sequence,flow.Sequence,4_31,2023-10-30T21:58:14.736Z,,0,,,4091.6449999999895,completion,,,,,false,,,,215162.19999998808,215162,211053.169,211055.09999996424,211070.355,215170.108,8,400,,,
trial,html.Screen,4_32_0,2023-10-30T21:58:18.485Z,,0,1,,3740.8919999999925,response,ISIC_0033268.JPG,10,ISIC_0011269.JPG,ISIC_0011269.JPG,false,0,keypress(z),500,218911.09999996424,218911,215154.027,215162.39999997616,215170.108,218920.206,8,400,33,,ISIC_0033268.JPG
break,html.Screen,4_32_1,2023-10-30T21:58:18.485Z,,0,,,NaN,,,,,,false,,,,218911.69999998808,218911.59999996424,,218911.19999998808,,218920.206,8,400,,,
break_continue,html.Screen,4_32_2,2023-10-30T21:58:18.486Z,,0,,,NaN,,,,,,false,,,,218912.09999996424,218912,,218911.89999997616,,218920.206,8,400,,,
sequence,flow.Sequence,4_32,2023-10-30T21:58:18.486Z,,0,,,3741.8919999999925,completion,,,,,false,,,,218912.19999998808,218912,215154.027,215162.30000001192,215170.108,218920.206,8,400,,,
trial,html.Screen,4_33_0,2023-10-30T21:58:21.497Z,,0,1,,3002.5940000119153,response,ISIC_0028584.JPG,2,ISIC_0053791.JPG,ISIC_0053791.JPG,false,0,keypress(z),500,221923,221922.80000001192,218903.551,218912.30000001192,218920.206,221937.086,8,400,34,,ISIC_0028584.JPG
break,html.Screen,4_33_1,2023-10-30T21:58:21.498Z,,0,,,NaN,,,,,,false,,,,221923.89999997616,221923.59999996424,,221923.30000001192,,221937.086,8,400,,,
break_continue,html.Screen,4_33_2,2023-10-30T21:58:21.498Z,,0,,,NaN,,,,,,false,,,,221924.19999998808,221924.19999998808,,221924.09999996424,,221937.086,8,400,,,
sequence,flow.Sequence,4_33,2023-10-30T21:58:21.498Z,,0,,,3003.9939999880735,completion,,,,,false,,,,221924.30000001192,221924.19999998808,218903.551,218912.30000001192,218920.206,221937.086,8,400,,,
trial,html.Screen,4_34_0,2023-10-30T21:58:24.925Z,,0,1,,3414.113999988069,response,ISIC_0002347.JPG,6,ISIC_0032629.JPG,ISIC_0032629.JPG,false,0,keypress(z),500,225351.5,225351.19999998808,221920.6,221924.5,221937.086,225376.322,8,400,35,,ISIC_0002347.JPG
break,html.Screen,4_34_1,2023-10-30T21:58:24.926Z,,0,,,NaN,,,,,,false,,,,225352.59999996424,225352.09999996424,,225351.59999996424,,225376.322,8,400,,,
break_continue,html.Screen,4_34_2,2023-10-30T21:58:24.927Z,,0,,,NaN,,,,,,false,,,,225352.89999997616,225352.80000001192,,225352.69999998808,,225376.322,8,400,,,
sequence,flow.Sequence,4_34,2023-10-30T21:58:24.927Z,,0,,,3415.7140000119107,completion,,,,,false,,,,225353,225352.80000001192,221920.6,221924.5,221937.086,225376.322,8,400,,,
trial,html.Screen,4_35_0,2023-10-30T21:58:29.527Z,,0,1,,4576.678000000014,response,ISIC_3151260.JPG,10,ISIC_9527051.JPG,ISIC_9527051.JPG,false,0,keypress(z),500,229953.30000001192,229953,225336.933,225353,225376.322,229986.86,8,400,36,,ISIC_3151260.JPG
break,html.Screen,4_35_1,2023-10-30T21:58:29.528Z,,0,,,NaN,,,,,,false,,,,229954.19999998808,229953.80000001192,,229953.5,,229986.86,8,400,,,
break_continue,html.Screen,4_35_2,2023-10-30T21:58:29.528Z,,0,,,NaN,,,,,,false,,,,229954.5,229954.5,,229954.30000001192,,229986.86,8,400,,,
sequence,flow.Sequence,4_35,2023-10-30T21:58:29.528Z,,0,,,4578.178000000014,completion,,,,,false,,,,229954.69999998808,229954.5,225336.933,225353,225376.322,229986.86,8,400,,,
trial,html.Screen,4_36_0,2023-10-30T21:58:33.023Z,,0,1,,3462.339999988093,response,ISIC_0830217.JPG,7,ISIC_0029995.JPG,ISIC_0029995.JPG,false,0,keypress(z),500,233449.39999997616,233449.19999998808,229970.247,229954.69999998808,229986.86,233453.429,8,400,37,,ISIC_0830217.JPG
break,html.Screen,4_36_1,2023-10-30T21:58:33.024Z,,0,,,NaN,,,,,,false,,,,233450.39999997616,233450,,233449.59999996424,,233453.429,8,400,,,
break_continue,html.Screen,4_36_2,2023-10-30T21:58:33.025Z,,0,,,NaN,,,,,,false,,,,233450.80000001192,233450.69999998808,,233450.59999996424,,233453.429,8,400,,,
sequence,flow.Sequence,4_36,2023-10-30T21:58:33.025Z,,0,,,3463.839999988093,completion,,,,,false,,,,233450.89999997616,233450.69999998808,229970.247,229954.69999998808,229986.86,233453.429,8,400,,,
trial,html.Screen,4_37_0,2023-10-30T21:58:38.807Z,,0,1,,5779.570999999996,response,ISIC_1783062.JPG,7,ISIC_0013165.JPG,ISIC_1783062.JPG,false,1,keypress(m),500,239233.30000001192,239233,233436.923,233451.09999996424,233453.429,239236.773,8,400,38,,ISIC_0013165.JPG
break,html.Screen,4_37_1,2023-10-30T21:58:38.808Z,,0,,,NaN,,,,,,false,,,,239234.19999998808,239234,,239233.39999997616,,239236.773,8,400,,,
break_continue,html.Screen,4_37_2,2023-10-30T21:58:38.808Z,,0,,,NaN,,,,,,false,,,,239234.59999996424,239234.39999997616,,239234.30000001192,,239236.773,8,400,,,
sequence,flow.Sequence,4_37,2023-10-30T21:58:38.808Z,,0,,,5780.970999976154,completion,,,,,false,,,,239234.69999998808,239234.39999997616,233436.923,233451,233453.429,239236.773,8,400,,,
trial,html.Screen,4_38_0,2023-10-30T21:58:45.099Z,,0,1,,6288.027000011934,response,ISIC_0013813.JPG,6,ISIC_0057015.JPG,ISIC_0013813.JPG,false,1,keypress(m),500,245525,245524.80000001192,239220.398,239234.69999998808,239236.773,245536.725,8,400,39,,ISIC_0057015.JPG
break,html.Screen,4_38_1,2023-10-30T21:58:45.099Z,,0,,,NaN,,,,,,false,,,,245525.5,245525.30000001192,,245525,,245536.725,8,400,,,
break_continue,html.Screen,4_38_2,2023-10-30T21:58:45.099Z,,0,,,NaN,,,,,,false,,,,245525.69999998808,245525.59999996424,,245525.5,,245536.725,8,400,,,
sequence,flow.Sequence,4_38,2023-10-30T21:58:45.099Z,,0,,,6288.826999964251,completion,,,,,false,,,,245525.69999998808,245525.59999996424,239220.398,239234.69999998808,239236.773,245536.725,8,400,,,
trial,html.Screen,4_39_0,2023-10-30T21:58:48.764Z,,0,1,,3653.6749999761523,response,ISIC_4033676.JPG,9,ISIC_0029106.JPG,ISIC_4033676.JPG,false,1,keypress(m),500,249190.69999998808,249190.39999997616,245519.932,245525.80000001192,245536.725,249220.397,8,400,40,,ISIC_0029106.JPG
break,html.Screen,4_39_1,2023-10-30T21:58:48.765Z,,0,,,NaN,,,,,,false,,,,249191,249191,,249190.80000001192,,249220.397,8,400,,,
break_continue,html.Screen,4_39_2,2023-10-30T21:58:48.765Z,,0,,,NaN,,,,,,false,,,,249191.19999998808,249191.19999998808,,249191,,249220.397,8,400,,,
sequence,flow.Sequence,4_39,2023-10-30T21:58:48.765Z,,0,,,3654.4749999880733,completion,,,,,false,,,,249191.19999998808,249191.19999998808,245519.932,245525.69999998808,245536.725,249220.397,8,400,,,
trial,html.Screen,4_40_0,2023-10-30T21:58:52.642Z,,0,1,,3847.20299996424,response,ISIC_2421696.JPG,21,ISIC_0027321.JPG,ISIC_0027321.JPG,false,0,keypress(z),500,253067.89999997616,253067.59999996424,249203.526,249191.30000001192,249220.397,253070.106,8,400,41,,ISIC_2421696.JPG
break,html.Screen,4_40_1,2023-10-30T21:58:52.643Z,,0,,,NaN,,,,,,false,,,,253068.89999997616,253068.5,,253068.09999996424,,253070.106,8,400,,,
break_continue,html.Screen,4_40_2,2023-10-30T21:58:52.643Z,,0,,,NaN,,,,,,false,,,,253069.19999998808,253069.09999996424,,253069,,253070.106,8,400,,,
sequence,flow.Sequence,4_40,2023-10-30T21:58:52.643Z,,0,,,3848.70299996424,completion,,,,,false,,,,253069.39999997616,253069.09999996424,249203.526,249191.30000001192,249220.397,253070.106,8,400,,,
trial,html.Screen,4_41_0,2023-10-30T21:58:55.945Z,,0,1,,3301.2939999761584,response,ISIC_0002057.JPG,10,ISIC_0010140.JPG,ISIC_0010140.JPG,false,0,keypress(z),500,256371.59999996424,256371.39999997616,253053.901,253069.39999997616,253070.106,256387.087,8,400,42,,ISIC_0002057.JPG
break,html.Screen,4_41_1,2023-10-30T21:58:55.946Z,,0,,,NaN,,,,,,false,,,,256372.59999996424,256372.19999998808,,256371.89999997616,,256387.087,8,400,,,
break_continue,html.Screen,4_41_2,2023-10-30T21:58:55.947Z,,0,,,NaN,,,,,,false,,,,256372.89999997616,256372.80000001192,,256372.80000001192,,256387.087,8,400,,,
sequence,flow.Sequence,4_41,2023-10-30T21:58:55.947Z,,0,,,3302.694000011921,completion,,,,,false,,,,256373.19999998808,256372.80000001192,253053.901,253069.39999997616,253070.106,256387.087,8,400,,,
trial,html.Screen,4_42_0,2023-10-30T21:59:00.260Z,,0,1,,4298.9130000000005,response,ISIC_0024565.JPG,9,ISIC_1585370.JPG,ISIC_1585370.JPG,false,0,keypress(z),500,260686.19999998808,260686,256370.326,256373.39999997616,256387.087,260703.436,8,400,43,,ISIC_0024565.JPG
break,html.Screen,4_42_1,2023-10-30T21:59:00.261Z,,0,,,NaN,,,,,,false,,,,260687.19999998808,260686.80000001192,,260686.39999997616,,260703.436,8,400,,,
break_continue,html.Screen,4_42_2,2023-10-30T21:59:00.261Z,,0,,,NaN,,,,,,false,,,,260687.5,260687.39999997616,,260687.30000001192,,260703.436,8,400,,,
sequence,flow.Sequence,4_42,2023-10-30T21:59:00.261Z,,0,,,4300.312999976159,completion,,,,,false,,,,260687.59999996424,260687.39999997616,256370.326,256373.30000001192,256387.087,260703.436,8,400,,,
trial,html.Screen,4_43_0,2023-10-30T21:59:04.700Z,,0,1,,4422.564000000013,response,ISIC_0031482.JPG,11,ISIC_7172145.JPG,ISIC_7172145.JPG,false,0,keypress(z),500,265126.3000000119,265126,260670.533,260687.69999998808,260703.436,265136.761,8,400,44,,ISIC_0031482.JPG
break,html.Screen,4_43_1,2023-10-30T21:59:04.701Z,,0,,,NaN,,,,,,false,,,,265127.3000000119,265127,,265126.59999996424,,265136.761,8,400,,,
break_continue,html.Screen,4_43_2,2023-10-30T21:59:04.701Z,,0,,,NaN,,,,,,false,,,,265127.59999996424,265127.5,,265127.5,,265136.761,8,400,,,
sequence,flow.Sequence,4_43,2023-10-30T21:59:04.702Z,,0,,,4424.064000000013,completion,,,,,false,,,,265127.89999997616,265127.5,260670.533,260687.69999998808,260703.436,265136.761,8,400,,,
trial,html.Screen,4_44_0,2023-10-30T21:59:07.944Z,,0,1,,3233.0390000119223,response,ISIC_8630818.JPG,14,ISIC_9626843.JPG,ISIC_8630818.JPG,false,1,keypress(m),500,268370,268369.8000000119,265120.728,265127.89999997616,265136.761,268386.917,8,400,45,,ISIC_9626843.JPG
break,html.Screen,4_44_1,2023-10-30T21:59:07.945Z,,0,,,NaN,,,,,,false,,,,268371,268370.6999999881,,268370.09999996424,,268386.917,8,400,,,
break_continue,html.Screen,4_44_2,2023-10-30T21:59:07.945Z,,0,,,NaN,,,,,,false,,,,268371.3000000119,268371.1999999881,,268371.09999996424,,268386.917,8,400,,,
sequence,flow.Sequence,4_44,2023-10-30T21:59:07.945Z,,0,,,3234.4389999880805,completion,,,,,false,,,,268371.39999997616,268371.1999999881,265120.728,265127.89999997616,265136.761,268386.917,8,400,,,
trial,html.Screen,4_45_0,2023-10-30T21:59:12.097Z,,0,1,,4136.383000011905,response,ISIC_0565743.JPG,11,ISIC_5634573.JPG,ISIC_5634573.JPG,false,0,keypress(z),500,272523.5,272523.3000000119,268370.269,268371.5,268386.917,272536.851,8,400,46,,ISIC_0565743.JPG
break,html.Screen,4_45_1,2023-10-30T21:59:12.098Z,,0,,,NaN,,,,,,false,,,,272524.5,272524.1999999881,,272523.6999999881,,272536.851,8,400,,,
break_continue,html.Screen,4_45_2,2023-10-30T21:59:12.099Z,,0,,,NaN,,,,,,false,,,,272524.8000000119,272524.8000000119,,272524.6999999881,,272536.851,8,400,,,
sequence,flow.Sequence,4_45,2023-10-30T21:59:12.099Z,,0,,,4137.883000011905,completion,,,,,false,,,,272525,272524.8000000119,268370.269,268371.5,268386.917,272536.851,8,400,,,
trial,html.Screen,4_46_0,2023-10-30T21:59:16.533Z,,0,1,,4421.548999976134,response,ISIC_8692006.JPG,24,ISIC_8160596.JPG,ISIC_8160596.JPG,false,0,keypress(z),500,276958.8000000119,276958.39999997616,272520.099,272525,272536.851,276970.124,8,400,47,,ISIC_8692006.JPG
break,html.Screen,4_46_1,2023-10-30T21:59:16.534Z,,0,,,NaN,,,,,,false,,,,276959.89999997616,276959.5,,276959,,276970.124,8,400,,,
break_continue,html.Screen,4_46_2,2023-10-30T21:59:16.534Z,,0,,,NaN,,,,,,false,,,,276960.1999999881,276960.1999999881,,276960.09999996424,,276970.124,8,400,,,
sequence,flow.Sequence,4_46,2023-10-30T21:59:16.534Z,,0,,,4423.348999988055,completion,,,,,false,,,,276960.39999997616,276960.1999999881,272520.099,272525,272536.851,276970.124,8,400,,,
trial,html.Screen,4_47_0,2023-10-30T21:59:22.238Z,,0,1,,5693.775999976147,response,ISIC_5459256.JPG,8,ISIC_0011943.JPG,ISIC_5459256.JPG,false,1,keypress(m),500,282664.09999996424,282663.89999997616,276953.637,276960.5,276970.124,282670.148,8,400,48,,ISIC_0011943.JPG
break,html.Screen,4_47_1,2023-10-30T21:59:22.239Z,,0,,,NaN,,,,,,false,,,,282665.09999996424,282664.6999999881,,282664.3000000119,,282670.148,8,400,,,
break_continue,html.Screen,4_47_2,2023-10-30T21:59:22.239Z,,0,,,NaN,,,,,,false,,,,282665.5,282665.39999997616,,282665.3000000119,,282670.148,8,400,,,
sequence,flow.Sequence,4_47,2023-10-30T21:59:22.239Z,,0,,,5695.275999976147,completion,,,,,false,,,,282665.59999996424,282665.39999997616,276953.637,276960.5,276970.124,282670.148,8,400,,,
trial,html.Screen,4_48_0,2023-10-30T21:59:27.560Z,,0,1,,5316.3520000000135,response,ISIC_1784613.JPG,12,ISIC_0067840.JPG,ISIC_1784613.JPG,false,1,keypress(m),500,287986.6999999881,287986.5,282653.834,282665.8000000119,282670.148,288003.597,8,400,49,,ISIC_0067840.JPG
break,html.Screen,4_48_1,2023-10-30T21:59:27.561Z,,0,,,NaN,,,,,,false,,,,287987.6999999881,287987.39999997616,,287986.89999997616,,288003.597,8,400,,,
break_continue,html.Screen,4_48_2,2023-10-30T21:59:27.562Z,,0,,,NaN,,,,,,false,,,,287988,287988,,287987.8000000119,,288003.597,8,400,,,
sequence,flow.Sequence,4_48,2023-10-30T21:59:27.562Z,,0,,,5317.8520000000135,completion,,,,,false,,,,287988.1999999881,287988,282653.834,282665.59999996424,282670.148,288003.597,8,400,,,
trial,html.Screen,4_49_0,2023-10-30T21:59:33.488Z,,0,1,,5910.203000011912,response,ISIC_0056228.JPG,8,ISIC_4640181.JPG,ISIC_4640181.JPG,false,0,keypress(z),500,293914,293913.8000000119,287987.016,287988.1999999881,288003.597,293920.692,8,400,50,,ISIC_0056228.JPG
break,html.Screen,4_49_1,2023-10-30T21:59:43.479Z,,0,,,9999.88500000001,timeout,,,,,false,,,,303904.89999997616,303903.929,293903.689,293914.3000000119,293920.692,303920.577,8,400,,,
break_continue,html.Screen,4_49_2,2023-10-30T21:59:52.927Z,,0,,,9415.42300000001,response,,,,,false,continue,keypress(Space),,313352.89999997616,313336,303903.929,303905,303920.577,313370.3,8,400,,,
sequence,flow.Sequence,4_49,2023-10-30T21:59:52.927Z,,0,,,25332.40299999999,completion,,,,,false,,,,313353.09999996424,313336,287987.016,287988.1999999881,288003.597,313370.3,8,400,,,
trial,html.Screen,4_50_0,2023-10-30T21:59:57.604Z,,0,2,,4659.899999988091,response,ISIC_0067933.JPG,9,ISIC_2809019.JPG,ISIC_2809019.JPG,false,0,keypress(z),500,318030.39999997616,318030.1999999881,313352.659,313353.09999996424,313370.3,318036.866,8,400,1,,ISIC_0067933.JPG
break,html.Screen,4_50_1,2023-10-30T21:59:57.605Z,,0,,,NaN,,,,,,false,,,,318031.39999997616,318030.89999997616,,318030.59999996424,,318036.866,8,400,,,
break_continue,html.Screen,4_50_2,2023-10-30T21:59:57.606Z,,0,,,NaN,,,,,,false,,,,318031.6999999881,318031.59999996424,,318031.39999997616,,318036.866,8,400,,,
sequence,flow.Sequence,4_50,2023-10-30T21:59:57.606Z,,0,,,4661.299999964249,completion,,,,,false,,,,318031.8000000119,318031.59999996424,313352.659,313353.09999996424,313370.3,318036.866,8,400,,,
trial,html.Screen,4_51_0,2023-10-30T22:00:03.628Z,,0,2,,6017.13400000002,response,ISIC_0004728.JPG,1,ISIC_0057188.JPG,ISIC_0057188.JPG,false,0,keypress(z),500,324054.3000000119,324054,318020.373,318032,318036.866,324070.485,8,400,2,,ISIC_0004728.JPG
break,html.Screen,4_51_1,2023-10-30T22:00:03.629Z,,0,,,NaN,,,,,,false,,,,324055.39999997616,324055.09999996424,,324054.5,,324070.485,8,400,,,
break_continue,html.Screen,4_51_2,2023-10-30T22:00:03.630Z,,0,,,NaN,,,,,,false,,,,324055.6999999881,324055.59999996424,,324055.5,,324070.485,8,400,,,
sequence,flow.Sequence,4_51,2023-10-30T22:00:03.630Z,,0,,,6018.733999964257,completion,,,,,false,,,,324055.89999997616,324055.59999996424,318020.373,318031.89999997616,318036.866,324070.485,8,400,,,
trial,html.Screen,4_52_0,2023-10-30T22:00:07.446Z,,0,2,,3801.015000000014,response,ISIC_4536407.JPG,5,ISIC_9728003.JPG,ISIC_4536407.JPG,false,1,keypress(m),500,327871.8000000119,327871.5,324053.826,324055.89999997616,324070.485,327887.166,8,400,3,,ISIC_9728003.JPG
break,html.Screen,4_52_1,2023-10-30T22:00:07.447Z,,0,,,NaN,,,,,,false,,,,327872.6999999881,327872.39999997616,,327872,,327887.166,8,400,,,
break_continue,html.Screen,4_52_2,2023-10-30T22:00:07.447Z,,0,,,NaN,,,,,,false,,,,327873.09999996424,327873,,327872.89999997616,,327887.166,8,400,,,
sequence,flow.Sequence,4_52,2023-10-30T22:00:07.447Z,,0,,,3802.515000000014,completion,,,,,false,,,,327873.1999999881,327873,324053.826,324055.89999997616,324070.485,327887.166,8,400,,,
trial,html.Screen,4_53_0,2023-10-30T22:00:12.301Z,,0,2,,4839.733999976132,response,ISIC_0015245.JPG,32,ISIC_0370008.JPG,ISIC_0370008.JPG,false,0,keypress(z),500,332727.09999996424,332726.89999997616,327870.852,327873.39999997616,327887.166,332741.885,8,400,4,,ISIC_0015245.JPG
break,html.Screen,4_53_1,2023-10-30T22:00:12.302Z,,0,,,NaN,,,,,,false,,,,332728.09999996424,332727.89999997616,,332727.3000000119,,332741.885,8,400,,,
break_continue,html.Screen,4_53_2,2023-10-30T22:00:12.302Z,,0,,,NaN,,,,,,false,,,,332728.5,332728.3000000119,,332728.3000000119,,332741.885,8,400,,,
sequence,flow.Sequence,4_53,2023-10-30T22:00:12.302Z,,0,,,4841.134000011894,completion,,,,,false,,,,332728.59999996424,332728.3000000119,327870.852,327873.3000000119,327887.166,332741.885,8,400,,,
trial,html.Screen,4_54_0,2023-10-30T22:00:16.630Z,,0,2,,4314.114999999991,response,ISIC_0063473.JPG,11,ISIC_2222091.JPG,ISIC_0063473.JPG,false,1,keypress(m),500,337056.3000000119,337056,332720.473,332728.6999999881,332741.885,337070.275,8,400,5,,ISIC_2222091.JPG
break,html.Screen,4_54_1,2023-10-30T22:00:16.631Z,,0,,,NaN,,,,,,false,,,,337057.39999997616,337057.09999996424,,337056.5,,337070.275,8,400,,,
break_continue,html.Screen,4_54_2,2023-10-30T22:00:16.632Z,,0,,,NaN,,,,,,false,,,,337057.6999999881,337057.59999996424,,337057.5,,337070.275,8,400,,,
sequence,flow.Sequence,4_54,2023-10-30T22:00:16.632Z,,0,,,4315.714999964228,completion,,,,,false,,,,337057.89999997616,337057.59999996424,332720.473,332728.59999996424,332741.885,337070.275,8,400,,,
trial,html.Screen,4_55_0,2023-10-30T22:00:22.844Z,,0,2,,6199.924999988056,response,ISIC_5807608.JPG,26,ISIC_0014183.JPG,ISIC_0014183.JPG,false,0,keypress(z),500,343270.5,343270.1999999881,337053.723,337058,337070.275,343286.936,8,400,6,,ISIC_5807608.JPG
break,html.Screen,4_55_1,2023-10-30T22:00:22.845Z,,0,,,NaN,,,,,,false,,,,343271.39999997616,343271,,343270.59999996424,,343286.936,8,400,,,
break_continue,html.Screen,4_55_2,2023-10-30T22:00:22.846Z,,0,,,NaN,,,,,,false,,,,343271.6999999881,343271.59999996424,,343271.5,,343286.936,8,400,,,
sequence,flow.Sequence,4_55,2023-10-30T22:00:22.846Z,,0,,,6201.324999964214,completion,,,,,false,,,,343271.8000000119,343271.59999996424,337053.723,337058,337070.275,343286.936,8,400,,,
trial,html.Screen,4_56_0,2023-10-30T22:00:29.296Z,,0,2,,6434.763999988092,response,ISIC_7694028.JPG,9,ISIC_0014857.JPG,ISIC_0014857.JPG,false,0,keypress(z),500,349722,349721.6999999881,343270.952,343271.89999997616,343286.936,349737.033,8,400,7,,ISIC_7694028.JPG
break,html.Screen,4_56_1,2023-10-30T22:00:29.297Z,,0,,,NaN,,,,,,false,,,,349722.89999997616,349722.5,,349722.1999999881,,349737.033,8,400,,,
break_continue,html.Screen,4_56_2,2023-10-30T22:00:29.297Z,,0,,,NaN,,,,,,false,,,,349723.1999999881,349723.09999996424,,349723,,349737.033,8,400,,,
sequence,flow.Sequence,4_56,2023-10-30T22:00:29.297Z,,0,,,6436.16399996425,completion,,,,,false,,,,349723.3000000119,349723.09999996424,343270.952,343271.89999997616,343286.936,349737.033,8,400,,,
trial,html.Screen,4_57_0,2023-10-30T22:00:33.498Z,,0,2,,4187.366999976162,response,ISIC_0072876.JPG,8,ISIC_9525136.JPG,ISIC_0072876.JPG,false,1,keypress(m),500,353924.6999999881,353924.39999997616,349720.472,349723.39999997616,349737.033,353937.186,8,400,8,,ISIC_9525136.JPG
break,html.Screen,4_57_1,2023-10-30T22:00:33.499Z,,0,,,NaN,,,,,,false,,,,353925.59999996424,353925.1999999881,,353924.8000000119,,353937.186,8,400,,,
break_continue,html.Screen,4_57_2,2023-10-30T22:00:33.500Z,,0,,,NaN,,,,,,false,,,,353925.89999997616,353925.8000000119,,353925.6999999881,,353937.186,8,400,,,
sequence,flow.Sequence,4_57,2023-10-30T22:00:33.500Z,,0,,,4188.767000011925,completion,,,,,false,,,,353926.09999996424,353925.8000000119,349720.472,349723.39999997616,349737.033,353937.186,8,400,,,
trial,html.Screen,4_58_0,2023-10-30T22:00:38.770Z,,0,2,,5258.91399996425,response,ISIC_0327225.JPG,12,ISIC_5656921.JPG,ISIC_5656921.JPG,false,0,keypress(z),500,359196.3000000119,359196.09999996424,353920.493,353926.09999996424,353937.186,359203.551,8,400,9,,ISIC_0327225.JPG
break,html.Screen,4_58_1,2023-10-30T22:00:38.771Z,,0,,,NaN,,,,,,false,,,,359196.6999999881,359196.59999996424,,359196.39999997616,,359203.551,8,400,,,
break_continue,html.Screen,4_58_2,2023-10-30T22:00:38.771Z,,0,,,NaN,,,,,,false,,,,359196.89999997616,359196.89999997616,,359196.8000000119,,359203.551,8,400,,,
sequence,flow.Sequence,4_58,2023-10-30T22:00:38.771Z,,0,,,5259.713999976171,completion,,,,,false,,,,359197,359196.89999997616,353920.493,353926.09999996424,353937.186,359203.551,8,400,,,
trial,html.Screen,4_59_0,2023-10-30T22:00:42.966Z,,0,2,,4188.04899996426,response,ISIC_8956001.JPG,7,ISIC_0065378.JPG,ISIC_0065378.JPG,false,0,keypress(z),500,363391.89999997616,363391.59999996424,359187.185,359197,359203.551,363403.548,8,400,10,,ISIC_8956001.JPG
break,html.Screen,4_59_1,2023-10-30T22:00:42.967Z,,0,,,NaN,,,,,,false,,,,363392.8000000119,363392.5,,363392,,363403.548,8,400,,,
break_continue,html.Screen,4_59_2,2023-10-30T22:00:42.967Z,,0,,,NaN,,,,,,false,,,,363393.09999996424,363393,,363392.89999997616,,363403.548,8,400,,,
sequence,flow.Sequence,4_59,2023-10-30T22:00:42.967Z,,0,,,4189.449000000022,completion,,,,,false,,,,363393.3000000119,363393,359187.185,359197,359203.551,363403.548,8,400,,,
trial,html.Screen,4_60_0,2023-10-30T22:00:46.490Z,,0,2,,3512.45199999999,response,ISIC_0030952.JPG,28,ISIC_0000036.JPG,ISIC_0030952.JPG,false,1,keypress(m),500,366916.1999999881,366916,363387.467,363393.39999997616,363403.548,366920.293,8,400,11,,ISIC_0000036.JPG
break,html.Screen,4_60_1,2023-10-30T22:00:46.491Z,,0,,,NaN,,,,,,false,,,,366917.09999996424,366916.89999997616,,366916.39999997616,,366920.293,8,400,,,
break_continue,html.Screen,4_60_2,2023-10-30T22:00:46.491Z,,0,,,NaN,,,,,,false,,,,366917.5,366917.39999997616,,366917.1999999881,,366920.293,8,400,,,
sequence,flow.Sequence,4_60,2023-10-30T22:00:46.491Z,,0,,,3513.8519999761484,completion,,,,,false,,,,366917.5,366917.39999997616,363387.467,363393.39999997616,363403.548,366920.293,8,400,,,
trial,html.Screen,4_61_0,2023-10-30T22:00:50.207Z,,0,2,,3712.306999964232,response,ISIC_5031549.JPG,9,ISIC_5736979.JPG,ISIC_5736979.JPG,false,0,keypress(z),500,370632.89999997616,370632.59999996424,366903.947,366917.59999996424,366920.293,370637.068,8,400,12,,ISIC_5031549.JPG
break,html.Screen,4_61_1,2023-10-30T22:00:50.208Z,,0,,,NaN,,,,,,false,,,,370633.8000000119,370633.39999997616,,370633,,370637.068,8,400,,,
break_continue,html.Screen,4_61_2,2023-10-30T22:00:50.208Z,,0,,,NaN,,,,,,false,,,,370634.09999996424,370633.89999997616,,370633.89999997616,,370637.068,8,400,,,
sequence,flow.Sequence,4_61,2023-10-30T22:00:50.208Z,,0,,,3713.606999976153,completion,,,,,false,,,,370634.1999999881,370633.89999997616,366903.947,366917.59999996424,366920.293,370637.068,8,400,,,
trial,html.Screen,4_62_0,2023-10-30T22:00:54.120Z,,0,2,,3908.4319999999716,response,ISIC_0028065.JPG,14,ISIC_0010440.JPG,ISIC_0028065.JPG,false,1,keypress(m),500,374545.6999999881,374545.5,370620.796,370634.3000000119,370637.068,374553.877,8,400,13,,ISIC_0010440.JPG
break,html.Screen,4_62_1,2023-10-30T22:00:54.121Z,,0,,,NaN,,,,,,false,,,,374546.6999999881,374546.39999997616,,374545.89999997616,,374553.877,8,400,,,
break_continue,html.Screen,4_62_2,2023-10-30T22:00:54.121Z,,0,,,NaN,,,,,,false,,,,374547,374547,,374546.89999997616,,374553.877,8,400,,,
sequence,flow.Sequence,4_62,2023-10-30T22:00:54.121Z,,0,,,3909.9319999999716,completion,,,,,false,,,,374547.1999999881,374547,370620.796,370634.3000000119,370637.068,374553.877,8,400,,,
trial,html.Screen,4_63_0,2023-10-30T22:00:59.328Z,,0,2,,5199.623000000021,response,ISIC_0064125.JPG,4,ISIC_4534608.JPG,ISIC_0064125.JPG,false,1,keypress(m),500,379753.6999999881,379753.5,374537.232,374547.3000000119,374553.877,379770.303,8,400,14,,ISIC_4534608.JPG
break,html.Screen,4_63_1,2023-10-30T22:00:59.329Z,,0,,,NaN,,,,,,false,,,,379754.6999999881,379754.5,,379753.89999997616,,379770.303,8,400,,,
break_continue,html.Screen,4_63_2,2023-10-30T22:00:59.330Z,,0,,,NaN,,,,,,false,,,,379756,379754.89999997616,,379754.8000000119,,379770.303,8,400,,,
sequence,flow.Sequence,4_63,2023-10-30T22:00:59.330Z,,0,,,5201.02299997618,completion,,,,,false,,,,379756.3000000119,379754.89999997616,374537.232,374547.3000000119,374553.877,379770.303,8,400,,,
trial,html.Screen,4_64_0,2023-10-30T22:01:08.248Z,,0,2,,8903.997000011906,response,ISIC_0071050.JPG,8,ISIC_6188469.JPG,ISIC_0071050.JPG,false,1,keypress(m),500,388674.5,388674.3000000119,379753.694,379756.39999997616,379770.303,388686.953,8,400,15,,ISIC_6188469.JPG
break,html.Screen,4_64_1,2023-10-30T22:01:08.249Z,,0,,,NaN,,,,,,false,,,,388675.5,388675.39999997616,,388674.89999997616,,388686.953,8,400,,,
break_continue,html.Screen,4_64_2,2023-10-30T22:01:08.250Z,,0,,,NaN,,,,,,false,,,,388676.09999996424,388675.89999997616,,388675.6999999881,,388686.953,8,400,,,
sequence,flow.Sequence,4_64,2023-10-30T22:01:08.250Z,,0,,,8905.596999976144,completion,,,,,false,,,,388676.1999999881,388675.89999997616,379753.694,379756.39999997616,379770.303,388686.953,8,400,,,
trial,html.Screen,4_65_0,2023-10-30T22:01:11.552Z,,0,2,,3290.8470000119414,response,ISIC_0055731.JPG,10,ISIC_5017874.JPG,ISIC_5017874.JPG,false,0,keypress(z),500,391978,391977.8000000119,388670.38,388676.39999997616,388686.953,391986.916,8,400,16,,ISIC_0055731.JPG
break,html.Screen,4_65_1,2023-10-30T22:01:11.553Z,,0,,,NaN,,,,,,false,,,,391979,391978.8000000119,,391978.1999999881,,391986.916,8,400,,,
break_continue,html.Screen,4_65_2,2023-10-30T22:01:11.553Z,,0,,,NaN,,,,,,false,,,,391979.3000000119,391979.1999999881,,391979.1999999881,,391986.916,8,400,,,
sequence,flow.Sequence,4_65,2023-10-30T22:01:11.553Z,,0,,,3292.2469999880996,completion,,,,,false,,,,391979.5,391979.1999999881,388670.38,388676.3000000119,388686.953,391986.916,8,400,,,
trial,html.Screen,4_66_0,2023-10-30T22:01:15.834Z,,0,2,,4272.384000011894,response,ISIC_2324728.JPG,4,ISIC_0000414.JPG,ISIC_0000414.JPG,false,0,keypress(z),500,396259.59999996424,396259.3000000119,391970.312,391979.5,391986.916,396270.454,8,400,17,,ISIC_2324728.JPG
break,html.Screen,4_66_1,2023-10-30T22:01:15.834Z,,0,,,NaN,,,,,,false,,,,396260.59999996424,396260.3000000119,,396259.8000000119,,396270.454,8,400,,,
break_continue,html.Screen,4_66_2,2023-10-30T22:01:15.835Z,,0,,,NaN,,,,,,false,,,,396260.89999997616,396260.8000000119,,396260.6999999881,,396270.454,8,400,,,
sequence,flow.Sequence,4_66,2023-10-30T22:01:15.835Z,,0,,,4273.884000011894,completion,,,,,false,,,,396261,396260.8000000119,391970.312,391979.5,391986.916,396270.454,8,400,,,
trial,html.Screen,4_67_0,2023-10-30T22:01:19.824Z,,0,2,,3979.346000011894,response,ISIC_2798803.JPG,12,ISIC_0029106.JPG,ISIC_0029106.JPG,false,0,keypress(z),500,400249.89999997616,400249.8000000119,396253.916,396261.09999996424,396270.454,400253.627,8,400,18,,ISIC_2798803.JPG
break,html.Screen,4_67_1,2023-10-30T22:01:19.825Z,,0,,,NaN,,,,,,false,,,,400251,400250.6999999881,,400250.09999996424,,400253.627,8,400,,,
break_continue,html.Screen,4_67_2,2023-10-30T22:01:19.825Z,,0,,,NaN,,,,,,false,,,,400251.5,400251.3000000119,,400251.1999999881,,400253.627,8,400,,,
sequence,flow.Sequence,4_67,2023-10-30T22:01:19.826Z,,0,,,3980.846000011894,completion,,,,,false,,,,400251.6999999881,400251.3000000119,396253.916,396261.09999996424,396270.454,400253.627,8,400,,,
trial,html.Screen,4_68_0,2023-10-30T22:01:23.642Z,,0,2,,3814.2729999761796,response,ISIC_0028886.JPG,8,ISIC_0010510.JPG,ISIC_0010510.JPG,false,0,keypress(z),500,404068.1999999881,404067.89999997616,400237.001,400251.6999999881,400253.627,404070.289,8,400,19,,ISIC_0028886.JPG
break,html.Screen,4_68_1,2023-10-30T22:01:23.643Z,,0,,,NaN,,,,,,false,,,,404069.1999999881,404068.8000000119,,404068.39999997616,,404070.289,8,400,,,
break_continue,html.Screen,4_68_2,2023-10-30T22:01:23.643Z,,0,,,NaN,,,,,,false,,,,404069.5,404069.39999997616,,404069.39999997616,,404070.289,8,400,,,
sequence,flow.Sequence,4_68,2023-10-30T22:01:23.644Z,,0,,,3815.7729999761796,completion,,,,,false,,,,404069.6999999881,404069.39999997616,400237.001,400251.6999999881,400253.627,404070.289,8,400,,,
trial,html.Screen,4_69_0,2023-10-30T22:01:27.135Z,,0,2,,3490.1109999761684,response,ISIC_1870415.JPG,10,ISIC_0054206.JPG,ISIC_1870415.JPG,false,1,keypress(m),500,407560.6999999881,407560.39999997616,404053.631,404069.6999999881,404070.289,407570.261,8,400,20,,ISIC_0054206.JPG
break,html.Screen,4_69_1,2023-10-30T22:01:27.135Z,,0,,,NaN,,,,,,false,,,,407561.59999996424,407561.39999997616,,407560.8000000119,,407570.261,8,400,,,
break_continue,html.Screen,4_69_2,2023-10-30T22:01:27.136Z,,0,,,NaN,,,,,,false,,,,407561.89999997616,407561.8000000119,,407561.6999999881,,407570.261,8,400,,,
sequence,flow.Sequence,4_69,2023-10-30T22:01:27.136Z,,0,,,3491.511000011931,completion,,,,,false,,,,407562,407561.8000000119,404053.631,404069.6999999881,404070.289,407570.261,8,400,,,
trial,html.Screen,4_70_0,2023-10-30T22:01:32.025Z,,0,2,,4880.539000011922,response,ISIC_0014088.JPG,17,ISIC_0012069.JPG,ISIC_0012069.JPG,false,0,keypress(z),500,412451,412450.8000000119,407553.914,407562.09999996424,407570.261,412453.639,8,400,21,,ISIC_0014088.JPG
break,html.Screen,4_70_1,2023-10-30T22:01:32.026Z,,0,,,NaN,,,,,,false,,,,412452.09999996424,412451.6999999881,,412451.1999999881,,412453.639,8,400,,,
break_continue,html.Screen,4_70_2,2023-10-30T22:01:32.026Z,,0,,,NaN,,,,,,false,,,,412452.59999996424,412452.5,,412452.3000000119,,412453.639,8,400,,,
sequence,flow.Sequence,4_70,2023-10-30T22:01:32.027Z,,0,,,4882.239000000001,completion,,,,,false,,,,412452.6999999881,412452.5,407553.914,407562,407570.261,412453.639,8,400,,,
trial,html.Screen,4_71_0,2023-10-30T22:01:37.774Z,,0,2,,5746.360999999975,response,ISIC_0071133.JPG,10,ISIC_0046828.JPG,ISIC_0071133.JPG,false,1,keypress(m),500,418200.1999999881,418200,412436.962,412452.8000000119,412453.639,418203.654,8,400,22,,ISIC_0046828.JPG
break,html.Screen,4_71_1,2023-10-30T22:01:37.775Z,,0,,,NaN,,,,,,false,,,,418201.1999999881,418200.8000000119,,418200.3000000119,,418203.654,8,400,,,
break_continue,html.Screen,4_71_2,2023-10-30T22:01:37.775Z,,0,,,NaN,,,,,,false,,,,418201.39999997616,418201.39999997616,,418201.3000000119,,418203.654,8,400,,,
sequence,flow.Sequence,4_71,2023-10-30T22:01:37.775Z,,0,,,5747.7609999761335,completion,,,,,false,,,,418201.59999996424,418201.39999997616,412436.962,412452.8000000119,412453.639,418203.654,8,400,,,
trial,html.Screen,4_72_0,2023-10-30T22:01:42.512Z,,0,2,,4734.84600000002,response,ISIC_0034106.JPG,13,ISIC_8794567.JPG,ISIC_8794567.JPG,false,0,keypress(z),500,422938.6999999881,422938.5,418187.295,418201.6999999881,418203.654,422953.934,8,400,23,,ISIC_0034106.JPG
break,html.Screen,4_72_1,2023-10-30T22:01:42.513Z,,0,,,NaN,,,,,,false,,,,422939.59999996424,422939.1999999881,,422938.89999997616,,422953.934,8,400,,,
break_continue,html.Screen,4_72_2,2023-10-30T22:01:42.514Z,,0,,,NaN,,,,,,false,,,,422939.89999997616,422939.89999997616,,422939.8000000119,,422953.934,8,400,,,
sequence,flow.Sequence,4_72,2023-10-30T22:01:42.514Z,,0,,,4736.245999976178,completion,,,,,false,,,,422940.09999996424,422939.89999997616,418187.295,418201.6999999881,418203.654,422953.934,8,400,,,
trial,html.Screen,4_73_0,2023-10-30T22:01:46.635Z,,0,2,,4107.366000011913,response,ISIC_6793983.JPG,0,ISIC_0063225.JPG,ISIC_0063225.JPG,false,0,keypress(z),500,427061.59999996424,427061.3000000119,422937.071,422940.1999999881,422953.934,427070.505,8,400,24,,ISIC_6793983.JPG
break,html.Screen,4_73_1,2023-10-30T22:01:46.636Z,,0,,,NaN,,,,,,false,,,,427062.59999996424,427062.1999999881,,427061.8000000119,,427070.505,8,400,,,
break_continue,html.Screen,4_73_2,2023-10-30T22:01:46.637Z,,0,,,NaN,,,,,,false,,,,427062.8000000119,427062.8000000119,,427062.6999999881,,427070.505,8,400,,,
sequence,flow.Sequence,4_73,2023-10-30T22:01:46.637Z,,0,,,4108.866000011913,completion,,,,,false,,,,427063,427062.8000000119,422937.071,422940.1999999881,422953.934,427070.505,8,400,,,
trial,html.Screen,4_74_0,2023-10-30T22:01:51.831Z,,0,2,,5186.295000011916,response,ISIC_0057259.JPG,12,ISIC_6132976.JPG,ISIC_6132976.JPG,false,0,keypress(z),500,432257,432256.8000000119,427053.691,427063.09999996424,427070.505,432270.313,8,400,25,,ISIC_0057259.JPG
break,html.Screen,4_74_1,2023-10-30T22:01:51.832Z,,0,,,NaN,,,,,,false,,,,432257.89999997616,432257.6999999881,,432257.09999996424,,432270.313,8,400,,,
break_continue,html.Screen,4_74_2,2023-10-30T22:01:51.832Z,,0,,,NaN,,,,,,false,,,,432258.1999999881,432258.09999996424,,432258.09999996424,,432270.313,8,400,,,
sequence,flow.Sequence,4_74,2023-10-30T22:01:51.832Z,,0,,,5187.594999964233,completion,,,,,false,,,,432258.39999997616,432258.09999996424,427053.691,427063.09999996424,427070.505,432270.313,8,400,,,
trial,html.Screen,4_75_0,2023-10-30T22:01:57.105Z,,0,2,,5260.386999988055,response,ISIC_0072182.JPG,9,ISIC_0070032.JPG,ISIC_0072182.JPG,false,1,keypress(m),500,437530.89999997616,437530.6999999881,432253.92,432258.5,432270.313,437537.186,8,400,26,,ISIC_0070032.JPG
break,html.Screen,4_75_1,2023-10-30T22:01:57.106Z,,0,,,NaN,,,,,,false,,,,437531.89999997616,437531.5,,437531,,437537.186,8,400,,,
break_continue,html.Screen,4_75_2,2023-10-30T22:01:57.106Z,,0,,,NaN,,,,,,false,,,,437532.3000000119,437532.1999999881,,437532,,437537.186,8,400,,,
sequence,flow.Sequence,4_75,2023-10-30T22:01:57.106Z,,0,,,5261.886999988055,completion,,,,,false,,,,437532.39999997616,437532.1999999881,432253.92,432258.5,432270.313,437537.186,8,400,,,
trial,html.Screen,4_76_0,2023-10-30T22:02:01.045Z,,0,2,,3933.513999988092,response,ISIC_0070248.JPG,5,ISIC_0004848.JPG,ISIC_0070248.JPG,false,1,keypress(m),500,441470.89999997616,441470.6999999881,437520.164,437532.5,437537.186,441487.113,8,400,27,,ISIC_0004848.JPG
break,html.Screen,4_76_1,2023-10-30T22:02:01.046Z,,0,,,NaN,,,,,,false,,,,441471.89999997616,441471.59999996424,,441471.09999996424,,441487.113,8,400,,,
break_continue,html.Screen,4_76_2,2023-10-30T22:02:01.046Z,,0,,,NaN,,,,,,false,,,,441472.1999999881,441472.09999996424,,441472,,441487.113,8,400,,,
sequence,flow.Sequence,4_76,2023-10-30T22:02:01.046Z,,0,,,3934.9139999642503,completion,,,,,false,,,,441472.39999997616,441472.09999996424,437520.164,437532.5,437537.186,441487.113,8,400,,,
trial,html.Screen,4_77_0,2023-10-30T22:02:04.427Z,,0,2,,3366.286999976146,response,ISIC_0071180.JPG,8,ISIC_0062160.JPG,ISIC_0062160.JPG,false,0,keypress(z),500,444853.59999996424,444853.39999997616,441470.482,441472.5,441487.113,444870.428,8,400,28,,ISIC_0071180.JPG
break,html.Screen,4_77_1,2023-10-30T22:02:04.428Z,,0,,,NaN,,,,,,false,,,,444854.59999996424,444854.39999997616,,444853.8000000119,,444870.428,8,400,,,
break_continue,html.Screen,4_77_2,2023-10-30T22:02:04.429Z,,0,,,NaN,,,,,,false,,,,444854.89999997616,444854.8000000119,,444854.6999999881,,444870.428,8,400,,,
sequence,flow.Sequence,4_77,2023-10-30T22:02:04.429Z,,0,,,3367.687000011909,completion,,,,,false,,,,444855,444854.8000000119,441470.482,441472.5,441487.113,444870.428,8,400,,,
trial,html.Screen,4_78_0,2023-10-30T22:02:08.145Z,,0,2,,3700.671999964223,response,ISIC_4777536.JPG,7,ISIC_8013225.JPG,ISIC_4777536.JPG,false,1,keypress(m),500,448571.1999999881,448571.09999996424,444853.609,444855.09999996424,444870.428,448587.175,8,400,29,,ISIC_8013225.JPG
break,html.Screen,4_78_1,2023-10-30T22:02:08.146Z,,0,,,NaN,,,,,,false,,,,448572.3000000119,448571.89999997616,,448571.39999997616,,448587.175,8,400,,,
break_continue,html.Screen,4_78_2,2023-10-30T22:02:08.146Z,,0,,,NaN,,,,,,false,,,,448572.59999996424,448572.59999996424,,448572.5,,448587.175,8,400,,,
sequence,flow.Sequence,4_78,2023-10-30T22:02:08.147Z,,0,,,3702.171999964223,completion,,,,,false,,,,448572.8000000119,448572.59999996424,444853.609,444855.09999996424,444870.428,448587.175,8,400,,,
trial,html.Screen,4_79_0,2023-10-30T22:02:15.239Z,,0,2,,7078.125000011933,response,ISIC_0059897.JPG,20,ISIC_6905623.JPG,ISIC_0059897.JPG,false,1,keypress(m),500,455665.5,455665.3000000119,448570.589,448572.89999997616,448587.175,455671.104,8,400,30,,ISIC_6905623.JPG
break,html.Screen,4_79_1,2023-10-30T22:02:15.240Z,,0,,,NaN,,,,,,false,,,,455666.39999997616,455666.09999996424,,455665.6999999881,,455671.104,8,400,,,
break_continue,html.Screen,4_79_2,2023-10-30T22:02:15.240Z,,0,,,NaN,,,,,,false,,,,455666.59999996424,455666.59999996424,,455666.5,,455671.104,8,400,,,
sequence,flow.Sequence,4_79,2023-10-30T22:02:15.241Z,,0,,,7079.424999964249,completion,,,,,false,,,,455666.8000000119,455666.59999996424,448570.589,448572.89999997616,448587.175,455671.104,8,400,,,
trial,html.Screen,4_80_0,2023-10-30T22:02:18.813Z,,0,2,,3567.896000000008,response,ISIC_0071586.JPG,13,ISIC_0058529.JPG,ISIC_0071586.JPG,false,1,keypress(m),500,459239.39999997616,459239,455654,455666.89999997616,455671.104,459254.015,8,400,31,,ISIC_0058529.JPG
break,html.Screen,4_80_1,2023-10-30T22:02:18.814Z,,0,,,NaN,,,,,,false,,,,459240.3000000119,459239.89999997616,,459239.5,,459254.015,8,400,,,
break_continue,html.Screen,4_80_2,2023-10-30T22:02:18.814Z,,0,,,NaN,,,,,,false,,,,459240.59999996424,459240.5,,459240.39999997616,,459254.015,8,400,,,
sequence,flow.Sequence,4_80,2023-10-30T22:02:18.814Z,,0,,,3569.396000000008,completion,,,,,false,,,,459240.8000000119,459240.5,455654,455666.8000000119,455671.104,459254.015,8,400,,,
trial,html.Screen,4_81_0,2023-10-30T22:02:22.646Z,,0,2,,3817.684999988065,response,ISIC_0058024.JPG,31,ISIC_9630931.JPG,ISIC_0058024.JPG,false,1,keypress(m),500,463071.89999997616,463071.6999999881,459237.288,459240.89999997616,459254.015,463087.466,8,400,32,,ISIC_9630931.JPG
break,html.Screen,4_81_1,2023-10-30T22:02:22.647Z,,0,,,NaN,,,,,,false,,,,463072.89999997616,463072.5,,463072.09999996424,,463087.466,8,400,,,
break_continue,html.Screen,4_81_2,2023-10-30T22:02:22.647Z,,0,,,NaN,,,,,,false,,,,463073.1999999881,463073.1999999881,,463073,,463087.466,8,400,,,
sequence,flow.Sequence,4_81,2023-10-30T22:02:22.647Z,,0,,,3819.184999988065,completion,,,,,false,,,,463073.39999997616,463073.1999999881,459237.288,459240.8000000119,459254.015,463087.466,8,400,,,
trial,html.Screen,4_82_0,2023-10-30T22:02:32.826Z,,0,2,,10164.133999964222,response,ISIC_0011505.JPG,9,ISIC_0069556.JPG,ISIC_0011505.JPG,false,1,keypress(m),500,473251.8000000119,473251.59999996424,463070.335,463073.39999997616,463087.466,473253.692,8,400,33,,ISIC_0069556.JPG
break,html.Screen,4_82_1,2023-10-30T22:02:32.827Z,,0,,,NaN,,,,,,false,,,,473252.8000000119,473252.59999996424,,473252,,473253.692,8,400,,,
break_continue,html.Screen,4_82_2,2023-10-30T22:02:32.827Z,,0,,,NaN,,,,,,false,,,,473253.1999999881,473253.09999996424,,473253,,473253.692,8,400,,,
sequence,flow.Sequence,4_82,2023-10-30T22:02:32.827Z,,0,,,10165.633999964222,completion,,,,,false,,,,473253.3000000119,473253.09999996424,463070.335,463073.39999997616,463087.466,473253.692,8,400,,,
trial,html.Screen,4_83_0,2023-10-30T22:02:36.340Z,,0,2,,3512.007999988098,response,ISIC_5261146.JPG,5,ISIC_0027085.JPG,ISIC_5261146.JPG,false,1,keypress(m),500,476766.09999996424,476765.6999999881,473237.33,473253.5,473253.692,476770.385,8,400,34,,ISIC_0027085.JPG
break,html.Screen,4_83_1,2023-10-30T22:02:36.341Z,,0,,,NaN,,,,,,false,,,,476767.09999996424,476766.8000000119,,476766.1999999881,,476770.385,8,400,,,
break_continue,html.Screen,4_83_2,2023-10-30T22:02:36.341Z,,0,,,NaN,,,,,,false,,,,476767.3000000119,476767.3000000119,,476767.1999999881,,476770.385,8,400,,,
sequence,flow.Sequence,4_83,2023-10-30T22:02:36.341Z,,0,,,3513.60800001194,completion,,,,,false,,,,476767.5,476767.3000000119,473237.33,473253.39999997616,473253.692,476770.385,8,400,,,
trial,html.Screen,4_84_0,2023-10-30T22:02:40.061Z,,0,2,,3716.514999976149,response,ISIC_0010555.JPG,26,ISIC_0024967.JPG,ISIC_0024967.JPG,false,0,keypress(z),500,480487.1999999881,480486.89999997616,476754,476767.59999996424,476770.385,480520.533,8,400,35,,ISIC_0010555.JPG
break,html.Screen,4_84_1,2023-10-30T22:02:40.062Z,,0,,,NaN,,,,,,false,,,,480488.3000000119,480487.8000000119,,480487.39999997616,,480520.533,8,400,,,
break_continue,html.Screen,4_84_2,2023-10-30T22:02:40.062Z,,0,,,NaN,,,,,,false,,,,480488.59999996424,480488.5,,480488.39999997616,,480520.533,8,400,,,
sequence,flow.Sequence,4_84,2023-10-30T22:02:40.062Z,,0,,,3718.1149999999907,completion,,,,,false,,,,480488.6999999881,480488.5,476754,476767.5,476770.385,480520.533,8,400,,,
trial,html.Screen,4_85_0,2023-10-30T22:02:47.349Z,,0,2,,7254.267000011925,response,ISIC_7581199.JPG,12,ISIC_0027798.JPG,ISIC_7581199.JPG,false,1,keypress(m),500,487775,487774.8000000119,480503.754,480488.8000000119,480520.533,487787.073,8,400,36,,ISIC_0027798.JPG
break,html.Screen,4_85_1,2023-10-30T22:02:47.350Z,,0,,,NaN,,,,,,false,,,,487776,487775.59999996424,,487775.1999999881,,487787.073,8,400,,,
break_continue,html.Screen,4_85_2,2023-10-30T22:02:47.350Z,,0,,,NaN,,,,,,false,,,,487776.39999997616,487776.1999999881,,487776.1999999881,,487787.073,8,400,,,
sequence,flow.Sequence,4_85,2023-10-30T22:02:47.350Z,,0,,,7255.666999988083,completion,,,,,false,,,,487776.5,487776.1999999881,480503.754,480488.8000000119,480520.533,487787.073,8,400,,,
trial,html.Screen,4_86_0,2023-10-30T22:02:50.697Z,,0,2,,3336.427000000025,response,ISIC_0046900.JPG,10,ISIC_0010308.JPG,ISIC_0010308.JPG,false,0,keypress(z),500,491123.8000000119,491123.5,487770.418,487776.5,487787.073,491137.371,8,400,37,,ISIC_0046900.JPG
break,html.Screen,4_86_1,2023-10-30T22:02:50.698Z,,0,,,NaN,,,,,,false,,,,491124.6999999881,491124.3000000119,,491124,,491137.371,8,400,,,
break_continue,html.Screen,4_86_2,2023-10-30T22:02:50.699Z,,0,,,NaN,,,,,,false,,,,491125.09999996424,491125,,491124.89999997616,,491137.371,8,400,,,
sequence,flow.Sequence,4_86,2023-10-30T22:02:50.699Z,,0,,,3337.927000000025,completion,,,,,false,,,,491125.3000000119,491125,487770.418,487776.5,487787.073,491137.371,8,400,,,
trial,html.Screen,4_87_0,2023-10-30T22:02:54.079Z,,0,2,,3367.3289999880944,response,ISIC_1785627.JPG,3,ISIC_0013204.JPG,ISIC_1785627.JPG,false,1,keypress(m),500,494505,494504.6999999881,491120.645,491125.39999997616,491137.371,494520.69,8,400,38,,ISIC_0013204.JPG
break,html.Screen,4_87_1,2023-10-30T22:02:54.080Z,,0,,,NaN,,,,,,false,,,,494505.8000000119,494505.5,,494505.09999996424,,494520.69,8,400,,,
break_continue,html.Screen,4_87_2,2023-10-30T22:02:54.080Z,,0,,,NaN,,,,,,false,,,,494506.1999999881,494506.09999996424,,494506,,494520.69,8,400,,,
sequence,flow.Sequence,4_87,2023-10-30T22:02:54.080Z,,0,,,3368.7289999642526,completion,,,,,false,,,,494506.3000000119,494506.09999996424,491120.645,491125.39999997616,491137.371,494520.69,8,400,,,
trial,html.Screen,4_88_0,2023-10-30T22:02:58.482Z,,0,2,,4387.409999964235,response,ISIC_0032723.JPG,10,ISIC_5347806.JPG,ISIC_0032723.JPG,false,1,keypress(m),500,498908.39999997616,498908.09999996424,494503.87,494506.39999997616,494520.69,498920.399,8,400,39,,ISIC_5347806.JPG
break,html.Screen,4_88_1,2023-10-30T22:02:58.483Z,,0,,,NaN,,,,,,false,,,,498909.39999997616,498909.09999996424,,498908.59999996424,,498920.399,8,400,,,
break_continue,html.Screen,4_88_2,2023-10-30T22:02:58.484Z,,0,,,NaN,,,,,,false,,,,498909.89999997616,498909.6999999881,,498909.59999996424,,498920.399,8,400,,,
sequence,flow.Sequence,4_88,2023-10-30T22:02:58.484Z,,0,,,4389.009999988077,completion,,,,,false,,,,498910,498909.6999999881,494503.87,494506.3000000119,494520.69,498920.399,8,400,,,
trial,html.Screen,4_89_0,2023-10-30T22:03:01.930Z,,0,2,,3435.2009999642614,response,ISIC_5888212.JPG,22,ISIC_7980387.JPG,ISIC_7980387.JPG,false,0,keypress(z),500,502355.89999997616,502355.59999996424,498904.047,498910.09999996424,498920.399,502370.721,8,400,40,,ISIC_5888212.JPG
break,html.Screen,4_89_1,2023-10-30T22:03:01.931Z,,0,,,NaN,,,,,,false,,,,502356.89999997616,502356.39999997616,,502356,,502370.721,8,400,,,
break_continue,html.Screen,4_89_2,2023-10-30T22:03:01.931Z,,0,,,NaN,,,,,,false,,,,502357.09999996424,502357,,502356.89999997616,,502370.721,8,400,,,
sequence,flow.Sequence,4_89,2023-10-30T22:03:01.931Z,,0,,,3436.601000000024,completion,,,,,false,,,,502357.1999999881,502357,498904.047,498910,498920.399,502370.721,8,400,,,
trial,html.Screen,4_90_0,2023-10-30T22:03:05.502Z,,0,2,,3556.9789999880595,response,ISIC_5366657.JPG,12,ISIC_6855540.JPG,ISIC_6855540.JPG,false,0,keypress(z),500,505927.89999997616,505927.6999999881,502353.946,502357.3000000119,502370.721,505937.072,8,400,41,,ISIC_5366657.JPG
break,html.Screen,4_90_1,2023-10-30T22:03:05.503Z,,0,,,NaN,,,,,,false,,,,505928.89999997616,505928.5,,505928.09999996424,,505937.072,8,400,,,
break_continue,html.Screen,4_90_2,2023-10-30T22:03:05.503Z,,0,,,NaN,,,,,,false,,,,505929.1999999881,505929.09999996424,,505929,,505937.072,8,400,,,
sequence,flow.Sequence,4_90,2023-10-30T22:03:05.503Z,,0,,,3558.3789999642177,completion,,,,,false,,,,505929.3000000119,505929.09999996424,502353.946,502357.3000000119,502370.721,505937.072,8,400,,,
trial,html.Screen,4_91_0,2023-10-30T22:03:09.560Z,,0,2,,4049.3279999761726,response,ISIC_0047022.JPG,23,ISIC_0009868.JPG,ISIC_0047022.JPG,false,1,keypress(m),500,509986.59999996424,509986.39999997616,505920.641,505929.39999997616,505937.072,510003.946,8,400,42,,ISIC_0009868.JPG
break,html.Screen,4_91_1,2023-10-30T22:03:09.561Z,,0,,,NaN,,,,,,false,,,,509987.59999996424,509987.3000000119,,509986.8000000119,,510003.946,8,400,,,
break_continue,html.Screen,4_91_2,2023-10-30T22:03:09.562Z,,0,,,NaN,,,,,,false,,,,509987.89999997616,509987.8000000119,,509987.8000000119,,510003.946,8,400,,,
sequence,flow.Sequence,4_91,2023-10-30T22:03:09.562Z,,0,,,4050.7280000119354,completion,,,,,false,,,,509988,509987.8000000119,505920.641,505929.39999997616,505937.072,510003.946,8,400,,,
trial,html.Screen,4_92_0,2023-10-30T22:03:14.017Z,,0,2,,4438.953999976162,response,ISIC_7415335.JPG,12,ISIC_0397464.JPG,ISIC_0397464.JPG,false,0,keypress(z),500,514443.09999996424,514442.89999997616,509971.013,509988.1999999881,510003.946,514453.757,8,400,43,,ISIC_7415335.JPG
break,html.Screen,4_92_1,2023-10-30T22:03:14.018Z,,0,,,NaN,,,,,,false,,,,514444,514443.6999999881,,514443.1999999881,,514453.757,8,400,,,
break_continue,html.Screen,4_92_2,2023-10-30T22:03:14.018Z,,0,,,NaN,,,,,,false,,,,514444.39999997616,514444.3000000119,,514444.1999999881,,514453.757,8,400,,,
sequence,flow.Sequence,4_92,2023-10-30T22:03:14.018Z,,0,,,4440.354000011925,completion,,,,,false,,,,514444.5,514444.3000000119,509971.013,509988.1999999881,510003.946,514453.757,8,400,,,
trial,html.Screen,4_93_0,2023-10-30T22:03:19.068Z,,0,2,,5040.442999988096,response,ISIC_2468509.JPG,28,ISIC_8838753.JPG,ISIC_8838753.JPG,false,0,keypress(z),500,519494.5,519494.1999999881,514437.319,514444.59999996424,514453.757,519504.149,8,400,44,,ISIC_2468509.JPG
break,html.Screen,4_93_1,2023-10-30T22:03:19.069Z,,0,,,NaN,,,,,,false,,,,519495.39999997616,519495.09999996424,,519494.6999999881,,519504.149,8,400,,,
break_continue,html.Screen,4_93_2,2023-10-30T22:03:19.069Z,,0,,,NaN,,,,,,false,,,,519495.6999999881,519495.6999999881,,519495.5,,519504.149,8,400,,,
sequence,flow.Sequence,4_93,2023-10-30T22:03:19.070Z,,0,,,5041.942999988096,completion,,,,,false,,,,519495.8000000119,519495.6999999881,514437.319,514444.59999996424,514453.757,519504.149,8,400,,,
trial,html.Screen,4_94_0,2023-10-30T22:03:22.228Z,,0,2,,3150.351000000024,response,ISIC_0011607.JPG,12,ISIC_1885174.JPG,ISIC_1885174.JPG,false,0,keypress(z),500,522654.6999999881,522654.5,519487.307,519496,519504.149,522670.826,8,400,45,,ISIC_0011607.JPG
break,html.Screen,4_94_1,2023-10-30T22:03:22.229Z,,0,,,NaN,,,,,,false,,,,522655.8000000119,522655.3000000119,,522654.89999997616,,522670.826,8,400,,,
break_continue,html.Screen,4_94_2,2023-10-30T22:03:22.230Z,,0,,,NaN,,,,,,false,,,,522656.09999996424,522656,,522655.8000000119,,522670.826,8,400,,,
sequence,flow.Sequence,4_94,2023-10-30T22:03:22.230Z,,0,,,3151.851000000024,completion,,,,,false,,,,522656.1999999881,522656,519487.307,519496,519504.149,522670.826,8,400,,,
trial,html.Screen,4_95_0,2023-10-30T22:03:26.267Z,,0,2,,4022.2739999642363,response,ISIC_6487069.JPG,2,ISIC_2703002.JPG,ISIC_2703002.JPG,false,0,keypress(z),500,526693.3000000119,526693.0999999642,522654.074,522656.3000000119,522670.826,526704.004,8,400,46,,ISIC_6487069.JPG
break,html.Screen,4_95_1,2023-10-30T22:03:26.268Z,,0,,,NaN,,,,,,false,,,,526694.1999999881,526693.8999999762,,526693.3999999762,,526704.004,8,400,,,
break_continue,html.Screen,4_95_2,2023-10-30T22:03:26.268Z,,0,,,NaN,,,,,,false,,,,526694.6999999881,526694.5999999642,,526694.3999999762,,526704.004,8,400,,,
sequence,flow.Sequence,4_95,2023-10-30T22:03:26.269Z,,0,,,4023.7739999642363,completion,,,,,false,,,,526694.8999999762,526694.5999999642,522654.074,522656.3000000119,522670.826,526704.004,8,400,,,
trial,html.Screen,4_96_0,2023-10-30T22:03:30.431Z,,0,2,,4153.09599996428,response,ISIC_0029050.JPG,12,ISIC_4130478.JPG,ISIC_4130478.JPG,false,0,keypress(z),500,530857.5,530857.0999999642,526687.285,526694.8999999762,526704.004,530870.733,8,400,47,,ISIC_0029050.JPG
break,html.Screen,4_96_1,2023-10-30T22:03:30.432Z,,0,,,NaN,,,,,,false,,,,530858.3999999762,530858,,530857.6999999881,,530870.733,8,400,,,
break_continue,html.Screen,4_96_2,2023-10-30T22:03:30.432Z,,0,,,NaN,,,,,,false,,,,530858.6999999881,530858.6999999881,,530858.5,,530870.733,8,400,,,
sequence,flow.Sequence,4_96,2023-10-30T22:03:30.433Z,,0,,,4154.695999988122,completion,,,,,false,,,,530858.8000000119,530858.6999999881,526687.285,526694.8999999762,526704.004,530870.733,8,400,,,
trial,html.Screen,4_97_0,2023-10-30T22:03:33.271Z,,0,2,,2826.1669999761507,response,ISIC_0067840.JPG,19,ISIC_3430953.JPG,ISIC_3430953.JPG,false,0,keypress(z),500,533697.0999999642,533696.8999999762,530854.024,530858.8999999762,530870.733,533703.848,8,400,48,,ISIC_0067840.JPG
break,html.Screen,4_97_1,2023-10-30T22:03:33.272Z,,0,,,NaN,,,,,,false,,,,533698.0999999642,533697.8000000119,,533697.3000000119,,533703.848,8,400,,,
break_continue,html.Screen,4_97_2,2023-10-30T22:03:33.272Z,,0,,,NaN,,,,,,false,,,,533698.3999999762,533698.1999999881,,533698.0999999642,,533703.848,8,400,,,
sequence,flow.Sequence,4_97,2023-10-30T22:03:33.272Z,,0,,,2827.4669999880716,completion,,,,,false,,,,533698.3999999762,533698.1999999881,530854.024,530858.8999999762,530870.733,533703.848,8,400,,,
trial,html.Screen,4_98_0,2023-10-30T22:03:36.526Z,,0,2,,3248.05199997616,response,ISIC_1884256.JPG,8,ISIC_3922580.JPG,ISIC_1884256.JPG,false,1,keypress(m),500,536952.0999999642,536951.8999999762,533687.357,533698.6999999881,533703.848,536970.749,8,400,49,,ISIC_3922580.JPG
break,html.Screen,4_98_1,2023-10-30T22:03:36.527Z,,0,,,NaN,,,,,,false,,,,536953.5999999642,536953.1999999881,,536952.3999999762,,536970.749,8,400,,,
break_continue,html.Screen,4_98_2,2023-10-30T22:03:36.528Z,,0,,,NaN,,,,,,false,,,,536954.0999999642,536953.8000000119,,536953.6999999881,,536970.749,8,400,,,
sequence,flow.Sequence,4_98,2023-10-30T22:03:36.528Z,,0,,,3249.952000011923,completion,,,,,false,,,,536954.3999999762,536953.8000000119,533687.357,533698.5,533703.848,536970.749,8,400,,,
trial,html.Screen,4_99_0,2023-10-30T22:03:41.332Z,,0,2,,4786.950999988127,response,ISIC_0025508.JPG,15,ISIC_4099058.JPG,ISIC_4099058.JPG,false,0,keypress(z),500,541757.8999999762,541757.6999999881,536937.592,536954.5,536970.749,541770.469,8,400,50,,ISIC_0025508.JPG
break,html.Screen,4_99_1,2023-10-30T22:03:51.491Z,,0,,,13617.005999999936,timeout,,,,,false,,,,551917.0999999642,551916.8000000119,541753.988,541758,541770.469,555387.475,8,400,,,
break_continue,html.Screen,4_99_2,2023-10-30T22:04:15.030Z,,0,,,20059.224999988102,response,,,,,false,continue,keypress(Space),,575456.5999999642,575446.6999999881,551916.8000000119,551917.1999999881,555387.475,575470.689,8,400,,,
sequence,flow.Sequence,4_99,2023-10-30T22:04:15.030Z,,0,,,38475.95099998813,completion,,,,,false,,,,575456.6999999881,575446.6999999881,536937.592,536954.5,536970.749,575470.689,8,400,,,
trial,html.Screen,4_100_0,2023-10-30T22:04:20.924Z,,0,3,,5879.611000011908,response,ISIC_9544059.JPG,9,ISIC_0010581.JPG,ISIC_9544059.JPG,false,1,keypress(m),500,581350.5,581350.3000000119,575454.292,575456.8000000119,575470.689,581353.853,8,400,1,,ISIC_0010581.JPG
break,html.Screen,4_100_1,2023-10-30T22:04:20.925Z,,0,,,NaN,,,,,,false,,,,581351.5,581351.0999999642,,581350.6999999881,,581353.853,8,400,,,
break_continue,html.Screen,4_100_2,2023-10-30T22:04:20.926Z,,0,,,NaN,,,,,,false,,,,581351.8000000119,581351.6999999881,,581351.5999999642,,581353.853,8,400,,,
sequence,flow.Sequence,4_100,2023-10-30T22:04:20.926Z,,0,,,5881.010999988066,completion,,,,,false,,,,581352,581351.6999999881,575454.292,575456.8000000119,575470.689,581353.853,8,400,,,
trial,html.Screen,4_101_0,2023-10-30T22:04:25.222Z,,0,3,,4293.746999964234,response,ISIC_0033175.JPG,6,ISIC_0283506.JPG,ISIC_0033175.JPG,false,1,keypress(m),500,585647.8000000119,585647.5999999642,581337.75,581352,581353.853,585654.055,8,400,2,,ISIC_0283506.JPG
break,html.Screen,4_101_1,2023-10-30T22:04:25.223Z,,0,,,NaN,,,,,,false,,,,585648.8000000119,585648.3999999762,,585648.0999999642,,585654.055,8,400,,,
break_continue,html.Screen,4_101_2,2023-10-30T22:04:25.223Z,,0,,,NaN,,,,,,false,,,,585649.1999999881,585649,,585648.8999999762,,585654.055,8,400,,,
sequence,flow.Sequence,4_101,2023-10-30T22:04:25.223Z,,0,,,4295.146999999997,completion,,,,,false,,,,585649.1999999881,585649,581337.75,581352,581353.853,585654.055,8,400,,,
trial,html.Screen,4_102_0,2023-10-30T22:04:29.435Z,,0,3,,4206.544999964186,response,ISIC_9406755.JPG,7,ISIC_0000368.JPG,ISIC_9406755.JPG,false,1,keypress(m),500,589860.8000000119,589860.5999999642,585637.607,585649.3999999762,585654.055,589870.628,8,400,3,,ISIC_0000368.JPG
break,html.Screen,4_102_1,2023-10-30T22:04:29.436Z,,0,,,NaN,,,,,,false,,,,589861.8000000119,589861.5,,589861,,589870.628,8,400,,,
break_continue,html.Screen,4_102_2,2023-10-30T22:04:29.436Z,,0,,,NaN,,,,,,false,,,,589862.0999999642,589862.0999999642,,589861.8999999762,,589870.628,8,400,,,
sequence,flow.Sequence,4_102,2023-10-30T22:04:29.436Z,,0,,,4208.044999964186,completion,,,,,false,,,,589862.3000000119,589862.0999999642,585637.607,585649.3999999762,585654.055,589870.628,8,400,,,
trial,html.Screen,4_103_0,2023-10-30T22:04:34.453Z,,0,3,,5007.971999964211,response,ISIC_0013733.JPG,24,ISIC_0192596.JPG,ISIC_0013733.JPG,false,1,keypress(m),500,594879,594878.5999999642,589854.427,589863.5,589870.628,594887.284,8,400,4,,ISIC_0192596.JPG
break,html.Screen,4_103_1,2023-10-30T22:04:34.454Z,,0,,,NaN,,,,,,false,,,,594880,594879.5999999642,,594879.0999999642,,594887.284,8,400,,,
break_continue,html.Screen,4_103_2,2023-10-30T22:04:34.454Z,,0,,,NaN,,,,,,false,,,,594880.3000000119,594880.3000000119,,594880.0999999642,,594887.284,8,400,,,
sequence,flow.Sequence,4_103,2023-10-30T22:04:34.454Z,,0,,,5009.672000011895,completion,,,,,false,,,,594880.3999999762,594880.3000000119,589854.427,589863.5,589870.628,594887.284,8,400,,,
trial,html.Screen,4_104_0,2023-10-30T22:04:39.067Z,,0,3,,4606.115999976173,response,ISIC_6895016.JPG,5,ISIC_2526170.JPG,ISIC_2526170.JPG,false,0,keypress(z),500,599493.6999999881,599493.3999999762,594870.132,594880.5999999642,594887.284,599503.866,8,400,5,,ISIC_6895016.JPG
break,html.Screen,4_104_1,2023-10-30T22:04:39.068Z,,0,,,NaN,,,,,,false,,,,599494.5999999642,599494.3000000119,,599493.8999999762,,599503.866,8,400,,,
break_continue,html.Screen,4_104_2,2023-10-30T22:04:39.069Z,,0,,,NaN,,,,,,false,,,,599494.8999999762,599494.8999999762,,599494.6999999881,,599503.866,8,400,,,
sequence,flow.Sequence,4_104,2023-10-30T22:04:39.069Z,,0,,,4607.615999976173,completion,,,,,false,,,,599495.0999999642,599494.8999999762,594870.132,594880.5,594887.284,599503.866,8,400,,,
trial,html.Screen,4_105_0,2023-10-30T22:04:42.895Z,,0,3,,3817.53399997612,response,ISIC_7844565.JPG,26,ISIC_0027089.JPG,ISIC_0027089.JPG,false,0,keypress(z),500,603321.8000000119,603321.3999999762,599487.408,599495.1999999881,599503.866,603337.436,8,400,6,,ISIC_7844565.JPG
break,html.Screen,4_105_1,2023-10-30T22:04:42.897Z,,0,,,NaN,,,,,,false,,,,603322.8000000119,603322.3999999762,,603322,,603337.436,8,400,,,
break_continue,html.Screen,4_105_2,2023-10-30T22:04:42.897Z,,0,,,NaN,,,,,,false,,,,603323.1999999881,603323.0999999642,,603322.8999999762,,603337.436,8,400,,,
sequence,flow.Sequence,4_105,2023-10-30T22:04:42.897Z,,0,,,3819.233999964199,completion,,,,,false,,,,603323.1999999881,603323.0999999642,599487.408,599495.1999999881,599503.866,603337.436,8,400,,,
trial,html.Screen,4_106_0,2023-10-30T22:04:48.150Z,,0,3,,5238.763999988092,response,ISIC_0062048.JPG,4,ISIC_3979323.JPG,ISIC_0062048.JPG,false,1,keypress(m),500,608576.5,608576.1999999881,603321.318,603323.3999999762,603337.436,608587.438,8,400,7,,ISIC_3979323.JPG
break,html.Screen,4_106_1,2023-10-30T22:04:48.151Z,,0,,,NaN,,,,,,false,,,,608577.5,608577.0999999642,,608576.6999999881,,608587.438,8,400,,,
break_continue,html.Screen,4_106_2,2023-10-30T22:04:48.152Z,,0,,,NaN,,,,,,false,,,,608577.8999999762,608577.8999999762,,608577.6999999881,,608587.438,8,400,,,
sequence,flow.Sequence,4_106,2023-10-30T22:04:48.152Z,,0,,,5240.463999976171,completion,,,,,false,,,,608578.0999999642,608577.8999999762,603321.318,603323.3999999762,603337.436,608587.438,8,400,,,
trial,html.Screen,4_107_0,2023-10-30T22:04:53.115Z,,0,3,,4953.7619999881135,response,ISIC_5167209.JPG,10,ISIC_6605122.JPG,ISIC_6605122.JPG,false,0,keypress(z),500,613541.3999999762,613541.1999999881,608571.507,608578.1999999881,608587.438,613554.182,8,400,8,,ISIC_5167209.JPG
break,html.Screen,4_107_1,2023-10-30T22:04:53.116Z,,0,,,NaN,,,,,,false,,,,613542.3999999762,613542,,613541.5,,613554.182,8,400,,,
break_continue,html.Screen,4_107_2,2023-10-30T22:04:53.117Z,,0,,,NaN,,,,,,false,,,,613542.8000000119,613542.5999999642,,613542.5999999642,,613554.182,8,400,,,
sequence,flow.Sequence,4_107,2023-10-30T22:04:53.117Z,,0,,,4955.161999964272,completion,,,,,false,,,,613542.8999999762,613542.5999999642,608571.507,608578.1999999881,608587.438,613554.182,8,400,,,
trial,html.Screen,4_108_0,2023-10-30T22:05:00.960Z,,0,3,,7831.217999976128,response,ISIC_9397126.JPG,9,ISIC_0011810.JPG,ISIC_0011810.JPG,false,0,keypress(z),500,621385.8000000119,621385.3999999762,613537.518,613543,613554.182,621404.061,8,400,9,,ISIC_9397126.JPG
break,html.Screen,4_108_1,2023-10-30T22:05:00.961Z,,0,,,NaN,,,,,,false,,,,621387,621386.6999999881,,621386.0999999642,,621404.061,8,400,,,
break_continue,html.Screen,4_108_2,2023-10-30T22:05:00.961Z,,0,,,NaN,,,,,,false,,,,621387.5999999642,621387.3000000119,,621387.1999999881,,621404.061,8,400,,,
sequence,flow.Sequence,4_108,2023-10-30T22:05:00.962Z,,0,,,7833.118000011891,completion,,,,,false,,,,621387.8000000119,621387.3000000119,613537.518,613543,613554.182,621404.061,8,400,,,
trial,html.Screen,4_109_0,2023-10-30T22:05:05.208Z,,0,3,,4229.939000000013,response,ISIC_9104843.JPG,6,ISIC_1554992.JPG,ISIC_1554992.JPG,false,0,keypress(z),500,625634.3000000119,625634,621387.336,621388,621404.061,625637.226,8,400,10,,ISIC_9104843.JPG
break,html.Screen,4_109_1,2023-10-30T22:05:05.209Z,,0,,,NaN,,,,,,false,,,,625635.1999999881,625634.8999999762,,625634.5,,625637.226,8,400,,,
break_continue,html.Screen,4_109_2,2023-10-30T22:05:05.209Z,,0,,,NaN,,,,,,false,,,,625635.5,625635.3999999762,,625635.3000000119,,625637.226,8,400,,,
sequence,flow.Sequence,4_109,2023-10-30T22:05:05.209Z,,0,,,4231.338999976171,completion,,,,,false,,,,625635.5999999642,625635.3999999762,621387.336,621387.8999999762,621404.061,625637.226,8,400,,,
trial,html.Screen,4_110_0,2023-10-30T22:05:10.783Z,,0,3,,5571.473999988055,response,ISIC_0033845.JPG,12,ISIC_8569205.JPG,ISIC_8569205.JPG,false,0,keypress(z),500,631208.8999999762,631208.6999999881,625621.126,625635.6999999881,625637.226,631220.649,8,400,11,,ISIC_0033845.JPG
break,html.Screen,4_110_1,2023-10-30T22:05:10.784Z,,0,,,NaN,,,,,,false,,,,631209.8000000119,631209.5,,631209.0999999642,,631220.649,8,400,,,
break_continue,html.Screen,4_110_2,2023-10-30T22:05:10.784Z,,0,,,NaN,,,,,,false,,,,631210.1999999881,631210,,631210,,631220.649,8,400,,,
sequence,flow.Sequence,4_110,2023-10-30T22:05:10.784Z,,0,,,5572.773999999976,completion,,,,,false,,,,631210.3000000119,631210,625621.126,625635.5999999642,625637.226,631220.649,8,400,,,
trial,html.Screen,4_111_0,2023-10-30T22:05:15.457Z,,0,3,,4662.651000011945,response,ISIC_0003046.JPG,6,ISIC_9203914.JPG,ISIC_0003046.JPG,false,1,keypress(m),500,635883.5,635883.3000000119,631204.107,631210.3999999762,631220.649,635887.252,8,400,12,,ISIC_9203914.JPG
break,html.Screen,4_111_1,2023-10-30T22:05:15.458Z,,0,,,NaN,,,,,,false,,,,635884.5999999642,635884.3000000119,,635883.6999999881,,635887.252,8,400,,,
break_continue,html.Screen,4_111_2,2023-10-30T22:05:15.459Z,,0,,,NaN,,,,,,false,,,,635884.8999999762,635884.8000000119,,635884.6999999881,,635887.252,8,400,,,
sequence,flow.Sequence,4_111,2023-10-30T22:05:15.459Z,,0,,,4664.151000011945,completion,,,,,false,,,,635885.0999999642,635884.8000000119,631204.107,631210.3000000119,631220.649,635887.252,8,400,,,
trial,html.Screen,4_112_0,2023-10-30T22:05:19.404Z,,0,3,,3942.3479999642586,response,ISIC_7724764.JPG,28,ISIC_4730433.JPG,ISIC_4730433.JPG,false,0,keypress(z),500,639829.8000000119,639829.5999999642,635870.826,635885.0999999642,635887.252,639837.799,8,400,13,,ISIC_7724764.JPG
break,html.Screen,4_112_1,2023-10-30T22:05:19.405Z,,0,,,NaN,,,,,,false,,,,639830.8000000119,639830.3999999762,,639829.8999999762,,639837.799,8,400,,,
break_continue,html.Screen,4_112_2,2023-10-30T22:05:19.405Z,,0,,,NaN,,,,,,false,,,,639831.0999999642,639831,,639830.8999999762,,639837.799,8,400,,,
sequence,flow.Sequence,4_112,2023-10-30T22:05:19.405Z,,0,,,3943.7480000000214,completion,,,,,false,,,,639831.1999999881,639831,635870.826,635885.0999999642,635887.252,639837.799,8,400,,,
trial,html.Screen,4_113_0,2023-10-30T22:05:24.772Z,,0,3,,5360.501000011922,response,ISIC_2743014.JPG,9,ISIC_0026996.JPG,ISIC_0026996.JPG,false,0,keypress(z),500,645198.5999999642,645198.3000000119,639820.529,639831.3000000119,639837.799,645204.003,8,400,14,,ISIC_2743014.JPG
break,html.Screen,4_113_1,2023-10-30T22:05:24.773Z,,0,,,NaN,,,,,,false,,,,645199.5999999642,645199.0999999642,,645198.8000000119,,645204.003,8,400,,,
break_continue,html.Screen,4_113_2,2023-10-30T22:05:24.774Z,,0,,,NaN,,,,,,false,,,,645199.8999999762,645199.8000000119,,645199.6999999881,,645204.003,8,400,,,
sequence,flow.Sequence,4_113,2023-10-30T22:05:24.774Z,,0,,,5362.001000011922,completion,,,,,false,,,,645200.0999999642,645199.8000000119,639820.529,639831.1999999881,639837.799,645204.003,8,400,,,
trial,html.Screen,4_114_0,2023-10-30T22:05:28.908Z,,0,3,,4130.297000011895,response,ISIC_6993129.JPG,12,ISIC_0063258.JPG,ISIC_0063258.JPG,false,0,keypress(z),500,649334.5999999642,649334.3000000119,645187.636,645200.1999999881,645204.003,649337.246,8,400,15,,ISIC_6993129.JPG
break,html.Screen,4_114_1,2023-10-30T22:05:28.909Z,,0,,,NaN,,,,,,false,,,,649335.5,649335,,649334.5999999642,,649337.246,8,400,,,
break_continue,html.Screen,4_114_2,2023-10-30T22:05:28.909Z,,0,,,NaN,,,,,,false,,,,649335.8000000119,649335.6999999881,,649335.5,,649337.246,8,400,,,
sequence,flow.Sequence,4_114,2023-10-30T22:05:28.910Z,,0,,,4131.696999988053,completion,,,,,false,,,,649335.8000000119,649335.6999999881,645187.636,645200.0999999642,645204.003,649337.246,8,400,,,
trial,html.Screen,4_115_0,2023-10-30T22:05:34.294Z,,0,3,,5383.153999976115,response,ISIC_0063655.JPG,19,ISIC_8427534.JPG,ISIC_0063655.JPG,false,1,keypress(m),500,654720.6999999881,654720.3999999762,649320.962,649336,649337.246,654737.355,8,400,16,,ISIC_8427534.JPG
break,html.Screen,4_115_1,2023-10-30T22:05:34.296Z,,0,,,NaN,,,,,,false,,,,654721.8000000119,654721.3000000119,,654720.8999999762,,654737.355,8,400,,,
break_continue,html.Screen,4_115_2,2023-10-30T22:05:34.296Z,,0,,,NaN,,,,,,false,,,,654722.0999999642,654722,,654721.8999999762,,654737.355,8,400,,,
sequence,flow.Sequence,4_115,2023-10-30T22:05:34.296Z,,0,,,5384.753999999957,completion,,,,,false,,,,654722.3000000119,654722,649320.962,649336,649337.246,654737.355,8,400,,,
trial,html.Screen,4_116_0,2023-10-30T22:05:38.542Z,,0,3,,4230.44500001194,response,ISIC_0069743.JPG,7,ISIC_0028481.JPG,ISIC_0028481.JPG,false,0,keypress(z),500,658968,658967.8000000119,654720.945,654722.3000000119,654737.355,658970.595,8,400,17,,ISIC_0069743.JPG
break,html.Screen,4_116_1,2023-10-30T22:05:38.543Z,,0,,,NaN,,,,,,false,,,,658969,658968.6999999881,,658968.1999999881,,658970.595,8,400,,,
break_continue,html.Screen,4_116_2,2023-10-30T22:05:38.543Z,,0,,,NaN,,,,,,false,,,,658969.3000000119,658969.1999999881,,658969.0999999642,,658970.595,8,400,,,
sequence,flow.Sequence,4_116,2023-10-30T22:05:38.543Z,,0,,,4231.844999988098,completion,,,,,false,,,,658969.5,658969.1999999881,654720.945,654722.3000000119,654737.355,658970.595,8,400,,,
trial,html.Screen,4_117_0,2023-10-30T22:05:41.363Z,,0,3,,2818.705000011949,response,ISIC_7407847.JPG,21,ISIC_0523125.JPG,ISIC_0523125.JPG,false,0,keypress(z),500,661789.5,661789.3000000119,658954.244,658969.5999999642,658970.595,661804.24,8,400,18,,ISIC_7407847.JPG
break,html.Screen,4_117_1,2023-10-30T22:05:41.364Z,,0,,,NaN,,,,,,false,,,,661790.5,661790.0999999642,,661789.6999999881,,661804.24,8,400,,,
break_continue,html.Screen,4_117_2,2023-10-30T22:05:41.364Z,,0,,,NaN,,,,,,false,,,,661790.8000000119,661790.6999999881,,661790.5999999642,,661804.24,8,400,,,
sequence,flow.Sequence,4_117,2023-10-30T22:05:41.365Z,,0,,,2820.104999988107,completion,,,,,false,,,,661790.8999999762,661790.6999999881,658954.244,658969.5,658970.595,661804.24,8,400,,,
trial,html.Screen,4_118_0,2023-10-30T22:05:48.124Z,,0,3,,6746.3599999642465,response,ISIC_4237064.JPG,5,ISIC_0014171.JPG,ISIC_0014171.JPG,false,0,keypress(z),500,668550.8000000119,668550.5999999642,661787.754,661791,661804.24,668553.961,8,400,19,,ISIC_4237064.JPG
break,html.Screen,4_118_1,2023-10-30T22:05:48.125Z,,0,,,NaN,,,,,,false,,,,668551.6999999881,668551.3999999762,,668551,,668553.961,8,400,,,
break_continue,html.Screen,4_118_2,2023-10-30T22:05:48.126Z,,0,,,NaN,,,,,,false,,,,668552.0999999642,668552,,668551.8999999762,,668553.961,8,400,,,
sequence,flow.Sequence,4_118,2023-10-30T22:05:48.126Z,,0,,,6747.760000000009,completion,,,,,false,,,,668552.3000000119,668552,661787.754,661791,661804.24,668553.961,8,400,,,
trial,html.Screen,4_119_0,2023-10-30T22:05:51.873Z,,0,3,,3745.138999964227,response,ISIC_9193127.JPG,7,ISIC_8161933.JPG,ISIC_8161933.JPG,false,0,keypress(z),500,672299.3999999762,672299.0999999642,668536.852,668552.3000000119,668553.961,672303.971,8,400,20,,ISIC_9193127.JPG
break,html.Screen,4_119_1,2023-10-30T22:05:51.874Z,,0,,,NaN,,,,,,false,,,,672300.3000000119,672299.8999999762,,672299.5,,672303.971,8,400,,,
break_continue,html.Screen,4_119_2,2023-10-30T22:05:51.874Z,,0,,,NaN,,,,,,false,,,,672300.6999999881,672300.5999999642,,672300.5,,672303.971,8,400,,,
sequence,flow.Sequence,4_119,2023-10-30T22:05:51.874Z,,0,,,3746.638999964227,completion,,,,,false,,,,672300.8000000119,672300.5999999642,668536.852,668552.3000000119,668553.961,672303.971,8,400,,,
trial,html.Screen,4_120_0,2023-10-30T22:05:58.007Z,,0,3,,6129.428999976139,response,ISIC_3590997.JPG,1,ISIC_2772581.JPG,ISIC_2772581.JPG,false,0,keypress(z),500,678433.6999999881,678433.3999999762,672287.577,672300.8999999762,672303.971,678454.02,8,400,21,,ISIC_3590997.JPG
break,html.Screen,4_120_1,2023-10-30T22:05:58.008Z,,0,,,NaN,,,,,,false,,,,678434.0999999642,678434,,678433.8000000119,,678454.02,8,400,,,
break_continue,html.Screen,4_120_2,2023-10-30T22:05:58.008Z,,0,,,NaN,,,,,,false,,,,678434.3000000119,678434.3000000119,,678434.1999999881,,678454.02,8,400,,,
sequence,flow.Sequence,4_120,2023-10-30T22:05:58.008Z,,0,,,6130.329000011901,completion,,,,,false,,,,678434.5,678434.3000000119,672287.577,672300.8999999762,672303.971,678454.02,8,400,,,
trial,html.Screen,4_121_0,2023-10-30T22:06:01.611Z,,0,3,,3583.0799999642186,response,ISIC_0070308.JPG,11,ISIC_0067511.JPG,ISIC_0067511.JPG,false,0,keypress(z),500,682037.3000000119,682037.0999999642,678437.438,678434.5,678454.02,682054.094,8,400,22,,ISIC_0070308.JPG
break,html.Screen,4_121_1,2023-10-30T22:06:01.612Z,,0,,,NaN,,,,,,false,,,,682038.3000000119,682037.8999999762,,682037.5,,682054.094,8,400,,,
break_continue,html.Screen,4_121_2,2023-10-30T22:06:01.612Z,,0,,,NaN,,,,,,false,,,,682038.8000000119,682038.6999999881,,682038.5,,682054.094,8,400,,,
sequence,flow.Sequence,4_121,2023-10-30T22:06:01.613Z,,0,,,3584.6799999880604,completion,,,,,false,,,,682039,682038.6999999881,678437.438,678434.5,678454.02,682054.094,8,400,,,
trial,html.Screen,4_122_0,2023-10-30T22:06:06.418Z,,0,3,,4789.605999988038,response,ISIC_8855102.JPG,16,ISIC_0071012.JPG,ISIC_0071012.JPG,false,0,keypress(z),500,686844,686843.6999999881,682021.854,682039.1999999881,682054.094,686853.92,8,400,23,,ISIC_8855102.JPG
break,html.Screen,4_122_1,2023-10-30T22:06:06.419Z,,0,,,NaN,,,,,,false,,,,686844.8999999762,686844.5999999642,,686844.0999999642,,686853.92,8,400,,,
break_continue,html.Screen,4_122_2,2023-10-30T22:06:06.419Z,,0,,,NaN,,,,,,false,,,,686845.5,686845.3000000119,,686845.0999999642,,686853.92,8,400,,,
sequence,flow.Sequence,4_122,2023-10-30T22:06:06.419Z,,0,,,4791.20600001188,completion,,,,,false,,,,686845.6999999881,686845.3000000119,682021.854,682039.0999999642,682054.094,686853.92,8,400,,,
trial,html.Screen,4_123_0,2023-10-30T22:06:13.016Z,,0,3,,6587.979999976116,response,ISIC_6373500.JPG,9,ISIC_0024232.JPG,ISIC_0024232.JPG,false,0,keypress(z),500,693442.1999999881,693441.8999999762,686837.664,686845.8000000119,686853.92,693454.21,8,400,24,,ISIC_6373500.JPG
break,html.Screen,4_123_1,2023-10-30T22:06:13.017Z,,0,,,NaN,,,,,,false,,,,693443.0999999642,693442.8999999762,,693442.3000000119,,693454.21,8,400,,,
break_continue,html.Screen,4_123_2,2023-10-30T22:06:13.017Z,,0,,,NaN,,,,,,false,,,,693443.6999999881,693443.5,,693443.3999999762,,693454.21,8,400,,,
sequence,flow.Sequence,4_123,2023-10-30T22:06:13.018Z,,0,,,6589.579999999958,completion,,,,,false,,,,693443.8999999762,693443.5,686837.664,686845.8000000119,686853.92,693454.21,8,400,,,
trial,html.Screen,4_124_0,2023-10-30T22:06:24.512Z,,0,3,,11516.616000000038,timeout,ISIC_0025056.JPG,5,ISIC_4966865.JPG,ISIC_0025056.JPG,false,,,500,704938.5,704938.1999999881,693437.391,693444.0999999642,693454.21,704970.826,8,400,25,,ISIC_4966865.JPG
break,html.Screen,4_124_1,2023-10-30T22:06:24.513Z,,0,,,NaN,,,,,,false,,,,704939.0999999642,704939,,704938.6999999881,,704970.826,8,400,,,
break_continue,html.Screen,4_124_2,2023-10-30T22:06:24.513Z,,0,,,NaN,,,,,,false,,,,704939.5,704939.1999999881,,704939.0999999642,,704970.826,8,400,,,
sequence,flow.Sequence,4_124,2023-10-30T22:06:24.513Z,,0,,,11484.989999988116,completion,,,,,false,,,,704939.6999999881,704939.1999999881,693437.391,693444.0999999642,693454.21,704970.826,8,400,,,
trial,html.Screen,4_125_0,2023-10-30T22:06:27.912Z,,0,3,,3366.2739999642363,response,ISIC_0783513.JPG,9,ISIC_0071778.JPG,ISIC_0783513.JPG,false,1,keypress(m),500,708338.5,708337.0999999642,704954.207,704939.8000000119,704970.826,708354.11,8,400,26,,ISIC_0071778.JPG
break,html.Screen,4_125_1,2023-10-30T22:06:27.913Z,,0,,,NaN,,,,,,false,,,,708339.6999999881,708339.3999999762,,708338.8000000119,,708354.11,8,400,,,
break_continue,html.Screen,4_125_2,2023-10-30T22:06:27.914Z,,0,,,NaN,,,,,,false,,,,708340.3000000119,708340,,708339.8000000119,,708354.11,8,400,,,
sequence,flow.Sequence,4_125,2023-10-30T22:06:27.914Z,,0,,,3369.173999999999,completion,,,,,false,,,,708340.6999999881,708340,704954.207,704939.6999999881,704970.826,708354.11,8,400,,,
trial,html.Screen,4_126_0,2023-10-30T22:06:31.907Z,,0,3,,3978.989999964251,response,ISIC_0059625.JPG,20,ISIC_0057009.JPG,ISIC_0057009.JPG,false,0,keypress(z),500,712333.3000000119,712333.0999999642,708337.631,708340.8000000119,708354.11,712337.339,8,400,27,,ISIC_0059625.JPG
break,html.Screen,4_126_1,2023-10-30T22:06:31.908Z,,0,,,NaN,,,,,,false,,,,712334.3000000119,712333.8999999762,,712333.5,,712337.339,8,400,,,
