sender,sender_type,sender_id,timestamp,meta,,blockNo,condition,duration,ended_on,img_left,img_reveal,img_right,loser,practice,response,response_action,selection_duration,time_commit,time_end,time_render,time_run,time_show,time_switch,total_blocks,total_trials,trialNo,url,winner
informed_consent,html.Screen,0,2023-09-15T18:59:16.174Z,"{""labjs_version"":""20.2.4"",""labjs_build"":{""flavor"":""production"",""commit"":""f5b4a49f956347addd546a832a3327688c2c0fef""},""location"":""https://run.pavlovia.org/MurrayBennett/melanoma-2afc/?participant=67294&platform=sona"",""userAgent"":""Mozilla/5.0 (Windows NT 10.0; Win64; x64) AppleWebKit/537.36 (KHTML, like Gecko) Chrome/116.0.0.0 Safari/537.36"",""platform"":""Win32"",""language"":""en-US"",""locale"":""en-US"",""timeZone"":""America/Chicago"",""timezoneOffset"":300,""screen_width"":1536,""screen_height"":864,""scroll_width"":1536,""scroll_height"":678,""window_innerWidth"":1536,""window_innerHeight"":726,""devicePixelRatio"":1.25}",,,,5100.757999988079,response,,,,,,consent,click button,,7499,7498.199999988079,2137.597,2394.5,2397.442,7504.279,,,,"{""participant"":""67294"",""platform"":""sona""}",
Welcome,html.Screen,1,2023-09-15T19:00:05.820Z,,,,symmetry,49639.92099998808,response,,,,,,continue,click button,,57144.59999999404,57144.19999998808,7497.65,7499,7504.279,57147.112,,,,,
trial,html.Screen,2_0_0,2023-09-15T19:00:11.425Z,,0,0,,5602.887999999999,response,ISIC_0069348.JPG,,ISIC_6997061.JPG,ISIC_0069348.JPG,true,1,keypress(m),500,62750.09999999404,62750,57143.767,57144.69999998808,57147.112,62753.777,1,6,1,,ISIC_6997061.JPG
sequence,flow.Sequence,2_0,2023-09-15T19:00:11.426Z,,0,,,5602.887999999999,completion,,,,,true,,,,62750.29999998212,62750,57143.767,57144.69999998808,57147.112,62753.777,1,6,,,
trial,html.Screen,2_1_0,2023-09-15T19:00:17.140Z,,0,0,,5711.222999999998,response,ISIC_0009529.JPG,,ISIC_0057368.JPG,ISIC_0057368.JPG,true,0,keypress(z),500,68465.09999999404,68465,62750.398,62750.29999998212,62753.777,68466.883,1,6,2,,ISIC_0009529.JPG
sequence,flow.Sequence,2_1,2023-09-15T19:00:17.141Z,,0,,,5711.222999999998,completion,,,,,true,,,,68465.19999998808,68465,62750.398,62750.29999998212,62753.777,68466.883,1,6,,,
trial,html.Screen,2_2_0,2023-09-15T19:00:23.032Z,,0,0,,5889.816999988077,response,ISIC_0064954.JPG,,ISIC_9758671.JPG,ISIC_9758671.JPG,true,0,keypress(z),500,74356.89999997616,74356.69999998808,68463.553,68465.29999998212,68466.883,74359.927,1,6,3,,ISIC_0064954.JPG
sequence,flow.Sequence,2_2,2023-09-15T19:00:23.032Z,,0,,,5889.816999988077,completion,,,,,true,,,,74357.09999999404,74356.69999998808,68463.553,68465.19999998808,68466.883,74359.927,1,6,,,
trial,html.Screen,2_3_0,2023-09-15T19:00:26.941Z,,0,0,,3905.272999988083,response,ISIC_0000080.JPG,,ISIC_0005785.JPG,ISIC_0005785.JPG,true,0,keypress(z),500,78265.19999998808,78265.19999998808,74356.601,74357.09999999404,74359.927,78267.56,1,6,4,,ISIC_0000080.JPG
sequence,flow.Sequence,2_3,2023-09-15T19:00:26.941Z,,0,,,3905.272999988083,completion,,,,,true,,,,78265.39999997616,78265.19999998808,74356.601,74357.09999999404,74359.927,78267.56,1,6,,,
trial,html.Screen,2_4_0,2023-09-15T19:00:30.927Z,,0,0,,3983.539999994042,response,ISIC_5390060.JPG,,ISIC_7944028.JPG,ISIC_5390060.JPG,true,1,keypress(m),500,82251.19999998808,82251.09999999404,78264.142,78265.5,78267.56,82258.419,1,6,5,,ISIC_7944028.JPG
sequence,flow.Sequence,2_4,2023-09-15T19:00:30.927Z,,0,,,3983.539999994042,completion,,,,,true,,,,82251.29999998212,82251.09999999404,78264.142,78265.39999997616,78267.56,82258.419,1,6,,,
trial,html.Screen,2_5_0,2023-09-15T19:00:34.512Z,,0,0,,3578.0810000000056,response,ISIC_0794216.JPG,,ISIC_0010188.JPG,ISIC_0010188.JPG,true,0,keypress(z),500,85836.59999999404,85836.5,82255.257,82251.29999998212,82258.419,85839.569,1,6,6,,ISIC_0794216.JPG
sequence,flow.Sequence,2_5,2023-09-15T19:00:34.512Z,,0,,,3578.0810000000056,completion,,,,,true,,,,85836.69999998808,85836.5,82255.257,82251.29999998212,82258.419,85839.569,1,6,,,
loop,flow.Loop,2,2023-09-15T19:00:34.512Z,,,,,28689.388,completion,,,,,true,,,,85836.69999998808,85836.5,57143.767,57144.59999999404,57147.112,85839.569,1,6,,,
exp_instructions,html.Screen,3,2023-09-15T19:00:53.462Z,,,,,18946.830999976155,response,,,,,,continue,keypress(Space),,104786.89999997616,104786.39999997616,85836.153,85836.79999998212,85839.569,104792.176,,,,,
trial,html.Screen,4_0_0,2023-09-15T19:00:58.893Z,,0,1,,5425.623999982112,response,ISIC_0061562.JPG,5,ISIC_0029963.JPG,ISIC_0061562.JPG,false,1,keypress(m),500,110217.89999997616,110217.79999998212,104786.494,104787,104792.176,110221.244,8,400,1,,ISIC_0029963.JPG
break,html.Screen,4_0_1,2023-09-15T19:00:58.894Z,,0,,,NaN,,,,,,false,,,,110218.29999998212,110218.09999999404,,110218,,110221.244,8,400,,,
break_continue,html.Screen,4_0_2,2023-09-15T19:00:58.894Z,,0,,,NaN,,,,,,false,,,,110218.39999997616,110218.29999998212,,110218.29999998212,,110221.244,8,400,,,
sequence,flow.Sequence,4_0,2023-09-15T19:00:58.894Z,,0,,,5426.123999982112,completion,,,,,false,,,,110218.39999997616,110218.29999998212,104786.494,104787,104792.176,110221.244,8,400,,,
trial,html.Screen,4_1_0,2023-09-15T19:01:08.607Z,,0,1,,9710.055999982113,response,ISIC_0026868.JPG,5,ISIC_0067667.JPG,ISIC_0026868.JPG,false,1,keypress(m),500,119931.29999998212,119931.29999998212,110217.826,110218.5,110221.244,119936.253,8,400,2,,ISIC_0067667.JPG
break,html.Screen,4_1_1,2023-09-15T19:01:08.607Z,,0,,,NaN,,,,,,false,,,,119931.59999999404,119931.5,,119931.39999997616,,119936.253,8,400,,,
break_continue,html.Screen,4_1_2,2023-09-15T19:01:08.607Z,,0,,,NaN,,,,,,false,,,,119931.79999998212,119931.79999998212,,119931.69999998808,,119936.253,8,400,,,
sequence,flow.Sequence,4_1,2023-09-15T19:01:08.607Z,,0,,,9710.555999982113,completion,,,,,false,,,,119931.89999997616,119931.79999998212,110217.826,110218.5,110221.244,119936.253,8,400,,,
trial,html.Screen,4_2_0,2023-09-15T19:01:16.673Z,,0,1,,8061.546999982122,response,ISIC_7933945.JPG,5,ISIC_0034289.JPG,ISIC_0034289.JPG,false,0,keypress(z),500,127997.79999998212,127997.79999998212,119928.448,119932,119936.253,128000.258,8,400,3,,ISIC_7933945.JPG
break,html.Screen,4_2_1,2023-09-15T19:01:16.673Z,,0,,,NaN,,,,,,false,,,,127998.19999998808,127998.09999999404,,127998,,128000.258,8,400,,,
break_continue,html.Screen,4_2_2,2023-09-15T19:01:16.674Z,,0,,,NaN,,,,,,false,,,,127998.39999997616,127998.29999998212,,127998.29999998212,,128000.258,8,400,,,
sequence,flow.Sequence,4_2,2023-09-15T19:01:16.674Z,,0,,,8062.046999982122,completion,,,,,false,,,,127998.39999997616,127998.29999998212,119928.448,119931.89999997616,119936.253,128000.258,8,400,,,
trial,html.Screen,4_3_0,2023-09-15T19:01:20.569Z,,0,1,,3893.541999982117,response,ISIC_0031821.JPG,5,ISIC_6292348.JPG,ISIC_6292348.JPG,false,0,keypress(z),500,131893.89999997616,131893.79999998212,127996.925,127998.5,128000.258,131898.792,8,400,4,,ISIC_0031821.JPG
break,html.Screen,4_3_1,2023-09-15T19:01:20.569Z,,0,,,NaN,,,,,,false,,,,131894.09999999404,131894.09999999404,,131894,,131898.792,8,400,,,
break_continue,html.Screen,4_3_2,2023-09-15T19:01:20.570Z,,0,,,NaN,,,,,,false,,,,131894.39999997616,131894.29999998212,,131894.19999998808,,131898.792,8,400,,,
sequence,flow.Sequence,4_3,2023-09-15T19:01:20.570Z,,0,,,3894.041999982117,completion,,,,,false,,,,131894.39999997616,131894.29999998212,127996.925,127998.5,128000.258,131898.792,8,400,,,
trial,html.Screen,4_4_0,2023-09-15T19:01:23.521Z,,0,1,,2947.307999994053,response,ISIC_1020369.JPG,5,ISIC_4272317.JPG,ISIC_4272317.JPG,false,0,keypress(z),500,134846.09999999404,134846.09999999404,131891.085,131894.5,131898.792,134849.54,8,400,5,,ISIC_1020369.JPG
break,html.Screen,4_4_1,2023-09-15T19:01:23.522Z,,0,,,NaN,,,,,,false,,,,134846.39999997616,134846.29999998212,,134846.19999998808,,134849.54,8,400,,,
break_continue,html.Screen,4_4_2,2023-09-15T19:01:23.522Z,,0,,,NaN,,,,,,false,,,,134846.59999999404,134846.59999999404,,134846.59999999404,,134849.54,8,400,,,
sequence,flow.Sequence,4_4,2023-09-15T19:01:23.522Z,,0,,,2947.807999994053,completion,,,,,false,,,,134846.69999998808,134846.59999999404,131891.085,131894.5,131898.792,134849.54,8,400,,,
trial,html.Screen,4_5_0,2023-09-15T19:01:26.341Z,,0,1,,2816.159999988071,response,ISIC_0028969.JPG,5,ISIC_8170849.JPG,ISIC_0028969.JPG,false,1,keypress(m),500,137665.79999998212,137665.69999998808,134845.925,134846.79999998212,134849.54,137667.63,8,400,6,,ISIC_8170849.JPG
break,html.Screen,4_5_1,2023-09-15T19:01:26.341Z,,0,,,NaN,,,,,,false,,,,137666.09999999404,137666,,137665.89999997616,,137667.63,8,400,,,
break_continue,html.Screen,4_5_2,2023-09-15T19:01:26.342Z,,0,,,NaN,,,,,,false,,,,137666.19999998808,137666.09999999404,,137666.09999999404,,137667.63,8,400,,,
sequence,flow.Sequence,4_5,2023-09-15T19:01:26.342Z,,0,,,2816.5599999940314,completion,,,,,false,,,,137666.29999998212,137666.09999999404,134845.925,134846.79999998212,134849.54,137667.63,8,400,,,
trial,html.Screen,4_6_0,2023-09-15T19:01:31.224Z,,0,1,,4880.669999982114,response,ISIC_0013777.JPG,5,ISIC_0033568.JPG,ISIC_0033568.JPG,false,0,keypress(z),500,142548.39999997616,142548.29999998212,137664.378,137666.29999998212,137667.63,142551.287,8,400,7,,ISIC_0013777.JPG
break,html.Screen,4_6_1,2023-09-15T19:01:31.224Z,,0,,,NaN,,,,,,false,,,,142548.59999999404,142548.5,,142548.5,,142551.287,8,400,,,
break_continue,html.Screen,4_6_2,2023-09-15T19:01:31.224Z,,0,,,NaN,,,,,,false,,,,142548.79999998212,142548.79999998212,,142548.69999998808,,142551.287,8,400,,,
sequence,flow.Sequence,4_6,2023-09-15T19:01:31.224Z,,0,,,4881.169999982114,completion,,,,,false,,,,142548.89999997616,142548.79999998212,137664.378,137666.29999998212,137667.63,142551.287,8,400,,,
trial,html.Screen,4_7_0,2023-09-15T19:01:39.279Z,,0,1,,8052.612999976147,response,ISIC_6008974.JPG,6,ISIC_7413786.JPG,ISIC_7413786.JPG,false,0,keypress(z),500,150604,150603.89999997616,142547.908,142549,142551.287,150606.367,8,400,8,,ISIC_6008974.JPG
break,html.Screen,4_7_1,2023-09-15T19:01:39.280Z,,0,,,NaN,,,,,,false,,,,150604.39999997616,150604.29999998212,,150604.09999999404,,150606.367,8,400,,,
break_continue,html.Screen,4_7_2,2023-09-15T19:01:39.280Z,,0,,,NaN,,,,,,false,,,,150604.39999997616,150604.39999997616,,150604.39999997616,,150606.367,8,400,,,
sequence,flow.Sequence,4_7,2023-09-15T19:01:39.280Z,,0,,,8053.112999976147,completion,,,,,false,,,,150604.5,150604.39999997616,142547.908,142549,142551.287,150606.367,8,400,,,
trial,html.Screen,4_8_0,2023-09-15T19:01:42.897Z,,0,1,,3615.0329999761598,response,ISIC_3963183.JPG,6,ISIC_0032509.JPG,ISIC_0032509.JPG,false,0,keypress(z),500,154221.39999997616,154221.39999997616,150602.998,150604.59999999404,150606.367,154224.139,8,400,9,,ISIC_3963183.JPG
break,html.Screen,4_8_1,2023-09-15T19:01:42.898Z,,0,,,NaN,,,,,,false,,,,154222.29999998212,154221.59999999404,,154221.59999999404,,154224.139,8,400,,,
break_continue,html.Screen,4_8_2,2023-09-15T19:01:42.898Z,,0,,,NaN,,,,,,false,,,,154222.5,154222.5,,154222.39999997616,,154224.139,8,400,,,
sequence,flow.Sequence,4_8,2023-09-15T19:01:42.898Z,,0,,,3616.1330000000016,completion,,,,,false,,,,154222.59999999404,154222.5,150602.998,150604.59999999404,150606.367,154224.139,8,400,,,
trial,html.Screen,4_9_0,2023-09-15T19:01:45.876Z,,0,1,,2976.5609999880835,response,ISIC_0054123.JPG,5,ISIC_7448231.JPG,ISIC_0054123.JPG,false,1,keypress(m),500,157200.89999997616,157200.69999998808,154220.699,154222.59999999404,154224.139,157206.606,8,400,10,,ISIC_7448231.JPG
break,html.Screen,4_9_1,2023-09-15T19:01:45.877Z,,0,,,NaN,,,,,,false,,,,157201.39999997616,157201.29999998212,,157201.09999999404,,157206.606,8,400,,,
break_continue,html.Screen,4_9_2,2023-09-15T19:01:45.877Z,,0,,,NaN,,,,,,false,,,,157201.59999999404,157201.59999999404,,157201.5,,157206.606,8,400,,,
sequence,flow.Sequence,4_9,2023-09-15T19:01:45.877Z,,0,,,2977.460999994044,completion,,,,,false,,,,157201.59999999404,157201.59999999404,154220.699,154222.59999999404,154224.139,157206.606,8,400,,,
trial,html.Screen,4_10_0,2023-09-15T19:01:49.371Z,,0,1,,3488.9939999940398,response,ISIC_0472513.JPG,5,ISIC_0011163.JPG,ISIC_0011163.JPG,false,0,keypress(z),500,160695.69999998808,160695.59999999404,157198.931,157201.59999999404,157206.606,160700.937,8,400,11,,ISIC_0472513.JPG
break,html.Screen,4_10_1,2023-09-15T19:01:49.371Z,,0,,,NaN,,,,,,false,,,,160695.89999997616,160695.89999997616,,160695.79999998212,,160700.937,8,400,,,
break_continue,html.Screen,4_10_2,2023-09-15T19:01:49.371Z,,0,,,NaN,,,,,,false,,,,160696.09999999404,160696,,160696,,160700.937,8,400,,,
sequence,flow.Sequence,4_10,2023-09-15T19:01:49.371Z,,0,,,3489.3940000000002,completion,,,,,false,,,,160696.09999999404,160696,157198.931,157201.59999999404,157206.606,160700.937,8,400,,,
trial,html.Screen,4_11_0,2023-09-15T19:01:52.676Z,,0,1,,3300.162999994034,response,ISIC_0026407.JPG,4,ISIC_0025748.JPG,ISIC_0025748.JPG,false,0,keypress(z),500,164001.09999999404,164001.09999999404,160693.539,160696.09999999404,160700.937,164004.895,8,400,12,,ISIC_0026407.JPG
break,html.Screen,4_11_1,2023-09-15T19:01:52.677Z,,0,,,NaN,,,,,,false,,,,164001.5,164001.29999998212,,164001.29999998212,,164004.895,8,400,,,
break_continue,html.Screen,4_11_2,2023-09-15T19:01:52.677Z,,0,,,NaN,,,,,,false,,,,164001.69999998808,164001.59999999404,,164001.59999999404,,164004.895,8,400,,,
sequence,flow.Sequence,4_11,2023-09-15T19:01:52.677Z,,0,,,3300.662999994034,completion,,,,,false,,,,164001.79999998212,164001.59999999404,160693.539,160696.09999999404,160700.937,164004.895,8,400,,,
trial,html.Screen,4_12_0,2023-09-15T19:01:57.431Z,,0,1,,4750.6050000000105,response,ISIC_0011092.JPG,5,ISIC_0014222.JPG,ISIC_0014222.JPG,false,0,keypress(z),500,168755.59999999404,168755.5,164001.396,164001.89999997616,164004.895,168758.554,8,400,13,,ISIC_0011092.JPG
break,html.Screen,4_12_1,2023-09-15T19:01:57.431Z,,0,,,NaN,,,,,,false,,,,168755.79999998212,168755.69999998808,,168755.59999999404,,168758.554,8,400,,,
break_continue,html.Screen,4_12_2,2023-09-15T19:01:57.431Z,,0,,,NaN,,,,,,false,,,,168756.09999999404,168756,,168755.79999998212,,168758.554,8,400,,,
sequence,flow.Sequence,4_12,2023-09-15T19:01:57.431Z,,0,,,4751.1050000000105,completion,,,,,false,,,,168756.19999998808,168756,164001.396,164001.79999998212,164004.895,168758.554,8,400,,,
trial,html.Screen,4_13_0,2023-09-15T19:02:00.620Z,,0,1,,3185.9459999999963,response,ISIC_0033603.JPG,5,ISIC_0030047.JPG,ISIC_0030047.JPG,false,0,keypress(z),500,171944.59999999404,171944.5,168755.16,168756.19999998808,168758.554,171946.599,8,400,14,,ISIC_0033603.JPG
break,html.Screen,4_13_1,2023-09-15T19:02:00.620Z,,0,,,NaN,,,,,,false,,,,171944.79999998212,171944.69999998808,,171944.59999999404,,171946.599,8,400,,,
break_continue,html.Screen,4_13_2,2023-09-15T19:02:00.620Z,,0,,,NaN,,,,,,false,,,,171945.09999999404,171945.09999999404,,171944.89999997616,,171946.599,8,400,,,
sequence,flow.Sequence,4_13,2023-09-15T19:02:00.620Z,,0,,,3186.545999994036,completion,,,,,false,,,,171945.09999999404,171945.09999999404,168755.16,168756.19999998808,168758.554,171946.599,8,400,,,
trial,html.Screen,4_14_0,2023-09-15T19:02:06.493Z,,0,1,,5871.200999982131,response,ISIC_1473522.JPG,5,ISIC_0000155.JPG,ISIC_1473522.JPG,false,1,keypress(m),500,177817.89999997616,177817.79999998212,171943.165,171945.19999998808,171946.599,177819.648,8,400,15,,ISIC_0000155.JPG
break,html.Screen,4_14_1,2023-09-15T19:02:06.493Z,,0,,,NaN,,,,,,false,,,,177818.09999999404,177818,,177818,,177819.648,8,400,,,
break_continue,html.Screen,4_14_2,2023-09-15T19:02:06.494Z,,0,,,NaN,,,,,,false,,,,177818.39999997616,177818.29999998212,,177818.29999998212,,177819.648,8,400,,,
sequence,flow.Sequence,4_14,2023-09-15T19:02:06.494Z,,0,,,5871.700999982131,completion,,,,,false,,,,177818.39999997616,177818.29999998212,171943.165,171945.19999998808,171946.599,177819.648,8,400,,,
trial,html.Screen,4_15_0,2023-09-15T19:02:09.488Z,,0,1,,2992.951999994053,response,ISIC_4252887.JPG,5,ISIC_0000142.JPG,ISIC_4252887.JPG,false,1,keypress(m),500,180812.79999998212,180812.59999999404,177816.243,177818.39999997616,177819.648,180814.504,8,400,16,,ISIC_0000142.JPG
break,html.Screen,4_15_1,2023-09-15T19:02:09.488Z,,0,,,NaN,,,,,,false,,,,180813.19999998808,180813,,180812.89999997616,,180814.504,8,400,,,
break_continue,html.Screen,4_15_2,2023-09-15T19:02:09.489Z,,0,,,NaN,,,,,,false,,,,180813.39999997616,180813.39999997616,,180813.29999998212,,180814.504,8,400,,,
sequence,flow.Sequence,4_15,2023-09-15T19:02:09.489Z,,0,,,2993.7519999761716,completion,,,,,false,,,,180813.5,180813.39999997616,177816.243,177818.39999997616,177819.648,180814.504,8,400,,,
trial,html.Screen,4_16_0,2023-09-15T19:02:12.594Z,,0,1,,3104.195999988093,response,ISIC_0010372.JPG,5,ISIC_0028573.JPG,ISIC_0028573.JPG,false,0,keypress(z),500,183918.79999998212,183918.69999998808,180810.999,180813.59999999404,180814.504,183922.626,8,400,17,,ISIC_0010372.JPG
break,html.Screen,4_16_1,2023-09-15T19:02:12.594Z,,0,,,NaN,,,,,,false,,,,183919.09999999404,183919,,183918.89999997616,,183922.626,8,400,,,
break_continue,html.Screen,4_16_2,2023-09-15T19:02:12.595Z,,0,,,NaN,,,,,,false,,,,183919.39999997616,183919.39999997616,,183919.29999998212,,183922.626,8,400,,,
sequence,flow.Sequence,4_16,2023-09-15T19:02:12.595Z,,0,,,3104.895999976172,completion,,,,,false,,,,183919.5,183919.39999997616,180810.999,180813.59999999404,180814.504,183922.626,8,400,,,
trial,html.Screen,4_17_0,2023-09-15T19:02:18.004Z,,0,1,,5406.273999976169,response,ISIC_1957685.JPG,5,ISIC_0053594.JPG,ISIC_0053594.JPG,false,0,keypress(z),500,189329,189328.89999997616,183919.097,183919.59999999404,183922.626,189332.6,8,400,18,,ISIC_1957685.JPG
break,html.Screen,4_17_1,2023-09-15T19:02:18.005Z,,0,,,NaN,,,,,,false,,,,189329.39999997616,189329.19999998808,,189329.09999999404,,189332.6,8,400,,,
break_continue,html.Screen,4_17_2,2023-09-15T19:02:18.005Z,,0,,,NaN,,,,,,false,,,,189329.59999999404,189329.59999999404,,189329.5,,189332.6,8,400,,,
sequence,flow.Sequence,4_17,2023-09-15T19:02:18.005Z,,0,,,5406.97399999405,completion,,,,,false,,,,189329.79999998212,189329.59999999404,183919.097,183919.59999999404,183922.626,189332.6,8,400,,,
trial,html.Screen,4_18_0,2023-09-15T19:02:22.918Z,,0,1,,4910.499999994034,response,ISIC_0065823.JPG,5,ISIC_0034316.JPG,ISIC_0065823.JPG,false,1,keypress(m),500,194243.19999998808,194243.09999999404,189329.183,189329.79999998212,189332.6,194246.281,8,400,19,,ISIC_0034316.JPG
break,html.Screen,4_18_1,2023-09-15T19:02:22.919Z,,0,,,NaN,,,,,,false,,,,194243.39999997616,194243.29999998212,,194243.29999998212,,194246.281,8,400,,,
break_continue,html.Screen,4_18_2,2023-09-15T19:02:22.919Z,,0,,,NaN,,,,,,false,,,,194243.59999999404,194243.59999999404,,194243.5,,194246.281,8,400,,,
sequence,flow.Sequence,4_18,2023-09-15T19:02:22.919Z,,0,,,4910.999999994034,completion,,,,,false,,,,194243.59999999404,194243.59999999404,189329.183,189329.79999998212,189332.6,194246.281,8,400,,,
trial,html.Screen,4_19_0,2023-09-15T19:02:27.112Z,,0,1,,4190.418999988091,response,ISIC_0011802.JPG,5,ISIC_0009886.JPG,ISIC_0009886.JPG,false,0,keypress(z),500,198436.79999998212,198436.69999998808,194242.928,194243.69999998808,194246.281,198440.439,8,400,20,,ISIC_0011802.JPG
break,html.Screen,4_19_1,2023-09-15T19:02:27.112Z,,0,,,NaN,,,,,,false,,,,198437.19999998808,198437,,198436.89999997616,,198440.439,8,400,,,
break_continue,html.Screen,4_19_2,2023-09-15T19:02:27.113Z,,0,,,NaN,,,,,,false,,,,198437.39999997616,198437.29999998212,,198437.19999998808,,198440.439,8,400,,,
sequence,flow.Sequence,4_19,2023-09-15T19:02:27.113Z,,0,,,4191.0189999821305,completion,,,,,false,,,,198437.5,198437.29999998212,194242.928,194243.69999998808,194246.281,198440.439,8,400,,,
trial,html.Screen,4_20_0,2023-09-15T19:02:30.651Z,,0,1,,3535.6609999940265,response,ISIC_0033365.JPG,4,ISIC_0027130.JPG,ISIC_0027130.JPG,false,0,keypress(z),500,201976.09999999404,201976.09999999404,198436.959,198437.5,198440.439,201978.131,8,400,21,,ISIC_0033365.JPG
break,html.Screen,4_20_1,2023-09-15T19:02:30.652Z,,0,,,NaN,,,,,,false,,,,201976.39999997616,201976.39999997616,,201976.19999998808,,201978.131,8,400,,,
break_continue,html.Screen,4_20_2,2023-09-15T19:02:30.652Z,,0,,,NaN,,,,,,false,,,,201976.69999998808,201976.59999999404,,201976.5,,201978.131,8,400,,,
sequence,flow.Sequence,4_20,2023-09-15T19:02:30.652Z,,0,,,3536.1609999940265,completion,,,,,false,,,,201976.79999998212,201976.59999999404,198436.959,198437.5,198440.439,201978.131,8,400,,,
trial,html.Screen,4_21_0,2023-09-15T19:02:34.350Z,,0,1,,3696.1689999821247,response,ISIC_0032622.JPG,5,ISIC_0032892.JPG,ISIC_0032892.JPG,false,0,keypress(z),500,205674.29999998212,205674.29999998212,201974.693,201976.79999998212,201978.131,205675.907,8,400,22,,ISIC_0032622.JPG
break,html.Screen,4_21_1,2023-09-15T19:02:34.350Z,,0,,,NaN,,,,,,false,,,,205674.59999999404,205674.5,,205674.5,,205675.907,8,400,,,
break_continue,html.Screen,4_21_2,2023-09-15T19:02:34.350Z,,0,,,NaN,,,,,,false,,,,205674.79999998212,205674.69999998808,,205674.59999999404,,205675.907,8,400,,,
sequence,flow.Sequence,4_21,2023-09-15T19:02:34.350Z,,0,,,3696.568999988085,completion,,,,,false,,,,205674.79999998212,205674.69999998808,201974.693,201976.79999998212,201978.131,205675.907,8,400,,,
trial,html.Screen,4_22_0,2023-09-15T19:02:37.907Z,,0,1,,3555.4929999761516,response,ISIC_5272345.JPG,5,ISIC_0011529.JPG,ISIC_0011529.JPG,false,0,keypress(z),500,209231.39999997616,209231.39999997616,205672.383,205674.79999998212,205675.907,209233.67,8,400,23,,ISIC_5272345.JPG
break,html.Screen,4_22_1,2023-09-15T19:02:37.907Z,,0,,,NaN,,,,,,false,,,,209231.69999998808,209231.69999998808,,209231.5,,209233.67,8,400,,,
break_continue,html.Screen,4_22_2,2023-09-15T19:02:37.907Z,,0,,,NaN,,,,,,false,,,,209231.89999997616,209231.89999997616,,209231.79999998212,,209233.67,8,400,,,
sequence,flow.Sequence,4_22,2023-09-15T19:02:37.907Z,,0,,,3555.9929999761516,completion,,,,,false,,,,209232,209231.89999997616,205672.383,205674.79999998212,205675.907,209233.67,8,400,,,
trial,html.Screen,4_23_0,2023-09-15T19:02:41.653Z,,0,1,,3744.0299999880663,response,ISIC_0064683.JPG,4,ISIC_6954782.JPG,ISIC_0064683.JPG,false,1,keypress(m),500,212977.79999998212,212977.69999998808,209230.269,209232.09999999404,209233.67,212981.384,8,400,24,,ISIC_6954782.JPG
break,html.Screen,4_23_1,2023-09-15T19:02:41.653Z,,0,,,NaN,,,,,,false,,,,212978,212978,,212977.79999998212,,212981.384,8,400,,,
break_continue,html.Screen,4_23_2,2023-09-15T19:02:41.653Z,,0,,,NaN,,,,,,false,,,,212978.19999998808,212978.19999998808,,212978.09999999404,,212981.384,8,400,,,
sequence,flow.Sequence,4_23,2023-09-15T19:02:41.654Z,,0,,,3744.5299999880663,completion,,,,,false,,,,212978.29999998212,212978.19999998808,209230.269,209232.09999999404,209233.67,212981.384,8,400,,,
trial,html.Screen,4_24_0,2023-09-15T19:02:45.079Z,,0,1,,3422.116000000009,response,ISIC_3277722.JPG,5,ISIC_0058647.JPG,ISIC_0058647.JPG,false,0,keypress(z),500,216403.5,216403.5,212977.943,212978.29999998212,212981.384,216405.867,8,400,25,,ISIC_3277722.JPG
break,html.Screen,4_24_1,2023-09-15T19:02:45.079Z,,0,,,NaN,,,,,,false,,,,216403.79999998212,216403.69999998808,,216403.59999999404,,216405.867,8,400,,,
break_continue,html.Screen,4_24_2,2023-09-15T19:02:45.079Z,,0,,,NaN,,,,,,false,,,,216404,216403.79999998212,,216403.79999998212,,216405.867,8,400,,,
sequence,flow.Sequence,4_24,2023-09-15T19:02:45.079Z,,0,,,3422.4159999821277,completion,,,,,false,,,,216404,216403.79999998212,212977.943,212978.29999998212,212981.384,216405.867,8,400,,,
trial,html.Screen,4_25_0,2023-09-15T19:02:47.768Z,,0,1,,2687.1330000000016,response,ISIC_0011496.JPG,5,ISIC_7323761.JPG,ISIC_0011496.JPG,false,1,keypress(m),500,219093,219093,216402.486,216404,216405.867,219097.593,8,400,26,,ISIC_7323761.JPG
break,html.Screen,4_25_1,2023-09-15T19:02:47.769Z,,0,,,NaN,,,,,,false,,,,219093.29999998212,219093.29999998212,,219093.09999999404,,219097.593,8,400,,,
break_continue,html.Screen,4_25_2,2023-09-15T19:02:47.769Z,,0,,,NaN,,,,,,false,,,,219093.39999997616,219093.39999997616,,219093.29999998212,,219097.593,8,400,,,
sequence,flow.Sequence,4_25,2023-09-15T19:02:47.769Z,,0,,,2687.5329999761598,completion,,,,,false,,,,219093.5,219093.39999997616,216402.486,216404,216405.867,219097.593,8,400,,,
trial,html.Screen,4_26_0,2023-09-15T19:02:54.044Z,,0,1,,6271.006999994046,response,ISIC_0066150.JPG,5,ISIC_0010409.JPG,ISIC_0010409.JPG,false,0,keypress(z),500,225368.79999998212,225368.59999999404,219094.253,219093.5,219097.593,225370.393,8,400,27,,ISIC_0066150.JPG
break,html.Screen,4_26_1,2023-09-15T19:02:54.044Z,,0,,,NaN,,,,,,false,,,,225369.09999999404,225369,,225368.79999998212,,225370.393,8,400,,,
break_continue,html.Screen,4_26_2,2023-09-15T19:02:54.045Z,,0,,,NaN,,,,,,false,,,,225369.29999998212,225369.19999998808,,225369.09999999404,,225370.393,8,400,,,
sequence,flow.Sequence,4_26,2023-09-15T19:02:54.045Z,,0,,,6271.606999988086,completion,,,,,false,,,,225369.29999998212,225369.19999998808,219094.253,219093.5,219097.593,225370.393,8,400,,,
trial,html.Screen,4_27_0,2023-09-15T19:02:58.718Z,,0,1,,4671.806999988068,response,ISIC_5769654.JPG,5,ISIC_0006750.JPG,ISIC_0006750.JPG,false,0,keypress(z),500,230042.19999998808,230042.19999998808,225366.955,225369.29999998212,225370.393,230044.197,8,400,28,,ISIC_5769654.JPG
break,html.Screen,4_27_1,2023-09-15T19:02:58.718Z,,0,,,NaN,,,,,,false,,,,230042.5,230042.39999997616,,230042.29999998212,,230044.197,8,400,,,
break_continue,html.Screen,4_27_2,2023-09-15T19:02:58.718Z,,0,,,NaN,,,,,,false,,,,230042.79999998212,230042.69999998808,,230042.59999999404,,230044.197,8,400,,,
sequence,flow.Sequence,4_27,2023-09-15T19:02:58.718Z,,0,,,4672.306999988068,completion,,,,,false,,,,230042.89999997616,230042.69999998808,225366.955,225369.29999998212,225370.393,230044.197,8,400,,,
trial,html.Screen,4_28_0,2023-09-15T19:03:01.508Z,,0,1,,2788.2029999761726,response,ISIC_5223096.JPG,6,ISIC_0072021.JPG,ISIC_0072021.JPG,false,0,keypress(z),500,232832.5,232832.39999997616,230040.867,230042.89999997616,230044.197,232835.894,8,400,29,,ISIC_5223096.JPG
break,html.Screen,4_28_1,2023-09-15T19:03:01.508Z,,0,,,NaN,,,,,,false,,,,232832.69999998808,232832.69999998808,,232832.59999999404,,232835.894,8,400,,,
break_continue,html.Screen,4_28_2,2023-09-15T19:03:01.508Z,,0,,,NaN,,,,,,false,,,,232832.79999998212,232832.79999998212,,232832.79999998212,,232835.894,8,400,,,
sequence,flow.Sequence,4_28,2023-09-15T19:03:01.508Z,,0,,,2788.602999982133,completion,,,,,false,,,,232832.89999997616,232832.79999998212,230040.867,230042.89999997616,230044.197,232835.894,8,400,,,
trial,html.Screen,4_29_0,2023-09-15T19:03:07.173Z,,0,1,,5661.905999982118,response,ISIC_0027604.JPG,6,ISIC_5897134.JPG,ISIC_5897134.JPG,false,0,keypress(z),500,238498,238497.79999998212,232832.448,232832.89999997616,232835.894,238504.035,8,400,30,,ISIC_0027604.JPG
break,html.Screen,4_29_1,2023-09-15T19:03:07.174Z,,0,,,NaN,,,,,,false,,,,238498.29999998212,238498.09999999404,,238498,,238504.035,8,400,,,
break_continue,html.Screen,4_29_2,2023-09-15T19:03:07.174Z,,0,,,NaN,,,,,,false,,,,238498.39999997616,238498.39999997616,,238498.29999998212,,238504.035,8,400,,,
sequence,flow.Sequence,4_29,2023-09-15T19:03:07.174Z,,0,,,5662.505999976158,completion,,,,,false,,,,238498.39999997616,238498.39999997616,232832.448,232832.89999997616,232835.894,238504.035,8,400,,,
trial,html.Screen,4_30_0,2023-09-15T19:03:10.526Z,,0,1,,3347.1649999880756,response,ISIC_6590303.JPG,6,ISIC_1254469.JPG,ISIC_6590303.JPG,false,1,keypress(m),500,241851.29999998212,241851.19999998808,238495.561,238498.5,238504.035,241853.618,8,400,31,,ISIC_1254469.JPG
break,html.Screen,4_30_1,2023-09-15T19:03:10.526Z,,0,,,NaN,,,,,,false,,,,241851.5,241851.5,,241851.39999997616,,241853.618,8,400,,,
break_continue,html.Screen,4_30_2,2023-09-15T19:03:10.526Z,,0,,,NaN,,,,,,false,,,,241851.69999998808,241851.69999998808,,241851.59999999404,,241853.618,8,400,,,
sequence,flow.Sequence,4_30,2023-09-15T19:03:10.526Z,,0,,,3347.6649999880756,completion,,,,,false,,,,241851.79999998212,241851.69999998808,238495.561,238498.39999997616,238504.035,241853.618,8,400,,,
trial,html.Screen,4_31_0,2023-09-15T19:03:13.302Z,,0,1,,2773.681999982131,response,ISIC_4190900.JPG,7,ISIC_6828892.JPG,ISIC_4190900.JPG,false,1,keypress(m),500,244627.5,244627.29999998212,241850.148,241851.79999998212,241853.618,244632.788,8,400,32,,ISIC_6828892.JPG
break,html.Screen,4_31_1,2023-09-15T19:03:13.302Z,,0,,,NaN,,,,,,false,,,,244627.69999998808,244627.59999999404,,244627.5,,244632.788,8,400,,,
break_continue,html.Screen,4_31_2,2023-09-15T19:03:13.302Z,,0,,,NaN,,,,,,false,,,,244627.79999998212,244627.69999998808,,244627.69999998808,,244632.788,8,400,,,
sequence,flow.Sequence,4_31,2023-09-15T19:03:13.302Z,,0,,,2774.0819999880914,completion,,,,,false,,,,244627.89999997616,244627.69999998808,241850.148,241851.79999998212,241853.618,244632.788,8,400,,,
trial,html.Screen,4_32_0,2023-09-15T19:03:16.888Z,,0,1,,3580.4119999880786,response,ISIC_3779093.JPG,4,ISIC_4391909.JPG,ISIC_4391909.JPG,false,0,keypress(z),500,248213.29999998212,248213.19999998808,244625.093,244627.89999997616,244632.788,248216.281,8,400,33,,ISIC_3779093.JPG
break,html.Screen,4_32_1,2023-09-15T19:03:16.888Z,,0,,,NaN,,,,,,false,,,,248213.59999999404,248213.59999999404,,248213.39999997616,,248216.281,8,400,,,
break_continue,html.Screen,4_32_2,2023-09-15T19:03:16.888Z,,0,,,NaN,,,,,,false,,,,248213.79999998212,248213.69999998808,,248213.69999998808,,248216.281,8,400,,,
sequence,flow.Sequence,4_32,2023-09-15T19:03:16.888Z,,0,,,3580.9119999880786,completion,,,,,false,,,,248213.89999997616,248213.69999998808,244625.093,244627.89999997616,244632.788,248216.281,8,400,,,
trial,html.Screen,4_33_0,2023-09-15T19:03:22.334Z,,0,1,,5443.11899997617,response,ISIC_0066952.JPG,5,ISIC_0030970.JPG,ISIC_0030970.JPG,false,0,keypress(z),500,253659.5,253659.39999997616,248212.925,248213.89999997616,248216.281,253662.97,8,400,34,,ISIC_0066952.JPG
break,html.Screen,4_33_1,2023-09-15T19:03:22.334Z,,0,,,NaN,,,,,,false,,,,253659.69999998808,253659.69999998808,,253659.59999999404,,253662.97,8,400,,,
break_continue,html.Screen,4_33_2,2023-09-15T19:03:22.334Z,,0,,,NaN,,,,,,false,,,,253659.89999997616,253659.79999998212,,253659.79999998212,,253662.97,8,400,,,
sequence,flow.Sequence,4_33,2023-09-15T19:03:22.334Z,,0,,,5443.5189999821305,completion,,,,,false,,,,253659.89999997616,253659.79999998212,248212.925,248213.89999997616,248216.281,253662.97,8,400,,,
trial,html.Screen,4_34_0,2023-09-15T19:03:29.264Z,,0,1,,6926.929999976157,response,ISIC_0065200.JPG,5,ISIC_0070163.JPG,ISIC_0070163.JPG,false,0,keypress(z),500,260590,260589.89999997616,253659.572,253660,253662.97,260592.122,8,400,35,,ISIC_0065200.JPG
break,html.Screen,4_34_1,2023-09-15T19:03:29.265Z,,0,,,NaN,,,,,,false,,,,260590.29999998212,260590.19999998808,,260590.09999999404,,260592.122,8,400,,,
break_continue,html.Screen,4_34_2,2023-09-15T19:03:29.265Z,,0,,,NaN,,,,,,false,,,,260590.59999999404,260590.5,,260590.39999997616,,260592.122,8,400,,,
sequence,flow.Sequence,4_34,2023-09-15T19:03:29.265Z,,0,,,6927.529999999999,completion,,,,,false,,,,260590.69999998808,260590.5,253659.572,253660,253662.97,260592.122,8,400,,,
trial,html.Screen,4_35_0,2023-09-15T19:03:32.178Z,,0,1,,2911.777999976155,response,ISIC_0033754.JPG,6,ISIC_0010707.JPG,ISIC_0010707.JPG,false,0,keypress(z),500,263504.09999999404,263503.89999997616,260588.615,260590.69999998808,260592.122,263510.251,8,400,36,,ISIC_0033754.JPG
break,html.Screen,4_35_1,2023-09-15T19:03:32.179Z,,0,,,NaN,,,,,,false,,,,263504.2999999821,263504.1999999881,,263504.09999999404,,263510.251,8,400,,,
break_continue,html.Screen,4_35_2,2023-09-15T19:03:32.179Z,,0,,,NaN,,,,,,false,,,,263504.39999997616,263504.2999999821,,263504.2999999821,,263510.251,8,400,,,
sequence,flow.Sequence,4_35,2023-09-15T19:03:32.179Z,,0,,,2912.1779999821156,completion,,,,,false,,,,263504.39999997616,263504.2999999821,260588.615,260590.69999998808,260592.122,263510.251,8,400,,,
trial,html.Screen,4_36_0,2023-09-15T19:03:35.084Z,,0,1,,2899.0489999821293,response,ISIC_0064823.JPG,5,ISIC_0011995.JPG,ISIC_0064823.JPG,false,1,keypress(m),500,266409.39999997616,266409.2999999821,263506.956,263504.39999997616,263510.251,266411.81,8,400,37,,ISIC_0011995.JPG
break,html.Screen,4_36_1,2023-09-15T19:03:35.084Z,,0,,,NaN,,,,,,false,,,,266409.6999999881,266409.59999999404,,266409.5,,266411.81,8,400,,,
break_continue,html.Screen,4_36_2,2023-09-15T19:03:35.084Z,,0,,,NaN,,,,,,false,,,,266409.89999997616,266409.7999999821,,266409.6999999881,,266411.81,8,400,,,
sequence,flow.Sequence,4_36,2023-09-15T19:03:35.084Z,,0,,,2899.5489999821293,completion,,,,,false,,,,266409.89999997616,266409.7999999821,263506.956,263504.39999997616,263510.251,266411.81,8,400,,,
trial,html.Screen,4_37_0,2023-09-15T19:03:38.062Z,,0,1,,2975.8899999880814,response,ISIC_3440813.JPG,4,ISIC_0034104.JPG,ISIC_3440813.JPG,false,1,keypress(m),500,269387.7999999821,269387.6999999881,266408.492,266410,266411.81,269394.748,8,400,38,,ISIC_0034104.JPG
break,html.Screen,4_37_1,2023-09-15T19:03:38.063Z,,0,,,NaN,,,,,,false,,,,269388.5,269388,,269387.89999997616,,269394.748,8,400,,,
break_continue,html.Screen,4_37_2,2023-09-15T19:03:38.065Z,,0,,,NaN,,,,,,false,,,,269390.09999999404,269390,,269389.2999999821,,269394.748,8,400,,,
sequence,flow.Sequence,4_37,2023-09-15T19:03:38.065Z,,0,,,2978.1900000000023,completion,,,,,false,,,,269391,269390,266408.492,266410,266411.81,269394.748,8,400,,,
trial,html.Screen,4_38_0,2023-09-15T19:03:40.964Z,,0,1,,2894.4519999880577,response,ISIC_0010651.JPG,5,ISIC_0897248.JPG,ISIC_0897248.JPG,false,0,keypress(z),500,272289.39999997616,272289.1999999881,269386.564,269391,269394.748,272291.455,8,400,39,,ISIC_0010651.JPG
break,html.Screen,4_38_1,2023-09-15T19:03:40.964Z,,0,,,NaN,,,,,,false,,,,272289.59999999404,272289.59999999404,,272289.39999997616,,272291.455,8,400,,,
break_continue,html.Screen,4_38_2,2023-09-15T19:03:40.964Z,,0,,,NaN,,,,,,false,,,,272289.6999999881,272289.6999999881,,272289.6999999881,,272291.455,8,400,,,
sequence,flow.Sequence,4_38,2023-09-15T19:03:40.964Z,,0,,,2894.9519999880577,completion,,,,,false,,,,272289.7999999821,272289.6999999881,269386.564,269391,269394.748,272291.455,8,400,,,
trial,html.Screen,4_39_0,2023-09-15T19:03:43.850Z,,0,1,,2883.8449999821023,response,ISIC_0055797.JPG,5,ISIC_0031548.JPG,ISIC_0055797.JPG,false,1,keypress(m),500,275175.39999997616,275175.2999999821,272288.112,272289.7999999821,272291.455,275181.272,8,400,40,,ISIC_0031548.JPG
break,html.Screen,4_39_1,2023-09-15T19:03:43.850Z,,0,,,NaN,,,,,,false,,,,275175.6999999881,275175.5,,275175.39999997616,,275181.272,8,400,,,
break_continue,html.Screen,4_39_2,2023-09-15T19:03:43.850Z,,0,,,NaN,,,,,,false,,,,275175.89999997616,275175.7999999821,,275175.6999999881,,275181.272,8,400,,,
sequence,flow.Sequence,4_39,2023-09-15T19:03:43.850Z,,0,,,2884.3449999821023,completion,,,,,false,,,,275175.89999997616,275175.7999999821,272288.112,272289.7999999821,272291.455,275181.272,8,400,,,
trial,html.Screen,4_40_0,2023-09-15T19:03:46.812Z,,0,1,,2956.3279999940423,response,ISIC_0004986.JPG,4,ISIC_3877643.JPG,ISIC_3877643.JPG,false,0,keypress(z),500,278137.6999999881,278137.59999999404,275173.015,275175.89999997616,275181.272,278141.377,8,400,41,,ISIC_0004986.JPG
break,html.Screen,4_40_1,2023-09-15T19:03:46.813Z,,0,,,NaN,,,,,,false,,,,278138.09999999404,278137.89999997616,,278137.7999999821,,278141.377,8,400,,,
break_continue,html.Screen,4_40_2,2023-09-15T19:03:46.813Z,,0,,,NaN,,,,,,false,,,,278138.39999997616,278138.2999999821,,278138.2999999821,,278141.377,8,400,,,
sequence,flow.Sequence,4_40,2023-09-15T19:03:46.813Z,,0,,,2957.0279999821214,completion,,,,,false,,,,278138.5,278138.2999999821,275173.015,275175.89999997616,275181.272,278141.377,8,400,,,
trial,html.Screen,4_41_0,2023-09-15T19:03:49.681Z,,0,1,,2865.1230000000214,response,ISIC_0026558.JPG,5,ISIC_0204355.JPG,ISIC_0026558.JPG,false,1,keypress(m),500,281006.59999999404,281006.5,278137.821,278138.5,278141.377,281009.61,8,400,42,,ISIC_0204355.JPG
break,html.Screen,4_41_1,2023-09-15T19:03:49.681Z,,0,,,NaN,,,,,,false,,,,281006.6999999881,281006.6999999881,,281006.59999999404,,281009.61,8,400,,,
break_continue,html.Screen,4_41_2,2023-09-15T19:03:49.681Z,,0,,,NaN,,,,,,false,,,,281007,281006.89999997616,,281006.7999999821,,281009.61,8,400,,,
sequence,flow.Sequence,4_41,2023-09-15T19:03:49.681Z,,0,,,2865.5229999761796,completion,,,,,false,,,,281007.09999999404,281006.89999997616,278137.821,278138.5,278141.377,281009.61,8,400,,,
trial,html.Screen,4_42_0,2023-09-15T19:03:52.407Z,,0,1,,2722.4899999940535,response,ISIC_0024214.JPG,5,ISIC_7167811.JPG,ISIC_0024214.JPG,false,1,keypress(m),500,283732.1999999881,283732.09999999404,281006.049,281007.09999999404,281009.61,283734.443,8,400,43,,ISIC_7167811.JPG
break,html.Screen,4_42_1,2023-09-15T19:03:52.407Z,,0,,,NaN,,,,,,false,,,,283732.5,283732.39999997616,,283732.2999999821,,283734.443,8,400,,,
break_continue,html.Screen,4_42_2,2023-09-15T19:03:52.407Z,,0,,,NaN,,,,,,false,,,,283732.7999999821,283732.7999999821,,283732.6999999881,,283734.443,8,400,,,
sequence,flow.Sequence,4_42,2023-09-15T19:03:52.407Z,,0,,,2723.1899999821326,completion,,,,,false,,,,283732.89999997616,283732.7999999821,281006.049,281007.09999999404,281009.61,283734.443,8,400,,,
trial,html.Screen,4_43_0,2023-09-15T19:03:55.054Z,,0,1,,2644.5569999999716,response,ISIC_0070110.JPG,5,ISIC_2151846.JPG,ISIC_2151846.JPG,false,0,keypress(z),500,286379.09999999404,286379,283731.151,283732.89999997616,283734.443,286383.03,8,400,44,,ISIC_0070110.JPG
break,html.Screen,4_43_1,2023-09-15T19:03:55.054Z,,0,,,NaN,,,,,,false,,,,286379.5,286379.39999997616,,286379.1999999881,,286383.03,8,400,,,
break_continue,html.Screen,4_43_2,2023-09-15T19:03:55.054Z,,0,,,NaN,,,,,,false,,,,286379.6999999881,286379.6999999881,,286379.59999999404,,286383.03,8,400,,,
sequence,flow.Sequence,4_43,2023-09-15T19:03:55.054Z,,0,,,2645.2569999880507,completion,,,,,false,,,,286379.6999999881,286379.6999999881,283731.151,283732.89999997616,283734.443,286383.03,8,400,,,
trial,html.Screen,4_44_0,2023-09-15T19:03:57.840Z,,0,1,,2782.969999999972,response,ISIC_3481133.JPG,5,ISIC_1869829.JPG,ISIC_1869829.JPG,false,0,keypress(z),500,289166,289166,286379.432,286379.7999999821,286383.03,289167.796,8,400,45,,ISIC_3481133.JPG
break,html.Screen,4_44_1,2023-09-15T19:03:57.841Z,,0,,,NaN,,,,,,false,,,,289166.2999999821,289166.1999999881,,289166.09999999404,,289167.796,8,400,,,
break_continue,html.Screen,4_44_2,2023-09-15T19:03:57.841Z,,0,,,NaN,,,,,,false,,,,289166.5,289166.5,,289166.39999997616,,289167.796,8,400,,,
sequence,flow.Sequence,4_44,2023-09-15T19:03:57.841Z,,0,,,2783.469999999972,completion,,,,,false,,,,289166.59999999404,289166.5,286379.432,286379.7999999821,286383.03,289167.796,8,400,,,
trial,html.Screen,4_45_0,2023-09-15T19:04:00.967Z,,0,1,,3124.704000000027,response,ISIC_2457132.JPG,5,ISIC_6974830.JPG,ISIC_6974830.JPG,false,0,keypress(z),500,292292.59999999404,292292.5,289164.384,289166.6999999881,289167.796,292296.019,8,400,46,,ISIC_2457132.JPG
break,html.Screen,4_45_1,2023-09-15T19:04:00.967Z,,0,,,NaN,,,,,,false,,,,292292.89999997616,292292.7999999821,,292292.6999999881,,292296.019,8,400,,,
break_continue,html.Screen,4_45_2,2023-09-15T19:04:00.968Z,,0,,,NaN,,,,,,false,,,,292293.09999999404,292293,,292293,,292296.019,8,400,,,
sequence,flow.Sequence,4_45,2023-09-15T19:04:00.968Z,,0,,,3125.204000000027,completion,,,,,false,,,,292293.09999999404,292293,289164.384,289166.59999999404,289167.796,292296.019,8,400,,,
trial,html.Screen,4_46_0,2023-09-15T19:04:04.089Z,,0,1,,3118.0809999940684,response,ISIC_0010017.JPG,4,ISIC_8419663.JPG,ISIC_8419663.JPG,false,0,keypress(z),500,295414.2999999821,295414.09999999404,292292.454,292293.1999999881,292296.019,295417.38,8,400,47,,ISIC_0010017.JPG
break,html.Screen,4_46_1,2023-09-15T19:04:04.089Z,,0,,,NaN,,,,,,false,,,,295414.5,295414.39999997616,,295414.2999999821,,295417.38,8,400,,,
break_continue,html.Screen,4_46_2,2023-09-15T19:04:04.089Z,,0,,,NaN,,,,,,false,,,,295414.6999999881,295414.6999999881,,295414.59999999404,,295417.38,8,400,,,
sequence,flow.Sequence,4_46,2023-09-15T19:04:04.089Z,,0,,,3118.680999988108,completion,,,,,false,,,,295414.7999999821,295414.6999999881,292292.454,292293.1999999881,292296.019,295417.38,8,400,,,
trial,html.Screen,4_47_0,2023-09-15T19:04:12.670Z,,0,1,,8577.019999976153,response,ISIC_0058716.JPG,5,ISIC_0058125.JPG,ISIC_0058125.JPG,false,0,keypress(z),500,303994.5,303994.39999997616,295413.928,295414.89999997616,295417.38,303999.624,8,400,48,,ISIC_0058716.JPG
break,html.Screen,4_47_1,2023-09-15T19:04:12.670Z,,0,,,NaN,,,,,,false,,,,303994.7999999821,303994.6999999881,,303994.59999999404,,303999.624,8,400,,,
break_continue,html.Screen,4_47_2,2023-09-15T19:04:12.670Z,,0,,,NaN,,,,,,false,,,,303994.89999997616,303994.7999999821,,303994.7999999821,,303999.624,8,400,,,
sequence,flow.Sequence,4_47,2023-09-15T19:04:12.670Z,,0,,,8577.419999982114,completion,,,,,false,,,,303995,303994.7999999821,295413.928,295414.89999997616,295417.38,303999.624,8,400,,,
trial,html.Screen,4_48_0,2023-09-15T19:04:19.971Z,,0,1,,7296.175999982108,response,ISIC_0000292.JPG,5,ISIC_0034117.JPG,ISIC_0000292.JPG,false,1,keypress(m),500,311295.89999997616,311295.7999999821,303992.027,303995,303999.624,311297.582,8,400,49,,ISIC_0034117.JPG
break,html.Screen,4_48_1,2023-09-15T19:04:19.971Z,,0,,,NaN,,,,,,false,,,,311296.09999999404,311296.09999999404,,311295.89999997616,,311297.582,8,400,,,
break_continue,html.Screen,4_48_2,2023-09-15T19:04:19.972Z,,0,,,NaN,,,,,,false,,,,311296.59999999404,311296.5,,311296.39999997616,,311297.582,8,400,,,
sequence,flow.Sequence,4_48,2023-09-15T19:04:19.972Z,,0,,,7296.875999999989,completion,,,,,false,,,,311296.59999999404,311296.5,303992.027,303995,303999.624,311297.582,8,400,,,
trial,html.Screen,4_49_0,2023-09-15T19:04:22.854Z,,0,1,,2880.918000000005,response,ISIC_0054350.JPG,5,ISIC_0030085.JPG,ISIC_0054350.JPG,false,1,keypress(m),500,314178.6999999881,314178.5,311294.606,311296.6999999881,311297.582,314182.422,8,400,50,,ISIC_0030085.JPG
break,html.Screen,4_49_1,2023-09-15T19:04:32.855Z,,0,,,10000.458999999973,timeout,,,,,false,,,,324179.6999999881,324179.576,314175.817,314178.7999999821,314182.422,324182.881,8,400,,,
break_continue,html.Screen,4_49_2,2023-09-15T19:04:37.088Z,,0,,,4225.318999988085,response,,,,,false,continue,keypress(Space),,328412.2999999821,328408.1999999881,324179.576,324179.7999999821,324182.881,328413.611,8,400,,,
sequence,flow.Sequence,4_49,2023-09-15T19:04:37.088Z,,0,,,17110.617999988084,completion,,,,,false,,,,328412.2999999821,328408.1999999881,311294.606,311296.6999999881,311297.582,328413.611,8,400,,,
trial,html.Screen,4_50_0,2023-09-15T19:04:42.183Z,,0,2,,5094.088999988104,response,ISIC_0071458.JPG,6,ISIC_9613570.JPG,ISIC_9613570.JPG,false,0,keypress(z),500,333507.89999997616,333507.6999999881,328409.962,328412.39999997616,328413.611,333510.577,8,400,1,,ISIC_0071458.JPG
break,html.Screen,4_50_1,2023-09-15T19:04:42.183Z,,0,,,NaN,,,,,,false,,,,333508.1999999881,333508,,333507.89999997616,,333510.577,8,400,,,
break_continue,html.Screen,4_50_2,2023-09-15T19:04:42.184Z,,0,,,NaN,,,,,,false,,,,333508.5,333508.39999997616,,333508.2999999821,,333510.577,8,400,,,
sequence,flow.Sequence,4_50,2023-09-15T19:04:42.184Z,,0,,,5094.788999976183,completion,,,,,false,,,,333508.6999999881,333508.39999997616,328409.962,328412.39999997616,328413.611,333510.577,8,400,,,
trial,html.Screen,4_51_0,2023-09-15T19:04:45.002Z,,0,2,,2816.122999988089,response,ISIC_6717452.JPG,5,ISIC_0057313.JPG,ISIC_0057313.JPG,false,0,keypress(z),500,336326.89999997616,336326.6999999881,333507.16,333508.6999999881,333510.577,336328.912,8,400,2,,ISIC_6717452.JPG
break,html.Screen,4_51_1,2023-09-15T19:04:45.002Z,,0,,,NaN,,,,,,false,,,,336327.09999999404,336327.09999999404,,336326.89999997616,,336328.912,8,400,,,
break_continue,html.Screen,4_51_2,2023-09-15T19:04:45.003Z,,0,,,NaN,,,,,,false,,,,336327.39999997616,336327.39999997616,,336327.1999999881,,336328.912,8,400,,,
sequence,flow.Sequence,4_51,2023-09-15T19:04:45.003Z,,0,,,2816.822999976168,completion,,,,,false,,,,336327.39999997616,336327.39999997616,333507.16,333508.6999999881,333510.577,336328.912,8,400,,,
trial,html.Screen,4_52_0,2023-09-15T19:04:47.756Z,,0,2,,2751.287999988068,response,ISIC_5434229.JPG,6,ISIC_6443984.JPG,ISIC_5434229.JPG,false,1,keypress(m),500,339080.2999999821,339080.1999999881,336325.364,336327.5,336328.912,339083.783,8,400,3,,ISIC_6443984.JPG
break,html.Screen,4_52_1,2023-09-15T19:04:47.756Z,,0,,,NaN,,,,,,false,,,,339080.59999999404,339080.5,,339080.39999997616,,339083.783,8,400,,,
break_continue,html.Screen,4_52_2,2023-09-15T19:04:47.756Z,,0,,,NaN,,,,,,false,,,,339080.7999999821,339080.7999999821,,339080.6999999881,,339083.783,8,400,,,
sequence,flow.Sequence,4_52,2023-09-15T19:04:47.756Z,,0,,,2751.8879999821074,completion,,,,,false,,,,339081,339080.7999999821,336325.364,336327.39999997616,336328.912,339083.783,8,400,,,
trial,html.Screen,4_53_0,2023-09-15T19:04:50.445Z,,0,2,,2685.9169999880833,response,ISIC_0061705.JPG,6,ISIC_5709247.JPG,ISIC_5709247.JPG,false,0,keypress(z),500,341769.7999999821,341769.6999999881,339080.383,339081,339083.783,341772.148,8,400,4,,ISIC_0061705.JPG
break,html.Screen,4_53_1,2023-09-15T19:04:50.445Z,,0,,,NaN,,,,,,false,,,,341770,341769.89999997616,,341769.7999999821,,341772.148,8,400,,,
break_continue,html.Screen,4_53_2,2023-09-15T19:04:50.446Z,,0,,,NaN,,,,,,false,,,,341770.2999999821,341770.1999999881,,341770,,341772.148,8,400,,,
sequence,flow.Sequence,4_53,2023-09-15T19:04:50.446Z,,0,,,2686.4169999880833,completion,,,,,false,,,,341770.2999999821,341770.1999999881,339080.383,339081,339083.783,341772.148,8,400,,,
trial,html.Screen,4_54_0,2023-09-15T19:04:53.391Z,,0,2,,2943.5519999880926,response,ISIC_5961619.JPG,5,ISIC_0439726.JPG,ISIC_5961619.JPG,false,1,keypress(m),500,344715.7999999821,344715.6999999881,341768.751,341770.39999997616,341772.148,344721.928,8,400,5,,ISIC_0439726.JPG
break,html.Screen,4_54_1,2023-09-15T19:04:53.391Z,,0,,,NaN,,,,,,false,,,,344716,344716,,344715.89999997616,,344721.928,8,400,,,
break_continue,html.Screen,4_54_2,2023-09-15T19:04:53.392Z,,0,,,NaN,,,,,,false,,,,344716.39999997616,344716.2999999821,,344716.09999999404,,344721.928,8,400,,,
sequence,flow.Sequence,4_54,2023-09-15T19:04:53.392Z,,0,,,2944.151999982132,completion,,,,,false,,,,344716.39999997616,344716.2999999821,341768.751,341770.2999999821,341772.148,344721.928,8,400,,,
trial,html.Screen,4_55_0,2023-09-15T19:04:57.729Z,,0,2,,4331.471999976144,response,ISIC_0060452.JPG,4,ISIC_0481702.JPG,ISIC_0481702.JPG,false,0,keypress(z),500,349053.39999997616,349053.39999997616,344713.571,344716.39999997616,344721.928,349057.634,8,400,6,,ISIC_0060452.JPG
break,html.Screen,4_55_1,2023-09-15T19:04:57.729Z,,0,,,NaN,,,,,,false,,,,349053.6999999881,349053.59999999404,,349053.5,,349057.634,8,400,,,
break_continue,html.Screen,4_55_2,2023-09-15T19:04:57.729Z,,0,,,NaN,,,,,,false,,,,349053.7999999821,349053.7999999821,,349053.7999999821,,349057.634,8,400,,,
sequence,flow.Sequence,4_55,2023-09-15T19:04:57.729Z,,0,,,4331.871999982104,completion,,,,,false,,,,349053.89999997616,349053.7999999821,344713.571,344716.39999997616,344721.928,349057.634,8,400,,,
trial,html.Screen,4_56_0,2023-09-15T19:05:00.692Z,,0,2,,2959.36599999998,response,ISIC_0010705.JPG,5,ISIC_0060937.JPG,ISIC_0010705.JPG,false,1,keypress(m),500,352017.09999999404,352017,349054.349,349053.89999997616,349057.634,352019.191,8,400,7,,ISIC_0060937.JPG
break,html.Screen,4_56_1,2023-09-15T19:05:00.693Z,,0,,,NaN,,,,,,false,,,,352017.2999999821,352017.1999999881,,352017.09999999404,,352019.191,8,400,,,
break_continue,html.Screen,4_56_2,2023-09-15T19:05:00.693Z,,0,,,NaN,,,,,,false,,,,352017.59999999404,352017.5,,352017.2999999821,,352019.191,8,400,,,
sequence,flow.Sequence,4_56,2023-09-15T19:05:00.693Z,,0,,,2959.86599999998,completion,,,,,false,,,,352017.7999999821,352017.5,349054.349,349053.89999997616,349057.634,352019.191,8,400,,,
trial,html.Screen,4_57_0,2023-09-15T19:05:04.185Z,,0,2,,3490.8090000000084,response,ISIC_0000012.JPG,5,ISIC_5039895.JPG,ISIC_5039895.JPG,false,0,keypress(z),500,355510.09999999404,355510,352015.977,352017.7999999821,352019.191,355513.734,8,400,8,,ISIC_0000012.JPG
break,html.Screen,4_57_1,2023-09-15T19:05:04.186Z,,0,,,NaN,,,,,,false,,,,355510.39999997616,355510.1999999881,,355510.09999999404,,355513.734,8,400,,,
break_continue,html.Screen,4_57_2,2023-09-15T19:05:04.186Z,,0,,,NaN,,,,,,false,,,,355510.59999999404,355510.5,,355510.39999997616,,355513.734,8,400,,,
sequence,flow.Sequence,4_57,2023-09-15T19:05:04.186Z,,0,,,3491.3090000000084,completion,,,,,false,,,,355510.59999999404,355510.5,352015.977,352017.7999999821,352019.191,355513.734,8,400,,,
trial,html.Screen,4_58_0,2023-09-15T19:05:07.052Z,,0,2,,2862.7660000000033,response,ISIC_3981101.JPG,5,ISIC_9291926.JPG,ISIC_9291926.JPG,false,0,keypress(z),500,358376.59999999404,358376.5,355510.288,355510.6999999881,355513.734,358378.629,8,400,9,,ISIC_3981101.JPG
break,html.Screen,4_58_1,2023-09-15T19:05:07.052Z,,0,,,NaN,,,,,,false,,,,358376.89999997616,358376.7999999821,,358376.7999999821,,358378.629,8,400,,,
break_continue,html.Screen,4_58_2,2023-09-15T19:05:07.052Z,,0,,,NaN,,,,,,false,,,,358377.09999999404,358377.09999999404,,358377,,358378.629,8,400,,,
sequence,flow.Sequence,4_58,2023-09-15T19:05:07.052Z,,0,,,2863.365999994043,completion,,,,,false,,,,358377.09999999404,358377.09999999404,355510.288,355510.59999999404,355513.734,358378.629,8,400,,,
trial,html.Screen,4_59_0,2023-09-15T19:05:10.527Z,,0,2,,3472.5709999880637,response,ISIC_5063476.JPG,5,ISIC_1445277.JPG,ISIC_5063476.JPG,false,1,keypress(m),500,361851.2999999821,361851.1999999881,358375.137,358377.1999999881,358378.629,361853.149,8,400,10,,ISIC_1445277.JPG
break,html.Screen,4_59_1,2023-09-15T19:05:10.527Z,,0,,,NaN,,,,,,false,,,,361851.5,361851.5,,361851.2999999821,,361853.149,8,400,,,
break_continue,html.Screen,4_59_2,2023-09-15T19:05:10.527Z,,0,,,NaN,,,,,,false,,,,361851.89999997616,361851.7999999821,,361851.6999999881,,361853.149,8,400,,,
sequence,flow.Sequence,4_59,2023-09-15T19:05:10.527Z,,0,,,3473.1709999821032,completion,,,,,false,,,,361852,361851.7999999821,358375.137,358377.09999999404,358378.629,361853.149,8,400,,,
trial,html.Screen,4_60_0,2023-09-15T19:05:13.235Z,,0,2,,2706.851000000024,response,ISIC_6423964.JPG,5,ISIC_0014994.JPG,ISIC_0014994.JPG,false,0,keypress(z),500,364560.09999999404,364560,361849.712,361852.09999999404,361853.149,364566.237,8,400,11,,ISIC_6423964.JPG
break,html.Screen,4_60_1,2023-09-15T19:05:13.236Z,,0,,,NaN,,,,,,false,,,,364560.39999997616,364560.2999999821,,364560.1999999881,,364566.237,8,400,,,
break_continue,html.Screen,4_60_2,2023-09-15T19:05:13.236Z,,0,,,NaN,,,,,,false,,,,364560.6999999881,364560.59999999404,,364560.59999999404,,364566.237,8,400,,,
sequence,flow.Sequence,4_60,2023-09-15T19:05:13.236Z,,0,,,2707.4509999940637,completion,,,,,false,,,,364560.6999999881,364560.59999999404,361849.712,361852.09999999404,361853.149,364566.237,8,400,,,
trial,html.Screen,4_61_0,2023-09-15T19:05:17.686Z,,0,2,,4444.462999988056,response,ISIC_0011012.JPG,5,ISIC_9226193.JPG,ISIC_0011012.JPG,false,1,keypress(m),500,369010.7999999821,369010.6999999881,364558.028,364560.6999999881,364566.237,369016.67,8,400,12,,ISIC_9226193.JPG
break,html.Screen,4_61_1,2023-09-15T19:05:17.686Z,,0,,,NaN,,,,,,false,,,,369011,369011,,369010.89999997616,,369016.67,8,400,,,
break_continue,html.Screen,4_61_2,2023-09-15T19:05:17.686Z,,0,,,NaN,,,,,,false,,,,369011.1999999881,369011.09999999404,,369011,,369016.67,8,400,,,
sequence,flow.Sequence,4_61,2023-09-15T19:05:17.687Z,,0,,,4444.862999994017,completion,,,,,false,,,,369011.1999999881,369011.09999999404,364558.028,364560.6999999881,364566.237,369016.67,8,400,,,
trial,html.Screen,4_62_0,2023-09-15T19:05:28.446Z,,0,2,,10753.429999994056,response,ISIC_0054395.JPG,4,ISIC_0026266.JPG,ISIC_0054395.JPG,false,1,keypress(m),500,379770.2999999821,379770.09999999404,369008.609,369011.1999999881,369016.67,379772.127,8,400,13,,ISIC_0026266.JPG
break,html.Screen,4_62_1,2023-09-15T19:05:28.446Z,,0,,,NaN,,,,,,false,,,,379770.5,379770.39999997616,,379770.2999999821,,379772.127,8,400,,,
break_continue,html.Screen,4_62_2,2023-09-15T19:05:28.446Z,,0,,,NaN,,,,,,false,,,,379770.6999999881,379770.59999999404,,379770.5,,379772.127,8,400,,,
sequence,flow.Sequence,4_62,2023-09-15T19:05:28.446Z,,0,,,10753.929999994056,completion,,,,,false,,,,379770.7999999821,379770.59999999404,369008.609,369011.1999999881,369016.67,379772.127,8,400,,,
trial,html.Screen,4_63_0,2023-09-15T19:05:31.248Z,,0,2,,2800.0729999881005,response,ISIC_0189694.JPG,5,ISIC_0032987.JPG,ISIC_0032987.JPG,false,0,keypress(z),500,382572.2999999821,382572.1999999881,379768.72,379770.7999999821,379772.127,382573.782,8,400,14,,ISIC_0189694.JPG
break,html.Screen,4_63_1,2023-09-15T19:05:31.248Z,,0,,,NaN,,,,,,false,,,,382572.5,382572.5,,382572.39999997616,,382573.782,8,400,,,
break_continue,html.Screen,4_63_2,2023-09-15T19:05:31.248Z,,0,,,NaN,,,,,,false,,,,382572.7999999821,382572.7999999821,,382572.6999999881,,382573.782,8,400,,,
sequence,flow.Sequence,4_63,2023-09-15T19:05:31.248Z,,0,,,2800.67299998214,completion,,,,,false,,,,382572.7999999821,382572.7999999821,379768.72,379770.7999999821,379772.127,382573.782,8,400,,,
trial,html.Screen,4_64_0,2023-09-15T19:05:34.514Z,,0,2,,3265.1179999761516,response,ISIC_7994337.JPG,4,ISIC_0066053.JPG,ISIC_7994337.JPG,false,1,keypress(m),500,385839,385838.89999997616,382570.243,382572.89999997616,382573.782,385841.736,8,400,15,,ISIC_0066053.JPG
break,html.Screen,4_64_1,2023-09-15T19:05:34.514Z,,0,,,NaN,,,,,,false,,,,385839.1999999881,385839.09999999404,,385839,,385841.736,8,400,,,
break_continue,html.Screen,4_64_2,2023-09-15T19:05:34.515Z,,0,,,NaN,,,,,,false,,,,385839.39999997616,385839.39999997616,,385839.1999999881,,385841.736,8,400,,,
sequence,flow.Sequence,4_64,2023-09-15T19:05:34.515Z,,0,,,3265.6179999761516,completion,,,,,false,,,,385839.5,385839.39999997616,382570.243,382572.89999997616,382573.782,385841.736,8,400,,,
trial,html.Screen,4_65_0,2023-09-15T19:05:37.700Z,,0,2,,3182.363999994064,response,ISIC_0071335.JPG,4,ISIC_3871225.JPG,ISIC_3871225.JPG,false,0,keypress(z),500,389024.1999999881,389024.09999999404,385838.28,385839.59999999404,385841.736,389026.403,8,400,16,,ISIC_0071335.JPG
break,html.Screen,4_65_1,2023-09-15T19:05:37.700Z,,0,,,NaN,,,,,,false,,,,389024.5,389024.39999997616,,389024.2999999821,,389026.403,8,400,,,
break_continue,html.Screen,4_65_2,2023-09-15T19:05:37.700Z,,0,,,NaN,,,,,,false,,,,389024.6999999881,389024.59999999404,,389024.59999999404,,389026.403,8,400,,,
sequence,flow.Sequence,4_65,2023-09-15T19:05:37.700Z,,0,,,3182.863999994064,completion,,,,,false,,,,389024.7999999821,389024.59999999404,385838.28,385839.5,385841.736,389026.403,8,400,,,
trial,html.Screen,4_66_0,2023-09-15T19:05:40.365Z,,0,2,,2663.097000000009,response,ISIC_3254309.JPG,6,ISIC_0008934.JPG,ISIC_0008934.JPG,false,0,keypress(z),500,391689.59999999404,391689.5,389022.95,389024.7999999821,389026.403,391691.481,8,400,17,,ISIC_3254309.JPG
break,html.Screen,4_66_1,2023-09-15T19:05:40.365Z,,0,,,NaN,,,,,,false,,,,391689.89999997616,391689.7999999821,,391689.6999999881,,391691.481,8,400,,,
break_continue,html.Screen,4_66_2,2023-09-15T19:05:40.365Z,,0,,,NaN,,,,,,false,,,,391690.09999999404,391690.09999999404,,391689.89999997616,,391691.481,8,400,,,
sequence,flow.Sequence,4_66,2023-09-15T19:05:40.365Z,,0,,,2663.6969999940484,completion,,,,,false,,,,391690.1999999881,391690.09999999404,389022.95,389024.7999999821,389026.403,391691.481,8,400,,,
trial,html.Screen,4_67_0,2023-09-15T19:05:44.158Z,,0,2,,3791.1189999940107,response,ISIC_9234944.JPG,5,ISIC_0033916.JPG,ISIC_9234944.JPG,false,1,keypress(m),500,395482.6999999881,395482.59999999404,391688.03,391690.1999999881,391691.481,395485.75,8,400,18,,ISIC_0033916.JPG
break,html.Screen,4_67_1,2023-09-15T19:05:44.158Z,,0,,,NaN,,,,,,false,,,,395482.89999997616,395482.7999999821,,395482.6999999881,,395485.75,8,400,,,
break_continue,html.Screen,4_67_2,2023-09-15T19:05:44.158Z,,0,,,NaN,,,,,,false,,,,395483.09999999404,395483,,395483,,395485.75,8,400,,,
sequence,flow.Sequence,4_67,2023-09-15T19:05:44.158Z,,0,,,3791.518999999971,completion,,,,,false,,,,395483.09999999404,395483,391688.03,391690.1999999881,391691.481,395485.75,8,400,,,
trial,html.Screen,4_68_0,2023-09-15T19:05:49.813Z,,0,2,,5651.649999976158,response,ISIC_6715897.JPG,5,ISIC_0024567.JPG,ISIC_0024567.JPG,false,0,keypress(z),500,401137.59999999404,401137.39999997616,395482.31,395483.09999999404,395485.75,401143.715,8,400,19,,ISIC_6715897.JPG
break,html.Screen,4_68_1,2023-09-15T19:05:49.813Z,,0,,,NaN,,,,,,false,,,,401137.7999999821,401137.6999999881,,401137.59999999404,,401143.715,8,400,,,
break_continue,html.Screen,4_68_2,2023-09-15T19:05:49.813Z,,0,,,NaN,,,,,,false,,,,401138,401138,,401137.89999997616,,401143.715,8,400,,,
sequence,flow.Sequence,4_68,2023-09-15T19:05:49.813Z,,0,,,5652.25,completion,,,,,false,,,,401138.09999999404,401138,395482.31,395483.09999999404,395485.75,401143.715,8,400,,,
trial,html.Screen,4_69_0,2023-09-15T19:05:52.662Z,,0,2,,2843.2849999999744,response,ISIC_0059273.JPG,5,ISIC_3651451.JPG,ISIC_0059273.JPG,false,1,keypress(m),500,403987.09999999404,403987,401135.499,401138.09999999404,401143.715,403990.582,8,400,20,,ISIC_3651451.JPG
break,html.Screen,4_69_1,2023-09-15T19:05:52.663Z,,0,,,NaN,,,,,,false,,,,403987.5,403987.2999999821,,403987.1999999881,,403990.582,8,400,,,
break_continue,html.Screen,4_69_2,2023-09-15T19:05:52.663Z,,0,,,NaN,,,,,,false,,,,403987.6999999881,403987.6999999881,,403987.59999999404,,403990.582,8,400,,,
sequence,flow.Sequence,4_69,2023-09-15T19:05:52.663Z,,0,,,2843.9849999880535,completion,,,,,false,,,,403987.7999999821,403987.6999999881,401135.499,401138.09999999404,401143.715,403990.582,8,400,,,
trial,html.Screen,4_70_0,2023-09-15T19:05:56.937Z,,0,2,,4271.117999988084,response,ISIC_0348633.JPG,5,ISIC_4374554.JPG,ISIC_4374554.JPG,false,0,keypress(z),500,408261.89999997616,408261.6999999881,403987.095,403987.7999999821,403990.582,408264.583,8,400,21,,ISIC_0348633.JPG
break,html.Screen,4_70_1,2023-09-15T19:05:56.937Z,,0,,,NaN,,,,,,false,,,,408262.1999999881,408262,,408261.89999997616,,408264.583,8,400,,,
break_continue,html.Screen,4_70_2,2023-09-15T19:05:56.938Z,,0,,,NaN,,,,,,false,,,,408262.39999997616,408262.39999997616,,408262.1999999881,,408264.583,8,400,,,
sequence,flow.Sequence,4_70,2023-09-15T19:05:56.938Z,,0,,,4271.817999976163,completion,,,,,false,,,,408262.5,408262.39999997616,403987.095,403987.7999999821,403990.582,408264.583,8,400,,,
trial,html.Screen,4_71_0,2023-09-15T19:06:06.283Z,,0,2,,9343.417000000016,response,ISIC_9948600.JPG,4,ISIC_1004416.JPG,ISIC_1004416.JPG,false,0,keypress(z),500,417608,417608,408261.254,408262.5,408264.583,417613.869,8,400,22,,ISIC_9948600.JPG
break,html.Screen,4_71_1,2023-09-15T19:06:06.284Z,,0,,,NaN,,,,,,false,,,,417608.2999999821,417608.2999999821,,417608.09999999404,,417613.869,8,400,,,
break_continue,html.Screen,4_71_2,2023-09-15T19:06:06.284Z,,0,,,NaN,,,,,,false,,,,417608.5,417608.5,,417608.5,,417613.869,8,400,,,
sequence,flow.Sequence,4_71,2023-09-15T19:06:06.284Z,,0,,,9343.917000000016,completion,,,,,false,,,,417608.59999999404,417608.5,408261.254,408262.5,408264.583,417613.869,8,400,,,
trial,html.Screen,4_72_0,2023-09-15T19:06:11.187Z,,0,2,,4897.530999976152,response,ISIC_4885444.JPG,5,ISIC_0067614.JPG,ISIC_0067614.JPG,false,0,keypress(z),500,422511.5,422511.39999997616,417605.422,417608.6999999881,417613.869,422516.646,8,400,23,,ISIC_4885444.JPG
break,html.Screen,4_72_1,2023-09-15T19:06:11.187Z,,0,,,NaN,,,,,,false,,,,422511.6999999881,422511.6999999881,,422511.59999999404,,422516.646,8,400,,,
break_continue,html.Screen,4_72_2,2023-09-15T19:06:11.187Z,,0,,,NaN,,,,,,false,,,,422512,422511.89999997616,,422511.7999999821,,422516.646,8,400,,,
sequence,flow.Sequence,4_72,2023-09-15T19:06:11.187Z,,0,,,4898.030999976152,completion,,,,,false,,,,422512,422511.89999997616,417605.422,417608.6999999881,417613.869,422516.646,8,400,,,
trial,html.Screen,4_73_0,2023-09-15T19:06:14.037Z,,0,2,,2845.4539999940316,response,ISIC_0059601.JPG,5,ISIC_1035480.JPG,ISIC_0059601.JPG,false,1,keypress(m),500,425362.09999999404,425362.09999999404,422509.153,422512.09999999404,422516.646,425364.006,8,400,24,,ISIC_1035480.JPG
break,html.Screen,4_73_1,2023-09-15T19:06:14.038Z,,0,,,NaN,,,,,,false,,,,425362.5,425362.39999997616,,425362.1999999881,,425364.006,8,400,,,
break_continue,html.Screen,4_73_2,2023-09-15T19:06:14.038Z,,0,,,NaN,,,,,,false,,,,425362.59999999404,425362.59999999404,,425362.5,,425364.006,8,400,,,
sequence,flow.Sequence,4_73,2023-09-15T19:06:14.038Z,,0,,,2845.9539999940316,completion,,,,,false,,,,425362.6999999881,425362.59999999404,422509.153,422512.09999999404,422516.646,425364.006,8,400,,,
trial,html.Screen,4_74_0,2023-09-15T19:06:16.727Z,,0,2,,2687.5939999940456,response,ISIC_7850786.JPG,6,ISIC_8363069.JPG,ISIC_8363069.JPG,false,0,keypress(z),500,428051.6999999881,428051.59999999404,425360.603,425362.6999999881,425364.006,428057.266,8,400,25,,ISIC_7850786.JPG
break,html.Screen,4_74_1,2023-09-15T19:06:16.727Z,,0,,,NaN,,,,,,false,,,,428051.89999997616,428051.7999999821,,428051.6999999881,,428057.266,8,400,,,
break_continue,html.Screen,4_74_2,2023-09-15T19:06:16.727Z,,0,,,NaN,,,,,,false,,,,428052,428052,,428051.89999997616,,428057.266,8,400,,,
sequence,flow.Sequence,4_74,2023-09-15T19:06:16.727Z,,0,,,2687.994000000006,completion,,,,,false,,,,428052,428052,425360.603,425362.6999999881,425364.006,428057.266,8,400,,,
trial,html.Screen,4_75_0,2023-09-15T19:06:23.215Z,,0,2,,6482.533999982115,response,ISIC_9626777.JPG,5,ISIC_0056655.JPG,ISIC_9626777.JPG,false,1,keypress(m),500,434539.89999997616,434539.7999999821,428048.988,428052.09999999404,428057.266,434541.766,8,400,26,,ISIC_0056655.JPG
break,html.Screen,4_75_1,2023-09-15T19:06:23.216Z,,0,,,NaN,,,,,,false,,,,434540.1999999881,434540.09999999404,,434540,,434541.766,8,400,,,
break_continue,html.Screen,4_75_2,2023-09-15T19:06:23.216Z,,0,,,NaN,,,,,,false,,,,434540.39999997616,434540.39999997616,,434540.39999997616,,434541.766,8,400,,,
sequence,flow.Sequence,4_75,2023-09-15T19:06:23.216Z,,0,,,6483.133999976155,completion,,,,,false,,,,434540.5,434540.39999997616,428048.988,428052.09999999404,428057.266,434541.766,8,400,,,
trial,html.Screen,4_76_0,2023-09-15T19:06:26.066Z,,0,2,,2848.633999976155,response,ISIC_2418276.JPG,5,ISIC_8545097.JPG,ISIC_2418276.JPG,false,1,keypress(m),500,437390.39999997616,437390.39999997616,434538.312,434540.5,434541.766,437393.384,8,400,27,,ISIC_8545097.JPG
break,html.Screen,4_76_1,2023-09-15T19:06:26.066Z,,0,,,NaN,,,,,,false,,,,437390.6999999881,437390.6999999881,,437390.5,,437393.384,8,400,,,
break_continue,html.Screen,4_76_2,2023-09-15T19:06:26.066Z,,0,,,NaN,,,,,,false,,,,437390.89999997616,437390.89999997616,,437390.89999997616,,437393.384,8,400,,,
sequence,flow.Sequence,4_76,2023-09-15T19:06:26.066Z,,0,,,2849.133999976155,completion,,,,,false,,,,437391,437390.89999997616,434538.312,434540.5,434541.766,437393.384,8,400,,,
trial,html.Screen,4_77_0,2023-09-15T19:06:29.768Z,,0,2,,3699.2159999940195,response,ISIC_7144739.JPG,6,ISIC_8252406.JPG,ISIC_8252406.JPG,false,0,keypress(z),500,441092.7999999821,441092.59999999404,437389.941,437391.09999999404,437393.384,441094.43,8,400,28,,ISIC_7144739.JPG
break,html.Screen,4_77_1,2023-09-15T19:06:29.768Z,,0,,,NaN,,,,,,false,,,,441093.1999999881,441092.89999997616,,441092.7999999821,,441094.43,8,400,,,
break_continue,html.Screen,4_77_2,2023-09-15T19:06:29.769Z,,0,,,NaN,,,,,,false,,,,441093.2999999821,441093.2999999821,,441093.1999999881,,441094.43,8,400,,,
sequence,flow.Sequence,4_77,2023-09-15T19:06:29.769Z,,0,,,3699.9159999820986,completion,,,,,false,,,,441093.39999997616,441093.2999999821,437389.941,437391.09999999404,437393.384,441094.43,8,400,,,
trial,html.Screen,4_78_0,2023-09-15T19:06:33.967Z,,0,2,,4197.1699999940465,response,ISIC_4055288.JPG,6,ISIC_7095615.JPG,ISIC_4055288.JPG,false,1,keypress(m),500,445291.6999999881,445291.59999999404,441090.936,441093.5,441094.43,445295.111,8,400,29,,ISIC_7095615.JPG
break,html.Screen,4_78_1,2023-09-15T19:06:33.967Z,,0,,,NaN,,,,,,false,,,,445292,445291.89999997616,,445291.7999999821,,445295.111,8,400,,,
break_continue,html.Screen,4_78_2,2023-09-15T19:06:33.967Z,,0,,,NaN,,,,,,false,,,,445292.09999999404,445292,,445292,,445295.111,8,400,,,
sequence,flow.Sequence,4_78,2023-09-15T19:06:33.967Z,,0,,,4197.570000000007,completion,,,,,false,,,,445292.1999999881,445292,441090.936,441093.5,441094.43,445295.111,8,400,,,
trial,html.Screen,4_79_0,2023-09-15T19:06:37.217Z,,0,2,,3246.288999976183,response,ISIC_0033524.JPG,5,ISIC_0073044.JPG,ISIC_0073044.JPG,false,0,keypress(z),500,448541.59999999404,448541.39999997616,445291.732,445292.1999999881,445295.111,448543.102,8,400,30,,ISIC_0033524.JPG
break,html.Screen,4_79_1,2023-09-15T19:06:37.217Z,,0,,,NaN,,,,,,false,,,,448541.89999997616,448541.6999999881,,448541.6999999881,,448543.102,8,400,,,
break_continue,html.Screen,4_79_2,2023-09-15T19:06:37.217Z,,0,,,NaN,,,,,,false,,,,448542,448542,,448542,,448543.102,8,400,,,
sequence,flow.Sequence,4_79,2023-09-15T19:06:37.217Z,,0,,,3246.8890000000247,completion,,,,,false,,,,448542.1999999881,448542,445291.732,445292.1999999881,445295.111,448543.102,8,400,,,
trial,html.Screen,4_80_0,2023-09-15T19:06:40.393Z,,0,2,,3174.3979999999865,response,ISIC_2784686.JPG,4,ISIC_0072496.JPG,ISIC_0072496.JPG,false,0,keypress(z),500,451717.6999999881,451717.5,448539.781,448542.1999999881,448543.102,451721.268,8,400,31,,ISIC_2784686.JPG
break,html.Screen,4_80_1,2023-09-15T19:06:40.393Z,,0,,,NaN,,,,,,false,,,,451718,451717.89999997616,,451717.6999999881,,451721.268,8,400,,,
break_continue,html.Screen,4_80_2,2023-09-15T19:06:40.394Z,,0,,,NaN,,,,,,false,,,,451718.2999999821,451718.1999999881,,451718.1999999881,,451721.268,8,400,,,
sequence,flow.Sequence,4_80,2023-09-15T19:06:40.394Z,,0,,,3175.0979999880656,completion,,,,,false,,,,451718.39999997616,451718.1999999881,448539.781,448542.1999999881,448543.102,451721.268,8,400,,,
trial,html.Screen,4_81_0,2023-09-15T19:06:43.359Z,,0,2,,2962.732000000018,response,ISIC_0054640.JPG,5,ISIC_0025128.JPG,ISIC_0054640.JPG,false,1,keypress(m),500,454684.09999999404,454684,451717.782,451718.39999997616,451721.268,454686.045,8,400,32,,ISIC_0025128.JPG
break,html.Screen,4_81_1,2023-09-15T19:06:43.360Z,,0,,,NaN,,,,,,false,,,,454684.2999999821,454684.2999999821,,454684.09999999404,,454686.045,8,400,,,
break_continue,html.Screen,4_81_2,2023-09-15T19:06:43.360Z,,0,,,NaN,,,,,,false,,,,454684.5,454684.5,,454684.39999997616,,454686.045,8,400,,,
sequence,flow.Sequence,4_81,2023-09-15T19:06:43.360Z,,0,,,2963.232000000018,completion,,,,,false,,,,454684.59999999404,454684.5,451717.782,451718.39999997616,451721.268,454686.045,8,400,,,
trial,html.Screen,4_82_0,2023-09-15T19:06:49.252Z,,0,2,,5890.955000000016,response,ISIC_0027112.JPG,5,ISIC_5360921.JPG,ISIC_0027112.JPG,false,1,keypress(m),500,460577.09999999404,460577,454682.663,454684.59999999404,454686.045,460579.052,8,400,33,,ISIC_5360921.JPG
break,html.Screen,4_82_1,2023-09-15T19:06:49.253Z,,0,,,NaN,,,,,,false,,,,460577.5,460577.2999999821,,460577.1999999881,,460579.052,8,400,,,
break_continue,html.Screen,4_82_2,2023-09-15T19:06:49.253Z,,0,,,NaN,,,,,,false,,,,460577.59999999404,460577.59999999404,,460577.5,,460579.052,8,400,,,
sequence,flow.Sequence,4_82,2023-09-15T19:06:49.253Z,,0,,,5891.554999994056,completion,,,,,false,,,,460577.6999999881,460577.59999999404,454682.663,454684.59999999404,454686.045,460579.052,8,400,,,
trial,html.Screen,4_83_0,2023-09-15T19:06:53.447Z,,0,2,,4192.2479999820935,response,ISIC_1075605.JPG,5,ISIC_5777181.JPG,ISIC_5777181.JPG,false,0,keypress(z),500,464771.39999997616,464771.2999999821,460575.649,460577.7999999821,460579.052,464773.211,8,400,34,,ISIC_1075605.JPG
break,html.Screen,4_83_1,2023-09-15T19:06:53.447Z,,0,,,NaN,,,,,,false,,,,464771.59999999404,464771.5,,464771.39999997616,,464773.211,8,400,,,
break_continue,html.Screen,4_83_2,2023-09-15T19:06:53.447Z,,0,,,NaN,,,,,,false,,,,464771.7999999821,464771.6999999881,,464771.6999999881,,464773.211,8,400,,,
sequence,flow.Sequence,4_83,2023-09-15T19:06:53.447Z,,0,,,4192.647999988054,completion,,,,,false,,,,464771.89999997616,464771.6999999881,460575.649,460577.6999999881,460579.052,464773.211,8,400,,,
trial,html.Screen,4_84_0,2023-09-15T19:06:57.337Z,,0,2,,3888.688999976148,response,ISIC_5498202.JPG,5,ISIC_0026049.JPG,ISIC_5498202.JPG,false,1,keypress(m),500,468662,468661.89999997616,464770.014,464771.89999997616,464773.211,468664.168,8,400,35,,ISIC_0026049.JPG
break,html.Screen,4_84_1,2023-09-15T19:06:57.337Z,,0,,,NaN,,,,,,false,,,,468662.1999999881,468662.09999999404,,468662,,468664.168,8,400,,,
break_continue,html.Screen,4_84_2,2023-09-15T19:06:57.338Z,,0,,,NaN,,,,,,false,,,,468662.39999997616,468662.2999999821,,468662.2999999821,,468664.168,8,400,,,
sequence,flow.Sequence,4_84,2023-09-15T19:06:57.338Z,,0,,,3889.0889999821084,completion,,,,,false,,,,468662.39999997616,468662.2999999821,464770.014,464771.89999997616,464773.211,468664.168,8,400,,,
trial,html.Screen,4_85_0,2023-09-15T19:07:00.779Z,,0,2,,3439.6319999821135,response,ISIC_5675703.JPG,5,ISIC_0059440.JPG,ISIC_0059440.JPG,false,0,keypress(z),500,472103.89999997616,472103.7999999821,468660.696,468662.5,468664.168,472109.595,8,400,36,,ISIC_5675703.JPG
break,html.Screen,4_85_1,2023-09-15T19:07:00.779Z,,0,,,NaN,,,,,,false,,,,472104.09999999404,472104.09999999404,,472104,,472109.595,8,400,,,
break_continue,html.Screen,4_85_2,2023-09-15T19:07:00.780Z,,0,,,NaN,,,,,,false,,,,472104.39999997616,472104.39999997616,,472104.1999999881,,472109.595,8,400,,,
sequence,flow.Sequence,4_85,2023-09-15T19:07:00.780Z,,0,,,3440.231999976153,completion,,,,,false,,,,472104.5,472104.39999997616,468660.696,468662.5,468664.168,472109.595,8,400,,,
trial,html.Screen,4_86_0,2023-09-15T19:07:03.987Z,,0,2,,3202.0049999940675,response,ISIC_0028612.JPG,5,ISIC_8214287.JPG,ISIC_0028612.JPG,false,1,keypress(m),500,475311.6999999881,475311.59999999404,472101.871,472104.5,472109.595,475313.43,8,400,37,,ISIC_8214287.JPG
break,html.Screen,4_86_1,2023-09-15T19:07:03.987Z,,0,,,NaN,,,,,,false,,,,475311.89999997616,475311.7999999821,,475311.6999999881,,475313.43,8,400,,,
break_continue,html.Screen,4_86_2,2023-09-15T19:07:03.987Z,,0,,,NaN,,,,,,false,,,,475312.1999999881,475312.09999999404,,475312,,475313.43,8,400,,,
sequence,flow.Sequence,4_86,2023-09-15T19:07:03.987Z,,0,,,3202.5049999940675,completion,,,,,false,,,,475312.1999999881,475312.09999999404,472101.871,472104.5,472109.595,475313.43,8,400,,,
trial,html.Screen,4_87_0,2023-09-15T19:07:12.277Z,,0,2,,8288.570000000007,response,ISIC_2844085.JPG,6,ISIC_0033956.JPG,ISIC_0033956.JPG,false,0,keypress(z),500,483602.1999999881,483602,475309.928,475312.1999999881,475313.43,483604.855,8,400,38,,ISIC_2844085.JPG
break,html.Screen,4_87_1,2023-09-15T19:07:12.278Z,,0,,,NaN,,,,,,false,,,,483602.59999999404,483602.5,,483602.2999999821,,483604.855,8,400,,,
break_continue,html.Screen,4_87_2,2023-09-15T19:07:12.278Z,,0,,,NaN,,,,,,false,,,,483602.6999999881,483602.59999999404,,483602.59999999404,,483604.855,8,400,,,
sequence,flow.Sequence,4_87,2023-09-15T19:07:12.278Z,,0,,,8289.169999994047,completion,,,,,false,,,,483602.6999999881,483602.59999999404,475309.928,475312.1999999881,475313.43,483604.855,8,400,,,
trial,html.Screen,4_88_0,2023-09-15T19:07:16.151Z,,0,2,,3871.0449999761768,response,ISIC_5116614.JPG,5,ISIC_3751090.JPG,ISIC_3751090.JPG,false,0,keypress(z),500,487476,487475.89999997616,483601.535,483602.89999997616,483604.855,487479.224,8,400,39,,ISIC_5116614.JPG
break,html.Screen,4_88_1,2023-09-15T19:07:16.151Z,,0,,,NaN,,,,,,false,,,,487476.1999999881,487476.09999999404,,487476,,487479.224,8,400,,,
break_continue,html.Screen,4_88_2,2023-09-15T19:07:16.152Z,,0,,,NaN,,,,,,false,,,,487476.5,487476.39999997616,,487476.2999999821,,487479.224,8,400,,,
sequence,flow.Sequence,4_88,2023-09-15T19:07:16.152Z,,0,,,3871.5449999761768,completion,,,,,false,,,,487476.5,487476.39999997616,483601.535,483602.7999999821,483604.855,487479.224,8,400,,,
trial,html.Screen,4_89_0,2023-09-15T19:07:23.759Z,,0,2,,7604.175999976171,response,ISIC_0032089.JPG,5,ISIC_3702669.JPG,ISIC_0032089.JPG,false,1,keypress(m),500,495083.5,495083.39999997616,487475.808,487476.5,487479.224,495088.574,8,400,40,,ISIC_3702669.JPG
break,html.Screen,4_89_1,2023-09-15T19:07:23.759Z,,0,,,NaN,,,,,,false,,,,495083.6999999881,495083.59999999404,,495083.59999999404,,495088.574,8,400,,,
break_continue,html.Screen,4_89_2,2023-09-15T19:07:23.759Z,,0,,,NaN,,,,,,false,,,,495084,495083.89999997616,,495083.89999997616,,495088.574,8,400,,,
sequence,flow.Sequence,4_89,2023-09-15T19:07:23.759Z,,0,,,7604.675999976171,completion,,,,,false,,,,495084,495083.89999997616,487475.808,487476.5,487479.224,495088.574,8,400,,,
trial,html.Screen,4_90_0,2023-09-15T19:07:26.967Z,,0,2,,3203.2259999820963,response,ISIC_9267202.JPG,5,ISIC_0009993.JPG,ISIC_0009993.JPG,false,0,keypress(z),500,498291.7999999821,498291.7999999821,495081.071,495084,495088.574,498296.798,8,400,41,,ISIC_9267202.JPG
break,html.Screen,4_90_1,2023-09-15T19:07:26.967Z,,0,,,NaN,,,,,,false,,,,498292.09999999404,498292.09999999404,,498291.89999997616,,498296.798,8,400,,,
break_continue,html.Screen,4_90_2,2023-09-15T19:07:26.968Z,,0,,,NaN,,,,,,false,,,,498292.39999997616,498292.2999999821,,498292.2999999821,,498296.798,8,400,,,
sequence,flow.Sequence,4_90,2023-09-15T19:07:26.968Z,,0,,,3203.7259999820963,completion,,,,,false,,,,498292.39999997616,498292.2999999821,495081.071,495084,495088.574,498296.798,8,400,,,
trial,html.Screen,4_91_0,2023-09-15T19:07:29.786Z,,0,2,,2813.70199999999,response,ISIC_8492957.JPG,5,ISIC_0029874.JPG,ISIC_8492957.JPG,false,1,keypress(m),500,501110.59999999404,501110.5,498289.104,498292.5,498296.798,501114.205,8,400,42,,ISIC_0029874.JPG
break,html.Screen,4_91_1,2023-09-15T19:07:29.786Z,,0,,,NaN,,,,,,false,,,,501110.89999997616,501110.89999997616,,501110.6999999881,,501114.205,8,400,,,
break_continue,html.Screen,4_91_2,2023-09-15T19:07:29.786Z,,0,,,NaN,,,,,,false,,,,501111.09999999404,501111.09999999404,,501111,,501114.205,8,400,,,
sequence,flow.Sequence,4_91,2023-09-15T19:07:29.786Z,,0,,,2814.3019999940298,completion,,,,,false,,,,501111.09999999404,501111.09999999404,498289.104,498292.39999997616,498296.798,501114.205,8,400,,,
trial,html.Screen,4_92_0,2023-09-15T19:07:32.492Z,,0,2,,2702.5949999821023,response,ISIC_5116614.JPG,4,ISIC_0034061.JPG,ISIC_0034061.JPG,false,0,keypress(z),500,503816.89999997616,503816.7999999821,501110.712,501111.1999999881,501114.205,503819.201,8,400,43,,ISIC_5116614.JPG
break,html.Screen,4_92_1,2023-09-15T19:07:32.492Z,,0,,,NaN,,,,,,false,,,,503817.1999999881,503817.09999999404,,503817,,503819.201,8,400,,,
break_continue,html.Screen,4_92_2,2023-09-15T19:07:32.493Z,,0,,,NaN,,,,,,false,,,,503817.5,503817.39999997616,,503817.1999999881,,503819.201,8,400,,,
sequence,flow.Sequence,4_92,2023-09-15T19:07:32.493Z,,0,,,2703.194999976142,completion,,,,,false,,,,503817.5,503817.39999997616,501110.712,501111.1999999881,501114.205,503819.201,8,400,,,
trial,html.Screen,4_93_0,2023-09-15T19:07:37.343Z,,0,2,,4847.998999988078,response,ISIC_0069481.JPG,5,ISIC_0034049.JPG,ISIC_0034049.JPG,false,0,keypress(z),500,508667.39999997616,508667.1999999881,503815.778,503817.59999999404,503819.201,508669.518,8,400,44,,ISIC_0069481.JPG
break,html.Screen,4_93_1,2023-09-15T19:07:37.343Z,,0,,,NaN,,,,,,false,,,,508667.59999999404,508667.5,,508667.39999997616,,508669.518,8,400,,,
break_continue,html.Screen,4_93_2,2023-09-15T19:07:37.343Z,,0,,,NaN,,,,,,false,,,,508667.7999999821,508667.6999999881,,508667.59999999404,,508669.518,8,400,,,
sequence,flow.Sequence,4_93,2023-09-15T19:07:37.343Z,,0,,,4848.498999988078,completion,,,,,false,,,,508667.7999999821,508667.6999999881,503815.778,503817.59999999404,503819.201,508669.518,8,400,,,
trial,html.Screen,4_94_0,2023-09-15T19:07:42.609Z,,0,2,,5263.681999988097,response,ISIC_0032806.JPG,6,ISIC_1105263.JPG,ISIC_0032806.JPG,false,1,keypress(m),500,513933.1999999881,513933.1999999881,508666.327,508667.7999999821,508669.518,513936.282,8,400,45,,ISIC_1105263.JPG
break,html.Screen,4_94_1,2023-09-15T19:07:42.609Z,,0,,,NaN,,,,,,false,,,,513933.5,513933.39999997616,,513933.39999997616,,513936.282,8,400,,,
break_continue,html.Screen,4_94_2,2023-09-15T19:07:42.609Z,,0,,,NaN,,,,,,false,,,,513933.6999999881,513933.59999999404,,513933.5,,513936.282,8,400,,,
sequence,flow.Sequence,4_94,2023-09-15T19:07:42.609Z,,0,,,5264.081999994058,completion,,,,,false,,,,513933.6999999881,513933.59999999404,508666.327,508667.7999999821,508669.518,513936.282,8,400,,,
trial,html.Screen,4_95_0,2023-09-15T19:07:47.734Z,,0,2,,5122.617999976152,response,ISIC_4829706.JPG,5,ISIC_8690205.JPG,ISIC_4829706.JPG,false,1,keypress(m),500,519058.89999997616,519058.89999997616,513932.938,513933.7999999821,513936.282,519063.99,8,400,46,,ISIC_8690205.JPG
break,html.Screen,4_95_1,2023-09-15T19:07:47.734Z,,0,,,NaN,,,,,,false,,,,519059.2999999821,519059.1999999881,,519059,,519063.99,8,400,,,
break_continue,html.Screen,4_95_2,2023-09-15T19:07:47.735Z,,0,,,NaN,,,,,,false,,,,519059.5,519059.39999997616,,519059.2999999821,,519063.99,8,400,,,
sequence,flow.Sequence,4_95,2023-09-15T19:07:47.735Z,,0,,,5123.117999976152,completion,,,,,false,,,,519059.59999999404,519059.39999997616,513932.938,513933.7999999821,513936.282,519063.99,8,400,,,
trial,html.Screen,4_96_0,2023-09-15T19:07:50.761Z,,0,2,,3021.5100000000093,response,ISIC_0066733.JPG,6,ISIC_3779424.JPG,ISIC_0066733.JPG,false,1,keypress(m),500,522085.59999999404,522085.5,519056.358,519059.6999999881,519063.99,522087.942,8,400,47,,ISIC_3779424.JPG
break,html.Screen,4_96_1,2023-09-15T19:07:50.761Z,,0,,,NaN,,,,,,false,,,,522085.89999997616,522085.6999999881,,522085.6999999881,,522087.942,8,400,,,
break_continue,html.Screen,4_96_2,2023-09-15T19:07:50.761Z,,0,,,NaN,,,,,,false,,,,522086.09999999404,522086,,522085.89999997616,,522087.942,8,400,,,
sequence,flow.Sequence,4_96,2023-09-15T19:07:50.761Z,,0,,,3022.0100000000093,completion,,,,,false,,,,522086.1999999881,522086,519056.358,519059.6999999881,519063.99,522087.942,8,400,,,
trial,html.Screen,4_97_0,2023-09-15T19:07:55.806Z,,0,2,,5042.657999994059,response,ISIC_0056817.JPG,4,ISIC_0010581.JPG,ISIC_0010581.JPG,false,0,keypress(z),500,527130.6999999881,527130.599999994,522084.578,522086.1999999881,522087.942,527135.734,8,400,48,,ISIC_0056817.JPG
break,html.Screen,4_97_1,2023-09-15T19:07:55.806Z,,0,,,NaN,,,,,,false,,,,527130.8999999762,527130.7999999821,,527130.6999999881,,527135.734,8,400,,,
break_continue,html.Screen,4_97_2,2023-09-15T19:07:55.806Z,,0,,,NaN,,,,,,false,,,,527131.099999994,527131,,527130.8999999762,,527135.734,8,400,,,
sequence,flow.Sequence,4_97,2023-09-15T19:07:55.806Z,,0,,,5043.058000000019,completion,,,,,false,,,,527131.099999994,527131,522084.578,522086.1999999881,522087.942,527135.734,8,400,,,
trial,html.Screen,4_98_0,2023-09-15T19:07:58.832Z,,0,2,,3021.0659999820637,response,ISIC_0024507.JPG,5,ISIC_9375324.JPG,ISIC_9375324.JPG,false,0,keypress(z),500,530156.8999999762,530156.7999999821,527128.02,527131.1999999881,527135.734,530159.605,8,400,49,,ISIC_0024507.JPG
break,html.Screen,4_98_1,2023-09-15T19:07:58.832Z,,0,,,NaN,,,,,,false,,,,530157.1999999881,530157.099999994,,530157,,530159.605,8,400,,,
break_continue,html.Screen,4_98_2,2023-09-15T19:07:58.833Z,,0,,,NaN,,,,,,false,,,,530157.5,530157.3999999762,,530157.2999999821,,530159.605,8,400,,,
sequence,flow.Sequence,4_98,2023-09-15T19:07:58.833Z,,0,,,3021.665999976103,completion,,,,,false,,,,530157.599999994,530157.3999999762,527128.02,527131.099999994,527135.734,530159.605,8,400,,,
trial,html.Screen,4_99_0,2023-09-15T19:08:02.530Z,,0,2,,3695.2949999761768,response,ISIC_1637588.JPG,6,ISIC_0030554.JPG,ISIC_1637588.JPG,false,1,keypress(m),500,533855,533854.8999999762,530156.173,530157.599999994,530159.605,533857.372,8,400,50,,ISIC_0030554.JPG
break,html.Screen,4_99_1,2023-09-15T19:08:12.530Z,,0,,,10000.52899999998,timeout,,,,,false,,,,543854.6999999881,543854.468,533853.882,533855,533857.372,543857.901,8,400,,,
break_continue,html.Screen,4_99_2,2023-09-15T19:08:15.270Z,,0,,,2730.998999976204,response,,,,,false,continue,keypress(Space),,546594.7999999821,546588.8999999762,543854.468,543854.6999999881,543857.901,546596.137,8,400,,,
sequence,flow.Sequence,4_99,2023-09-15T19:08:15.270Z,,0,,,16429.294999976177,completion,,,,,false,,,,546594.7999999821,546588.8999999762,530156.173,530157.599999994,530159.605,546596.137,8,400,,,
trial,html.Screen,4_100_0,2023-09-15T19:08:19.081Z,,0,3,,3809.1629999821307,response,ISIC_0313507.JPG,6,ISIC_4097868.JPG,ISIC_0313507.JPG,false,1,keypress(m),500,550405.3999999762,550405.2999999821,546592.624,546594.7999999821,546596.137,550407.173,8,400,1,,ISIC_4097868.JPG
break,html.Screen,4_100_1,2023-09-15T19:08:19.081Z,,0,,,NaN,,,,,,false,,,,550405.6999999881,550405.599999994,,550405.3999999762,,550407.173,8,400,,,
break_continue,html.Screen,4_100_2,2023-09-15T19:08:19.081Z,,0,,,NaN,,,,,,false,,,,550405.8999999762,550405.8999999762,,550405.6999999881,,550407.173,8,400,,,
sequence,flow.Sequence,4_100,2023-09-15T19:08:19.081Z,,0,,,3809.7629999761702,completion,,,,,false,,,,550405.8999999762,550405.8999999762,546592.624,546594.7999999821,546596.137,550407.173,8,400,,,
trial,html.Screen,4_101_0,2023-09-15T19:08:21.963Z,,0,3,,2880.3270000000484,response,ISIC_4448959.JPG,5,ISIC_9948815.JPG,ISIC_4448959.JPG,false,1,keypress(m),500,553287.599999994,553287.5,550403.75,550406,550407.173,553293.007,8,400,2,,ISIC_9948815.JPG
break,html.Screen,4_101_1,2023-09-15T19:08:21.963Z,,0,,,NaN,,,,,,false,,,,553287.8999999762,553287.7999999821,,553287.6999999881,,553293.007,8,400,,,
break_continue,html.Screen,4_101_2,2023-09-15T19:08:21.963Z,,0,,,NaN,,,,,,false,,,,553288.099999994,553288.099999994,,553288,,553293.007,8,400,,,
sequence,flow.Sequence,4_101,2023-09-15T19:08:21.963Z,,0,,,2880.926999994088,completion,,,,,false,,,,553288.099999994,553288.099999994,550403.75,550406,550407.173,553293.007,8,400,,,
trial,html.Screen,4_102_0,2023-09-15T19:08:25.197Z,,0,3,,3228.7929999821354,response,ISIC_0071826.JPG,4,ISIC_1696845.JPG,ISIC_0071826.JPG,false,1,keypress(m),500,556521.7999999821,556521.7999999821,553285.267,553288.2999999821,553293.007,556523.377,8,400,3,,ISIC_1696845.JPG
break,html.Screen,4_102_1,2023-09-15T19:08:25.197Z,,0,,,NaN,,,,,,false,,,,556522.1999999881,556522.099999994,,556521.8999999762,,556523.377,8,400,,,
break_continue,html.Screen,4_102_2,2023-09-15T19:08:25.198Z,,0,,,NaN,,,,,,false,,,,556522.5,556522.3999999762,,556522.2999999821,,556523.377,8,400,,,
sequence,flow.Sequence,4_102,2023-09-15T19:08:25.198Z,,0,,,3229.392999976175,completion,,,,,false,,,,556522.5,556522.3999999762,553285.267,553288.1999999881,553293.007,556523.377,8,400,,,
trial,html.Screen,4_103_0,2023-09-15T19:08:27.827Z,,0,3,,2628.6230000000214,response,ISIC_0025139.JPG,5,ISIC_0006108.JPG,ISIC_0006108.JPG,false,0,keypress(z),500,559152.099999994,559152,556520.004,556522.5,556523.377,559155.116,8,400,4,,ISIC_0025139.JPG
break,html.Screen,4_103_1,2023-09-15T19:08:27.827Z,,0,,,NaN,,,,,,false,,,,559152.2999999821,559152.2999999821,,559152.1999999881,,559155.116,8,400,,,
break_continue,html.Screen,4_103_2,2023-09-15T19:08:27.828Z,,0,,,NaN,,,,,,false,,,,559152.5,559152.5,,559152.3999999762,,559155.116,8,400,,,
sequence,flow.Sequence,4_103,2023-09-15T19:08:27.828Z,,0,,,2629.1230000000214,completion,,,,,false,,,,559152.599999994,559152.5,556520.004,556522.5,556523.377,559155.116,8,400,,,
trial,html.Screen,4_104_0,2023-09-15T19:08:31.238Z,,0,3,,3407.78399997612,response,ISIC_0009886.JPG,6,ISIC_3190566.JPG,ISIC_0009886.JPG,false,1,keypress(m),500,562563,562562.8999999762,559151.779,559152.599999994,559155.116,562566.299,8,400,5,,ISIC_3190566.JPG
break,html.Screen,4_104_1,2023-09-15T19:08:31.238Z,,0,,,NaN,,,,,,false,,,,562563.2999999821,562563.2999999821,,562563,,562566.299,8,400,,,
break_continue,html.Screen,4_104_2,2023-09-15T19:08:31.239Z,,0,,,NaN,,,,,,false,,,,562563.3999999762,562563.3999999762,,562563.2999999821,,562566.299,8,400,,,
sequence,flow.Sequence,4_104,2023-09-15T19:08:31.239Z,,0,,,3408.28399997612,completion,,,,,false,,,,562563.5,562563.3999999762,559151.779,559152.599999994,559155.116,562566.299,8,400,,,
trial,html.Screen,4_105_0,2023-09-15T19:08:34.265Z,,0,3,,3023.0009999821195,response,ISIC_0032160.JPG,6,ISIC_2209697.JPG,ISIC_0032160.JPG,false,1,keypress(m),500,565589.2999999821,565589.2999999821,562562.948,562563.599999994,562566.299,565591.116,8,400,6,,ISIC_2209697.JPG
break,html.Screen,4_105_1,2023-09-15T19:08:34.265Z,,0,,,NaN,,,,,,false,,,,565589.599999994,565589.5,,565589.3999999762,,565591.116,8,400,,,
break_continue,html.Screen,4_105_2,2023-09-15T19:08:34.265Z,,0,,,NaN,,,,,,false,,,,565589.7999999821,565589.6999999881,,565589.6999999881,,565591.116,8,400,,,
sequence,flow.Sequence,4_105,2023-09-15T19:08:34.265Z,,0,,,3023.40099998808,completion,,,,,false,,,,565589.7999999821,565589.6999999881,562562.948,562563.5,562566.299,565591.116,8,400,,,
trial,html.Screen,4_106_0,2023-09-15T19:08:37.867Z,,0,3,,3600.383999999962,response,ISIC_0054767.JPG,6,ISIC_0005879.JPG,ISIC_0054767.JPG,false,1,keypress(m),500,569191.599999994,569191.5,565587.756,565589.8999999762,565591.116,569196.332,8,400,7,,ISIC_0005879.JPG
break,html.Screen,4_106_1,2023-09-15T19:08:37.867Z,,0,,,NaN,,,,,,false,,,,569191.7999999821,569191.6999999881,,569191.599999994,,569196.332,8,400,,,
break_continue,html.Screen,4_106_2,2023-09-15T19:08:37.867Z,,0,,,NaN,,,,,,false,,,,569191.8999999762,569191.8999999762,,569191.8999999762,,569196.332,8,400,,,
sequence,flow.Sequence,4_106,2023-09-15T19:08:37.867Z,,0,,,3600.78399997612,completion,,,,,false,,,,569192,569191.8999999762,565587.756,565589.8999999762,565591.116,569196.332,8,400,,,
trial,html.Screen,4_107_0,2023-09-15T19:08:41.069Z,,0,3,,3197.4679999820655,response,ISIC_0011800.JPG,6,ISIC_9596721.JPG,ISIC_9596721.JPG,false,0,keypress(z),500,572394,572393.7999999821,569188.868,569192,569196.332,572397.011,8,400,8,,ISIC_0011800.JPG
break,html.Screen,4_107_1,2023-09-15T19:08:41.069Z,,0,,,NaN,,,,,,false,,,,572394.2999999821,572394.2999999821,,572394.099999994,,572397.011,8,400,,,
break_continue,html.Screen,4_107_2,2023-09-15T19:08:41.070Z,,0,,,NaN,,,,,,false,,,,572394.3999999762,572394.3999999762,,572394.2999999821,,572397.011,8,400,,,
sequence,flow.Sequence,4_107,2023-09-15T19:08:41.070Z,,0,,,3198.067999976105,completion,,,,,false,,,,572394.3999999762,572394.3999999762,569188.868,569192,569196.332,572397.011,8,400,,,
trial,html.Screen,4_108_0,2023-09-15T19:08:43.839Z,,0,3,,2766.1889999880223,response,ISIC_9974299.JPG,4,ISIC_3506204.JPG,ISIC_3506204.JPG,false,0,keypress(z),500,575163.3999999762,575163.1999999881,572393.544,572394.5,572397.011,575165.256,8,400,9,,ISIC_9974299.JPG
break,html.Screen,4_108_1,2023-09-15T19:08:43.839Z,,0,,,NaN,,,,,,false,,,,575163.599999994,575163.599999994,,575163.3999999762,,575165.256,8,400,,,
break_continue,html.Screen,4_108_2,2023-09-15T19:08:43.839Z,,0,,,NaN,,,,,,false,,,,575163.6999999881,575163.6999999881,,575163.599999994,,575165.256,8,400,,,
sequence,flow.Sequence,4_108,2023-09-15T19:08:43.839Z,,0,,,2766.6889999880223,completion,,,,,false,,,,575163.7999999821,575163.6999999881,572393.544,572394.5,572397.011,575165.256,8,400,,,
trial,html.Screen,4_109_0,2023-09-15T19:08:46.609Z,,0,3,,2768.3439999939874,response,ISIC_0010998.JPG,5,ISIC_8436194.JPG,ISIC_0010998.JPG,false,1,keypress(m),500,577933.6999999881,577933.599999994,575161.888,575163.7999999821,575165.256,577936.85,8,400,10,,ISIC_8436194.JPG
break,html.Screen,4_109_1,2023-09-15T19:08:46.609Z,,0,,,NaN,,,,,,false,,,,577934.099999994,577933.8999999762,,577933.6999999881,,577936.85,8,400,,,
break_continue,html.Screen,4_109_2,2023-09-15T19:08:46.609Z,,0,,,NaN,,,,,,false,,,,577934.1999999881,577934.1999999881,,577934.099999994,,577936.85,8,400,,,
sequence,flow.Sequence,4_109,2023-09-15T19:08:46.609Z,,0,,,2768.943999988027,completion,,,,,false,,,,577934.2999999821,577934.1999999881,575161.888,575163.7999999821,575165.256,577936.85,8,400,,,
trial,html.Screen,4_110_0,2023-09-15T19:08:50.115Z,,0,3,,3502.949999982142,response,ISIC_0025056.JPG,5,ISIC_0422299.JPG,ISIC_0025056.JPG,false,1,keypress(m),500,581439.7999999821,581439.7999999821,577933.492,577934.3999999762,577936.85,581441.434,8,400,11,,ISIC_0422299.JPG
break,html.Screen,4_110_1,2023-09-15T19:08:50.115Z,,0,,,NaN,,,,,,false,,,,581440.099999994,581440.099999994,,581440,,581441.434,8,400,,,
break_continue,html.Screen,4_110_2,2023-09-15T19:08:50.115Z,,0,,,NaN,,,,,,false,,,,581440.2999999821,581440.1999999881,,581440.099999994,,581441.434,8,400,,,
sequence,flow.Sequence,4_110,2023-09-15T19:08:50.115Z,,0,,,3503.3499999881024,completion,,,,,false,,,,581440.2999999821,581440.1999999881,577933.492,577934.3999999762,577936.85,581441.434,8,400,,,
trial,html.Screen,4_111_0,2023-09-15T19:08:54.917Z,,0,3,,4800.065999999992,response,ISIC_7921023.JPG,4,ISIC_0046642.JPG,ISIC_0046642.JPG,false,0,keypress(z),500,586241.6999999881,586241.5,581437.977,581440.3999999762,581441.434,586245.188,8,400,12,,ISIC_7921023.JPG
break,html.Screen,4_111_1,2023-09-15T19:08:54.917Z,,0,,,NaN,,,,,,false,,,,586241.8999999762,586241.7999999821,,586241.6999999881,,586245.188,8,400,,,
break_continue,html.Screen,4_111_2,2023-09-15T19:08:54.917Z,,0,,,NaN,,,,,,false,,,,586242.099999994,586242.099999994,,586242,,586245.188,8,400,,,
sequence,flow.Sequence,4_111,2023-09-15T19:08:54.917Z,,0,,,4800.665999994031,completion,,,,,false,,,,586242.1999999881,586242.099999994,581437.977,581440.2999999821,581441.434,586245.188,8,400,,,
trial,html.Screen,4_112_0,2023-09-15T19:08:58.519Z,,0,3,,3598.411999994074,response,ISIC_8425541.JPG,4,ISIC_0024929.JPG,ISIC_0024929.JPG,false,0,keypress(z),500,589843.6999999881,589843.599999994,586241.786,586242.1999999881,586245.188,589846.239,8,400,13,,ISIC_8425541.JPG
break,html.Screen,4_112_1,2023-09-15T19:08:58.519Z,,0,,,NaN,,,,,,false,,,,589843.8999999762,589843.7999999821,,589843.6999999881,,589846.239,8,400,,,
break_continue,html.Screen,4_112_2,2023-09-15T19:08:58.519Z,,0,,,NaN,,,,,,false,,,,589844.099999994,589844,,589844,,589846.239,8,400,,,
sequence,flow.Sequence,4_112,2023-09-15T19:08:58.519Z,,0,,,3598.8120000000345,completion,,,,,false,,,,589844.099999994,589844,586241.786,586242.1999999881,586245.188,589846.239,8,400,,,
trial,html.Screen,4_113_0,2023-09-15T19:09:01.545Z,,0,3,,3023.160999976215,response,ISIC_0032603.JPG,5,ISIC_0013472.JPG,ISIC_0013472.JPG,false,0,keypress(z),500,592869.5,592869.3999999762,589842.805,589844.1999999881,589846.239,592870.991,8,400,14,,ISIC_0032603.JPG
break,html.Screen,4_113_1,2023-09-15T19:09:01.545Z,,0,,,NaN,,,,,,false,,,,592869.6999999881,592869.6999999881,,592869.599999994,,592870.991,8,400,,,
break_continue,html.Screen,4_113_2,2023-09-15T19:09:01.545Z,,0,,,NaN,,,,,,false,,,,592869.8999999762,592869.8999999762,,592869.7999999821,,592870.991,8,400,,,
sequence,flow.Sequence,4_113,2023-09-15T19:09:01.545Z,,0,,,3023.660999976215,completion,,,,,false,,,,592870,592869.8999999762,589842.805,589844.099999994,589846.239,592870.991,8,400,,,
trial,html.Screen,4_114_0,2023-09-15T19:09:04.746Z,,0,3,,3200.1089999940014,response,ISIC_5772144.JPG,5,ISIC_6609484.JPG,ISIC_6609484.JPG,false,0,keypress(z),500,596071.2999999821,596071.099999994,592867.66,592870,592870.991,596076.67,8,400,15,,ISIC_5772144.JPG
break,html.Screen,4_114_1,2023-09-15T19:09:04.747Z,,0,,,NaN,,,,,,false,,,,596071.3999999762,596071.3999999762,,596071.2999999821,,596076.67,8,400,,,
break_continue,html.Screen,4_114_2,2023-09-15T19:09:04.747Z,,0,,,NaN,,,,,,false,,,,596071.6999999881,596071.599999994,,596071.5,,596076.67,8,400,,,
sequence,flow.Sequence,4_114,2023-09-15T19:09:04.747Z,,0,,,3200.6089999940014,completion,,,,,false,,,,596071.6999999881,596071.599999994,592867.66,592870,592870.991,596076.67,8,400,,,
trial,html.Screen,4_115_0,2023-09-15T19:09:09.828Z,,0,3,,5075.729999976116,response,ISIC_0072604.JPG,6,ISIC_1604845.JPG,ISIC_1604845.JPG,false,0,keypress(z),500,601152.5,601152.3999999762,596069.116,596071.7999999821,596076.67,601155.98,8,400,16,,ISIC_0072604.JPG
break,html.Screen,4_115_1,2023-09-15T19:09:09.828Z,,0,,,NaN,,,,,,false,,,,601152.8999999762,601152.6999999881,,601152.599999994,,601155.98,8,400,,,
break_continue,html.Screen,4_115_2,2023-09-15T19:09:09.828Z,,0,,,NaN,,,,,,false,,,,601153.099999994,601153.099999994,,601153,,601155.98,8,400,,,
sequence,flow.Sequence,4_115,2023-09-15T19:09:09.828Z,,0,,,5076.429999993998,completion,,,,,false,,,,601153.1999999881,601153.099999994,596069.116,596071.7999999821,596076.67,601155.98,8,400,,,
trial,html.Screen,4_116_0,2023-09-15T19:09:14.477Z,,0,3,,4645.319999982137,response,ISIC_0013691.JPG,4,ISIC_0034173.JPG,ISIC_0013691.JPG,false,1,keypress(m),500,605801.3999999762,605801.2999999821,601152.557,601153.1999999881,601155.98,605803.181,8,400,17,,ISIC_0034173.JPG
break,html.Screen,4_116_1,2023-09-15T19:09:14.477Z,,0,,,NaN,,,,,,false,,,,605801.6999999881,605801.5,,605801.5,,605803.181,8,400,,,
break_continue,html.Screen,4_116_2,2023-09-15T19:09:14.477Z,,0,,,NaN,,,,,,false,,,,605801.8999999762,605801.8999999762,,605801.6999999881,,605803.181,8,400,,,
sequence,flow.Sequence,4_116,2023-09-15T19:09:14.477Z,,0,,,4645.919999976177,completion,,,,,false,,,,605802.099999994,605801.8999999762,601152.557,601153.1999999881,601155.98,605803.181,8,400,,,
trial,html.Screen,4_117_0,2023-09-15T19:09:17.215Z,,0,3,,2736.8190000000177,response,ISIC_8516223.JPG,5,ISIC_0011943.JPG,ISIC_0011943.JPG,false,0,keypress(z),500,608540.099999994,608540,605799.664,605802.099999994,605803.181,608541.36,8,400,18,,ISIC_8516223.JPG
break,html.Screen,4_117_1,2023-09-15T19:09:17.216Z,,0,,,NaN,,,,,,false,,,,608540.3999999762,608540.1999999881,,608540.1999999881,,608541.36,8,400,,,
break_continue,html.Screen,4_117_2,2023-09-15T19:09:17.216Z,,0,,,NaN,,,,,,false,,,,608540.5,608540.3999999762,,608540.3999999762,,608541.36,8,400,,,
sequence,flow.Sequence,4_117,2023-09-15T19:09:17.216Z,,0,,,2737.218999976176,completion,,,,,false,,,,608540.5,608540.3999999762,605799.664,605802.099999994,605803.181,608541.36,8,400,,,
trial,html.Screen,4_118_0,2023-09-15T19:09:20.514Z,,0,3,,3297.140000000014,response,ISIC_8931948.JPG,5,ISIC_0011094.JPG,ISIC_0011094.JPG,false,0,keypress(z),500,611838.6999999881,611838.5,608537.961,608540.599999994,608541.36,611843.432,8,400,19,,ISIC_8931948.JPG
break,html.Screen,4_118_1,2023-09-15T19:09:20.514Z,,0,,,NaN,,,,,,false,,,,611839,611838.8999999762,,611838.6999999881,,611843.432,8,400,,,
break_continue,html.Screen,4_118_2,2023-09-15T19:09:20.514Z,,0,,,NaN,,,,,,false,,,,611839.1999999881,611839.099999994,,611839,,611843.432,8,400,,,
sequence,flow.Sequence,4_118,2023-09-15T19:09:20.514Z,,0,,,3297.7399999940535,completion,,,,,false,,,,611839.1999999881,611839.099999994,608537.961,608540.599999994,608541.36,611843.432,8,400,,,
trial,html.Screen,4_119_0,2023-09-15T19:09:23.540Z,,0,3,,3021.06799999997,response,ISIC_0064557.JPG,5,ISIC_0011471.JPG,ISIC_0011471.JPG,false,0,keypress(z),500,614864.599999994,614864.5,611835.969,611839.2999999821,611843.432,614867.543,8,400,20,,ISIC_0064557.JPG
break,html.Screen,4_119_1,2023-09-15T19:09:23.540Z,,0,,,NaN,,,,,,false,,,,614864.7999999821,614864.6999999881,,614864.599999994,,614867.543,8,400,,,
break_continue,html.Screen,4_119_2,2023-09-15T19:09:23.540Z,,0,,,NaN,,,,,,false,,,,614865,614865,,614864.7999999821,,614867.543,8,400,,,
sequence,flow.Sequence,4_119,2023-09-15T19:09:23.540Z,,0,,,3021.56799999997,completion,,,,,false,,,,614865.099999994,614865,611835.969,611839.2999999821,611843.432,614867.543,8,400,,,
trial,html.Screen,4_120_0,2023-09-15T19:09:26.774Z,,0,3,,3230.957000000053,response,ISIC_0032635.JPG,5,ISIC_0000549.JPG,ISIC_0000549.JPG,false,0,keypress(z),500,618098.599999994,618098.5,614864.188,614865.099999994,614867.543,618102.212,8,400,21,,ISIC_0032635.JPG
break,html.Screen,4_120_1,2023-09-15T19:09:26.774Z,,0,,,NaN,,,,,,false,,,,618099,618098.6999999881,,618098.6999999881,,618102.212,8,400,,,
break_continue,html.Screen,4_120_2,2023-09-15T19:09:26.775Z,,0,,,NaN,,,,,,false,,,,618099.1999999881,618099.1999999881,,618099.1999999881,,618102.212,8,400,,,
sequence,flow.Sequence,4_120,2023-09-15T19:09:26.775Z,,0,,,3231.656999988132,completion,,,,,false,,,,618099.2999999821,618099.1999999881,614864.188,614865.099999994,614867.543,618102.212,8,400,,,
trial,html.Screen,4_121_0,2023-09-15T19:09:29.528Z,,0,3,,2749.9879999880213,response,ISIC_0066678.JPG,5,ISIC_0068015.JPG,ISIC_0066678.JPG,false,1,keypress(m),500,620852.2999999821,620852.1999999881,618098.77,618099.3999999762,618102.212,620853.866,8,400,22,,ISIC_0068015.JPG
break,html.Screen,4_121_1,2023-09-15T19:09:29.528Z,,0,,,NaN,,,,,,false,,,,620852.599999994,620852.5,,620852.2999999821,,620853.866,8,400,,,
break_continue,html.Screen,4_121_2,2023-09-15T19:09:29.528Z,,0,,,NaN,,,,,,false,,,,620852.8999999762,620852.7999999821,,620852.6999999881,,620853.866,8,400,,,
sequence,flow.Sequence,4_121,2023-09-15T19:09:29.528Z,,0,,,2750.587999982061,completion,,,,,false,,,,620852.8999999762,620852.7999999821,618098.77,618099.2999999821,618102.212,620853.866,8,400,,,
trial,html.Screen,4_122_0,2023-09-15T19:09:32.410Z,,0,3,,2880.7339999940014,response,ISIC_2805634.JPG,5,ISIC_0000401.JPG,ISIC_0000401.JPG,false,0,keypress(z),500,623734.599999994,623734.599999994,620850.383,620852.8999999762,620853.866,623739.621,8,400,23,,ISIC_2805634.JPG
break,html.Screen,4_122_1,2023-09-15T19:09:32.410Z,,0,,,NaN,,,,,,false,,,,623734.8999999762,623734.7999999821,,623734.6999999881,,623739.621,8,400,,,
break_continue,html.Screen,4_122_2,2023-09-15T19:09:32.410Z,,0,,,NaN,,,,,,false,,,,623735.1999999881,623735.099999994,,623735,,623739.621,8,400,,,
sequence,flow.Sequence,4_122,2023-09-15T19:09:32.411Z,,0,,,2881.2339999940014,completion,,,,,false,,,,623735.2999999821,623735.099999994,620850.383,620852.8999999762,620853.866,623739.621,8,400,,,
trial,html.Screen,4_123_0,2023-09-15T19:09:35.021Z,,0,3,,2606.1789999820758,response,ISIC_0029071.JPG,5,ISIC_0032313.JPG,ISIC_0029071.JPG,false,1,keypress(m),500,626345.8999999762,626345.7999999821,623732.095,623735.2999999821,623739.621,626351.815,8,400,24,,ISIC_0032313.JPG
break,html.Screen,4_123_1,2023-09-15T19:09:35.021Z,,0,,,NaN,,,,,,false,,,,626346.1999999881,626346.099999994,,626345.8999999762,,626351.815,8,400,,,
break_continue,html.Screen,4_123_2,2023-09-15T19:09:35.022Z,,0,,,NaN,,,,,,false,,,,626346.1999999881,626346.1999999881,,626346.1999999881,,626351.815,8,400,,,
sequence,flow.Sequence,4_123,2023-09-15T19:09:35.022Z,,0,,,2606.5789999880362,completion,,,,,false,,,,626346.2999999821,626346.1999999881,623732.095,623735.2999999821,623739.621,626351.815,8,400,,,
trial,html.Screen,4_124_0,2023-09-15T19:09:37.608Z,,0,3,,2580.384999988135,response,ISIC_0064478.JPG,5,ISIC_0056127.JPG,ISIC_0056127.JPG,false,0,keypress(z),500,628932.2999999821,628932.1999999881,626343.667,626346.3999999762,626351.815,628935.559,8,400,25,,ISIC_0064478.JPG
break,html.Screen,4_124_1,2023-09-15T19:09:37.608Z,,0,,,NaN,,,,,,false,,,,628932.599999994,628932.5,,628932.3999999762,,628935.559,8,400,,,
break_continue,html.Screen,4_124_2,2023-09-15T19:09:37.608Z,,0,,,NaN,,,,,,false,,,,628932.6999999881,628932.6999999881,,628932.6999999881,,628935.559,8,400,,,
sequence,flow.Sequence,4_124,2023-09-15T19:09:37.608Z,,0,,,2580.884999988135,completion,,,,,false,,,,628932.7999999821,628932.6999999881,626343.667,626346.3999999762,626351.815,628935.559,8,400,,,
trial,html.Screen,4_125_0,2023-09-15T19:09:40.304Z,,0,3,,2693.1409999880707,response,ISIC_0001139.JPG,6,ISIC_0057362.JPG,ISIC_0057362.JPG,false,0,keypress(z),500,631628.8999999762,631628.6999999881,628932.139,628932.8999999762,628935.559,631630.562,8,400,26,,ISIC_0001139.JPG
break,html.Screen,4_125_1,2023-09-15T19:09:40.304Z,,0,,,NaN,,,,,,false,,,,631629.099999994,631629,,631628.8999999762,,631630.562,8,400,,,
break_continue,html.Screen,4_125_2,2023-09-15T19:09:40.305Z,,0,,,NaN,,,,,,false,,,,631629.2999999821,631629.1999999881,,631629.099999994,,631630.562,8,400,,,
