sender,sender_type,sender_id,timestamp,meta,,blockNo,condition,duration,ended_on,img_left,img_reveal,img_right,loser,practice,response,response_action,selection_duration,time_commit,time_end,time_render,time_run,time_show,time_switch,total_blocks,total_trials,trialNo,url,winner
informed_consent,html.Screen,0,2023-05-03T19:15:18.882Z,"{""labjs_version"":""20.2.4"",""labjs_build"":{""flavor"":""production"",""commit"":""f5b4a49f956347addd546a832a3327688c2c0fef""},""location"":""https://run.pavlovia.org/MurrayBennett/melanoma-2afc/?participant=64995"",""userAgent"":""Mozilla/5.0 (Macintosh; Intel Mac OS X 10_15_7) AppleWebKit/537.36 (KHTML, like Gecko) Chrome/112.0.0.0 Safari/537.36"",""platform"":""MacIntel"",""language"":""en-US"",""locale"":""en-US"",""timeZone"":""America/Chicago"",""timezoneOffset"":300,""screen_width"":1366,""screen_height"":768,""scroll_width"":1366,""scroll_height"":640,""window_innerWidth"":1366,""window_innerHeight"":688,""devicePixelRatio"":1}",,,,7038.549,response,,,,,,consent,click button,,10447.800000011921,10444,3388.785,3386.1000000089407,3405.451,10488.928,,,,"{""participant"":""64995""}",
Welcome,html.Screen,1,2023-05-03T19:15:42.925Z,,,,regular,23998.97200000596,response,,,,,,continue,click button,,34491.20000000298,34487.90000000596,10438.93,10448,10488.928,34504.634,,,,,
trial,html.Screen,2_0_0,2023-05-03T19:15:47.476Z,,0,0,,4536.266000005962,response,ISIC_0061792.JPG,,ISIC_4679428.JPG,ISIC_0061792.JPG,true,1,keypress(m),500,39041.40000000596,39040.90000000596,34487.968,34491.70000000298,34504.634,39055.492,1,6,1,,ISIC_4679428.JPG
sequence,flow.Sequence,2_0,2023-05-03T19:15:47.476Z,,0,,,4536.266000005962,completion,,,,,true,,,,39041.90000000596,39040.90000000596,34487.968,34491.60000000894,34504.634,39055.492,1,6,,,
trial,html.Screen,2_1_0,2023-05-03T19:15:53.387Z,,0,0,,5896.708000002982,response,ISIC_0776486.JPG,,ISIC_5199497.JPG,ISIC_0776486.JPG,true,1,keypress(m),500,44952.60000000894,44952.20000000298,39038.826,39042.10000000894,39055.492,44955.256,1,6,2,,ISIC_5199497.JPG
sequence,flow.Sequence,2_1,2023-05-03T19:15:53.387Z,,0,,,5896.708000002982,completion,,,,,true,,,,44952.90000000596,44952.20000000298,39038.826,39042.10000000894,39055.492,44955.256,1,6,,,
trial,html.Screen,2_2_0,2023-05-03T19:16:00.149Z,,0,0,,6758.644000005959,response,ISIC_2556187.JPG,,ISIC_8575776.JPG,ISIC_8575776.JPG,true,0,keypress(z),500,51714.20000000298,51713.90000000596,44938.59,44953.20000000298,44955.256,51722.05,1,6,3,,ISIC_2556187.JPG
sequence,flow.Sequence,2_2,2023-05-03T19:16:00.149Z,,0,,,6758.644000005959,completion,,,,,true,,,,51714.60000000894,51713.90000000596,44938.59,44953.10000000894,44955.256,51722.05,1,6,,,
trial,html.Screen,2_3_0,2023-05-03T19:16:06.350Z,,0,0,,6192.750000011918,response,ISIC_8141769.JPG,,ISIC_9238366.JPG,ISIC_8141769.JPG,true,1,keypress(m),500,57915.10000000894,57914.80000001192,51705.384,51714.80000001192,51722.05,57922.404,1,6,4,,ISIC_9238366.JPG
sequence,flow.Sequence,2_3,2023-05-03T19:16:06.350Z,,0,,,6192.750000011918,completion,,,,,true,,,,57915.5,57914.80000001192,51705.384,51714.70000000298,51722.05,57922.404,1,6,,,
trial,html.Screen,2_4_0,2023-05-03T19:16:11.307Z,,0,0,,4949.896000011919,response,ISIC_8949026.JPG,,ISIC_9959593.JPG,ISIC_9959593.JPG,true,0,keypress(z),500,62872.60000000894,62872.30000001192,57905.738,57915.80000001192,57922.404,62888.872,1,6,5,,ISIC_8949026.JPG
sequence,flow.Sequence,2_4,2023-05-03T19:16:11.308Z,,0,,,4949.896000011919,completion,,,,,true,,,,62873.10000000894,62872.30000001192,57905.738,57915.70000000298,57922.404,62888.872,1,6,,,
trial,html.Screen,2_5_0,2023-05-03T19:16:16.668Z,,0,0,,5344.528000005957,response,ISIC_0010479.JPG,,ISIC_0460240.JPG,ISIC_0010479.JPG,true,1,keypress(m),500,68233.70000000298,68233.40000000596,62872.206,62873.30000001192,62888.872,68238.988,1,6,6,,ISIC_0460240.JPG
sequence,flow.Sequence,2_5,2023-05-03T19:16:16.669Z,,0,,,5344.528000005957,completion,,,,,true,,,,68234.20000000298,68233.40000000596,62872.206,62873.30000001192,62888.872,68238.988,1,6,,,
loop,flow.Loop,2,2023-05-03T19:16:16.669Z,,,,,33728.76600000596,completion,,,,,true,,,,68234.5,68233.40000000596,34487.968,34491.5,34504.634,68238.988,1,6,,,
exp_instructions,html.Screen,3,2023-05-03T19:16:29.667Z,,,,,12989.212000002983,response,,,,,,continue,keypress(Space),,81232.40000000596,81228.20000000298,68222.322,68234.70000000298,68238.988,81238.982,,,,,
trial,html.Screen,4_0_0,2023-05-03T19:16:35.892Z,,0,1,,6217.517999999996,response,ISIC_0016013.JPG,,ISIC_0030985.JPG,ISIC_0016013.JPG,false,1,keypress(m),500,87456.70000000298,87456.5,81222.316,81232.90000000596,81238.982,87472.066,8,400,1,,ISIC_0030985.JPG
break,html.Screen,4_0_1,2023-05-03T19:16:35.893Z,,0,,,NaN,,,,,,false,,,,87457.80000001192,87457.40000000596,,87457,,87472.066,8,400,,,
break_continue,html.Screen,4_0_2,2023-05-03T19:16:35.893Z,,0,,,NaN,,,,,,false,,,,87458.40000000596,87458.20000000298,,87458,,87472.066,8,400,,,
sequence,flow.Sequence,4_0,2023-05-03T19:16:35.893Z,,0,,,6219.218000002977,completion,,,,,false,,,,87458.70000000298,87458.20000000298,81222.316,81232.90000000596,81238.982,87472.066,8,400,,,
trial,html.Screen,4_1_0,2023-05-03T19:16:39.388Z,,0,1,,3480.7340000119148,response,ISIC_0013652.JPG,,ISIC_0072943.JPG,ISIC_0013652.JPG,false,1,keypress(m),500,90953,90952.80000001192,87455.4,87458.90000000596,87472.066,90955.675,8,400,2,,ISIC_0072943.JPG
break,html.Screen,4_1_1,2023-05-03T19:16:39.389Z,,0,,,NaN,,,,,,false,,,,90953.90000000596,90953.60000000894,,90953.30000001192,,90955.675,8,400,,,
break_continue,html.Screen,4_1_2,2023-05-03T19:16:39.389Z,,0,,,NaN,,,,,,false,,,,90954.40000000596,90954.20000000298,,90954.10000000894,,90955.675,8,400,,,
sequence,flow.Sequence,4_1,2023-05-03T19:16:39.389Z,,0,,,3482.134000002974,completion,,,,,false,,,,90954.5,90954.20000000298,87455.4,87458.80000001192,87472.066,90955.675,8,400,,,
trial,html.Screen,4_2_0,2023-05-03T19:16:43.548Z,,0,1,,4157.125000011918,response,ISIC_2377039.JPG,,ISIC_0057067.JPG,ISIC_0057067.JPG,false,0,keypress(z),500,95113.10000000894,95112.80000001192,90939.009,90954.80000001192,90955.675,95122.175,8,400,3,,ISIC_2377039.JPG
break,html.Screen,4_2_1,2023-05-03T19:16:43.549Z,,0,,,NaN,,,,,,false,,,,95113.80000001192,95113.60000000894,,95113.30000001192,,95122.175,8,400,,,
break_continue,html.Screen,4_2_2,2023-05-03T19:16:43.549Z,,0,,,NaN,,,,,,false,,,,95114.30000001192,95114.20000000298,,95114.10000000894,,95122.175,8,400,,,
sequence,flow.Sequence,4_2,2023-05-03T19:16:43.549Z,,0,,,4158.525000002977,completion,,,,,false,,,,95114.60000000894,95114.20000000298,90939.009,90954.70000000298,90955.675,95122.175,8,400,,,
trial,html.Screen,4_3_0,2023-05-03T19:16:47.428Z,,0,1,,3870.324999999997,response,ISIC_7206167.JPG,,ISIC_6320497.JPG,ISIC_6320497.JPG,false,0,keypress(z),500,98992.70000000298,98992.5,95105.509,95114.80000001192,95122.175,99005.794,8,400,4,,ISIC_7206167.JPG
break,html.Screen,4_3_1,2023-05-03T19:16:47.428Z,,0,,,NaN,,,,,,false,,,,98993.5,98993.20000000298,,98992.90000000596,,99005.794,8,400,,,
break_continue,html.Screen,4_3_2,2023-05-03T19:16:47.429Z,,0,,,NaN,,,,,,false,,,,98994,98993.80000001192,,98993.70000000298,,99005.794,8,400,,,
sequence,flow.Sequence,4_3,2023-05-03T19:16:47.429Z,,0,,,3871.625000011918,completion,,,,,false,,,,98994.20000000298,98993.80000001192,95105.509,95114.80000001192,95122.175,99005.794,8,400,,,
trial,html.Screen,4_4_0,2023-05-03T19:16:51.598Z,,0,1,,4157.0060000119265,response,ISIC_0071972.JPG,,ISIC_0013096.JPG,ISIC_0013096.JPG,false,0,keypress(z),500,103163,103162.80000001192,98989.128,98994.40000000596,99005.794,103172.294,8,400,5,,ISIC_0071972.JPG
break,html.Screen,4_4_1,2023-05-03T19:16:51.599Z,,0,,,NaN,,,,,,false,,,,103163.90000000596,103163.60000000894,,103163.30000001192,,103172.294,8,400,,,
break_continue,html.Screen,4_4_2,2023-05-03T19:16:51.599Z,,0,,,NaN,,,,,,false,,,,103164.40000000596,103164.30000001192,,103164.20000000298,,103172.294,8,400,,,
sequence,flow.Sequence,4_4,2023-05-03T19:16:51.600Z,,0,,,4158.5060000119265,completion,,,,,false,,,,103164.70000000298,103164.30000001192,98989.128,98994.30000001192,99005.794,103172.294,8,400,,,
trial,html.Screen,4_5_0,2023-05-03T19:16:55.843Z,,0,1,,4235.806000008946,response,ISIC_2445765.JPG,,ISIC_5021861.JPG,ISIC_2445765.JPG,false,1,keypress(m),500,107408.40000000596,107408.10000000894,103155.628,103164.90000000596,103172.294,107422.124,8,400,6,,ISIC_5021861.JPG
break,html.Screen,4_5_1,2023-05-03T19:16:55.844Z,,0,,,NaN,,,,,,false,,,,107409.10000000894,107408.90000000596,,107408.5,,107422.124,8,400,,,
break_continue,html.Screen,4_5_2,2023-05-03T19:16:55.845Z,,0,,,NaN,,,,,,false,,,,107409.60000000894,107409.30000001192,,107409.30000001192,,107422.124,8,400,,,
sequence,flow.Sequence,4_5,2023-05-03T19:16:55.845Z,,0,,,4237.0060000119265,completion,,,,,false,,,,107409.70000000298,107409.30000001192,103155.628,103164.80000001192,103172.294,107422.124,8,400,,,
trial,html.Screen,4_6_0,2023-05-03T19:17:01.950Z,,0,1,,6092.876000000004,response,ISIC_7518524.JPG,,ISIC_0000539.JPG,ISIC_0000539.JPG,false,0,keypress(z),500,113515.20000000298,113515,107405.458,107409.90000000596,107422.124,113522.286,8,400,7,,ISIC_7518524.JPG
break,html.Screen,4_6_1,2023-05-03T19:17:01.951Z,,0,,,NaN,,,,,,false,,,,113515.90000000596,113515.70000000298,,113515.40000000596,,113522.286,8,400,,,
break_continue,html.Screen,4_6_2,2023-05-03T19:17:01.951Z,,0,,,NaN,,,,,,false,,,,113516.30000001192,113516.20000000298,,113516,,113522.286,8,400,,,
sequence,flow.Sequence,4_6,2023-05-03T19:17:01.952Z,,0,,,6094.076000002984,completion,,,,,false,,,,113516.60000000894,113516.20000000298,107405.458,107409.80000001192,107422.124,113522.286,8,400,,,
trial,html.Screen,4_7_0,2023-05-03T19:17:05.331Z,,0,1,,3373.4140000029874,response,ISIC_0058529.JPG,,ISIC_0010761.JPG,ISIC_0058529.JPG,false,1,keypress(m),500,116896,116895.70000000298,113505.62,113516.70000000298,113522.286,116905.484,8,400,8,,ISIC_0010761.JPG
break,html.Screen,4_7_1,2023-05-03T19:17:05.332Z,,0,,,NaN,,,,,,false,,,,116896.80000001192,116896.5,,116896.20000000298,,116905.484,8,400,,,
break_continue,html.Screen,4_7_2,2023-05-03T19:17:05.332Z,,0,,,NaN,,,,,,false,,,,116897.20000000298,116897.10000000894,,116896.90000000596,,116905.484,8,400,,,
sequence,flow.Sequence,4_7,2023-05-03T19:17:05.332Z,,0,,,3374.814000008948,completion,,,,,false,,,,116897.30000001192,116897.10000000894,113505.62,113516.70000000298,113522.286,116905.484,8,400,,,
trial,html.Screen,4_8_0,2023-05-03T19:17:10.669Z,,0,1,,5328.616000008944,response,ISIC_1988335.JPG,,ISIC_5281908.JPG,ISIC_1988335.JPG,false,1,keypress(m),500,122234.30000001192,122234.10000000894,116888.818,116897.5,116905.484,122239.015,8,400,9,,ISIC_5281908.JPG
break,html.Screen,4_8_1,2023-05-03T19:17:10.670Z,,0,,,NaN,,,,,,false,,,,122235,122234.80000001192,,122234.5,,122239.015,8,400,,,
break_continue,html.Screen,4_8_2,2023-05-03T19:17:10.671Z,,0,,,NaN,,,,,,false,,,,122235.5,122235.30000001192,,122235.10000000894,,122239.015,8,400,,,
sequence,flow.Sequence,4_8,2023-05-03T19:17:10.671Z,,0,,,5329.816000011924,completion,,,,,false,,,,122235.5,122235.30000001192,116888.818,116897.5,116905.484,122239.015,8,400,,,
trial,html.Screen,4_9_0,2023-05-03T19:17:14.205Z,,0,1,,3530.385000005961,response,ISIC_5296963.JPG,,ISIC_9084751.JPG,ISIC_5296963.JPG,false,1,keypress(m),500,125769.60000000894,125769.40000000596,122222.349,122235.80000001192,122239.015,125772.207,8,400,10,,ISIC_9084751.JPG
break,html.Screen,4_9_1,2023-05-03T19:17:14.206Z,,0,,,NaN,,,,,,false,,,,125770.40000000596,125770.10000000894,,125769.80000001192,,125772.207,8,400,,,
break_continue,html.Screen,4_9_2,2023-05-03T19:17:14.206Z,,0,,,NaN,,,,,,false,,,,125770.80000001192,125770.60000000894,,125770.5,,125772.207,8,400,,,
sequence,flow.Sequence,4_9,2023-05-03T19:17:14.206Z,,0,,,3531.5850000089413,completion,,,,,false,,,,125771,125770.60000000894,122222.349,122235.70000000298,122239.015,125772.207,8,400,,,
trial,html.Screen,4_10_0,2023-05-03T19:17:18.220Z,,0,1,,4012.6930000059656,response,ISIC_0066637.JPG,,ISIC_0060390.JPG,ISIC_0060390.JPG,false,0,keypress(z),500,129785.20000000298,129784.90000000596,125755.541,125771.10000000894,125772.207,129789.045,8,400,11,,ISIC_0066637.JPG
break,html.Screen,4_10_1,2023-05-03T19:17:18.221Z,,0,,,NaN,,,,,,false,,,,129786,129785.70000000298,,129785.40000000596,,129789.045,8,400,,,
break_continue,html.Screen,4_10_2,2023-05-03T19:17:18.222Z,,0,,,NaN,,,,,,false,,,,129786.60000000894,129786.40000000596,,129786.30000001192,,129789.045,8,400,,,
sequence,flow.Sequence,4_10,2023-05-03T19:17:18.222Z,,0,,,4014.1930000059656,completion,,,,,false,,,,129786.80000001192,129786.40000000596,125755.541,125771.10000000894,125772.207,129789.045,8,400,,,
trial,html.Screen,4_11_0,2023-05-03T19:17:21.908Z,,0,1,,3683.5550000089424,response,ISIC_0011064.JPG,,ISIC_3689759.JPG,ISIC_3689759.JPG,false,0,keypress(z),500,133472.80000001192,133472.60000000894,129772.379,129787,129789.045,133488.897,8,400,12,,ISIC_0011064.JPG
break,html.Screen,4_11_1,2023-05-03T19:17:21.909Z,,0,,,NaN,,,,,,false,,,,133473.60000000894,133473.5,,133473.10000000894,,133488.897,8,400,,,
break_continue,html.Screen,4_11_2,2023-05-03T19:17:21.909Z,,0,,,NaN,,,,,,false,,,,133474,133473.90000000596,,133473.80000001192,,133488.897,8,400,,,
sequence,flow.Sequence,4_11,2023-05-03T19:17:21.910Z,,0,,,3684.855000005962,completion,,,,,false,,,,133474.30000001192,133473.90000000596,129772.379,129786.90000000596,129789.045,133488.897,8,400,,,
trial,html.Screen,4_12_0,2023-05-03T19:17:25.246Z,,0,1,,3321.7030000089435,response,ISIC_0055491.JPG,,ISIC_0011521.JPG,ISIC_0055491.JPG,false,1,keypress(m),500,136810.80000001192,136810.60000000894,133472.231,133474.60000000894,133488.897,136822.097,8,400,13,,ISIC_0011521.JPG
break,html.Screen,4_12_1,2023-05-03T19:17:25.247Z,,0,,,NaN,,,,,,false,,,,136811.60000000894,136811.40000000596,,136811,,136822.097,8,400,,,
break_continue,html.Screen,4_12_2,2023-05-03T19:17:25.247Z,,0,,,NaN,,,,,,false,,,,136812,136811.90000000596,,136811.70000000298,,136822.097,8,400,,,
sequence,flow.Sequence,4_12,2023-05-03T19:17:25.248Z,,0,,,3323.0030000059633,completion,,,,,false,,,,136812.20000000298,136811.90000000596,133472.231,133474.5,133488.897,136822.097,8,400,,,
trial,html.Screen,4_13_0,2023-05-03T19:17:29.907Z,,0,1,,4649.603000002971,response,ISIC_0899961.JPG,,ISIC_4191202.JPG,ISIC_4191202.JPG,false,0,keypress(z),500,141472,141471.70000000298,136805.431,136812.5,136822.097,141489.057,8,400,14,,ISIC_0899961.JPG
break,html.Screen,4_13_1,2023-05-03T19:17:29.908Z,,0,,,NaN,,,,,,false,,,,141472.80000001192,141472.60000000894,,141472.20000000298,,141489.057,8,400,,,
break_continue,html.Screen,4_13_2,2023-05-03T19:17:29.909Z,,0,,,NaN,,,,,,false,,,,141473.30000001192,141473.10000000894,,141473,,141489.057,8,400,,,
sequence,flow.Sequence,4_13,2023-05-03T19:17:29.909Z,,0,,,4651.003000008932,completion,,,,,false,,,,141473.5,141473.10000000894,136805.431,136812.40000000596,136822.097,141489.057,8,400,,,
trial,html.Screen,4_14_0,2023-05-03T19:17:33.700Z,,0,1,,3774.8430000059598,response,ISIC_8043299.JPG,,ISIC_6566042.JPG,ISIC_6566042.JPG,false,0,keypress(z),500,145264.10000000894,145263.90000000596,141472.391,141473.70000000298,141489.057,145272.239,8,400,15,,ISIC_8043299.JPG
break,html.Screen,4_14_1,2023-05-03T19:17:33.700Z,,0,,,NaN,,,,,,false,,,,145265.10000000894,145264.70000000298,,145264.40000000596,,145272.239,8,400,,,
break_continue,html.Screen,4_14_2,2023-05-03T19:17:33.701Z,,0,,,NaN,,,,,,false,,,,145265.5,145265.30000001192,,145265.20000000298,,145272.239,8,400,,,
sequence,flow.Sequence,4_14,2023-05-03T19:17:33.701Z,,0,,,3776.2430000119202,completion,,,,,false,,,,145265.70000000298,145265.30000001192,141472.391,141473.70000000298,141489.057,145272.239,8,400,,,
trial,html.Screen,4_15_0,2023-05-03T19:17:38.205Z,,0,1,,4497.161000005959,response,ISIC_0029562.JPG,,ISIC_0033192.JPG,ISIC_0029562.JPG,false,1,keypress(m),500,149769.60000000894,149769.40000000596,145255.573,145265.90000000596,145272.239,149772.059,8,400,16,,ISIC_0033192.JPG
break,html.Screen,4_15_1,2023-05-03T19:17:38.206Z,,0,,,NaN,,,,,,false,,,,149770.5,149770.20000000298,,149769.80000001192,,149772.059,8,400,,,
break_continue,html.Screen,4_15_2,2023-05-03T19:17:38.206Z,,0,,,NaN,,,,,,false,,,,149770.90000000596,149770.70000000298,,149770.60000000894,,149772.059,8,400,,,
sequence,flow.Sequence,4_15,2023-05-03T19:17:38.207Z,,0,,,4498.461000002979,completion,,,,,false,,,,149771.10000000894,149770.70000000298,145255.573,145265.90000000596,145272.239,149772.059,8,400,,,
trial,html.Screen,4_16_0,2023-05-03T19:17:41.661Z,,0,1,,3452.841000005952,response,ISIC_4848047.JPG,,ISIC_5790319.JPG,ISIC_5790319.JPG,false,0,keypress(z),500,153225.10000000894,153224.90000000596,149755.393,149771.30000001192,149772.059,153239.105,8,400,17,,ISIC_4848047.JPG
break,html.Screen,4_16_1,2023-05-03T19:17:41.661Z,,0,,,NaN,,,,,,false,,,,153225.80000001192,153225.70000000298,,153225.30000001192,,153239.105,8,400,,,
break_continue,html.Screen,4_16_2,2023-05-03T19:17:41.662Z,,0,,,NaN,,,,,,false,,,,153226.40000000596,153226.20000000298,,153226.10000000894,,153239.105,8,400,,,
sequence,flow.Sequence,4_16,2023-05-03T19:17:41.662Z,,0,,,3454.141000002972,completion,,,,,false,,,,153226.60000000894,153226.20000000298,149755.393,149771.30000001192,149772.059,153239.105,8,400,,,
trial,html.Screen,4_17_0,2023-05-03T19:17:45.749Z,,0,1,,4074.1950000119105,response,ISIC_0057089.JPG,,ISIC_0031010.JPG,ISIC_0031010.JPG,false,0,keypress(z),500,157313.60000000894,157313.30000001192,153222.439,153226.80000001192,153239.105,157322.275,8,400,18,,ISIC_0057089.JPG
break,html.Screen,4_17_1,2023-05-03T19:17:45.750Z,,0,,,NaN,,,,,,false,,,,157314.40000000596,157314.10000000894,,157313.80000001192,,157322.275,8,400,,,
break_continue,html.Screen,4_17_2,2023-05-03T19:17:45.750Z,,0,,,NaN,,,,,,false,,,,157314.80000001192,157314.70000000298,,157314.5,,157322.275,8,400,,,
sequence,flow.Sequence,4_17,2023-05-03T19:17:45.751Z,,0,,,4075.5950000029698,completion,,,,,false,,,,157315.10000000894,157314.70000000298,153222.439,153226.70000000298,153239.105,157322.275,8,400,,,
trial,html.Screen,4_18_0,2023-05-03T19:17:49.461Z,,0,1,,3703.0250000119267,response,ISIC_8708106.JPG,,ISIC_0029349.JPG,ISIC_8708106.JPG,false,1,keypress(m),500,161025.5,161025.30000001192,157305.609,157315.20000000298,157322.275,161038.793,8,400,19,,ISIC_0029349.JPG
break,html.Screen,4_18_1,2023-05-03T19:17:49.462Z,,0,,,NaN,,,,,,false,,,,161026.5,161026.10000000894,,161025.80000001192,,161038.793,8,400,,,
break_continue,html.Screen,4_18_2,2023-05-03T19:17:49.463Z,,0,,,NaN,,,,,,false,,,,161026.90000000596,161026.80000001192,,161026.60000000894,,161038.793,8,400,,,
sequence,flow.Sequence,4_18,2023-05-03T19:17:49.463Z,,0,,,3704.5250000119267,completion,,,,,false,,,,161027.10000000894,161026.80000001192,157305.609,157315.20000000298,157322.275,161038.793,8,400,,,
trial,html.Screen,4_19_0,2023-05-03T19:17:52.431Z,,0,1,,2956.3070000089356,response,ISIC_0065181.JPG,,ISIC_3389704.JPG,ISIC_0065181.JPG,false,1,keypress(m),500,163995.40000000596,163995.10000000894,161022.127,161027.40000000596,161038.793,164005.787,8,400,20,,ISIC_3389704.JPG
break,html.Screen,4_19_1,2023-05-03T19:17:52.432Z,,0,,,NaN,,,,,,false,,,,163996.20000000298,163995.90000000596,,163995.60000000894,,164005.787,8,400,,,
break_continue,html.Screen,4_19_2,2023-05-03T19:17:52.432Z,,0,,,NaN,,,,,,false,,,,163996.60000000894,163996.5,,163996.40000000596,,164005.787,8,400,,,
sequence,flow.Sequence,4_19,2023-05-03T19:17:52.433Z,,0,,,2957.706999999995,completion,,,,,false,,,,163996.80000001192,163996.5,161022.127,161027.30000001192,161038.793,164005.787,8,400,,,
trial,html.Screen,4_20_0,2023-05-03T19:17:56.454Z,,0,1,,4012.212999999989,response,ISIC_0003593.JPG,,ISIC_3779093.JPG,ISIC_0003593.JPG,false,1,keypress(m),500,168018.20000000298,168018,163989.121,163997,164005.787,168022.293,8,400,21,,ISIC_3779093.JPG
break,html.Screen,4_20_1,2023-05-03T19:17:56.455Z,,0,,,NaN,,,,,,false,,,,168019,168018.80000001192,,168018.5,,168022.293,8,400,,,
break_continue,html.Screen,4_20_2,2023-05-03T19:17:56.455Z,,0,,,NaN,,,,,,false,,,,168019.5,168019.30000001192,,168019.20000000298,,168022.293,8,400,,,
sequence,flow.Sequence,4_20,2023-05-03T19:17:56.455Z,,0,,,4013.5130000119098,completion,,,,,false,,,,168019.60000000894,168019.30000001192,163989.121,163997,164005.787,168022.293,8,400,,,
trial,html.Screen,4_21_0,2023-05-03T19:17:59.556Z,,0,1,,3097.907000002975,response,ISIC_0030106.JPG,,ISIC_9412963.JPG,ISIC_0030106.JPG,false,1,keypress(m),500,171120.5,171120.20000000298,168005.627,168019.90000000596,168022.293,171122.169,8,400,22,,ISIC_9412963.JPG
break,html.Screen,4_21_1,2023-05-03T19:17:59.557Z,,0,,,NaN,,,,,,false,,,,171121.5,171121.10000000894,,171120.90000000596,,171122.169,8,400,,,
break_continue,html.Screen,4_21_2,2023-05-03T19:17:59.558Z,,0,,,NaN,,,,,,false,,,,171122,171121.80000001192,,171121.60000000894,,171122.169,8,400,,,
sequence,flow.Sequence,4_21,2023-05-03T19:17:59.558Z,,0,,,3099.507000011916,completion,,,,,false,,,,171122.20000000298,171121.80000001192,168005.627,168019.80000001192,168022.293,171122.169,8,400,,,
trial,html.Screen,4_22_0,2023-05-03T19:18:03.582Z,,0,1,,4023.6310000119265,response,ISIC_2559074.JPG,,ISIC_0027480.JPG,ISIC_0027480.JPG,false,0,keypress(z),500,175146,175145.80000001192,171105.503,171122.5,171122.169,175155.65,8,400,23,,ISIC_2559074.JPG
break,html.Screen,4_22_1,2023-05-03T19:18:03.583Z,,0,,,NaN,,,,,,false,,,,175146.80000001192,175146.5,,175146.20000000298,,175155.65,8,400,,,
break_continue,html.Screen,4_22_2,2023-05-03T19:18:03.583Z,,0,,,NaN,,,,,,false,,,,175147.20000000298,175147.10000000894,,175146.90000000596,,175155.65,8,400,,,
sequence,flow.Sequence,4_22,2023-05-03T19:18:03.583Z,,0,,,4024.9310000089463,completion,,,,,false,,,,175147.30000001192,175147.10000000894,171105.503,171122.40000000596,171122.169,175155.65,8,400,,,
trial,html.Screen,4_23_0,2023-05-03T19:18:07.326Z,,0,1,,3733.850000000006,response,ISIC_1225511.JPG,,ISIC_0010440.JPG,ISIC_0010440.JPG,false,0,keypress(z),500,178889.60000000894,178889.5,175138.984,175147.5,175155.65,178905.5,8,400,24,,ISIC_1225511.JPG
break,html.Screen,4_23_1,2023-05-03T19:18:07.326Z,,0,,,NaN,,,,,,false,,,,178890.60000000894,178890.20000000298,,178890,,178905.5,8,400,,,
break_continue,html.Screen,4_23_2,2023-05-03T19:18:07.327Z,,0,,,NaN,,,,,,false,,,,178891.10000000894,178890.90000000596,,178890.70000000298,,178905.5,8,400,,,
sequence,flow.Sequence,4_23,2023-05-03T19:18:07.327Z,,0,,,3735.2500000059663,completion,,,,,false,,,,178891.30000001192,178890.90000000596,175138.984,175147.5,175155.65,178905.5,8,400,,,
trial,html.Screen,4_24_0,2023-05-03T19:18:10.340Z,,0,1,,2998.2000000029802,response,ISIC_0028505.JPG,,ISIC_0032717.JPG,ISIC_0028505.JPG,false,1,keypress(m),500,181903.90000000596,181903.70000000298,178888.834,178891.5,178905.5,181905.38,8,400,25,,ISIC_0032717.JPG
break,html.Screen,4_24_1,2023-05-03T19:18:10.341Z,,0,,,NaN,,,,,,false,,,,181904.80000001192,181904.5,,181904.20000000298,,181905.38,8,400,,,
break_continue,html.Screen,4_24_2,2023-05-03T19:18:10.341Z,,0,,,NaN,,,,,,false,,,,181905.20000000298,181905,,181904.90000000596,,181905.38,8,400,,,
sequence,flow.Sequence,4_24,2023-05-03T19:18:10.341Z,,0,,,2999.5,completion,,,,,false,,,,181905.40000000596,181905,178888.834,178891.40000000596,178905.5,181905.38,8,400,,,
trial,html.Screen,4_25_0,2023-05-03T19:18:13.327Z,,0,1,,2985.4200000119163,response,ISIC_2377039.JPG,,ISIC_0030932.JPG,ISIC_2377039.JPG,false,1,keypress(m),500,184891.20000000298,184890.80000001192,181888.714,181905.70000000298,181905.38,184905.802,8,400,26,,ISIC_0030932.JPG
break,html.Screen,4_25_1,2023-05-03T19:18:13.328Z,,0,,,NaN,,,,,,false,,,,184892.40000000596,184892.10000000894,,184891.70000000298,,184905.802,8,400,,,
break_continue,html.Screen,4_25_2,2023-05-03T19:18:13.329Z,,0,,,NaN,,,,,,false,,,,184893.10000000894,184892.80000001192,,184892.70000000298,,184905.802,8,400,,,
sequence,flow.Sequence,4_25,2023-05-03T19:18:13.329Z,,0,,,2987.4200000119163,completion,,,,,false,,,,184893.30000001192,184892.80000001192,181888.714,181905.5,181905.38,184905.802,8,400,,,
trial,html.Screen,4_26_0,2023-05-03T19:18:16.092Z,,0,1,,2750.398000002984,response,ISIC_3993924.JPG,,ISIC_7630831.JPG,ISIC_3993924.JPG,false,1,keypress(m),500,187656.30000001192,187656.20000000298,184889.136,184893.5,184905.802,187672.358,8,400,27,,ISIC_7630831.JPG
break,html.Screen,4_26_1,2023-05-03T19:18:16.093Z,,0,,,NaN,,,,,,false,,,,187657,187656.90000000596,,187656.60000000894,,187672.358,8,400,,,
break_continue,html.Screen,4_26_2,2023-05-03T19:18:16.093Z,,0,,,NaN,,,,,,false,,,,187657.30000001192,187657.20000000298,,187657.10000000894,,187672.358,8,400,,,
sequence,flow.Sequence,4_26,2023-05-03T19:18:16.093Z,,0,,,2751.398000002984,completion,,,,,false,,,,187657.40000000596,187657.20000000298,184889.136,184893.40000000596,184905.802,187672.358,8,400,,,
trial,html.Screen,4_27_0,2023-05-03T19:18:18.615Z,,0,1,,2506.542000005953,response,ISIC_0064683.JPG,,ISIC_0069669.JPG,ISIC_0064683.JPG,false,1,keypress(m),500,190179.20000000298,190178.90000000596,187655.692,187657.60000000894,187672.358,190188.924,8,400,28,,ISIC_0069669.JPG
break,html.Screen,4_27_1,2023-05-03T19:18:18.616Z,,0,,,NaN,,,,,,false,,,,190179.90000000596,190179.60000000894,,190179.40000000596,,190188.924,8,400,,,
break_continue,html.Screen,4_27_2,2023-05-03T19:18:18.616Z,,0,,,NaN,,,,,,false,,,,190180.40000000596,190180.20000000298,,190180.20000000298,,190188.924,8,400,,,
sequence,flow.Sequence,4_27,2023-05-03T19:18:18.617Z,,0,,,2507.842000002973,completion,,,,,false,,,,190180.60000000894,190180.20000000298,187655.692,187657.5,187672.358,190188.924,8,400,,,
trial,html.Screen,4_28_0,2023-05-03T19:18:21.663Z,,0,1,,3037.876000011922,response,ISIC_2809019.JPG,,ISIC_0032484.JPG,ISIC_2809019.JPG,false,1,keypress(m),500,193227,193226.80000001192,190172.258,190180.90000000596,190188.924,193238.802,8,400,29,,ISIC_0032484.JPG
break,html.Screen,4_28_1,2023-05-03T19:18:21.664Z,,0,,,NaN,,,,,,false,,,,193227.80000001192,193227.60000000894,,193227.30000001192,,193238.802,8,400,,,
break_continue,html.Screen,4_28_2,2023-05-03T19:18:21.664Z,,0,,,NaN,,,,,,false,,,,193228.40000000596,193228.20000000298,,193228,,193238.802,8,400,,,
sequence,flow.Sequence,4_28,2023-05-03T19:18:21.665Z,,0,,,3039.276000002981,completion,,,,,false,,,,193228.70000000298,193228.20000000298,190172.258,190180.70000000298,190188.924,193238.802,8,400,,,
trial,html.Screen,4_29_0,2023-05-03T19:18:24.509Z,,0,1,,2833.998000011925,response,ISIC_0056689.JPG,,ISIC_1004416.JPG,ISIC_1004416.JPG,false,0,keypress(z),500,196073.10000000894,196072.80000001192,193222.136,193229,193238.802,196089.092,8,400,30,,ISIC_0056689.JPG
break,html.Screen,4_29_1,2023-05-03T19:18:24.510Z,,0,,,NaN,,,,,,false,,,,196073.80000001192,196073.60000000894,,196073.30000001192,,196089.092,8,400,,,
break_continue,html.Screen,4_29_2,2023-05-03T19:18:24.510Z,,0,,,NaN,,,,,,false,,,,196074.30000001192,196074.10000000894,,196074,,196089.092,8,400,,,
sequence,flow.Sequence,4_29,2023-05-03T19:18:24.511Z,,0,,,2835.2980000089447,completion,,,,,false,,,,196074.60000000894,196074.10000000894,193222.136,193228.90000000596,193238.802,196089.092,8,400,,,
trial,html.Screen,4_30_0,2023-05-03T19:18:28.005Z,,0,1,,3479.108000002976,response,ISIC_0281179.JPG,,ISIC_3590814.JPG,ISIC_3590814.JPG,false,0,keypress(z),500,199568.5,199568.20000000298,196072.426,196074.70000000298,196089.092,199572.286,8,400,31,,ISIC_0281179.JPG
break,html.Screen,4_30_1,2023-05-03T19:18:28.005Z,,0,,,NaN,,,,,,false,,,,199569.20000000298,199569,,199568.60000000894,,199572.286,8,400,,,
break_continue,html.Screen,4_30_2,2023-05-03T19:18:28.006Z,,0,,,NaN,,,,,,false,,,,199569.70000000298,199569.5,,199569.30000001192,,199572.286,8,400,,,
sequence,flow.Sequence,4_30,2023-05-03T19:18:28.006Z,,0,,,3480.407999999996,completion,,,,,false,,,,199569.80000001192,199569.5,196072.426,196074.60000000894,196089.092,199572.286,8,400,,,
trial,html.Screen,4_31_0,2023-05-03T19:18:31.133Z,,0,1,,3124.714000000007,response,ISIC_0068314.JPG,,ISIC_0032017.JPG,ISIC_0032017.JPG,false,0,keypress(z),500,202697.20000000298,202697,199555.62,199570.10000000894,199572.286,202705.494,8,400,32,,ISIC_0068314.JPG
break,html.Screen,4_31_1,2023-05-03T19:18:31.134Z,,0,,,NaN,,,,,,false,,,,202698,202697.80000001192,,202697.5,,202705.494,8,400,,,
break_continue,html.Screen,4_31_2,2023-05-03T19:18:31.135Z,,0,,,NaN,,,,,,false,,,,202698.5,202698.30000001192,,202698.20000000298,,202705.494,8,400,,,
sequence,flow.Sequence,4_31,2023-05-03T19:18:31.135Z,,0,,,3126.014000011928,completion,,,,,false,,,,202698.70000000298,202698.30000001192,199555.62,199570.10000000894,199572.286,202705.494,8,400,,,
trial,html.Screen,4_32_0,2023-05-03T19:18:34.535Z,,0,1,,3393.206000002974,response,ISIC_7768567.JPG,,ISIC_6324832.JPG,ISIC_7768567.JPG,false,1,keypress(m),500,206099,206098.70000000298,202688.828,202698.90000000596,202705.494,206105.794,8,400,33,,ISIC_6324832.JPG
break,html.Screen,4_32_1,2023-05-03T19:18:34.536Z,,0,,,NaN,,,,,,false,,,,206099.90000000596,206099.60000000894,,206099.30000001192,,206105.794,8,400,,,
break_continue,html.Screen,4_32_2,2023-05-03T19:18:34.537Z,,0,,,NaN,,,,,,false,,,,206100.30000001192,206100.10000000894,,206100.10000000894,,206105.794,8,400,,,
sequence,flow.Sequence,4_32,2023-05-03T19:18:34.537Z,,0,,,3394.6060000089346,completion,,,,,false,,,,206100.5,206100.10000000894,202688.828,202698.80000001192,202705.494,206105.794,8,400,,,
trial,html.Screen,4_33_0,2023-05-03T19:18:37.598Z,,0,1,,3055.5060000119265,response,ISIC_0030110.JPG,,ISIC_0063164.JPG,ISIC_0063164.JPG,false,0,keypress(z),500,209161.60000000894,209161.30000001192,206089.128,206100.80000001192,206105.794,209172.338,8,400,34,,ISIC_0030110.JPG
break,html.Screen,4_33_1,2023-05-03T19:18:37.599Z,,0,,,NaN,,,,,,false,,,,209162.40000000596,209162.10000000894,,209161.80000001192,,209172.338,8,400,,,
break_continue,html.Screen,4_33_2,2023-05-03T19:18:37.599Z,,0,,,NaN,,,,,,false,,,,209162.80000001192,209162.70000000298,,209162.60000000894,,209172.338,8,400,,,
sequence,flow.Sequence,4_33,2023-05-03T19:18:37.599Z,,0,,,3056.906000002986,completion,,,,,false,,,,209163.10000000894,209162.70000000298,206089.128,206100.70000000298,206105.794,209172.338,8,400,,,
trial,html.Screen,4_34_0,2023-05-03T19:18:41.174Z,,0,1,,3565.3620000029914,response,ISIC_2337650.JPG,,ISIC_9300579.JPG,ISIC_2337650.JPG,false,1,keypress(m),500,212738,212737.70000000298,209155.672,209163.20000000298,209172.338,212738.862,8,400,35,,ISIC_9300579.JPG
break,html.Screen,4_34_1,2023-05-03T19:18:41.175Z,,0,,,NaN,,,,,,false,,,,212738.80000001192,212738.60000000894,,212738.20000000298,,212738.862,8,400,,,
break_continue,html.Screen,4_34_2,2023-05-03T19:18:41.175Z,,0,,,NaN,,,,,,false,,,,212739.20000000298,212739.10000000894,,212738.90000000596,,212738.862,8,400,,,
sequence,flow.Sequence,4_34,2023-05-03T19:18:41.176Z,,0,,,3566.762000008952,completion,,,,,false,,,,212739.40000000596,212739.10000000894,209155.672,209163.20000000298,209172.338,212738.862,8,400,,,
trial,html.Screen,4_35_0,2023-05-03T19:18:44.645Z,,0,1,,3469.938000011927,response,ISIC_4573624.JPG,,ISIC_7161651.JPG,ISIC_7161651.JPG,false,0,keypress(z),500,216209.20000000298,216208.80000001192,212722.196,212739.60000000894,212738.862,216222.476,8,400,36,,ISIC_4573624.JPG
break,html.Screen,4_35_1,2023-05-03T19:18:44.646Z,,0,,,NaN,,,,,,false,,,,216209.90000000596,216209.70000000298,,216209.30000001192,,216222.476,8,400,,,
break_continue,html.Screen,4_35_2,2023-05-03T19:18:44.647Z,,0,,,NaN,,,,,,false,,,,216210.30000001192,216210.20000000298,,216210,,216222.476,8,400,,,
sequence,flow.Sequence,4_35,2023-05-03T19:18:44.647Z,,0,,,3471.3380000029865,completion,,,,,false,,,,216210.5,216210.20000000298,212722.196,212739.60000000894,212738.862,216222.476,8,400,,,
trial,html.Screen,4_36_0,2023-05-03T19:18:48.612Z,,0,1,,3953.4240000059654,response,ISIC_0025472.JPG,,ISIC_0000167.JPG,ISIC_0000167.JPG,false,0,keypress(z),500,220176.10000000894,220175.90000000596,216205.81,216210.70000000298,216222.476,220188.984,8,400,37,,ISIC_0025472.JPG
break,html.Screen,4_36_1,2023-05-03T19:18:48.613Z,,0,,,NaN,,,,,,false,,,,220176.80000001192,220176.60000000894,,220176.30000001192,,220188.984,8,400,,,
break_continue,html.Screen,4_36_2,2023-05-03T19:18:48.614Z,,0,,,NaN,,,,,,false,,,,220177.20000000298,220177.10000000894,,220176.90000000596,,220188.984,8,400,,,
sequence,flow.Sequence,4_36,2023-05-03T19:18:48.614Z,,0,,,3954.6240000089456,completion,,,,,false,,,,220177.5,220177.10000000894,216205.81,216210.70000000298,216222.476,220188.984,8,400,,,
trial,html.Screen,4_37_0,2023-05-03T19:18:51.733Z,,0,1,,3107.7160000029835,response,ISIC_0058177.JPG,,ISIC_0005291.JPG,ISIC_0058177.JPG,false,1,keypress(m),500,223296.90000000596,223296.70000000298,220172.318,220177.60000000894,220188.984,223305.526,8,400,38,,ISIC_0005291.JPG
break,html.Screen,4_37_1,2023-05-03T19:18:51.734Z,,0,,,NaN,,,,,,false,,,,223297.70000000298,223297.5,,223297.10000000894,,223305.526,8,400,,,
break_continue,html.Screen,4_37_2,2023-05-03T19:18:51.735Z,,0,,,NaN,,,,,,false,,,,223298.20000000298,223298.10000000894,,223297.90000000596,,223305.526,8,400,,,
sequence,flow.Sequence,4_37,2023-05-03T19:18:51.735Z,,0,,,3109.116000008944,completion,,,,,false,,,,223298.5,223298.10000000894,220172.318,220177.60000000894,220188.984,223305.526,8,400,,,
trial,html.Screen,4_38_0,2023-05-03T19:18:54.838Z,,0,1,,3095.874000005948,response,ISIC_0032426.JPG,,ISIC_0029225.JPG,ISIC_0029225.JPG,false,0,keypress(z),500,226401.5,226401.40000000596,223288.86,223298.60000000894,223305.526,226405.78,8,400,39,,ISIC_0032426.JPG
break,html.Screen,4_38_1,2023-05-03T19:18:54.839Z,,0,,,NaN,,,,,,false,,,,226402.40000000596,226402.10000000894,,226401.80000001192,,226405.78,8,400,,,
break_continue,html.Screen,4_38_2,2023-05-03T19:18:54.839Z,,0,,,NaN,,,,,,false,,,,226402.80000001192,226402.70000000298,,226402.5,,226405.78,8,400,,,
sequence,flow.Sequence,4_38,2023-05-03T19:18:54.839Z,,0,,,3097.1740000029677,completion,,,,,false,,,,226403,226402.70000000298,223288.86,223298.60000000894,223305.526,226405.78,8,400,,,
trial,html.Screen,4_39_0,2023-05-03T19:18:57.773Z,,0,1,,2930.320000008942,response,ISIC_0014946.JPG,,ISIC_0010915.JPG,ISIC_0014946.JPG,false,1,keypress(m),500,229336.30000001192,229336.10000000894,226389.114,226403.40000000596,226405.78,229355.662,8,400,40,,ISIC_0010915.JPG
break,html.Screen,4_39_1,2023-05-03T19:18:57.774Z,,0,,,NaN,,,,,,false,,,,229337.10000000894,229336.90000000596,,229336.5,,229355.662,8,400,,,
break_continue,html.Screen,4_39_2,2023-05-03T19:18:57.774Z,,0,,,NaN,,,,,,false,,,,229337.5,229337.30000001192,,229337.20000000298,,229355.662,8,400,,,
sequence,flow.Sequence,4_39,2023-05-03T19:18:57.774Z,,0,,,2931.520000011922,completion,,,,,false,,,,229337.80000001192,229337.30000001192,226389.114,226403.30000001192,226405.78,229355.662,8,400,,,
trial,html.Screen,4_40_0,2023-05-03T19:19:00.973Z,,0,1,,3180.337999999989,response,ISIC_2092911.JPG,,ISIC_0033813.JPG,ISIC_0033813.JPG,false,0,keypress(z),500,232536.30000001192,232536,229338.996,229337.80000001192,229355.662,232538.868,8,400,41,,ISIC_2092911.JPG
break,html.Screen,4_40_1,2023-05-03T19:19:00.974Z,,0,,,NaN,,,,,,false,,,,232537,232536.80000001192,,232536.5,,232538.868,8,400,,,
break_continue,html.Screen,4_40_2,2023-05-03T19:19:00.974Z,,0,,,NaN,,,,,,false,,,,232537.5,232537.30000001192,,232537.20000000298,,232538.868,8,400,,,
sequence,flow.Sequence,4_40,2023-05-03T19:19:00.974Z,,0,,,3181.6380000119098,completion,,,,,false,,,,232537.70000000298,232537.30000001192,229338.996,229337.80000001192,229355.662,232538.868,8,400,,,
trial,html.Screen,4_41_0,2023-05-03T19:19:03.781Z,,0,1,,2804.9320000119333,response,ISIC_0202167.JPG,,ISIC_7136995.JPG,ISIC_0202167.JPG,false,1,keypress(m),500,235344,235343.80000001192,232522.202,232537.90000000596,232538.868,235355.907,8,400,42,,ISIC_7136995.JPG
break,html.Screen,4_41_1,2023-05-03T19:19:03.781Z,,0,,,NaN,,,,,,false,,,,235344.90000000596,235344.60000000894,,235344.30000001192,,235355.907,8,400,,,
break_continue,html.Screen,4_41_2,2023-05-03T19:19:03.782Z,,0,,,NaN,,,,,,false,,,,235345.5,235345.30000001192,,235345.10000000894,,235355.907,8,400,,,
sequence,flow.Sequence,4_41,2023-05-03T19:19:03.782Z,,0,,,2806.4320000119333,completion,,,,,false,,,,235345.60000000894,235345.30000001192,232522.202,232537.80000001192,232538.868,235355.907,8,400,,,
trial,html.Screen,4_42_0,2023-05-03T19:19:06.701Z,,0,1,,2908.193000008934,response,ISIC_1720856.JPG,,ISIC_0000553.JPG,ISIC_0000553.JPG,false,0,keypress(z),500,238264.40000000596,238264.10000000894,235339.241,235345.90000000596,235355.907,238272.457,8,400,43,,ISIC_1720856.JPG
break,html.Screen,4_42_1,2023-05-03T19:19:06.702Z,,0,,,NaN,,,,,,false,,,,238265.10000000894,238264.90000000596,,238264.60000000894,,238272.457,8,400,,,
break_continue,html.Screen,4_42_2,2023-05-03T19:19:06.702Z,,0,,,NaN,,,,,,false,,,,238265.5,238265.40000000596,,238265.30000001192,,238272.457,8,400,,,
sequence,flow.Sequence,4_42,2023-05-03T19:19:06.702Z,,0,,,2909.493000005954,completion,,,,,false,,,,238265.80000001192,238265.40000000596,235339.241,235345.80000001192,235355.907,238272.457,8,400,,,
trial,html.Screen,4_43_0,2023-05-03T19:19:09.662Z,,0,1,,2952.2430000029854,response,ISIC_9007206.JPG,,ISIC_2668481.JPG,ISIC_9007206.JPG,false,1,keypress(m),500,241225,241224.70000000298,238255.791,238265.90000000596,238272.457,241239.005,8,400,44,,ISIC_2668481.JPG
break,html.Screen,4_43_1,2023-05-03T19:19:09.662Z,,0,,,NaN,,,,,,false,,,,241225.60000000894,241225.5,,241225.20000000298,,241239.005,8,400,,,
break_continue,html.Screen,4_43_2,2023-05-03T19:19:09.663Z,,0,,,NaN,,,,,,false,,,,241226.10000000894,241226,,241225.80000001192,,241239.005,8,400,,,
sequence,flow.Sequence,4_43,2023-05-03T19:19:09.663Z,,0,,,2953.543000000005,completion,,,,,false,,,,241226.30000001192,241226,238255.791,238265.90000000596,238272.457,241239.005,8,400,,,
trial,html.Screen,4_44_0,2023-05-03T19:19:13.582Z,,0,1,,3906.1950000029756,response,ISIC_5539001.JPG,,ISIC_0000572.JPG,ISIC_0000572.JPG,false,0,keypress(z),500,245145.5,245145.20000000298,241222.339,241226.5,241239.005,245155.515,8,400,45,,ISIC_5539001.JPG
break,html.Screen,4_44_1,2023-05-03T19:19:13.583Z,,0,,,NaN,,,,,,false,,,,245146.30000001192,245146,,245145.80000001192,,245155.515,8,400,,,
break_continue,html.Screen,4_44_2,2023-05-03T19:19:13.583Z,,0,,,NaN,,,,,,false,,,,245146.80000001192,245146.60000000894,,245146.5,,245155.515,8,400,,,
sequence,flow.Sequence,4_44,2023-05-03T19:19:13.584Z,,0,,,3907.595000008936,completion,,,,,false,,,,245147,245146.60000000894,241222.339,241226.40000000596,241239.005,245155.515,8,400,,,
trial,html.Screen,4_45_0,2023-05-03T19:19:18.008Z,,0,1,,4415.3850000059465,response,ISIC_4177043.JPG,,ISIC_0000141.JPG,ISIC_4177043.JPG,false,1,keypress(m),500,249571.10000000894,249570.90000000596,245138.849,245147.10000000894,245155.515,249572.423,8,400,46,,ISIC_0000141.JPG
break,html.Screen,4_45_1,2023-05-03T19:19:18.009Z,,0,,,NaN,,,,,,false,,,,249571.80000001192,249571.60000000894,,249571.40000000596,,249572.423,8,400,,,
break_continue,html.Screen,4_45_2,2023-05-03T19:19:18.009Z,,0,,,NaN,,,,,,false,,,,249572.40000000596,249572.20000000298,,249572.10000000894,,249572.423,8,400,,,
sequence,flow.Sequence,4_45,2023-05-03T19:19:18.009Z,,0,,,4416.685000002966,completion,,,,,false,,,,249572.70000000298,249572.20000000298,245138.849,245147.10000000894,245155.515,249572.423,8,400,,,
trial,html.Screen,4_46_0,2023-05-03T19:19:20.934Z,,0,1,,2924.4770000059507,response,ISIC_0034243.JPG,,ISIC_0068100.JPG,ISIC_0034243.JPG,false,1,keypress(m),500,252497.10000000894,252496.90000000596,249555.757,249572.80000001192,249572.423,252505.639,8,400,47,,ISIC_0068100.JPG
break,html.Screen,4_46_1,2023-05-03T19:19:20.935Z,,0,,,NaN,,,,,,false,,,,252497.90000000596,252497.70000000298,,252497.40000000596,,252505.639,8,400,,,
break_continue,html.Screen,4_46_2,2023-05-03T19:19:20.935Z,,0,,,NaN,,,,,,false,,,,252498.30000001192,252498.20000000298,,252498,,252505.639,8,400,,,
sequence,flow.Sequence,4_46,2023-05-03T19:19:20.935Z,,0,,,2925.7770000029705,completion,,,,,false,,,,252498.5,252498.20000000298,249555.757,249572.80000001192,249572.423,252505.639,8,400,,,
trial,html.Screen,4_47_0,2023-05-03T19:19:24.480Z,,0,1,,3537.1610000119254,response,ISIC_9092298.JPG,,ISIC_0059773.JPG,ISIC_0059773.JPG,false,0,keypress(z),500,256043.10000000894,256042.80000001192,252488.973,252498.70000000298,252505.639,256055.936,8,400,48,,ISIC_9092298.JPG
break,html.Screen,4_47_1,2023-05-03T19:19:24.481Z,,0,,,NaN,,,,,,false,,,,256043.80000001192,256043.60000000894,,256043.30000001192,,256055.936,8,400,,,
break_continue,html.Screen,4_47_2,2023-05-03T19:19:24.481Z,,0,,,NaN,,,,,,false,,,,256044.30000001192,256044,,256044,,256055.936,8,400,,,
sequence,flow.Sequence,4_47,2023-05-03T19:19:24.481Z,,0,,,3538.3610000000044,completion,,,,,false,,,,256044.60000000894,256044,252488.973,252498.60000000894,252505.639,256055.936,8,400,,,
trial,html.Screen,4_48_0,2023-05-03T19:19:27.942Z,,0,1,,3448.7640000029933,response,ISIC_2375394.JPG,,ISIC_4623351.JPG,ISIC_2375394.JPG,false,1,keypress(m),500,259504.80000001192,259504.70000000298,256039.27,256044.70000000298,256055.936,259505.798,8,400,49,,ISIC_4623351.JPG
break,html.Screen,4_48_1,2023-05-03T19:19:27.942Z,,0,,,NaN,,,,,,false,,,,259505.60000000894,259505.40000000596,,259505.10000000894,,259505.798,8,400,,,
break_continue,html.Screen,4_48_2,2023-05-03T19:19:27.943Z,,0,,,NaN,,,,,,false,,,,259506,259505.90000000596,,259505.70000000298,,259505.798,8,400,,,
sequence,flow.Sequence,4_48,2023-05-03T19:19:27.943Z,,0,,,3449.9640000059735,completion,,,,,false,,,,259506.30000001192,259505.90000000596,256039.27,256044.70000000298,256055.936,259505.798,8,400,,,
trial,html.Screen,4_49_0,2023-05-03T19:19:31.454Z,,0,1,,3510.9020000029705,response,ISIC_0046985.JPG,,ISIC_7672106.JPG,ISIC_7672106.JPG,false,0,keypress(z),500,263016.90000000596,263016.700000003,259489.132,259506.40000000596,259505.798,263022.324,8,400,50,,ISIC_0046985.JPG
break,html.Screen,4_49_1,2023-05-03T19:19:36.446Z,,0,,,4999.799999999988,timeout,,,,,false,,,,268008.700000003,268005.458,263005.658,263017.200000003,263022.324,268022.124,8,400,,,
break_continue,html.Screen,4_49_2,2023-05-03T19:19:38.514Z,,0,,,2035.6760000119102,response,,,,,false,continue,keypress(Space),,270077.40000000596,270057.8000000119,268005.458,268008.90000000596,268022.124,270088.708,8,400,,,
sequence,flow.Sequence,4_49,2023-05-03T19:19:38.514Z,,0,,,10552.002000011911,completion,,,,,false,,,,270077.5,270057.8000000119,259489.132,259506.40000000596,259505.798,270088.708,8,400,,,
trial,html.Screen,4_50_0,2023-05-03T19:19:42.302Z,,0,2,,3775.992000002996,response,ISIC_0000024.JPG,,ISIC_5931552.JPG,ISIC_0000024.JPG,false,1,keypress(m),500,273865,273864.700000003,270072.042,270077.60000000894,270088.708,273871.89,8,400,1,,ISIC_5931552.JPG
break,html.Screen,4_50_1,2023-05-03T19:19:42.303Z,,0,,,NaN,,,,,,false,,,,273865.700000003,273865.5,,273865.200000003,,273871.89,8,400,,,
break_continue,html.Screen,4_50_2,2023-05-03T19:19:42.303Z,,0,,,NaN,,,,,,false,,,,273866.3000000119,273866,,273866,,273871.89,8,400,,,
sequence,flow.Sequence,4_50,2023-05-03T19:19:42.303Z,,0,,,3777.292000000016,completion,,,,,false,,,,273866.5,273866,270072.042,270077.5,270088.708,273871.89,8,400,,,
trial,html.Screen,4_51_0,2023-05-03T19:19:45.773Z,,0,2,,3464.109999999986,response,ISIC_4966865.JPG,,ISIC_0015436.JPG,ISIC_0015436.JPG,false,0,keypress(z),500,277336.3000000119,277336,273855.224,273866.60000000894,273871.89,277339.298,8,400,2,,ISIC_4966865.JPG
break,html.Screen,4_51_1,2023-05-03T19:19:45.774Z,,0,,,NaN,,,,,,false,,,,277337.200000003,277336.90000000596,,277336.5,,277339.298,8,400,,,
break_continue,html.Screen,4_51_2,2023-05-03T19:19:45.775Z,,0,,,NaN,,,,,,false,,,,277337.60000000894,277337.5,,277337.3000000119,,277339.298,8,400,,,
sequence,flow.Sequence,4_51,2023-05-03T19:19:45.775Z,,0,,,3465.609999999986,completion,,,,,false,,,,277337.90000000596,277337.5,273855.224,273866.60000000894,273871.89,277339.298,8,400,,,
trial,html.Screen,4_52_0,2023-05-03T19:19:49.007Z,,0,2,,3230.4020000029705,response,ISIC_0009721.JPG,,ISIC_8967786.JPG,ISIC_0009721.JPG,false,1,keypress(m),500,280570,280569.700000003,277322.632,277338,277339.298,280572.502,8,400,3,,ISIC_8967786.JPG
break,html.Screen,4_52_1,2023-05-03T19:19:49.008Z,,0,,,NaN,,,,,,false,,,,280570.8000000119,280570.5,,280570.200000003,,280572.502,8,400,,,
break_continue,html.Screen,4_52_2,2023-05-03T19:19:49.008Z,,0,,,NaN,,,,,,false,,,,280571.3000000119,280571,,280571,,280572.502,8,400,,,
sequence,flow.Sequence,4_52,2023-05-03T19:19:49.009Z,,0,,,3231.70199999999,completion,,,,,false,,,,280571.40000000596,280571,277322.632,277337.90000000596,277339.298,280572.502,8,400,,,
trial,html.Screen,4_53_0,2023-05-03T19:20:00.497Z,,0,2,,11516.802000000025,timeout,ISIC_1509635.JPG,,ISIC_6352730.JPG,,false,,,500,292059.5,292059.200000003,280555.836,280571.700000003,280572.502,292089.304,8,400,4,,
break,html.Screen,4_53_1,2023-05-03T19:20:00.497Z,,0,,,NaN,,,,,,false,,,,292060.200000003,292060,,292059.8000000119,,292089.304,8,400,,,
break_continue,html.Screen,4_53_2,2023-05-03T19:20:00.498Z,,0,,,NaN,,,,,,false,,,,292060.5,292060.40000000596,,292060.3000000119,,292089.304,8,400,,,
sequence,flow.Sequence,4_53,2023-05-03T19:20:00.498Z,,0,,,11487.898000005982,completion,,,,,false,,,,292060.8000000119,292060.40000000596,280555.836,280571.60000000894,280572.502,292089.304,8,400,,,
trial,html.Screen,4_54_0,2023-05-03T19:20:07.902Z,,0,2,,7375.596000005957,response,ISIC_1350519.JPG,,ISIC_5237059.JPG,ISIC_1350519.JPG,false,1,keypress(m),500,299465.10000000894,299464.90000000596,292072.042,292061,292089.304,299472.342,8,400,5,,ISIC_5237059.JPG
break,html.Screen,4_54_1,2023-05-03T19:20:07.903Z,,0,,,NaN,,,,,,false,,,,299465.90000000596,299465.60000000894,,299465.40000000596,,299472.342,8,400,,,
break_continue,html.Screen,4_54_2,2023-05-03T19:20:07.904Z,,0,,,NaN,,,,,,false,,,,299466.40000000596,299466.3000000119,,299466.10000000894,,299472.342,8,400,,,
sequence,flow.Sequence,4_54,2023-05-03T19:20:07.904Z,,0,,,7376.996000011917,completion,,,,,false,,,,299466.700000003,299466.3000000119,292072.042,292060.90000000596,292089.304,299472.342,8,400,,,
trial,html.Screen,4_55_0,2023-05-03T19:20:10.623Z,,0,2,,2712.9580000119167,response,ISIC_9879693.JPG,,ISIC_6443700.JPG,ISIC_9879693.JPG,false,1,keypress(m),500,302185.60000000894,302185.3000000119,299455.676,299466.8000000119,299472.342,302188.9,8,400,6,,ISIC_6443700.JPG
break,html.Screen,4_55_1,2023-05-03T19:20:10.624Z,,0,,,NaN,,,,,,false,,,,302186.3000000119,302186.10000000894,,302185.700000003,,302188.9,8,400,,,
break_continue,html.Screen,4_55_2,2023-05-03T19:20:10.624Z,,0,,,NaN,,,,,,false,,,,302186.8000000119,302186.60000000894,,302186.5,,302188.9,8,400,,,
sequence,flow.Sequence,4_55,2023-05-03T19:20:10.624Z,,0,,,2714.2580000089365,completion,,,,,false,,,,302186.90000000596,302186.60000000894,299455.676,299466.700000003,299472.342,302188.9,8,400,,,
trial,html.Screen,4_56_0,2023-05-03T19:20:15.096Z,,0,2,,4469.700000008917,response,ISIC_1195689.JPG,,ISIC_0071069.JPG,ISIC_0071069.JPG,false,0,keypress(z),500,306658.8000000119,306658.60000000894,302172.234,302187.200000003,302188.9,306672.481,8,400,7,,ISIC_1195689.JPG
break,html.Screen,4_56_1,2023-05-03T19:20:15.097Z,,0,,,NaN,,,,,,false,,,,306659.60000000894,306659.40000000596,,306659.10000000894,,306672.481,8,400,,,
break_continue,html.Screen,4_56_2,2023-05-03T19:20:15.097Z,,0,,,NaN,,,,,,false,,,,306660,306659.90000000596,,306659.8000000119,,306672.481,8,400,,,
sequence,flow.Sequence,4_56,2023-05-03T19:20:15.098Z,,0,,,4471.000000005937,completion,,,,,false,,,,306660.3000000119,306659.90000000596,302172.234,302187.10000000894,302188.9,306672.481,8,400,,,
trial,html.Screen,4_57_0,2023-05-03T19:20:18.161Z,,0,2,,3050.619000008912,response,ISIC_9498448.JPG,,ISIC_8353090.JPG,ISIC_8353090.JPG,false,0,keypress(z),500,309723.3000000119,309723.10000000894,306655.815,306660.5,306672.481,309739.025,8,400,8,,ISIC_9498448.JPG
break,html.Screen,4_57_1,2023-05-03T19:20:18.162Z,,0,,,NaN,,,,,,false,,,,309724.200000003,309723.90000000596,,309723.5,,309739.025,8,400,,,
break_continue,html.Screen,4_57_2,2023-05-03T19:20:18.162Z,,0,,,NaN,,,,,,false,,,,309724.60000000894,309724.40000000596,,309724.40000000596,,309739.025,8,400,,,
sequence,flow.Sequence,4_57,2023-05-03T19:20:18.162Z,,0,,,3051.9190000059316,completion,,,,,false,,,,309724.8000000119,309724.40000000596,306655.815,306660.5,306672.481,309739.025,8,400,,,
trial,html.Screen,4_58_0,2023-05-03T19:20:22.521Z,,0,2,,4344.175000002957,response,ISIC_5849178.JPG,,ISIC_6488658.JPG,ISIC_5849178.JPG,false,1,keypress(m),500,314083.40000000596,314083.200000003,309722.359,309725,309739.025,314089.304,8,400,9,,ISIC_6488658.JPG
break,html.Screen,4_58_1,2023-05-03T19:20:22.522Z,,0,,,NaN,,,,,,false,,,,314084.200000003,314083.90000000596,,314083.60000000894,,314089.304,8,400,,,
break_continue,html.Screen,4_58_2,2023-05-03T19:20:22.522Z,,0,,,NaN,,,,,,false,,,,314084.60000000894,314084.40000000596,,314084.3000000119,,314089.304,8,400,,,
sequence,flow.Sequence,4_58,2023-05-03T19:20:22.522Z,,0,,,4345.375000005937,completion,,,,,false,,,,314084.8000000119,314084.40000000596,309722.359,309725,309739.025,314089.304,8,400,,,
trial,html.Screen,4_59_0,2023-05-03T19:20:25.647Z,,0,2,,3119.6959999999963,response,ISIC_0011862.JPG,,ISIC_5059476.JPG,ISIC_0011862.JPG,false,1,keypress(m),500,317209.200000003,317209,314072.638,314085,314089.304,317222.512,8,400,10,,ISIC_5059476.JPG
break,html.Screen,4_59_1,2023-05-03T19:20:25.648Z,,0,,,NaN,,,,,,false,,,,317210,317209.700000003,,317209.40000000596,,317222.512,8,400,,,
break_continue,html.Screen,4_59_2,2023-05-03T19:20:25.648Z,,0,,,NaN,,,,,,false,,,,317210.5,317210.40000000596,,317210.200000003,,317222.512,8,400,,,
sequence,flow.Sequence,4_59,2023-05-03T19:20:25.648Z,,0,,,3121.0960000059567,completion,,,,,false,,,,317210.700000003,317210.40000000596,314072.638,314084.90000000596,314089.304,317222.512,8,400,,,
trial,html.Screen,4_60_0,2023-05-03T19:20:29.510Z,,0,2,,3849.788000011933,response,ISIC_9254433.JPG,,ISIC_8759726.JPG,ISIC_8759726.JPG,false,0,keypress(z),500,321072.5,321072.3000000119,317205.846,317210.90000000596,317222.512,321089.024,8,400,11,,ISIC_9254433.JPG
break,html.Screen,4_60_1,2023-05-03T19:20:29.511Z,,0,,,NaN,,,,,,false,,,,321073.3000000119,321073.10000000894,,321072.8000000119,,321089.024,8,400,,,
break_continue,html.Screen,4_60_2,2023-05-03T19:20:29.511Z,,0,,,NaN,,,,,,false,,,,321073.8000000119,321073.5,,321073.5,,321089.024,8,400,,,
sequence,flow.Sequence,4_60,2023-05-03T19:20:29.511Z,,0,,,3850.988000000012,completion,,,,,false,,,,321073.90000000596,321073.5,317205.846,317210.90000000596,317222.512,321089.024,8,400,,,
trial,html.Screen,4_61_0,2023-05-03T19:20:36.319Z,,0,2,,6792.176000003004,response,ISIC_2647643.JPG,,ISIC_4263521.JPG,ISIC_2647643.JPG,false,1,keypress(m),500,327881.5,327881.200000003,321072.358,321074.200000003,321089.024,327889.332,8,400,12,,ISIC_4263521.JPG
break,html.Screen,4_61_1,2023-05-03T19:20:36.320Z,,0,,,NaN,,,,,,false,,,,327882.40000000596,327882.10000000894,,327881.700000003,,327889.332,8,400,,,
break_continue,html.Screen,4_61_2,2023-05-03T19:20:36.320Z,,0,,,NaN,,,,,,false,,,,327882.700000003,327882.60000000894,,327882.5,,327889.332,8,400,,,
sequence,flow.Sequence,4_61,2023-05-03T19:20:36.321Z,,0,,,6793.576000008965,completion,,,,,false,,,,327883,327882.60000000894,321072.358,321074,321089.024,327889.332,8,400,,,
trial,html.Screen,4_62_0,2023-05-03T19:20:43.094Z,,0,2,,6766.768000008946,response,ISIC_5092834.JPG,,ISIC_0010156.JPG,ISIC_0010156.JPG,false,0,keypress(z),500,334656.3000000119,334656.10000000894,327872.666,327883.200000003,327889.332,334672.394,8,400,13,,ISIC_5092834.JPG
break,html.Screen,4_62_1,2023-05-03T19:20:43.095Z,,0,,,NaN,,,,,,false,,,,334657.200000003,334656.90000000596,,334656.5,,334672.394,8,400,,,
break_continue,html.Screen,4_62_2,2023-05-03T19:20:43.095Z,,0,,,NaN,,,,,,false,,,,334657.60000000894,334657.5,,334657.40000000596,,334672.394,8,400,,,
sequence,flow.Sequence,4_62,2023-05-03T19:20:43.096Z,,0,,,6768.168000000005,completion,,,,,false,,,,334657.90000000596,334657.5,327872.666,327883.10000000894,327889.332,334672.394,8,400,,,
trial,html.Screen,4_63_0,2023-05-03T19:20:46.751Z,,0,2,,3640.40600001195,response,ISIC_6737771.JPG,,ISIC_7266462.JPG,ISIC_7266462.JPG,false,0,keypress(z),500,338313,338312.8000000119,334655.728,334658,334672.394,338322.659,8,400,14,,ISIC_6737771.JPG
break,html.Screen,4_63_1,2023-05-03T19:20:46.752Z,,0,,,NaN,,,,,,false,,,,338313.90000000596,338313.700000003,,338313.3000000119,,338322.659,8,400,,,
break_continue,html.Screen,4_63_2,2023-05-03T19:20:46.752Z,,0,,,NaN,,,,,,false,,,,338314.40000000596,338314.200000003,,338314.200000003,,338322.659,8,400,,,
sequence,flow.Sequence,4_63,2023-05-03T19:20:46.752Z,,0,,,3641.806000003009,completion,,,,,false,,,,338314.700000003,338314.200000003,334655.728,334658,334672.394,338322.659,8,400,,,
trial,html.Screen,4_64_0,2023-05-03T19:20:50.767Z,,0,2,,4006.2410000059754,response,ISIC_5206218.JPG,,ISIC_5787312.JPG,ISIC_5206218.JPG,false,1,keypress(m),500,342329.10000000894,342328.90000000596,338305.993,338314.90000000596,338322.659,342339.165,8,400,15,,ISIC_5787312.JPG
break,html.Screen,4_64_1,2023-05-03T19:20:50.768Z,,0,,,NaN,,,,,,false,,,,342329.8000000119,342329.60000000894,,342329.40000000596,,342339.165,8,400,,,
break_continue,html.Screen,4_64_2,2023-05-03T19:20:50.768Z,,0,,,NaN,,,,,,false,,,,342330.3000000119,342330.200000003,,342330,,342339.165,8,400,,,
sequence,flow.Sequence,4_64,2023-05-03T19:20:50.768Z,,0,,,4007.541000002995,completion,,,,,false,,,,342330.60000000894,342330.200000003,338305.993,338314.8000000119,338322.659,342339.165,8,400,,,
trial,html.Screen,4_65_0,2023-05-03T19:21:02.262Z,,0,2,,11516.888000000035,timeout,ISIC_6383486.JPG,,ISIC_0012064.JPG,,false,,,500,353824.5,353824.3000000119,342322.499,342330.700000003,342339.165,353856.053,8,400,16,,
break,html.Screen,4_65_1,2023-05-03T19:21:02.263Z,,0,,,NaN,,,,,,false,,,,353825.10000000894,353824.90000000596,,353824.700000003,,353856.053,8,400,,,
break_continue,html.Screen,4_65_2,2023-05-03T19:21:02.263Z,,0,,,NaN,,,,,,false,,,,353825.60000000894,353825.40000000596,,353825.3000000119,,353856.053,8,400,,,
sequence,flow.Sequence,4_65,2023-05-03T19:21:02.264Z,,0,,,11486.235000005981,completion,,,,,false,,,,353825.8000000119,353825.40000000596,342322.499,342330.60000000894,342339.165,353856.053,8,400,,,
trial,html.Screen,4_66_0,2023-05-03T19:21:06.103Z,,0,2,,3808.847000005946,response,ISIC_1819071.JPG,,ISIC_6723937.JPG,ISIC_6723937.JPG,false,0,keypress(z),500,357665.10000000894,357664.90000000596,353838.705,353825.90000000596,353856.053,357672.567,8,400,17,,ISIC_1819071.JPG
break,html.Screen,4_66_1,2023-05-03T19:21:06.104Z,,0,,,NaN,,,,,,false,,,,357665.90000000596,357665.700000003,,357665.40000000596,,357672.567,8,400,,,
break_continue,html.Screen,4_66_2,2023-05-03T19:21:06.104Z,,0,,,NaN,,,,,,false,,,,357666.40000000596,357666.200000003,,357666.200000003,,357672.567,8,400,,,
sequence,flow.Sequence,4_66,2023-05-03T19:21:06.105Z,,0,,,3810.147000002966,completion,,,,,false,,,,357666.60000000894,357666.200000003,353838.705,353825.90000000596,353856.053,357672.567,8,400,,,
trial,html.Screen,4_67_0,2023-05-03T19:21:09.431Z,,0,2,,3320.23300001194,response,ISIC_0015156.JPG,,ISIC_0060656.JPG,ISIC_0015156.JPG,false,1,keypress(m),500,360993,360992.8000000119,357655.901,357666.8000000119,357672.567,361005.767,8,400,18,,ISIC_0060656.JPG
break,html.Screen,4_67_1,2023-05-03T19:21:09.432Z,,0,,,NaN,,,,,,false,,,,360993.8000000119,360993.60000000894,,360993.200000003,,361005.767,8,400,,,
break_continue,html.Screen,4_67_2,2023-05-03T19:21:09.432Z,,0,,,NaN,,,,,,false,,,,360994.200000003,360994.10000000894,,360993.90000000596,,361005.767,8,400,,,
sequence,flow.Sequence,4_67,2023-05-03T19:21:09.432Z,,0,,,3321.53300000896,completion,,,,,false,,,,360994.40000000596,360994.10000000894,357655.901,357666.700000003,357672.567,361005.767,8,400,,,
trial,html.Screen,4_68_0,2023-05-03T19:21:12.990Z,,0,2,,3546.0330000119284,response,ISIC_4241907.JPG,,ISIC_0024306.JPG,ISIC_0024306.JPG,false,0,keypress(z),500,364552,364551.8000000119,360989.101,360994.60000000894,361005.767,364556.038,8,400,19,,ISIC_4241907.JPG
break,html.Screen,4_68_1,2023-05-03T19:21:12.991Z,,0,,,NaN,,,,,,false,,,,364552.90000000596,364552.60000000894,,364552.200000003,,364556.038,8,400,,,
break_continue,html.Screen,4_68_2,2023-05-03T19:21:12.991Z,,0,,,NaN,,,,,,false,,,,364553.3000000119,364553.10000000894,,364553,,364556.038,8,400,,,
sequence,flow.Sequence,4_68,2023-05-03T19:21:12.992Z,,0,,,3547.333000008948,completion,,,,,false,,,,364553.5,364553.10000000894,360989.101,360994.5,361005.767,364556.038,8,400,,,
trial,html.Screen,4_69_0,2023-05-03T19:21:21.161Z,,0,2,,8166.7620000119205,response,ISIC_0000553.JPG,,ISIC_0033555.JPG,ISIC_0000553.JPG,false,1,keypress(m),500,372723.10000000894,372722.8000000119,364539.372,364553.700000003,364556.038,372739.044,8,400,20,,ISIC_0033555.JPG
break,html.Screen,4_69_1,2023-05-03T19:21:21.162Z,,0,,,NaN,,,,,,false,,,,372724.10000000894,372723.8000000119,,372723.40000000596,,372739.044,8,400,,,
break_continue,html.Screen,4_69_2,2023-05-03T19:21:21.163Z,,0,,,NaN,,,,,,false,,,,372724.5,372724.40000000596,,372724.200000003,,372739.044,8,400,,,
sequence,flow.Sequence,4_69,2023-05-03T19:21:21.163Z,,0,,,8168.36200000596,completion,,,,,false,,,,372724.8000000119,372724.40000000596,364539.372,364553.700000003,364556.038,372739.044,8,400,,,
trial,html.Screen,4_70_0,2023-05-03T19:21:25.518Z,,0,2,,4340.856000005966,response,ISIC_7329395.JPG,,ISIC_0004334.JPG,ISIC_7329395.JPG,false,1,keypress(m),500,377080.10000000894,377079.90000000596,372722.378,372724.90000000596,372739.044,377089.289,8,400,21,,ISIC_0004334.JPG
break,html.Screen,4_70_1,2023-05-03T19:21:25.519Z,,0,,,NaN,,,,,,false,,,,377081,377080.700000003,,377080.3000000119,,377089.289,8,400,,,
break_continue,html.Screen,4_70_2,2023-05-03T19:21:25.520Z,,0,,,NaN,,,,,,false,,,,377081.5,377081.3000000119,,377081.200000003,,377089.289,8,400,,,
sequence,flow.Sequence,4_70,2023-05-03T19:21:25.520Z,,0,,,4342.2560000119265,completion,,,,,false,,,,377081.8000000119,377081.3000000119,372722.378,372724.90000000596,372739.044,377089.289,8,400,,,
trial,html.Screen,4_71_0,2023-05-03T19:21:29.894Z,,0,2,,4366.511000011931,response,ISIC_9690371.JPG,,ISIC_7341401.JPG,ISIC_7341401.JPG,false,0,keypress(z),500,381456,381455.8000000119,377072.623,377081.90000000596,377089.289,381472.447,8,400,22,,ISIC_9690371.JPG
break,html.Screen,4_71_1,2023-05-03T19:21:29.895Z,,0,,,NaN,,,,,,false,,,,381456.8000000119,381456.60000000894,,381456.3000000119,,381472.447,8,400,,,
break_continue,html.Screen,4_71_2,2023-05-03T19:21:29.895Z,,0,,,NaN,,,,,,false,,,,381457.3000000119,381457.10000000894,,381457,,381472.447,8,400,,,
sequence,flow.Sequence,4_71,2023-05-03T19:21:29.896Z,,0,,,4367.811000008951,completion,,,,,false,,,,381457.40000000596,381457.10000000894,377072.623,377081.90000000596,377089.289,381472.447,8,400,,,
trial,html.Screen,4_72_0,2023-05-03T19:21:35.415Z,,0,2,,5503.953000005975,response,ISIC_4191202.JPG,,ISIC_6001716.JPG,ISIC_6001716.JPG,false,0,keypress(z),500,386976.60000000894,386976.40000000596,381455.781,381457.60000000894,381472.447,386989.382,8,400,23,,ISIC_4191202.JPG
break,html.Screen,4_72_1,2023-05-03T19:21:35.416Z,,0,,,NaN,,,,,,false,,,,386977.40000000596,386977.200000003,,386976.90000000596,,386989.382,8,400,,,
break_continue,html.Screen,4_72_2,2023-05-03T19:21:35.416Z,,0,,,NaN,,,,,,false,,,,386977.90000000596,386977.700000003,,386977.60000000894,,386989.382,8,400,,,
sequence,flow.Sequence,4_72,2023-05-03T19:21:35.416Z,,0,,,5505.253000002995,completion,,,,,false,,,,386978.10000000894,386977.700000003,381455.781,381457.5,381472.447,386989.382,8,400,,,
trial,html.Screen,4_73_0,2023-05-03T19:21:39.896Z,,0,2,,4467.518000005977,response,ISIC_0014319.JPG,,ISIC_0029094.JPG,ISIC_0029094.JPG,false,0,keypress(z),500,391457.200000003,391456.90000000596,386972.716,386978.3000000119,386989.382,391472.536,8,400,24,,ISIC_0014319.JPG
break,html.Screen,4_73_1,2023-05-03T19:21:39.896Z,,0,,,NaN,,,,,,false,,,,391457.90000000596,391457.700000003,,391457.40000000596,,391472.536,8,400,,,
break_continue,html.Screen,4_73_2,2023-05-03T19:21:39.897Z,,0,,,NaN,,,,,,false,,,,391458.3000000119,391458.200000003,,391458.200000003,,391472.536,8,400,,,
sequence,flow.Sequence,4_73,2023-05-03T19:21:39.897Z,,0,,,4468.818000002997,completion,,,,,false,,,,391458.60000000894,391458.200000003,386972.716,386978.200000003,386989.382,391472.536,8,400,,,
trial,html.Screen,4_74_0,2023-05-03T19:21:43.976Z,,0,2,,4065.1640000029583,response,ISIC_0028692.JPG,,ISIC_2256461.JPG,ISIC_0028692.JPG,false,1,keypress(m),500,395537.90000000596,395537.700000003,391455.87,391458.700000003,391472.536,395539.04,8,400,25,,ISIC_2256461.JPG
break,html.Screen,4_74_1,2023-05-03T19:21:43.977Z,,0,,,NaN,,,,,,false,,,,395538.8000000119,395538.5,,395538.10000000894,,395539.04,8,400,,,
break_continue,html.Screen,4_74_2,2023-05-03T19:21:43.978Z,,0,,,NaN,,,,,,false,,,,395539.40000000596,395539.10000000894,,395539,,395539.04,8,400,,,
sequence,flow.Sequence,4_74,2023-05-03T19:21:43.979Z,,0,,,4066.564000008919,completion,,,,,false,,,,395540.40000000596,395539.10000000894,391455.87,391458.700000003,391472.536,395539.04,8,400,,,
trial,html.Screen,4_75_0,2023-05-03T19:21:51.584Z,,0,2,,7605.760000011942,response,ISIC_0014766.JPG,,ISIC_7724764.JPG,ISIC_0014766.JPG,false,1,keypress(m),500,403145,403144.8000000119,395522.374,395540.90000000596,395539.04,403155.752,8,400,26,,ISIC_7724764.JPG
break,html.Screen,4_75_1,2023-05-03T19:21:51.584Z,,0,,,NaN,,,,,,false,,,,403145.90000000596,403145.5,,403145.200000003,,403155.752,8,400,,,
break_continue,html.Screen,4_75_2,2023-05-03T19:21:51.585Z,,0,,,NaN,,,,,,false,,,,403146.3000000119,403146.10000000894,,403146.10000000894,,403155.752,8,400,,,
sequence,flow.Sequence,4_75,2023-05-03T19:21:51.585Z,,0,,,7607.060000008962,completion,,,,,false,,,,403146.60000000894,403146.10000000894,395522.374,395540.8000000119,395539.04,403155.752,8,400,,,
trial,html.Screen,4_76_0,2023-05-03T19:21:58.153Z,,0,2,,6558.848000008962,response,ISIC_0011721.JPG,,ISIC_1108204.JPG,ISIC_1108204.JPG,false,0,keypress(z),500,409714.90000000596,409714.60000000894,403139.086,403146.700000003,403155.752,409722.748,8,400,27,,ISIC_0011721.JPG
break,html.Screen,4_76_1,2023-05-03T19:21:58.154Z,,0,,,NaN,,,,,,false,,,,409715.700000003,409715.40000000596,,409715.10000000894,,409722.748,8,400,,,
break_continue,html.Screen,4_76_2,2023-05-03T19:21:58.155Z,,0,,,NaN,,,,,,false,,,,409716.200000003,409716.10000000894,,409716,,409722.748,8,400,,,
sequence,flow.Sequence,4_76,2023-05-03T19:21:58.155Z,,0,,,6560.348000008962,completion,,,,,false,,,,409716.5,409716.10000000894,403139.086,403146.700000003,403155.752,409722.748,8,400,,,
trial,html.Screen,4_77_0,2023-05-03T19:22:02.464Z,,0,2,,4302.751999999979,response,ISIC_0033258.JPG,,ISIC_0046640.JPG,ISIC_0033258.JPG,false,1,keypress(m),500,414025.8000000119,414025.5,409706.082,409716.8000000119,409722.748,414039.242,8,400,28,,ISIC_0046640.JPG
break,html.Screen,4_77_1,2023-05-03T19:22:02.465Z,,0,,,NaN,,,,,,false,,,,414026.5,414026.3000000119,,414026,,414039.242,8,400,,,
break_continue,html.Screen,4_77_2,2023-05-03T19:22:02.466Z,,0,,,NaN,,,,,,false,,,,414026.90000000596,414026.8000000119,,414026.700000003,,414039.242,8,400,,,
sequence,flow.Sequence,4_77,2023-05-03T19:22:02.466Z,,0,,,4304.0520000118995,completion,,,,,false,,,,414027.200000003,414026.8000000119,409706.082,409716.700000003,409722.748,414039.242,8,400,,,
trial,html.Screen,4_78_0,2023-05-03T19:22:05.375Z,,0,2,,2896.7579999999725,response,ISIC_7254389.JPG,,ISIC_0032320.JPG,ISIC_7254389.JPG,false,1,keypress(m),500,416936.10000000894,416936,414022.576,414027.40000000596,414039.242,416939.126,8,400,29,,ISIC_0032320.JPG
break,html.Screen,4_78_1,2023-05-03T19:22:05.376Z,,0,,,NaN,,,,,,false,,,,416936.8000000119,416936.60000000894,,416936.40000000596,,416939.126,8,400,,,
break_continue,html.Screen,4_78_2,2023-05-03T19:22:05.376Z,,0,,,NaN,,,,,,false,,,,416937.200000003,416937.10000000894,,416937,,416939.126,8,400,,,
sequence,flow.Sequence,4_78,2023-05-03T19:22:05.376Z,,0,,,2897.858000008913,completion,,,,,false,,,,416937.5,416937.10000000894,414022.576,414027.3000000119,414039.242,416939.126,8,400,,,
trial,html.Screen,4_79_0,2023-05-03T19:22:09.032Z,,0,2,,3653.6740000119316,response,ISIC_0032272.JPG,,ISIC_0070940.JPG,ISIC_0070940.JPG,false,0,keypress(z),500,420593.10000000894,420592.8000000119,416922.46,416937.700000003,416939.126,420606.069,8,400,30,,ISIC_0032272.JPG
break,html.Screen,4_79_1,2023-05-03T19:22:09.033Z,,0,,,NaN,,,,,,false,,,,420593.90000000596,420593.60000000894,,420593.3000000119,,420606.069,8,400,,,
break_continue,html.Screen,4_79_2,2023-05-03T19:22:09.033Z,,0,,,NaN,,,,,,false,,,,420594.40000000596,420594.200000003,,420594.10000000894,,420606.069,8,400,,,
sequence,flow.Sequence,4_79,2023-05-03T19:22:09.033Z,,0,,,3655.074000002991,completion,,,,,false,,,,420594.60000000894,420594.200000003,416922.46,416937.60000000894,416939.126,420606.069,8,400,,,
trial,html.Screen,4_80_0,2023-05-03T19:22:14.146Z,,0,2,,5100.1310000029625,response,ISIC_9332795.JPG,,ISIC_0011995.JPG,ISIC_9332795.JPG,false,1,keypress(m),500,425706.90000000596,425706.200000003,420589.403,420594.700000003,420606.069,425722.531,8,400,31,,ISIC_0011995.JPG
break,html.Screen,4_80_1,2023-05-03T19:22:14.146Z,,0,,,NaN,,,,,,false,,,,425707.8000000119,425707.5,,425707.10000000894,,425722.531,8,400,,,
break_continue,html.Screen,4_80_2,2023-05-03T19:22:14.147Z,,0,,,NaN,,,,,,false,,,,425708.10000000894,425708,,425707.90000000596,,425722.531,8,400,,,
sequence,flow.Sequence,4_80,2023-05-03T19:22:14.147Z,,0,,,5101.930999999982,completion,,,,,false,,,,425708.3000000119,425708,420589.403,420594.700000003,420606.069,425722.531,8,400,,,
trial,html.Screen,4_81_0,2023-05-03T19:22:18.864Z,,0,2,,4702.869000005943,response,ISIC_1484659.JPG,,ISIC_0014558.JPG,ISIC_0014558.JPG,false,0,keypress(z),500,430425.700000003,430425.40000000596,425705.865,425708.5,425722.531,430439.009,8,400,32,,ISIC_1484659.JPG
break,html.Screen,4_81_1,2023-05-03T19:22:18.865Z,,0,,,NaN,,,,,,false,,,,430426.40000000596,430426.200000003,,430425.90000000596,,430439.009,8,400,,,
break_continue,html.Screen,4_81_2,2023-05-03T19:22:18.866Z,,0,,,NaN,,,,,,false,,,,430426.90000000596,430426.700000003,,430426.60000000894,,430439.009,8,400,,,
sequence,flow.Sequence,4_81,2023-05-03T19:22:18.866Z,,0,,,4704.169000002963,completion,,,,,false,,,,430427.10000000894,430426.700000003,425705.865,425708.40000000596,425722.531,430439.009,8,400,,,
trial,html.Screen,4_82_0,2023-05-03T19:22:28.041Z,,0,2,,9162.39100000594,response,ISIC_0056793.JPG,,ISIC_6381852.JPG,ISIC_0056793.JPG,false,1,keypress(m),500,439601.700000003,439601.40000000596,430422.343,430427.3000000119,430439.009,439605.744,8,400,33,,ISIC_6381852.JPG
break,html.Screen,4_82_1,2023-05-03T19:22:28.042Z,,0,,,NaN,,,,,,false,,,,439602.60000000894,439602.3000000119,,439601.90000000596,,439605.744,8,400,,,
break_continue,html.Screen,4_82_2,2023-05-03T19:22:28.042Z,,0,,,NaN,,,,,,false,,,,439603,439602.8000000119,,439602.700000003,,439605.744,8,400,,,
sequence,flow.Sequence,4_82,2023-05-03T19:22:28.042Z,,0,,,9163.7910000119,completion,,,,,false,,,,439603.3000000119,439602.8000000119,430422.343,430427.200000003,430439.009,439605.744,8,400,,,
trial,html.Screen,4_83_0,2023-05-03T19:22:33.881Z,,0,2,,5835.755999999994,response,ISIC_0032624.JPG,,ISIC_2700320.JPG,ISIC_0032624.JPG,false,1,keypress(m),500,445441.700000003,445441.5,439589.078,439603.40000000596,439605.744,445455.924,8,400,34,,ISIC_2700320.JPG
break,html.Screen,4_83_1,2023-05-03T19:22:33.882Z,,0,,,NaN,,,,,,false,,,,445442.5,445442.3000000119,,445441.90000000596,,445455.924,8,400,,,
break_continue,html.Screen,4_83_2,2023-05-03T19:22:33.882Z,,0,,,NaN,,,,,,false,,,,445443,445442.90000000596,,445442.700000003,,445455.924,8,400,,,
sequence,flow.Sequence,4_83,2023-05-03T19:22:33.882Z,,0,,,5837.156000005954,completion,,,,,false,,,,445443.200000003,445442.90000000596,439589.078,439603.40000000596,439605.744,445455.924,8,400,,,
trial,html.Screen,4_84_0,2023-05-03T19:22:45.382Z,,0,2,,11516.881999999983,timeout,ISIC_5866419.JPG,,ISIC_9562442.JPG,,false,,,500,456943.200000003,456942.90000000596,445439.258,445443.40000000596,445455.924,456972.806,8,400,35,,
break,html.Screen,4_84_1,2023-05-03T19:22:45.383Z,,0,,,NaN,,,,,,false,,,,456943.8000000119,456943.60000000894,,456943.40000000596,,456972.806,8,400,,,
break_continue,html.Screen,4_84_2,2023-05-03T19:22:45.383Z,,0,,,NaN,,,,,,false,,,,456944.200000003,456944,,456943.90000000596,,456972.806,8,400,,,
sequence,flow.Sequence,4_84,2023-05-03T19:22:45.384Z,,0,,,11488.076000000001,completion,,,,,false,,,,456944.5,456944,445439.258,445443.3000000119,445455.924,456972.806,8,400,,,
trial,html.Screen,4_85_0,2023-05-03T19:22:48.112Z,,0,2,,2699.4940000119386,response,ISIC_6393611.JPG,,ISIC_0011446.JPG,ISIC_0011446.JPG,false,0,keypress(z),500,459672.5,459672.3000000119,456955.464,456944.60000000894,456972.806,459689.364,8,400,36,,ISIC_6393611.JPG
break,html.Screen,4_85_1,2023-05-03T19:22:48.112Z,,0,,,NaN,,,,,,false,,,,459673.200000003,459673,,459672.700000003,,459689.364,8,400,,,
break_continue,html.Screen,4_85_2,2023-05-03T19:22:48.113Z,,0,,,NaN,,,,,,false,,,,459673.700000003,459673.5,,459673.40000000596,,459689.364,8,400,,,
sequence,flow.Sequence,4_85,2023-05-03T19:22:48.113Z,,0,,,2700.6940000000177,completion,,,,,false,,,,459673.90000000596,459673.5,456955.464,456944.60000000894,456972.806,459689.364,8,400,,,
trial,html.Screen,4_86_0,2023-05-03T19:22:51.873Z,,0,2,,3744.336000002979,response,ISIC_0025355.JPG,,ISIC_0014541.JPG,ISIC_0014541.JPG,false,0,keypress(z),500,463433.90000000596,463433.700000003,459672.698,459674.10000000894,459689.364,463439.214,8,400,37,,ISIC_0025355.JPG
break,html.Screen,4_86_1,2023-05-03T19:22:51.874Z,,0,,,NaN,,,,,,false,,,,463434.8000000119,463434.5,,463434.200000003,,463439.214,8,400,,,
break_continue,html.Screen,4_86_2,2023-05-03T19:22:51.874Z,,0,,,NaN,,,,,,false,,,,463435.200000003,463435.10000000894,,463435,,463439.214,8,400,,,
sequence,flow.Sequence,4_86,2023-05-03T19:22:51.875Z,,0,,,3745.7360000089393,completion,,,,,false,,,,463435.40000000596,463435.10000000894,459672.698,459674,459689.364,463439.214,8,400,,,
trial,html.Screen,4_87_0,2023-05-03T19:22:57.800Z,,0,2,,5921.486000003002,response,ISIC_1312827.JPG,,ISIC_8978290.JPG,ISIC_1312827.JPG,false,1,keypress(m),500,469361,469360.700000003,463422.548,463435.5,463439.214,469372.783,8,400,38,,ISIC_8978290.JPG
break,html.Screen,4_87_1,2023-05-03T19:22:57.801Z,,0,,,NaN,,,,,,false,,,,469361.700000003,469361.5,,469361.3000000119,,469372.783,8,400,,,
break_continue,html.Screen,4_87_2,2023-05-03T19:22:57.801Z,,0,,,NaN,,,,,,false,,,,469362.200000003,469362,,469361.90000000596,,469372.783,8,400,,,
sequence,flow.Sequence,4_87,2023-05-03T19:22:57.802Z,,0,,,5922.786000000022,completion,,,,,false,,,,469362.40000000596,469362,463422.548,463435.5,463439.214,469372.783,8,400,,,
trial,html.Screen,4_88_0,2023-05-03T19:23:03.064Z,,0,2,,5252.117000005965,response,ISIC_3947143.JPG,,ISIC_0060341.JPG,ISIC_0060341.JPG,false,0,keypress(z),500,474625.10000000894,474624.90000000596,469356.117,469362.5,469372.783,474639.239,8,400,39,,ISIC_3947143.JPG
break,html.Screen,4_88_1,2023-05-03T19:23:03.065Z,,0,,,NaN,,,,,,false,,,,474625.8000000119,474625.60000000894,,474625.3000000119,,474639.239,8,400,,,
break_continue,html.Screen,4_88_2,2023-05-03T19:23:03.066Z,,0,,,NaN,,,,,,false,,,,474626.3000000119,474626.10000000894,,474626,,474639.239,8,400,,,
sequence,flow.Sequence,4_88,2023-05-03T19:23:03.066Z,,0,,,5253.317000008945,completion,,,,,false,,,,474626.5,474626.10000000894,469356.117,469362.5,469372.783,474639.239,8,400,,,
trial,html.Screen,4_89_0,2023-05-03T19:23:07.689Z,,0,2,,4610.0610000119195,response,ISIC_0064822.JPG,,ISIC_0031965.JPG,ISIC_0031965.JPG,false,0,keypress(z),500,479249.60000000894,479249.3000000119,474622.573,474626.700000003,474639.239,479255.721,8,400,40,,ISIC_0064822.JPG
break,html.Screen,4_89_1,2023-05-03T19:23:07.690Z,,0,,,NaN,,,,,,false,,,,479250.3000000119,479250.10000000894,,479249.8000000119,,479255.721,8,400,,,
break_continue,html.Screen,4_89_2,2023-05-03T19:23:07.690Z,,0,,,NaN,,,,,,false,,,,479250.700000003,479250.60000000894,,479250.5,,479255.721,8,400,,,
sequence,flow.Sequence,4_89,2023-05-03T19:23:07.690Z,,0,,,4611.361000008939,completion,,,,,false,,,,479250.90000000596,479250.60000000894,474622.573,474626.700000003,474639.239,479255.721,8,400,,,
trial,html.Screen,4_90_0,2023-05-03T19:23:10.595Z,,0,2,,2899.2789999999804,response,ISIC_0027110.JPG,,ISIC_2271767.JPG,ISIC_2271767.JPG,false,0,keypress(z),500,482155.3000000119,482155,479239.055,479251.10000000894,479255.721,482172.714,8,400,41,,ISIC_0027110.JPG
break,html.Screen,4_90_1,2023-05-03T19:23:10.595Z,,0,,,NaN,,,,,,false,,,,482156,482155.700000003,,482155.40000000596,,482172.714,8,400,,,
break_continue,html.Screen,4_90_2,2023-05-03T19:23:10.596Z,,0,,,NaN,,,,,,false,,,,482156.700000003,482156.5,,482156.200000003,,482172.714,8,400,,,
sequence,flow.Sequence,4_90,2023-05-03T19:23:10.596Z,,0,,,2900.7789999999804,completion,,,,,false,,,,482156.8000000119,482156.5,479239.055,479251.10000000894,479255.721,482172.714,8,400,,,
trial,html.Screen,4_91_0,2023-05-03T19:23:14.106Z,,0,2,,3493.986000003002,response,ISIC_0003122.JPG,,ISIC_8353090.JPG,ISIC_0003122.JPG,false,1,keypress(m),500,485666.90000000596,485666.700000003,482156.048,482157,482172.714,485672.574,8,400,42,,ISIC_8353090.JPG
break,html.Screen,4_91_1,2023-05-03T19:23:14.107Z,,0,,,NaN,,,,,,false,,,,485667.60000000894,485667.40000000596,,485667.200000003,,485672.574,8,400,,,
break_continue,html.Screen,4_91_2,2023-05-03T19:23:14.108Z,,0,,,NaN,,,,,,false,,,,485668.10000000894,485667.90000000596,,485667.8000000119,,485672.574,8,400,,,
sequence,flow.Sequence,4_91,2023-05-03T19:23:14.108Z,,0,,,3495.1860000059824,completion,,,,,false,,,,485668.200000003,485667.90000000596,482156.048,482157,482172.714,485672.574,8,400,,,
trial,html.Screen,4_92_0,2023-05-03T19:23:19.603Z,,0,2,,5490.326000005938,response,ISIC_5218530.JPG,,ISIC_0029591.JPG,ISIC_0029591.JPG,false,0,keypress(z),500,491163.10000000894,491162.90000000596,485655.908,485668.40000000596,485672.574,491172.809,8,400,43,,ISIC_5218530.JPG
break,html.Screen,4_92_1,2023-05-03T19:23:19.603Z,,0,,,NaN,,,,,,false,,,,491163.8000000119,491163.60000000894,,491163.40000000596,,491172.809,8,400,,,
break_continue,html.Screen,4_92_2,2023-05-03T19:23:19.604Z,,0,,,NaN,,,,,,false,,,,491164.200000003,491164.10000000894,,491164,,491172.809,8,400,,,
sequence,flow.Sequence,4_92,2023-05-03T19:23:19.604Z,,0,,,5491.526000008918,completion,,,,,false,,,,491164.5,491164.10000000894,485655.908,485668.40000000596,485672.574,491172.809,8,400,,,
trial,html.Screen,4_93_0,2023-05-03T19:23:23.904Z,,0,2,,4291.791000008932,response,ISIC_0033473.JPG,,ISIC_0031039.JPG,ISIC_0033473.JPG,false,1,keypress(m),500,495464.8000000119,495464.60000000894,491156.143,491164.60000000894,491172.809,495472.637,8,400,44,,ISIC_0031039.JPG
break,html.Screen,4_93_1,2023-05-03T19:23:23.905Z,,0,,,NaN,,,,,,false,,,,495465.700000003,495465.40000000596,,495465.10000000894,,495472.637,8,400,,,
break_continue,html.Screen,4_93_2,2023-05-03T19:23:23.906Z,,0,,,NaN,,,,,,false,,,,495466.200000003,495466,,495465.90000000596,,495472.637,8,400,,,
sequence,flow.Sequence,4_93,2023-05-03T19:23:23.906Z,,0,,,4293.190999999992,completion,,,,,false,,,,495466.3000000119,495466,491156.143,491164.60000000894,491172.809,495472.637,8,400,,,
trial,html.Screen,4_94_0,2023-05-03T19:23:30.320Z,,0,2,,6407.963000008953,response,ISIC_4548995.JPG,,ISIC_7833178.JPG,ISIC_4548995.JPG,false,1,keypress(m),500,501880.8000000119,501880.60000000894,495455.971,495466.5,495472.637,501889.506,8,400,45,,ISIC_7833178.JPG
break,html.Screen,4_94_1,2023-05-03T19:23:30.321Z,,0,,,NaN,,,,,,false,,,,501881.5,501881.3000000119,,501881,,501889.506,8,400,,,
break_continue,html.Screen,4_94_2,2023-05-03T19:23:30.322Z,,0,,,NaN,,,,,,false,,,,501881.90000000596,501881.8000000119,,501881.60000000894,,501889.506,8,400,,,
sequence,flow.Sequence,4_94,2023-05-03T19:23:30.322Z,,0,,,6409.163000011933,completion,,,,,false,,,,501882,501881.8000000119,495455.971,495466.5,495472.637,501889.506,8,400,,,
trial,html.Screen,4_95_0,2023-05-03T19:23:34.897Z,,0,2,,4567.8940000059665,response,ISIC_0033813.JPG,,ISIC_6974830.JPG,ISIC_6974830.JPG,false,0,keypress(z),500,506457.60000000894,506457.40000000596,501872.84,501882.200000003,501889.506,506472.656,8,400,46,,ISIC_0033813.JPG
break,html.Screen,4_95_1,2023-05-03T19:23:34.898Z,,0,,,NaN,,,,,,false,,,,506458.200000003,506458.10000000894,,506457.8000000119,,506472.656,8,400,,,
break_continue,html.Screen,4_95_2,2023-05-03T19:23:34.898Z,,0,,,NaN,,,,,,false,,,,506458.60000000894,506458.5,,506458.40000000596,,506472.656,8,400,,,
sequence,flow.Sequence,4_95,2023-05-03T19:23:34.899Z,,0,,,4568.994000000006,completion,,,,,false,,,,506458.8000000119,506458.5,501872.84,501882.200000003,501889.506,506472.656,8,400,,,
trial,html.Screen,4_96_0,2023-05-03T19:23:39.656Z,,0,2,,4743.144000011904,response,ISIC_4322954.JPG,,ISIC_0054053.JPG,ISIC_0054053.JPG,false,0,keypress(z),500,511216,511215.8000000119,506455.99,506458.90000000596,506472.656,511222.466,8,400,47,,ISIC_4322954.JPG
break,html.Screen,4_96_1,2023-05-03T19:23:39.656Z,,0,,,NaN,,,,,,false,,,,511216.700000003,511216.5,,511216.3000000119,,511222.466,8,400,,,
break_continue,html.Screen,4_96_2,2023-05-03T19:23:39.657Z,,0,,,NaN,,,,,,false,,,,511217.10000000894,511217,,511216.8000000119,,511222.466,8,400,,,
sequence,flow.Sequence,4_96,2023-05-03T19:23:39.657Z,,0,,,4744.343999999983,completion,,,,,false,,,,511217.3000000119,511217,506455.99,506458.8000000119,506472.656,511222.466,8,400,,,
trial,html.Screen,4_97_0,2023-05-03T19:23:44.003Z,,0,2,,4340.234000002965,response,ISIC_7903838.JPG,,ISIC_0879097.JPG,ISIC_7903838.JPG,false,1,keypress(m),500,515562.90000000596,515562.700000003,511205.8,511217.40000000596,511222.466,515572.73,8,400,48,,ISIC_0879097.JPG
break,html.Screen,4_97_1,2023-05-03T19:23:44.003Z,,0,,,NaN,,,,,,false,,,,515563.60000000894,515563.40000000596,,515563.10000000894,,515572.73,8,400,,,
break_continue,html.Screen,4_97_2,2023-05-03T19:23:44.004Z,,0,,,NaN,,,,,,false,,,,515564,515563.90000000596,,515563.8000000119,,515572.73,8,400,,,
sequence,flow.Sequence,4_97,2023-05-03T19:23:44.004Z,,0,,,4341.434000005946,completion,,,,,false,,,,515564.200000003,515563.90000000596,511205.8,511217.40000000596,511222.466,515572.73,8,400,,,
trial,html.Screen,4_98_0,2023-05-03T19:23:48.187Z,,0,2,,4174.170000005979,response,ISIC_2577938.JPG,,ISIC_0031039.JPG,ISIC_0031039.JPG,false,0,keypress(z),500,519747.200000003,519746.90000000596,515556.064,515564.3000000119,515572.73,519755.896,8,400,49,,ISIC_2577938.JPG
break,html.Screen,4_98_1,2023-05-03T19:23:48.188Z,,0,,,NaN,,,,,,false,,,,519747.8000000119,519747.700000003,,519747.3000000119,,519755.896,8,400,,,
break_continue,html.Screen,4_98_2,2023-05-03T19:23:48.188Z,,0,,,NaN,,,,,,false,,,,519748.200000003,519748,,519748,,519755.896,8,400,,,
sequence,flow.Sequence,4_98,2023-05-03T19:23:48.188Z,,0,,,4175.270000000019,completion,,,,,false,,,,519748.40000000596,519748,515556.064,515564.3000000119,515572.73,519755.896,8,400,,,
trial,html.Screen,4_99_0,2023-05-03T19:23:51.571Z,,0,2,,3375.0040000059525,response,ISIC_0026683.JPG,,ISIC_0033923.JPG,ISIC_0033923.JPG,false,0,keypress(z),500,523131.10000000894,523130.90000000596,519739.23,519748.5,519755.896,523139.521,8,400,50,,ISIC_0026683.JPG
break,html.Screen,4_99_1,2023-05-03T19:23:56.565Z,,0,,,4999.799999999988,timeout,,,,,false,,,,528124.900000006,528122.655,523122.855,523131.3000000119,523139.521,528139.321,8,400,,,
break_continue,html.Screen,4_99_2,2023-05-03T19:24:01.629Z,,0,,,5013.179000000004,response,,,,,false,continue,keypress(Space),,533188.900000006,533152.5,528122.655,528125.5,528139.321,533205.785,8,400,,,
sequence,flow.Sequence,4_99,2023-05-03T19:24:01.629Z,,0,,,13396.603999999992,completion,,,,,false,,,,533189.1000000089,533152.5,519739.23,519748.40000000596,519755.896,533205.785,8,400,,,
trial,html.Screen,4_100_0,2023-05-03T19:24:05.411Z,,0,3,,3765.315000008908,response,ISIC_8297563.JPG,,ISIC_0392105.JPG,ISIC_8297563.JPG,false,1,keypress(m),500,536971.400000006,536971.1000000089,533189.119,533189.3000000119,533205.785,536972.736,8,400,1,,ISIC_0392105.JPG
break,html.Screen,4_100_1,2023-05-03T19:24:05.412Z,,0,,,NaN,,,,,,false,,,,536972.1000000089,536971.900000006,,536971.6000000089,,536972.736,8,400,,,
break_continue,html.Screen,4_100_2,2023-05-03T19:24:05.413Z,,0,,,NaN,,,,,,false,,,,536972.6000000089,536972.400000006,,536972.3000000119,,536972.736,8,400,,,
sequence,flow.Sequence,4_100,2023-05-03T19:24:05.413Z,,0,,,3766.615000005928,completion,,,,,false,,,,536972.700000003,536972.400000006,533189.119,533189.200000003,533205.785,536972.736,8,400,,,
trial,html.Screen,4_101_0,2023-05-03T19:24:09.554Z,,0,3,,4140.664000005927,response,ISIC_0528044.JPG,,ISIC_0029007.JPG,ISIC_0528044.JPG,false,1,keypress(m),500,541113.700000003,541113.400000006,536956.07,536972.900000006,536972.736,541122.57,8,400,2,,ISIC_0029007.JPG
break,html.Screen,4_101_1,2023-05-03T19:24:09.555Z,,0,,,NaN,,,,,,false,,,,541114.400000006,541114.200000003,,541113.900000006,,541122.57,8,400,,,
break_continue,html.Screen,4_101_2,2023-05-03T19:24:09.555Z,,0,,,NaN,,,,,,false,,,,541114.8000000119,541114.700000003,,541114.6000000089,,541122.57,8,400,,,
sequence,flow.Sequence,4_101,2023-05-03T19:24:09.555Z,,0,,,4141.964000002947,completion,,,,,false,,,,541115,541114.700000003,536956.07,536972.8000000119,536972.736,541122.57,8,400,,,
trial,html.Screen,4_102_0,2023-05-03T19:24:16.331Z,,0,3,,6768.1300000030315,response,ISIC_5484086.JPG,,ISIC_4462773.JPG,ISIC_4462773.JPG,false,0,keypress(z),500,547890.900000006,547890.700000003,541105.904,541115.200000003,541122.57,547906.225,8,400,3,,ISIC_5484086.JPG
break,html.Screen,4_102_1,2023-05-03T19:24:16.332Z,,0,,,NaN,,,,,,false,,,,547891.8000000119,547891.400000006,,547891.200000003,,547906.225,8,400,,,
break_continue,html.Screen,4_102_2,2023-05-03T19:24:16.332Z,,0,,,NaN,,,,,,false,,,,547892.3000000119,547892.1000000089,,547892,,547906.225,8,400,,,
sequence,flow.Sequence,4_102,2023-05-03T19:24:16.333Z,,0,,,6769.530000008992,completion,,,,,false,,,,547892.400000006,547892.1000000089,541105.904,541115.1000000089,541122.57,547906.225,8,400,,,
trial,html.Screen,4_103_0,2023-05-03T19:24:19.129Z,,0,3,,2782.375000008964,response,ISIC_8865595.JPG,,ISIC_0028919.JPG,ISIC_8865595.JPG,false,1,keypress(m),500,550688.900000006,550688.6000000089,547889.559,547892.6000000089,547906.225,550706.113,8,400,4,,ISIC_0028919.JPG
break,html.Screen,4_103_1,2023-05-03T19:24:19.130Z,,0,,,NaN,,,,,,false,,,,550689.6000000089,550689.400000006,,550689.1000000089,,550706.113,8,400,,,
break_continue,html.Screen,4_103_2,2023-05-03T19:24:19.130Z,,0,,,NaN,,,,,,false,,,,550690,550689.900000006,,550689.8000000119,,550706.113,8,400,,,
sequence,flow.Sequence,4_103,2023-05-03T19:24:19.131Z,,0,,,2783.6750000059837,completion,,,,,false,,,,550690.3000000119,550689.900000006,547889.559,547892.5,547906.225,550706.113,8,400,,,
trial,html.Screen,4_104_0,2023-05-03T19:24:22.266Z,,0,3,,3119.087000002968,response,ISIC_4191202.JPG,,ISIC_6828892.JPG,ISIC_4191202.JPG,false,1,keypress(m),500,553825.400000006,553825.200000003,550689.447,550690.400000006,550706.113,553839.321,8,400,5,,ISIC_6828892.JPG
break,html.Screen,4_104_1,2023-05-03T19:24:22.267Z,,0,,,NaN,,,,,,false,,,,553826.200000003,553826,,553825.6000000089,,553839.321,8,400,,,
break_continue,html.Screen,4_104_2,2023-05-03T19:24:22.267Z,,0,,,NaN,,,,,,false,,,,553826.700000003,553826.5,,553826.400000006,,553839.321,8,400,,,
sequence,flow.Sequence,4_104,2023-05-03T19:24:22.267Z,,0,,,3120.386999999988,completion,,,,,false,,,,553826.900000006,553826.5,550689.447,550690.400000006,550706.113,553839.321,8,400,,,
trial,html.Screen,4_105_0,2023-05-03T19:24:26.849Z,,0,3,,4569.479000011925,response,ISIC_0013792.JPG,,ISIC_0033125.JPG,ISIC_0033125.JPG,false,0,keypress(z),500,558409,558408.8000000119,553822.655,553827.1000000089,553839.321,558422.88,8,400,6,,ISIC_0013792.JPG
break,html.Screen,4_105_1,2023-05-03T19:24:26.850Z,,0,,,NaN,,,,,,false,,,,558409.8000000119,558409.6000000089,,558409.3000000119,,558422.88,8,400,,,
break_continue,html.Screen,4_105_2,2023-05-03T19:24:26.851Z,,0,,,NaN,,,,,,false,,,,558410.3000000119,558410.1000000089,,558409.900000006,,558422.88,8,400,,,
sequence,flow.Sequence,4_105,2023-05-03T19:24:26.851Z,,0,,,4570.779000008944,completion,,,,,false,,,,558410.5,558410.1000000089,553822.655,553827.1000000089,553839.321,558422.88,8,400,,,
trial,html.Screen,4_106_0,2023-05-03T19:24:30.635Z,,0,3,,3771.3200000029756,response,ISIC_0001148.JPG,,ISIC_0634107.JPG,ISIC_0001148.JPG,false,1,keypress(m),500,562194.400000006,562194.200000003,558406.214,558410.6000000089,558422.88,562206.062,8,400,7,,ISIC_0634107.JPG
break,html.Screen,4_106_1,2023-05-03T19:24:30.636Z,,0,,,NaN,,,,,,false,,,,562195.1000000089,562194.900000006,,562194.6000000089,,562206.062,8,400,,,
break_continue,html.Screen,4_106_2,2023-05-03T19:24:30.636Z,,0,,,NaN,,,,,,false,,,,562195.5,562195.5,,562195.400000006,,562206.062,8,400,,,
sequence,flow.Sequence,4_106,2023-05-03T19:24:30.636Z,,0,,,3772.6199999999953,completion,,,,,false,,,,562195.8000000119,562195.5,558406.214,558410.6000000089,558422.88,562206.062,8,400,,,
trial,html.Screen,4_107_0,2023-05-03T19:24:35.386Z,,0,3,,4739.2380000118865,response,ISIC_2494956.JPG,,ISIC_7407847.JPG,ISIC_2494956.JPG,false,1,keypress(m),500,566945.6000000089,566945.3000000119,562189.396,562195.900000006,562206.062,566955.872,8,400,8,,ISIC_7407847.JPG
break,html.Screen,4_107_1,2023-05-03T19:24:35.387Z,,0,,,NaN,,,,,,false,,,,566946.5,566946.200000003,,566945.8000000119,,566955.872,8,400,,,
break_continue,html.Screen,4_107_2,2023-05-03T19:24:35.387Z,,0,,,NaN,,,,,,false,,,,566946.8000000119,566946.700000003,,566946.5,,566955.872,8,400,,,
sequence,flow.Sequence,4_107,2023-05-03T19:24:35.387Z,,0,,,4740.638000002946,completion,,,,,false,,,,566947,566946.700000003,562189.396,562195.900000006,562206.062,566955.872,8,400,,,
trial,html.Screen,4_108_0,2023-05-03T19:24:38.297Z,,0,3,,2900.8280000030063,response,ISIC_5191344.JPG,,ISIC_6535558.JPG,ISIC_5191344.JPG,false,1,keypress(m),500,569857,569856.700000003,566939.206,566947.200000003,566955.872,569872.822,8,400,9,,ISIC_6535558.JPG
break,html.Screen,4_108_1,2023-05-03T19:24:38.298Z,,0,,,NaN,,,,,,false,,,,569858,569857.6000000089,,569857.3000000119,,569872.822,8,400,,,
break_continue,html.Screen,4_108_2,2023-05-03T19:24:38.299Z,,0,,,NaN,,,,,,false,,,,569858.400000006,569858.200000003,,569858.1000000089,,569872.822,8,400,,,
sequence,flow.Sequence,4_108,2023-05-03T19:24:38.299Z,,0,,,2902.3280000030063,completion,,,,,false,,,,569858.6000000089,569858.200000003,566939.206,566947.200000003,566955.872,569872.822,8,400,,,
trial,html.Screen,4_109_0,2023-05-03T19:24:41.844Z,,0,3,,3530.0780000059167,response,ISIC_8188797.JPG,,ISIC_9086288.JPG,ISIC_8188797.JPG,false,1,keypress(m),500,573403.200000003,573402.900000006,569856.156,569858.8000000119,569872.822,573406.014,8,400,10,,ISIC_9086288.JPG
break,html.Screen,4_109_1,2023-05-03T19:24:41.844Z,,0,,,NaN,,,,,,false,,,,573403.8000000119,573403.6000000089,,573403.3000000119,,573406.014,8,400,,,
break_continue,html.Screen,4_109_2,2023-05-03T19:24:41.845Z,,0,,,NaN,,,,,,false,,,,573404.1000000089,573404,,573403.900000006,,573406.014,8,400,,,
sequence,flow.Sequence,4_109,2023-05-03T19:24:41.845Z,,0,,,3531.1779999999562,completion,,,,,false,,,,573404.3000000119,573404,569856.156,569858.700000003,569872.822,573406.014,8,400,,,
trial,html.Screen,4_110_0,2023-05-03T19:24:45.338Z,,0,3,,3491.386000005994,response,ISIC_4481362.JPG,,ISIC_2964397.JPG,ISIC_2964397.JPG,false,0,keypress(z),500,576897.700000003,576897.400000006,573389.348,573404.400000006,573406.014,576905.874,8,400,11,,ISIC_4481362.JPG
break,html.Screen,4_110_1,2023-05-03T19:24:45.339Z,,0,,,NaN,,,,,,false,,,,576898.3000000119,576898.1000000089,,576897.8000000119,,576905.874,8,400,,,
break_continue,html.Screen,4_110_2,2023-05-03T19:24:45.339Z,,0,,,NaN,,,,,,false,,,,576898.700000003,576898.6000000089,,576898.5,,576905.874,8,400,,,
sequence,flow.Sequence,4_110,2023-05-03T19:24:45.340Z,,0,,,3492.586000008974,completion,,,,,false,,,,576899,576898.6000000089,573389.348,573404.3000000119,573406.014,576905.874,8,400,,,
trial,html.Screen,4_111_0,2023-05-03T19:24:49.290Z,,0,3,,3943.726000008988,response,ISIC_0033689.JPG,,ISIC_0030506.JPG,ISIC_0030506.JPG,false,0,keypress(z),500,580849.8000000119,580849.6000000089,576889.208,576899.1000000089,576905.874,580856.16,8,400,12,,ISIC_0033689.JPG
break,html.Screen,4_111_1,2023-05-03T19:24:49.291Z,,0,,,NaN,,,,,,false,,,,580850.6000000089,580850.400000006,,580850.1000000089,,580856.16,8,400,,,
break_continue,html.Screen,4_111_2,2023-05-03T19:24:49.292Z,,0,,,NaN,,,,,,false,,,,580851,580850.8000000119,,580850.8000000119,,580856.16,8,400,,,
sequence,flow.Sequence,4_111,2023-05-03T19:24:49.292Z,,0,,,3944.9260000119684,completion,,,,,false,,,,580851.200000003,580850.8000000119,576889.208,576899.1000000089,576905.874,580856.16,8,400,,,
trial,html.Screen,4_112_0,2023-05-03T19:24:54.074Z,,0,3,,4777.240000005928,response,ISIC_0024385.JPG,,ISIC_0068144.JPG,ISIC_0024385.JPG,false,1,keypress(m),500,585633.6000000089,585633.400000006,580839.494,580851.400000006,580856.16,585639.302,8,400,13,,ISIC_0068144.JPG
break,html.Screen,4_112_1,2023-05-03T19:24:54.075Z,,0,,,NaN,,,,,,false,,,,585634.400000006,585634.200000003,,585633.900000006,,585639.302,8,400,,,
break_continue,html.Screen,4_112_2,2023-05-03T19:24:54.075Z,,0,,,NaN,,,,,,false,,,,585634.900000006,585634.700000003,,585634.6000000089,,585639.302,8,400,,,
sequence,flow.Sequence,4_112,2023-05-03T19:24:54.076Z,,0,,,4778.540000002948,completion,,,,,false,,,,585635,585634.700000003,580839.494,580851.400000006,580856.16,585639.302,8,400,,,
trial,html.Screen,4_113_0,2023-05-03T19:24:59.265Z,,0,3,,5184.998000011896,response,ISIC_7141361.JPG,,ISIC_9764973.JPG,ISIC_7141361.JPG,false,1,keypress(m),500,590824.5,590824.3000000119,585622.636,585635.200000003,585639.302,590839.577,8,400,14,,ISIC_9764973.JPG
break,html.Screen,4_113_1,2023-05-03T19:24:59.266Z,,0,,,NaN,,,,,,false,,,,590825.3000000119,590825.1000000089,,590824.8000000119,,590839.577,8,400,,,
break_continue,html.Screen,4_113_2,2023-05-03T19:24:59.266Z,,0,,,NaN,,,,,,false,,,,590825.700000003,590825.6000000089,,590825.400000006,,590839.577,8,400,,,
sequence,flow.Sequence,4_113,2023-05-03T19:24:59.267Z,,0,,,5186.298000008916,completion,,,,,false,,,,590825.900000006,590825.6000000089,585622.636,585635.1000000089,585639.302,590839.577,8,400,,,
trial,html.Screen,4_114_0,2023-05-03T19:25:04.082Z,,0,3,,4801.323000005912,response,ISIC_6618943.JPG,,ISIC_3654454.JPG,ISIC_6618943.JPG,false,1,keypress(m),500,595641.200000003,595640.900000006,590822.911,590826.1000000089,590839.577,595656.051,8,400,15,,ISIC_3654454.JPG
break,html.Screen,4_114_1,2023-05-03T19:25:04.083Z,,0,,,NaN,,,,,,false,,,,595642,595641.700000003,,595641.400000006,,595656.051,8,400,,,
break_continue,html.Screen,4_114_2,2023-05-03T19:25:04.083Z,,0,,,NaN,,,,,,false,,,,595642.5,595642.3000000119,,595642.1000000089,,595656.051,8,400,,,
sequence,flow.Sequence,4_114,2023-05-03T19:25:04.083Z,,0,,,4802.7230000118725,completion,,,,,false,,,,595642.700000003,595642.3000000119,590822.911,590826.1000000089,590839.577,595656.051,8,400,,,
trial,html.Screen,4_115_0,2023-05-03T19:25:08.530Z,,0,3,,4433.149000003003,response,ISIC_0028696.JPG,,ISIC_0032951.JPG,ISIC_0032951.JPG,false,0,keypress(z),500,600089.5,600089.200000003,595639.385,595642.8000000119,595656.051,600105.873,8,400,16,,ISIC_0028696.JPG
break,html.Screen,4_115_1,2023-05-03T19:25:08.531Z,,0,,,NaN,,,,,,false,,,,600090.700000003,600090.3000000119,,600089.8000000119,,600105.873,8,400,,,
break_continue,html.Screen,4_115_2,2023-05-03T19:25:08.532Z,,0,,,NaN,,,,,,false,,,,600091.3000000119,600091.1000000089,,600090.8000000119,,600105.873,8,400,,,
sequence,flow.Sequence,4_115,2023-05-03T19:25:08.532Z,,0,,,4435.049000008963,completion,,,,,false,,,,600091.6000000089,600091.1000000089,595639.385,595642.8000000119,595656.051,600105.873,8,400,,,
trial,html.Screen,4_116_0,2023-05-03T19:25:11.500Z,,0,3,,2953.027000005939,response,ISIC_4446385.JPG,,ISIC_0032975.JPG,ISIC_0032975.JPG,false,0,keypress(z),500,603059.1000000089,603058.900000006,600089.207,600091.8000000119,600105.873,603072.768,8,400,17,,ISIC_4446385.JPG
break,html.Screen,4_116_1,2023-05-03T19:25:11.501Z,,0,,,NaN,,,,,,false,,,,603059.900000006,603059.6000000089,,603059.3000000119,,603072.768,8,400,,,
break_continue,html.Screen,4_116_2,2023-05-03T19:25:11.501Z,,0,,,NaN,,,,,,false,,,,603060.3000000119,603060.1000000089,,603060,,603072.768,8,400,,,
sequence,flow.Sequence,4_116,2023-05-03T19:25:11.501Z,,0,,,2954.2270000089193,completion,,,,,false,,,,603060.5,603060.1000000089,600089.207,600091.700000003,600105.873,603072.768,8,400,,,
trial,html.Screen,4_117_0,2023-05-03T19:25:15.972Z,,0,3,,4458.43200000294,response,ISIC_1076474.JPG,,ISIC_1676261.JPG,ISIC_1676261.JPG,false,0,keypress(z),500,607531.400000006,607531.200000003,603056.102,603060.700000003,603072.768,607539.256,8,400,18,,ISIC_1076474.JPG
break,html.Screen,4_117_1,2023-05-03T19:25:15.973Z,,0,,,NaN,,,,,,false,,,,607532.200000003,607531.900000006,,607531.6000000089,,607539.256,8,400,,,
break_continue,html.Screen,4_117_2,2023-05-03T19:25:15.973Z,,0,,,NaN,,,,,,false,,,,607532.6000000089,607532.400000006,,607532.3000000119,,607539.256,8,400,,,
sequence,flow.Sequence,4_117,2023-05-03T19:25:15.974Z,,0,,,4459.63200000592,completion,,,,,false,,,,607532.8000000119,607532.400000006,603056.102,603060.6000000089,603072.768,607539.256,8,400,,,
trial,html.Screen,4_118_0,2023-05-03T19:25:19.978Z,,0,3,,3997.243999999948,response,ISIC_0013610.JPG,,ISIC_0011797.JPG,ISIC_0013610.JPG,false,1,keypress(m),500,611536.8000000119,611536.5,607522.59,607532.900000006,607539.256,611539.096,8,400,19,,ISIC_0011797.JPG
break,html.Screen,4_118_1,2023-05-03T19:25:19.979Z,,0,,,NaN,,,,,,false,,,,611537.700000003,611537.3000000119,,611537,,611539.096,8,400,,,
break_continue,html.Screen,4_118_2,2023-05-03T19:25:19.979Z,,0,,,NaN,,,,,,false,,,,611538.1000000089,611538,,611537.900000006,,611539.096,8,400,,,
sequence,flow.Sequence,4_118,2023-05-03T19:25:19.979Z,,0,,,3998.743999999948,completion,,,,,false,,,,611538.400000006,611538,607522.59,607532.900000006,607539.256,611539.096,8,400,,,
trial,html.Screen,4_119_0,2023-05-03T19:25:28.209Z,,0,3,,8228.80400000594,response,ISIC_0029609.JPG,,ISIC_0028135.JPG,ISIC_0029609.JPG,false,1,keypress(m),500,619768.3000000119,619767.900000006,611522.43,611538.5,611539.096,619772.621,8,400,20,,ISIC_0028135.JPG
break,html.Screen,4_119_1,2023-05-03T19:25:28.210Z,,0,,,NaN,,,,,,false,,,,619769,619768.8000000119,,619768.6000000089,,619772.621,8,400,,,
break_continue,html.Screen,4_119_2,2023-05-03T19:25:28.211Z,,0,,,NaN,,,,,,false,,,,619769.5,619769.3000000119,,619769.200000003,,619772.621,8,400,,,
sequence,flow.Sequence,4_119,2023-05-03T19:25:28.211Z,,0,,,8230.204000011901,completion,,,,,false,,,,619769.8000000119,619769.3000000119,611522.43,611538.5,611539.096,619772.621,8,400,,,
trial,html.Screen,4_120_0,2023-05-03T19:25:32.330Z,,0,3,,4115.979000008898,response,ISIC_5273029.JPG,,ISIC_0011135.JPG,ISIC_5273029.JPG,false,1,keypress(m),500,623888.8000000119,623888.6000000089,619755.955,619770,619772.621,623889.612,8,400,21,,ISIC_0011135.JPG
break,html.Screen,4_120_1,2023-05-03T19:25:32.331Z,,0,,,NaN,,,,,,false,,,,623889.700000003,623889.400000006,,623889.1000000089,,623889.612,8,400,,,
break_continue,html.Screen,4_120_2,2023-05-03T19:25:32.331Z,,0,,,NaN,,,,,,false,,,,623890.200000003,623890,,623889.900000006,,623889.612,8,400,,,
sequence,flow.Sequence,4_120,2023-05-03T19:25:32.332Z,,0,,,4117.378999999957,completion,,,,,false,,,,623890.5,623890,619755.955,619769.8000000119,619772.621,623889.612,8,400,,,
trial,html.Screen,4_121_0,2023-05-03T19:25:37.780Z,,0,3,,5449.188000011956,response,ISIC_0056984.JPG,,ISIC_0025343.JPG,ISIC_0056984.JPG,false,1,keypress(m),500,629339.1000000089,629338.8000000119,623872.946,623890.700000003,623889.612,629356.06,8,400,22,,ISIC_0025343.JPG
break,html.Screen,4_121_1,2023-05-03T19:25:37.781Z,,0,,,NaN,,,,,,false,,,,629339.8000000119,629339.5,,629339.3000000119,,629356.06,8,400,,,
break_continue,html.Screen,4_121_2,2023-05-03T19:25:37.782Z,,0,,,NaN,,,,,,false,,,,629340.3000000119,629340.1000000089,,629340,,629356.06,8,400,,,
sequence,flow.Sequence,4_121,2023-05-03T19:25:37.782Z,,0,,,5450.488000008976,completion,,,,,false,,,,629340.5,629340.1000000089,623872.946,623890.6000000089,623889.612,629356.06,8,400,,,
trial,html.Screen,4_122_0,2023-05-03T19:25:41.523Z,,0,3,,3725.3400000059046,response,ISIC_9545819.JPG,,ISIC_0277705.JPG,ISIC_0277705.JPG,false,0,keypress(z),500,633081.6000000089,633081.400000006,629339.394,629340.700000003,629356.06,633089.244,8,400,23,,ISIC_9545819.JPG
break,html.Screen,4_122_1,2023-05-03T19:25:41.524Z,,0,,,NaN,,,,,,false,,,,633082.400000006,633082.1000000089,,633081.900000006,,633089.244,8,400,,,
break_continue,html.Screen,4_122_2,2023-05-03T19:25:41.524Z,,0,,,NaN,,,,,,false,,,,633082.900000006,633082.700000003,,633082.6000000089,,633089.244,8,400,,,
sequence,flow.Sequence,4_122,2023-05-03T19:25:41.524Z,,0,,,3726.6400000029244,completion,,,,,false,,,,633083.1000000089,633082.700000003,629339.394,629340.6000000089,629356.06,633089.244,8,400,,,
trial,html.Screen,4_123_0,2023-05-03T19:25:47.842Z,,0,3,,6311.356000008993,response,ISIC_0004558.JPG,,ISIC_0001923.JPG,ISIC_0004558.JPG,false,1,keypress(m),500,639400.8000000119,639400.6000000089,633072.578,633083.200000003,633089.244,639406.093,8,400,24,,ISIC_0001923.JPG
break,html.Screen,4_123_1,2023-05-03T19:25:47.843Z,,0,,,NaN,,,,,,false,,,,639401.5,639401.3000000119,,639401,,639406.093,8,400,,,
break_continue,html.Screen,4_123_2,2023-05-03T19:25:47.843Z,,0,,,NaN,,,,,,false,,,,639401.900000006,639401.8000000119,,639401.700000003,,639406.093,8,400,,,
sequence,flow.Sequence,4_123,2023-05-03T19:25:47.843Z,,0,,,6312.556000011973,completion,,,,,false,,,,639402.1000000089,639401.8000000119,633072.578,633083.200000003,633089.244,639406.093,8,400,,,
trial,html.Screen,4_124_0,2023-05-03T19:25:51.090Z,,0,3,,3242.507000008947,response,ISIC_4177450.JPG,,ISIC_1885174.JPG,ISIC_4177450.JPG,false,1,keypress(m),500,642648.900000006,642648.6000000089,639389.427,639402.3000000119,639406.093,642655.963,8,400,25,,ISIC_1885174.JPG
break,html.Screen,4_124_1,2023-05-03T19:25:51.091Z,,0,,,NaN,,,,,,false,,,,642649.700000003,642649.400000006,,642649.1000000089,,642655.963,8,400,,,
break_continue,html.Screen,4_124_2,2023-05-03T19:25:51.091Z,,0,,,NaN,,,,,,false,,,,642650.1000000089,642649.900000006,,642649.900000006,,642655.963,8,400,,,
sequence,flow.Sequence,4_124,2023-05-03T19:25:51.092Z,,0,,,3243.807000005967,completion,,,,,false,,,,642650.3000000119,642649.900000006,639389.427,639402.200000003,639406.093,642655.963,8,400,,,
trial,html.Screen,4_125_0,2023-05-03T19:25:55.683Z,,0,3,,4584.937000005972,response,ISIC_7462953.JPG,,ISIC_9667297.JPG,ISIC_7462953.JPG,false,1,keypress(m),500,647241.200000003,647240.900000006,642639.297,642650.5,642655.963,647256.188,8,400,26,,ISIC_9667297.JPG
break,html.Screen,4_125_1,2023-05-03T19:25:55.683Z,,0,,,NaN,,,,,,false,,,,647241.900000006,647241.6000000089,,647241.3000000119,,647256.188,8,400,,,
break_continue,html.Screen,4_125_2,2023-05-03T19:25:55.684Z,,0,,,NaN,,,,,,false,,,,647242.3000000119,647242.1000000089,,647242,,647256.188,8,400,,,
sequence,flow.Sequence,4_125,2023-05-03T19:25:55.684Z,,0,,,4586.137000008952,completion,,,,,false,,,,647242.5,647242.1000000089,642639.297,642650.400000006,642655.963,647256.188,8,400,,,
