sender,sender_type,sender_id,timestamp,meta,,blockNo,condition,duration,ended_on,img_left,img_reveal,img_right,loser,practice,response,response_action,selection_duration,time_commit,time_end,time_render,time_run,time_show,time_switch,total_blocks,total_trials,trialNo,url,winner
informed_consent,html.Screen,0,2023-10-31T18:37:18.557Z,"{""labjs_version"":""20.2.4"",""labjs_build"":{""flavor"":""production"",""commit"":""f5b4a49f956347addd546a832a3327688c2c0fef""},""location"":""https://run.pavlovia.org/MurrayBennett/melanoma-2afc/?participant=67400&platform=sona"",""userAgent"":""Mozilla/5.0 (X11; CrOS x86_64 14816.131.0) AppleWebKit/537.36 (KHTML, like Gecko) Chrome/103.0.0.0 Safari/537.36"",""platform"":""Linux x86_64"",""language"":""en-US"",""locale"":""en-US"",""timeZone"":""America/Chicago"",""timezoneOffset"":300,""screen_width"":1366,""screen_height"":768,""scroll_width"":1366,""scroll_height"":601,""window_innerWidth"":1366,""window_innerHeight"":649,""devicePixelRatio"":1}",,,,11713.223999997765,response,,,,,,consent,click button,,17571.5,17555.599999997765,880.566,3922.7999999970198,5842.376,17747.371,,,,"{""participant"":""67400"",""platform"":""sona""}",
Welcome,html.Screen,1,2023-10-31T18:38:16.128Z,,,,symmetry,57389.728999997766,response,,,,,,continue,click button,,75142.79999999702,75137.09999999776,17547.571,17572.29999999702,17747.371,75157.87,,,,,
trial,html.Screen,2_0_0,2023-10-31T18:38:22.249Z,,0,0,,6103.429999997024,response,ISIC_0069348.JPG,,ISIC_6997061.JPG,ISIC_0069348.JPG,true,1,keypress(m),500,81263.5,81261.29999999702,75124.57,75145,75157.87,81285.21,1,6,1,,ISIC_6997061.JPG
sequence,flow.Sequence,2_0,2023-10-31T18:38:22.253Z,,0,,,6103.429999997024,completion,,,,,true,,,,81267.29999999702,81261.29999999702,75124.57,75144.59999999776,75157.87,81285.21,1,6,,,
trial,html.Screen,2_1_0,2023-10-31T18:38:29.295Z,,0,0,,7022.1899999985035,response,ISIC_0057368.JPG,,ISIC_0009529.JPG,ISIC_0057368.JPG,true,1,keypress(m),500,88309.69999999925,88307.39999999851,81268.56,81269.09999999776,81285.21,88328.322,1,6,2,,ISIC_0009529.JPG
sequence,flow.Sequence,2_1,2023-10-31T18:38:29.298Z,,0,,,7022.1899999985035,completion,,,,,true,,,,88312.09999999776,88307.39999999851,81268.56,81268.59999999776,81285.21,88328.322,1,6,,,
trial,html.Screen,2_2_0,2023-10-31T18:38:37.167Z,,0,0,,7851.377999999255,response,ISIC_9758671.JPG,,ISIC_0064954.JPG,ISIC_9758671.JPG,true,1,keypress(m),500,96181.39999999851,96179.69999999925,88311.672,88313.59999999776,88328.322,96203.973,1,6,3,,ISIC_0064954.JPG
sequence,flow.Sequence,2_2,2023-10-31T18:38:37.170Z,,0,,,7851.377999999255,completion,,,,,true,,,,96184.19999999925,96179.69999999925,88311.672,88313.09999999776,88328.322,96203.973,1,6,,,
trial,html.Screen,2_3_0,2023-10-31T18:38:42.027Z,,0,0,,4835.426999998512,response,ISIC_0005785.JPG,,ISIC_0000080.JPG,ISIC_0005785.JPG,true,1,keypress(m),500,101041.29999999702,101039.39999999851,96187.311,96185.5,96203.973,101049.216,1,6,4,,ISIC_0000080.JPG
sequence,flow.Sequence,2_3,2023-10-31T18:38:42.030Z,,0,,,4835.426999998512,completion,,,,,true,,,,101044.19999999925,101039.39999999851,96187.311,96185.29999999702,96203.973,101049.216,1,6,,,
trial,html.Screen,2_4_0,2023-10-31T18:38:46.248Z,,0,0,,4211.083999997019,response,ISIC_5390060.JPG,,ISIC_7944028.JPG,ISIC_5390060.JPG,true,1,keypress(m),500,105262.5,105260.29999999702,101032.566,101046.19999999925,101049.216,105278.402,1,6,5,,ISIC_7944028.JPG
sequence,flow.Sequence,2_4,2023-10-31T18:38:46.251Z,,0,,,4211.083999997019,completion,,,,,true,,,,105265.79999999702,105260.29999999702,101032.566,101045.89999999851,101049.216,105278.402,1,6,,,
trial,html.Screen,2_5_0,2023-10-31T18:38:51.378Z,,0,0,,5112.097999999998,response,ISIC_0794216.JPG,,ISIC_0010188.JPG,ISIC_0010188.JPG,true,0,keypress(z),500,110392.5,110390.5,105261.752,105267.69999999925,105278.402,110406.716,1,6,6,,ISIC_0794216.JPG
sequence,flow.Sequence,2_5,2023-10-31T18:38:51.381Z,,0,,,5112.097999999998,completion,,,,,true,,,,110395.59999999776,110390.5,105261.752,105267.09999999776,105278.402,110406.716,1,6,,,
loop,flow.Loop,2,2023-10-31T18:38:51.384Z,,,,,35232.630000000005,completion,,,,,true,,,,110398.19999999925,110390.5,75124.57,75144.29999999702,75157.87,110406.716,1,6,,,
exp_instructions,html.Screen,3,2023-10-31T18:39:11.655Z,,,,,20252.08399999702,response,,,,,,continue,keypress(Space),,130669.09999999776,130658.79999999702,110390.066,110398.89999999851,110406.716,130686.711,,,,,
trial,html.Screen,4_0_0,2023-10-31T18:39:18.552Z,,0,1,,6878.488999999259,response,ISIC_5098778.JPG,4,ISIC_0032687.JPG,ISIC_5098778.JPG,false,1,keypress(m),500,137566.69999999925,137565.19999999925,130670.061,130671.19999999925,130686.711,137580.143,8,400,1,,ISIC_0032687.JPG
break,html.Screen,4_0_1,2023-10-31T18:39:18.557Z,,0,,,NaN,,,,,,false,,,,137571.8999999985,137571,,137568.5,,137580.143,8,400,,,
break_continue,html.Screen,4_0_2,2023-10-31T18:39:18.559Z,,0,,,NaN,,,,,,false,,,,137573.5,137572.8999999985,,137572.3999999985,,137580.143,8,400,,,
sequence,flow.Sequence,4_0,2023-10-31T18:39:18.560Z,,0,,,6886.188999998514,completion,,,,,false,,,,137574.19999999925,137572.8999999985,130670.061,130670.69999999925,130686.711,137580.143,8,400,,,
trial,html.Screen,4_1_0,2023-10-31T18:39:23.399Z,,0,1,,4831.156999997009,response,ISIC_0025343.JPG,4,ISIC_1681964.JPG,ISIC_1681964.JPG,false,0,keypress(z),500,142413.69999999925,142411.29999999702,137563.493,137574.59999999776,137580.143,142425.391,8,400,2,,ISIC_0025343.JPG
break,html.Screen,4_1_1,2023-10-31T18:39:23.404Z,,0,,,NaN,,,,,,false,,,,142418.8999999985,142417.29999999702,,142415.19999999925,,142425.391,8,400,,,
break_continue,html.Screen,4_1_2,2023-10-31T18:39:23.406Z,,0,,,NaN,,,,,,false,,,,142420.09999999776,142419.69999999925,,142419.29999999702,,142425.391,8,400,,,
sequence,flow.Sequence,4_1,2023-10-31T18:39:23.406Z,,0,,,4839.556999999244,completion,,,,,false,,,,142420.79999999702,142419.69999999925,137563.493,137574.5,137580.143,142425.391,8,400,,,
trial,html.Screen,4_2_0,2023-10-31T18:39:30.522Z,,0,1,,7109.608999999997,response,ISIC_0010046.JPG,5,ISIC_5895384.JPG,ISIC_0010046.JPG,false,1,keypress(m),500,149536.3999999985,149535,142408.741,142421.19999999925,142425.391,149551.757,8,400,3,,ISIC_5895384.JPG
break,html.Screen,4_2_1,2023-10-31T18:39:30.528Z,,0,,,NaN,,,,,,false,,,,149542.19999999925,149540.5,,149538.09999999776,,149551.757,8,400,,,
break_continue,html.Screen,4_2_2,2023-10-31T18:39:30.529Z,,0,,,NaN,,,,,,false,,,,149543.3999999985,149543.09999999776,,149542.69999999925,,149551.757,8,400,,,
sequence,flow.Sequence,4_2,2023-10-31T18:39:30.529Z,,0,,,7117.708999997762,completion,,,,,false,,,,149543.8999999985,149543.09999999776,142408.741,142421.09999999776,142425.391,149551.757,8,400,,,
trial,html.Screen,4_3_0,2023-10-31T18:39:35.404Z,,0,1,,4865.3429999977525,response,ISIC_0011924.JPG,5,ISIC_3378691.JPG,ISIC_3378691.JPG,false,0,keypress(z),500,154418.59999999776,154417.09999999776,149535.107,149544.29999999702,149551.757,154430.328,8,400,4,,ISIC_0011924.JPG
break,html.Screen,4_3_1,2023-10-31T18:39:35.408Z,,0,,,NaN,,,,,,false,,,,154422.5,154421.29999999702,,154419.69999999925,,154430.328,8,400,,,
break_continue,html.Screen,4_3_2,2023-10-31T18:39:35.411Z,,0,,,NaN,,,,,,false,,,,154425.29999999702,154424.29999999702,,154423.3999999985,,154430.328,8,400,,,
sequence,flow.Sequence,4_3,2023-10-31T18:39:35.412Z,,0,,,4872.542999997007,completion,,,,,false,,,,154426.8999999985,154424.29999999702,149535.107,149544.19999999925,149551.757,154430.328,8,400,,,
trial,html.Screen,4_4_0,2023-10-31T18:39:39.285Z,,0,1,,3868.0719999985013,response,ISIC_0765584.JPG,5,ISIC_0031642.JPG,ISIC_0031642.JPG,false,0,keypress(z),500,158299.79999999702,158298.3999999985,154413.678,154428.09999999776,154430.328,158309.857,8,400,5,,ISIC_0765584.JPG
break,html.Screen,4_4_1,2023-10-31T18:39:39.290Z,,0,,,NaN,,,,,,false,,,,158304.3999999985,158303.79999999702,,158301.3999999985,,158309.857,8,400,,,
break_continue,html.Screen,4_4_2,2023-10-31T18:39:39.291Z,,0,,,NaN,,,,,,false,,,,158305.59999999776,158305.19999999925,,158304.79999999702,,158309.857,8,400,,,
sequence,flow.Sequence,4_4,2023-10-31T18:39:39.292Z,,0,,,3874.8719999992463,completion,,,,,false,,,,158306.19999999925,158305.19999999925,154413.678,154427.69999999925,154430.328,158309.857,8,400,,,
trial,html.Screen,4_5_0,2023-10-31T18:39:46.745Z,,0,1,,7448.643000000011,response,ISIC_8650269.JPG,5,ISIC_4120174.JPG,ISIC_8650269.JPG,false,1,keypress(m),500,165759.79999999702,165758.5,158293.207,158306.69999999925,158309.857,165769.233,8,400,6,,ISIC_4120174.JPG
break,html.Screen,4_5_1,2023-10-31T18:39:46.749Z,,0,,,NaN,,,,,,false,,,,165763.09999999776,165762.09999999776,,165761,,165769.233,8,400,,,
break_continue,html.Screen,4_5_2,2023-10-31T18:39:46.751Z,,0,,,NaN,,,,,,false,,,,165765.29999999702,165764.3999999985,,165763.79999999702,,165769.233,8,400,,,
sequence,flow.Sequence,4_5,2023-10-31T18:39:46.752Z,,0,,,7454.542999998521,completion,,,,,false,,,,165766.3999999985,165764.3999999985,158293.207,158306.5,158309.857,165769.233,8,400,,,
trial,html.Screen,4_6_0,2023-10-31T18:39:51.052Z,,0,1,,4295.366999997757,response,ISIC_9024078.JPG,5,ISIC_0054134.JPG,ISIC_0054134.JPG,false,0,keypress(z),500,170066.09999999776,170064.59999999776,165752.583,165767.59999999776,165769.233,170081.669,8,400,7,,ISIC_9024078.JPG
break,html.Screen,4_6_1,2023-10-31T18:39:51.057Z,,0,,,NaN,,,,,,false,,,,170071.5,170069.59999999776,,170067.59999999776,,170081.669,8,400,,,
break_continue,html.Screen,4_6_2,2023-10-31T18:39:51.058Z,,0,,,NaN,,,,,,false,,,,170072.5,170072.09999999776,,170071.79999999702,,170081.669,8,400,,,
sequence,flow.Sequence,4_6,2023-10-31T18:39:51.059Z,,0,,,4302.866999997757,completion,,,,,false,,,,170073,170072.09999999776,165752.583,165767.29999999702,165769.233,170081.669,8,400,,,
trial,html.Screen,4_7_0,2023-10-31T18:39:54.560Z,,0,1,,3491.5309999992605,response,ISIC_0011696.JPG,5,ISIC_0024367.JPG,ISIC_0011696.JPG,false,1,keypress(m),500,173574.69999999925,173573.19999999925,170065.019,170073.3999999985,170081.669,173578.258,8,400,8,,ISIC_0024367.JPG
break,html.Screen,4_7_1,2023-10-31T18:39:54.564Z,,0,,,NaN,,,,,,false,,,,173578.59999999776,173577.29999999702,,173576.19999999925,,173578.258,8,400,,,
break_continue,html.Screen,4_7_2,2023-10-31T18:39:54.566Z,,0,,,NaN,,,,,,false,,,,173580.3999999985,173579.79999999702,,173579.19999999925,,173578.258,8,400,,,
sequence,flow.Sequence,4_7,2023-10-31T18:39:54.567Z,,0,,,3498.1309999970254,completion,,,,,false,,,,173581.3999999985,173579.79999999702,170065.019,170073.29999999702,170081.669,173578.258,8,400,,,
trial,html.Screen,4_8_0,2023-10-31T18:40:00.443Z,,0,1,,5877.841999997763,response,ISIC_9161341.JPG,5,ISIC_0069505.JPG,ISIC_9161341.JPG,false,1,keypress(m),500,179457.5,179456.09999999776,173561.608,173582.09999999776,173578.258,179472.493,8,400,9,,ISIC_0069505.JPG
break,html.Screen,4_8_1,2023-10-31T18:40:00.449Z,,0,,,NaN,,,,,,false,,,,179463.69999999925,179461.5,,179459.09999999776,,179472.493,8,400,,,
break_continue,html.Screen,4_8_2,2023-10-31T18:40:00.451Z,,0,,,NaN,,,,,,false,,,,179465.3999999985,179465,,179464.59999999776,,179472.493,8,400,,,
sequence,flow.Sequence,4_8,2023-10-31T18:40:00.451Z,,0,,,5886.741999999998,completion,,,,,false,,,,179465.8999999985,179465,173561.608,173582,173578.258,179472.493,8,400,,,
trial,html.Screen,4_9_0,2023-10-31T18:40:04.497Z,,0,1,,4038.2069999992673,response,ISIC_7306535.JPG,4,ISIC_8153123.JPG,ISIC_8153123.JPG,false,0,keypress(z),500,183511.3999999985,183510.69999999925,179455.843,179466.29999999702,179472.493,183535.184,8,400,10,,ISIC_7306535.JPG
break,html.Screen,4_9_1,2023-10-31T18:40:04.499Z,,0,,,NaN,,,,,,false,,,,183513.69999999925,183513,,183512.09999999776,,183535.184,8,400,,,
break_continue,html.Screen,4_9_2,2023-10-31T18:40:04.501Z,,0,,,NaN,,,,,,false,,,,183515.19999999925,183514.69999999925,,183514.19999999925,,183535.184,8,400,,,
sequence,flow.Sequence,4_9,2023-10-31T18:40:04.502Z,,0,,,4042.2069999992673,completion,,,,,false,,,,183516,183514.69999999925,179455.843,179466.19999999925,179472.493,183535.184,8,400,,,
trial,html.Screen,4_10_0,2023-10-31T18:40:07.501Z,,0,1,,2978.8159999999916,response,ISIC_9332795.JPG,4,ISIC_0011095.JPG,ISIC_0011095.JPG,false,0,keypress(z),500,186515.3999999985,186514,183518.534,183516.59999999776,183535.184,186532.239,8,400,11,,ISIC_9332795.JPG
break,html.Screen,4_10_1,2023-10-31T18:40:07.506Z,,0,,,NaN,,,,,,false,,,,186520.09999999776,186518.79999999702,,186517.3999999985,,186532.239,8,400,,,
break_continue,html.Screen,4_10_2,2023-10-31T18:40:07.508Z,,0,,,NaN,,,,,,false,,,,186522,186521.3999999985,,186520.69999999925,,186532.239,8,400,,,
sequence,flow.Sequence,4_10,2023-10-31T18:40:07.509Z,,0,,,2986.2159999985015,completion,,,,,false,,,,186523.09999999776,186521.3999999985,183518.534,183516.3999999985,183535.184,186532.239,8,400,,,
trial,html.Screen,4_11_0,2023-10-31T18:40:11.848Z,,0,1,,4329.060999997018,response,ISIC_3487151.JPG,6,ISIC_0029433.JPG,ISIC_0029433.JPG,false,0,keypress(z),500,190862.69999999925,190861.29999999702,186515.589,186523.69999999925,186532.239,190877.985,8,400,12,,ISIC_3487151.JPG
break,html.Screen,4_11_1,2023-10-31T18:40:11.853Z,,0,,,NaN,,,,,,false,,,,190867.79999999702,190866.29999999702,,190864.29999999702,,190877.985,8,400,,,
break_continue,html.Screen,4_11_2,2023-10-31T18:40:11.857Z,,0,,,NaN,,,,,,false,,,,190871.29999999702,190870.09999999776,,190869,,190877.985,8,400,,,
sequence,flow.Sequence,4_11,2023-10-31T18:40:11.857Z,,0,,,4337.860999997763,completion,,,,,false,,,,190871.8999999985,190870.09999999776,186515.589,186523.5,186532.239,190877.985,8,400,,,
trial,html.Screen,4_12_0,2023-10-31T18:40:15.071Z,,0,1,,3206.114999997779,response,ISIC_9568327.JPG,5,ISIC_0072730.JPG,ISIC_0072730.JPG,false,0,keypress(z),500,194085.3999999985,194084.09999999776,190861.335,190872.19999999925,190877.985,194091.528,8,400,13,,ISIC_9568327.JPG
break,html.Screen,4_12_1,2023-10-31T18:40:15.075Z,,0,,,NaN,,,,,,false,,,,194089.3999999985,194088.69999999925,,194087.09999999776,,194091.528,8,400,,,
break_continue,html.Screen,4_12_2,2023-10-31T18:40:15.076Z,,0,,,NaN,,,,,,false,,,,194090.79999999702,194090.29999999702,,194089.8999999985,,194091.528,8,400,,,
sequence,flow.Sequence,4_12,2023-10-31T18:40:15.077Z,,0,,,3212.3149999970337,completion,,,,,false,,,,194091.3999999985,194090.29999999702,190861.335,190872.09999999776,190877.985,194091.528,8,400,,,
trial,html.Screen,4_13_0,2023-10-31T18:40:19.339Z,,0,1,,4260.472000000009,response,ISIC_0046664.JPG,6,ISIC_8885809.JPG,ISIC_8885809.JPG,false,0,keypress(z),500,198353.3999999985,198352,194074.878,194092,194091.528,198370.67,8,400,14,,ISIC_0046664.JPG
break,html.Screen,4_13_1,2023-10-31T18:40:19.344Z,,0,,,NaN,,,,,,false,,,,198358.29999999702,198356.69999999925,,198354.8999999985,,198370.67,8,400,,,
break_continue,html.Screen,4_13_2,2023-10-31T18:40:19.345Z,,0,,,NaN,,,,,,false,,,,198359.59999999776,198359.19999999925,,198358.79999999702,,198370.67,8,400,,,
sequence,flow.Sequence,4_13,2023-10-31T18:40:19.346Z,,0,,,4267.671999999264,completion,,,,,false,,,,198360.19999999925,198359.19999999925,194074.878,194091.8999999985,194091.528,198370.67,8,400,,,
trial,html.Screen,4_14_0,2023-10-31T18:40:22.397Z,,0,1,,3039.929999997752,response,ISIC_3837132.JPG,5,ISIC_3541663.JPG,ISIC_3837132.JPG,false,1,keypress(m),500,201411.8999999985,201410.59999999776,198354.02,198360.59999999776,198370.67,201417.679,8,400,15,,ISIC_3541663.JPG
break,html.Screen,4_14_1,2023-10-31T18:40:22.403Z,,0,,,NaN,,,,,,false,,,,201417.29999999702,201415.5,,201413.3999999985,,201417.679,8,400,,,
break_continue,html.Screen,4_14_2,2023-10-31T18:40:22.406Z,,0,,,NaN,,,,,,false,,,,201420.8999999985,201419.59999999776,,201418.69999999925,,201417.679,8,400,,,
sequence,flow.Sequence,4_14,2023-10-31T18:40:22.407Z,,0,,,3048.929999997752,completion,,,,,false,,,,201421.69999999925,201419.59999999776,198354.02,198360.5,198370.67,201417.679,8,400,,,
trial,html.Screen,4_15_0,2023-10-31T18:40:26.972Z,,0,1,,4567.820999999996,response,ISIC_0064625.JPG,5,ISIC_0070032.JPG,ISIC_0070032.JPG,false,0,keypress(z),500,205986.8999999985,205985.5,201401.029,201422.09999999776,201417.679,205996.527,8,400,16,,ISIC_0064625.JPG
break,html.Screen,4_15_1,2023-10-31T18:40:26.978Z,,0,,,NaN,,,,,,false,,,,205992.79999999702,205990.8999999985,,205988.5,,205996.527,8,400,,,
break_continue,html.Screen,4_15_2,2023-10-31T18:40:26.981Z,,0,,,NaN,,,,,,false,,,,205995.09999999776,205994.69999999925,,205994.09999999776,,205996.527,8,400,,,
sequence,flow.Sequence,4_15,2023-10-31T18:40:26.981Z,,0,,,4577.020999999251,completion,,,,,false,,,,205995.69999999925,205994.69999999925,201401.029,201422,201417.679,205996.527,8,400,,,
trial,html.Screen,4_16_0,2023-10-31T18:40:38.474Z,,0,1,,11521.850000000006,timeout,ISIC_0296109.JPG,5,ISIC_0060091.JPG,,false,,,500,217488.19999999925,217486.3999999985,205979.877,205996.09999999776,205996.527,217518.377,8,400,17,,
break,html.Screen,4_16_1,2023-10-31T18:40:38.478Z,,0,,,NaN,,,,,,false,,,,217492.8999999985,217491.29999999702,,217489.5,,217518.377,8,400,,,
break_continue,html.Screen,4_16_2,2023-10-31T18:40:38.482Z,,0,,,NaN,,,,,,false,,,,217496.3999999985,217495.19999999925,,217494.19999999925,,217518.377,8,400,,,
sequence,flow.Sequence,4_16,2023-10-31T18:40:38.482Z,,0,,,11498.672999999253,completion,,,,,false,,,,217496.8999999985,217495.19999999925,205979.877,205996,205996.527,217518.377,8,400,,,
trial,html.Screen,4_17_0,2023-10-31T18:40:46.653Z,,0,1,,8148.022999998502,response,ISIC_0027921.JPG,5,ISIC_9944671.JPG,ISIC_0027921.JPG,false,1,keypress(m),500,225667.79999999702,225666.3999999985,217501.727,217497.19999999925,217518.377,225677.288,8,400,18,,ISIC_9944671.JPG
break,html.Screen,4_17_1,2023-10-31T18:40:46.659Z,,0,,,NaN,,,,,,false,,,,225673.29999999702,225671.59999999776,,225669.5,,225677.288,8,400,,,
break_continue,html.Screen,4_17_2,2023-10-31T18:40:46.661Z,,0,,,NaN,,,,,,false,,,,225675.19999999925,225674.79999999702,,225674.3999999985,,225677.288,8,400,,,
sequence,flow.Sequence,4_17,2023-10-31T18:40:46.661Z,,0,,,8156.422999997012,completion,,,,,false,,,,225675.8999999985,225674.79999999702,217501.727,217497.19999999925,217518.377,225677.288,8,400,,,
trial,html.Screen,4_18_0,2023-10-31T18:40:50.387Z,,0,1,,3722.5119999970193,response,ISIC_2328829.JPG,5,ISIC_8009880.JPG,ISIC_8009880.JPG,false,0,keypress(z),500,229401.29999999702,229399.79999999702,225660.638,225676.29999999702,225677.288,229406.957,8,400,19,,ISIC_2328829.JPG
break,html.Screen,4_18_1,2023-10-31T18:40:50.392Z,,0,,,NaN,,,,,,false,,,,229406.59999999776,229404.79999999702,,229402.8999999985,,229406.957,8,400,,,
break_continue,html.Screen,4_18_2,2023-10-31T18:40:50.393Z,,0,,,NaN,,,,,,false,,,,229408,229407.5,,229407,,229406.957,8,400,,,
sequence,flow.Sequence,4_18,2023-10-31T18:40:50.394Z,,0,,,3730.2119999999995,completion,,,,,false,,,,229409,229407.5,225660.638,225676.19999999925,225677.288,229406.957,8,400,,,
trial,html.Screen,4_19_0,2023-10-31T18:40:56.323Z,,0,1,,5928.74299999926,response,ISIC_2279679.JPG,5,ISIC_0169604.JPG,ISIC_0169604.JPG,false,0,keypress(z),500,235337.19999999925,235335.69999999925,229390.307,229409.5,229406.957,235351.16,8,400,20,,ISIC_2279679.JPG
break,html.Screen,4_19_1,2023-10-31T18:40:56.330Z,,0,,,NaN,,,,,,false,,,,235344.8999999985,235343.79999999702,,235342.69999999925,,235351.16,8,400,,,
break_continue,html.Screen,4_19_2,2023-10-31T18:40:56.332Z,,0,,,NaN,,,,,,false,,,,235346.29999999702,235345.8999999985,,235345.3999999985,,235351.16,8,400,,,
sequence,flow.Sequence,4_19,2023-10-31T18:40:56.333Z,,0,,,5938.942999998515,completion,,,,,false,,,,235347.09999999776,235345.8999999985,229390.307,229409.3999999985,229406.957,235351.16,8,400,,,
trial,html.Screen,4_20_0,2023-10-31T18:41:02.531Z,,0,1,,6193.8399999999965,response,ISIC_0028886.JPG,5,ISIC_4718237.JPG,ISIC_0028886.JPG,false,1,keypress(m),500,241545.5,241545,235334.51,235347.5,235351.16,241561.733,8,400,21,,ISIC_4718237.JPG
break,html.Screen,4_20_1,2023-10-31T18:41:02.533Z,,0,,,NaN,,,,,,false,,,,241547.3999999985,241546.79999999702,,241546,,241561.733,8,400,,,
break_continue,html.Screen,4_20_2,2023-10-31T18:41:02.534Z,,0,,,NaN,,,,,,false,,,,241548.69999999925,241548.19999999925,,241547.8999999985,,241561.733,8,400,,,
sequence,flow.Sequence,4_20,2023-10-31T18:41:02.535Z,,0,,,6197.039999999251,completion,,,,,false,,,,241549.3999999985,241548.19999999925,235334.51,235347.3999999985,235351.16,241561.733,8,400,,,
trial,html.Screen,4_21_0,2023-10-31T18:41:07.857Z,,0,1,,5309.066999997012,response,ISIC_0030129.JPG,5,ISIC_0066105.JPG,ISIC_0066105.JPG,false,0,keypress(z),500,246871.59999999776,246870.79999999702,241545.083,241549.8999999985,241561.733,246889.867,8,400,22,,ISIC_0030129.JPG
break,html.Screen,4_21_1,2023-10-31T18:41:07.860Z,,0,,,NaN,,,,,,false,,,,246874.19999999925,246873.3999999985,,246872.3999999985,,246889.867,8,400,,,
break_continue,html.Screen,4_21_2,2023-10-31T18:41:07.862Z,,0,,,NaN,,,,,,false,,,,246876.09999999776,246875.29999999702,,246874.79999999702,,246889.867,8,400,,,
sequence,flow.Sequence,4_21,2023-10-31T18:41:07.862Z,,0,,,5313.566999997012,completion,,,,,false,,,,246877,246875.29999999702,241545.083,241549.79999999702,241561.733,246889.867,8,400,,,
trial,html.Screen,4_22_0,2023-10-31T18:41:12.220Z,,0,1,,4343.2329999977665,response,ISIC_0064463.JPG,5,ISIC_0025546.JPG,ISIC_0064463.JPG,false,1,keypress(m),500,251234.59999999776,251233.09999999776,246873.217,246877.69999999925,246889.867,251252.251,8,400,23,,ISIC_0025546.JPG
break,html.Screen,4_22_1,2023-10-31T18:41:12.225Z,,0,,,NaN,,,,,,false,,,,251239.8999999985,251238.69999999925,,251236.19999999925,,251252.251,8,400,,,
break_continue,html.Screen,4_22_2,2023-10-31T18:41:12.227Z,,0,,,NaN,,,,,,false,,,,251241,251240.59999999776,,251240.29999999702,,251252.251,8,400,,,
sequence,flow.Sequence,4_22,2023-10-31T18:41:12.227Z,,0,,,4350.7329999977665,completion,,,,,false,,,,251241.5,251240.59999999776,246873.217,246877.5,246889.867,251252.251,8,400,,,
trial,html.Screen,4_23_0,2023-10-31T18:41:15.990Z,,0,1,,3751.1489999985206,response,ISIC_0069635.JPG,5,ISIC_4641968.JPG,ISIC_0069635.JPG,false,1,keypress(m),500,255004.79999999702,255003.3999999985,251235.601,251241.8999999985,251252.251,255015.245,8,400,24,,ISIC_4641968.JPG
break,html.Screen,4_23_1,2023-10-31T18:41:15.996Z,,0,,,NaN,,,,,,false,,,,255010.29999999702,255008.69999999925,,255006.29999999702,,255015.245,8,400,,,
break_continue,html.Screen,4_23_2,2023-10-31T18:41:15.999Z,,0,,,NaN,,,,,,false,,,,255013.5,255012.5,,255011.5,,255015.245,8,400,,,
sequence,flow.Sequence,4_23,2023-10-31T18:41:15.999Z,,0,,,3760.2490000000107,completion,,,,,false,,,,255014,255012.5,251235.601,251241.69999999925,251252.251,255015.245,8,400,,,
trial,html.Screen,4_24_0,2023-10-31T18:41:19.695Z,,0,1,,3693.2550000000047,response,ISIC_0010761.JPG,4,ISIC_8624186.JPG,ISIC_8624186.JPG,false,0,keypress(z),500,258709.8999999985,258708.5,254998.595,255014.29999999702,255015.245,258728.272,8,400,25,,ISIC_0010761.JPG
break,html.Screen,4_24_1,2023-10-31T18:41:19.701Z,,0,,,NaN,,,,,,false,,,,258715.5,258714,,258711.5,,258728.272,8,400,,,
break_continue,html.Screen,4_24_2,2023-10-31T18:41:19.705Z,,0,,,NaN,,,,,,false,,,,258719,258717.69999999925,,258716.69999999925,,258728.272,8,400,,,
sequence,flow.Sequence,4_24,2023-10-31T18:41:19.705Z,,0,,,3702.4549999992596,completion,,,,,false,,,,258719.69999999925,258717.69999999925,254998.595,255014.19999999925,255015.245,258728.272,8,400,,,
trial,html.Screen,4_25_0,2023-10-31T18:41:24.636Z,,0,1,,4920.927999999258,response,ISIC_0033905.JPG,5,ISIC_2341100.JPG,ISIC_0033905.JPG,false,1,keypress(m),500,263650.299999997,263649.19999999925,258711.622,258720.09999999776,258728.272,263656.783,8,400,26,,ISIC_2341100.JPG
break,html.Screen,4_25_1,2023-10-31T18:41:24.640Z,,0,,,NaN,,,,,,false,,,,263654,263653,,263651.3999999985,,263656.783,8,400,,,
break_continue,html.Screen,4_25_2,2023-10-31T18:41:24.642Z,,0,,,NaN,,,,,,false,,,,263656.5,263655.69999999925,,263654.799999997,,263656.783,8,400,,,
sequence,flow.Sequence,4_25,2023-10-31T18:41:24.643Z,,0,,,4927.427999999258,completion,,,,,false,,,,263657,263655.69999999925,258711.622,258720,258728.272,263656.783,8,400,,,
trial,html.Screen,4_26_0,2023-10-31T18:41:28.606Z,,0,1,,3961.717000000004,response,ISIC_1077375.JPG,5,ISIC_8398000.JPG,ISIC_1077375.JPG,false,1,keypress(m),500,267620,267618.5,263640.133,263657.5,263656.783,267636.228,8,400,27,,ISIC_8398000.JPG
break,html.Screen,4_26_1,2023-10-31T18:41:28.611Z,,0,,,NaN,,,,,,false,,,,267625,267623.5,,267621.59999999776,,267636.228,8,400,,,
break_continue,html.Screen,4_26_2,2023-10-31T18:41:28.614Z,,0,,,NaN,,,,,,false,,,,267628.5,267627.299999997,,267626.299999997,,267636.228,8,400,,,
sequence,flow.Sequence,4_26,2023-10-31T18:41:28.615Z,,0,,,3970.516999997024,completion,,,,,false,,,,267629.59999999776,267627.299999997,263640.133,263657.299999997,263656.783,267636.228,8,400,,,
trial,html.Screen,4_27_0,2023-10-31T18:41:32.075Z,,0,1,,3452.071999997017,response,ISIC_6250970.JPG,5,ISIC_0010792.JPG,ISIC_0010792.JPG,false,0,keypress(z),500,271089.69999999925,271088.299999997,267619.578,267630,267636.228,271099.508,8,400,28,,ISIC_6250970.JPG
break,html.Screen,4_27_1,2023-10-31T18:41:32.080Z,,0,,,NaN,,,,,,false,,,,271094.59999999776,271093.59999999776,,271091.299999997,,271099.508,8,400,,,
break_continue,html.Screen,4_27_2,2023-10-31T18:41:32.081Z,,0,,,NaN,,,,,,false,,,,271095.69999999925,271095.3999999985,,271095.09999999776,,271099.508,8,400,,,
sequence,flow.Sequence,4_27,2023-10-31T18:41:32.082Z,,0,,,3459.171999998507,completion,,,,,false,,,,271096.299999997,271095.3999999985,267619.578,267629.8999999985,267636.228,271099.508,8,400,,,
trial,html.Screen,4_28_0,2023-10-31T18:41:36.359Z,,0,1,,4272.291999997047,response,ISIC_0032925.JPG,5,ISIC_8755163.JPG,ISIC_8755163.JPG,false,0,keypress(z),500,275373.19999999925,275371.799999997,271082.858,271096.69999999925,271099.508,275378.651,8,400,29,,ISIC_0032925.JPG
break,html.Screen,4_28_1,2023-10-31T18:41:36.365Z,,0,,,NaN,,,,,,false,,,,275379.3999999985,275377.799999997,,275374.69999999925,,275378.651,8,400,,,
break_continue,html.Screen,4_28_2,2023-10-31T18:41:36.367Z,,0,,,NaN,,,,,,false,,,,275381,275380.59999999776,,275380.19999999925,,275378.651,8,400,,,
sequence,flow.Sequence,4_28,2023-10-31T18:41:36.367Z,,0,,,4281.091999997792,completion,,,,,false,,,,275381.5,275380.59999999776,271082.858,271096.59999999776,271099.508,275378.651,8,400,,,
trial,html.Screen,4_29_0,2023-10-31T18:41:40.732Z,,0,1,,4366.248999998497,response,ISIC_3571523.JPG,5,ISIC_0062161.JPG,ISIC_3571523.JPG,false,1,keypress(m),500,279746.5,279744.8999999985,275362.001,275381.8999999985,275378.651,279757.698,8,400,30,,ISIC_0062161.JPG
break,html.Screen,4_29_1,2023-10-31T18:41:40.736Z,,0,,,NaN,,,,,,false,,,,279750.799999997,279749.19999999925,,279747.799999997,,279757.698,8,400,,,
break_continue,html.Screen,4_29_2,2023-10-31T18:41:40.739Z,,0,,,NaN,,,,,,false,,,,279753.299999997,279752.3999999985,,279751.69999999925,,279757.698,8,400,,,
sequence,flow.Sequence,4_29,2023-10-31T18:41:40.740Z,,0,,,4373.748999998497,completion,,,,,false,,,,279754.59999999776,279752.3999999985,275362.001,275381.69999999925,275378.651,279757.698,8,400,,,
trial,html.Screen,4_30_0,2023-10-31T18:41:44.750Z,,0,1,,4004.90199999779,response,ISIC_0650126.JPG,5,ISIC_0030957.JPG,ISIC_0650126.JPG,false,1,keypress(m),500,283764,283762.59999999776,279741.048,279755.59999999776,279757.698,283770.443,8,400,31,,ISIC_0030957.JPG
break,html.Screen,4_30_1,2023-10-31T18:41:44.753Z,,0,,,NaN,,,,,,false,,,,283767.3999999985,283766.59999999776,,283765.3999999985,,283770.443,8,400,,,
break_continue,html.Screen,4_30_2,2023-10-31T18:41:44.755Z,,0,,,NaN,,,,,,false,,,,283769.299999997,283768.59999999776,,283768,,283770.443,8,400,,,
sequence,flow.Sequence,4_30,2023-10-31T18:41:44.756Z,,0,,,4010.90199999779,completion,,,,,false,,,,283770.19999999925,283768.59999999776,279741.048,279755.299999997,279757.698,283770.443,8,400,,,
trial,html.Screen,4_31_0,2023-10-31T18:41:48.859Z,,0,1,,4101.556999999972,response,ISIC_1910158.JPG,4,ISIC_0032828.JPG,ISIC_0032828.JPG,false,0,keypress(z),500,287873.3999999985,287872,283753.793,283771,283770.443,287883.084,8,400,32,,ISIC_1910158.JPG
break,html.Screen,4_31_1,2023-10-31T18:41:48.863Z,,0,,,NaN,,,,,,false,,,,287877.799999997,287877,,287875,,287883.084,8,400,,,
break_continue,html.Screen,4_31_2,2023-10-31T18:41:48.865Z,,0,,,NaN,,,,,,false,,,,287879.09999999776,287878.69999999925,,287878.299999997,,287883.084,8,400,,,
sequence,flow.Sequence,4_31,2023-10-31T18:41:48.865Z,,0,,,4108.2569999992265,completion,,,,,false,,,,287879.69999999925,287878.69999999925,283753.793,283770.799999997,283770.443,287883.084,8,400,,,
trial,html.Screen,4_32_0,2023-10-31T18:41:53.527Z,,0,1,,4656.515999997791,response,ISIC_1330008.JPG,4,ISIC_0059551.JPG,ISIC_0059551.JPG,false,0,keypress(z),500,292541.19999999925,292539.59999999776,287866.434,287880.09999999776,287883.084,292561.84,8,400,33,,ISIC_1330008.JPG
break,html.Screen,4_32_1,2023-10-31T18:41:53.532Z,,0,,,NaN,,,,,,false,,,,292546.69999999925,292544.5,,292542.299999997,,292561.84,8,400,,,
break_continue,html.Screen,4_32_2,2023-10-31T18:41:53.535Z,,0,,,NaN,,,,,,false,,,,292549.59999999776,292548.5,,292547.69999999925,,292561.84,8,400,,,
sequence,flow.Sequence,4_32,2023-10-31T18:41:53.537Z,,0,,,4665.4160000000265,completion,,,,,false,,,,292551.09999999776,292548.5,287866.434,287879.8999999985,287883.084,292561.84,8,400,,,
trial,html.Screen,4_33_0,2023-10-31T18:41:57.081Z,,0,1,,3532.3599999992293,response,ISIC_0030695.JPG,5,ISIC_4108397.JPG,ISIC_0030695.JPG,false,1,keypress(m),500,296095.5,296094.19999999925,292528.54,292552.299999997,292561.84,296108.369,8,400,34,,ISIC_4108397.JPG
break,html.Screen,4_33_1,2023-10-31T18:41:57.085Z,,0,,,NaN,,,,,,false,,,,296099.799999997,296098.799999997,,296097,,296108.369,8,400,,,
break_continue,html.Screen,4_33_2,2023-10-31T18:41:57.087Z,,0,,,NaN,,,,,,false,,,,296101.59999999776,296101,,296100.5,,296108.369,8,400,,,
sequence,flow.Sequence,4_33,2023-10-31T18:41:57.089Z,,0,,,3539.1599999999744,completion,,,,,false,,,,296103.299999997,296101,292528.54,292551.8999999985,292561.84,296108.369,8,400,,,
trial,html.Screen,4_34_0,2023-10-31T18:42:04.823Z,,0,1,,7728.130999999994,response,ISIC_9303594.JPG,5,ISIC_8627293.JPG,ISIC_9303594.JPG,false,1,keypress(m),500,303837.69999999925,303836.5,296091.719,296104,296108.369,303850.796,8,400,35,,ISIC_8627293.JPG
break,html.Screen,4_34_1,2023-10-31T18:42:04.828Z,,0,,,NaN,,,,,,false,,,,303842.5,303841,,303838.799999997,,303850.796,8,400,,,
break_continue,html.Screen,4_34_2,2023-10-31T18:42:04.831Z,,0,,,NaN,,,,,,false,,,,303845.299999997,303844.299999997,,303843.5,,303850.796,8,400,,,
sequence,flow.Sequence,4_34,2023-10-31T18:42:04.832Z,,0,,,7735.930999997014,completion,,,,,false,,,,303846.69999999925,303844.299999997,296091.719,296103.799999997,296108.369,303850.796,8,400,,,
trial,html.Screen,4_35_0,2023-10-31T18:42:08.294Z,,0,1,,3456.704000000027,response,ISIC_5772938.JPG,5,ISIC_0026509.JPG,ISIC_5772938.JPG,false,1,keypress(m),500,307308.799999997,307307.5,303834.146,303847.69999999925,303850.796,307314.071,8,400,36,,ISIC_0026509.JPG
break,html.Screen,4_35_1,2023-10-31T18:42:08.299Z,,0,,,NaN,,,,,,false,,,,307313.799999997,307312.3999999985,,307310.5,,307314.071,8,400,,,
break_continue,html.Screen,4_35_2,2023-10-31T18:42:08.301Z,,0,,,NaN,,,,,,false,,,,307315.3999999985,307315,,307314.59999999776,,307314.071,8,400,,,
sequence,flow.Sequence,4_35,2023-10-31T18:42:08.301Z,,0,,,3464.204000000027,completion,,,,,false,,,,307315.8999999985,307315,303834.146,303847.3999999985,303850.796,307314.071,8,400,,,
trial,html.Screen,4_36_0,2023-10-31T18:42:12.204Z,,0,1,,3903.2289999970235,response,ISIC_7826557.JPG,5,ISIC_0005681.JPG,ISIC_0005681.JPG,false,0,keypress(z),500,311218.59999999776,311217.299999997,307297.421,307316.299999997,307314.071,311226.907,8,400,37,,ISIC_7826557.JPG
break,html.Screen,4_36_1,2023-10-31T18:42:12.209Z,,0,,,NaN,,,,,,false,,,,311223,311221.799999997,,311219.69999999925,,311226.907,8,400,,,
break_continue,html.Screen,4_36_2,2023-10-31T18:42:12.211Z,,0,,,NaN,,,,,,false,,,,311225.59999999776,311224.59999999776,,311223.799999997,,311226.907,8,400,,,
sequence,flow.Sequence,4_36,2023-10-31T18:42:12.213Z,,0,,,3910.5289999977686,completion,,,,,false,,,,311227.09999999776,311224.59999999776,307297.421,307316.09999999776,307314.071,311226.907,8,400,,,
trial,html.Screen,4_37_0,2023-10-31T18:42:15.906Z,,0,1,,3692.1929999977583,response,ISIC_0058768.JPG,5,ISIC_0031821.JPG,ISIC_0058768.JPG,false,1,keypress(m),500,314920.5,314919.09999999776,311210.257,311228.19999999925,311226.907,314939.947,8,400,38,,ISIC_0031821.JPG
break,html.Screen,4_37_1,2023-10-31T18:42:15.910Z,,0,,,NaN,,,,,,false,,,,314924.799999997,314923.8999999985,,314921.59999999776,,314939.947,8,400,,,
break_continue,html.Screen,4_37_2,2023-10-31T18:42:15.913Z,,0,,,NaN,,,,,,false,,,,314927.19999999925,314926.3999999985,,314925.59999999776,,314939.947,8,400,,,
sequence,flow.Sequence,4_37,2023-10-31T18:42:15.914Z,,0,,,3699.4929999985034,completion,,,,,false,,,,314928.3999999985,314926.3999999985,311210.257,311227.799999997,311226.907,314939.947,8,400,,,
trial,html.Screen,4_38_0,2023-10-31T18:42:21.964Z,,0,1,,6037.053000000014,response,ISIC_9203914.JPG,6,ISIC_0058177.JPG,ISIC_0058177.JPG,false,0,keypress(z),500,320978.3999999985,320977,314923.297,314929.299999997,314939.947,320984.034,8,400,39,,ISIC_9203914.JPG
break,html.Screen,4_38_1,2023-10-31T18:42:21.968Z,,0,,,NaN,,,,,,false,,,,320982.19999999925,320981.5,,320979.8999999985,,320984.034,8,400,,,
break_continue,html.Screen,4_38_2,2023-10-31T18:42:21.969Z,,0,,,NaN,,,,,,false,,,,320983.69999999925,320983.19999999925,,320982.69999999925,,320984.034,8,400,,,
sequence,flow.Sequence,4_38,2023-10-31T18:42:21.970Z,,0,,,6043.252999999269,completion,,,,,false,,,,320984.59999999776,320983.19999999925,314923.297,314929.09999999776,314939.947,320984.034,8,400,,,
trial,html.Screen,4_39_0,2023-10-31T18:42:29.931Z,,0,1,,7960.56599999778,response,ISIC_5848892.JPG,5,ISIC_6330529.JPG,ISIC_5848892.JPG,false,1,keypress(m),500,328946,328944.59999999776,320967.384,320985.19999999925,320984.034,328959.577,8,400,40,,ISIC_6330529.JPG
break,html.Screen,4_39_1,2023-10-31T18:42:29.934Z,,0,,,NaN,,,,,,false,,,,328948.69999999925,328947.799999997,,328946.799999997,,328959.577,8,400,,,
break_continue,html.Screen,4_39_2,2023-10-31T18:42:29.936Z,,0,,,NaN,,,,,,false,,,,328950.3999999985,328949.69999999925,,328949.19999999925,,328959.577,8,400,,,
sequence,flow.Sequence,4_39,2023-10-31T18:42:29.937Z,,0,,,7965.66599999927,completion,,,,,false,,,,328951.299999997,328949.69999999925,320967.384,320985.09999999776,320984.034,328959.577,8,400,,,
trial,html.Screen,4_40_0,2023-10-31T18:42:40.086Z,,0,1,,10139.32299999852,response,ISIC_0069669.JPG,6,ISIC_4130478.JPG,ISIC_0069669.JPG,false,1,keypress(m),500,339100.3999999985,339098.8999999985,328942.927,328952.09999999776,328959.577,339116.287,8,400,41,,ISIC_4130478.JPG
break,html.Screen,4_40_1,2023-10-31T18:42:40.090Z,,0,,,NaN,,,,,,false,,,,339104.5,339103.19999999925,,339101.69999999925,,339116.287,8,400,,,
break_continue,html.Screen,4_40_2,2023-10-31T18:42:40.093Z,,0,,,NaN,,,,,,false,,,,339107.299999997,339106.299999997,,339105.5,,339116.287,8,400,,,
sequence,flow.Sequence,4_40,2023-10-31T18:42:40.094Z,,0,,,10146.72299999703,completion,,,,,false,,,,339108.799999997,339106.299999997,328942.927,328951.799999997,328959.577,339116.287,8,400,,,
trial,html.Screen,4_41_0,2023-10-31T18:42:43.736Z,,0,1,,3633.0129999970086,response,ISIC_0072837.JPG,5,ISIC_0072714.JPG,ISIC_0072714.JPG,false,0,keypress(z),500,342750.799999997,342749.299999997,339099.637,339109.8999999985,339116.287,342762.729,8,400,42,,ISIC_0072837.JPG
break,html.Screen,4_41_1,2023-10-31T18:42:43.741Z,,0,,,NaN,,,,,,false,,,,342755.69999999925,342754.19999999925,,342752.299999997,,342762.729,8,400,,,
break_continue,html.Screen,4_41_2,2023-10-31T18:42:43.745Z,,0,,,NaN,,,,,,false,,,,342759.19999999925,342757.8999999985,,342756.8999999985,,342762.729,8,400,,,
sequence,flow.Sequence,4_41,2023-10-31T18:42:43.745Z,,0,,,3641.6129999984987,completion,,,,,false,,,,342759.69999999925,342757.8999999985,339099.637,339109.59999999776,339116.287,342762.729,8,400,,,
trial,html.Screen,4_42_0,2023-10-31T18:42:46.943Z,,0,1,,3193.0709999970277,response,ISIC_0068176.JPG,5,ISIC_4443373.JPG,ISIC_0068176.JPG,false,1,keypress(m),500,345957.299999997,345955.799999997,342746.079,342760.09999999776,342762.729,345976.253,8,400,43,,ISIC_4443373.JPG
break,html.Screen,4_42_1,2023-10-31T18:42:46.948Z,,0,,,NaN,,,,,,false,,,,345962.3999999985,345961,,345958.799999997,,345976.253,8,400,,,
break_continue,html.Screen,4_42_2,2023-10-31T18:42:46.952Z,,0,,,NaN,,,,,,false,,,,345966.09999999776,345964.59999999776,,345963.59999999776,,345976.253,8,400,,,
sequence,flow.Sequence,4_42,2023-10-31T18:42:46.952Z,,0,,,3201.8709999977727,completion,,,,,false,,,,345966.69999999925,345964.59999999776,342746.079,342760,342762.729,345976.253,8,400,,,
trial,html.Screen,4_43_0,2023-10-31T18:42:50.285Z,,0,1,,3321.5469999969937,response,ISIC_9107280.JPG,5,ISIC_0013867.JPG,ISIC_0013867.JPG,false,0,keypress(z),500,349299.19999999925,349297.799999997,345959.603,345967,345976.253,349306.318,8,400,44,,ISIC_9107280.JPG
break,html.Screen,4_43_1,2023-10-31T18:42:50.289Z,,0,,,NaN,,,,,,false,,,,349303.299999997,349302.3999999985,,349301,,349306.318,8,400,,,
break_continue,html.Screen,4_43_2,2023-10-31T18:42:50.291Z,,0,,,NaN,,,,,,false,,,,349305.19999999925,349304.3999999985,,349303.8999999985,,349306.318,8,400,,,
sequence,flow.Sequence,4_43,2023-10-31T18:42:50.292Z,,0,,,3328.146999998484,completion,,,,,false,,,,349306.09999999776,349304.3999999985,345959.603,345967,345976.253,349306.318,8,400,,,
trial,html.Screen,4_44_0,2023-10-31T18:42:53.981Z,,0,1,,3687.9819999969914,response,ISIC_8052769.JPG,5,ISIC_0062547.JPG,ISIC_8052769.JPG,false,1,keypress(m),500,352995.69999999925,352994.299999997,349289.668,349307,349306.318,353002.707,8,400,45,,ISIC_0062547.JPG
break,html.Screen,4_44_1,2023-10-31T18:42:53.987Z,,0,,,NaN,,,,,,false,,,,353001.299999997,352999.69999999925,,352997.19999999925,,353002.707,8,400,,,
break_continue,html.Screen,4_44_2,2023-10-31T18:42:53.988Z,,0,,,NaN,,,,,,false,,,,353002.69999999925,353002.19999999925,,353001.59999999776,,353002.707,8,400,,,
sequence,flow.Sequence,4_44,2023-10-31T18:42:53.989Z,,0,,,3695.8819999992265,completion,,,,,false,,,,353003.3999999985,353002.19999999925,349289.668,349306.799999997,349306.318,353002.707,8,400,,,
trial,html.Screen,4_45_0,2023-10-31T18:42:58.063Z,,0,1,,4073.49299999926,response,ISIC_0014150.JPG,5,ISIC_0058199.JPG,ISIC_0014150.JPG,false,1,keypress(m),500,357077.69999999925,357076.19999999925,352986.057,353003.799999997,353002.707,357098.704,8,400,46,,ISIC_0058199.JPG
break,html.Screen,4_45_1,2023-10-31T18:42:58.070Z,,0,,,NaN,,,,,,false,,,,357084.59999999776,357082.3999999985,,357079.19999999925,,357098.704,8,400,,,
break_continue,html.Screen,4_45_2,2023-10-31T18:42:58.073Z,,0,,,NaN,,,,,,false,,,,357087.8999999985,357086.69999999925,,357085.59999999776,,357098.704,8,400,,,
sequence,flow.Sequence,4_45,2023-10-31T18:42:58.074Z,,0,,,4083.99299999926,completion,,,,,false,,,,357088.69999999925,357086.69999999925,352986.057,353003.799999997,353002.707,357098.704,8,400,,,
trial,html.Screen,4_46_0,2023-10-31T18:43:01.303Z,,0,1,,3217.0959999969928,response,ISIC_0064107.JPG,5,ISIC_4026569.JPG,ISIC_0064107.JPG,false,1,keypress(m),500,360317.299999997,360315.799999997,357082.054,357089.09999999776,357098.704,360328.865,8,400,47,,ISIC_4026569.JPG
break,html.Screen,4_46_1,2023-10-31T18:43:01.307Z,,0,,,NaN,,,,,,false,,,,360321.3999999985,360320.69999999925,,360318.59999999776,,360328.865,8,400,,,
break_continue,html.Screen,4_46_2,2023-10-31T18:43:01.308Z,,0,,,NaN,,,,,,false,,,,360322.69999999925,360322.19999999925,,360321.799999997,,360328.865,8,400,,,
sequence,flow.Sequence,4_46,2023-10-31T18:43:01.309Z,,0,,,3223.495999999228,completion,,,,,false,,,,360323.299999997,360322.19999999925,357082.054,357088.8999999985,357098.704,360328.865,8,400,,,
trial,html.Screen,4_47_0,2023-10-31T18:43:05.006Z,,0,1,,3690.434999997029,response,ISIC_0058047.JPG,5,ISIC_0072569.JPG,ISIC_0072569.JPG,false,0,keypress(z),500,364020.69999999925,364019.299999997,360312.215,360323.69999999925,360328.865,364041.906,8,400,48,,ISIC_0058047.JPG
break,html.Screen,4_47_1,2023-10-31T18:43:05.012Z,,0,,,NaN,,,,,,false,,,,364026.5,364024.19999999925,,364022.299999997,,364041.906,8,400,,,
break_continue,html.Screen,4_47_2,2023-10-31T18:43:05.015Z,,0,,,NaN,,,,,,false,,,,364029.59999999776,364028.59999999776,,364027.69999999925,,364041.906,8,400,,,
sequence,flow.Sequence,4_47,2023-10-31T18:43:05.016Z,,0,,,3699.734999997774,completion,,,,,false,,,,364030.09999999776,364028.59999999776,360312.215,360323.59999999776,360328.865,364041.906,8,400,,,
trial,html.Screen,4_48_0,2023-10-31T18:43:08.156Z,,0,1,,3127.1939999977476,response,ISIC_2355513.JPG,4,ISIC_4874581.JPG,ISIC_2355513.JPG,false,1,keypress(m),500,367170.09999999776,367169.09999999776,364025.256,364030.5,364041.906,367188.822,8,400,49,,ISIC_4874581.JPG
break,html.Screen,4_48_1,2023-10-31T18:43:08.159Z,,0,,,NaN,,,,,,false,,,,367173.5,367172.59999999776,,367171.09999999776,,367188.822,8,400,,,
break_continue,html.Screen,4_48_2,2023-10-31T18:43:08.162Z,,0,,,NaN,,,,,,false,,,,367176.09999999776,367175.09999999776,,367174.3999999985,,367188.822,8,400,,,
sequence,flow.Sequence,4_48,2023-10-31T18:43:08.163Z,,0,,,3133.1939999977476,completion,,,,,false,,,,367177.299999997,367175.09999999776,364025.256,364030.3999999985,364041.906,367188.822,8,400,,,
trial,html.Screen,4_49_0,2023-10-31T18:43:11.751Z,,0,1,,3575.3779999992694,response,ISIC_0025218.JPG,5,ISIC_0053801.JPG,ISIC_0025218.JPG,false,1,keypress(m),500,370765.69999999925,370764.19999999925,367172.172,367178.299999997,367188.822,370785.305,8,400,50,,ISIC_0053801.JPG
break,html.Screen,4_49_1,2023-10-31T18:43:21.764Z,,0,,,10006.899000000034,timeout,,,,,false,,,,380778.19999999925,380775.554,370768.655,370767.299999997,370785.305,380792.204,8,400,,,
break_continue,html.Screen,4_49_2,2023-10-31T18:45:46.153Z,,0,,,144336.29599999997,response,,,,,false,continue,keypress(Space),,525167.8999999985,525128.5,380775.554,380778.799999997,380792.204,525183.269,8,400,,,
sequence,flow.Sequence,4_49,2023-10-31T18:45:46.154Z,,0,,,157939.678,completion,,,,,false,,,,525168.3999999985,525128.5,367172.172,367177.8999999985,367188.822,525183.269,8,400,,,
trial,html.Screen,4_50_0,2023-10-31T18:45:52.183Z,,0,2,,6012.930999999284,response,ISIC_6448312.JPG,5,ISIC_7801289.JPG,ISIC_7801289.JPG,false,0,keypress(z),500,531197.5,531196.1999999993,525166.619,525168.799999997,525183.269,531211.698,8,400,1,,ISIC_6448312.JPG
break,html.Screen,4_50_1,2023-10-31T18:45:52.188Z,,0,,,NaN,,,,,,false,,,,531202.0999999978,531200.799999997,,531198.799999997,,531211.698,8,400,,,
break_continue,html.Screen,4_50_2,2023-10-31T18:45:52.190Z,,0,,,NaN,,,,,,false,,,,531204.3999999985,531203.5999999978,,531203,,531211.698,8,400,,,
sequence,flow.Sequence,4_50,2023-10-31T18:45:52.191Z,,0,,,6020.330999997794,completion,,,,,false,,,,531205.5999999978,531203.5999999978,525166.619,525168.6999999993,525183.269,531211.698,8,400,,,
trial,html.Screen,4_51_0,2023-10-31T18:45:58.286Z,,0,2,,6087.302000000025,response,ISIC_8629635.JPG,5,ISIC_0060621.JPG,ISIC_8629635.JPG,false,1,keypress(m),500,537300.5,537299,531195.048,531206.5999999978,531211.698,537305.723,8,400,2,,ISIC_0060621.JPG
break,html.Screen,4_51_1,2023-10-31T18:45:58.290Z,,0,,,NaN,,,,,,false,,,,537304.1999999993,537303.299999997,,537301.8999999985,,537305.723,8,400,,,
break_continue,html.Screen,4_51_2,2023-10-31T18:45:58.292Z,,0,,,NaN,,,,,,false,,,,537306.3999999985,537305.5999999978,,537305,,537305.723,8,400,,,
sequence,flow.Sequence,4_51,2023-10-31T18:45:58.293Z,,0,,,6093.90199999779,completion,,,,,false,,,,537307.5,537305.5999999978,531195.048,531206.299999997,531211.698,537305.723,8,400,,,
trial,html.Screen,4_52_0,2023-10-31T18:46:03.391Z,,0,2,,5098.277000000002,response,ISIC_8095877.JPG,4,ISIC_0026909.JPG,ISIC_8095877.JPG,false,1,keypress(m),500,542405.5,542404,537289.073,537308.3999999985,537305.723,542417.395,8,400,3,,ISIC_0026909.JPG
break,html.Screen,4_52_1,2023-10-31T18:46:03.396Z,,0,,,NaN,,,,,,false,,,,542410.5999999978,542409.8999999985,,542407,,542417.395,8,400,,,
break_continue,html.Screen,4_52_2,2023-10-31T18:46:03.397Z,,0,,,NaN,,,,,,false,,,,542411.6999999993,542411.1999999993,,542410.8999999985,,542417.395,8,400,,,
sequence,flow.Sequence,4_52,2023-10-31T18:46:03.398Z,,0,,,5105.476999999257,completion,,,,,false,,,,542412.299999997,542411.1999999993,537289.073,537308.1999999993,537305.723,542417.395,8,400,,,
trial,html.Screen,4_53_0,2023-10-31T18:46:07.439Z,,0,2,,4034.8049999992363,response,ISIC_4631711.JPG,5,ISIC_6052702.JPG,ISIC_4631711.JPG,false,1,keypress(m),500,546453.6999999993,546452.1999999993,542400.745,542412.6999999993,542417.395,546463.433,8,400,4,,ISIC_6052702.JPG
break,html.Screen,4_53_1,2023-10-31T18:46:07.446Z,,0,,,NaN,,,,,,false,,,,546460.299999997,546458.5999999978,,546455.5999999978,,546463.433,8,400,,,
break_continue,html.Screen,4_53_2,2023-10-31T18:46:07.449Z,,0,,,NaN,,,,,,false,,,,546463.799999997,546462.5,,546461.3999999985,,546463.433,8,400,,,
sequence,flow.Sequence,4_53,2023-10-31T18:46:07.450Z,,0,,,4045.1049999999814,completion,,,,,false,,,,546464.5,546462.5,542400.745,542412.5,542417.395,546463.433,8,400,,,
trial,html.Screen,4_54_0,2023-10-31T18:46:18.940Z,,0,2,,11521.854999999981,timeout,ISIC_0262770.JPG,5,ISIC_9081663.JPG,,false,,,500,557954.799999997,557953.299999997,546446.783,546465,546463.433,557985.288,8,400,5,,
break,html.Screen,4_54_1,2023-10-31T18:46:18.945Z,,0,,,NaN,,,,,,false,,,,557959.3999999985,557957.6999999993,,557956,,557985.288,8,400,,,
break_continue,html.Screen,4_54_2,2023-10-31T18:46:18.949Z,,0,,,NaN,,,,,,false,,,,557963,557961.6999999993,,557960.3999999985,,557985.288,8,400,,,
sequence,flow.Sequence,4_54,2023-10-31T18:46:18.949Z,,0,,,11498.266999999294,completion,,,,,false,,,,557963.6999999993,557961.6999999993,546446.783,546464.799999997,546463.433,557985.288,8,400,,,
trial,html.Screen,4_55_0,2023-10-31T18:46:23.504Z,,0,2,,4532.0119999970775,response,ISIC_0746397.JPG,5,ISIC_0008431.JPG,ISIC_0008431.JPG,false,0,keypress(z),500,562518.8999999985,562517.299999997,557968.638,557964.1999999993,557985.288,562531.039,8,400,6,,ISIC_0746397.JPG
break,html.Screen,4_55_1,2023-10-31T18:46:23.508Z,,0,,,NaN,,,,,,false,,,,562522.5999999978,562521.799999997,,562520.299999997,,562531.039,8,400,,,
break_continue,html.Screen,4_55_2,2023-10-31T18:46:23.510Z,,0,,,NaN,,,,,,false,,,,562524,562523.5,,562523.0999999978,,562531.039,8,400,,,
sequence,flow.Sequence,4_55,2023-10-31T18:46:23.510Z,,0,,,4538.212000000058,completion,,,,,false,,,,562524.799999997,562523.5,557968.638,557964,557985.288,562531.039,8,400,,,
trial,html.Screen,4_56_0,2023-10-31T18:46:26.827Z,,0,2,,3307.26099999703,response,ISIC_6707990.JPG,5,ISIC_0033386.JPG,ISIC_0033386.JPG,false,0,keypress(z),500,565841.0999999978,565838.299999997,562514.389,562525.299999997,562531.039,565861.122,8,400,7,,ISIC_6707990.JPG
break,html.Screen,4_56_1,2023-10-31T18:46:26.831Z,,0,,,NaN,,,,,,false,,,,565845.799999997,565844.799999997,,565843.299999997,,565861.122,8,400,,,
break_continue,html.Screen,4_56_2,2023-10-31T18:46:26.834Z,,0,,,NaN,,,,,,false,,,,565848.0999999978,565847.0999999978,,565846.5,,565861.122,8,400,,,
sequence,flow.Sequence,4_56,2023-10-31T18:46:26.835Z,,0,,,3316.060999997775,completion,,,,,false,,,,565849.299999997,565847.0999999978,562514.389,562525.1999999993,562531.039,565861.122,8,400,,,
trial,html.Screen,4_57_0,2023-10-31T18:46:30.901Z,,0,2,,4052.777999998536,response,ISIC_0066114.JPG,5,ISIC_0065390.JPG,ISIC_0066114.JPG,false,1,keypress(m),500,569915.5,569913.8999999985,565844.472,565850.1999999993,565861.122,569923.81,8,400,8,,ISIC_0065390.JPG
break,html.Screen,4_57_1,2023-10-31T18:46:30.907Z,,0,,,NaN,,,,,,false,,,,569921.3999999985,569919.5999999978,,569917.0999999978,,569923.81,8,400,,,
break_continue,html.Screen,4_57_2,2023-10-31T18:46:30.910Z,,0,,,NaN,,,,,,false,,,,569924.6999999993,569923.6999999993,,569922.5,,569923.81,8,400,,,
sequence,flow.Sequence,4_57,2023-10-31T18:46:30.911Z,,0,,,4062.577999999281,completion,,,,,false,,,,569925.1999999993,569923.6999999993,565844.472,565849.8999999985,565861.122,569923.81,8,400,,,
trial,html.Screen,4_58_0,2023-10-31T18:46:34.788Z,,0,2,,3877.289999997709,response,ISIC_9300579.JPG,5,ISIC_0053686.JPG,ISIC_0053686.JPG,false,0,keypress(z),500,573802.5999999978,573801.0999999978,569907.16,569925.5999999978,569923.81,573820.008,8,400,9,,ISIC_9300579.JPG
break,html.Screen,4_58_1,2023-10-31T18:46:34.793Z,,0,,,NaN,,,,,,false,,,,573807.0999999978,573806.3999999985,,573804.1999999993,,573820.008,8,400,,,
break_continue,html.Screen,4_58_2,2023-10-31T18:46:34.794Z,,0,,,NaN,,,,,,false,,,,573808.299999997,573807.8999999985,,573807.5,,573820.008,8,400,,,
sequence,flow.Sequence,4_58,2023-10-31T18:46:34.794Z,,0,,,3884.089999998454,completion,,,,,false,,,,573808.8999999985,573807.8999999985,569907.16,569925.5,569923.81,573820.008,8,400,,,
trial,html.Screen,4_59_0,2023-10-31T18:46:40.248Z,,0,2,,5440.491999999969,response,ISIC_0061293.JPG,5,ISIC_0080817.JPG,ISIC_0061293.JPG,false,1,keypress(m),500,579262.1999999993,579260.5,573803.358,573809.3999999985,573820.008,579281.33,8,400,10,,ISIC_0080817.JPG
break,html.Screen,4_59_1,2023-10-31T18:46:40.254Z,,0,,,NaN,,,,,,false,,,,579268.1999999993,579266.3999999985,,579263.5999999978,,579281.33,8,400,,,
break_continue,html.Screen,4_59_2,2023-10-31T18:46:40.257Z,,0,,,NaN,,,,,,false,,,,579271.5,579270.3999999985,,579269.3999999985,,579281.33,8,400,,,
sequence,flow.Sequence,4_59,2023-10-31T18:46:40.258Z,,0,,,5450.391999998479,completion,,,,,false,,,,579272.1999999993,579270.3999999985,573803.358,573809.1999999993,573820.008,579281.33,8,400,,,
trial,html.Screen,4_60_0,2023-10-31T18:46:44.642Z,,0,2,,4373.869999999297,response,ISIC_0067696.JPG,4,ISIC_0064822.JPG,ISIC_0064822.JPG,false,0,keypress(z),500,583656.6999999993,583655.1999999993,579264.68,579272.5,579281.33,583677.018,8,400,11,,ISIC_0067696.JPG
break,html.Screen,4_60_1,2023-10-31T18:46:44.647Z,,0,,,NaN,,,,,,false,,,,583661.8999999985,583659.8999999985,,583658.0999999978,,583677.018,8,400,,,
break_continue,html.Screen,4_60_2,2023-10-31T18:46:44.651Z,,0,,,NaN,,,,,,false,,,,583665.3999999985,583664.1999999993,,583663.1999999993,,583677.018,8,400,,,
sequence,flow.Sequence,4_60,2023-10-31T18:46:44.651Z,,0,,,4382.869999999297,completion,,,,,false,,,,583665.799999997,583664.1999999993,579264.68,579272.3999999985,579281.33,583677.018,8,400,,,
trial,html.Screen,4_61_0,2023-10-31T18:46:48.534Z,,0,2,,3869.581999997725,response,ISIC_0025458.JPG,5,ISIC_0072768.JPG,ISIC_0025458.JPG,false,1,keypress(m),500,587548.3999999985,587546.5999999978,583660.368,583666.1999999993,583677.018,587556.569,8,400,12,,ISIC_0072768.JPG
break,html.Screen,4_61_1,2023-10-31T18:46:48.539Z,,0,,,NaN,,,,,,false,,,,587553.6999999993,587552.5,,587550.299999997,,587556.569,8,400,,,
break_continue,html.Screen,4_61_2,2023-10-31T18:46:48.541Z,,0,,,NaN,,,,,,false,,,,587555.0999999978,587554.5999999978,,587554.1999999993,,587556.569,8,400,,,
sequence,flow.Sequence,4_61,2023-10-31T18:46:48.541Z,,0,,,3877.581999997725,completion,,,,,false,,,,587555.8999999985,587554.5999999978,583660.368,583666.0999999978,583677.018,587556.569,8,400,,,
trial,html.Screen,4_62_0,2023-10-31T18:46:52.149Z,,0,2,,3606.4309999999823,response,ISIC_0071576.JPG,5,ISIC_0010636.JPG,ISIC_0071576.JPG,false,1,keypress(m),500,591163.799999997,591163,587539.919,587556.299999997,587556.569,591169.704,8,400,13,,ISIC_0010636.JPG
break,html.Screen,4_62_1,2023-10-31T18:46:52.152Z,,0,,,NaN,,,,,,false,,,,591166.8999999985,591166,,591164.5999999978,,591169.704,8,400,,,
break_continue,html.Screen,4_62_2,2023-10-31T18:46:52.155Z,,0,,,NaN,,,,,,false,,,,591169.0999999978,591168.299999997,,591167.5999999978,,591169.704,8,400,,,
sequence,flow.Sequence,4_62,2023-10-31T18:46:52.156Z,,0,,,3611.730999997002,completion,,,,,false,,,,591170.1999999993,591168.299999997,587539.919,587556.1999999993,587556.569,591169.704,8,400,,,
trial,html.Screen,4_63_0,2023-10-31T18:46:56.506Z,,0,2,,4349.895999997738,response,ISIC_0060955.JPG,6,ISIC_5390932.JPG,ISIC_5390932.JPG,false,0,keypress(z),500,595520.799999997,595519.5999999978,591153.054,591171.0999999978,591169.704,595532.084,8,400,14,,ISIC_0060955.JPG
break,html.Screen,4_63_1,2023-10-31T18:46:56.511Z,,0,,,NaN,,,,,,false,,,,595525.0999999978,595523.799999997,,595522.0999999978,,595532.084,8,400,,,
break_continue,html.Screen,4_63_2,2023-10-31T18:46:56.514Z,,0,,,NaN,,,,,,false,,,,595528.0999999978,595526.799999997,,595526,,595532.084,8,400,,,
sequence,flow.Sequence,4_63,2023-10-31T18:46:56.515Z,,0,,,4357.095999996993,completion,,,,,false,,,,595529.5,595526.799999997,591153.054,591170.799999997,591169.704,595532.084,8,400,,,
trial,html.Screen,4_64_0,2023-10-31T18:47:00.291Z,,0,2,,3771.715999996988,response,ISIC_2067576.JPG,5,ISIC_2748736.JPG,ISIC_2748736.JPG,false,0,keypress(z),500,599305.1999999993,599303.799999997,595515.434,595529.799999997,595532.084,599311.731,8,400,15,,ISIC_2067576.JPG
break,html.Screen,4_64_1,2023-10-31T18:47:00.296Z,,0,,,NaN,,,,,,false,,,,599311,599309.299999997,,599306.5999999978,,599311.731,8,400,,,
break_continue,html.Screen,4_64_2,2023-10-31T18:47:00.300Z,,0,,,NaN,,,,,,false,,,,599314.3999999985,599313.299999997,,599312,,599311.731,8,400,,,
sequence,flow.Sequence,4_64,2023-10-31T18:47:00.300Z,,0,,,3781.215999996988,completion,,,,,false,,,,599314.799999997,599313.299999997,595515.434,595529.5999999978,595532.084,599311.731,8,400,,,
trial,html.Screen,4_65_0,2023-10-31T18:47:04.241Z,,0,2,,3942.468999999226,response,ISIC_9483306.JPG,6,ISIC_0033344.JPG,ISIC_0033344.JPG,false,0,keypress(z),500,603255.5999999978,603254.1999999993,599295.081,599315.1999999993,599311.731,603274.517,8,400,16,,ISIC_9483306.JPG
break,html.Screen,4_65_1,2023-10-31T18:47:04.247Z,,0,,,NaN,,,,,,false,,,,603261.1999999993,603259.5,,603257.1999999993,,603274.517,8,400,,,
break_continue,html.Screen,4_65_2,2023-10-31T18:47:04.248Z,,0,,,NaN,,,,,,false,,,,603262.1999999993,603261.799999997,,603261.5999999978,,603274.517,8,400,,,
sequence,flow.Sequence,4_65,2023-10-31T18:47:04.248Z,,0,,,3950.068999996991,completion,,,,,false,,,,603262.6999999993,603261.799999997,599295.081,599315.1999999993,599311.731,603274.517,8,400,,,
trial,html.Screen,4_66_0,2023-10-31T18:47:07.471Z,,0,2,,3208.6829999992624,response,ISIC_4226975.JPG,5,ISIC_0058016.JPG,ISIC_0058016.JPG,false,0,keypress(z),500,606485,606483.1999999993,603257.867,603263,603274.517,606504.7,8,400,17,,ISIC_4226975.JPG
break,html.Screen,4_66_1,2023-10-31T18:47:07.475Z,,0,,,NaN,,,,,,false,,,,606489.1999999993,606488,,606486.299999997,,606504.7,8,400,,,
break_continue,html.Screen,4_66_2,2023-10-31T18:47:07.478Z,,0,,,NaN,,,,,,false,,,,606492.1999999993,606491.0999999978,,606490.0999999978,,606504.7,8,400,,,
sequence,flow.Sequence,4_66,2023-10-31T18:47:07.479Z,,0,,,3216.5829999977723,completion,,,,,false,,,,606493.799999997,606491.0999999978,603257.867,603263,603274.517,606504.7,8,400,,,
trial,html.Screen,4_67_0,2023-10-31T18:47:11.140Z,,0,2,,3647.8999999978114,response,ISIC_4151356.JPG,5,ISIC_8960223.JPG,ISIC_8960223.JPG,false,0,keypress(z),500,610154.0999999978,610152.5999999978,606488.05,606495.1999999993,606504.7,610167.781,8,400,18,,ISIC_4151356.JPG
break,html.Screen,4_67_1,2023-10-31T18:47:11.142Z,,0,,,NaN,,,,,,false,,,,610157,610156.0999999978,,610155,,610167.781,8,400,,,
break_continue,html.Screen,4_67_2,2023-10-31T18:47:11.144Z,,0,,,NaN,,,,,,false,,,,610158.799999997,610158.0999999978,,610157.5999999978,,610167.781,8,400,,,
sequence,flow.Sequence,4_67,2023-10-31T18:47:11.145Z,,0,,,3653.3999999978114,completion,,,,,false,,,,610160,610158.0999999978,606488.05,606494.5999999978,606504.7,610167.781,8,400,,,
trial,html.Screen,4_68_0,2023-10-31T18:47:14.376Z,,0,2,,3220.818999997806,response,ISIC_8374889.JPG,5,ISIC_1452314.JPG,ISIC_8374889.JPG,false,1,keypress(m),500,613390.0999999978,613388.5999999978,610151.131,610160.6999999993,610167.781,613397.943,8,400,19,,ISIC_1452314.JPG
break,html.Screen,4_68_1,2023-10-31T18:47:14.380Z,,0,,,NaN,,,,,,false,,,,613394.0999999978,613393.0999999978,,613391.3999999985,,613397.943,8,400,,,
break_continue,html.Screen,4_68_2,2023-10-31T18:47:14.382Z,,0,,,NaN,,,,,,false,,,,613396.1999999993,613395.3999999985,,613394.799999997,,613397.943,8,400,,,
sequence,flow.Sequence,4_68,2023-10-31T18:47:14.383Z,,0,,,3227.618999998551,completion,,,,,false,,,,613397.1999999993,613395.3999999985,610151.131,610160.5,610167.781,613397.943,8,400,,,
trial,html.Screen,4_69_0,2023-10-31T18:47:17.294Z,,0,2,,2909.3569999970496,response,ISIC_0010478.JPG,5,ISIC_0057287.JPG,ISIC_0010478.JPG,false,1,keypress(m),500,616308.799999997,616307.299999997,613381.293,613398.5999999978,613397.943,616328.408,8,400,20,,ISIC_0057287.JPG
break,html.Screen,4_69_1,2023-10-31T18:47:17.299Z,,0,,,NaN,,,,,,false,,,,616313.0999999978,616311.8999999985,,616310.299999997,,616328.408,8,400,,,
break_continue,html.Screen,4_69_2,2023-10-31T18:47:17.301Z,,0,,,NaN,,,,,,false,,,,616315.3999999985,616314.5,,616313.799999997,,616328.408,8,400,,,
sequence,flow.Sequence,4_69,2023-10-31T18:47:17.302Z,,0,,,2916.55700000003,completion,,,,,false,,,,616316.6999999993,616314.5,613381.293,613397.799999997,613397.943,616328.408,8,400,,,
trial,html.Screen,4_70_0,2023-10-31T18:47:21.555Z,,0,2,,4239.891999996966,response,ISIC_5367118.JPG,5,ISIC_3763984.JPG,ISIC_3763984.JPG,false,0,keypress(z),500,620569.799999997,620568.299999997,616311.758,616317.6999999993,616328.408,620574.269,8,400,21,,ISIC_5367118.JPG
break,html.Screen,4_70_1,2023-10-31T18:47:21.560Z,,0,,,NaN,,,,,,false,,,,620574.0999999978,620573.299999997,,620571.3999999985,,620574.269,8,400,,,
break_continue,html.Screen,4_70_2,2023-10-31T18:47:21.561Z,,0,,,NaN,,,,,,false,,,,620575.5,620574.8999999985,,620574.5,,620574.269,8,400,,,
sequence,flow.Sequence,4_70,2023-10-31T18:47:21.562Z,,0,,,4246.491999998456,completion,,,,,false,,,,620576.1999999993,620574.8999999985,616311.758,616317.299999997,616328.408,620574.269,8,400,,,
trial,html.Screen,4_71_0,2023-10-31T18:47:25.024Z,,0,2,,3462.430999999284,response,ISIC_6985114.JPG,5,ISIC_7820005.JPG,ISIC_7820005.JPG,false,0,keypress(z),500,624038.299999997,624036.6999999993,620557.619,620576.5999999978,620574.269,624054.178,8,400,22,,ISIC_6985114.JPG
break,html.Screen,4_71_1,2023-10-31T18:47:25.029Z,,0,,,NaN,,,,,,false,,,,624043.3999999985,624041.799999997,,624039.6999999993,,624054.178,8,400,,,
break_continue,html.Screen,4_71_2,2023-10-31T18:47:25.032Z,,0,,,NaN,,,,,,false,,,,624046.3999999985,624045.3999999985,,624044.3999999985,,624054.178,8,400,,,
sequence,flow.Sequence,4_71,2023-10-31T18:47:25.032Z,,0,,,3471.1309999985388,completion,,,,,false,,,,624046.8999999985,624045.3999999985,620557.619,620576.5,620574.269,624054.178,8,400,,,
trial,html.Screen,4_72_0,2023-10-31T18:47:28.951Z,,0,2,,3910.2219999985537,response,ISIC_8135400.JPG,5,ISIC_0060096.JPG,ISIC_8135400.JPG,false,1,keypress(m),500,627965.5,627964.3999999985,624037.528,624047.1999999993,624054.178,627983.687,8,400,23,,ISIC_0060096.JPG
break,html.Screen,4_72_1,2023-10-31T18:47:28.954Z,,0,,,NaN,,,,,,false,,,,627968.799999997,627967.799999997,,627966.5,,627983.687,8,400,,,
break_continue,html.Screen,4_72_2,2023-10-31T18:47:28.957Z,,0,,,NaN,,,,,,false,,,,627971.299999997,627970.3999999985,,627969.5999999978,,627983.687,8,400,,,
sequence,flow.Sequence,4_72,2023-10-31T18:47:28.958Z,,0,,,3916.2219999985537,completion,,,,,false,,,,627972.5999999978,627970.3999999985,624037.528,624047.0999999978,624054.178,627983.687,8,400,,,
trial,html.Screen,4_73_0,2023-10-31T18:47:33.516Z,,0,2,,4545.712999998475,response,ISIC_0061475.JPG,5,ISIC_0033655.JPG,ISIC_0061475.JPG,false,1,keypress(m),500,632530.8999999985,632529.3999999985,627967.037,627973.5,627983.687,632545.886,8,400,24,,ISIC_0033655.JPG
break,html.Screen,4_73_1,2023-10-31T18:47:33.522Z,,0,,,NaN,,,,,,false,,,,632536.0999999978,632534.0999999978,,632532.1999999993,,632545.886,8,400,,,
break_continue,html.Screen,4_73_2,2023-10-31T18:47:33.525Z,,0,,,NaN,,,,,,false,,,,632539.3999999985,632538.0999999978,,632537.1999999993,,632545.886,8,400,,,
sequence,flow.Sequence,4_73,2023-10-31T18:47:33.526Z,,0,,,4554.41299999773,completion,,,,,false,,,,632540.5,632538.0999999978,627967.037,627973.1999999993,627983.687,632545.886,8,400,,,
trial,html.Screen,4_74_0,2023-10-31T18:47:37.318Z,,0,2,,3784.913999996963,response,ISIC_0030501.JPG,15,ISIC_0385633.JPG,ISIC_0030501.JPG,false,1,keypress(m),500,636332.5,636330.799999997,632529.236,632540.8999999985,632545.886,636342.171,8,400,25,,ISIC_0385633.JPG
break,html.Screen,4_74_1,2023-10-31T18:47:37.324Z,,0,,,NaN,,,,,,false,,,,636338.799999997,636337.1999999993,,636333.799999997,,636342.171,8,400,,,
break_continue,html.Screen,4_74_2,2023-10-31T18:47:37.328Z,,0,,,NaN,,,,,,false,,,,636342.1999999993,636341.0999999978,,636340,,636342.171,8,400,,,
sequence,flow.Sequence,4_74,2023-10-31T18:47:37.329Z,,0,,,3795.213999997708,completion,,,,,false,,,,636343.6999999993,636341.0999999978,632529.236,632540.799999997,632545.886,636342.171,8,400,,,
trial,html.Screen,4_75_0,2023-10-31T18:47:40.944Z,,0,2,,3614.628999997047,response,ISIC_0026560.JPG,5,ISIC_0070951.JPG,ISIC_0026560.JPG,false,1,keypress(m),500,639958,639956.799999997,636325.521,636345,636342.171,639971.939,8,400,26,,ISIC_0070951.JPG
break,html.Screen,4_75_1,2023-10-31T18:47:40.948Z,,0,,,NaN,,,,,,false,,,,639962.5,639961.1999999993,,639959.0999999978,,639971.939,8,400,,,
break_continue,html.Screen,4_75_2,2023-10-31T18:47:40.951Z,,0,,,NaN,,,,,,false,,,,639965.1999999993,639964.1999999993,,639963.3999999985,,639971.939,8,400,,,
sequence,flow.Sequence,4_75,2023-10-31T18:47:40.952Z,,0,,,3622.028999999282,completion,,,,,false,,,,639966.5,639964.1999999993,636325.521,636344.5,636342.171,639971.939,8,400,,,
trial,html.Screen,4_76_0,2023-10-31T18:47:45.863Z,,0,2,,4904.260999999242,response,ISIC_0024650.JPG,5,ISIC_6285925.JPG,ISIC_6285925.JPG,false,0,keypress(z),500,644877.6999999993,644876.1999999993,639955.289,639966.799999997,639971.939,644883.807,8,400,27,,ISIC_0024650.JPG
break,html.Screen,4_76_1,2023-10-31T18:47:45.868Z,,0,,,NaN,,,,,,false,,,,644882.3999999985,644881,,644879.1999999993,,644883.807,8,400,,,
break_continue,html.Screen,4_76_2,2023-10-31T18:47:45.871Z,,0,,,NaN,,,,,,false,,,,644885.299999997,644884.6999999993,,644883.5999999978,,644883.807,8,400,,,
sequence,flow.Sequence,4_76,2023-10-31T18:47:45.871Z,,0,,,4912.760999999242,completion,,,,,false,,,,644885.6999999993,644884.6999999993,639955.289,639966.6999999993,639971.939,644883.807,8,400,,,
trial,html.Screen,4_77_0,2023-10-31T18:47:50.633Z,,0,2,,4762.59299999848,response,ISIC_3800974.JPG,5,ISIC_4007322.JPG,ISIC_3800974.JPG,false,1,keypress(m),500,649647.0999999978,649646.3999999985,644867.157,644886.0999999978,644883.807,649662.46,8,400,28,,ISIC_4007322.JPG
break,html.Screen,4_77_1,2023-10-31T18:47:50.635Z,,0,,,NaN,,,,,,false,,,,649649.6999999993,649648.6999999993,,649647.799999997,,649662.46,8,400,,,
break_continue,html.Screen,4_77_2,2023-10-31T18:47:50.637Z,,0,,,NaN,,,,,,false,,,,649651.5,649650.6999999993,,649650.1999999993,,649662.46,8,400,,,
sequence,flow.Sequence,4_77,2023-10-31T18:47:50.638Z,,0,,,4766.892999999225,completion,,,,,false,,,,649653,649650.6999999993,644867.157,644886,644883.807,649662.46,8,400,,,
trial,html.Screen,4_78_0,2023-10-31T18:47:54.060Z,,0,2,,3410.839999997057,response,ISIC_4590810.JPG,5,ISIC_0014255.JPG,ISIC_0014255.JPG,false,0,keypress(z),500,653074.6999999993,653073.299999997,649645.81,649653.5,649662.46,653092.437,8,400,29,,ISIC_4590810.JPG
break,html.Screen,4_78_1,2023-10-31T18:47:54.066Z,,0,,,NaN,,,,,,false,,,,653080,653078.3999999985,,653076.0999999978,,653092.437,8,400,,,
break_continue,html.Screen,4_78_2,2023-10-31T18:47:54.069Z,,0,,,NaN,,,,,,false,,,,653083.799999997,653082.0999999978,,653081.0999999978,,653092.437,8,400,,,
sequence,flow.Sequence,4_78,2023-10-31T18:47:54.070Z,,0,,,3419.639999997802,completion,,,,,false,,,,653084.5999999978,653082.0999999978,649645.81,649653.299999997,649662.46,653092.437,8,400,,,
trial,html.Screen,4_79_0,2023-10-31T18:47:57.331Z,,0,2,,3251.0629999999655,response,ISIC_0057531.JPG,5,ISIC_0679781.JPG,ISIC_0057531.JPG,false,1,keypress(m),500,656345,656343.5,653075.787,653084.8999999985,653092.437,656355.912,8,400,30,,ISIC_0679781.JPG
break,html.Screen,4_79_1,2023-10-31T18:47:57.337Z,,0,,,NaN,,,,,,false,,,,656351,656348.8999999985,,656346.3999999985,,656355.912,8,400,,,
break_continue,html.Screen,4_79_2,2023-10-31T18:47:57.338Z,,0,,,NaN,,,,,,false,,,,656352.299999997,656351.8999999985,,656351.5999999978,,656355.912,8,400,,,
sequence,flow.Sequence,4_79,2023-10-31T18:47:57.338Z,,0,,,3259.4629999984754,completion,,,,,false,,,,656352.799999997,656351.8999999985,653075.787,653084.799999997,653092.437,656355.912,8,400,,,
trial,html.Screen,4_80_0,2023-10-31T18:48:01.710Z,,0,2,,4367.187999997754,response,ISIC_0060148.JPG,5,ISIC_2124148.JPG,ISIC_0060148.JPG,false,1,keypress(m),500,660724.5999999978,660723.0999999978,656339.262,656353.0999999978,656355.912,660734.978,8,400,31,,ISIC_2124148.JPG
break,html.Screen,4_80_1,2023-10-31T18:48:01.715Z,,0,,,NaN,,,,,,false,,,,660729.5,660727.799999997,,660725.8999999985,,660734.978,8,400,,,
break_continue,html.Screen,4_80_2,2023-10-31T18:48:01.718Z,,0,,,NaN,,,,,,false,,,,660732.3999999985,660731.5999999978,,660730.5,,660734.978,8,400,,,
sequence,flow.Sequence,4_80,2023-10-31T18:48:01.718Z,,0,,,4375.687999997754,completion,,,,,false,,,,660733,660731.5999999978,656339.262,656353.0999999978,656355.912,660734.978,8,400,,,
trial,html.Screen,4_81_0,2023-10-31T18:48:07.112Z,,0,2,,5390.121999997762,response,ISIC_2700320.JPG,5,ISIC_0013674.JPG,ISIC_2700320.JPG,false,1,keypress(m),500,666126.5999999978,666125.0999999978,660718.328,660733.299999997,660734.978,666146.343,8,400,32,,ISIC_0013674.JPG
break,html.Screen,4_81_1,2023-10-31T18:48:07.117Z,,0,,,NaN,,,,,,false,,,,666131.1999999993,666130.299999997,,666128.0999999978,,666146.343,8,400,,,
break_continue,html.Screen,4_81_2,2023-10-31T18:48:07.118Z,,0,,,NaN,,,,,,false,,,,666132.5,666132,,666131.6999999993,,666146.343,8,400,,,
sequence,flow.Sequence,4_81,2023-10-31T18:48:07.119Z,,0,,,5397.021999999997,completion,,,,,false,,,,666133.3999999985,666132,660718.328,660733.1999999993,660734.978,666146.343,8,400,,,
trial,html.Screen,4_82_0,2023-10-31T18:48:10.688Z,,0,2,,3555.0569999985164,response,ISIC_0064694.JPG,6,ISIC_0033589.JPG,ISIC_0033589.JPG,false,0,keypress(z),500,669702.799999997,669701.3999999985,666129.693,666133.8999999985,666146.343,669709.531,8,400,33,,ISIC_0064694.JPG
break,html.Screen,4_82_1,2023-10-31T18:48:10.693Z,,0,,,NaN,,,,,,false,,,,669707.6999999993,669706.299999997,,669704.3999999985,,669709.531,8,400,,,
break_continue,html.Screen,4_82_2,2023-10-31T18:48:10.697Z,,0,,,NaN,,,,,,false,,,,669711,669709.6999999993,,669708.8999999985,,669709.531,8,400,,,
sequence,flow.Sequence,4_82,2023-10-31T18:48:10.698Z,,0,,,3563.3569999992615,completion,,,,,false,,,,669712.5,669709.6999999993,666129.693,666133.799999997,666146.343,669709.531,8,400,,,
trial,html.Screen,4_83_0,2023-10-31T18:48:13.851Z,,0,2,,3154.368999998551,response,ISIC_0011649.JPG,5,ISIC_4161113.JPG,ISIC_4161113.JPG,false,0,keypress(z),500,672865.3999999985,672863.8999999985,669692.881,669712.799999997,669709.531,672873.101,8,400,34,,ISIC_0011649.JPG
break,html.Screen,4_83_1,2023-10-31T18:48:13.856Z,,0,,,NaN,,,,,,false,,,,672870.5999999978,672868.6999999993,,672866.799999997,,672873.101,8,400,,,
break_continue,html.Screen,4_83_2,2023-10-31T18:48:13.860Z,,0,,,NaN,,,,,,false,,,,672874.1999999993,672872.6999999993,,672871.6999999993,,672873.101,8,400,,,
sequence,flow.Sequence,4_83,2023-10-31T18:48:13.861Z,,0,,,3163.168999999296,completion,,,,,false,,,,672875.1999999993,672872.6999999993,669692.881,669712.6999999993,669709.531,672873.101,8,400,,,
trial,html.Screen,4_84_0,2023-10-31T18:48:18.138Z,,0,2,,4277.998999997741,response,ISIC_0067808.JPG,5,ISIC_4311777.JPG,ISIC_0067808.JPG,false,1,keypress(m),500,677152.5999999978,677151.0999999978,672856.451,672875.5,672873.101,677168.881,8,400,35,,ISIC_4311777.JPG
break,html.Screen,4_84_1,2023-10-31T18:48:18.144Z,,0,,,NaN,,,,,,false,,,,677158.1999999993,677156.5,,677154,,677168.881,8,400,,,
break_continue,html.Screen,4_84_2,2023-10-31T18:48:18.146Z,,0,,,NaN,,,,,,false,,,,677160.799999997,677160.3999999985,,677159.299999997,,677168.881,8,400,,,
sequence,flow.Sequence,4_84,2023-10-31T18:48:18.147Z,,0,,,4287.298999998486,completion,,,,,false,,,,677161.299999997,677160.3999999985,672856.451,672875.5,672873.101,677168.881,8,400,,,
trial,html.Screen,4_85_0,2023-10-31T18:48:21.194Z,,0,2,,3038.4189999969676,response,ISIC_0027149.JPG,4,ISIC_9223156.JPG,ISIC_0027149.JPG,false,1,keypress(m),500,680208.799999997,680207.299999997,677152.231,677161.5999999978,677168.881,680215.911,8,400,36,,ISIC_9223156.JPG
break,html.Screen,4_85_1,2023-10-31T18:48:21.198Z,,0,,,NaN,,,,,,false,,,,680212.0999999978,680211.3999999985,,680210.299999997,,680215.911,8,400,,,
break_continue,html.Screen,4_85_2,2023-10-31T18:48:21.199Z,,0,,,NaN,,,,,,false,,,,680213.799999997,680213.1999999993,,680212.6999999993,,680215.911,8,400,,,
sequence,flow.Sequence,4_85,2023-10-31T18:48:21.200Z,,0,,,3044.318999999203,completion,,,,,false,,,,680214.799999997,680213.1999999993,677152.231,677161.5,677168.881,680215.911,8,400,,,
trial,html.Screen,4_86_0,2023-10-31T18:48:24.974Z,,0,2,,3770.7889999992913,response,ISIC_0054053.JPG,5,ISIC_1794249.JPG,ISIC_0054053.JPG,false,1,keypress(m),500,683988.299999997,683986.6999999993,680199.261,680215.3999999985,680215.911,683995.537,8,400,37,,ISIC_1794249.JPG
break,html.Screen,4_86_1,2023-10-31T18:48:24.978Z,,0,,,NaN,,,,,,false,,,,683992.1999999993,683991.1999999993,,683989.5999999978,,683995.537,8,400,,,
break_continue,html.Screen,4_86_2,2023-10-31T18:48:24.980Z,,0,,,NaN,,,,,,false,,,,683994.299999997,683993.3999999985,,683992.799999997,,683995.537,8,400,,,
sequence,flow.Sequence,4_86,2023-10-31T18:48:24.981Z,,0,,,3777.488999998546,completion,,,,,false,,,,683995.3999999985,683993.3999999985,680199.261,680215.299999997,680215.911,683995.537,8,400,,,
trial,html.Screen,4_87_0,2023-10-31T18:48:28.009Z,,0,2,,3026.5629999977536,response,ISIC_3898738.JPG,4,ISIC_0026746.JPG,ISIC_0026746.JPG,false,0,keypress(z),500,687023.0999999978,687022.0999999978,683978.887,683996.5999999978,683995.537,687042.553,8,400,38,,ISIC_3898738.JPG
break,html.Screen,4_87_1,2023-10-31T18:48:28.013Z,,0,,,NaN,,,,,,false,,,,687027,687025.3999999985,,687024.1999999993,,687042.553,8,400,,,
break_continue,html.Screen,4_87_2,2023-10-31T18:48:28.015Z,,0,,,NaN,,,,,,false,,,,687029.3999999985,687028.5,,687027.6999999993,,687042.553,8,400,,,
sequence,flow.Sequence,4_87,2023-10-31T18:48:28.015Z,,0,,,3032.962999999989,completion,,,,,false,,,,687030,687028.5,683978.887,683996.3999999985,683995.537,687042.553,8,400,,,
trial,html.Screen,4_88_0,2023-10-31T18:48:31.232Z,,0,2,,3202.9470000000438,response,ISIC_0032226.JPG,5,ISIC_0064080.JPG,ISIC_0064080.JPG,false,0,keypress(z),500,690246.6999999993,690245.5,687025.903,687030.3999999985,687042.553,690272.741,8,400,39,,ISIC_0032226.JPG
break,html.Screen,4_88_1,2023-10-31T18:48:31.236Z,,0,,,NaN,,,,,,false,,,,690250.8999999985,690249.5,,690248,,690272.741,8,400,,,
break_continue,html.Screen,4_88_2,2023-10-31T18:48:31.239Z,,0,,,NaN,,,,,,false,,,,690253.799999997,690252.6999999993,,690251.8999999985,,690272.741,8,400,,,
sequence,flow.Sequence,4_88,2023-10-31T18:48:31.241Z,,0,,,3210.1469999992987,completion,,,,,false,,,,690255.3999999985,690252.6999999993,687025.903,687030.299999997,687042.553,690272.741,8,400,,,
trial,html.Screen,4_89_0,2023-10-31T18:48:34.415Z,,0,2,,3155.8589999977266,response,ISIC_0025088.JPG,4,ISIC_0030663.JPG,ISIC_0030663.JPG,false,0,keypress(z),500,693430,693428.5999999978,690256.091,690255.6999999993,690272.741,693436.305,8,400,40,,ISIC_0025088.JPG
break,html.Screen,4_89_1,2023-10-31T18:48:34.421Z,,0,,,NaN,,,,,,false,,,,693435.8999999985,693434.299999997,,693431.3999999985,,693436.305,8,400,,,
break_continue,html.Screen,4_89_2,2023-10-31T18:48:34.426Z,,0,,,NaN,,,,,,false,,,,693440.1999999993,693438.8999999985,,693438,,693436.305,8,400,,,
sequence,flow.Sequence,4_89,2023-10-31T18:48:34.427Z,,0,,,3166.1589999984717,completion,,,,,false,,,,693441.6999999993,693438.8999999985,690256.091,690255.5999999978,690272.741,693436.305,8,400,,,
trial,html.Screen,4_90_0,2023-10-31T18:48:38.664Z,,0,2,,4240.4949999969685,response,ISIC_7837503.JPG,5,ISIC_9268487.JPG,ISIC_9268487.JPG,false,0,keypress(z),500,697678.3999999985,697676.799999997,693419.655,693442.8999999985,693436.305,697698.794,8,400,41,,ISIC_7837503.JPG
break,html.Screen,4_90_1,2023-10-31T18:48:38.670Z,,0,,,NaN,,,,,,false,,,,697684,697681.5999999978,,697679.6999999993,,697698.794,8,400,,,
break_continue,html.Screen,4_90_2,2023-10-31T18:48:38.673Z,,0,,,NaN,,,,,,false,,,,697687.299999997,697685.799999997,,697685,,697698.794,8,400,,,
sequence,flow.Sequence,4_90,2023-10-31T18:48:38.673Z,,0,,,4249.4949999969685,completion,,,,,false,,,,697687.799999997,697685.799999997,693419.655,693442.5999999978,693436.305,697698.794,8,400,,,
trial,html.Screen,4_91_0,2023-10-31T18:48:41.569Z,,0,2,,2883.3059999977704,response,ISIC_7043369.JPG,5,ISIC_6661691.JPG,ISIC_6661691.JPG,false,0,keypress(z),500,700583.5999999978,700582.0999999978,697682.144,697688.0999999978,697698.794,700595.961,8,400,42,,ISIC_7043369.JPG
break,html.Screen,4_91_1,2023-10-31T18:48:41.574Z,,0,,,NaN,,,,,,false,,,,700588.0999999978,700586.5999999978,,700585,,700595.961,8,400,,,
break_continue,html.Screen,4_91_2,2023-10-31T18:48:41.575Z,,0,,,NaN,,,,,,false,,,,700590,700589.1999999993,,700588.5999999978,,700595.961,8,400,,,
sequence,flow.Sequence,4_91,2023-10-31T18:48:41.577Z,,0,,,2890.4059999992605,completion,,,,,false,,,,700591,700589.1999999993,697682.144,697688,697698.794,700595.961,8,400,,,
trial,html.Screen,4_92_0,2023-10-31T18:48:45.215Z,,0,2,,3631.6389999977546,response,ISIC_0003052.JPG,5,ISIC_0014557.JPG,ISIC_0014557.JPG,false,0,keypress(z),500,704229.1999999993,704227.5999999978,700579.311,700591.6999999993,700595.961,704242.396,8,400,43,,ISIC_0003052.JPG
break,html.Screen,4_92_1,2023-10-31T18:48:45.222Z,,0,,,NaN,,,,,,false,,,,704236.3999999985,704232.5,,704230.5999999978,,704242.396,8,400,,,
break_continue,html.Screen,4_92_2,2023-10-31T18:48:45.223Z,,0,,,NaN,,,,,,false,,,,704237.6999999993,704237.1999999993,,704236.799999997,,704242.396,8,400,,,
sequence,flow.Sequence,4_92,2023-10-31T18:48:45.224Z,,0,,,3641.2389999992447,completion,,,,,false,,,,704238.3999999985,704237.1999999993,700579.311,700591.3999999985,700595.961,704242.396,8,400,,,
trial,html.Screen,4_93_0,2023-10-31T18:48:48.796Z,,0,2,,3566.90399999707,response,ISIC_4052597.JPG,4,ISIC_4460849.JPG,ISIC_4460849.JPG,false,0,keypress(z),500,707810.5999999978,707809.299999997,704225.746,704239,704242.396,707822.242,8,400,44,,ISIC_4052597.JPG
break,html.Screen,4_93_1,2023-10-31T18:48:48.801Z,,0,,,NaN,,,,,,false,,,,707815.3999999985,707814.0999999978,,707812.1999999993,,707822.242,8,400,,,
break_continue,html.Screen,4_93_2,2023-10-31T18:48:48.804Z,,0,,,NaN,,,,,,false,,,,707818.5999999978,707817.3999999985,,707816.5,,707822.242,8,400,,,
sequence,flow.Sequence,4_93,2023-10-31T18:48:48.805Z,,0,,,3575.00399999856,completion,,,,,false,,,,707819.5999999978,707817.3999999985,704225.746,704238.799999997,704242.396,707822.242,8,400,,,
trial,html.Screen,4_94_0,2023-10-31T18:48:52.240Z,,0,2,,3431.2580000000307,response,ISIC_1595658.JPG,5,ISIC_0011798.JPG,ISIC_0011798.JPG,false,0,keypress(z),500,711254.8999999985,711253.5,707805.592,707820,707822.242,711268.867,8,400,45,,ISIC_1595658.JPG
break,html.Screen,4_94_1,2023-10-31T18:48:52.246Z,,0,,,NaN,,,,,,false,,,,711260.299999997,711258.6999999993,,711256.3999999985,,711268.867,8,400,,,
break_continue,html.Screen,4_94_2,2023-10-31T18:48:52.248Z,,0,,,NaN,,,,,,false,,,,711263,711262.5999999978,,711261.3999999985,,711268.867,8,400,,,
sequence,flow.Sequence,4_94,2023-10-31T18:48:52.249Z,,0,,,3440.3579999977956,completion,,,,,false,,,,711263.5,711262.5999999978,707805.592,707819.799999997,707822.242,711268.867,8,400,,,
trial,html.Screen,4_95_0,2023-10-31T18:48:55.321Z,,0,2,,3064.8329999992857,response,ISIC_1390308.JPG,5,ISIC_3948754.JPG,ISIC_3948754.JPG,false,0,keypress(z),500,714335.1999999993,714333.6999999993,711252.217,711263.799999997,711268.867,714349.188,8,400,46,,ISIC_1390308.JPG
break,html.Screen,4_95_1,2023-10-31T18:48:55.326Z,,0,,,NaN,,,,,,false,,,,714340.799999997,714339.1999999993,,714336.5999999978,,714349.188,8,400,,,
break_continue,html.Screen,4_95_2,2023-10-31T18:48:55.330Z,,0,,,NaN,,,,,,false,,,,714344.1999999993,714342.8999999985,,714342,,714349.188,8,400,,,
sequence,flow.Sequence,4_95,2023-10-31T18:48:55.331Z,,0,,,3074.0329999985406,completion,,,,,false,,,,714345.5,714342.8999999985,711252.217,711263.6999999993,711268.867,714349.188,8,400,,,
trial,html.Screen,4_96_0,2023-10-31T18:48:58.959Z,,0,2,,3622.611999997054,response,ISIC_0645116.JPG,5,ISIC_0055253.JPG,ISIC_0055253.JPG,false,0,keypress(z),500,717973.3999999985,717971.799999997,714332.538,714345.799999997,714349.188,717978.97,8,400,47,,ISIC_0645116.JPG
break,html.Screen,4_96_1,2023-10-31T18:48:58.966Z,,0,,,NaN,,,,,,false,,,,717980.0999999978,717977.5,,717974.6999999993,,717978.97,8,400,,,
break_continue,html.Screen,4_96_2,2023-10-31T18:48:58.968Z,,0,,,NaN,,,,,,false,,,,717982,717981.5999999978,,717981.299999997,,717978.97,8,400,,,
sequence,flow.Sequence,4_96,2023-10-31T18:48:58.968Z,,0,,,3632.4119999977993,completion,,,,,false,,,,717982.5,717981.5999999978,714332.538,714345.6999999993,714349.188,717978.97,8,400,,,
trial,html.Screen,4_97_0,2023-10-31T18:49:02.672Z,,0,2,,3705.929999998538,response,ISIC_0069193.JPG,5,ISIC_7283084.JPG,ISIC_7283084.JPG,false,0,keypress(z),500,721686.3999999985,721684.8999999985,717962.32,717982.799999997,717978.97,721692.004,8,400,48,,ISIC_0069193.JPG
break,html.Screen,4_97_1,2023-10-31T18:49:02.677Z,,0,,,NaN,,,,,,false,,,,721691.5,721689.5999999978,,721687.799999997,,721692.004,8,400,,,
break_continue,html.Screen,4_97_2,2023-10-31T18:49:02.681Z,,0,,,NaN,,,,,,false,,,,721695.1999999993,721694,,721692.5999999978,,721692.004,8,400,,,
sequence,flow.Sequence,4_97,2023-10-31T18:49:02.681Z,,0,,,3715.030000000028,completion,,,,,false,,,,721695.799999997,721694,717962.32,717982.6999999993,717978.97,721692.004,8,400,,,
trial,html.Screen,4_98_0,2023-10-31T18:49:05.746Z,,0,2,,3067.2959999970626,response,ISIC_0057395.JPG,5,ISIC_0010653.JPG,ISIC_0010653.JPG,false,0,keypress(z),500,724760.5999999978,724759.299999997,721675.354,721696.0999999978,721692.004,724772.325,8,400,49,,ISIC_0057395.JPG
break,html.Screen,4_98_1,2023-10-31T18:49:05.751Z,,0,,,NaN,,,,,,false,,,,724765,724763.8999999985,,724762.0999999978,,724772.325,8,400,,,
break_continue,html.Screen,4_98_2,2023-10-31T18:49:05.752Z,,0,,,NaN,,,,,,false,,,,724766.3999999985,724765.799999997,,724765.5,,724772.325,8,400,,,
sequence,flow.Sequence,4_98,2023-10-31T18:49:05.753Z,,0,,,3073.7959999970626,completion,,,,,false,,,,724767.0999999978,724765.799999997,721675.354,721696,721692.004,724772.325,8,400,,,
trial,html.Screen,4_99_0,2023-10-31T18:49:09.331Z,,0,2,,3571.4749999970663,response,ISIC_0011288.JPG,5,ISIC_6052702.JPG,ISIC_0011288.JPG,false,1,keypress(m),500,728345.299999997,728343.799999997,724755.675,724767.5999999978,724772.325,728352.138,8,400,50,,ISIC_6052702.JPG
break,html.Screen,4_99_1,2023-10-31T18:49:19.330Z,,0,,,10006.893999999971,timeout,,,,,false,,,,738344.299999997,738342.382,728335.488,728346.5999999978,728352.138,738359.032,8,400,,,
break_continue,html.Screen,4_99_2,2023-10-31T18:51:15.374Z,,0,,,115964.06799999776,response,,,,,false,continue,keypress(Space),,854388.0999999978,854323.0999999978,738342.382,738344.799999997,738359.032,854395.245,8,400,,,
sequence,flow.Sequence,4_99,2023-10-31T18:51:15.374Z,,0,,,129550.77499999781,completion,,,,,false,,,,854388.5999999978,854323.0999999978,724755.675,724767.5,724772.325,854395.245,8,400,,,
trial,html.Screen,4_100_0,2023-10-31T18:51:19.814Z,,0,3,,4432.755000000005,response,ISIC_0032717.JPG,4,ISIC_0011958.JPG,ISIC_0011958.JPG,false,0,keypress(z),500,858828.5,858828,854378.595,854389,854395.245,858841.153,8,400,1,,ISIC_0032717.JPG
break,html.Screen,4_100_1,2023-10-31T18:51:19.816Z,,0,,,NaN,,,,,,false,,,,858830.299999997,858829.5999999978,,858828.8999999985,,858841.153,8,400,,,
break_continue,html.Screen,4_100_2,2023-10-31T18:51:19.817Z,,0,,,NaN,,,,,,false,,,,858831.5,858831,,858830.6999999993,,858841.153,8,400,,,
sequence,flow.Sequence,4_100,2023-10-31T18:51:19.818Z,,0,,,4435.755000000005,completion,,,,,false,,,,858832,858831,854378.595,854388.8999999985,854395.245,858841.153,8,400,,,
trial,html.Screen,4_101_0,2023-10-31T18:51:22.971Z,,0,3,,3142.6469999969704,response,ISIC_0032342.JPG,4,ISIC_0065535.JPG,ISIC_0065535.JPG,false,0,keypress(z),500,861985.3999999985,861983.799999997,858824.503,858832.3999999985,858841.153,862004.717,8,400,2,,ISIC_0032342.JPG
break,html.Screen,4_101_1,2023-10-31T18:51:22.977Z,,0,,,NaN,,,,,,false,,,,861991.3999999985,861989.6999999993,,861986.799999997,,862004.717,8,400,,,
break_continue,html.Screen,4_101_2,2023-10-31T18:51:22.980Z,,0,,,NaN,,,,,,false,,,,861994.6999999993,861993.5,,861992.3999999985,,862004.717,8,400,,,
sequence,flow.Sequence,4_101,2023-10-31T18:51:22.981Z,,0,,,3152.3469999999506,completion,,,,,false,,,,861995.3999999985,861993.5,858824.503,858832.299999997,858841.153,862004.717,8,400,,,
trial,html.Screen,4_102_0,2023-10-31T18:51:26.955Z,,0,3,,3963.382999997819,response,ISIC_0013801.JPG,6,ISIC_0028207.JPG,ISIC_0028207.JPG,false,0,keypress(z),500,865969.5999999978,865968.0999999978,861988.067,861995.8999999985,862004.717,865984.165,8,400,3,,ISIC_0013801.JPG
break,html.Screen,4_102_1,2023-10-31T18:51:26.958Z,,0,,,NaN,,,,,,false,,,,865972.799999997,865971.8999999985,,865970.6999999993,,865984.165,8,400,,,
break_continue,html.Screen,4_102_2,2023-10-31T18:51:26.961Z,,0,,,NaN,,,,,,false,,,,865975,865974.1999999993,,865973.5,,865984.165,8,400,,,
sequence,flow.Sequence,4_102,2023-10-31T18:51:26.962Z,,0,,,3969.482999999309,completion,,,,,false,,,,865976.1999999993,865974.1999999993,861988.067,861995.6999999993,862004.717,865984.165,8,400,,,
trial,html.Screen,4_103_0,2023-10-31T18:51:30.715Z,,0,3,,3744.2349999984726,response,ISIC_0012063.JPG,5,ISIC_6001936.JPG,ISIC_0012063.JPG,false,1,keypress(m),500,869729.799999997,869728.3999999985,865967.515,865977.0999999978,865984.165,869747.15,8,400,4,,ISIC_6001936.JPG
break,html.Screen,4_103_1,2023-10-31T18:51:30.720Z,,0,,,NaN,,,,,,false,,,,869734.6999999993,869733.299999997,,869731.3999999985,,869747.15,8,400,,,
break_continue,html.Screen,4_103_2,2023-10-31T18:51:30.723Z,,0,,,NaN,,,,,,false,,,,869737.5,869736.6999999993,,869735.799999997,,869747.15,8,400,,,
sequence,flow.Sequence,4_103,2023-10-31T18:51:30.724Z,,0,,,3752.5349999992177,completion,,,,,false,,,,869738.299999997,869736.6999999993,865967.515,865976.799999997,865984.165,869747.15,8,400,,,
trial,html.Screen,4_104_0,2023-10-31T18:51:36.841Z,,0,3,,6107.9499999977415,response,ISIC_7052658.JPG,5,ISIC_4462773.JPG,ISIC_4462773.JPG,false,0,keypress(z),500,875855.6999999993,875855.0999999978,869730.5,869738.5999999978,869747.15,875874.478,8,400,5,,ISIC_7052658.JPG
break,html.Screen,4_104_1,2023-10-31T18:51:36.844Z,,0,,,NaN,,,,,,false,,,,875858.0999999978,875857.1999999993,,875856.3999999985,,875874.478,8,400,,,
break_continue,html.Screen,4_104_2,2023-10-31T18:51:36.845Z,,0,,,NaN,,,,,,false,,,,875859.799999997,875859.299999997,,875858.799999997,,875874.478,8,400,,,
sequence,flow.Sequence,4_104,2023-10-31T18:51:36.846Z,,0,,,6112.1499999969965,completion,,,,,false,,,,875860.799999997,875859.299999997,869730.5,869738.5,869747.15,875874.478,8,400,,,
trial,html.Screen,4_105_0,2023-10-31T18:51:40.145Z,,0,3,,3283.821999997017,response,ISIC_0012810.JPG,4,ISIC_0027556.JPG,ISIC_0012810.JPG,false,1,keypress(m),500,879159.6999999993,879158.299999997,875857.828,875861.299999997,875874.478,879171.261,8,400,6,,ISIC_0027556.JPG
break,html.Screen,4_105_1,2023-10-31T18:51:40.149Z,,0,,,NaN,,,,,,false,,,,879163,879162.0999999978,,879160.799999997,,879171.261,8,400,,,
break_continue,html.Screen,4_105_2,2023-10-31T18:51:40.151Z,,0,,,NaN,,,,,,false,,,,879165,879164.1999999993,,879163.5999999978,,879171.261,8,400,,,
sequence,flow.Sequence,4_105,2023-10-31T18:51:40.152Z,,0,,,3289.721999999252,completion,,,,,false,,,,879166.0999999978,879164.1999999993,875857.828,875861.1999999993,875874.478,879171.261,8,400,,,
trial,html.Screen,4_106_0,2023-10-31T18:51:45.337Z,,0,3,,5179.038999996963,response,ISIC_5808758.JPG,5,ISIC_9943579.JPG,ISIC_5808758.JPG,false,1,keypress(m),500,884351.8999999985,884350.299999997,879154.611,879167,879171.261,884366.17,8,400,7,,ISIC_9943579.JPG
break,html.Screen,4_106_1,2023-10-31T18:51:45.344Z,,0,,,NaN,,,,,,false,,,,884358.299999997,884356,,884353.3999999985,,884366.17,8,400,,,
break_continue,html.Screen,4_106_2,2023-10-31T18:51:45.347Z,,0,,,NaN,,,,,,false,,,,884361.299999997,884360.1999999993,,884359.299999997,,884366.17,8,400,,,
sequence,flow.Sequence,4_106,2023-10-31T18:51:45.348Z,,0,,,5188.938999999198,completion,,,,,false,,,,884362.5999999978,884360.1999999993,879154.611,879166.5999999978,879171.261,884366.17,8,400,,,
trial,html.Screen,4_107_0,2023-10-31T18:51:49.940Z,,0,3,,4586.329999999958,response,ISIC_0069105.JPG,15,ISIC_0000167.JPG,ISIC_0000167.JPG,false,0,keypress(z),500,888954.0999999978,888952.5,884349.52,884363,884366.17,888961.675,8,400,8,,ISIC_0069105.JPG
break,html.Screen,4_107_1,2023-10-31T18:51:49.945Z,,0,,,NaN,,,,,,false,,,,888959.299999997,888957.799999997,,888955.5,,888961.675,8,400,,,
break_continue,html.Screen,4_107_2,2023-10-31T18:51:49.948Z,,0,,,NaN,,,,,,false,,,,888963,888961.5,,888960.3999999985,,888961.675,8,400,,,
sequence,flow.Sequence,4_107,2023-10-31T18:51:49.949Z,,0,,,4595.329999999958,completion,,,,,false,,,,888963.5,888961.5,884349.52,884362.8999999985,884366.17,888961.675,8,400,,,
trial,html.Screen,4_108_0,2023-10-31T18:51:54.078Z,,0,3,,4128.824999999953,response,ISIC_5247560.JPG,4,ISIC_0067873.JPG,ISIC_5247560.JPG,false,1,keypress(m),500,893092.0999999978,893090.5,888945.025,888963.6999999993,888961.675,893107.623,8,400,9,,ISIC_0067873.JPG
break,html.Screen,4_108_1,2023-10-31T18:51:54.086Z,,0,,,NaN,,,,,,false,,,,893100.299999997,893095.8999999985,,893093.5,,893107.623,8,400,,,
break_continue,html.Screen,4_108_2,2023-10-31T18:51:54.087Z,,0,,,NaN,,,,,,false,,,,893101.3999999985,893101,,893100.5999999978,,893107.623,8,400,,,
sequence,flow.Sequence,4_108,2023-10-31T18:51:54.087Z,,0,,,4139.324999999953,completion,,,,,false,,,,893102,893101,888945.025,888963.5999999978,888961.675,893107.623,8,400,,,
trial,html.Screen,4_109_0,2023-10-31T18:51:57.937Z,,0,3,,3842.3769999999786,response,ISIC_0056546.JPG,5,ISIC_0069411.JPG,ISIC_0069411.JPG,false,0,keypress(z),500,896951.3999999985,896950,893090.973,893102.1999999993,893107.623,896970.505,8,400,10,,ISIC_0056546.JPG
break,html.Screen,4_109_1,2023-10-31T18:51:57.942Z,,0,,,NaN,,,,,,false,,,,896956.799999997,896954.6999999993,,896952.8999999985,,896970.505,8,400,,,
break_continue,html.Screen,4_109_2,2023-10-31T18:51:57.946Z,,0,,,NaN,,,,,,false,,,,896960.0999999978,896958.799999997,,896957.8999999985,,896970.505,8,400,,,
sequence,flow.Sequence,4_109,2023-10-31T18:51:57.946Z,,0,,,3851.1769999969983,completion,,,,,false,,,,896960.799999997,896958.799999997,893090.973,893102.1999999993,893107.623,896970.505,8,400,,,
trial,html.Screen,4_110_0,2023-10-31T18:52:01.065Z,,0,3,,3107.894999998505,response,ISIC_0033841.JPG,5,ISIC_0066262.JPG,ISIC_0066262.JPG,false,0,keypress(z),500,900079.8999999985,900078.3999999985,896953.855,896961.0999999978,896970.505,900084.123,8,400,11,,ISIC_0033841.JPG
break,html.Screen,4_110_1,2023-10-31T18:52:01.071Z,,0,,,NaN,,,,,,false,,,,900085.3999999985,900083.5999999978,,900081.3999999985,,900084.123,8,400,,,
break_continue,html.Screen,4_110_2,2023-10-31T18:52:01.074Z,,0,,,NaN,,,,,,false,,,,900088.799999997,900087.5,,900086.5,,900084.123,8,400,,,
sequence,flow.Sequence,4_110,2023-10-31T18:52:01.075Z,,0,,,3116.9949999999953,completion,,,,,false,,,,900089.6999999993,900087.5,896953.855,896961,896970.505,900084.123,8,400,,,
trial,html.Screen,4_111_0,2023-10-31T18:52:05.221Z,,0,3,,4150.2769999984885,response,ISIC_0072976.JPG,5,ISIC_0000078.JPG,ISIC_0072976.JPG,false,1,keypress(m),500,904235.799999997,904234.3999999985,900067.473,900090,900084.123,904246.718,8,400,12,,ISIC_0000078.JPG
break,html.Screen,4_111_1,2023-10-31T18:52:05.226Z,,0,,,NaN,,,,,,false,,,,904240.6999999993,904239.1999999993,,904237.1999999993,,904246.718,8,400,,,
break_continue,html.Screen,4_111_2,2023-10-31T18:52:05.230Z,,0,,,NaN,,,,,,false,,,,904244.0999999978,904242.6999999993,,904241.799999997,,904246.718,8,400,,,
sequence,flow.Sequence,4_111,2023-10-31T18:52:05.230Z,,0,,,4158.5769999992335,completion,,,,,false,,,,904244.6999999993,904242.6999999993,900067.473,900089.8999999985,900084.123,904246.718,8,400,,,
trial,html.Screen,4_112_0,2023-10-31T18:52:08.948Z,,0,3,,3713.9819999992615,response,ISIC_5486725.JPG,5,ISIC_0063664.JPG,ISIC_5486725.JPG,false,1,keypress(m),500,907962.1999999993,907960.6999999993,904230.068,904245.0999999978,904246.718,907976.415,8,400,13,,ISIC_0063664.JPG
break,html.Screen,4_112_1,2023-10-31T18:52:08.952Z,,0,,,NaN,,,,,,false,,,,907966.299999997,907965.5,,907963.799999997,,907976.415,8,400,,,
break_continue,html.Screen,4_112_2,2023-10-31T18:52:08.953Z,,0,,,NaN,,,,,,false,,,,907967.8999999985,907967.3999999985,,907966.6999999993,,907976.415,8,400,,,
sequence,flow.Sequence,4_112,2023-10-31T18:52:08.954Z,,0,,,3720.6819999985164,completion,,,,,false,,,,907968.8999999985,907967.3999999985,904230.068,904245,904246.718,907976.415,8,400,,,
trial,html.Screen,4_113_0,2023-10-31T18:52:12.366Z,,0,3,,3402.8849999969825,response,ISIC_0808203.JPG,5,ISIC_0062935.JPG,ISIC_0062935.JPG,false,0,keypress(z),500,911380.8999999985,911379.299999997,907959.765,907969.3999999985,907976.415,911406.391,8,400,14,,ISIC_0808203.JPG
break,html.Screen,4_113_1,2023-10-31T18:52:12.376Z,,0,,,NaN,,,,,,false,,,,911390.6999999993,911389.799999997,,911387.8999999985,,911406.391,8,400,,,
break_continue,html.Screen,4_113_2,2023-10-31T18:52:12.377Z,,0,,,NaN,,,,,,false,,,,911391.799999997,911391.3999999985,,911391.0999999978,,911406.391,8,400,,,
sequence,flow.Sequence,4_113,2023-10-31T18:52:12.378Z,,0,,,3414.9849999984726,completion,,,,,false,,,,911392.3999999985,911391.3999999985,907959.765,907969.299999997,907976.415,911406.391,8,400,,,
trial,html.Screen,4_114_0,2023-10-31T18:52:16.000Z,,0,3,,3606.30899999931,response,ISIC_3448546.JPG,4,ISIC_0056316.JPG,ISIC_3448546.JPG,false,1,keypress(m),500,915014.1999999993,915012.6999999993,911389.741,911392.799999997,911406.391,915019.519,8,400,15,,ISIC_0056316.JPG
break,html.Screen,4_114_1,2023-10-31T18:52:16.006Z,,0,,,NaN,,,,,,false,,,,915020.8999999985,915018,,915015.5999999978,,915019.519,8,400,,,
break_continue,html.Screen,4_114_2,2023-10-31T18:52:16.008Z,,0,,,NaN,,,,,,false,,,,915022.3999999985,915022,,915021.5999999978,,915019.519,8,400,,,
sequence,flow.Sequence,4_114,2023-10-31T18:52:16.008Z,,0,,,3615.609000000055,completion,,,,,false,,,,915022.799999997,915022,911389.741,911392.5999999978,911406.391,915019.519,8,400,,,
trial,html.Screen,4_115_0,2023-10-31T18:52:19.918Z,,0,3,,3911.8809999985388,response,ISIC_5363229.JPG,5,ISIC_0070951.JPG,ISIC_0070951.JPG,false,0,keypress(z),500,918933,918931.3999999985,915002.869,915023.0999999978,915019.519,918949.002,8,400,16,,ISIC_5363229.JPG
break,html.Screen,4_115_1,2023-10-31T18:52:19.924Z,,0,,,NaN,,,,,,false,,,,918938.8999999985,918937.3999999985,,918934.799999997,,918949.002,8,400,,,
break_continue,html.Screen,4_115_2,2023-10-31T18:52:19.927Z,,0,,,NaN,,,,,,false,,,,918941,918940.5999999978,,918940.0999999978,,918949.002,8,400,,,
sequence,flow.Sequence,4_115,2023-10-31T18:52:19.927Z,,0,,,3921.0809999977937,completion,,,,,false,,,,918941.5,918940.5999999978,915002.869,915023,915019.519,918949.002,8,400,,,
trial,html.Screen,4_116_0,2023-10-31T18:52:23.028Z,,0,3,,3092.0979999977862,response,ISIC_3686329.JPG,5,ISIC_8145348.JPG,ISIC_8145348.JPG,false,0,keypress(z),500,922042.5,922041.0999999978,918932.352,918941.799999997,918949.002,922062.618,8,400,17,,ISIC_3686329.JPG
break,html.Screen,4_116_1,2023-10-31T18:52:23.033Z,,0,,,NaN,,,,,,false,,,,922047.3999999985,922045.799999997,,922044,,922062.618,8,400,,,
break_continue,html.Screen,4_116_2,2023-10-31T18:52:23.037Z,,0,,,NaN,,,,,,false,,,,922051.1999999993,922049.5999999978,,922048.5999999978,,922062.618,8,400,,,
sequence,flow.Sequence,4_116,2023-10-31T18:52:23.037Z,,0,,,3100.5979999977862,completion,,,,,false,,,,922051.799999997,922049.5999999978,918932.352,918941.5999999978,918949.002,922062.618,8,400,,,
trial,html.Screen,4_117_0,2023-10-31T18:52:31.151Z,,0,3,,8102.581999999238,response,ISIC_0054770.JPG,5,ISIC_0011960.JPG,ISIC_0011960.JPG,false,0,keypress(z),500,930165.8999999985,930165.1999999993,922045.968,922052,922062.618,930171.356,8,400,18,,ISIC_0054770.JPG
break,html.Screen,4_117_1,2023-10-31T18:52:31.154Z,,0,,,NaN,,,,,,false,,,,930168.5999999978,930167.6999999993,,930166.3999999985,,930171.356,8,400,,,
break_continue,html.Screen,4_117_2,2023-10-31T18:52:31.156Z,,0,,,NaN,,,,,,false,,,,930170.799999997,930170,,930169.3999999985,,930171.356,8,400,,,
sequence,flow.Sequence,4_117,2023-10-31T18:52:31.158Z,,0,,,8107.381999999983,completion,,,,,false,,,,930172.299999997,930170,922045.968,922052,922062.618,930171.356,8,400,,,
trial,html.Screen,4_118_0,2023-10-31T18:52:34.288Z,,0,3,,3129.643999999971,response,ISIC_0021713.JPG,5,ISIC_0032596.JPG,ISIC_0021713.JPG,false,1,keypress(m),500,933302.5,933301,930154.706,930173.1999999993,930171.356,933318.285,8,400,19,,ISIC_0032596.JPG
break,html.Screen,4_118_1,2023-10-31T18:52:34.293Z,,0,,,NaN,,,,,,false,,,,933307.299999997,933305.799999997,,933304,,933318.285,8,400,,,
break_continue,html.Screen,4_118_2,2023-10-31T18:52:34.295Z,,0,,,NaN,,,,,,false,,,,933309.6999999993,933309.299999997,,933308.299999997,,933318.285,8,400,,,
sequence,flow.Sequence,4_118,2023-10-31T18:52:34.296Z,,0,,,3137.943999996991,completion,,,,,false,,,,933310.299999997,933309.299999997,930154.706,930173,930171.356,933318.285,8,400,,,
trial,html.Screen,4_119_0,2023-10-31T18:52:37.328Z,,0,3,,3022.2149999999674,response,ISIC_0024226.JPG,4,ISIC_0749263.JPG,ISIC_0024226.JPG,false,1,keypress(m),500,936342.0999999978,936340.5,933301.635,933310.5999999978,933318.285,936348.646,8,400,20,,ISIC_0749263.JPG
break,html.Screen,4_119_1,2023-10-31T18:52:37.333Z,,0,,,NaN,,,,,,false,,,,936347,936345.3999999985,,936343.5,,936348.646,8,400,,,
break_continue,html.Screen,4_119_2,2023-10-31T18:52:37.335Z,,0,,,NaN,,,,,,false,,,,936349.5999999978,936349.0999999978,,936348.0999999978,,936348.646,8,400,,,
sequence,flow.Sequence,4_119,2023-10-31T18:52:37.336Z,,0,,,3030.8149999977322,completion,,,,,false,,,,936350.0999999978,936349.0999999978,933301.635,933310.5,933318.285,936348.646,8,400,,,
trial,html.Screen,4_120_0,2023-10-31T18:52:40.225Z,,0,3,,2888.953999997815,response,ISIC_3300710.JPG,4,ISIC_0033843.JPG,ISIC_3300710.JPG,false,1,keypress(m),500,939239,939237.5999999978,936331.996,936350.5,936348.646,939245.807,8,400,21,,ISIC_0033843.JPG
break,html.Screen,4_120_1,2023-10-31T18:52:40.228Z,,0,,,NaN,,,,,,false,,,,939242.299999997,939241.299999997,,939240.299999997,,939245.807,8,400,,,
break_continue,html.Screen,4_120_2,2023-10-31T18:52:40.230Z,,0,,,NaN,,,,,,false,,,,939244.0999999978,939243.3999999985,,939242.799999997,,939245.807,8,400,,,
sequence,flow.Sequence,4_120,2023-10-31T18:52:40.230Z,,0,,,2894.75399999856,completion,,,,,false,,,,939244.8999999985,939243.3999999985,936331.996,936350.3999999985,936348.646,939245.807,8,400,,,
trial,html.Screen,4_121_0,2023-10-31T18:52:42.842Z,,0,3,,2609.49299999699,response,ISIC_5619654.JPG,5,ISIC_0066378.JPG,ISIC_0066378.JPG,false,0,keypress(z),500,941856.6999999993,941855.299999997,939229.157,939245.6999999993,939245.807,941876.569,8,400,22,,ISIC_5619654.JPG
break,html.Screen,4_121_1,2023-10-31T18:52:42.847Z,,0,,,NaN,,,,,,false,,,,941861.5,941860.0999999978,,941858.1999999993,,941876.569,8,400,,,
break_continue,html.Screen,4_121_2,2023-10-31T18:52:42.850Z,,0,,,NaN,,,,,,false,,,,941864.799999997,941863.6999999993,,941862.5999999978,,941876.569,8,400,,,
sequence,flow.Sequence,4_121,2023-10-31T18:52:42.851Z,,0,,,2617.892999999225,completion,,,,,false,,,,941865.8999999985,941863.6999999993,939229.157,939245.3999999985,939245.807,941876.569,8,400,,,
trial,html.Screen,4_122_0,2023-10-31T18:52:46.118Z,,0,3,,3254.1309999992372,response,ISIC_9317483.JPG,5,ISIC_1736735.JPG,ISIC_9317483.JPG,false,1,keypress(m),500,945132.299999997,945130.6999999993,941859.919,941866.1999999993,941876.569,945140.058,8,400,23,,ISIC_1736735.JPG
break,html.Screen,4_122_1,2023-10-31T18:52:46.123Z,,0,,,NaN,,,,,,false,,,,945137.0999999978,945135.5999999978,,945133.6999999993,,945140.058,8,400,,,
break_continue,html.Screen,4_122_2,2023-10-31T18:52:46.126Z,,0,,,NaN,,,,,,false,,,,945140.3999999985,945139.0999999978,,945138.1999999993,,945140.058,8,400,,,
sequence,flow.Sequence,4_122,2023-10-31T18:52:46.127Z,,0,,,3262.530999997747,completion,,,,,false,,,,945141.5999999978,945139.0999999978,941859.919,941866,941876.569,945140.058,8,400,,,
trial,html.Screen,4_123_0,2023-10-31T18:52:48.915Z,,0,3,,2788.241999997059,response,ISIC_5239607.JPG,5,ISIC_0014541.JPG,ISIC_0014541.JPG,false,0,keypress(z),500,947929.5,947928.299999997,945123.408,945142,945140.058,947937.305,8,400,24,,ISIC_5239607.JPG
break,html.Screen,4_123_1,2023-10-31T18:52:48.920Z,,0,,,NaN,,,,,,false,,,,947934.799999997,947933,,947930.799999997,,947937.305,8,400,,,
break_continue,html.Screen,4_123_2,2023-10-31T18:52:48.922Z,,0,,,NaN,,,,,,false,,,,947936.799999997,947936.3999999985,,947936,,947937.305,8,400,,,
sequence,flow.Sequence,4_123,2023-10-31T18:52:48.923Z,,0,,,2796.341999998549,completion,,,,,false,,,,947937.5,947936.3999999985,945123.408,945141.799999997,945140.058,947937.305,8,400,,,
trial,html.Screen,4_124_0,2023-10-31T18:52:51.539Z,,0,3,,2614.7949999977136,response,ISIC_3249704.JPG,5,ISIC_0000213.JPG,ISIC_3249704.JPG,false,1,keypress(m),500,950553.6999999993,950552.0999999978,947920.655,947938.1999999993,947937.305,950568.079,8,400,25,,ISIC_0000213.JPG
break,html.Screen,4_124_1,2023-10-31T18:52:51.543Z,,0,,,NaN,,,,,,false,,,,950557.299999997,950556.299999997,,950555.1999999993,,950568.079,8,400,,,
break_continue,html.Screen,4_124_2,2023-10-31T18:52:51.545Z,,0,,,NaN,,,,,,false,,,,950559.0999999978,950558.3999999985,,950557.8999999985,,950568.079,8,400,,,
sequence,flow.Sequence,4_124,2023-10-31T18:52:51.546Z,,0,,,2621.0949999984587,completion,,,,,false,,,,950560.1999999993,950558.3999999985,947920.655,947938,947937.305,950568.079,8,400,,,
trial,html.Screen,4_125_0,2023-10-31T18:52:54.369Z,,0,3,,2813.920999999973,response,ISIC_0054292.JPG,5,ISIC_5934948.JPG,ISIC_0054292.JPG,false,1,keypress(m),500,953383.5999999978,953382,950551.429,950560.799999997,950568.079,953398.645,8,400,26,,ISIC_5934948.JPG
break,html.Screen,4_125_1,2023-10-31T18:52:54.373Z,,0,,,NaN,,,,,,false,,,,953387.299999997,953386.1999999993,,953384.8999999985,,953398.645,8,400,,,
break_continue,html.Screen,4_125_2,2023-10-31T18:52:54.375Z,,0,,,NaN,,,,,,false,,,,953389.6999999993,953388.799999997,,953388,,953398.645,8,400,,,
sequence,flow.Sequence,4_125,2023-10-31T18:52:54.376Z,,0,,,2820.7209999969928,completion,,,,,false,,,,953391,953388.799999997,950551.429,950560.6999999993,950568.079,953398.645,8,400,,,
trial,html.Screen,4_126_0,2023-10-31T18:52:56.993Z,,0,3,,2607.0549999992363,response,ISIC_7498132.JPG,5,ISIC_9529971.JPG,ISIC_9529971.JPG,false,0,keypress(z),500,956007.299999997,956005.6999999993,953381.995,953391.8999999985,953398.645,956012.739,8,400,27,,ISIC_7498132.JPG
break,html.Screen,4_126_1,2023-10-31T18:52:56.996Z,,0,,,NaN,,,,,,false,,,,956010.6999999993,956009.6999999993,,956008.5999999978,,956012.739,8,400,,,
