sender,sender_type,sender_id,timestamp,meta,,blockNo,condition,duration,ended_on,img_left,img_reveal,img_right,loser,practice,response,response_action,selection_duration,time_commit,time_end,time_render,time_run,time_show,time_switch,total_blocks,total_trials,trialNo,url,winner
informed_consent,html.Screen,0,2023-09-13T01:56:36.768Z,"{""labjs_version"":""20.2.4"",""labjs_build"":{""flavor"":""production"",""commit"":""f5b4a49f956347addd546a832a3327688c2c0fef""},""location"":""https://run.pavlovia.org/MurrayBennett/melanoma-2afc/?participant=66893&platform=sona"",""userAgent"":""Mozilla/5.0 (Windows NT 10.0; Win64; x64) AppleWebKit/537.36 (KHTML, like Gecko) Chrome/115.0.0.0 Safari/537.36"",""platform"":""Win32"",""language"":""en-US"",""locale"":""en-US"",""timeZone"":""America/Chicago"",""timezoneOffset"":300,""screen_width"":1504,""screen_height"":1003,""scroll_width"":1504,""scroll_height"":798,""window_innerWidth"":1504,""window_innerHeight"":846,""devicePixelRatio"":1.5}",,,,2480.5970000953675,response,,,,,,consent,click button,,4886.099999904633,4883.400000095367,2068.479,2400,2402.803,4912.314,,,,"{""participant"":""66893"",""platform"":""sona""}",
Welcome,html.Screen,1,2023-09-13T01:56:39.314Z,,,,irregular,2516.7859999046323,response,,,,,,continue,click button,,7432.400000095367,7429.099999904633,4879.029,4886.5,4912.314,7435.854,,,,,
trial,html.Screen,2_0_0,2023-09-13T01:56:44.690Z,,0,0,,5371.745999904632,response,ISIC_4679428.JPG,,ISIC_0061792.JPG,ISIC_0061792.JPG,true,0,keypress(z),500,12807.900000095367,12807.599999904633,7419.252,7432.900000095367,7435.854,12828.566,1,6,1,,ISIC_4679428.JPG
sequence,flow.Sequence,2_0,2023-09-13T01:56:44.690Z,,0,,,5371.745999904632,completion,,,,,true,,,,12808.599999904633,12807.599999904633,7419.252,7432.900000095367,7435.854,12828.566,1,6,,,
trial,html.Screen,2_1_0,2023-09-13T01:56:48.610Z,,0,0,,3899.233999713897,response,ISIC_0776486.JPG,,ISIC_5199497.JPG,ISIC_5199497.JPG,true,0,keypress(z),500,16728,16727.799999713898,12797.262,12808.699999809265,12828.566,16747.726,1,6,2,,ISIC_0776486.JPG
sequence,flow.Sequence,2_1,2023-09-13T01:56:48.610Z,,0,,,3899.233999713897,completion,,,,,true,,,,16728.299999713898,16727.799999713898,12797.262,12808.599999904633,12828.566,16747.726,1,6,,,
trial,html.Screen,2_2_0,2023-09-13T01:56:53.828Z,,0,0,,5198.674000095369,response,ISIC_8575776.JPG,,ISIC_2556187.JPG,ISIC_8575776.JPG,true,1,keypress(m),500,21946.799999713898,21946.400000095367,16727.465,16728.699999809265,16747.726,21966.804,1,6,3,,ISIC_2556187.JPG
sequence,flow.Sequence,2_2,2023-09-13T01:56:53.829Z,,0,,,5198.674000095369,completion,,,,,true,,,,21947.199999809265,21946.400000095367,16727.465,16728.5,16747.726,21966.804,1,6,,,
trial,html.Screen,2_3_0,2023-09-13T01:56:58.334Z,,0,0,,4485.596000095367,response,ISIC_9238366.JPG,,ISIC_8141769.JPG,ISIC_9238366.JPG,true,1,keypress(m),500,26452.799999713898,26452.400000095367,21947.534,21947.400000095367,21966.804,26455.572,1,6,4,,ISIC_8141769.JPG
sequence,flow.Sequence,2_3,2023-09-13T01:56:58.335Z,,0,,,4485.596000095367,completion,,,,,true,,,,26453.400000095367,26452.400000095367,21947.534,21947.299999713898,21966.804,26455.572,1,6,,,
trial,html.Screen,2_4_0,2023-09-13T01:57:03.106Z,,0,0,,4768.027999904632,response,ISIC_8949026.JPG,,ISIC_9959593.JPG,ISIC_8949026.JPG,true,1,keypress(m),500,31224.099999904633,31223.599999904633,26453.555,26453.599999904633,26455.572,31244.032,1,6,5,,ISIC_9959593.JPG
sequence,flow.Sequence,2_4,2023-09-13T01:57:03.106Z,,0,,,4768.027999904632,completion,,,,,true,,,,31224.599999904633,31223.599999904633,26453.555,26453.5,26455.572,31244.032,1,6,,,
trial,html.Screen,2_5_0,2023-09-13T01:57:08.533Z,,0,0,,5407.368000095368,response,ISIC_0010479.JPG,,ISIC_0460240.JPG,ISIC_0460240.JPG,true,0,keypress(z),500,36651.90000009537,36651.40000009537,31224.565,31224.799999713898,31244.032,36673.473,1,6,6,,ISIC_0010479.JPG
sequence,flow.Sequence,2_5,2023-09-13T01:57:08.534Z,,0,,,5407.368000095368,completion,,,,,true,,,,36652.40000009537,36651.40000009537,31224.565,31224.699999809265,31244.032,36673.473,1,6,,,
loop,flow.Loop,2,2023-09-13T01:57:08.534Z,,,,,29215.546000095368,completion,,,,,true,,,,36652.699999809265,36651.40000009537,7419.252,7432.699999809265,7435.854,36673.473,1,6,,,
exp_instructions,html.Screen,3,2023-09-13T01:57:21.420Z,,,,,12863.126999904634,response,,,,,,continue,keypress(Space),,49537.5,49536.59999990463,36652.351,36652.7999997139,36673.473,49556.367,,,,,
trial,html.Screen,4_0_0,2023-09-13T01:57:26.751Z,,0,1,,5312.033000095369,response,ISIC_0871853.JPG,5,ISIC_0024513.JPG,ISIC_0024513.JPG,false,0,keypress(z),500,54868.7999997139,54868.40000009537,49527.791,49537.699999809265,49556.367,54888.176,8,400,1,,ISIC_0871853.JPG
break,html.Screen,4_0_1,2023-09-13T01:57:26.752Z,,0,,,NaN,,,,,,false,,,,54870.09999990463,54869.699999809265,,54869,,54888.176,8,400,,,
break_continue,html.Screen,4_0_2,2023-09-13T01:57:26.753Z,,0,,,NaN,,,,,,false,,,,54870.699999809265,54870.40000009537,,54870.2999997139,,54888.176,8,400,,,
sequence,flow.Sequence,4_0,2023-09-13T01:57:26.753Z,,0,,,5314.033000095369,completion,,,,,false,,,,54870.90000009537,54870.40000009537,49527.791,49537.699999809265,49556.367,54888.176,8,400,,,
trial,html.Screen,4_1_0,2023-09-13T01:57:32.309Z,,0,1,,5538.623999713898,response,ISIC_2922104.JPG,5,ISIC_4534608.JPG,ISIC_2922104.JPG,false,1,keypress(m),500,60427.09999990463,60426.7999997139,54869.791,54871.09999990463,54888.176,60446.981,8,400,2,,ISIC_4534608.JPG
break,html.Screen,4_1_1,2023-09-13T01:57:32.310Z,,0,,,NaN,,,,,,false,,,,60428.09999990463,60427.7999997139,,60427.40000009537,,60446.981,8,400,,,
break_continue,html.Screen,4_1_2,2023-09-13T01:57:32.311Z,,0,,,NaN,,,,,,false,,,,60428.59999990463,60428.40000009537,,60428.2999997139,,60446.981,8,400,,,
sequence,flow.Sequence,4_1,2023-09-13T01:57:32.311Z,,0,,,5540.224000095368,completion,,,,,false,,,,60428.7999997139,60428.40000009537,54869.791,54871.09999990463,54888.176,60446.981,8,400,,,
trial,html.Screen,4_2_0,2023-09-13T01:57:36.917Z,,0,1,,4587.618999904633,response,ISIC_8356468.JPG,4,ISIC_0064943.JPG,ISIC_8356468.JPG,false,1,keypress(m),500,65034.7999997139,65034.59999990463,60427.588,60429,60446.981,65053.449,8,400,3,,ISIC_0064943.JPG
break,html.Screen,4_2_1,2023-09-13T01:57:36.918Z,,0,,,NaN,,,,,,false,,,,65035.699999809265,65035.40000009537,,65035.09999990463,,65053.449,8,400,,,
break_continue,html.Screen,4_2_2,2023-09-13T01:57:36.918Z,,0,,,NaN,,,,,,false,,,,65036.2999997139,65036,,65035.90000009537,,65053.449,8,400,,,
sequence,flow.Sequence,4_2,2023-09-13T01:57:36.919Z,,0,,,4589.019,completion,,,,,false,,,,65036.5,65036,60427.588,60428.90000009537,60446.981,65053.449,8,400,,,
trial,html.Screen,4_3_0,2023-09-13T01:57:43.321Z,,0,1,,6384.951000095367,response,ISIC_8021960.JPG,5,ISIC_6790780.JPG,ISIC_8021960.JPG,false,1,keypress(m),500,71438.69999980927,71438.40000009537,65019.471,65036.59999990463,65053.449,71458.693,8,400,4,,ISIC_6790780.JPG
break,html.Screen,4_3_1,2023-09-13T01:57:43.322Z,,0,,,NaN,,,,,,false,,,,71439.69999980927,71439.40000009537,,71439,,71458.693,8,400,,,
break_continue,html.Screen,4_3_2,2023-09-13T01:57:43.322Z,,0,,,NaN,,,,,,false,,,,71440.09999990463,71439.90000009537,,71439.7999997139,,71458.693,8,400,,,
sequence,flow.Sequence,4_3,2023-09-13T01:57:43.322Z,,0,,,6386.451000095367,completion,,,,,false,,,,71440.2999997139,71439.90000009537,65019.471,65036.59999990463,65053.449,71458.693,8,400,,,
trial,html.Screen,4_4_0,2023-09-13T01:57:47.576Z,,0,1,,4234.707000095368,response,ISIC_0055440.JPG,6,ISIC_0032726.JPG,ISIC_0055440.JPG,false,1,keypress(m),500,75693.69999980927,75693.40000009537,71439.645,71440.40000009537,71458.693,75713.627,8,400,5,,ISIC_0032726.JPG
break,html.Screen,4_4_1,2023-09-13T01:57:47.577Z,,0,,,NaN,,,,,,false,,,,75694.69999980927,75694.40000009537,,75694,,75713.627,8,400,,,
break_continue,html.Screen,4_4_2,2023-09-13T01:57:47.577Z,,0,,,NaN,,,,,,false,,,,75695.19999980927,75695,,75694.90000009537,,75713.627,8,400,,,
sequence,flow.Sequence,4_4,2023-09-13T01:57:47.577Z,,0,,,4236.307000000001,completion,,,,,false,,,,75695.40000009537,75695,71439.645,71440.40000009537,71458.693,75713.627,8,400,,,
trial,html.Screen,4_5_0,2023-09-13T01:57:54.770Z,,0,1,,7174.472999904639,response,ISIC_7079349.JPG,5,ISIC_0059707.JPG,ISIC_7079349.JPG,false,1,keypress(m),500,82888.40000009537,82888.09999990463,75694.434,75695.59999990463,75713.627,82923.918,8,400,6,,ISIC_0059707.JPG
break,html.Screen,4_5_1,2023-09-13T01:57:54.771Z,,0,,,NaN,,,,,,false,,,,82889.40000009537,82889,,82888.59999990463,,82923.918,8,400,,,
break_continue,html.Screen,4_5_2,2023-09-13T01:57:54.772Z,,0,,,NaN,,,,,,false,,,,82889.7999997139,82889.7999997139,,82889.59999990463,,82923.918,8,400,,,
sequence,flow.Sequence,4_5,2023-09-13T01:57:54.772Z,,0,,,7176.172999713905,completion,,,,,false,,,,82890.09999990463,82889.7999997139,75694.434,75695.5,75713.627,82923.918,8,400,,,
trial,html.Screen,4_6_0,2023-09-13T01:58:00.103Z,,0,1,,5297.181999904627,response,ISIC_4529092.JPG,6,ISIC_0015969.JPG,ISIC_0015969.JPG,false,0,keypress(z),500,88221.19999980927,88221.09999990463,82908.293,82890.2999997139,82923.918,88240.915,8,400,7,,ISIC_4529092.JPG
break,html.Screen,4_6_1,2023-09-13T01:58:00.104Z,,0,,,NaN,,,,,,false,,,,88221.90000009537,88221.7999997139,,88221.40000009537,,88240.915,8,400,,,
break_continue,html.Screen,4_6_2,2023-09-13T01:58:00.105Z,,0,,,NaN,,,,,,false,,,,88222.7999997139,88222.69999980927,,88222,,88240.915,8,400,,,
sequence,flow.Sequence,4_6,2023-09-13T01:58:00.105Z,,0,,,5298.78199980926,completion,,,,,false,,,,88222.90000009537,88222.69999980927,82908.293,82890.19999980927,82923.918,88240.915,8,400,,,
trial,html.Screen,4_7_0,2023-09-13T01:58:06.795Z,,0,1,,6671.184999904639,response,ISIC_0032490.JPG,4,ISIC_0029189.JPG,ISIC_0029189.JPG,false,0,keypress(z),500,94912.40000009537,94912.09999990463,88205.714,88223,88240.915,94932.307,8,400,8,,ISIC_0032490.JPG
break,html.Screen,4_7_1,2023-09-13T01:58:06.795Z,,0,,,NaN,,,,,,false,,,,94913.40000009537,94913.09999990463,,94912.59999990463,,94932.307,8,400,,,
break_continue,html.Screen,4_7_2,2023-09-13T01:58:06.796Z,,0,,,NaN,,,,,,false,,,,94913.90000009537,94913.7999997139,,94913.59999990463,,94932.307,8,400,,,
sequence,flow.Sequence,4_7,2023-09-13T01:58:06.796Z,,0,,,6672.884999713904,completion,,,,,false,,,,94914.09999990463,94913.7999997139,88205.714,88223,88240.915,94932.307,8,400,,,
trial,html.Screen,4_8_0,2023-09-13T01:58:11.565Z,,0,1,,4750.593000095367,response,ISIC_0046642.JPG,5,ISIC_9330527.JPG,ISIC_9330527.JPG,false,0,keypress(z),500,99683.09999990463,99682.90000009537,94913.039,94914.2999997139,94932.307,99702.43,8,400,9,,ISIC_0046642.JPG
break,html.Screen,4_8_1,2023-09-13T01:58:11.566Z,,0,,,NaN,,,,,,false,,,,99684.09999990463,99683.7999997139,,99683.40000009537,,99702.43,8,400,,,
break_continue,html.Screen,4_8_2,2023-09-13T01:58:11.567Z,,0,,,NaN,,,,,,false,,,,99685,99684.90000009537,,99684.2999997139,,99702.43,8,400,,,
sequence,flow.Sequence,4_8,2023-09-13T01:58:11.567Z,,0,,,4752.593000095367,completion,,,,,false,,,,99685.09999990463,99684.90000009537,94913.039,94914.09999990463,94932.307,99702.43,8,400,,,
trial,html.Screen,4_9_0,2023-09-13T01:58:15.214Z,,0,1,,3629.3699997139047,response,ISIC_0069105.JPG,5,ISIC_4554381.JPG,ISIC_4554381.JPG,false,0,keypress(z),500,103332.09999990463,103331.7999997139,99684.066,99685.2999997139,99702.43,103352.016,8,400,10,,ISIC_0069105.JPG
break,html.Screen,4_9_1,2023-09-13T01:58:15.215Z,,0,,,NaN,,,,,,false,,,,103333,103332.59999990463,,103332.2999997139,,103352.016,8,400,,,
break_continue,html.Screen,4_9_2,2023-09-13T01:58:15.216Z,,0,,,NaN,,,,,,false,,,,103333.5,103333.40000009537,,103333.19999980927,,103352.016,8,400,,,
sequence,flow.Sequence,4_9,2023-09-13T01:58:15.216Z,,0,,,3630.9700000953744,completion,,,,,false,,,,103333.59999990463,103333.40000009537,99684.066,99685.19999980927,99702.43,103352.016,8,400,,,
trial,html.Screen,4_10_0,2023-09-13T01:58:18.562Z,,0,1,,3327.0839999046293,response,ISIC_4274519.JPG,5,ISIC_6208107.JPG,ISIC_6208107.JPG,false,0,keypress(z),500,106679.40000009537,106679.09999990463,103332.354,103333.7999997139,103352.016,106699.53,8,400,11,,ISIC_4274519.JPG
break,html.Screen,4_10_1,2023-09-13T01:58:18.563Z,,0,,,NaN,,,,,,false,,,,106680.40000009537,106680,,106679.59999990463,,106699.53,8,400,,,
break_continue,html.Screen,4_10_2,2023-09-13T01:58:18.564Z,,0,,,NaN,,,,,,false,,,,106680.7999997139,106680.7999997139,,106680.59999990463,,106699.53,8,400,,,
sequence,flow.Sequence,4_10,2023-09-13T01:58:18.564Z,,0,,,3328.7839997138944,completion,,,,,false,,,,106681.09999990463,106680.7999997139,103332.354,103333.69999980927,103352.016,106699.53,8,400,,,
trial,html.Screen,4_11_0,2023-09-13T01:58:21.836Z,,0,1,,3253.769999713899,response,ISIC_0033080.JPG,5,ISIC_6712342.JPG,ISIC_6712342.JPG,false,0,keypress(z),500,109953.5,109953.2999997139,106667.775,106681.19999980927,106699.53,109955.699,8,400,12,,ISIC_0033080.JPG
break,html.Screen,4_11_1,2023-09-13T01:58:21.837Z,,0,,,NaN,,,,,,false,,,,109954.40000009537,109954.19999980927,,109953.69999980927,,109955.699,8,400,,,
break_continue,html.Screen,4_11_2,2023-09-13T01:58:21.838Z,,0,,,NaN,,,,,,false,,,,109955,109954.90000009537,,109954.69999980927,,109955.699,8,400,,,
sequence,flow.Sequence,4_11,2023-09-13T01:58:21.838Z,,0,,,3255.3700000953686,completion,,,,,false,,,,109955.09999990463,109954.90000009537,106667.775,106681.19999980927,106699.53,109955.699,8,400,,,
trial,html.Screen,4_12_0,2023-09-13T01:58:26.478Z,,0,1,,4638.900999904639,response,ISIC_4756167.JPG,5,ISIC_0011801.JPG,ISIC_4756167.JPG,false,1,keypress(m),500,114595,114594.59999990463,109954.456,109955.2999997139,109955.699,114614.779,8,400,13,,ISIC_0011801.JPG
break,html.Screen,4_12_1,2023-09-13T01:58:26.479Z,,0,,,NaN,,,,,,false,,,,114595.90000009537,114595.59999990463,,114595.19999980927,,114614.779,8,400,,,
break_continue,html.Screen,4_12_2,2023-09-13T01:58:26.479Z,,0,,,NaN,,,,,,false,,,,114596.5,114596.2999997139,,114596.09999990463,,114614.779,8,400,,,
sequence,flow.Sequence,4_12,2023-09-13T01:58:26.479Z,,0,,,4640.6009997139045,completion,,,,,false,,,,114596.69999980927,114596.2999997139,109954.456,109955.19999980927,109955.699,114614.779,8,400,,,
trial,html.Screen,4_13_0,2023-09-13T01:58:30.789Z,,0,1,,4291.42099980927,response,ISIC_6673506.JPG,4,ISIC_0026369.JPG,ISIC_6673506.JPG,false,1,keypress(m),500,118906.5,118906.19999980927,114579.549,114596.90000009537,114614.779,118925.779,8,400,14,,ISIC_0026369.JPG
break,html.Screen,4_13_1,2023-09-13T01:58:30.790Z,,0,,,NaN,,,,,,false,,,,118907.40000009537,118907.19999980927,,118906.69999980927,,118925.779,8,400,,,
break_continue,html.Screen,4_13_2,2023-09-13T01:58:30.791Z,,0,,,NaN,,,,,,false,,,,118908,118907.69999980927,,118907.59999990463,,118925.779,8,400,,,
sequence,flow.Sequence,4_13,2023-09-13T01:58:30.791Z,,0,,,4292.92099980927,completion,,,,,false,,,,118908.09999990463,118907.69999980927,114579.549,114596.7999997139,114614.779,118925.779,8,400,,,
trial,html.Screen,4_14_0,2023-09-13T01:58:36.369Z,,0,1,,5560.520999713903,response,ISIC_7296463.JPG,4,ISIC_1308081.JPG,ISIC_7296463.JPG,false,1,keypress(m),500,124486.5,124486.2999997139,118891.175,118908.19999980927,118925.779,124507.943,8,400,15,,ISIC_1308081.JPG
break,html.Screen,4_14_1,2023-09-13T01:58:36.370Z,,0,,,NaN,,,,,,false,,,,124487.2999997139,124487,,124486.7999997139,,124507.943,8,400,,,
break_continue,html.Screen,4_14_2,2023-09-13T01:58:36.370Z,,0,,,NaN,,,,,,false,,,,124487.59999990463,124487.5,,124487.40000009537,,124507.943,8,400,,,
sequence,flow.Sequence,4_14,2023-09-13T01:58:36.371Z,,0,,,5561.721000000005,completion,,,,,false,,,,124487.7999997139,124487.5,118891.175,118908.19999980927,118925.779,124507.943,8,400,,,
trial,html.Screen,4_15_0,2023-09-13T01:58:42.500Z,,0,1,,6109.557000000001,response,ISIC_0064066.JPG,5,ISIC_8609756.JPG,ISIC_8609756.JPG,false,0,keypress(z),500,130617.7999997139,130617.5,124491.388,124487.90000009537,124507.943,130637.175,8,400,16,,ISIC_0064066.JPG
break,html.Screen,4_15_1,2023-09-13T01:58:42.501Z,,0,,,NaN,,,,,,false,,,,130618.59999990463,130618.40000009537,,130618,,130637.175,8,400,,,
break_continue,html.Screen,4_15_2,2023-09-13T01:58:42.502Z,,0,,,NaN,,,,,,false,,,,130619.09999990463,130619,,130618.7999997139,,130637.175,8,400,,,
sequence,flow.Sequence,4_15,2023-09-13T01:58:42.502Z,,0,,,6111.057000000001,completion,,,,,false,,,,130619.2999997139,130619,124491.388,124487.90000009537,124507.943,130637.175,8,400,,,
trial,html.Screen,4_16_0,2023-09-13T01:58:47.008Z,,0,1,,4487.624999713895,response,ISIC_7830756.JPG,4,ISIC_4453506.JPG,ISIC_7830756.JPG,false,1,keypress(m),500,135125.09999990463,135124.7999997139,130618.248,130619.5,130637.175,135144.491,8,400,17,,ISIC_4453506.JPG
break,html.Screen,4_16_1,2023-09-13T01:58:47.009Z,,0,,,NaN,,,,,,false,,,,135126.09999990463,135125.69999980927,,135125.2999997139,,135144.491,8,400,,,
break_continue,html.Screen,4_16_2,2023-09-13T01:58:47.009Z,,0,,,NaN,,,,,,false,,,,135126.59999990463,135126.40000009537,,135126.2999997139,,135144.491,8,400,,,
sequence,flow.Sequence,4_16,2023-09-13T01:58:47.009Z,,0,,,4489.2250000953645,completion,,,,,false,,,,135126.69999980927,135126.40000009537,130618.248,130619.40000009537,130637.175,135144.491,8,400,,,
trial,html.Screen,4_17_0,2023-09-13T01:58:50.852Z,,0,1,,3824.508999999991,response,ISIC_0027247.JPG,5,ISIC_8586909.JPG,ISIC_8586909.JPG,false,0,keypress(z),500,138969.19999980927,138969,135116.188,135126.90000009537,135144.491,138988.767,8,400,18,,ISIC_0027247.JPG
break,html.Screen,4_17_1,2023-09-13T01:58:50.853Z,,0,,,NaN,,,,,,false,,,,138970.19999980927,138969.90000009537,,138969.5,,138988.767,8,400,,,
break_continue,html.Screen,4_17_2,2023-09-13T01:58:50.853Z,,0,,,NaN,,,,,,false,,,,138970.59999990463,138970.5,,138970.2999997139,,138988.767,8,400,,,
sequence,flow.Sequence,4_17,2023-09-13T01:58:50.854Z,,0,,,3826.008999999991,completion,,,,,false,,,,138970.7999997139,138970.5,135116.188,135126.90000009537,135144.491,138988.767,8,400,,,
trial,html.Screen,4_18_0,2023-09-13T01:58:57.348Z,,0,1,,6476.733000000007,response,ISIC_0057083.JPG,5,ISIC_9709101.JPG,ISIC_9709101.JPG,false,0,keypress(z),500,145465.69999980927,145465.5,138969.945,138970.90000009537,138988.767,145485.171,8,400,19,,ISIC_0057083.JPG
break,html.Screen,4_18_1,2023-09-13T01:58:57.349Z,,0,,,NaN,,,,,,false,,,,145466.69999980927,145466.40000009537,,145466,,145485.171,8,400,,,
break_continue,html.Screen,4_18_2,2023-09-13T01:58:57.350Z,,0,,,NaN,,,,,,false,,,,145467.19999980927,145467,,145466.90000009537,,145485.171,8,400,,,
sequence,flow.Sequence,4_18,2023-09-13T01:58:57.350Z,,0,,,6478.233000000007,completion,,,,,false,,,,145467.40000009537,145467,138969.945,138970.90000009537,138988.767,145485.171,8,400,,,
trial,html.Screen,4_19_0,2023-09-13T01:59:01.348Z,,0,1,,3980.028999809263,response,ISIC_0054318.JPG,4,ISIC_5611104.JPG,ISIC_5611104.JPG,false,0,keypress(z),500,149465.5,149465.19999980927,145452.299,145467.5,145485.171,149485.342,8,400,20,,ISIC_0054318.JPG
break,html.Screen,4_19_1,2023-09-13T01:59:01.349Z,,0,,,NaN,,,,,,false,,,,149466.40000009537,149466.09999990463,,149465.69999980927,,149485.342,8,400,,,
break_continue,html.Screen,4_19_2,2023-09-13T01:59:01.350Z,,0,,,NaN,,,,,,false,,,,149466.90000009537,149466.7999997139,,149466.69999980927,,149485.342,8,400,,,
sequence,flow.Sequence,4_19,2023-09-13T01:59:01.350Z,,0,,,3981.6289997138956,completion,,,,,false,,,,149467.09999990463,149466.7999997139,145452.299,145467.5,145485.171,149485.342,8,400,,,
trial,html.Screen,4_20_0,2023-09-13T01:59:05.502Z,,0,1,,4134.257999904628,response,ISIC_1037315.JPG,4,ISIC_0033047.JPG,ISIC_0033047.JPG,false,0,keypress(z),500,153619.69999980927,153619.59999990463,149464.031,149467.2999997139,149485.342,153639.685,8,400,21,,ISIC_1037315.JPG
break,html.Screen,4_20_1,2023-09-13T01:59:05.503Z,,0,,,NaN,,,,,,false,,,,153620.69999980927,153620.40000009537,,153620,,153639.685,8,400,,,
break_continue,html.Screen,4_20_2,2023-09-13T01:59:05.504Z,,0,,,NaN,,,,,,false,,,,153621.2999997139,153621.09999990463,,153621.09999990463,,153639.685,8,400,,,
sequence,flow.Sequence,4_20,2023-09-13T01:59:05.504Z,,0,,,4135.757999904628,completion,,,,,false,,,,153621.5,153621.09999990463,149464.031,149467.19999980927,149485.342,153639.685,8,400,,,
trial,html.Screen,4_21_0,2023-09-13T01:59:09.677Z,,0,1,,4154.1149997139,response,ISIC_0033309.JPG,5,ISIC_0026655.JPG,ISIC_0033309.JPG,false,1,keypress(m),500,157794.09999990463,157793.7999997139,153604.554,153621.69999980927,153639.685,157813.909,8,400,22,,ISIC_0026655.JPG
break,html.Screen,4_21_1,2023-09-13T01:59:09.678Z,,0,,,NaN,,,,,,false,,,,157795,157794.69999980927,,157794.2999997139,,157813.909,8,400,,,
break_continue,html.Screen,4_21_2,2023-09-13T01:59:09.678Z,,0,,,NaN,,,,,,false,,,,157795.40000009537,157795.2999997139,,157795.19999980927,,157813.909,8,400,,,
sequence,flow.Sequence,4_21,2023-09-13T01:59:09.678Z,,0,,,4155.6149997139,completion,,,,,false,,,,157795.59999990463,157795.2999997139,153604.554,153621.5,153639.685,157813.909,8,400,,,
trial,html.Screen,4_22_0,2023-09-13T01:59:12.681Z,,0,1,,2983.790999809251,response,ISIC_2166957.JPG,5,ISIC_0058837.JPG,ISIC_2166957.JPG,false,1,keypress(m),500,160798.09999990463,160797.69999980927,157778.695,157795.7999997139,157813.909,160817.435,8,400,23,,ISIC_0058837.JPG
break,html.Screen,4_22_1,2023-09-13T01:59:12.682Z,,0,,,NaN,,,,,,false,,,,160799.69999980927,160798.7999997139,,160798.2999997139,,160817.435,8,400,,,
break_continue,html.Screen,4_22_2,2023-09-13T01:59:12.683Z,,0,,,NaN,,,,,,false,,,,160800.5,160800.2999997139,,160799.7999997139,,160817.435,8,400,,,
sequence,flow.Sequence,4_22,2023-09-13T01:59:12.684Z,,0,,,2986.3909997138835,completion,,,,,false,,,,160800.90000009537,160800.2999997139,157778.695,157795.69999980927,157813.909,160817.435,8,400,,,
trial,html.Screen,4_23_0,2023-09-13T01:59:16.829Z,,0,1,,4128.7649998092675,response,ISIC_0046683.JPG,4,ISIC_0067549.JPG,ISIC_0046683.JPG,false,1,keypress(m),500,164946.40000009537,164946.19999980927,160798.441,160801.2999997139,160817.435,164966.388,8,400,24,,ISIC_0067549.JPG
break,html.Screen,4_23_1,2023-09-13T01:59:16.830Z,,0,,,NaN,,,,,,false,,,,164947.5,164947.09999990463,,164946.7999997139,,164966.388,8,400,,,
break_continue,html.Screen,4_23_2,2023-09-13T01:59:16.831Z,,0,,,NaN,,,,,,false,,,,164948.09999990463,164947.7999997139,,164947.59999990463,,164966.388,8,400,,,
sequence,flow.Sequence,4_23,2023-09-13T01:59:16.831Z,,0,,,4130.3649997139,completion,,,,,false,,,,164948.19999980927,164947.7999997139,160798.441,160801.09999990463,160817.435,164966.388,8,400,,,
trial,html.Screen,4_24_0,2023-09-13T01:59:21.685Z,,0,1,,4836.111999999994,response,ISIC_7518524.JPG,4,ISIC_0000155.JPG,ISIC_7518524.JPG,false,1,keypress(m),500,169802.7999997139,169802.5,164946.874,164948.40000009537,164966.388,169822.073,8,400,25,,ISIC_0000155.JPG
break,html.Screen,4_24_1,2023-09-13T01:59:21.686Z,,0,,,NaN,,,,,,false,,,,169803.69999980927,169803.40000009537,,169803,,169822.073,8,400,,,
break_continue,html.Screen,4_24_2,2023-09-13T01:59:21.687Z,,0,,,NaN,,,,,,false,,,,169804.2999997139,169804.09999990463,,169803.90000009537,,169822.073,8,400,,,
sequence,flow.Sequence,4_24,2023-09-13T01:59:21.687Z,,0,,,4837.711999904626,completion,,,,,false,,,,169804.40000009537,169804.09999990463,164946.874,164948.40000009537,164966.388,169822.073,8,400,,,
trial,html.Screen,4_25_0,2023-09-13T01:59:25.051Z,,0,1,,3346.0269999046286,response,ISIC_4141898.JPG,5,ISIC_9475559.JPG,ISIC_9475559.JPG,false,0,keypress(z),500,173168.5,173168.09999990463,169803.664,169804.5,169822.073,173187.587,8,400,26,,ISIC_4141898.JPG
break,html.Screen,4_25_1,2023-09-13T01:59:25.052Z,,0,,,NaN,,,,,,false,,,,173169.59999990463,173169.2999997139,,173168.7999997139,,173187.587,8,400,,,
break_continue,html.Screen,4_25_2,2023-09-13T01:59:25.053Z,,0,,,NaN,,,,,,false,,,,173170.2999997139,173170.09999990463,,173169.7999997139,,173187.587,8,400,,,
sequence,flow.Sequence,4_25,2023-09-13T01:59:25.053Z,,0,,,3348.0269999046286,completion,,,,,false,,,,173170.5,173170.09999990463,169803.664,169804.5,169822.073,173187.587,8,400,,,
trial,html.Screen,4_26_0,2023-09-13T01:59:29.016Z,,0,1,,3945.4130000000005,response,ISIC_0062048.JPG,4,ISIC_0011137.JPG,ISIC_0011137.JPG,false,0,keypress(z),500,177133.2999997139,177133,173168.049,173170.59999990463,173187.587,177153.124,8,400,27,,ISIC_0062048.JPG
break,html.Screen,4_26_1,2023-09-13T01:59:29.017Z,,0,,,NaN,,,,,,false,,,,177134.09999990463,177133.7999997139,,177133.59999990463,,177153.124,8,400,,,
break_continue,html.Screen,4_26_2,2023-09-13T01:59:29.017Z,,0,,,NaN,,,,,,false,,,,177134.59999990463,177134.59999990463,,177134.40000009537,,177153.124,8,400,,,
sequence,flow.Sequence,4_26,2023-09-13T01:59:29.017Z,,0,,,3947.012999904633,completion,,,,,false,,,,177134.90000009537,177134.59999990463,173168.049,173170.59999990463,173187.587,177153.124,8,400,,,
trial,html.Screen,4_27_0,2023-09-13T01:59:33.917Z,,0,1,,4881.375999999989,response,ISIC_0697953.JPG,5,ISIC_0064073.JPG,ISIC_0697953.JPG,false,1,keypress(m),500,182034.69999980927,182034.5,177133.872,177135.09999990463,177153.124,182054.216,8,400,28,,ISIC_0064073.JPG
break,html.Screen,4_27_1,2023-09-13T01:59:33.918Z,,0,,,NaN,,,,,,false,,,,182035.59999990463,182035.2999997139,,182035,,182054.216,8,400,,,
break_continue,html.Screen,4_27_2,2023-09-13T01:59:33.919Z,,0,,,NaN,,,,,,false,,,,182036.19999980927,182036.09999990463,,182035.7999997139,,182054.216,8,400,,,
sequence,flow.Sequence,4_27,2023-09-13T01:59:33.919Z,,0,,,4882.975999904622,completion,,,,,false,,,,182036.40000009537,182036.09999990463,177133.872,177135,177153.124,182054.216,8,400,,,
trial,html.Screen,4_28_0,2023-09-13T01:59:39.906Z,,0,1,,5968.883999904647,response,ISIC_2129020.JPG,4,ISIC_0009882.JPG,ISIC_0009882.JPG,false,0,keypress(z),500,188023.40000009537,188023.09999990463,182035.229,182036.5,182054.216,188042.717,8,400,29,,ISIC_2129020.JPG
break,html.Screen,4_28_1,2023-09-13T01:59:39.907Z,,0,,,NaN,,,,,,false,,,,188024.59999990463,188024.19999980927,,188023.7999997139,,188042.717,8,400,,,
break_continue,html.Screen,4_28_2,2023-09-13T01:59:39.907Z,,0,,,NaN,,,,,,false,,,,188025,188024.90000009537,,188024.69999980927,,188042.717,8,400,,,
sequence,flow.Sequence,4_28,2023-09-13T01:59:39.908Z,,0,,,5970.684000095382,completion,,,,,false,,,,188025.19999980927,188024.90000009537,182035.229,182036.5,182054.216,188042.717,8,400,,,
trial,html.Screen,4_29_0,2023-09-13T01:59:45.996Z,,0,1,,6070.982999809261,response,ISIC_6377622.JPG,6,ISIC_0015189.JPG,ISIC_6377622.JPG,false,1,keypress(m),500,194114,194113.69999980927,188024.1,188025.40000009537,188042.717,194134.018,8,400,30,,ISIC_0015189.JPG
break,html.Screen,4_29_1,2023-09-13T01:59:45.997Z,,0,,,NaN,,,,,,false,,,,194114.90000009537,194114.59999990463,,194114.2999997139,,194134.018,8,400,,,
break_continue,html.Screen,4_29_2,2023-09-13T01:59:45.998Z,,0,,,NaN,,,,,,false,,,,194115.40000009537,194115.2999997139,,194115.09999990463,,194134.018,8,400,,,
sequence,flow.Sequence,4_29,2023-09-13T01:59:45.998Z,,0,,,6072.5829997138935,completion,,,,,false,,,,194115.5,194115.2999997139,188024.1,188025.40000009537,188042.717,194134.018,8,400,,,
trial,html.Screen,4_30_0,2023-09-13T01:59:53.406Z,,0,1,,7389.281999713887,response,ISIC_0009441.JPG,4,ISIC_3899323.JPG,ISIC_0009441.JPG,false,1,keypress(m),500,201523.69999980927,201523.2999997139,194114.245,194115.69999980927,194134.018,201543.299,8,400,31,,ISIC_3899323.JPG
break,html.Screen,4_30_1,2023-09-13T01:59:53.407Z,,0,,,NaN,,,,,,false,,,,201524.7999997139,201524.59999990463,,201524.09999990463,,201543.299,8,400,,,
break_continue,html.Screen,4_30_2,2023-09-13T01:59:53.408Z,,0,,,NaN,,,,,,false,,,,201525.2999997139,201525.19999980927,,201525,,201543.299,8,400,,,
sequence,flow.Sequence,4_30,2023-09-13T01:59:53.408Z,,0,,,7391.181999809254,completion,,,,,false,,,,201525.5,201525.19999980927,194114.245,194115.59999990463,194134.018,201543.299,8,400,,,
trial,html.Screen,4_31_0,2023-09-13T01:59:59.185Z,,0,1,,5758.701000000001,response,ISIC_0007501.JPG,5,ISIC_7231192.JPG,ISIC_7231192.JPG,false,0,keypress(z),500,207302.40000009537,207302,201524.676,201525.59999990463,201543.299,207322.117,8,400,32,,ISIC_0007501.JPG
break,html.Screen,4_31_1,2023-09-13T01:59:59.186Z,,0,,,NaN,,,,,,false,,,,207303.40000009537,207303.09999990463,,207302.69999980927,,207322.117,8,400,,,
break_continue,html.Screen,4_31_2,2023-09-13T01:59:59.186Z,,0,,,NaN,,,,,,false,,,,207303.90000009537,207303.69999980927,,207303.5,,207322.117,8,400,,,
sequence,flow.Sequence,4_31,2023-09-13T01:59:59.186Z,,0,,,5760.400999809266,completion,,,,,false,,,,207304,207303.69999980927,201524.676,201525.5,201543.299,207322.117,8,400,,,
trial,html.Screen,4_32_0,2023-09-13T02:00:05.468Z,,0,1,,6262.883000000002,response,ISIC_5240387.JPG,5,ISIC_0068176.JPG,ISIC_5240387.JPG,false,1,keypress(m),500,213585.19999980927,213585,207303.146,207304.09999990463,207322.117,213620.938,8,400,33,,ISIC_0068176.JPG
break,html.Screen,4_32_1,2023-09-13T02:00:05.469Z,,0,,,NaN,,,,,,false,,,,213586.19999980927,213585.90000009537,,213585.40000009537,,213620.938,8,400,,,
break_continue,html.Screen,4_32_2,2023-09-13T02:00:05.469Z,,0,,,NaN,,,,,,false,,,,213586.69999980927,213586.59999990463,,213586.5,,213620.938,8,400,,,
sequence,flow.Sequence,4_32,2023-09-13T02:00:05.469Z,,0,,,6264.482999904634,completion,,,,,false,,,,213586.90000009537,213586.59999990463,207303.146,207304.09999990463,207322.117,213620.938,8,400,,,
trial,html.Screen,4_33_0,2023-09-13T02:00:11.837Z,,0,1,,6333.562000000005,response,ISIC_0002435.JPG,5,ISIC_0032901.JPG,ISIC_0002435.JPG,false,1,keypress(m),500,219954.7999997139,219954.5,213605.145,213587,213620.938,219974.669,8,400,34,,ISIC_0032901.JPG
break,html.Screen,4_33_1,2023-09-13T02:00:11.838Z,,0,,,NaN,,,,,,false,,,,219955.69999980927,219955.40000009537,,219955,,219974.669,8,400,,,
break_continue,html.Screen,4_33_2,2023-09-13T02:00:11.839Z,,0,,,NaN,,,,,,false,,,,219956.19999980927,219956.09999990463,,219955.90000009537,,219974.669,8,400,,,
sequence,flow.Sequence,4_33,2023-09-13T02:00:11.839Z,,0,,,6335.161999904638,completion,,,,,false,,,,219956.40000009537,219956.09999990463,213605.145,213586.90000009537,213620.938,219974.669,8,400,,,
trial,html.Screen,4_34_0,2023-09-13T02:00:16.486Z,,0,1,,4628.831000000006,response,ISIC_0046932.JPG,4,ISIC_0010198.JPG,ISIC_0046932.JPG,false,1,keypress(m),500,224603.90000009537,224603.5,219943.55,219956.59999990463,219974.669,224623.595,8,400,35,,ISIC_0010198.JPG
break,html.Screen,4_34_1,2023-09-13T02:00:16.487Z,,0,,,NaN,,,,,,false,,,,224604.7999997139,224604.5,,224604.09999990463,,224623.595,8,400,,,
break_continue,html.Screen,4_34_2,2023-09-13T02:00:16.488Z,,0,,,NaN,,,,,,false,,,,224605.69999980927,224605.19999980927,,224605.09999990463,,224623.595,8,400,,,
sequence,flow.Sequence,4_34,2023-09-13T02:00:16.488Z,,0,,,4630.530999809271,completion,,,,,false,,,,224605.90000009537,224605.19999980927,219943.55,219956.59999990463,219974.669,224623.595,8,400,,,
trial,html.Screen,4_35_0,2023-09-13T02:00:22.029Z,,0,1,,5522.604999809264,response,ISIC_2622189.JPG,5,ISIC_8935085.JPG,ISIC_2622189.JPG,false,1,keypress(m),500,230146.5,230146.19999980927,224604.719,224606.09999990463,224623.595,230166.377,8,400,36,,ISIC_8935085.JPG
break,html.Screen,4_35_1,2023-09-13T02:00:22.030Z,,0,,,NaN,,,,,,false,,,,230147.2999997139,230147,,230146.69999980927,,230166.377,8,400,,,
break_continue,html.Screen,4_35_2,2023-09-13T02:00:22.031Z,,0,,,NaN,,,,,,false,,,,230147.7999997139,230147.69999980927,,230147.5,,230166.377,8,400,,,
sequence,flow.Sequence,4_35,2023-09-13T02:00:22.031Z,,0,,,5524.104999809264,completion,,,,,false,,,,230148,230147.69999980927,224604.719,224606,224623.595,230166.377,8,400,,,
trial,html.Screen,4_36_0,2023-09-13T02:00:27.504Z,,0,1,,5454.822999809257,response,ISIC_9588279.JPG,5,ISIC_3652847.JPG,ISIC_9588279.JPG,false,1,keypress(m),500,235621.40000009537,235621.19999980927,230131.321,230148.19999980927,230166.377,235640.981,8,400,37,,ISIC_3652847.JPG
break,html.Screen,4_36_1,2023-09-13T02:00:27.505Z,,0,,,NaN,,,,,,false,,,,235622.40000009537,235622,,235621.69999980927,,235640.981,8,400,,,
break_continue,html.Screen,4_36_2,2023-09-13T02:00:27.506Z,,0,,,NaN,,,,,,false,,,,235623,235622.90000009537,,235622.69999980927,,235640.981,8,400,,,
sequence,flow.Sequence,4_36,2023-09-13T02:00:27.506Z,,0,,,5456.52300009536,completion,,,,,false,,,,235623.19999980927,235622.90000009537,230131.321,230148.09999990463,230166.377,235640.981,8,400,,,
trial,html.Screen,4_37_0,2023-09-13T02:00:36.055Z,,0,1,,8530.618999904633,response,ISIC_0071118.JPG,4,ISIC_5754023.JPG,ISIC_5754023.JPG,false,0,keypress(z),500,244171.90000009537,244171.59999990463,235622.257,235623.2999997139,235640.981,244191.651,8,400,38,,ISIC_0071118.JPG
break,html.Screen,4_37_1,2023-09-13T02:00:36.055Z,,0,,,NaN,,,,,,false,,,,244172.59999990463,244172.40000009537,,244172.09999990463,,244191.651,8,400,,,
break_continue,html.Screen,4_37_2,2023-09-13T02:00:36.056Z,,0,,,NaN,,,,,,false,,,,244173.09999990463,244172.90000009537,,244172.7999997139,,244191.651,8,400,,,
sequence,flow.Sequence,4_37,2023-09-13T02:00:36.056Z,,0,,,8531.919000095368,completion,,,,,false,,,,244173.19999980927,244172.90000009537,235622.257,235623.2999997139,235640.981,244191.651,8,400,,,
trial,html.Screen,4_38_0,2023-09-13T02:00:42.086Z,,0,1,,6011.848999999987,response,ISIC_0294399.JPG,4,ISIC_7777873.JPG,ISIC_7777873.JPG,false,0,keypress(z),500,250203.69999980927,250203.5,244160.191,244173.40000009537,244191.651,250223.883,8,400,39,,ISIC_0294399.JPG
break,html.Screen,4_38_1,2023-09-13T02:00:42.087Z,,0,,,NaN,,,,,,false,,,,250204.59999990463,250204.40000009537,,250204,,250223.883,8,400,,,
break_continue,html.Screen,4_38_2,2023-09-13T02:00:42.088Z,,0,,,NaN,,,,,,false,,,,250205.19999980927,250205,,250204.90000009537,,250223.883,8,400,,,
sequence,flow.Sequence,4_38,2023-09-13T02:00:42.088Z,,0,,,6013.348999999987,completion,,,,,false,,,,250205.2999997139,250205,244160.191,244173.2999997139,244191.651,250223.883,8,400,,,
trial,html.Screen,4_39_0,2023-09-13T02:00:46.530Z,,0,1,,4422.8169998092635,response,ISIC_0012208.JPG,5,ISIC_0010304.JPG,ISIC_0012208.JPG,false,1,keypress(m),500,254647,254646.69999980927,250204.403,250205.5,250223.883,254666.298,8,400,40,,ISIC_0010304.JPG
break,html.Screen,4_39_1,2023-09-13T02:00:46.531Z,,0,,,NaN,,,,,,false,,,,254647.90000009537,254647.5,,254647.19999980927,,254666.298,8,400,,,
break_continue,html.Screen,4_39_2,2023-09-13T02:00:46.531Z,,0,,,NaN,,,,,,false,,,,254648.2999997139,254648.19999980927,,254648,,254666.298,8,400,,,
sequence,flow.Sequence,4_39,2023-09-13T02:00:46.531Z,,0,,,4424.3169998092635,completion,,,,,false,,,,254648.5,254648.19999980927,250204.403,250205.5,250223.883,254666.298,8,400,,,
trial,html.Screen,4_40_0,2023-09-13T02:00:50.994Z,,0,1,,4444.501999713888,response,ISIC_4966148.JPG,5,ISIC_0010644.JPG,ISIC_4966148.JPG,false,1,keypress(m),500,259111,259110.7999997139,254633.451,254648.69999980927,254666.298,259130.56,8,400,41,,ISIC_0010644.JPG
break,html.Screen,4_40_1,2023-09-13T02:00:50.995Z,,0,,,NaN,,,,,,false,,,,259112,259111.59999990463,,259111.2999997139,,259130.56,8,400,,,
break_continue,html.Screen,4_40_2,2023-09-13T02:00:50.995Z,,0,,,NaN,,,,,,false,,,,259112.59999990463,259112.5,,259112.2999997139,,259130.56,8,400,,,
sequence,flow.Sequence,4_40,2023-09-13T02:00:50.996Z,,0,,,4446.20199999999,completion,,,,,false,,,,259112.7999997139,259112.5,254633.451,254648.69999980927,254666.298,259130.56,8,400,,,
trial,html.Screen,4_41_0,2023-09-13T02:00:56.417Z,,0,1,,5403.2399997139,response,ISIC_4412555.JPG,5,ISIC_4762702.JPG,ISIC_4412555.JPG,false,1,keypress(m),500,264534.09999990463,264533.7999997139,259111.337,259113,259130.56,264557.724,8,400,42,,ISIC_4762702.JPG
break,html.Screen,4_41_1,2023-09-13T02:00:56.418Z,,0,,,NaN,,,,,,false,,,,264534.7999997139,264534.59999990463,,264534.2999997139,,264557.724,8,400,,,
break_continue,html.Screen,4_41_2,2023-09-13T02:00:56.418Z,,0,,,NaN,,,,,,false,,,,264535.19999980927,264535.09999990463,,264534.90000009537,,264557.724,8,400,,,
sequence,flow.Sequence,4_41,2023-09-13T02:00:56.418Z,,0,,,5404.539999904635,completion,,,,,false,,,,264535.40000009537,264535.09999990463,259111.337,259113,259130.56,264557.724,8,400,,,
trial,html.Screen,4_42_0,2023-09-13T02:01:01.816Z,,0,1,,5375.375999904645,response,ISIC_0897526.JPG,4,ISIC_8740331.JPG,ISIC_8740331.JPG,false,0,keypress(z),500,269933.2999997139,269933.09999990463,264541.201,264535.40000009537,264557.724,269953.051,8,400,43,,ISIC_0897526.JPG
break,html.Screen,4_42_1,2023-09-13T02:01:01.817Z,,0,,,NaN,,,,,,false,,,,269934.2999997139,269933.90000009537,,269933.59999990463,,269953.051,8,400,,,
break_continue,html.Screen,4_42_2,2023-09-13T02:01:01.818Z,,0,,,NaN,,,,,,false,,,,269934.7999997139,269934.59999990463,,269934.5,,269953.051,8,400,,,
sequence,flow.Sequence,4_42,2023-09-13T02:01:01.818Z,,0,,,5376.875999904645,completion,,,,,false,,,,269935,269934.59999990463,264541.201,264535.40000009537,264557.724,269953.051,8,400,,,
trial,html.Screen,4_43_0,2023-09-13T02:01:05.426Z,,0,1,,3589.74899971392,response,ISIC_0024306.JPG,4,ISIC_7906421.JPG,ISIC_7906421.JPG,false,0,keypress(z),500,273543,273542.7999997139,269934.076,269935.19999980927,269953.051,273578.552,8,400,44,,ISIC_0024306.JPG
break,html.Screen,4_43_1,2023-09-13T02:01:05.427Z,,0,,,NaN,,,,,,false,,,,273543.90000009537,273543.69999980927,,273543.2999997139,,273578.552,8,400,,,
break_continue,html.Screen,4_43_2,2023-09-13T02:01:05.427Z,,0,,,NaN,,,,,,false,,,,273544.5,273544.2999997139,,273544.19999980927,,273578.552,8,400,,,
sequence,flow.Sequence,4_43,2023-09-13T02:01:05.427Z,,0,,,3591.24899971392,completion,,,,,false,,,,273544.59999990463,273544.2999997139,269934.076,269935.09999990463,269953.051,273578.552,8,400,,,
trial,html.Screen,4_44_0,2023-09-13T02:01:10.936Z,,0,1,,5474.64799980924,response,ISIC_0059412.JPG,5,ISIC_4974868.JPG,ISIC_4974868.JPG,false,0,keypress(z),500,279053.59999990463,279053.19999980927,273562.939,273544.7999997139,273578.552,279073.366,8,400,45,,ISIC_0059412.JPG
break,html.Screen,4_44_1,2023-09-13T02:01:10.937Z,,0,,,NaN,,,,,,false,,,,279054.40000009537,279054.09999990463,,279053.7999997139,,279073.366,8,400,,,
break_continue,html.Screen,4_44_2,2023-09-13T02:01:10.938Z,,0,,,NaN,,,,,,false,,,,279054.90000009537,279054.7999997139,,279054.59999990463,,279073.366,8,400,,,
sequence,flow.Sequence,4_44,2023-09-13T02:01:10.938Z,,0,,,5476.247999713873,completion,,,,,false,,,,279055.09999990463,279054.7999997139,273562.939,273544.7999997139,273578.552,279073.366,8,400,,,
trial,html.Screen,4_45_0,2023-09-13T02:01:16.550Z,,0,1,,5593.433999713918,response,ISIC_0914251.JPG,5,ISIC_3046905.JPG,ISIC_3046905.JPG,false,0,keypress(z),500,284667.09999990463,284666.7999997139,279054.045,279055.19999980927,279073.366,284687.054,8,400,46,,ISIC_0914251.JPG
break,html.Screen,4_45_1,2023-09-13T02:01:16.551Z,,0,,,NaN,,,,,,false,,,,284668.19999980927,284667.7999997139,,284667.2999997139,,284687.054,8,400,,,
break_continue,html.Screen,4_45_2,2023-09-13T02:01:16.551Z,,0,,,NaN,,,,,,false,,,,284668.69999980927,284668.59999990463,,284668.40000009537,,284687.054,8,400,,,
sequence,flow.Sequence,4_45,2023-09-13T02:01:16.552Z,,0,,,5595.233999904653,completion,,,,,false,,,,284668.90000009537,284668.59999990463,279054.045,279055.19999980927,279073.366,284687.054,8,400,,,
trial,html.Screen,4_46_0,2023-09-13T02:01:23.401Z,,0,1,,6830.846000095364,response,ISIC_7489895.JPG,5,ISIC_4433832.JPG,ISIC_7489895.JPG,false,1,keypress(m),500,291518.09999990463,291517.90000009537,284667.846,284669,284687.054,291538.366,8,400,47,,ISIC_4433832.JPG
break,html.Screen,4_46_1,2023-09-13T02:01:23.402Z,,0,,,NaN,,,,,,false,,,,291519.09999990463,291518.7999997139,,291518.40000009537,,291538.366,8,400,,,
break_continue,html.Screen,4_46_2,2023-09-13T02:01:23.402Z,,0,,,NaN,,,,,,false,,,,291519.69999980927,291519.5,,291519.40000009537,,291538.366,8,400,,,
sequence,flow.Sequence,4_46,2023-09-13T02:01:23.403Z,,0,,,6832.445999999996,completion,,,,,false,,,,291519.7999997139,291519.5,284667.846,284669,284687.054,291538.366,8,400,,,
trial,html.Screen,4_47_0,2023-09-13T02:01:28.715Z,,0,1,,5293.333999809285,response,ISIC_2833213.JPG,5,ISIC_0003068.JPG,ISIC_0003068.JPG,false,0,keypress(z),500,296832,296831.69999980927,291518.334,291520,291538.366,296851.89,8,400,48,,ISIC_2833213.JPG
break,html.Screen,4_47_1,2023-09-13T02:01:28.716Z,,0,,,NaN,,,,,,false,,,,296832.90000009537,296832.5,,296832.19999980927,,296851.89,8,400,,,
break_continue,html.Screen,4_47_2,2023-09-13T02:01:28.716Z,,0,,,NaN,,,,,,false,,,,296833.40000009537,296833.19999980927,,296833,,296851.89,8,400,,,
sequence,flow.Sequence,4_47,2023-09-13T02:01:28.716Z,,0,,,5294.833999809285,completion,,,,,false,,,,296833.5,296833.19999980927,291518.334,291519.90000009537,291538.366,296851.89,8,400,,,
trial,html.Screen,4_48_0,2023-09-13T02:01:35.735Z,,0,1,,6999.909999713884,response,ISIC_1440063.JPG,6,ISIC_4787403.JPG,ISIC_4787403.JPG,false,0,keypress(z),500,303852,303851.7999997139,296816.637,296833.69999980927,296851.89,303887.716,8,400,49,,ISIC_1440063.JPG
break,html.Screen,4_48_1,2023-09-13T02:01:35.736Z,,0,,,NaN,,,,,,false,,,,303853,303852.59999990463,,303852.2999997139,,303887.716,8,400,,,
break_continue,html.Screen,4_48_2,2023-09-13T02:01:35.736Z,,0,,,NaN,,,,,,false,,,,303853.40000009537,303853.2999997139,,303853.19999980927,,303887.716,8,400,,,
sequence,flow.Sequence,4_48,2023-09-13T02:01:35.736Z,,0,,,7001.409999713884,completion,,,,,false,,,,303853.69999980927,303853.2999997139,296816.637,296833.59999990463,296851.89,303887.716,8,400,,,
trial,html.Screen,4_49_0,2023-09-13T02:01:40.559Z,,0,1,,4787.98399980925,response,ISIC_4519298.JPG,5,ISIC_0066430.JPG,ISIC_4519298.JPG,false,1,keypress(m),500,308675.90000009537,308675.69999980927,303871.374,303853.90000009537,303887.716,308695.702,8,400,50,,ISIC_0066430.JPG
break,html.Screen,4_49_1,2023-09-13T02:01:50.562Z,,0,,,10000.013000000035,timeout,,,,,false,,,,318679.59999990463,318678.627,308676.775,308676.09999990463,308695.702,318695.715,8,400,,,
break_continue,html.Screen,4_49_2,2023-09-13T02:01:52.059Z,,0,,,1471.1850000953418,response,,,,,false,continue,keypress(Space),,320176.5,320166.90000009537,318678.627,318679.7999997139,318695.715,320182.226,8,400,,,
sequence,flow.Sequence,4_49,2023-09-13T02:01:52.059Z,,0,,,16279.184000095353,completion,,,,,false,,,,320176.59999990463,320166.90000009537,303871.374,303853.69999980927,303887.716,320182.226,8,400,,,
trial,html.Screen,4_50_0,2023-09-13T02:01:56.732Z,,0,2,,4666.273999999976,response,ISIC_0268187.JPG,5,ISIC_0057692.JPG,ISIC_0268187.JPG,false,1,keypress(m),500,324848.7999997139,324848.5,320161.746,320176.69999980927,320182.226,324868.145,8,400,1,,ISIC_0057692.JPG
break,html.Screen,4_50_1,2023-09-13T02:01:56.732Z,,0,,,NaN,,,,,,false,,,,324849.59999990463,324849.40000009537,,324849.09999990463,,324868.145,8,400,,,
break_continue,html.Screen,4_50_2,2023-09-13T02:01:56.733Z,,0,,,NaN,,,,,,false,,,,324850.09999990463,324850,,324849.7999997139,,324868.145,8,400,,,
sequence,flow.Sequence,4_50,2023-09-13T02:01:56.733Z,,0,,,4667.773999999976,completion,,,,,false,,,,324850.40000009537,324850,320161.746,320176.69999980927,320182.226,324868.145,8,400,,,
trial,html.Screen,4_51_0,2023-09-13T02:01:59.842Z,,0,2,,3091.154999713879,response,ISIC_0031425.JPG,5,ISIC_0010209.JPG,ISIC_0031425.JPG,false,1,keypress(m),500,327959.5,327959.2999997139,324848.418,324850.59999990463,324868.145,327979.374,8,400,2,,ISIC_0010209.JPG
break,html.Screen,4_51_1,2023-09-13T02:01:59.843Z,,0,,,NaN,,,,,,false,,,,327960.59999990463,327960.2999997139,,327959.69999980927,,327979.374,8,400,,,
break_continue,html.Screen,4_51_2,2023-09-13T02:01:59.844Z,,0,,,NaN,,,,,,false,,,,327961.09999990463,327960.90000009537,,327960.7999997139,,327979.374,8,400,,,
sequence,flow.Sequence,4_51,2023-09-13T02:01:59.844Z,,0,,,3092.755000095349,completion,,,,,false,,,,327961.2999997139,327960.90000009537,324848.418,324850.5,324868.145,327979.374,8,400,,,
trial,html.Screen,4_52_0,2023-09-13T02:02:04.481Z,,0,2,,4618.425999713887,response,ISIC_0009186.JPG,4,ISIC_7185036.JPG,ISIC_0009186.JPG,false,1,keypress(m),500,332598.19999980927,332597.7999997139,327959.467,327961.5,327979.374,332617.998,8,400,3,,ISIC_7185036.JPG
break,html.Screen,4_52_1,2023-09-13T02:02:04.482Z,,0,,,NaN,,,,,,false,,,,332599.09999990463,332598.69999980927,,332598.40000009537,,332617.998,8,400,,,
break_continue,html.Screen,4_52_2,2023-09-13T02:02:04.483Z,,0,,,NaN,,,,,,false,,,,332599.90000009537,332599.5,,332599.2999997139,,332617.998,8,400,,,
sequence,flow.Sequence,4_52,2023-09-13T02:02:04.483Z,,0,,,4620.125999999989,completion,,,,,false,,,,332600.19999980927,332599.5,327959.467,327961.40000009537,327979.374,332617.998,8,400,,,
trial,html.Screen,4_53_0,2023-09-13T02:02:10.891Z,,0,2,,6389.501999999979,response,ISIC_0054206.JPG,5,ISIC_5732487.JPG,ISIC_0054206.JPG,false,1,keypress(m),500,339007.7999997139,339007.5,332598.824,332600.40000009537,332617.998,339043.367,8,400,4,,ISIC_5732487.JPG
break,html.Screen,4_53_1,2023-09-13T02:02:10.892Z,,0,,,NaN,,,,,,false,,,,339008.7999997139,339008.40000009537,,339008,,339043.367,8,400,,,
break_continue,html.Screen,4_53_2,2023-09-13T02:02:10.892Z,,0,,,NaN,,,,,,false,,,,339009.2999997139,339009.09999990463,,339008.90000009537,,339043.367,8,400,,,
sequence,flow.Sequence,4_53,2023-09-13T02:02:10.892Z,,0,,,6391.101999904611,completion,,,,,false,,,,339009.5,339009.09999990463,332598.824,332600.2999997139,332617.998,339043.367,8,400,,,
trial,html.Screen,4_54_0,2023-09-13T02:02:18.074Z,,0,2,,7147.6329999999725,response,ISIC_0046635.JPG,5,ISIC_8851038.JPG,ISIC_0046635.JPG,false,1,keypress(m),500,346191.19999980927,346191,339027.009,339009.59999990463,339043.367,346211.028,8,400,5,,ISIC_8851038.JPG
break,html.Screen,4_54_1,2023-09-13T02:02:18.075Z,,0,,,NaN,,,,,,false,,,,346192.09999990463,346191.90000009537,,346191.5,,346211.028,8,400,,,
break_continue,html.Screen,4_54_2,2023-09-13T02:02:18.075Z,,0,,,NaN,,,,,,false,,,,346192.69999980927,346192.5,,346192.2999997139,,346211.028,8,400,,,
sequence,flow.Sequence,4_54,2023-09-13T02:02:18.076Z,,0,,,7149.1329999999725,completion,,,,,false,,,,346192.90000009537,346192.5,339027.009,339009.59999990463,339043.367,346211.028,8,400,,,
trial,html.Screen,4_55_0,2023-09-13T02:02:29.019Z,,0,2,,10925.472000000009,response,ISIC_7981097.JPG,6,ISIC_8297563.JPG,ISIC_7981097.JPG,false,1,keypress(m),500,357136.7999997139,357136.5,346191.893,346193,346211.028,357158.166,8,400,6,,ISIC_8297563.JPG
break,html.Screen,4_55_1,2023-09-13T02:02:29.020Z,,0,,,NaN,,,,,,false,,,,357137.69999980927,357137.40000009537,,357137,,357158.166,8,400,,,
break_continue,html.Screen,4_55_2,2023-09-13T02:02:29.021Z,,0,,,NaN,,,,,,false,,,,357138.2999997139,357138.09999990463,,357138,,357158.166,8,400,,,
sequence,flow.Sequence,4_55,2023-09-13T02:02:29.021Z,,0,,,10927.071999904641,completion,,,,,false,,,,357138.5,357138.09999990463,346191.893,346193,346211.028,357158.166,8,400,,,
trial,html.Screen,4_56_0,2023-09-13T02:02:37.562Z,,0,2,,8521.133999713871,response,ISIC_0056152.JPG,5,ISIC_5530598.JPG,ISIC_5530598.JPG,false,0,keypress(z),500,365679.59999990463,365679.2999997139,357129.569,357138.69999980927,357158.166,365698.788,8,400,7,,ISIC_0056152.JPG
break,html.Screen,4_56_1,2023-09-13T02:02:37.563Z,,0,,,NaN,,,,,,false,,,,365680.40000009537,365680.09999990463,,365679.69999980927,,365698.788,8,400,,,
break_continue,html.Screen,4_56_2,2023-09-13T02:02:37.564Z,,0,,,NaN,,,,,,false,,,,365681.40000009537,365681.19999980927,,365680.59999990463,,365698.788,8,400,,,
sequence,flow.Sequence,4_56,2023-09-13T02:02:37.564Z,,0,,,8523.033999809239,completion,,,,,false,,,,365681.59999990463,365681.19999980927,357129.569,357138.69999980927,357158.166,365698.788,8,400,,,
trial,html.Screen,4_57_0,2023-09-13T02:02:46.180Z,,0,2,,8598.411999809265,response,ISIC_0024284.JPG,6,ISIC_0024999.JPG,ISIC_0024284.JPG,false,1,keypress(m),500,374297.40000009537,374297.19999980927,365664.177,365681.7999997139,365698.788,374317.28,8,400,8,,ISIC_0024999.JPG
break,html.Screen,4_57_1,2023-09-13T02:02:46.181Z,,0,,,NaN,,,,,,false,,,,374298.40000009537,374298.09999990463,,374297.69999980927,,374317.28,8,400,,,
break_continue,html.Screen,4_57_2,2023-09-13T02:02:46.182Z,,0,,,NaN,,,,,,false,,,,374298.90000009537,374298.7999997139,,374298.59999990463,,374317.28,8,400,,,
sequence,flow.Sequence,4_57,2023-09-13T02:02:46.182Z,,0,,,8600.011999713897,completion,,,,,false,,,,374299,374298.7999997139,365664.177,365681.7999997139,365698.788,374317.28,8,400,,,
trial,html.Screen,4_58_0,2023-09-13T02:02:52.935Z,,0,2,,6734.419999809237,response,ISIC_5483119.JPG,5,ISIC_0029328.JPG,ISIC_0029328.JPG,false,0,keypress(z),500,381052,381051.69999980927,374297.997,374299.19999980927,374317.28,381071.619,8,400,9,,ISIC_5483119.JPG
break,html.Screen,4_58_1,2023-09-13T02:02:52.936Z,,0,,,NaN,,,,,,false,,,,381052.90000009537,381052.59999990463,,381052.19999980927,,381071.619,8,400,,,
break_continue,html.Screen,4_58_2,2023-09-13T02:02:52.936Z,,0,,,NaN,,,,,,false,,,,381053.40000009537,381053.2999997139,,381053.19999980927,,381071.619,8,400,,,
sequence,flow.Sequence,4_58,2023-09-13T02:02:52.936Z,,0,,,6736.01999971387,completion,,,,,false,,,,381053.69999980927,381053.2999997139,374297.997,374299.19999980927,374317.28,381071.619,8,400,,,
trial,html.Screen,4_59_0,2023-09-13T02:02:57.285Z,,0,2,,4329.880999999994,response,ISIC_4756167.JPG,5,ISIC_0063319.JPG,ISIC_4756167.JPG,false,1,keypress(m),500,385401.90000009537,385401.5,381036.692,381053.7999997139,381071.619,385422.986,8,400,10,,ISIC_0063319.JPG
break,html.Screen,4_59_1,2023-09-13T02:02:57.286Z,,0,,,NaN,,,,,,false,,,,385402.7999997139,385402.5,,385402.19999980927,,385422.986,8,400,,,
break_continue,html.Screen,4_59_2,2023-09-13T02:02:57.286Z,,0,,,NaN,,,,,,false,,,,385403.40000009537,385403.19999980927,,385403.09999990463,,385422.986,8,400,,,
sequence,flow.Sequence,4_59,2023-09-13T02:02:57.286Z,,0,,,4331.580999809259,completion,,,,,false,,,,385403.7999997139,385403.19999980927,381036.692,381053.69999980927,381071.619,385422.986,8,400,,,
trial,html.Screen,4_60_0,2023-09-13T02:03:01.498Z,,0,2,,4192.414000095392,response,ISIC_0066314.JPG,5,ISIC_8140072.JPG,ISIC_0066314.JPG,false,1,keypress(m),500,389615.59999990463,389615.40000009537,385394.124,385403.90000009537,385422.986,389635.435,8,400,11,,ISIC_8140072.JPG
break,html.Screen,4_60_1,2023-09-13T02:03:01.499Z,,0,,,NaN,,,,,,false,,,,389616.59999990463,389616.19999980927,,389615.90000009537,,389635.435,8,400,,,
break_continue,html.Screen,4_60_2,2023-09-13T02:03:01.500Z,,0,,,NaN,,,,,,false,,,,389617,389616.7999997139,,389616.69999980927,,389635.435,8,400,,,
sequence,flow.Sequence,4_60,2023-09-13T02:03:01.500Z,,0,,,4193.813999713922,completion,,,,,false,,,,389617.19999980927,389616.7999997139,385394.124,385403.90000009537,385422.986,389635.435,8,400,,,
trial,html.Screen,4_61_0,2023-09-13T02:03:08.942Z,,0,2,,7423.8649997139,response,ISIC_3919752.JPG,5,ISIC_2772217.JPG,ISIC_2772217.JPG,false,0,keypress(z),500,397059.59999990463,397059.2999997139,389601.336,389617.19999980927,389635.435,397079.361,8,400,12,,ISIC_3919752.JPG
break,html.Screen,4_61_1,2023-09-13T02:03:08.943Z,,0,,,NaN,,,,,,false,,,,397060.5,397060.19999980927,,397059.69999980927,,397079.361,8,400,,,
break_continue,html.Screen,4_61_2,2023-09-13T02:03:08.944Z,,0,,,NaN,,,,,,false,,,,397061,397060.7999997139,,397060.69999980927,,397079.361,8,400,,,
sequence,flow.Sequence,4_61,2023-09-13T02:03:08.944Z,,0,,,7425.3649997139,completion,,,,,false,,,,397061.19999980927,397060.7999997139,389601.336,389617.19999980927,389635.435,397079.361,8,400,,,
trial,html.Screen,4_62_0,2023-09-13T02:03:14.971Z,,0,2,,6008.238999904657,response,ISIC_8615491.JPG,4,ISIC_0207349.JPG,ISIC_0207349.JPG,false,0,keypress(z),500,403087.90000009537,403087.59999990463,397060.305,397061.2999997139,397079.361,403107.284,8,400,13,,ISIC_8615491.JPG
break,html.Screen,4_62_1,2023-09-13T02:03:14.972Z,,0,,,NaN,,,,,,false,,,,403088.7999997139,403088.5,,403088.09999990463,,403107.284,8,400,,,
break_continue,html.Screen,4_62_2,2023-09-13T02:03:14.972Z,,0,,,NaN,,,,,,false,,,,403089.2999997139,403089.19999980927,,403089,,403107.284,8,400,,,
sequence,flow.Sequence,4_62,2023-09-13T02:03:14.972Z,,0,,,6009.83899980929,completion,,,,,false,,,,403089.5,403089.19999980927,397060.305,397061.2999997139,397079.361,403107.284,8,400,,,
trial,html.Screen,4_63_0,2023-09-13T02:03:21.684Z,,0,2,,6693.3159999046475,response,ISIC_0001134.JPG,5,ISIC_6385074.JPG,ISIC_6385074.JPG,false,0,keypress(z),500,409800.7999997139,409800.59999990463,403088.82,403089.69999980927,403107.284,409820.76,8,400,14,,ISIC_0001134.JPG
break,html.Screen,4_63_1,2023-09-13T02:03:21.685Z,,0,,,NaN,,,,,,false,,,,409801.7999997139,409801.40000009537,,409801.09999990463,,409820.76,8,400,,,
break_continue,html.Screen,4_63_2,2023-09-13T02:03:21.685Z,,0,,,NaN,,,,,,false,,,,409802.19999980927,409802.09999990463,,409802,,409820.76,8,400,,,
sequence,flow.Sequence,4_63,2023-09-13T02:03:21.685Z,,0,,,6694.8159999046475,completion,,,,,false,,,,409802.40000009537,409802.09999990463,403088.82,403089.59999990463,403107.284,409820.76,8,400,,,
trial,html.Screen,4_64_0,2023-09-13T02:03:29.424Z,,0,2,,7720.640000095358,response,ISIC_2355513.JPG,5,ISIC_0029550.JPG,ISIC_0029550.JPG,false,0,keypress(z),500,417541.59999990463,417541.40000009537,409801.242,409802.59999990463,409820.76,417561.039,8,400,15,,ISIC_2355513.JPG
break,html.Screen,4_64_1,2023-09-13T02:03:29.425Z,,0,,,NaN,,,,,,false,,,,417542.59999990463,417542.19999980927,,417541.90000009537,,417561.039,8,400,,,
break_continue,html.Screen,4_64_2,2023-09-13T02:03:29.426Z,,0,,,NaN,,,,,,false,,,,417543.09999990463,417542.90000009537,,417542.7999997139,,417561.039,8,400,,,
sequence,flow.Sequence,4_64,2023-09-13T02:03:29.426Z,,0,,,7722.140000095358,completion,,,,,false,,,,417543.2999997139,417542.90000009537,409801.242,409802.5,409820.76,417561.039,8,400,,,
trial,html.Screen,4_65_0,2023-09-13T02:03:35.476Z,,0,2,,6031.760999713908,response,ISIC_4185719.JPG,5,ISIC_0034256.JPG,ISIC_4185719.JPG,false,1,keypress(m),500,423593.09999990463,423592.7999997139,417541.817,417543.40000009537,417561.039,423612.827,8,400,16,,ISIC_0034256.JPG
break,html.Screen,4_65_1,2023-09-13T02:03:35.477Z,,0,,,NaN,,,,,,false,,,,423593.90000009537,423593.59999990463,,423593.2999997139,,423612.827,8,400,,,
break_continue,html.Screen,4_65_2,2023-09-13T02:03:35.477Z,,0,,,NaN,,,,,,false,,,,423594.40000009537,423594.19999980927,,423594.09999990463,,423612.827,8,400,,,
sequence,flow.Sequence,4_65,2023-09-13T02:03:35.477Z,,0,,,6033.160999809275,completion,,,,,false,,,,423594.59999990463,423594.19999980927,417541.817,417543.40000009537,417561.039,423612.827,8,400,,,
trial,html.Screen,4_66_0,2023-09-13T02:03:42.634Z,,0,2,,7137.772999904642,response,ISIC_0071481.JPG,5,ISIC_1104374.JPG,ISIC_0071481.JPG,false,1,keypress(m),500,430750.7999997139,430750.59999990463,423577.562,423594.59999990463,423612.827,430770.394,8,400,17,,ISIC_1104374.JPG
break,html.Screen,4_66_1,2023-09-13T02:03:42.635Z,,0,,,NaN,,,,,,false,,,,430751.69999980927,430751.5,,430751,,430770.394,8,400,,,
break_continue,html.Screen,4_66_2,2023-09-13T02:03:42.635Z,,0,,,NaN,,,,,,false,,,,430752.19999980927,430752.09999990463,,430751.90000009537,,430770.394,8,400,,,
sequence,flow.Sequence,4_66,2023-09-13T02:03:42.635Z,,0,,,7139.272999904642,completion,,,,,false,,,,430752.69999980927,430752.09999990463,423577.562,423594.59999990463,423612.827,430770.394,8,400,,,
trial,html.Screen,4_67_0,2023-09-13T02:03:47.862Z,,0,2,,5208.905999713927,response,ISIC_0000294.JPG,5,ISIC_4417495.JPG,ISIC_4417495.JPG,false,0,keypress(z),500,435979.40000009537,435979.2999997139,430751.079,430752.7999997139,430770.394,435999.067,8,400,18,,ISIC_0000294.JPG
break,html.Screen,4_67_1,2023-09-13T02:03:47.863Z,,0,,,NaN,,,,,,false,,,,435980,435979.7999997139,,435979.59999990463,,435999.067,8,400,,,
break_continue,html.Screen,4_67_2,2023-09-13T02:03:47.863Z,,0,,,NaN,,,,,,false,,,,435980.19999980927,435980.09999990463,,435980,,435999.067,8,400,,,
sequence,flow.Sequence,4_67,2023-09-13T02:03:47.863Z,,0,,,5209.705999904661,completion,,,,,false,,,,435980.2999997139,435980.09999990463,430751.079,430752.7999997139,430770.394,435999.067,8,400,,,
trial,html.Screen,4_68_0,2023-09-13T02:03:50.885Z,,0,2,,3003.1329998092842,response,ISIC_0011031.JPG,5,ISIC_1251639.JPG,ISIC_1251639.JPG,false,0,keypress(z),500,439002.40000009537,439002.19999980927,435979.757,435980.40000009537,435999.067,439038.062,8,400,19,,ISIC_0011031.JPG
break,html.Screen,4_68_1,2023-09-13T02:03:50.886Z,,0,,,NaN,,,,,,false,,,,439003.40000009537,439003.09999990463,,439002.69999980927,,439038.062,8,400,,,
break_continue,html.Screen,4_68_2,2023-09-13T02:03:50.887Z,,0,,,NaN,,,,,,false,,,,439004.09999990463,439003.90000009537,,439003.69999980927,,439038.062,8,400,,,
sequence,flow.Sequence,4_68,2023-09-13T02:03:50.887Z,,0,,,3004.8330000953865,completion,,,,,false,,,,439004.2999997139,439003.90000009537,435979.757,435980.40000009537,435999.067,439038.062,8,400,,,
trial,html.Screen,4_69_0,2023-09-13T02:03:55.586Z,,0,2,,4665.237999713921,response,ISIC_5318217.JPG,4,ISIC_0010923.JPG,ISIC_5318217.JPG,false,1,keypress(m),500,443703.5,443703.2999997139,439022.627,439004.40000009537,439038.062,443723.612,8,400,20,,ISIC_0010923.JPG
break,html.Screen,4_69_1,2023-09-13T02:03:55.587Z,,0,,,NaN,,,,,,false,,,,443704.40000009537,443704.09999990463,,443703.7999997139,,443723.612,8,400,,,
break_continue,html.Screen,4_69_2,2023-09-13T02:03:55.588Z,,0,,,NaN,,,,,,false,,,,443704.7999997139,443704.69999980927,,443704.5,,443723.612,8,400,,,
sequence,flow.Sequence,4_69,2023-09-13T02:03:55.588Z,,0,,,4666.637999809289,completion,,,,,false,,,,443705,443704.69999980927,439022.627,439004.2999997139,439038.062,443723.612,8,400,,,
trial,html.Screen,4_70_0,2023-09-13T02:03:59.399Z,,0,2,,3792.0879998092423,response,ISIC_7428248.JPG,4,ISIC_0046416.JPG,ISIC_7428248.JPG,false,1,keypress(m),500,447516,447515.69999980927,443703.805,443705.09999990463,443723.612,447551.507,8,400,21,,ISIC_0046416.JPG
break,html.Screen,4_70_1,2023-09-13T02:03:59.400Z,,0,,,NaN,,,,,,false,,,,447516.90000009537,447516.5,,447516.19999980927,,447551.507,8,400,,,
break_continue,html.Screen,4_70_2,2023-09-13T02:03:59.400Z,,0,,,NaN,,,,,,false,,,,447517.40000009537,447517.2999997139,,447517.19999980927,,447551.507,8,400,,,
sequence,flow.Sequence,4_70,2023-09-13T02:03:59.400Z,,0,,,3793.687999713875,completion,,,,,false,,,,447517.69999980927,447517.2999997139,443703.805,443705,443723.612,447551.507,8,400,,,
trial,html.Screen,4_71_0,2023-09-13T02:04:03.779Z,,0,2,,4344.2929997139145,response,ISIC_0027253.JPG,5,ISIC_0033042.JPG,ISIC_0033042.JPG,false,0,keypress(z),500,451896.19999980927,451895.7999997139,447535.939,447517.90000009537,447551.507,451915.543,8,400,22,,ISIC_0027253.JPG
break,html.Screen,4_71_1,2023-09-13T02:04:03.780Z,,0,,,NaN,,,,,,false,,,,451897.09999990463,451896.69999980927,,451896.2999997139,,451915.543,8,400,,,
break_continue,html.Screen,4_71_2,2023-09-13T02:04:03.780Z,,0,,,NaN,,,,,,false,,,,451897.59999990463,451897.40000009537,,451897.19999980927,,451915.543,8,400,,,
sequence,flow.Sequence,4_71,2023-09-13T02:04:03.781Z,,0,,,4345.893000095384,completion,,,,,false,,,,451897.7999997139,451897.40000009537,447535.939,447517.7999997139,447551.507,451915.543,8,400,,,
trial,html.Screen,4_72_0,2023-09-13T02:04:08.574Z,,0,2,,4775.857000095362,response,ISIC_3816833.JPG,5,ISIC_1565767.JPG,ISIC_1565767.JPG,false,0,keypress(z),500,456691.69999980927,456691.40000009537,451880.889,451897.90000009537,451915.543,456711.039,8,400,23,,ISIC_3816833.JPG
break,html.Screen,4_72_1,2023-09-13T02:04:08.575Z,,0,,,NaN,,,,,,false,,,,456692.59999990463,456692.2999997139,,456691.90000009537,,456711.039,8,400,,,
break_continue,html.Screen,4_72_2,2023-09-13T02:04:08.576Z,,0,,,NaN,,,,,,false,,,,456693.09999990463,456692.90000009537,,456692.7999997139,,456711.039,8,400,,,
sequence,flow.Sequence,4_72,2023-09-13T02:04:08.576Z,,0,,,4777.357000095362,completion,,,,,false,,,,456693.19999980927,456692.90000009537,451880.889,451897.7999997139,451915.543,456711.039,8,400,,,
trial,html.Screen,4_73_0,2023-09-13T02:04:13.670Z,,0,2,,5075.660999809275,response,ISIC_0000725.JPG,5,ISIC_9239093.JPG,ISIC_9239093.JPG,false,0,keypress(z),500,461787,461786.69999980927,456692.268,456693.40000009537,456711.039,461807.816,8,400,24,,ISIC_0000725.JPG
break,html.Screen,4_73_1,2023-09-13T02:04:13.671Z,,0,,,NaN,,,,,,false,,,,461787.7999997139,461787.59999990463,,461787.2999997139,,461807.816,8,400,,,
break_continue,html.Screen,4_73_2,2023-09-13T02:04:13.671Z,,0,,,NaN,,,,,,false,,,,461788.19999980927,461788.09999990463,,461787.90000009537,,461807.816,8,400,,,
sequence,flow.Sequence,4_73,2023-09-13T02:04:13.671Z,,0,,,5077.060999904643,completion,,,,,false,,,,461788.40000009537,461788.09999990463,456692.268,456693.2999997139,456711.039,461807.816,8,400,,,
trial,html.Screen,4_74_0,2023-09-13T02:04:18.830Z,,0,2,,5138.8839998092735,response,ISIC_9667908.JPG,5,ISIC_9114539.JPG,ISIC_9667908.JPG,false,1,keypress(m),500,466947,466946.69999980927,461791.133,461788.5,461807.816,466967.868,8,400,25,,ISIC_9114539.JPG
break,html.Screen,4_74_1,2023-09-13T02:04:18.831Z,,0,,,NaN,,,,,,false,,,,466947.90000009537,466947.59999990463,,466947.19999980927,,466967.868,8,400,,,
break_continue,html.Screen,4_74_2,2023-09-13T02:04:18.831Z,,0,,,NaN,,,,,,false,,,,466948.40000009537,466948.2999997139,,466948.09999990463,,466967.868,8,400,,,
sequence,flow.Sequence,4_74,2023-09-13T02:04:18.831Z,,0,,,5140.483999713906,completion,,,,,false,,,,466948.5,466948.2999997139,461791.133,461788.5,461807.816,466967.868,8,400,,,
trial,html.Screen,4_75_0,2023-09-13T02:04:23.692Z,,0,2,,4841.331999809248,response,ISIC_4463086.JPG,5,ISIC_5170766.JPG,ISIC_4463086.JPG,false,1,keypress(m),500,471809.40000009537,471809.19999980927,466942.571,466948.69999980927,466967.868,471832.767,8,400,26,,ISIC_5170766.JPG
break,html.Screen,4_75_1,2023-09-13T02:04:23.693Z,,0,,,NaN,,,,,,false,,,,471810.2999997139,471810.09999990463,,471809.59999990463,,471832.767,8,400,,,
break_continue,html.Screen,4_75_2,2023-09-13T02:04:23.693Z,,0,,,NaN,,,,,,false,,,,471810.69999980927,471810.59999990463,,471810.5,,471832.767,8,400,,,
sequence,flow.Sequence,4_75,2023-09-13T02:04:23.694Z,,0,,,4842.731999904616,completion,,,,,false,,,,471810.90000009537,471810.59999990463,466942.571,466948.59999990463,466967.868,471832.767,8,400,,,
trial,html.Screen,4_76_0,2023-09-13T02:04:29.292Z,,0,2,,5576.133000095375,response,ISIC_9061511.JPG,5,ISIC_5569568.JPG,ISIC_9061511.JPG,false,1,keypress(m),500,477409.19999980927,477408.90000009537,471816.291,471811,471832.767,477429.046,8,400,27,,ISIC_5569568.JPG
break,html.Screen,4_76_1,2023-09-13T02:04:29.293Z,,0,,,NaN,,,,,,false,,,,477410.09999990463,477409.7999997139,,477409.40000009537,,477429.046,8,400,,,
break_continue,html.Screen,4_76_2,2023-09-13T02:04:29.293Z,,0,,,NaN,,,,,,false,,,,477410.69999980927,477410.59999990463,,477410.40000009537,,477429.046,8,400,,,
sequence,flow.Sequence,4_76,2023-09-13T02:04:29.294Z,,0,,,5577.83299990464,completion,,,,,false,,,,477410.90000009537,477410.59999990463,471816.291,471810.90000009537,471832.767,477429.046,8,400,,,
trial,html.Screen,4_77_0,2023-09-13T02:04:34.261Z,,0,2,,4948.854000095394,response,ISIC_6815524.JPG,4,ISIC_0034202.JPG,ISIC_6815524.JPG,false,1,keypress(m),500,482378.2999997139,482377.90000009537,477409.476,477411,477429.046,482398.527,8,400,28,,ISIC_0034202.JPG
break,html.Screen,4_77_1,2023-09-13T02:04:34.262Z,,0,,,NaN,,,,,,false,,,,482379.2999997139,482379,,482378.59999990463,,482398.527,8,400,,,
break_continue,html.Screen,4_77_2,2023-09-13T02:04:34.263Z,,0,,,NaN,,,,,,false,,,,482379.90000009537,482379.69999980927,,482379.5,,482398.527,8,400,,,
sequence,flow.Sequence,4_77,2023-09-13T02:04:34.263Z,,0,,,4950.653999809292,completion,,,,,false,,,,482380,482379.69999980927,477409.476,477411,477429.046,482398.527,8,400,,,
trial,html.Screen,4_78_0,2023-09-13T02:04:39.614Z,,0,2,,5332.572999904631,response,ISIC_0030407.JPG,4,ISIC_0065883.JPG,ISIC_0030407.JPG,false,1,keypress(m),500,487731.40000009537,487731.09999990463,482374.934,482380.19999980927,482398.527,487751.816,8,400,29,,ISIC_0065883.JPG
break,html.Screen,4_78_1,2023-09-13T02:04:39.615Z,,0,,,NaN,,,,,,false,,,,487732.19999980927,487732,,487731.59999990463,,487751.816,8,400,,,
break_continue,html.Screen,4_78_2,2023-09-13T02:04:39.616Z,,0,,,NaN,,,,,,false,,,,487733.2999997139,487733.19999980927,,487733,,487751.816,8,400,,,
sequence,flow.Sequence,4_78,2023-09-13T02:04:39.616Z,,0,,,5334.672999809263,completion,,,,,false,,,,487733.5,487733.19999980927,482374.934,482380.09999990463,482398.527,487751.816,8,400,,,
trial,html.Screen,4_79_0,2023-09-13T02:04:45.495Z,,0,2,,5860.3839998092735,response,ISIC_5504286.JPG,5,ISIC_0024900.JPG,ISIC_5504286.JPG,false,1,keypress(m),500,493612.59999990463,493612.19999980927,487730.555,487733.69999980927,487751.816,493632.409,8,400,30,,ISIC_0024900.JPG
break,html.Screen,4_79_1,2023-09-13T02:04:45.496Z,,0,,,NaN,,,,,,false,,,,493613.5,493613.19999980927,,493612.7999997139,,493632.409,8,400,,,
break_continue,html.Screen,4_79_2,2023-09-13T02:04:45.497Z,,0,,,NaN,,,,,,false,,,,493614,493613.90000009537,,493613.69999980927,,493632.409,8,400,,,
sequence,flow.Sequence,4_79,2023-09-13T02:04:45.497Z,,0,,,5862.084000095376,completion,,,,,false,,,,493614.19999980927,493613.90000009537,487730.555,487733.69999980927,487751.816,493632.409,8,400,,,
trial,html.Screen,4_80_0,2023-09-13T02:04:52.101Z,,0,2,,6585.091000000015,response,ISIC_0872145.JPG,4,ISIC_0063692.JPG,ISIC_0872145.JPG,false,1,keypress(m),500,500217.7999997139,500217.5,493597.202,493614.40000009537,493632.409,500237.535,8,400,31,,ISIC_0063692.JPG
break,html.Screen,4_80_1,2023-09-13T02:04:52.102Z,,0,,,NaN,,,,,,false,,,,500218.7999997139,500218.40000009537,,500218.09999990463,,500237.535,8,400,,,
break_continue,html.Screen,4_80_2,2023-09-13T02:04:52.102Z,,0,,,NaN,,,,,,false,,,,500219.2999997139,500219.19999980927,,500219,,500237.535,8,400,,,
sequence,flow.Sequence,4_80,2023-09-13T02:04:52.102Z,,0,,,6586.79099980928,completion,,,,,false,,,,500219.69999980927,500219.19999980927,493597.202,493614.2999997139,493632.409,500237.535,8,400,,,
trial,html.Screen,4_81_0,2023-09-13T02:04:58.983Z,,0,2,,6862.264999713923,response,ISIC_0025152.JPG,5,ISIC_0030447.JPG,ISIC_0025152.JPG,false,1,keypress(m),500,507100.09999990463,507099.7999997139,500202.546,500219.90000009537,500237.535,507135.648,8,400,32,,ISIC_0030447.JPG
break,html.Screen,4_81_1,2023-09-13T02:04:58.984Z,,0,,,NaN,,,,,,false,,,,507101,507100.69999980927,,507100.2999997139,,507135.648,8,400,,,
break_continue,html.Screen,4_81_2,2023-09-13T02:04:58.984Z,,0,,,NaN,,,,,,false,,,,507101.7999997139,507101.59999990463,,507101.2999997139,,507135.648,8,400,,,
sequence,flow.Sequence,4_81,2023-09-13T02:04:58.985Z,,0,,,6864.064999904658,completion,,,,,false,,,,507101.90000009537,507101.59999990463,500202.546,500219.7999997139,500237.535,507135.648,8,400,,,
trial,html.Screen,4_82_0,2023-09-13T02:05:08.967Z,,0,2,,9948.451999904646,response,ISIC_0033564.JPG,5,ISIC_0010940.JPG,ISIC_0033564.JPG,false,1,keypress(m),500,517084.2999997139,517084.09999990463,507120.25,507102,507135.648,517109.775,8,400,33,,ISIC_0010940.JPG
break,html.Screen,4_82_1,2023-09-13T02:05:08.968Z,,0,,,NaN,,,,,,false,,,,517085.09999990463,517084.90000009537,,517084.59999990463,,517109.775,8,400,,,
break_continue,html.Screen,4_82_2,2023-09-13T02:05:08.968Z,,0,,,NaN,,,,,,false,,,,517085.5,517085.40000009537,,517085.2999997139,,517109.775,8,400,,,
sequence,flow.Sequence,4_82,2023-09-13T02:05:08.968Z,,0,,,9949.752000095381,completion,,,,,false,,,,517085.7999997139,517085.40000009537,507120.25,507102,507135.648,517109.775,8,400,,,
trial,html.Screen,4_83_0,2023-09-13T02:05:16.423Z,,0,2,,7429.724999999977,response,ISIC_8791729.JPG,5,ISIC_0032783.JPG,ISIC_8791729.JPG,false,1,keypress(m),500,524539.9000000954,524539.5,517093.511,517085.90000009537,517109.775,524559.457,8,400,34,,ISIC_0032783.JPG
break,html.Screen,4_83_1,2023-09-13T02:05:16.424Z,,0,,,NaN,,,,,,false,,,,524540.7999997139,524540.5,,524540.0999999046,,524559.457,8,400,,,
break_continue,html.Screen,4_83_2,2023-09-13T02:05:16.424Z,,0,,,NaN,,,,,,false,,,,524541.2999997139,524541.1999998093,,524540.9000000954,,524559.457,8,400,,,
sequence,flow.Sequence,4_83,2023-09-13T02:05:16.424Z,,0,,,7431.424999809242,completion,,,,,false,,,,524541.4000000954,524541.1999998093,517093.511,517085.90000009537,517109.775,524559.457,8,400,,,
trial,html.Screen,4_84_0,2023-09-13T02:05:21.601Z,,0,2,,5158.242999809212,response,ISIC_0046394.JPG,5,ISIC_9822801.JPG,ISIC_9822801.JPG,false,0,keypress(z),500,529718,529717.6999998093,524540.61,524541.5999999046,524559.457,529738.382,8,400,35,,ISIC_0046394.JPG
break,html.Screen,4_84_1,2023-09-13T02:05:21.602Z,,0,,,NaN,,,,,,false,,,,529719,529718.5999999046,,529718.1999998093,,529738.382,8,400,,,
break_continue,html.Screen,4_84_2,2023-09-13T02:05:21.602Z,,0,,,NaN,,,,,,false,,,,529719.4000000954,529719.2999997139,,529719.0999999046,,529738.382,8,400,,,
sequence,flow.Sequence,4_84,2023-09-13T02:05:21.602Z,,0,,,5159.842999713845,completion,,,,,false,,,,529719.5999999046,529719.2999997139,524540.61,524541.5,524559.457,529738.382,8,400,,,
trial,html.Screen,4_85_0,2023-09-13T02:05:26.015Z,,0,2,,4393.4179997139145,response,ISIC_0055701.JPG,6,ISIC_5647554.JPG,ISIC_5647554.JPG,false,0,keypress(z),500,534132.0999999046,534131.7999997139,529718.568,529719.7999997139,529738.382,534151.671,8,400,36,,ISIC_0055701.JPG
break,html.Screen,4_85_1,2023-09-13T02:05:26.016Z,,0,,,NaN,,,,,,false,,,,534133,534132.6999998093,,534132.2999997139,,534151.671,8,400,,,
break_continue,html.Screen,4_85_2,2023-09-13T02:05:26.016Z,,0,,,NaN,,,,,,false,,,,534133.5,534133.2999997139,,534133.1999998093,,534151.671,8,400,,,
sequence,flow.Sequence,4_85,2023-09-13T02:05:26.016Z,,0,,,4394.9179997139145,completion,,,,,false,,,,534133.5999999046,534133.2999997139,529718.568,529719.6999998093,529738.382,534151.671,8,400,,,
trial,html.Screen,4_86_0,2023-09-13T02:05:31.221Z,,0,2,,5186.329000000027,response,ISIC_0056391.JPG,6,ISIC_0061479.JPG,ISIC_0056391.JPG,false,1,keypress(m),500,539338.4000000954,539338,534116.902,534133.7999997139,534151.671,539358.214,8,400,37,,ISIC_0061479.JPG
break,html.Screen,4_86_1,2023-09-13T02:05:31.222Z,,0,,,NaN,,,,,,false,,,,539339.2999997139,539339,,539338.6999998093,,539358.214,8,400,,,
break_continue,html.Screen,4_86_2,2023-09-13T02:05:31.223Z,,0,,,NaN,,,,,,false,,,,539339.7999997139,539339.5999999046,,539339.5,,539358.214,8,400,,,
sequence,flow.Sequence,4_86,2023-09-13T02:05:31.223Z,,0,,,5187.92899990466,completion,,,,,false,,,,539340,539339.5999999046,534116.902,534133.7999997139,534151.671,539358.214,8,400,,,
trial,html.Screen,4_87_0,2023-09-13T02:05:35.444Z,,0,2,,4202.385999904596,response,ISIC_4548995.JPG,5,ISIC_0055601.JPG,ISIC_0055601.JPG,false,0,keypress(z),500,543560.7999997139,543560.5999999046,539339.268,539340.0999999046,539358.214,543580.76,8,400,38,,ISIC_4548995.JPG
break,html.Screen,4_87_1,2023-09-13T02:05:35.444Z,,0,,,NaN,,,,,,false,,,,543561.6999998093,543561.4000000954,,543561,,543580.76,8,400,,,
break_continue,html.Screen,4_87_2,2023-09-13T02:05:35.445Z,,0,,,NaN,,,,,,false,,,,543562.1999998093,543562.1999998093,,543562,,543580.76,8,400,,,
sequence,flow.Sequence,4_87,2023-09-13T02:05:35.445Z,,0,,,4203.985999809229,completion,,,,,false,,,,543562.4000000954,543562.1999998093,539339.268,539340,539358.214,543580.76,8,400,,,
trial,html.Screen,4_88_0,2023-09-13T02:05:41.477Z,,0,2,,6012.939999809256,response,ISIC_0062025.JPG,5,ISIC_5602724.JPG,ISIC_5602724.JPG,false,0,keypress(z),500,549594,549593.6999998093,543561.361,543562.5999999046,543580.76,549613.508,8,400,39,,ISIC_0062025.JPG
break,html.Screen,4_88_1,2023-09-13T02:05:41.478Z,,0,,,NaN,,,,,,false,,,,549594.9000000954,549594.5,,549594.0999999046,,549613.508,8,400,,,
break_continue,html.Screen,4_88_2,2023-09-13T02:05:41.478Z,,0,,,NaN,,,,,,false,,,,549595.5,549595.4000000954,,549595.1999998093,,549613.508,8,400,,,
sequence,flow.Sequence,4_88,2023-09-13T02:05:41.479Z,,0,,,6014.640000095358,completion,,,,,false,,,,549595.7999997139,549595.4000000954,543561.361,543562.5,543580.76,549613.508,8,400,,,
trial,html.Screen,4_89_0,2023-09-13T02:05:45.134Z,,0,2,,3637.091999904602,response,ISIC_0001505.JPG,5,ISIC_4732241.JPG,ISIC_0001505.JPG,false,1,keypress(m),500,553250.9000000954,553250.5999999046,549594.866,549596,549613.508,553253.086,8,400,40,,ISIC_4732241.JPG
break,html.Screen,4_89_1,2023-09-13T02:05:45.135Z,,0,,,NaN,,,,,,false,,,,553251.7999997139,553251.5,,553251.1999998093,,553253.086,8,400,,,
break_continue,html.Screen,4_89_2,2023-09-13T02:05:45.135Z,,0,,,NaN,,,,,,false,,,,553252.6999998093,553252.1999998093,,553252,,553253.086,8,400,,,
sequence,flow.Sequence,4_89,2023-09-13T02:05:45.136Z,,0,,,3638.6919998092344,completion,,,,,false,,,,553252.9000000954,553252.1999998093,549594.866,549595.9000000954,549613.508,553253.086,8,400,,,
trial,html.Screen,4_90_0,2023-09-13T02:05:49.978Z,,0,2,,4842.113999809255,response,ISIC_0027149.JPG,6,ISIC_4175400.JPG,ISIC_4175400.JPG,false,0,keypress(z),500,558095.5,558095.1999998093,553251.798,553252.9000000954,553253.086,558115.276,8,400,41,,ISIC_0027149.JPG
break,html.Screen,4_90_1,2023-09-13T02:05:49.979Z,,0,,,NaN,,,,,,false,,,,558096.5,558096.0999999046,,558095.6999998093,,558115.276,8,400,,,
break_continue,html.Screen,4_90_2,2023-09-13T02:05:49.980Z,,0,,,NaN,,,,,,false,,,,558096.9000000954,558096.7999997139,,558096.5999999046,,558115.276,8,400,,,
sequence,flow.Sequence,4_90,2023-09-13T02:05:49.980Z,,0,,,4843.7139997138875,completion,,,,,false,,,,558097.0999999046,558096.7999997139,553251.798,553252.9000000954,553253.086,558115.276,8,400,,,
trial,html.Screen,4_91_0,2023-09-13T02:05:53.938Z,,0,2,,3939.5239997139433,response,ISIC_7824688.JPG,5,ISIC_0010162.JPG,ISIC_7824688.JPG,false,1,keypress(m),500,562055.0999999046,562054.7999997139,558096.27,558097.1999998093,558115.276,562075.293,8,400,42,,ISIC_0010162.JPG
break,html.Screen,4_91_1,2023-09-13T02:05:53.939Z,,0,,,NaN,,,,,,false,,,,562056,562055.6999998093,,562055.2999997139,,562075.293,8,400,,,
break_continue,html.Screen,4_91_2,2023-09-13T02:05:53.939Z,,0,,,NaN,,,,,,false,,,,562056.4000000954,562056.4000000954,,562056.1999998093,,562075.293,8,400,,,
sequence,flow.Sequence,4_91,2023-09-13T02:05:53.939Z,,0,,,3941.124000095413,completion,,,,,false,,,,562056.5999999046,562056.4000000954,558096.27,558097.1999998093,558115.276,562075.293,8,400,,,
trial,html.Screen,4_92_0,2023-09-13T02:05:59.620Z,,0,2,,5661.6070000954205,response,ISIC_0979974.JPG,5,ISIC_0062364.JPG,ISIC_0979974.JPG,false,1,keypress(m),500,567737.0999999046,567736.9000000954,562055.596,562056.6999998093,562075.293,567756.378,8,400,43,,ISIC_0062364.JPG
break,html.Screen,4_92_1,2023-09-13T02:05:59.621Z,,0,,,NaN,,,,,,false,,,,567738,567737.5999999046,,567737.2999997139,,567756.378,8,400,,,
break_continue,html.Screen,4_92_2,2023-09-13T02:05:59.621Z,,0,,,NaN,,,,,,false,,,,567738.5,567738.2999997139,,567738.0999999046,,567756.378,8,400,,,
sequence,flow.Sequence,4_92,2023-09-13T02:05:59.621Z,,0,,,5663.006999713951,completion,,,,,false,,,,567738.5999999046,567738.2999997139,562055.596,562056.6999998093,562075.293,567756.378,8,400,,,
trial,html.Screen,4_93_0,2023-09-13T02:06:05.606Z,,0,2,,5966.321999809239,response,ISIC_0025231.JPG,5,ISIC_0060233.JPG,ISIC_0060233.JPG,false,0,keypress(z),500,573723,573722.6999998093,567721.885,567738.6999998093,567756.378,573743.864,8,400,44,,ISIC_0025231.JPG
break,html.Screen,4_93_1,2023-09-13T02:06:05.607Z,,0,,,NaN,,,,,,false,,,,573724,573723.5999999046,,573723.0999999046,,573743.864,8,400,,,
break_continue,html.Screen,4_93_2,2023-09-13T02:06:05.607Z,,0,,,NaN,,,,,,false,,,,573724.4000000954,573724.2999997139,,573724.0999999046,,573743.864,8,400,,,
sequence,flow.Sequence,4_93,2023-09-13T02:06:05.608Z,,0,,,5967.921999713872,completion,,,,,false,,,,573724.7999997139,573724.2999997139,567721.885,567738.6999998093,567756.378,573743.864,8,400,,,
trial,html.Screen,4_94_0,2023-09-13T02:06:11.386Z,,0,2,,5758.735999904689,response,ISIC_0065133.JPG,5,ISIC_0060773.JPG,ISIC_0065133.JPG,false,1,keypress(m),500,579502.9000000954,579502.5999999046,573713.729,573725.0999999046,573743.864,579522.606,8,400,45,,ISIC_0060773.JPG
break,html.Screen,4_94_1,2023-09-13T02:06:11.386Z,,0,,,NaN,,,,,,false,,,,579503.6999998093,579503.4000000954,,579503.0999999046,,579522.606,8,400,,,
break_continue,html.Screen,4_94_2,2023-09-13T02:06:11.387Z,,0,,,NaN,,,,,,false,,,,579504.4000000954,579504.1999998093,,579504.0999999046,,579522.606,8,400,,,
sequence,flow.Sequence,4_94,2023-09-13T02:06:11.387Z,,0,,,5760.335999809322,completion,,,,,false,,,,579504.5,579504.1999998093,573713.729,573725,573743.864,579522.606,8,400,,,
trial,html.Screen,4_95_0,2023-09-13T02:06:16.193Z,,0,2,,4787.193999713869,response,ISIC_6971606.JPG,5,ISIC_0002693.JPG,ISIC_0002693.JPG,false,0,keypress(z),500,584310,584309.7999997139,579503.594,579504.6999998093,579522.606,584329.706,8,400,46,,ISIC_6971606.JPG
break,html.Screen,4_95_1,2023-09-13T02:06:16.194Z,,0,,,NaN,,,,,,false,,,,584310.9000000954,584310.5999999046,,584310.1999998093,,584329.706,8,400,,,
break_continue,html.Screen,4_95_2,2023-09-13T02:06:16.195Z,,0,,,NaN,,,,,,false,,,,584311.7999997139,584311.6999998093,,584311.0999999046,,584329.706,8,400,,,
sequence,flow.Sequence,4_95,2023-09-13T02:06:16.195Z,,0,,,4789.093999809236,completion,,,,,false,,,,584312.0999999046,584311.6999998093,579503.594,579504.6999998093,579522.606,584329.706,8,400,,,
trial,html.Screen,4_96_0,2023-09-13T02:06:23.277Z,,0,2,,7064.393999904627,response,ISIC_0069515.JPG,4,ISIC_4619903.JPG,ISIC_0069515.JPG,false,1,keypress(m),500,591394.2999997139,591394.0999999046,584302.573,584312.2999997139,584329.706,591414.369,8,400,47,,ISIC_4619903.JPG
break,html.Screen,4_96_1,2023-09-13T02:06:23.278Z,,0,,,NaN,,,,,,false,,,,591395.1999998093,591394.9000000954,,591394.5,,591414.369,8,400,,,
break_continue,html.Screen,4_96_2,2023-09-13T02:06:23.278Z,,0,,,NaN,,,,,,false,,,,591395.6999998093,591395.5999999046,,591395.4000000954,,591414.369,8,400,,,
sequence,flow.Sequence,4_96,2023-09-13T02:06:23.279Z,,0,,,7065.893999904627,completion,,,,,false,,,,591395.9000000954,591395.5999999046,584302.573,584312.1999998093,584329.706,591414.369,8,400,,,
trial,html.Screen,4_97_0,2023-09-13T02:06:28.992Z,,0,2,,5694.230999904685,response,ISIC_0013334.JPG,5,ISIC_4453506.JPG,ISIC_4453506.JPG,false,0,keypress(z),500,597108.9000000954,597108.5999999046,591395.134,591396,591414.369,597129.49,8,400,48,,ISIC_0013334.JPG
break,html.Screen,4_97_1,2023-09-13T02:06:28.994Z,,0,,,NaN,,,,,,false,,,,597111.2999997139,597109.5999999046,,597109.1999998093,,597129.49,8,400,,,
break_continue,html.Screen,4_97_2,2023-09-13T02:06:28.995Z,,0,,,NaN,,,,,,false,,,,597111.7999997139,597111.5999999046,,597111.5,,597129.49,8,400,,,
sequence,flow.Sequence,4_97,2023-09-13T02:06:28.995Z,,0,,,5697.230999904685,completion,,,,,false,,,,597112,597111.5999999046,591395.134,591395.9000000954,591414.369,597129.49,8,400,,,
trial,html.Screen,4_98_0,2023-09-13T02:06:37.145Z,,0,2,,8132.609999904642,response,ISIC_0060749.JPG,5,ISIC_0005572.JPG,ISIC_0005572.JPG,false,0,keypress(z),500,605262.4000000954,605262.0999999046,597100.208,597112,597129.49,605282.185,8,400,49,,ISIC_0060749.JPG
break,html.Screen,4_98_1,2023-09-13T02:06:37.146Z,,0,,,NaN,,,,,,false,,,,605263.2999997139,605263,,605262.5999999046,,605282.185,8,400,,,
break_continue,html.Screen,4_98_2,2023-09-13T02:06:37.147Z,,0,,,NaN,,,,,,false,,,,605263.7999997139,605263.6999998093,,605263.5,,605282.185,8,400,,,
sequence,flow.Sequence,4_98,2023-09-13T02:06:37.147Z,,0,,,8134.209999809274,completion,,,,,false,,,,605264,605263.6999998093,597100.208,597112,597129.49,605282.185,8,400,,,
trial,html.Screen,4_99_0,2023-09-13T02:06:41.750Z,,0,2,,4584.514999809209,response,ISIC_9449365.JPG,5,ISIC_0062639.JPG,ISIC_9449365.JPG,false,1,keypress(m),500,609867,609866.6999998093,605263.331,605264.0999999046,605282.185,609902.726,8,400,50,,ISIC_0062639.JPG
break,html.Screen,4_99_1,2023-09-13T02:06:51.770Z,,0,,,10000.351999999955,timeout,,,,,false,,,,619887.5999999046,619886.475,609886.372,609867.1999998093,609902.726,619903.078,8,400,,,
break_continue,html.Screen,4_99_2,2023-09-13T02:07:08.073Z,,0,,,16267.42200000002,response,,,,,false,continue,keypress(Space),,636189.7999997139,636170.5,619886.475,619887.7999997139,619903.078,636192.029,8,400,,,
sequence,flow.Sequence,4_99,2023-09-13T02:07:08.073Z,,0,,,30888.314999999944,completion,,,,,false,,,,636190.0999999046,636170.5,605263.331,605264.0999999046,605282.185,636192.029,8,400,,,
trial,html.Screen,4_100_0,2023-09-13T02:07:15.499Z,,0,3,,7423.770999713917,response,ISIC_1580034.JPG,5,ISIC_4434803.JPG,ISIC_1580034.JPG,false,1,keypress(m),500,643616.1999998093,643615.7999997139,636185.754,636190.2999997139,636192.029,643636.367,8,400,1,,ISIC_4434803.JPG
break,html.Screen,4_100_1,2023-09-13T02:07:15.500Z,,0,,,NaN,,,,,,false,,,,643617.0999999046,643616.6999998093,,643616.2999997139,,643636.367,8,400,,,
break_continue,html.Screen,4_100_2,2023-09-13T02:07:15.500Z,,0,,,NaN,,,,,,false,,,,643617.5,643617.4000000954,,643617.2999997139,,643636.367,8,400,,,
sequence,flow.Sequence,4_100,2023-09-13T02:07:15.500Z,,0,,,7425.371000095387,completion,,,,,false,,,,643617.7999997139,643617.4000000954,636185.754,636190.1999998093,636192.029,643636.367,8,400,,,
trial,html.Screen,4_101_0,2023-09-13T02:07:19.161Z,,0,3,,3641.832999809296,response,ISIC_9154716.JPG,5,ISIC_0032559.JPG,ISIC_9154716.JPG,false,1,keypress(m),500,647278.5,647278.1999998093,643616.757,643617.9000000954,643636.367,647298.189,8,400,2,,ISIC_0032559.JPG
break,html.Screen,4_101_1,2023-09-13T02:07:19.162Z,,0,,,NaN,,,,,,false,,,,647279.4000000954,647279.0999999046,,647278.6999998093,,647298.189,8,400,,,
break_continue,html.Screen,4_101_2,2023-09-13T02:07:19.163Z,,0,,,NaN,,,,,,false,,,,647279.9000000954,647279.7999997139,,647279.6999998093,,647298.189,8,400,,,
sequence,flow.Sequence,4_101,2023-09-13T02:07:19.163Z,,0,,,3643.4329997139284,completion,,,,,false,,,,647280.0999999046,647279.7999997139,643616.757,643617.7999997139,643636.367,647298.189,8,400,,,
trial,html.Screen,4_102_0,2023-09-13T02:07:22.734Z,,0,3,,3552.510999809252,response,ISIC_8813283.JPG,5,ISIC_0033099.JPG,ISIC_8813283.JPG,false,1,keypress(m),500,650851,650850.6999998093,647279.148,647280.1999998093,647298.189,650870.281,8,400,3,,ISIC_0033099.JPG
break,html.Screen,4_102_1,2023-09-13T02:07:22.735Z,,0,,,NaN,,,,,,false,,,,650851.9000000954,650851.5999999046,,650851.1999998093,,650870.281,8,400,,,
break_continue,html.Screen,4_102_2,2023-09-13T02:07:22.735Z,,0,,,NaN,,,,,,false,,,,650852.2999997139,650852.1999998093,,650852,,650870.281,8,400,,,
sequence,flow.Sequence,4_102,2023-09-13T02:07:22.735Z,,0,,,3554.010999809252,completion,,,,,false,,,,650852.5,650852.1999998093,647279.148,647280.1999998093,647298.189,650870.281,8,400,,,
trial,html.Screen,4_103_0,2023-09-13T02:07:27.245Z,,0,3,,4491.918999809306,response,ISIC_0033047.JPG,5,ISIC_0010878.JPG,ISIC_0033047.JPG,false,1,keypress(m),500,655362.5999999046,655362.1999998093,650851.439,650852.6999998093,650870.281,655382.391,8,400,4,,ISIC_0010878.JPG
break,html.Screen,4_103_1,2023-09-13T02:07:27.246Z,,0,,,NaN,,,,,,false,,,,655363.5,655363.1999998093,,655362.6999998093,,655382.391,8,400,,,
break_continue,html.Screen,4_103_2,2023-09-13T02:07:27.247Z,,0,,,NaN,,,,,,false,,,,655363.9000000954,655363.7999997139,,655363.5999999046,,655382.391,8,400,,,
sequence,flow.Sequence,4_103,2023-09-13T02:07:27.247Z,,0,,,4493.518999713939,completion,,,,,false,,,,655364.0999999046,655363.7999997139,650851.439,650852.5999999046,650870.281,655382.391,8,400,,,
trial,html.Screen,4_104_0,2023-09-13T02:07:32.107Z,,0,3,,4841.408999713953,response,ISIC_0067905.JPG,4,ISIC_0059722.JPG,ISIC_0059722.JPG,false,0,keypress(z),500,660224.0999999046,660223.7999997139,655363.325,655364.2999997139,655382.391,660243.878,8,400,5,,ISIC_0067905.JPG
break,html.Screen,4_104_1,2023-09-13T02:07:32.108Z,,0,,,NaN,,,,,,false,,,,660225.0999999046,660224.7999997139,,660224.2999997139,,660243.878,8,400,,,
break_continue,html.Screen,4_104_2,2023-09-13T02:07:32.108Z,,0,,,NaN,,,,,,false,,,,660225.5999999046,660225.5,,660225.4000000954,,660243.878,8,400,,,
sequence,flow.Sequence,4_104,2023-09-13T02:07:32.109Z,,0,,,4843.109000000055,completion,,,,,false,,,,660225.7999997139,660225.5,655363.325,655364.1999998093,655382.391,660243.878,8,400,,,
trial,html.Screen,4_105_0,2023-09-13T02:07:34.817Z,,0,3,,2690.321999809239,response,ISIC_9596721.JPG,5,ISIC_0032147.JPG,ISIC_0032147.JPG,false,0,keypress(z),500,662934.5,662934.1999998093,660225.008,660225.9000000954,660243.878,662970.416,8,400,6,,ISIC_9596721.JPG
break,html.Screen,4_105_1,2023-09-13T02:07:34.818Z,,0,,,NaN,,,,,,false,,,,662935.4000000954,662935,,662934.6999998093,,662970.416,8,400,,,
break_continue,html.Screen,4_105_2,2023-09-13T02:07:34.819Z,,0,,,NaN,,,,,,false,,,,662935.7999997139,662935.6999998093,,662935.5,,662970.416,8,400,,,
sequence,flow.Sequence,4_105,2023-09-13T02:07:34.819Z,,0,,,2691.821999809239,completion,,,,,false,,,,662936,662935.6999998093,660225.008,660225.9000000954,660243.878,662970.416,8,400,,,
trial,html.Screen,4_106_0,2023-09-13T02:07:39.633Z,,0,3,,4779.084000000032,response,ISIC_4069836.JPG,5,ISIC_7581199.JPG,ISIC_7581199.JPG,false,0,keypress(z),500,667749.7999997139,667749.5,662954.287,662936.1999998093,662970.416,667769.797,8,400,7,,ISIC_4069836.JPG
break,html.Screen,4_106_1,2023-09-13T02:07:39.633Z,,0,,,NaN,,,,,,false,,,,667750.6999998093,667750.4000000954,,667750,,667769.797,8,400,,,
break_continue,html.Screen,4_106_2,2023-09-13T02:07:39.635Z,,0,,,NaN,,,,,,false,,,,667751.7999997139,667751.5999999046,,667751.4000000954,,667769.797,8,400,,,
sequence,flow.Sequence,4_106,2023-09-13T02:07:39.635Z,,0,,,4781.183999904664,completion,,,,,false,,,,667752,667751.5999999046,662954.287,662936.0999999046,662970.416,667769.797,8,400,,,
trial,html.Screen,4_107_0,2023-09-13T02:07:45.464Z,,0,3,,5811.103000095347,response,ISIC_5230371.JPG,4,ISIC_7699223.JPG,ISIC_7699223.JPG,false,0,keypress(z),500,673581.1999998093,673580.9000000954,667750.347,667752.1999998093,667769.797,673600.497,8,400,8,,ISIC_5230371.JPG
break,html.Screen,4_107_1,2023-09-13T02:07:45.465Z,,0,,,NaN,,,,,,false,,,,673582.0999999046,673581.6999998093,,673581.4000000954,,673600.497,8,400,,,
break_continue,html.Screen,4_107_2,2023-09-13T02:07:45.466Z,,0,,,NaN,,,,,,false,,,,673583.0999999046,673582.9000000954,,673582.2999997139,,673600.497,8,400,,,
sequence,flow.Sequence,4_107,2023-09-13T02:07:45.466Z,,0,,,5813.103000095347,completion,,,,,false,,,,673583.1999998093,673582.9000000954,667750.347,667752.0999999046,667769.797,673600.497,8,400,,,
trial,html.Screen,4_108_0,2023-09-13T02:07:52.169Z,,0,3,,6685.503000000026,response,ISIC_6718969.JPG,5,ISIC_8612828.JPG,ISIC_8612828.JPG,false,0,keypress(z),500,680286.2999997139,680286,673578.885,673583.4000000954,673600.497,680305.584,8,400,9,,ISIC_6718969.JPG
break,html.Screen,4_108_1,2023-09-13T02:07:52.170Z,,0,,,NaN,,,,,,false,,,,680287.1999998093,680286.7999997139,,680286.5,,680305.584,8,400,,,
break_continue,html.Screen,4_108_2,2023-09-13T02:07:52.170Z,,0,,,NaN,,,,,,false,,,,680287.5999999046,680287.5,,680287.2999997139,,680305.584,8,400,,,
sequence,flow.Sequence,4_108,2023-09-13T02:07:52.171Z,,0,,,6687.003000000026,completion,,,,,false,,,,680287.7999997139,680287.5,673578.885,673583.2999997139,673600.497,680305.584,8,400,,,
trial,html.Screen,4_109_0,2023-09-13T02:07:57.246Z,,0,3,,5057.6159998092335,response,ISIC_0073032.JPG,5,ISIC_6705966.JPG,ISIC_6705966.JPG,false,0,keypress(z),500,685363.5,685363.1999998093,680286.959,680288,680305.584,685382.964,8,400,10,,ISIC_0073032.JPG
break,html.Screen,4_109_1,2023-09-13T02:07:57.247Z,,0,,,NaN,,,,,,false,,,,685364.5,685364.0999999046,,685363.6999998093,,685382.964,8,400,,,
break_continue,html.Screen,4_109_2,2023-09-13T02:07:57.248Z,,0,,,NaN,,,,,,false,,,,685365.0999999046,685365,,685364.6999998093,,685382.964,8,400,,,
sequence,flow.Sequence,4_109,2023-09-13T02:07:57.248Z,,0,,,5059.415999999968,completion,,,,,false,,,,685365.2999997139,685365,680286.959,680287.9000000954,680305.584,685382.964,8,400,,,
trial,html.Screen,4_110_0,2023-09-13T02:08:01.701Z,,0,3,,4434.936000095331,response,ISIC_8397011.JPG,5,ISIC_0027411.JPG,ISIC_8397011.JPG,false,1,keypress(m),500,689818.1999998093,689817.9000000954,685363.469,685365.4000000954,685382.964,689838.155,8,400,11,,ISIC_0027411.JPG
break,html.Screen,4_110_1,2023-09-13T02:08:01.702Z,,0,,,NaN,,,,,,false,,,,689819.0999999046,689818.9000000954,,689818.5,,689838.155,8,400,,,
break_continue,html.Screen,4_110_2,2023-09-13T02:08:01.703Z,,0,,,NaN,,,,,,false,,,,689819.7999997139,689819.5999999046,,689819.2999997139,,689838.155,8,400,,,
sequence,flow.Sequence,4_110,2023-09-13T02:08:01.703Z,,0,,,4436.635999904596,completion,,,,,false,,,,689819.9000000954,689819.5999999046,685363.469,685365.4000000954,685382.964,689838.155,8,400,,,
trial,html.Screen,4_111_0,2023-09-13T02:08:05.217Z,,0,3,,3495.7450000953395,response,ISIC_5616806.JPG,5,ISIC_3820669.JPG,ISIC_3820669.JPG,false,0,keypress(z),500,693334.1999998093,693333.9000000954,689819.019,689820.0999999046,689838.155,693353.701,8,400,12,,ISIC_5616806.JPG
break,html.Screen,4_111_1,2023-09-13T02:08:05.218Z,,0,,,NaN,,,,,,false,,,,693335.0999999046,693334.7999997139,,693334.4000000954,,693353.701,8,400,,,
break_continue,html.Screen,4_111_2,2023-09-13T02:08:05.218Z,,0,,,NaN,,,,,,false,,,,693335.5999999046,693335.5,,693335.2999997139,,693353.701,8,400,,,
sequence,flow.Sequence,4_111,2023-09-13T02:08:05.219Z,,0,,,3497.344999999972,completion,,,,,false,,,,693335.7999997139,693335.5,689819.019,689820.0999999046,689838.155,693353.701,8,400,,,
trial,html.Screen,4_112_0,2023-09-13T02:08:10.158Z,,0,3,,4920.998999809264,response,ISIC_9141817.JPG,5,ISIC_0031883.JPG,ISIC_0031883.JPG,false,0,keypress(z),500,698274.9000000954,698274.6999998093,693331.689,693335.9000000954,693353.701,698294.305,8,400,13,,ISIC_9141817.JPG
break,html.Screen,4_112_1,2023-09-13T02:08:10.159Z,,0,,,NaN,,,,,,false,,,,698275.9000000954,698275.5,,698275.1999998093,,698294.305,8,400,,,
break_continue,html.Screen,4_112_2,2023-09-13T02:08:10.159Z,,0,,,NaN,,,,,,false,,,,698276.4000000954,698276.2999997139,,698276.0999999046,,698294.305,8,400,,,
sequence,flow.Sequence,4_112,2023-09-13T02:08:10.159Z,,0,,,4922.598999713897,completion,,,,,false,,,,698276.5,698276.2999997139,693331.689,693335.7999997139,693353.701,698294.305,8,400,,,
trial,html.Screen,4_113_0,2023-09-13T02:08:16.995Z,,0,3,,6817.4949997138465,response,ISIC_0056984.JPG,5,ISIC_4224064.JPG,ISIC_4224064.JPG,false,0,keypress(z),500,705112.0999999046,705111.7999997139,698275.906,698276.6999998093,698294.305,705132.112,8,400,14,,ISIC_0056984.JPG
break,html.Screen,4_113_1,2023-09-13T02:08:16.996Z,,0,,,NaN,,,,,,false,,,,705113,705112.7999997139,,705112.2999997139,,705132.112,8,400,,,
break_continue,html.Screen,4_113_2,2023-09-13T02:08:16.997Z,,0,,,NaN,,,,,,false,,,,705114.0999999046,705114,,705113.7999997139,,705132.112,8,400,,,
sequence,flow.Sequence,4_113,2023-09-13T02:08:16.997Z,,0,,,6819.694999999949,completion,,,,,false,,,,705114.2999997139,705114,698275.906,698276.6999998093,698294.305,705132.112,8,400,,,
trial,html.Screen,4_114_0,2023-09-13T02:08:28.496Z,,0,3,,11513.76000000001,timeout,ISIC_0011752.JPG,4,ISIC_2461360.JPG,,false,,,500,716613.6999998093,716613.4000000954,705112.441,705114.5,705132.112,716645.872,8,400,15,,
break,html.Screen,4_114_1,2023-09-13T02:08:28.497Z,,0,,,NaN,,,,,,false,,,,716614.4000000954,716614.1999998093,,716613.7999997139,,716645.872,8,400,,,
break_continue,html.Screen,4_114_2,2023-09-13T02:08:28.498Z,,0,,,NaN,,,,,,false,,,,716614.7999997139,716614.6999998093,,716614.5,,716645.872,8,400,,,
sequence,flow.Sequence,4_114,2023-09-13T02:08:28.498Z,,0,,,11482.5879998093,completion,,,,,false,,,,716615,716614.6999998093,705112.441,705114.4000000954,705132.112,716645.872,8,400,,,
trial,html.Screen,4_115_0,2023-09-13T02:08:31.868Z,,0,3,,3338.628000000026,response,ISIC_0055046.JPG,5,ISIC_0031565.JPG,ISIC_0031565.JPG,false,0,keypress(z),500,719984.7999997139,719984.5,716628.852,716615.0999999046,716645.872,720004.353,8,400,16,,ISIC_0055046.JPG
break,html.Screen,4_115_1,2023-09-13T02:08:31.869Z,,0,,,NaN,,,,,,false,,,,719985.6999998093,719985.4000000954,,719985,,720004.353,8,400,,,
break_continue,html.Screen,4_115_2,2023-09-13T02:08:31.869Z,,0,,,NaN,,,,,,false,,,,719986.6999998093,719986.5999999046,,719986,,720004.353,8,400,,,
sequence,flow.Sequence,4_115,2023-09-13T02:08:31.870Z,,0,,,3340.7279999046586,completion,,,,,false,,,,719986.9000000954,719986.5999999046,716628.852,716615.0999999046,716645.872,720004.353,8,400,,,
trial,html.Screen,4_116_0,2023-09-13T02:08:34.590Z,,0,3,,2702.8469998092623,response,ISIC_7935989.JPG,5,ISIC_1046678.JPG,ISIC_1046678.JPG,false,0,keypress(z),500,722707.5,722707.1999998093,719984.891,719987,720004.353,722709.965,8,400,17,,ISIC_7935989.JPG
break,html.Screen,4_116_1,2023-09-13T02:08:34.591Z,,0,,,NaN,,,,,,false,,,,722708.5999999046,722708.2999997139,,722707.7999997139,,722709.965,8,400,,,
break_continue,html.Screen,4_116_2,2023-09-13T02:08:34.592Z,,0,,,NaN,,,,,,false,,,,722709.0999999046,722709.0999999046,,722708.9000000954,,722709.965,8,400,,,
sequence,flow.Sequence,4_116,2023-09-13T02:08:34.592Z,,0,,,2704.74699990463,completion,,,,,false,,,,722709.5,722709.0999999046,719984.891,719987,720004.353,722709.965,8,400,,,
trial,html.Screen,4_117_0,2023-09-13T02:08:37.303Z,,0,3,,2709.634999904665,response,ISIC_4384341.JPG,5,ISIC_3444719.JPG,ISIC_3444719.JPG,false,0,keypress(z),500,725419.9000000954,725419.5999999046,722708.218,722709.6999998093,722709.965,725439.036,8,400,18,,ISIC_4384341.JPG
break,html.Screen,4_117_1,2023-09-13T02:08:37.303Z,,0,,,NaN,,,,,,false,,,,725420.5999999046,725420.2999997139,,725420,,725439.036,8,400,,,
break_continue,html.Screen,4_117_2,2023-09-13T02:08:37.304Z,,0,,,NaN,,,,,,false,,,,725420.7999997139,725420.6999998093,,725420.5999999046,,725439.036,8,400,,,
sequence,flow.Sequence,4_117,2023-09-13T02:08:37.304Z,,0,,,2710.7349998092977,completion,,,,,false,,,,725420.9000000954,725420.6999998093,722708.218,722709.5999999046,722709.965,725439.036,8,400,,,
trial,html.Screen,4_118_0,2023-09-13T02:08:40.267Z,,0,3,,2945.1639998093015,response,ISIC_3349562.JPG,5,ISIC_0295323.JPG,ISIC_0295323.JPG,false,0,keypress(z),500,728384.4000000954,728384.1999998093,725419.895,725420.9000000954,725439.036,728403.754,8,400,19,,ISIC_3349562.JPG
break,html.Screen,4_118_1,2023-09-13T02:08:40.268Z,,0,,,NaN,,,,,,false,,,,728385.4000000954,728385,,728384.5999999046,,728403.754,8,400,,,
break_continue,html.Screen,4_118_2,2023-09-13T02:08:40.269Z,,0,,,NaN,,,,,,false,,,,728385.9000000954,728385.6999998093,,728385.5,,728403.754,8,400,,,
sequence,flow.Sequence,4_118,2023-09-13T02:08:40.269Z,,0,,,2946.6639998093015,completion,,,,,false,,,,728386,728385.6999998093,725419.895,725420.9000000954,725439.036,728403.754,8,400,,,
trial,html.Screen,4_119_0,2023-09-13T02:08:42.862Z,,0,3,,2575.0459997139405,response,ISIC_6908183.JPG,4,ISIC_0645834.JPG,ISIC_0645834.JPG,false,0,keypress(z),500,730979.1999998093,730978.7999997139,728385.015,728386.0999999046,728403.754,730999.15,8,400,20,,ISIC_6908183.JPG
break,html.Screen,4_119_1,2023-09-13T02:08:42.863Z,,0,,,NaN,,,,,,false,,,,730980.0999999046,730979.9000000954,,730979.4000000954,,730999.15,8,400,,,
break_continue,html.Screen,4_119_2,2023-09-13T02:08:42.863Z,,0,,,NaN,,,,,,false,,,,730980.5999999046,730980.4000000954,,730980.2999997139,,730999.15,8,400,,,
sequence,flow.Sequence,4_119,2023-09-13T02:08:42.864Z,,0,,,2576.6460000954103,completion,,,,,false,,,,730980.7999997139,730980.4000000954,728385.015,728386.0999999046,728403.754,730999.15,8,400,,,
trial,html.Screen,4_120_0,2023-09-13T02:08:46.528Z,,0,3,,3646.1499997138744,response,ISIC_0011959.JPG,5,ISIC_5152000.JPG,ISIC_5152000.JPG,false,0,keypress(z),500,734645.5999999046,734645.2999997139,730979.538,730980.9000000954,730999.15,734665.57,8,400,21,,ISIC_0011959.JPG
break,html.Screen,4_120_1,2023-09-13T02:08:46.529Z,,0,,,NaN,,,,,,false,,,,734646.6999998093,734646.2999997139,,734646,,734665.57,8,400,,,
break_continue,html.Screen,4_120_2,2023-09-13T02:08:46.530Z,,0,,,NaN,,,,,,false,,,,734647.1999998093,734647.0999999046,,734646.9000000954,,734665.57,8,400,,,
sequence,flow.Sequence,4_120,2023-09-13T02:08:46.530Z,,0,,,3647.9499999046093,completion,,,,,false,,,,734647.5999999046,734647.0999999046,730979.538,730980.9000000954,730999.15,734665.57,8,400,,,
trial,html.Screen,4_121_0,2023-09-13T02:08:49.758Z,,0,3,,3209.729999713949,response,ISIC_0054292.JPG,7,ISIC_0033801.JPG,ISIC_0033801.JPG,false,0,keypress(z),500,737875.5999999046,737875.2999997139,734645.774,734647.6999998093,734665.57,737894.871,8,400,22,,ISIC_0054292.JPG
break,html.Screen,4_121_1,2023-09-13T02:08:49.759Z,,0,,,NaN,,,,,,false,,,,737876.5,737876.1999998093,,737875.7999997139,,737894.871,8,400,,,
break_continue,html.Screen,4_121_2,2023-09-13T02:08:49.760Z,,0,,,NaN,,,,,,false,,,,737877.5,737877.4000000954,,737876.7999997139,,737894.871,8,400,,,
sequence,flow.Sequence,4_121,2023-09-13T02:08:49.761Z,,0,,,3211.8300000954187,completion,,,,,false,,,,737877.7999997139,737877.4000000954,734645.774,734647.6999998093,734665.57,737894.871,8,400,,,
trial,html.Screen,4_122_0,2023-09-13T02:08:54.213Z,,0,3,,4435.128999999957,response,ISIC_0160831.JPG,5,ISIC_0031208.JPG,ISIC_0031208.JPG,false,0,keypress(z),500,742330.1999998093,742330,737876.411,737877.9000000954,737894.871,742332.393,8,400,23,,ISIC_0160831.JPG
break,html.Screen,4_122_1,2023-09-13T02:08:54.214Z,,0,,,NaN,,,,,,false,,,,742331.1999998093,742330.9000000954,,742330.4000000954,,742332.393,8,400,,,
break_continue,html.Screen,4_122_2,2023-09-13T02:08:54.214Z,,0,,,NaN,,,,,,false,,,,742331.6999998093,742331.5999999046,,742331.2999997139,,742332.393,8,400,,,
sequence,flow.Sequence,4_122,2023-09-13T02:08:54.215Z,,0,,,4436.72899990459,completion,,,,,false,,,,742331.7999997139,742331.5999999046,737876.411,737877.9000000954,737894.871,742332.393,8,400,,,
trial,html.Screen,4_123_0,2023-09-13T02:08:57.674Z,,0,3,,3458.60699999996,response,ISIC_6963954.JPG,5,ISIC_0031717.JPG,ISIC_6963954.JPG,false,1,keypress(m),500,745791.2999997139,745791,742331.144,742331.9000000954,742332.393,745810.651,8,400,24,,ISIC_0031717.JPG
break,html.Screen,4_123_1,2023-09-13T02:08:57.675Z,,0,,,NaN,,,,,,false,,,,745792.1999998093,745791.9000000954,,745791.5999999046,,745810.651,8,400,,,
break_continue,html.Screen,4_123_2,2023-09-13T02:08:57.676Z,,0,,,NaN,,,,,,false,,,,745793,745792.5999999046,,745792.2999997139,,745810.651,8,400,,,
sequence,flow.Sequence,4_123,2023-09-13T02:08:57.676Z,,0,,,3460.2069999045925,completion,,,,,false,,,,745793.0999999046,745792.5999999046,742331.144,742331.9000000954,742332.393,745810.651,8,400,,,
trial,html.Screen,4_124_0,2023-09-13T02:09:00.489Z,,0,3,,2795.1489997139433,response,ISIC_0026293.JPG,4,ISIC_0025592.JPG,ISIC_0026293.JPG,false,1,keypress(m),500,748606,748605.7999997139,745779.535,745793.2999997139,745810.651,748613.534,8,400,25,,ISIC_0025592.JPG
break,html.Screen,4_124_1,2023-09-13T02:09:00.490Z,,0,,,NaN,,,,,,false,,,,748606.9000000954,748606.6999998093,,748606.2999997139,,748613.534,8,400,,,
break_continue,html.Screen,4_124_2,2023-09-13T02:09:00.490Z,,0,,,NaN,,,,,,false,,,,748607.5,748607.2999997139,,748607.0999999046,,748613.534,8,400,,,
sequence,flow.Sequence,4_124,2023-09-13T02:09:00.490Z,,0,,,2796.6489997139433,completion,,,,,false,,,,748607.5999999046,748607.2999997139,745779.535,745793.1999998093,745810.651,748613.534,8,400,,,
trial,html.Screen,4_125_0,2023-09-13T02:09:03.082Z,,0,3,,2585.5659999046475,response,ISIC_1781273.JPG,6,ISIC_1859923.JPG,ISIC_1781273.JPG,false,1,keypress(m),500,751199.5,751199.0999999046,748606.807,748607.7999997139,748613.534,751219.508,8,400,26,,ISIC_1859923.JPG
break,html.Screen,4_125_1,2023-09-13T02:09:03.083Z,,0,,,NaN,,,,,,false,,,,751200.4000000954,751200.0999999046,,751199.6999998093,,751219.508,8,400,,,
break_continue,html.Screen,4_125_2,2023-09-13T02:09:03.084Z,,0,,,NaN,,,,,,false,,,,751201.2999997139,751200.6999998093,,751200.5999999046,,751219.508,8,400,,,
