sender,sender_type,sender_id,timestamp,meta,,blockNo,condition,duration,ended_on,img_left,img_reveal,img_right,loser,practice,response,response_action,selection_duration,time_commit,time_end,time_render,time_run,time_show,time_switch,total_blocks,total_trials,trialNo,url,winner
informed_consent,html.Screen,0,2023-11-02T18:07:30.301Z,"{""labjs_version"":""20.2.4"",""labjs_build"":{""flavor"":""production"",""commit"":""f5b4a49f956347addd546a832a3327688c2c0fef""},""location"":""https://run.pavlovia.org/MurrayBennett/melanoma-2afc/?participant=66763&platform=sona"",""userAgent"":""Mozilla/5.0 (Macintosh; Intel Mac OS X 10_15_7) AppleWebKit/537.36 (KHTML, like Gecko) Chrome/116.0.0.0 Safari/537.36"",""platform"":""MacIntel"",""language"":""en-US"",""locale"":""en-US"",""timeZone"":""America/Chicago"",""timezoneOffset"":300,""screen_width"":1440,""screen_height"":900,""scroll_width"":1440,""scroll_height"":767,""window_innerWidth"":1440,""window_innerHeight"":815,""devicePixelRatio"":2}",,,,4421.305999976158,response,,,,,,consent,click button,,6010.299999952316,6008.899999976158,1454.266,1600.5,1587.594,6020.75,,,,"{""participant"":""66763"",""platform"":""sona""}",
Welcome,html.Screen,1,2023-11-02T18:07:51.951Z,,,,colourful,21638.549999952316,response,,,,,,continue,click button,,27661.099999904633,27659.299999952316,6004.084,6010.399999976158,6020.75,27671.489,,,,,
trial,html.Screen,2_0_0,2023-11-02T18:07:57.972Z,,0,0,,6010.310999952315,response,ISIC_0063388.JPG,,ISIC_0025593.JPG,ISIC_0063388.JPG,true,1,keypress(m),500,33682.699999928474,33681.799999952316,27654.823,27661.299999952316,27671.489,33687.915,1,6,1,,ISIC_0025593.JPG
sequence,flow.Sequence,2_0,2023-11-02T18:07:57.973Z,,0,,,6010.310999952315,completion,,,,,true,,,,33683.299999952316,33681.799999952316,27654.823,27661.199999928474,27671.489,33687.915,1,6,,,
trial,html.Screen,2_1_0,2023-11-02T18:08:03.511Z,,0,0,,5532.884999952315,response,ISIC_1309015.JPG,,ISIC_0028178.JPG,ISIC_1309015.JPG,true,1,keypress(m),500,39221.299999952316,39220.799999952316,33671.249,33683.5,33687.915,39238.346,1,6,2,,ISIC_0028178.JPG
sequence,flow.Sequence,2_1,2023-11-02T18:08:03.511Z,,0,,,5532.884999952315,completion,,,,,true,,,,39221.699999928474,39220.799999952316,33671.249,33683.39999997616,33687.915,39238.346,1,6,,,
trial,html.Screen,2_2_0,2023-11-02T18:08:09.355Z,,0,0,,5826.05399997616,response,ISIC_3314853.JPG,,ISIC_0031128.JPG,ISIC_3314853.JPG,true,1,keypress(m),500,45065,45064.39999997616,39221.68,39222,39238.346,45071.446,1,6,3,,ISIC_0031128.JPG
sequence,flow.Sequence,2_2,2023-11-02T18:08:09.355Z,,0,,,5826.05399997616,completion,,,,,true,,,,45065.5,45064.39999997616,39221.68,39221.89999997616,39238.346,45071.446,1,6,,,
trial,html.Screen,2_3_0,2023-11-02T18:08:14.705Z,,0,0,,5343.253999928471,response,ISIC_8980141.JPG,,ISIC_0031612.JPG,ISIC_0031612.JPG,true,0,keypress(z),500,50415.299999952316,50414.699999928474,45054.78,45065.799999952316,45071.446,50421.867,1,6,4,,ISIC_8980141.JPG
sequence,flow.Sequence,2_3,2023-11-02T18:08:14.705Z,,0,,,5343.253999928471,completion,,,,,true,,,,50415.89999997616,50414.699999928474,45054.78,45065.699999928474,45071.446,50421.867,1,6,,,
trial,html.Screen,2_4_0,2023-11-02T18:08:18.405Z,,0,0,,3693.232999904634,response,ISIC_9721604.JPG,,ISIC_1197737.JPG,ISIC_9721604.JPG,true,1,keypress(m),500,54115.799999952316,54115.09999990463,50405.201,50416.199999928474,50421.867,54121.719,1,6,5,,ISIC_1197737.JPG
sequence,flow.Sequence,2_4,2023-11-02T18:08:18.405Z,,0,,,3693.232999904634,completion,,,,,true,,,,54116.199999928474,54115.09999990463,50405.201,50416.09999990463,50421.867,54121.719,1,6,,,
trial,html.Screen,2_5_0,2023-11-02T18:08:24.150Z,,0,0,,5738.281000000003,response,ISIC_0010681.JPG,,ISIC_0025346.JPG,ISIC_0010681.JPG,true,1,keypress(m),500,59860.59999990463,59860,54105.053,54116.39999997616,54121.719,59871.489,1,6,6,,ISIC_0025346.JPG
sequence,flow.Sequence,2_5,2023-11-02T18:08:24.150Z,,0,,,5738.281000000003,completion,,,,,true,,,,59861.09999990463,59860,54105.053,54116.299999952316,54121.719,59871.489,1,6,,,
loop,flow.Loop,2,2023-11-02T18:08:24.150Z,,,,,32188.511,completion,,,,,true,,,,59861.299999952316,59860,27654.823,27661.199999928474,27671.489,59871.489,1,6,,,
exp_instructions,html.Screen,3,2023-11-02T18:08:39.447Z,,,,,15283.510999999999,response,,,,,,continue,keypress(Space),,75158.5,75155,59854.823,59861.5,59871.489,75172.208,,,,,
trial,html.Screen,4_0_0,2023-11-02T18:08:48.836Z,,0,1,,9374.891999904634,response,ISIC_1744817.JPG,8,ISIC_4062017.JPG,ISIC_1744817.JPG,false,1,keypress(m),500,84547.5,84547.09999990463,75155.542,75158.89999997616,75172.208,84555.764,8,400,1,,ISIC_4062017.JPG
break,html.Screen,4_0_1,2023-11-02T18:08:48.838Z,,0,,,NaN,,,,,,false,,,,84549.09999990463,84548.79999995232,,84547.89999997616,,84555.764,8,400,,,
break_continue,html.Screen,4_0_2,2023-11-02T18:08:48.838Z,,0,,,NaN,,,,,,false,,,,84549.69999992847,84549.5,,84549.19999992847,,84555.764,8,400,,,
sequence,flow.Sequence,4_0,2023-11-02T18:08:48.838Z,,0,,,9377.292000000001,completion,,,,,false,,,,84549.79999995232,84549.5,75155.542,75158.79999995232,75172.208,84555.764,8,400,,,
trial,html.Screen,4_1_0,2023-11-02T18:08:53.718Z,,0,1,,4872.635999976163,response,ISIC_0013244.JPG,9,ISIC_0063243.JPG,ISIC_0013244.JPG,false,1,keypress(m),500,89430.09999990463,89428.39999997616,84539.098,84550,84555.764,89438.902,8,400,2,,ISIC_0063243.JPG
break,html.Screen,4_1_1,2023-11-02T18:08:53.720Z,,0,,,NaN,,,,,,false,,,,89431.19999992847,89431,,89430.39999997616,,89438.902,8,400,,,
break_continue,html.Screen,4_1_2,2023-11-02T18:08:53.720Z,,0,,,NaN,,,,,,false,,,,89431.5,89431.39999997616,,89431.29999995232,,89438.902,8,400,,,
sequence,flow.Sequence,4_1,2023-11-02T18:08:53.720Z,,0,,,4875.635999976163,completion,,,,,false,,,,89431.59999990463,89431.39999997616,84539.098,84550,84555.764,89438.902,8,400,,,
trial,html.Screen,4_2_0,2023-11-02T18:08:59.180Z,,0,1,,5452.197999904631,response,ISIC_2299749.JPG,7,ISIC_0072157.JPG,ISIC_2299749.JPG,false,1,keypress(m),500,94891.59999990463,94891.09999990463,89422.236,89431.69999992847,89438.902,94905.908,8,400,3,,ISIC_0072157.JPG
break,html.Screen,4_2_1,2023-11-02T18:08:59.181Z,,0,,,NaN,,,,,,false,,,,94892.89999997616,94892.59999990463,,94891.89999997616,,94905.908,8,400,,,
break_continue,html.Screen,4_2_2,2023-11-02T18:08:59.181Z,,0,,,NaN,,,,,,false,,,,94893.19999992847,94893.09999990463,,94893,,94905.908,8,400,,,
sequence,flow.Sequence,4_2,2023-11-02T18:08:59.182Z,,0,,,5454.197999904631,completion,,,,,false,,,,94893.39999997616,94893.09999990463,89422.236,89431.69999992847,89438.902,94905.908,8,400,,,
trial,html.Screen,4_3_0,2023-11-02T18:09:05.859Z,,0,1,,6664.592000000004,response,ISIC_3230874.JPG,8,ISIC_0055731.JPG,ISIC_0055731.JPG,false,0,keypress(z),500,101571,101570.5,94889.242,94893.59999990463,94905.908,101572.308,8,400,4,,ISIC_3230874.JPG
break,html.Screen,4_3_1,2023-11-02T18:09:05.860Z,,0,,,NaN,,,,,,false,,,,101572.29999995232,101572,,101571.39999997616,,101572.308,8,400,,,
break_continue,html.Screen,4_3_2,2023-11-02T18:09:05.861Z,,0,,,NaN,,,,,,false,,,,101572.59999990463,101572.5,,101572.39999997616,,101572.308,8,400,,,
sequence,flow.Sequence,4_3,2023-11-02T18:09:05.861Z,,0,,,6666.592000000004,completion,,,,,false,,,,101572.79999995232,101572.5,94889.242,94893.5,94905.908,101572.308,8,400,,,
trial,html.Screen,4_4_0,2023-11-02T18:09:10.875Z,,0,1,,5013.991999952312,response,ISIC_0027666.JPG,8,ISIC_0033883.JPG,ISIC_0033883.JPG,false,0,keypress(z),500,106586.69999992847,106586.29999995232,101555.642,101572.89999997616,101572.308,106589.4,8,400,5,,ISIC_0027666.JPG
break,html.Screen,4_4_1,2023-11-02T18:09:10.876Z,,0,,,NaN,,,,,,false,,,,106587.89999997616,106587.69999992847,,106587.09999990463,,106589.4,8,400,,,
break_continue,html.Screen,4_4_2,2023-11-02T18:09:10.876Z,,0,,,NaN,,,,,,false,,,,106588.29999995232,106588.09999990463,,106588,,106589.4,8,400,,,
sequence,flow.Sequence,4_4,2023-11-02T18:09:10.876Z,,0,,,5015.791999904628,completion,,,,,false,,,,106588.5,106588.09999990463,101555.642,101572.79999995232,101572.308,106589.4,8,400,,,
trial,html.Screen,4_5_0,2023-11-02T18:09:19.762Z,,0,1,,8884.600000000006,response,ISIC_0377965.JPG,6,ISIC_0010321.JPG,ISIC_0377965.JPG,false,1,keypress(m),500,115474.39999997616,115474,106572.734,106588.59999990463,106589.4,115489.603,8,400,6,,ISIC_0010321.JPG
break,html.Screen,4_5_1,2023-11-02T18:09:19.764Z,,0,,,NaN,,,,,,false,,,,115475.79999995232,115475.5,,115474.69999992847,,115489.603,8,400,,,
break_continue,html.Screen,4_5_2,2023-11-02T18:09:19.764Z,,0,,,NaN,,,,,,false,,,,115476.09999990463,115476,,115475.89999997616,,115489.603,8,400,,,
sequence,flow.Sequence,4_5,2023-11-02T18:09:19.764Z,,0,,,8886.600000000006,completion,,,,,false,,,,115476.29999995232,115476,106572.734,106588.59999990463,106589.4,115489.603,8,400,,,
trial,html.Screen,4_6_0,2023-11-02T18:09:24.903Z,,0,1,,5125.096999928472,response,ISIC_0000304.JPG,6,ISIC_7244604.JPG,ISIC_7244604.JPG,false,0,keypress(z),500,120615.19999992847,120614.69999992847,115472.937,115476.5,115489.603,120622.731,8,400,7,,ISIC_0000304.JPG
break,html.Screen,4_6_1,2023-11-02T18:09:24.904Z,,0,,,NaN,,,,,,false,,,,120616.39999997616,120616.19999992847,,120615.5,,120622.731,8,400,,,
break_continue,html.Screen,4_6_2,2023-11-02T18:09:24.904Z,,0,,,NaN,,,,,,false,,,,120616.69999992847,120616.69999992847,,120616.5,,120622.731,8,400,,,
sequence,flow.Sequence,4_6,2023-11-02T18:09:24.905Z,,0,,,5127.096999928472,completion,,,,,false,,,,120617,120616.69999992847,115472.937,115476.39999997616,115489.603,120622.731,8,400,,,
trial,html.Screen,4_7_0,2023-11-02T18:09:30.877Z,,0,1,,5966.468999928475,response,ISIC_0620587.JPG,7,ISIC_0271408.JPG,ISIC_0271408.JPG,false,0,keypress(z),500,126589.59999990463,126589.19999992847,120606.065,120617.09999990463,120622.731,126606.401,8,400,8,,ISIC_0620587.JPG
break,html.Screen,4_7_1,2023-11-02T18:09:30.878Z,,0,,,NaN,,,,,,false,,,,126590.69999992847,126590.59999990463,,126589.79999995232,,126606.401,8,400,,,
break_continue,html.Screen,4_7_2,2023-11-02T18:09:30.879Z,,0,,,NaN,,,,,,false,,,,126591.09999990463,126591.09999990463,,126590.89999997616,,126606.401,8,400,,,
sequence,flow.Sequence,4_7,2023-11-02T18:09:30.879Z,,0,,,5968.368999904633,completion,,,,,false,,,,126591.29999995232,126591.09999990463,120606.065,120617.09999990463,120622.731,126606.401,8,400,,,
trial,html.Screen,4_8_0,2023-11-02T18:09:34.811Z,,0,1,,3916.99899997616,response,ISIC_6771810.JPG,7,ISIC_0064606.JPG,ISIC_6771810.JPG,false,1,keypress(m),500,130523.89999997616,130523.39999997616,126589.735,126591.39999997616,126606.401,130539.577,8,400,9,,ISIC_0064606.JPG
break,html.Screen,4_8_1,2023-11-02T18:09:34.812Z,,0,,,NaN,,,,,,false,,,,130525,130524.79999995232,,130524.19999992847,,130539.577,8,400,,,
break_continue,html.Screen,4_8_2,2023-11-02T18:09:34.813Z,,0,,,NaN,,,,,,false,,,,130525.39999997616,130525.19999992847,,130525.09999990463,,130539.577,8,400,,,
sequence,flow.Sequence,4_8,2023-11-02T18:09:34.813Z,,0,,,3918.7989999284764,completion,,,,,false,,,,130525.59999990463,130525.19999992847,126589.735,126591.39999997616,126606.401,130539.577,8,400,,,
trial,html.Screen,4_9_0,2023-11-02T18:09:40.161Z,,0,1,,5333.922999999995,response,ISIC_7011122.JPG,6,ISIC_6278273.JPG,ISIC_7011122.JPG,false,1,keypress(m),500,135874,135873.5,130522.911,130525.69999992847,130539.577,135889.967,8,400,10,,ISIC_6278273.JPG
break,html.Screen,4_9_1,2023-11-02T18:09:40.162Z,,0,,,NaN,,,,,,false,,,,135875.09999990463,135874.89999997616,,135874.29999995232,,135889.967,8,400,,,
break_continue,html.Screen,4_9_2,2023-11-02T18:09:40.163Z,,0,,,NaN,,,,,,false,,,,135875.5,135875.39999997616,,135875.29999995232,,135889.967,8,400,,,
sequence,flow.Sequence,4_9,2023-11-02T18:09:40.163Z,,0,,,5335.822999976153,completion,,,,,false,,,,135875.59999990463,135875.39999997616,130522.911,130525.69999992847,130539.577,135889.967,8,400,,,
trial,html.Screen,4_10_0,2023-11-02T18:09:46.644Z,,0,1,,6466.132999904628,response,ISIC_8194371.JPG,7,ISIC_8340256.JPG,ISIC_8194371.JPG,false,1,keypress(m),500,142356.59999990463,142356.09999990463,135873.301,135876.89999997616,135889.967,142373.041,8,400,11,,ISIC_8340256.JPG
break,html.Screen,4_10_1,2023-11-02T18:09:46.645Z,,0,,,NaN,,,,,,false,,,,142357.69999992847,142357.5,,142356.89999997616,,142373.041,8,400,,,
break_continue,html.Screen,4_10_2,2023-11-02T18:09:46.645Z,,0,,,NaN,,,,,,false,,,,142358.09999990463,142358,,142357.79999995232,,142373.041,8,400,,,
sequence,flow.Sequence,4_10,2023-11-02T18:09:46.645Z,,0,,,6468.032999999996,completion,,,,,false,,,,142358.19999992847,142358,135873.301,135876.89999997616,135889.967,142373.041,8,400,,,
trial,html.Screen,4_11_0,2023-11-02T18:09:51.561Z,,0,1,,4900.558999904635,response,ISIC_0011892.JPG,7,ISIC_4086323.JPG,ISIC_4086323.JPG,false,0,keypress(z),500,147274,147273.59999990463,142356.375,142358.39999997616,142373.041,147290.102,8,400,12,,ISIC_0011892.JPG
break,html.Screen,4_11_1,2023-11-02T18:09:51.562Z,,0,,,NaN,,,,,,false,,,,147275.19999992847,147275,,147274.5,,147290.102,8,400,,,
break_continue,html.Screen,4_11_2,2023-11-02T18:09:51.563Z,,0,,,NaN,,,,,,false,,,,147275.69999992847,147275.5,,147275.39999997616,,147290.102,8,400,,,
sequence,flow.Sequence,4_11,2023-11-02T18:09:51.563Z,,0,,,4902.459000000003,completion,,,,,false,,,,147275.89999997616,147275.5,142356.375,142358.39999997616,142373.041,147290.102,8,400,,,
trial,html.Screen,4_12_0,2023-11-02T18:09:56.578Z,,0,1,,5001.097999928461,response,ISIC_0031953.JPG,8,ISIC_0057287.JPG,ISIC_0031953.JPG,false,1,keypress(m),500,152291.59999990463,152291.19999992847,147273.436,147276,147290.102,152306.568,8,400,13,,ISIC_0057287.JPG
break,html.Screen,4_12_1,2023-11-02T18:09:56.579Z,,0,,,NaN,,,,,,false,,,,152292.5,152292.39999997616,,152291.79999995232,,152306.568,8,400,,,
break_continue,html.Screen,4_12_2,2023-11-02T18:09:56.580Z,,0,,,NaN,,,,,,false,,,,152292.79999995232,152292.79999995232,,152292.69999992847,,152306.568,8,400,,,
sequence,flow.Sequence,4_12,2023-11-02T18:09:56.580Z,,0,,,5002.697999952303,completion,,,,,false,,,,152293,152292.79999995232,147273.436,147275.89999997616,147290.102,152306.568,8,400,,,
trial,html.Screen,4_13_0,2023-11-02T18:10:04.025Z,,0,1,,7431.631999928475,response,ISIC_0465385.JPG,8,ISIC_0030434.JPG,ISIC_0465385.JPG,false,1,keypress(m),500,159738.69999992847,159738.19999992847,152289.902,152293.09999990463,152306.568,159740.227,8,400,14,,ISIC_0030434.JPG
break,html.Screen,4_13_1,2023-11-02T18:10:04.026Z,,0,,,NaN,,,,,,false,,,,159739.89999997616,159739.69999992847,,159739.09999990463,,159740.227,8,400,,,
break_continue,html.Screen,4_13_2,2023-11-02T18:10:04.027Z,,0,,,NaN,,,,,,false,,,,159740.19999992847,159740.09999990463,,159740,,159740.227,8,400,,,
sequence,flow.Sequence,4_13,2023-11-02T18:10:04.027Z,,0,,,7433.531999904633,completion,,,,,false,,,,159740.39999997616,159740.09999990463,152289.902,152293,152306.568,159740.227,8,400,,,
trial,html.Screen,4_14_0,2023-11-02T18:10:10.528Z,,0,1,,6500.7729999999865,response,ISIC_3306135.JPG,8,ISIC_0065872.JPG,ISIC_0065872.JPG,false,0,keypress(z),500,166241.59999990463,166241,159723.561,159740.59999990463,159740.227,166256.633,8,400,15,,ISIC_3306135.JPG
break,html.Screen,4_14_1,2023-11-02T18:10:10.529Z,,0,,,NaN,,,,,,false,,,,166242.69999992847,166242.59999990463,,166241.89999997616,,166256.633,8,400,,,
break_continue,html.Screen,4_14_2,2023-11-02T18:10:10.530Z,,0,,,NaN,,,,,,false,,,,166243.09999990463,166243,,166242.79999995232,,166256.633,8,400,,,
sequence,flow.Sequence,4_14,2023-11-02T18:10:10.530Z,,0,,,6502.7729999999865,completion,,,,,false,,,,166243.19999992847,166243,159723.561,159740.39999997616,159740.227,166256.633,8,400,,,
trial,html.Screen,4_15_0,2023-11-02T18:10:17.187Z,,0,1,,6643.866999999998,response,ISIC_2784686.JPG,7,ISIC_1814941.JPG,ISIC_2784686.JPG,false,1,keypress(m),500,172901,172900.5,166239.967,166243.39999997616,166256.633,172906.938,8,400,16,,ISIC_1814941.JPG
break,html.Screen,4_15_1,2023-11-02T18:10:17.188Z,,0,,,NaN,,,,,,false,,,,172902.19999992847,172902,,172901.19999992847,,172906.938,8,400,,,
break_continue,html.Screen,4_15_2,2023-11-02T18:10:17.189Z,,0,,,NaN,,,,,,false,,,,172902.59999990463,172902.5,,172902.29999995232,,172906.938,8,400,,,
sequence,flow.Sequence,4_15,2023-11-02T18:10:17.189Z,,0,,,6645.866999999998,completion,,,,,false,,,,172902.79999995232,172902.5,166239.967,166243.39999997616,166256.633,172906.938,8,400,,,
trial,html.Screen,4_16_0,2023-11-02T18:10:21.706Z,,0,1,,4512.661999904638,response,ISIC_0000139.JPG,5,ISIC_0063070.JPG,ISIC_0063070.JPG,false,0,keypress(z),500,177420,177419.59999990463,172890.272,172902.89999997616,172906.938,177423.424,8,400,17,,ISIC_0000139.JPG
break,html.Screen,4_16_1,2023-11-02T18:10:21.707Z,,0,,,NaN,,,,,,false,,,,177421.29999995232,177421,,177420.39999997616,,177423.424,8,400,,,
break_continue,html.Screen,4_16_2,2023-11-02T18:10:21.708Z,,0,,,NaN,,,,,,false,,,,177421.69999992847,177421.5,,177421.39999997616,,177423.424,8,400,,,
sequence,flow.Sequence,4_16,2023-11-02T18:10:21.708Z,,0,,,4514.562000000005,completion,,,,,false,,,,177421.79999995232,177421.5,172890.272,172902.79999995232,172906.938,177423.424,8,400,,,
trial,html.Screen,4_17_0,2023-11-02T18:10:27.681Z,,0,1,,5970.775999928475,response,ISIC_0033037.JPG,8,ISIC_0026094.JPG,ISIC_0033037.JPG,false,1,keypress(m),500,183394.69999992847,183394.19999992847,177406.758,177422,177423.424,183407.095,8,400,18,,ISIC_0026094.JPG
break,html.Screen,4_17_1,2023-11-02T18:10:27.682Z,,0,,,NaN,,,,,,false,,,,183395.79999995232,183395.69999992847,,183395,,183407.095,8,400,,,
break_continue,html.Screen,4_17_2,2023-11-02T18:10:27.682Z,,0,,,NaN,,,,,,false,,,,183396.29999995232,183396.09999990463,,183395.89999997616,,183407.095,8,400,,,
sequence,flow.Sequence,4_17,2023-11-02T18:10:27.682Z,,0,,,5972.6759999046335,completion,,,,,false,,,,183396.5,183396.09999990463,177406.758,177421.89999997616,177423.424,183407.095,8,400,,,
trial,html.Screen,4_18_0,2023-11-02T18:10:37.448Z,,0,1,,9754.704999952315,response,ISIC_9350507.JPG,9,ISIC_9568327.JPG,ISIC_9568327.JPG,false,0,keypress(z),500,193162.29999995232,193161.79999995232,183390.429,183396.59999990463,183407.095,193174.257,8,400,19,,ISIC_9350507.JPG
break,html.Screen,4_18_1,2023-11-02T18:10:37.449Z,,0,,,NaN,,,,,,false,,,,193163.5,193163.29999995232,,193162.59999990463,,193174.257,8,400,,,
break_continue,html.Screen,4_18_2,2023-11-02T18:10:37.450Z,,0,,,NaN,,,,,,false,,,,193163.79999995232,193163.79999995232,,193163.59999990463,,193174.257,8,400,,,
sequence,flow.Sequence,4_18,2023-11-02T18:10:37.450Z,,0,,,9756.704999952315,completion,,,,,false,,,,193164,193163.79999995232,183390.429,183396.59999990463,183407.095,193174.257,8,400,,,
trial,html.Screen,4_19_0,2023-11-02T18:10:42.204Z,,0,1,,4743.542999952304,response,ISIC_7618133.JPG,8,ISIC_0031909.JPG,ISIC_7618133.JPG,false,1,keypress(m),500,197918.19999992847,197917.79999995232,193157.591,193164.19999992847,193174.257,197924.067,8,400,20,,ISIC_0031909.JPG
break,html.Screen,4_19_1,2023-11-02T18:10:42.205Z,,0,,,NaN,,,,,,false,,,,197919.39999997616,197919.19999992847,,197918.5,,197924.067,8,400,,,
break_continue,html.Screen,4_19_2,2023-11-02T18:10:42.205Z,,0,,,NaN,,,,,,false,,,,197919.79999995232,197919.69999992847,,197919.59999990463,,197924.067,8,400,,,
sequence,flow.Sequence,4_19,2023-11-02T18:10:42.206Z,,0,,,4745.442999928462,completion,,,,,false,,,,197920,197919.69999992847,193157.591,193164.09999990463,193174.257,197924.067,8,400,,,
trial,html.Screen,4_20_0,2023-11-02T18:10:49.187Z,,0,1,,6977.332999976148,response,ISIC_0024298.JPG,8,ISIC_0871853.JPG,ISIC_0024298.JPG,false,1,keypress(m),500,204901.89999997616,204901.39999997616,197907.401,197920.09999990463,197924.067,204907.7,8,400,21,,ISIC_0871853.JPG
break,html.Screen,4_20_1,2023-11-02T18:10:49.189Z,,0,,,NaN,,,,,,false,,,,204903.19999992847,204902.89999997616,,204902.29999995232,,204907.7,8,400,,,
break_continue,html.Screen,4_20_2,2023-11-02T18:10:49.189Z,,0,,,NaN,,,,,,false,,,,204903.5,204903.39999997616,,204903.29999995232,,204907.7,8,400,,,
sequence,flow.Sequence,4_20,2023-11-02T18:10:49.189Z,,0,,,6979.332999976148,completion,,,,,false,,,,204903.69999992847,204903.39999997616,197907.401,197920.09999990463,197924.067,204907.7,8,400,,,
trial,html.Screen,4_21_0,2023-11-02T18:10:55.594Z,,0,1,,6400.999999928463,response,ISIC_7532154.JPG,7,ISIC_1053427.JPG,ISIC_1053427.JPG,false,0,keypress(z),500,211309.09999990463,211308.69999992847,204891.034,204903.89999997616,204907.7,211324.11,8,400,22,,ISIC_7532154.JPG
break,html.Screen,4_21_1,2023-11-02T18:10:55.596Z,,0,,,NaN,,,,,,false,,,,211310.29999995232,211310.09999990463,,211309.5,,211324.11,8,400,,,
break_continue,html.Screen,4_21_2,2023-11-02T18:10:55.596Z,,0,,,NaN,,,,,,false,,,,211310.69999992847,211310.59999990463,,211310.39999997616,,211324.11,8,400,,,
sequence,flow.Sequence,4_21,2023-11-02T18:10:55.596Z,,0,,,6402.899999904621,completion,,,,,false,,,,211310.89999997616,211310.59999990463,204891.034,204903.79999995232,204907.7,211324.11,8,400,,,
trial,html.Screen,4_22_0,2023-11-02T18:10:59.994Z,,0,1,,4384.589999928488,response,ISIC_9268487.JPG,8,ISIC_0070974.JPG,ISIC_9268487.JPG,false,1,keypress(m),500,215709.19999992847,215708.69999992847,211307.444,211311.09999990463,211324.11,215724.62,8,400,23,,ISIC_0070974.JPG
break,html.Screen,4_22_1,2023-11-02T18:10:59.996Z,,0,,,NaN,,,,,,false,,,,215710.39999997616,215710.19999992847,,215709.5,,215724.62,8,400,,,
break_continue,html.Screen,4_22_2,2023-11-02T18:10:59.996Z,,0,,,NaN,,,,,,false,,,,215710.79999995232,215710.59999990463,,215710.5,,215724.62,8,400,,,
sequence,flow.Sequence,4_22,2023-11-02T18:10:59.996Z,,0,,,4386.4899999046465,completion,,,,,false,,,,215710.89999997616,215710.59999990463,211307.444,211311.09999990463,211324.11,215724.62,8,400,,,
trial,html.Screen,4_23_0,2023-11-02T18:11:05.161Z,,0,1,,5150.679999952321,response,ISIC_0013497.JPG,5,ISIC_0032858.JPG,ISIC_0013497.JPG,false,1,keypress(m),500,220875.89999997616,220875.29999995232,215707.954,215711.09999990463,215724.62,220891.08,8,400,24,,ISIC_0032858.JPG
break,html.Screen,4_23_1,2023-11-02T18:11:05.162Z,,0,,,NaN,,,,,,false,,,,220877,220876.89999997616,,220876.19999992847,,220891.08,8,400,,,
break_continue,html.Screen,4_23_2,2023-11-02T18:11:05.162Z,,0,,,NaN,,,,,,false,,,,220877.39999997616,220877.29999995232,,220877.19999992847,,220891.08,8,400,,,
sequence,flow.Sequence,4_23,2023-11-02T18:11:05.163Z,,0,,,5152.679999952321,completion,,,,,false,,,,220877.59999990463,220877.29999995232,215707.954,215711,215724.62,220891.08,8,400,,,
trial,html.Screen,4_24_0,2023-11-02T18:11:09.785Z,,0,1,,4608.619999928487,response,ISIC_0029531.JPG,8,ISIC_6674797.JPG,ISIC_0029531.JPG,false,1,keypress(m),500,225500.19999992847,225499.69999992847,220874.414,220877.69999992847,220891.08,225508.129,8,400,25,,ISIC_6674797.JPG
break,html.Screen,4_24_1,2023-11-02T18:11:09.786Z,,0,,,NaN,,,,,,false,,,,225501.39999997616,225501.09999990463,,225500.5,,225508.129,8,400,,,
break_continue,html.Screen,4_24_2,2023-11-02T18:11:09.787Z,,0,,,NaN,,,,,,false,,,,225501.79999995232,225501.69999992847,,225501.5,,225508.129,8,400,,,
sequence,flow.Sequence,4_24,2023-11-02T18:11:09.787Z,,0,,,4610.619999928487,completion,,,,,false,,,,225501.89999997616,225501.69999992847,220874.414,220877.69999992847,220891.08,225508.129,8,400,,,
trial,html.Screen,4_25_0,2023-11-02T18:11:16.208Z,,0,1,,6414.970999904646,response,ISIC_8671453.JPG,7,ISIC_0033194.JPG,ISIC_8671453.JPG,false,1,keypress(m),500,231923.59999990463,231923.09999990463,225491.463,225502.09999990463,225508.129,231924.539,8,400,26,,ISIC_0033194.JPG
break,html.Screen,4_25_1,2023-11-02T18:11:16.209Z,,0,,,NaN,,,,,,false,,,,231924.69999992847,231924.5,,231923.89999997616,,231924.539,8,400,,,
break_continue,html.Screen,4_25_2,2023-11-02T18:11:16.210Z,,0,,,NaN,,,,,,false,,,,231925.09999990463,231925,,231924.89999997616,,231924.539,8,400,,,
sequence,flow.Sequence,4_25,2023-11-02T18:11:16.210Z,,0,,,6416.871000000014,completion,,,,,false,,,,231925.29999995232,231925,225491.463,225502,225508.129,231924.539,8,400,,,
trial,html.Screen,4_26_0,2023-11-02T18:11:20.279Z,,0,1,,4069.7609999523265,response,ISIC_0071972.JPG,8,ISIC_0010915.JPG,ISIC_0010915.JPG,false,0,keypress(z),500,235994.79999995232,235994.29999995232,231907.873,231925.39999997616,231924.539,236008.279,8,400,27,,ISIC_0071972.JPG
break,html.Screen,4_26_1,2023-11-02T18:11:20.281Z,,0,,,NaN,,,,,,false,,,,235996,235995.79999995232,,235995.09999990463,,236008.279,8,400,,,
break_continue,html.Screen,4_26_2,2023-11-02T18:11:20.281Z,,0,,,NaN,,,,,,false,,,,235996.29999995232,235996.19999992847,,235996,,236008.279,8,400,,,
sequence,flow.Sequence,4_26,2023-11-02T18:11:20.281Z,,0,,,4071.6609999284847,completion,,,,,false,,,,235996.5,235996.19999992847,231907.873,231925.39999997616,231924.539,236008.279,8,400,,,
trial,html.Screen,4_27_0,2023-11-02T18:11:28.766Z,,0,1,,8472.420999928465,response,ISIC_0060297.JPG,5,ISIC_9005623.JPG,ISIC_9005623.JPG,false,0,keypress(z),500,244481.19999992847,244480.69999992847,235991.613,235996.69999992847,236008.279,244491.273,8,400,28,,ISIC_0060297.JPG
break,html.Screen,4_27_1,2023-11-02T18:11:28.767Z,,0,,,NaN,,,,,,false,,,,244482.79999995232,244482.59999990463,,244481.39999997616,,244491.273,8,400,,,
break_continue,html.Screen,4_27_2,2023-11-02T18:11:28.768Z,,0,,,NaN,,,,,,false,,,,244483.39999997616,244483.19999992847,,244482.89999997616,,244491.273,8,400,,,
sequence,flow.Sequence,4_27,2023-11-02T18:11:28.768Z,,0,,,8474.920999928465,completion,,,,,false,,,,244483.5,244483.19999992847,235991.613,235996.69999992847,236008.279,244491.273,8,400,,,
trial,html.Screen,4_28_0,2023-11-02T18:11:33.141Z,,0,1,,4364.826999904646,response,ISIC_0011344.JPG,7,ISIC_7740023.JPG,ISIC_0011344.JPG,false,1,keypress(m),500,248856.59999990463,248856.09999990463,244474.607,244483.69999992847,244491.273,248858.378,8,400,29,,ISIC_7740023.JPG
break,html.Screen,4_28_1,2023-11-02T18:11:33.142Z,,0,,,NaN,,,,,,false,,,,248857.79999995232,248857.59999990463,,248856.79999995232,,248858.378,8,400,,,
break_continue,html.Screen,4_28_2,2023-11-02T18:11:33.142Z,,0,,,NaN,,,,,,false,,,,248858.19999992847,248858.09999990463,,248857.89999997616,,248858.378,8,400,,,
sequence,flow.Sequence,4_28,2023-11-02T18:11:33.143Z,,0,,,4366.826999904646,completion,,,,,false,,,,248858.39999997616,248858.09999990463,244474.607,244483.59999990463,244491.273,248858.378,8,400,,,
trial,html.Screen,4_29_0,2023-11-02T18:11:36.985Z,,0,1,,3841.8219999284775,response,ISIC_0001105.JPG,8,ISIC_0072641.JPG,ISIC_0001105.JPG,false,1,keypress(m),500,252700.69999992847,252700.19999992847,248841.712,248858.5,248858.378,252708.224,8,400,30,,ISIC_0072641.JPG
break,html.Screen,4_29_1,2023-11-02T18:11:36.986Z,,0,,,NaN,,,,,,false,,,,252701.5,252701.39999997616,,252700.89999997616,,252708.224,8,400,,,
break_continue,html.Screen,4_29_2,2023-11-02T18:11:36.986Z,,0,,,NaN,,,,,,false,,,,252701.79999995232,252701.69999992847,,252701.59999990463,,252708.224,8,400,,,
sequence,flow.Sequence,4_29,2023-11-02T18:11:36.986Z,,0,,,3843.3219999284775,completion,,,,,false,,,,252701.89999997616,252701.69999992847,248841.712,248858.5,248858.378,252708.224,8,400,,,
trial,html.Screen,4_30_0,2023-11-02T18:11:41.456Z,,0,1,,4462.776000000013,response,ISIC_0059093.JPG,7,ISIC_2355513.JPG,ISIC_2355513.JPG,false,0,keypress(z),500,257171.5,257171,252691.558,252702,252708.224,257175.345,8,400,31,,ISIC_0059093.JPG
break,html.Screen,4_30_1,2023-11-02T18:11:41.457Z,,0,,,NaN,,,,,,false,,,,257172.69999992847,257172.5,,257171.79999995232,,257175.345,8,400,,,
break_continue,html.Screen,4_30_2,2023-11-02T18:11:41.457Z,,0,,,NaN,,,,,,false,,,,257173.09999990463,257173.09999990463,,257172.89999997616,,257175.345,8,400,,,
sequence,flow.Sequence,4_30,2023-11-02T18:11:41.457Z,,0,,,4464.875999904645,completion,,,,,false,,,,257173.39999997616,257173.09999990463,252691.558,252702,252708.224,257175.345,8,400,,,
trial,html.Screen,4_31_0,2023-11-02T18:11:47.415Z,,0,1,,5954.954999952315,response,ISIC_0026882.JPG,6,ISIC_8671702.JPG,ISIC_8671702.JPG,false,0,keypress(z),500,263130.89999997616,263130.2999999523,257158.679,257173.5,257175.345,263141.773,8,400,32,,ISIC_0026882.JPG
break,html.Screen,4_31_1,2023-11-02T18:11:47.416Z,,0,,,NaN,,,,,,false,,,,263132,263131.6999999285,,263131.09999990463,,263141.773,8,400,,,
break_continue,html.Screen,4_31_2,2023-11-02T18:11:47.416Z,,0,,,NaN,,,,,,false,,,,263132.2999999523,263132.1999999285,,263132.09999990463,,263141.773,8,400,,,
sequence,flow.Sequence,4_31,2023-11-02T18:11:47.416Z,,0,,,5956.854999928473,completion,,,,,false,,,,263132.39999997616,263132.1999999285,257158.679,257173.39999997616,257175.345,263141.773,8,400,,,
trial,html.Screen,4_32_0,2023-11-02T18:11:51.280Z,,0,1,,3853.6269999761716,response,ISIC_0011375.JPG,8,ISIC_1492055.JPG,ISIC_1492055.JPG,false,0,keypress(z),500,266996,266995.39999997616,263125.107,263132.59999990463,263141.773,267008.285,8,400,33,,ISIC_0011375.JPG
break,html.Screen,4_32_1,2023-11-02T18:11:51.281Z,,0,,,NaN,,,,,,false,,,,266997.1999999285,266996.89999997616,,266996.2999999523,,267008.285,8,400,,,
break_continue,html.Screen,4_32_2,2023-11-02T18:11:51.281Z,,0,,,NaN,,,,,,false,,,,266997.59999990463,266997.39999997616,,266997.2999999523,,267008.285,8,400,,,
sequence,flow.Sequence,4_32,2023-11-02T18:11:51.282Z,,0,,,3855.6269999761716,completion,,,,,false,,,,266997.7999999523,266997.39999997616,263125.107,263132.59999990463,263141.773,267008.285,8,400,,,
trial,html.Screen,4_33_0,2023-11-02T18:11:56.151Z,,0,1,,4858.614999976184,response,ISIC_7503950.JPG,5,ISIC_2714907.JPG,ISIC_2714907.JPG,false,0,keypress(z),500,271867.5,271866.89999997616,266991.619,266997.89999997616,267008.285,271875.347,8,400,34,,ISIC_7503950.JPG
break,html.Screen,4_33_1,2023-11-02T18:11:56.152Z,,0,,,NaN,,,,,,false,,,,271868.6999999285,271868.39999997616,,271867.7999999523,,271875.347,8,400,,,
break_continue,html.Screen,4_33_2,2023-11-02T18:11:56.153Z,,0,,,NaN,,,,,,false,,,,271868.89999997616,271868.89999997616,,271868.7999999523,,271875.347,8,400,,,
sequence,flow.Sequence,4_33,2023-11-02T18:11:56.153Z,,0,,,4860.614999976184,completion,,,,,false,,,,271869.09999990463,271868.89999997616,266991.619,266997.7999999523,267008.285,271875.347,8,400,,,
trial,html.Screen,4_34_0,2023-11-02T18:12:01.177Z,,0,1,,5017.552999976149,response,ISIC_3329255.JPG,5,ISIC_1308081.JPG,ISIC_1308081.JPG,false,0,keypress(z),500,276893.39999997616,276892.89999997616,271858.681,271869.2999999523,271875.347,276908.479,8,400,35,,ISIC_3329255.JPG
break,html.Screen,4_34_1,2023-11-02T18:12:01.178Z,,0,,,NaN,,,,,,false,,,,276894.5,276894.39999997616,,276893.6999999285,,276908.479,8,400,,,
break_continue,html.Screen,4_34_2,2023-11-02T18:12:01.179Z,,0,,,NaN,,,,,,false,,,,276894.89999997616,276894.7999999523,,276894.6999999285,,276908.479,8,400,,,
sequence,flow.Sequence,4_34,2023-11-02T18:12:01.179Z,,0,,,5019.452999952307,completion,,,,,false,,,,276895.09999990463,276894.7999999523,271858.681,271869.1999999285,271875.347,276908.479,8,400,,,
trial,html.Screen,4_35_0,2023-11-02T18:12:04.993Z,,0,1,,3800.521000000008,response,ISIC_0028027.JPG,6,ISIC_0591011.JPG,ISIC_0591011.JPG,false,0,keypress(z),500,280709.5,280709,276891.813,276895.39999997616,276908.479,280725.601,8,400,36,,ISIC_0028027.JPG
break,html.Screen,4_35_1,2023-11-02T18:12:04.994Z,,0,,,NaN,,,,,,false,,,,280710.59999990463,280710.5,,280709.7999999523,,280725.601,8,400,,,
break_continue,html.Screen,4_35_2,2023-11-02T18:12:04.995Z,,0,,,NaN,,,,,,false,,,,280711,280710.89999997616,,280710.7999999523,,280725.601,8,400,,,
sequence,flow.Sequence,4_35,2023-11-02T18:12:04.995Z,,0,,,3802.420999976166,completion,,,,,false,,,,280711.1999999285,280710.89999997616,276891.813,276895.2999999523,276908.479,280725.601,8,400,,,
trial,html.Screen,4_36_0,2023-11-02T18:12:08.936Z,,0,1,,3926.798999976134,response,ISIC_2175855.JPG,8,ISIC_1782911.JPG,ISIC_1782911.JPG,false,0,keypress(z),500,284652.7999999523,284652.39999997616,280708.935,280711.2999999523,280725.601,284658.777,8,400,37,,ISIC_2175855.JPG
break,html.Screen,4_36_1,2023-11-02T18:12:08.937Z,,0,,,NaN,,,,,,false,,,,284654,284653.7999999523,,284653.09999990463,,284658.777,8,400,,,
break_continue,html.Screen,4_36_2,2023-11-02T18:12:08.938Z,,0,,,NaN,,,,,,false,,,,284654.39999997616,284654.2999999523,,284654.1999999285,,284658.777,8,400,,,
sequence,flow.Sequence,4_36,2023-11-02T18:12:08.938Z,,0,,,3928.698999952292,completion,,,,,false,,,,284654.59999990463,284654.2999999523,280708.935,280711.2999999523,280725.601,284658.777,8,400,,,
trial,html.Screen,4_37_0,2023-11-02T18:12:13.095Z,,0,1,,4152.322999904631,response,ISIC_6208708.JPG,7,ISIC_8152423.JPG,ISIC_8152423.JPG,false,0,keypress(z),500,288811.59999990463,288811.09999990463,284642.111,284654.6999999285,284658.777,288825.845,8,400,38,,ISIC_6208708.JPG
break,html.Screen,4_37_1,2023-11-02T18:12:13.096Z,,0,,,NaN,,,,,,false,,,,288812.6999999285,288812.5,,288811.89999997616,,288825.845,8,400,,,
break_continue,html.Screen,4_37_2,2023-11-02T18:12:13.096Z,,0,,,NaN,,,,,,false,,,,288813.09999990463,288813,,288812.89999997616,,288825.845,8,400,,,
sequence,flow.Sequence,4_37,2023-11-02T18:12:13.097Z,,0,,,4154.222999999998,completion,,,,,false,,,,288813.2999999523,288813,284642.111,284654.6999999285,284658.777,288825.845,8,400,,,
trial,html.Screen,4_38_0,2023-11-02T18:12:17.182Z,,0,1,,4072.155000000028,response,ISIC_0059181.JPG,9,ISIC_0065128.JPG,ISIC_0065128.JPG,false,0,keypress(z),500,292898.39999997616,292898,288809.179,288813.39999997616,288825.845,292909.015,8,400,39,,ISIC_0059181.JPG
break,html.Screen,4_38_1,2023-11-02T18:12:17.183Z,,0,,,NaN,,,,,,false,,,,292899.59999990463,292899.39999997616,,292898.7999999523,,292909.015,8,400,,,
break_continue,html.Screen,4_38_2,2023-11-02T18:12:17.183Z,,0,,,NaN,,,,,,false,,,,292900,292899.89999997616,,292899.7999999523,,292909.015,8,400,,,
sequence,flow.Sequence,4_38,2023-11-02T18:12:17.183Z,,0,,,4074.054999976186,completion,,,,,false,,,,292900.09999990463,292899.89999997616,288809.179,288813.39999997616,288825.845,292909.015,8,400,,,
trial,html.Screen,4_39_0,2023-11-02T18:12:24.080Z,,0,1,,6887.084999904619,response,ISIC_6778515.JPG,7,ISIC_0066889.JPG,ISIC_6778515.JPG,false,1,keypress(m),500,299796.5,299796.09999990463,292892.349,292900.1999999285,292909.015,299809.304,8,400,40,,ISIC_0066889.JPG
break,html.Screen,4_39_1,2023-11-02T18:12:24.081Z,,0,,,NaN,,,,,,false,,,,299797.6999999285,299797.39999997616,,299796.7999999523,,299809.304,8,400,,,
break_continue,html.Screen,4_39_2,2023-11-02T18:12:24.081Z,,0,,,NaN,,,,,,false,,,,299798.09999990463,299798,,299797.7999999523,,299809.304,8,400,,,
sequence,flow.Sequence,4_39,2023-11-02T18:12:24.081Z,,0,,,6888.984999999986,completion,,,,,false,,,,299798.1999999285,299798,292892.349,292900.1999999285,292909.015,299809.304,8,400,,,
trial,html.Screen,4_40_0,2023-11-02T18:12:30.964Z,,0,1,,6871.495999952313,response,ISIC_0015193.JPG,7,ISIC_0963531.JPG,ISIC_0963531.JPG,false,0,keypress(z),500,306680.89999997616,306680.7999999523,299792.638,299798.2999999523,299809.304,306709.028,8,400,41,,ISIC_0015193.JPG
break,html.Screen,4_40_1,2023-11-02T18:12:30.964Z,,0,,,NaN,,,,,,false,,,,306681.39999997616,306681.39999997616,,306681.09999990463,,306709.028,8,400,,,
break_continue,html.Screen,4_40_2,2023-11-02T18:12:30.964Z,,0,,,NaN,,,,,,false,,,,306681.59999990463,306681.59999990463,,306681.59999990463,,306709.028,8,400,,,
sequence,flow.Sequence,4_40,2023-11-02T18:12:30.965Z,,0,,,6872.295999904629,completion,,,,,false,,,,306681.6999999285,306681.59999990463,299792.638,299798.2999999523,299809.304,306709.028,8,400,,,
trial,html.Screen,4_41_0,2023-11-02T18:12:34.953Z,,0,1,,3960.972000000009,response,ISIC_0026544.JPG,7,ISIC_0062468.JPG,ISIC_0062468.JPG,false,0,keypress(z),500,310670.39999997616,310670,306692.362,306681.6999999285,306709.028,310676.162,8,400,42,,ISIC_0026544.JPG
break,html.Screen,4_41_1,2023-11-02T18:12:34.954Z,,0,,,NaN,,,,,,false,,,,310671.59999990463,310671.39999997616,,310670.6999999285,,310676.162,8,400,,,
break_continue,html.Screen,4_41_2,2023-11-02T18:12:34.955Z,,0,,,NaN,,,,,,false,,,,310672,310671.89999997616,,310671.7999999523,,310676.162,8,400,,,
sequence,flow.Sequence,4_41,2023-11-02T18:12:34.955Z,,0,,,3962.871999976167,completion,,,,,false,,,,310672.1999999285,310671.89999997616,306692.362,306681.6999999285,306709.028,310676.162,8,400,,,
trial,html.Screen,4_42_0,2023-11-02T18:12:39.105Z,,0,1,,4146.237999976147,response,ISIC_0071457.JPG,9,ISIC_0064342.JPG,ISIC_0071457.JPG,false,1,keypress(m),500,314822.89999997616,314822.39999997616,310659.496,310672.2999999523,310676.162,314825.996,8,400,43,,ISIC_0064342.JPG
break,html.Screen,4_42_1,2023-11-02T18:12:39.107Z,,0,,,NaN,,,,,,false,,,,314824,314823.6999999285,,314823.09999990463,,314825.996,8,400,,,
break_continue,html.Screen,4_42_2,2023-11-02T18:12:39.107Z,,0,,,NaN,,,,,,false,,,,314824.2999999523,314824.1999999285,,314824.09999990463,,314825.996,8,400,,,
sequence,flow.Sequence,4_42,2023-11-02T18:12:39.107Z,,0,,,4148.037999928463,completion,,,,,false,,,,314824.5,314824.1999999285,310659.496,310672.2999999523,310676.162,314825.996,8,400,,,
trial,html.Screen,4_43_0,2023-11-02T18:12:43.400Z,,0,1,,4290.9039999761735,response,ISIC_0170101.JPG,7,ISIC_0011126.JPG,ISIC_0170101.JPG,false,1,keypress(m),500,319117.39999997616,319116.89999997616,314809.33,314824.6999999285,314825.996,319125.824,8,400,44,,ISIC_0011126.JPG
break,html.Screen,4_43_1,2023-11-02T18:12:43.401Z,,0,,,NaN,,,,,,false,,,,319118.59999990463,319118.39999997616,,319117.6999999285,,319125.824,8,400,,,
break_continue,html.Screen,4_43_2,2023-11-02T18:12:43.401Z,,0,,,NaN,,,,,,false,,,,319118.89999997616,319118.7999999523,,319118.6999999285,,319125.824,8,400,,,
sequence,flow.Sequence,4_43,2023-11-02T18:12:43.402Z,,0,,,4292.803999952332,completion,,,,,false,,,,319119.09999990463,319118.7999999523,314809.33,314824.59999990463,314825.996,319125.824,8,400,,,
trial,html.Screen,4_44_0,2023-11-02T18:12:46.863Z,,0,1,,3454.6759999999776,response,ISIC_0031550.JPG,8,ISIC_0064066.JPG,ISIC_0031550.JPG,false,1,keypress(m),500,322581,322580.5,319109.158,319119.2999999523,319125.824,322592.998,8,400,45,,ISIC_0064066.JPG
break,html.Screen,4_44_1,2023-11-02T18:12:46.865Z,,0,,,NaN,,,,,,false,,,,322582.1999999285,322582,,322581.2999999523,,322592.998,8,400,,,
break_continue,html.Screen,4_44_2,2023-11-02T18:12:46.865Z,,0,,,NaN,,,,,,false,,,,322582.59999990463,322582.39999997616,,322582.2999999523,,322592.998,8,400,,,
sequence,flow.Sequence,4_44,2023-11-02T18:12:46.865Z,,0,,,3456.575999976136,completion,,,,,false,,,,322582.7999999523,322582.39999997616,319109.158,319119.1999999285,319125.824,322592.998,8,400,,,
trial,html.Screen,4_45_0,2023-11-02T18:12:50.526Z,,0,1,,3650.301999952295,response,ISIC_8253317.JPG,7,ISIC_0046706.JPG,ISIC_8253317.JPG,false,1,keypress(m),500,326243.6999999285,326243.2999999523,322576.332,322582.89999997616,322592.998,326259.518,8,400,46,,ISIC_0046706.JPG
break,html.Screen,4_45_1,2023-11-02T18:12:50.527Z,,0,,,NaN,,,,,,false,,,,326244.89999997616,326244.6999999285,,326244.09999990463,,326259.518,8,400,,,
break_continue,html.Screen,4_45_2,2023-11-02T18:12:50.528Z,,0,,,NaN,,,,,,false,,,,326245.2999999523,326245.1999999285,,326245,,326259.518,8,400,,,
sequence,flow.Sequence,4_45,2023-11-02T18:12:50.528Z,,0,,,3652.201999928453,completion,,,,,false,,,,326245.5,326245.1999999285,322576.332,322582.7999999523,322592.998,326259.518,8,400,,,
trial,html.Screen,4_46_0,2023-11-02T18:12:54.483Z,,0,1,,3941.0819999046507,response,ISIC_0065235.JPG,7,ISIC_8121679.JPG,ISIC_8121679.JPG,false,0,keypress(z),500,330201.09999990463,330200.59999990463,326242.852,326245.6999999285,326259.518,330209.36,8,400,47,,ISIC_0065235.JPG
break,html.Screen,4_46_1,2023-11-02T18:12:54.485Z,,0,,,NaN,,,,,,false,,,,330202.2999999523,330202.09999990463,,330201.39999997616,,330209.36,8,400,,,
break_continue,html.Screen,4_46_2,2023-11-02T18:12:54.485Z,,0,,,NaN,,,,,,false,,,,330202.6999999285,330202.59999990463,,330202.5,,330209.36,8,400,,,
sequence,flow.Sequence,4_46,2023-11-02T18:12:54.485Z,,0,,,3943.0819999046507,completion,,,,,false,,,,330202.89999997616,330202.59999990463,326242.852,326245.59999990463,326259.518,330209.36,8,400,,,
trial,html.Screen,4_47_0,2023-11-02T18:12:58.365Z,,0,1,,3872.8399999284884,response,ISIC_0031357.JPG,8,ISIC_0012164.JPG,ISIC_0012164.JPG,false,0,keypress(z),500,334082.7999999523,334082.1999999285,330192.694,330203,330209.36,334093.082,8,400,48,,ISIC_0031357.JPG
break,html.Screen,4_47_1,2023-11-02T18:12:58.366Z,,0,,,NaN,,,,,,false,,,,334084.1999999285,334083.89999997616,,334083.1999999285,,334093.082,8,400,,,
break_continue,html.Screen,4_47_2,2023-11-02T18:12:58.367Z,,0,,,NaN,,,,,,false,,,,334084.59999990463,334084.39999997616,,334084.1999999285,,334093.082,8,400,,,
sequence,flow.Sequence,4_47,2023-11-02T18:12:58.367Z,,0,,,3875.039999976172,completion,,,,,false,,,,334084.7999999523,334084.39999997616,330192.694,330203,330209.36,334093.082,8,400,,,
trial,html.Screen,4_48_0,2023-11-02T18:13:04.770Z,,0,1,,6394.418000000005,response,ISIC_3453832.JPG,8,ISIC_4564163.JPG,ISIC_3453832.JPG,false,1,keypress(m),500,340488,340487.5,334076.416,334085,334093.082,340493.401,8,400,49,,ISIC_4564163.JPG
break,html.Screen,4_48_1,2023-11-02T18:13:04.771Z,,0,,,NaN,,,,,,false,,,,340489.09999990463,340489,,340488.2999999523,,340493.401,8,400,,,
break_continue,html.Screen,4_48_2,2023-11-02T18:13:04.771Z,,0,,,NaN,,,,,,false,,,,340489.5,340489.39999997616,,340489.2999999523,,340493.401,8,400,,,
sequence,flow.Sequence,4_48,2023-11-02T18:13:04.772Z,,0,,,6396.317999976163,completion,,,,,false,,,,340489.6999999285,340489.39999997616,334076.416,334084.89999997616,334093.082,340493.401,8,400,,,
trial,html.Screen,4_49_0,2023-11-02T18:13:09.258Z,,0,1,,4481.798999928462,response,ISIC_6483504.JPG,7,ISIC_0012334.JPG,ISIC_0012334.JPG,false,0,keypress(z),500,344975.6999999285,344975.1999999285,340476.735,340489.89999997616,340493.401,344993.221,8,400,50,,ISIC_6483504.JPG
break,html.Screen,4_49_1,2023-11-02T18:13:19.262Z,,0,,,10000.188999999955,timeout,,,,,false,,,,354980.59999990463,354976.744,344976.555,344976,344993.221,354993.41,8,400,,,
break_continue,html.Screen,4_49_2,2023-11-02T18:25:02.576Z,,0,,,703307.6899999047,response,,,,,false,continue,keypress(Space),,1058312.6999999285,1058301.0999999046,354976.744,354980.7999999523,354993.41,1058338.308,8,400,,,
sequence,flow.Sequence,4_49,2023-11-02T18:25:02.577Z,,0,,,717807.6989999046,completion,,,,,false,,,,1058312.8999999762,1058301.0999999046,340476.735,340489.7999999523,340493.401,1058338.308,8,400,,,
trial,html.Screen,4_50_0,2023-11-02T18:25:08.312Z,,0,2,,5709.791999904672,response,ISIC_5240648.JPG,7,ISIC_4868926.JPG,ISIC_4868926.JPG,false,0,keypress(z),500,1064048.2999999523,1064048.0999999046,1058304.976,1058313,1058338.308,1064071.412,8,400,1,,ISIC_5240648.JPG
break,html.Screen,4_50_1,2023-11-02T18:25:08.312Z,,0,,,NaN,,,,,,false,,,,1064048.7999999523,1064048.5999999046,,1064048.3999999762,,1064071.412,8,400,,,
break_continue,html.Screen,4_50_2,2023-11-02T18:25:08.313Z,,0,,,NaN,,,,,,false,,,,1064049,1064048.8999999762,,1064048.8999999762,,1064071.412,8,400,,,
sequence,flow.Sequence,4_50,2023-11-02T18:25:08.313Z,,0,,,5710.591999976197,completion,,,,,false,,,,1064049.0999999046,1064048.8999999762,1058304.976,1058313,1058338.308,1064071.412,8,400,,,
trial,html.Screen,4_51_0,2023-11-02T18:25:12.203Z,,0,2,,3867.387999952305,response,ISIC_6805527.JPG,6,ISIC_4509925.JPG,ISIC_4509925.JPG,false,0,keypress(z),500,1067939.1999999285,1067938.7999999523,1064038.08,1064049.0999999046,1064071.412,1067971.854,8,400,2,,ISIC_6805527.JPG
break,html.Screen,4_51_1,2023-11-02T18:25:12.204Z,,0,,,NaN,,,,,,false,,,,1067940.3999999762,1067940.1999999285,,1067939.5,,1067971.854,8,400,,,
break_continue,html.Screen,4_51_2,2023-11-02T18:25:12.204Z,,0,,,NaN,,,,,,false,,,,1067940.7999999523,1067940.5999999046,,1067940.5,,1067971.854,8,400,,,
sequence,flow.Sequence,4_51,2023-11-02T18:25:12.204Z,,0,,,3869.1879999046214,completion,,,,,false,,,,1067941,1067940.5999999046,1064038.08,1064049.0999999046,1064071.412,1067971.854,8,400,,,
trial,html.Screen,4_52_0,2023-11-02T18:25:15.377Z,,0,2,,3141.6459999999497,response,ISIC_0064033.JPG,9,ISIC_4142019.JPG,ISIC_4142019.JPG,false,0,keypress(z),500,1071114,1071113.5,1067938.522,1067941.0999999046,1067971.854,1071138.394,8,400,3,,ISIC_0064033.JPG
break,html.Screen,4_52_1,2023-11-02T18:25:15.379Z,,0,,,NaN,,,,,,false,,,,1071115.1999999285,1071115,,1071114.2999999523,,1071138.394,8,400,,,
break_continue,html.Screen,4_52_2,2023-11-02T18:25:15.379Z,,0,,,NaN,,,,,,false,,,,1071115.5999999046,1071115.5,,1071115.2999999523,,1071138.394,8,400,,,
sequence,flow.Sequence,4_52,2023-11-02T18:25:15.379Z,,0,,,3143.6459999999497,completion,,,,,false,,,,1071115.8999999762,1071115.5,1067938.522,1067941.0999999046,1067971.854,1071138.394,8,400,,,
trial,html.Screen,4_53_0,2023-11-02T18:25:23.049Z,,0,2,,7646.705999904545,response,ISIC_4189981.JPG,4,ISIC_0002862.JPG,ISIC_0002862.JPG,false,0,keypress(z),500,1078785.5,1078785.0999999046,1071105.062,1071115.8999999762,1071138.394,1078805.371,8,400,4,,ISIC_4189981.JPG
break,html.Screen,4_53_1,2023-11-02T18:25:23.050Z,,0,,,NaN,,,,,,false,,,,1078786.6999999285,1078786.3999999762,,1078785.8999999762,,1078805.371,8,400,,,
break_continue,html.Screen,4_53_2,2023-11-02T18:25:23.050Z,,0,,,NaN,,,,,,false,,,,1078787.0999999046,1078787,,1078786.7999999523,,1078805.371,8,400,,,
sequence,flow.Sequence,4_53,2023-11-02T18:25:23.050Z,,0,,,7648.6059999999125,completion,,,,,false,,,,1078787.1999999285,1078787,1071105.062,1071115.8999999762,1071138.394,1078805.371,8,400,,,
trial,html.Screen,4_54_0,2023-11-02T18:25:26.481Z,,0,2,,3411.9289999522734,response,ISIC_5510604.JPG,8,ISIC_4606646.JPG,ISIC_4606646.JPG,false,0,keypress(z),500,1082217.7999999523,1082217.2999999523,1078772.039,1078788.5999999046,1078805.371,1082238.567,8,400,5,,ISIC_5510604.JPG
break,html.Screen,4_54_1,2023-11-02T18:25:26.482Z,,0,,,NaN,,,,,,false,,,,1082219,1082218.8999999762,,1082218.0999999046,,1082238.567,8,400,,,
break_continue,html.Screen,4_54_2,2023-11-02T18:25:26.482Z,,0,,,NaN,,,,,,false,,,,1082219.3999999762,1082219.2999999523,,1082219.1999999285,,1082238.567,8,400,,,
sequence,flow.Sequence,4_54,2023-11-02T18:25:26.483Z,,0,,,3413.9289999522734,completion,,,,,false,,,,1082219.5999999046,1082219.2999999523,1078772.039,1078788.5,1078805.371,1082238.567,8,400,,,
trial,html.Screen,4_55_0,2023-11-02T18:25:30.310Z,,0,2,,3808.332999976119,response,ISIC_1872823.JPG,7,ISIC_0033024.JPG,ISIC_1872823.JPG,false,1,keypress(m),500,1086047.3999999762,1086046.8999999762,1082205.235,1082219.6999999285,1082238.567,1086071.747,8,400,6,,ISIC_0033024.JPG
break,html.Screen,4_55_1,2023-11-02T18:25:30.312Z,,0,,,NaN,,,,,,false,,,,1086048.6999999285,1086048.5,,1086047.7999999523,,1086071.747,8,400,,,
break_continue,html.Screen,4_55_2,2023-11-02T18:25:30.312Z,,0,,,NaN,,,,,,false,,,,1086049.0999999046,1086049,,1086048.8999999762,,1086071.747,8,400,,,
sequence,flow.Sequence,4_55,2023-11-02T18:25:30.312Z,,0,,,3810.432999999961,completion,,,,,false,,,,1086049.2999999523,1086049,1082205.235,1082219.5999999046,1082238.567,1086071.747,8,400,,,
trial,html.Screen,4_56_0,2023-11-02T18:25:33.806Z,,0,2,,3471.0529999523424,response,ISIC_3687259.JPG,5,ISIC_4419686.JPG,ISIC_3687259.JPG,false,1,keypress(m),500,1089543.3999999762,1089542.7999999523,1086038.415,1086049.5,1086071.747,1089572.169,8,400,7,,ISIC_4419686.JPG
break,html.Screen,4_56_1,2023-11-02T18:25:33.807Z,,0,,,NaN,,,,,,false,,,,1089544.5999999046,1089544.3999999762,,1089543.6999999285,,1089572.169,8,400,,,
break_continue,html.Screen,4_56_2,2023-11-02T18:25:33.808Z,,0,,,NaN,,,,,,false,,,,1089545,1089544.7999999523,,1089544.6999999285,,1089572.169,8,400,,,
sequence,flow.Sequence,4_56,2023-11-02T18:25:33.808Z,,0,,,3473.0529999523424,completion,,,,,false,,,,1089545.0999999046,1089544.7999999523,1086038.415,1086049.5,1086071.747,1089572.169,8,400,,,
trial,html.Screen,4_57_0,2023-11-02T18:25:39.684Z,,0,2,,5848.630999952322,response,ISIC_9939653.JPG,7,ISIC_0006672.JPG,ISIC_0006672.JPG,false,0,keypress(z),500,1095421.2999999523,1095420.7999999523,1089538.837,1089545.2999999523,1089572.169,1095455.267,8,400,8,,ISIC_9939653.JPG
break,html.Screen,4_57_1,2023-11-02T18:25:39.685Z,,0,,,NaN,,,,,,false,,,,1095422.5999999046,1095422.2999999523,,1095421.5999999046,,1095455.267,8,400,,,
break_continue,html.Screen,4_57_2,2023-11-02T18:25:39.686Z,,0,,,NaN,,,,,,false,,,,1095422.8999999762,1095422.7999999523,,1095422.5999999046,,1095455.267,8,400,,,
sequence,flow.Sequence,4_57,2023-11-02T18:25:39.686Z,,0,,,5850.630999952322,completion,,,,,false,,,,1095423.0999999046,1095422.7999999523,1089538.837,1089545.1999999285,1089572.169,1095455.267,8,400,,,
trial,html.Screen,4_58_0,2023-11-02T18:25:43.891Z,,0,2,,4172.33299990464,response,ISIC_5951430.JPG,7,ISIC_0011862.JPG,ISIC_5951430.JPG,false,1,keypress(m),500,1099627.8999999762,1099627.5999999046,1095421.935,1095423.2999999523,1095455.267,1099655.737,8,400,9,,ISIC_0011862.JPG
break,html.Screen,4_58_1,2023-11-02T18:25:43.892Z,,0,,,NaN,,,,,,false,,,,1099629.1999999285,1099629,,1099628.2999999523,,1099655.737,8,400,,,
break_continue,html.Screen,4_58_2,2023-11-02T18:25:43.892Z,,0,,,NaN,,,,,,false,,,,1099629.5,1099629.3999999762,,1099629.2999999523,,1099655.737,8,400,,,
sequence,flow.Sequence,4_58,2023-11-02T18:25:43.892Z,,0,,,4174.132999976166,completion,,,,,false,,,,1099629.6999999285,1099629.3999999762,1095421.935,1095423.1999999285,1095455.267,1099655.737,8,400,,,
trial,html.Screen,4_59_0,2023-11-02T18:25:47.400Z,,0,2,,3481.1629999761935,response,ISIC_0030694.JPG,8,ISIC_0011964.JPG,ISIC_0030694.JPG,false,1,keypress(m),500,1103137.3999999762,1103136.8999999762,1099622.405,1099629.8999999762,1099655.737,1103155.597,8,400,10,,ISIC_0011964.JPG
break,html.Screen,4_59_1,2023-11-02T18:25:47.401Z,,0,,,NaN,,,,,,false,,,,1103138.5999999046,1103138.3999999762,,1103137.6999999285,,1103155.597,8,400,,,
break_continue,html.Screen,4_59_2,2023-11-02T18:25:47.402Z,,0,,,NaN,,,,,,false,,,,1103139,1103138.7999999523,,1103138.7999999523,,1103155.597,8,400,,,
sequence,flow.Sequence,4_59,2023-11-02T18:25:47.402Z,,0,,,3483.0629999523517,completion,,,,,false,,,,1103139.1999999285,1103138.7999999523,1099622.405,1099629.7999999523,1099655.737,1103155.597,8,400,,,
trial,html.Screen,4_60_0,2023-11-02T18:25:50.603Z,,0,2,,3184.5029999045655,response,ISIC_5238111.JPG,8,ISIC_5498202.JPG,ISIC_5238111.JPG,false,1,keypress(m),500,1106340.5999999046,1106340.0999999046,1103122.265,1103139.2999999523,1103155.597,1106372.135,8,400,11,,ISIC_5498202.JPG
break,html.Screen,4_60_1,2023-11-02T18:25:50.604Z,,0,,,NaN,,,,,,false,,,,1106341.7999999523,1106341.6999999285,,1106340.8999999762,,1106372.135,8,400,,,
break_continue,html.Screen,4_60_2,2023-11-02T18:25:50.605Z,,0,,,NaN,,,,,,false,,,,1106342.1999999285,1106342.0999999046,,1106342,,1106372.135,8,400,,,
sequence,flow.Sequence,4_60,2023-11-02T18:25:50.605Z,,0,,,3186.5029999045655,completion,,,,,false,,,,1106342.3999999762,1106342.0999999046,1103122.265,1103139.2999999523,1103155.597,1106372.135,8,400,,,
trial,html.Screen,4_61_0,2023-11-02T18:26:02.089Z,,0,2,,11516.744999999879,timeout,ISIC_2287083.JPG,7,ISIC_0813342.JPG,,false,,,500,1117827.1999999285,1117826.7999999523,1106338.803,1106342.5999999046,1106372.135,1117888.88,8,400,12,,
break,html.Screen,4_61_1,2023-11-02T18:26:02.091Z,,0,,,NaN,,,,,,false,,,,1117828.2999999523,1117828.0999999046,,1117827.5,,1117888.88,8,400,,,
break_continue,html.Screen,4_61_2,2023-11-02T18:26:02.091Z,,0,,,NaN,,,,,,false,,,,1117828.6999999285,1117828.5999999046,,1117828.5,,1117888.88,8,400,,,
sequence,flow.Sequence,4_61,2023-11-02T18:26:02.091Z,,0,,,11456.464999904623,completion,,,,,false,,,,1117828.6999999285,1117828.5999999046,1106338.803,1106342.5,1106372.135,1117888.88,8,400,,,
trial,html.Screen,4_62_0,2023-11-02T18:26:13.603Z,,0,2,,11517.363000000129,timeout,ISIC_2311665.JPG,8,ISIC_3912838.JPG,,false,,,500,1129341.5,1129341,1117855.548,1117828.8999999762,1117888.88,1129406.243,8,400,13,,
break,html.Screen,4_62_1,2023-11-02T18:26:13.604Z,,0,,,NaN,,,,,,false,,,,1129342.0999999046,1129342,,1129341.5999999046,,1129406.243,8,400,,,
break_continue,html.Screen,4_62_2,2023-11-02T18:26:13.604Z,,0,,,NaN,,,,,,false,,,,1129342.3999999762,1129342.2999999523,,1129342.1999999285,,1129406.243,8,400,,,
sequence,flow.Sequence,4_62,2023-11-02T18:26:13.604Z,,0,,,11453.419999952428,completion,,,,,false,,,,1129342.5,1129342.2999999523,1117855.548,1117828.7999999523,1117888.88,1129406.243,8,400,,,
trial,html.Screen,4_63_0,2023-11-02T18:26:25.122Z,,0,2,,11516.752000000095,timeout,ISIC_9989936.JPG,7,ISIC_6688417.JPG,,false,,,500,1140860.0999999046,1140859.6999999285,1129372.322,1129342.5999999046,1129406.243,1140922.995,8,400,14,,
break,html.Screen,4_63_1,2023-11-02T18:26:25.123Z,,0,,,NaN,,,,,,false,,,,1140861.3999999762,1140861.0999999046,,1140860.5,,1140922.995,8,400,,,
break_continue,html.Screen,4_63_2,2023-11-02T18:26:25.123Z,,0,,,NaN,,,,,,false,,,,1140861.6999999285,1140861.5999999046,,1140861.5,,1140922.995,8,400,,,
sequence,flow.Sequence,4_63,2023-11-02T18:26:25.123Z,,0,,,11455.356999904616,completion,,,,,false,,,,1140861.7999999523,1140861.5999999046,1129372.322,1129342.5,1129406.243,1140922.995,8,400,,,
trial,html.Screen,4_64_0,2023-11-02T18:26:28.776Z,,0,2,,3591.3049999522045,response,ISIC_2514994.JPG,8,ISIC_0063544.JPG,ISIC_2514994.JPG,false,1,keypress(m),500,1144514.8999999762,1144514.2999999523,1140889.663,1140862,1140922.995,1144539.517,8,400,15,,ISIC_0063544.JPG
break,html.Screen,4_64_1,2023-11-02T18:26:28.778Z,,0,,,NaN,,,,,,false,,,,1144516.0999999046,1144515.8999999762,,1144515.1999999285,,1144539.517,8,400,,,
break_continue,html.Screen,4_64_2,2023-11-02T18:26:28.778Z,,0,,,NaN,,,,,,false,,,,1144516.3999999762,1144516.3999999762,,1144516.2999999523,,1144539.517,8,400,,,
sequence,flow.Sequence,4_64,2023-11-02T18:26:28.778Z,,0,,,3593.4049999760464,completion,,,,,false,,,,1144516.5999999046,1144516.3999999762,1140889.663,1140862,1140922.995,1144539.517,8,400,,,
trial,html.Screen,4_65_0,2023-11-02T18:26:33.825Z,,0,2,,5023.58299990464,response,ISIC_0025001.JPG,6,ISIC_0024898.JPG,ISIC_0024898.JPG,false,0,keypress(z),500,1149563.5,1149563.0999999046,1144506.185,1144516.6999999285,1144539.517,1149589.315,8,400,16,,ISIC_0025001.JPG
break,html.Screen,4_65_1,2023-11-02T18:26:33.826Z,,0,,,NaN,,,,,,false,,,,1149564.6999999285,1149564.5,,1149563.7999999523,,1149589.315,8,400,,,
break_continue,html.Screen,4_65_2,2023-11-02T18:26:33.826Z,,0,,,NaN,,,,,,false,,,,1149565,1149564.8999999762,,1149564.7999999523,,1149589.315,8,400,,,
sequence,flow.Sequence,4_65,2023-11-02T18:26:33.827Z,,0,,,5025.382999976166,completion,,,,,false,,,,1149565.1999999285,1149564.8999999762,1144506.185,1144516.6999999285,1144539.517,1149589.315,8,400,,,
trial,html.Screen,4_66_0,2023-11-02T18:26:37.558Z,,0,2,,3707.185000000056,response,ISIC_5358568.JPG,7,ISIC_8909545.JPG,ISIC_5358568.JPG,false,1,keypress(m),500,1153296.7999999523,1153296.5,1149555.983,1149565.3999999762,1149589.315,1153323.059,8,400,17,,ISIC_8909545.JPG
break,html.Screen,4_66_1,2023-11-02T18:26:37.559Z,,0,,,NaN,,,,,,false,,,,1153297.5999999046,1153297.3999999762,,1153297,,1153323.059,8,400,,,
break_continue,html.Screen,4_66_2,2023-11-02T18:26:37.559Z,,0,,,NaN,,,,,,false,,,,1153297.8999999762,1153297.8999999762,,1153297.7999999523,,1153323.059,8,400,,,
sequence,flow.Sequence,4_66,2023-11-02T18:26:37.559Z,,0,,,3708.584999976214,completion,,,,,false,,,,1153298,1153297.8999999762,1149555.983,1149565.2999999523,1149589.315,1153323.059,8,400,,,
trial,html.Screen,4_67_0,2023-11-02T18:26:41.691Z,,0,2,,4106.040999904741,response,ISIC_0032130.JPG,8,ISIC_0011260.JPG,ISIC_0011260.JPG,false,0,keypress(z),500,1157429.5999999046,1157429.0999999046,1153289.727,1153298.0999999046,1153323.059,1157456.227,8,400,18,,ISIC_0032130.JPG
break,html.Screen,4_67_1,2023-11-02T18:26:41.692Z,,0,,,NaN,,,,,,false,,,,1157430.7999999523,1157430.5999999046,,1157429.8999999762,,1157456.227,8,400,,,
break_continue,html.Screen,4_67_2,2023-11-02T18:26:41.692Z,,0,,,NaN,,,,,,false,,,,1157431.1999999285,1157431.0999999046,,1157430.8999999762,,1157456.227,8,400,,,
sequence,flow.Sequence,4_67,2023-11-02T18:26:41.692Z,,0,,,4108.040999904741,completion,,,,,false,,,,1157431.3999999762,1157431.0999999046,1153289.727,1153298.0999999046,1153323.059,1157456.227,8,400,,,
trial,html.Screen,4_68_0,2023-11-02T18:26:46.905Z,,0,2,,5187.672999976203,response,ISIC_5324987.JPG,8,ISIC_7520843.JPG,ISIC_7520843.JPG,false,0,keypress(z),500,1162644.2999999523,1162643.8999999762,1157422.895,1157431.5,1157456.227,1162673.396,8,400,19,,ISIC_5324987.JPG
break,html.Screen,4_68_1,2023-11-02T18:26:46.907Z,,0,,,NaN,,,,,,false,,,,1162645.5999999046,1162645.2999999523,,1162644.6999999285,,1162673.396,8,400,,,
break_continue,html.Screen,4_68_2,2023-11-02T18:26:46.907Z,,0,,,NaN,,,,,,false,,,,1162646,1162645.7999999523,,1162645.6999999285,,1162673.396,8,400,,,
sequence,flow.Sequence,4_68,2023-11-02T18:26:46.907Z,,0,,,5189.572999952361,completion,,,,,false,,,,1162646.1999999285,1162645.7999999523,1157422.895,1157431.3999999762,1157456.227,1162673.396,8,400,,,
trial,html.Screen,4_69_0,2023-11-02T18:26:52.239Z,,0,2,,5304.903999952367,response,ISIC_0003664.JPG,8,ISIC_1054090.JPG,ISIC_1054090.JPG,false,0,keypress(z),500,1167978.5,1167978.2999999523,1162640.064,1162646.2999999523,1162673.396,1168006.516,8,400,20,,ISIC_0003664.JPG
break,html.Screen,4_69_1,2023-11-02T18:26:52.240Z,,0,,,NaN,,,,,,false,,,,1167979.0999999046,1167979,,1167978.5999999046,,1168006.516,8,400,,,
break_continue,html.Screen,4_69_2,2023-11-02T18:26:52.240Z,,0,,,NaN,,,,,,false,,,,1167979.2999999523,1167979.1999999285,,1167979.0999999046,,1168006.516,8,400,,,
sequence,flow.Sequence,4_69,2023-11-02T18:26:52.240Z,,0,,,5305.803999928525,completion,,,,,false,,,,1167979.2999999523,1167979.1999999285,1162640.064,1162646.2999999523,1162673.396,1168006.516,8,400,,,
trial,html.Screen,4_70_0,2023-11-02T18:27:03.722Z,,0,2,,11516.80799999996,timeout,ISIC_0012054.JPG,5,ISIC_8462070.JPG,,false,,,500,1179461.0999999046,1179460.6999999285,1167973.184,1167979.3999999762,1168006.516,1179523.324,8,400,21,,
break,html.Screen,4_70_1,2023-11-02T18:27:03.723Z,,0,,,NaN,,,,,,false,,,,1179462.1999999285,1179462,,1179461.2999999523,,1179523.324,8,400,,,
break_continue,html.Screen,4_70_2,2023-11-02T18:27:03.723Z,,0,,,NaN,,,,,,false,,,,1179462.5,1179462.5,,1179462.2999999523,,1179523.324,8,400,,,
sequence,flow.Sequence,4_70,2023-11-02T18:27:03.723Z,,0,,,11455.983999999939,completion,,,,,false,,,,1179462.6999999285,1179462.5,1167973.184,1167979.2999999523,1168006.516,1179523.324,8,400,,,
trial,html.Screen,4_71_0,2023-11-02T18:27:07.280Z,,0,2,,3495.6759999999776,response,ISIC_0030469.JPG,7,ISIC_0013244.JPG,ISIC_0013244.JPG,false,0,keypress(z),500,1183019.5,1183019,1179489.992,1179462.7999999523,1179523.324,1183040.415,8,400,22,,ISIC_0030469.JPG
break,html.Screen,4_71_1,2023-11-02T18:27:07.281Z,,0,,,NaN,,,,,,false,,,,1183020.5999999046,1183020.3999999762,,1183019.7999999523,,1183040.415,8,400,,,
break_continue,html.Screen,4_71_2,2023-11-02T18:27:07.281Z,,0,,,NaN,,,,,,false,,,,1183020.8999999762,1183020.8999999762,,1183020.6999999285,,1183040.415,8,400,,,
sequence,flow.Sequence,4_71,2023-11-02T18:27:07.282Z,,0,,,3497.575999976136,completion,,,,,false,,,,1183021.1999999285,1183020.8999999762,1179489.992,1179462.7999999523,1179523.324,1183040.415,8,400,,,
trial,html.Screen,4_72_0,2023-11-02T18:27:10.311Z,,0,2,,3009.1849999045953,response,ISIC_4509525.JPG,7,ISIC_8663971.JPG,ISIC_8663971.JPG,false,0,keypress(z),500,1186050.0999999046,1186049.5999999046,1183007.083,1183021.1999999285,1183040.415,1186073.627,8,400,23,,ISIC_4509525.JPG
break,html.Screen,4_72_1,2023-11-02T18:27:10.312Z,,0,,,NaN,,,,,,false,,,,1186051.3999999762,1186051.0999999046,,1186050.3999999762,,1186073.627,8,400,,,
break_continue,html.Screen,4_72_2,2023-11-02T18:27:10.312Z,,0,,,NaN,,,,,,false,,,,1186051.6999999285,1186051.5999999046,,1186051.5,,1186073.627,8,400,,,
sequence,flow.Sequence,4_72,2023-11-02T18:27:10.312Z,,0,,,3011.1849999045953,completion,,,,,false,,,,1186051.8999999762,1186051.5999999046,1183007.083,1183021.1999999285,1183040.415,1186073.627,8,400,,,
trial,html.Screen,4_73_0,2023-11-02T18:27:12.889Z,,0,2,,2554.9729999045376,response,ISIC_0027024.JPG,5,ISIC_9072567.JPG,ISIC_9072567.JPG,false,0,keypress(z),500,1188629.0999999046,1188628.5999999046,1186040.295,1186052.0999999046,1186073.627,1188656.857,8,400,24,,ISIC_0027024.JPG
break,html.Screen,4_73_1,2023-11-02T18:27:12.891Z,,0,,,NaN,,,,,,false,,,,1188630.2999999523,1188630.0999999046,,1188629.3999999762,,1188656.857,8,400,,,
break_continue,html.Screen,4_73_2,2023-11-02T18:27:12.891Z,,0,,,NaN,,,,,,false,,,,1188630.8999999762,1188630.5999999046,,1188630.5999999046,,1188656.857,8,400,,,
sequence,flow.Sequence,4_73,2023-11-02T18:27:12.891Z,,0,,,2556.9729999045376,completion,,,,,false,,,,1188631,1188630.5999999046,1186040.295,1186052,1186073.627,1188656.857,8,400,,,
trial,html.Screen,4_74_0,2023-11-02T18:27:15.935Z,,0,2,,3016.842999928398,response,ISIC_0062649.JPG,8,ISIC_8796632.JPG,ISIC_8796632.JPG,false,0,keypress(z),500,1191674.1999999285,1191673.6999999285,1188623.525,1188631.2999999523,1188656.857,1191706.735,8,400,25,,ISIC_0062649.JPG
break,html.Screen,4_74_1,2023-11-02T18:27:15.936Z,,0,,,NaN,,,,,,false,,,,1191675.3999999762,1191675.1999999285,,1191674.5,,1191706.735,8,400,,,
break_continue,html.Screen,4_74_2,2023-11-02T18:27:15.936Z,,0,,,NaN,,,,,,false,,,,1191675.6999999285,1191675.6999999285,,1191675.5,,1191706.735,8,400,,,
sequence,flow.Sequence,4_74,2023-11-02T18:27:15.936Z,,0,,,3018.842999928398,completion,,,,,false,,,,1191675.8999999762,1191675.6999999285,1188623.525,1188631.1999999285,1188656.857,1191706.735,8,400,,,
trial,html.Screen,4_75_0,2023-11-02T18:27:19.333Z,,0,2,,3365.564999952214,response,ISIC_0025748.JPG,8,ISIC_0061300.JPG,ISIC_0061300.JPG,false,0,keypress(z),500,1195072.7999999523,1195072.2999999523,1191673.403,1191676.0999999046,1191706.735,1195090.451,8,400,26,,ISIC_0025748.JPG
break,html.Screen,4_75_1,2023-11-02T18:27:19.334Z,,0,,,NaN,,,,,,false,,,,1195073.8999999762,1195073.6999999285,,1195073.0999999046,,1195090.451,8,400,,,
break_continue,html.Screen,4_75_2,2023-11-02T18:27:19.335Z,,0,,,NaN,,,,,,false,,,,1195074.1999999285,1195074.1999999285,,1195074.0999999046,,1195090.451,8,400,,,
sequence,flow.Sequence,4_75,2023-11-02T18:27:19.335Z,,0,,,3367.464999928372,completion,,,,,false,,,,1195074.5,1195074.1999999285,1191673.403,1191676,1191706.735,1195090.451,8,400,,,
trial,html.Screen,4_76_0,2023-11-02T18:27:22.076Z,,0,2,,2725.0490000001155,response,ISIC_0659400.JPG,7,ISIC_1152559.JPG,ISIC_1152559.JPG,false,0,keypress(z),500,1197816,1197815.5,1195057.119,1195074.5999999046,1195090.451,1197840.341,8,400,27,,ISIC_0659400.JPG
break,html.Screen,4_76_1,2023-11-02T18:27:22.077Z,,0,,,NaN,,,,,,false,,,,1197817.0999999046,1197816.8999999762,,1197816.2999999523,,1197840.341,8,400,,,
break_continue,html.Screen,4_76_2,2023-11-02T18:27:22.078Z,,0,,,NaN,,,,,,false,,,,1197817.3999999762,1197817.2999999523,,1197817.1999999285,,1197840.341,8,400,,,
sequence,flow.Sequence,4_76,2023-11-02T18:27:22.078Z,,0,,,2726.8489999524318,completion,,,,,false,,,,1197817.5999999046,1197817.2999999523,1195057.119,1195074.5999999046,1195090.451,1197840.341,8,400,,,
trial,html.Screen,4_77_0,2023-11-02T18:27:24.977Z,,0,2,,2876.5589999761432,response,ISIC_0031589.JPG,7,ISIC_0011336.JPG,ISIC_0011336.JPG,false,0,keypress(z),500,1200717.1999999285,1200716.8999999762,1197807.009,1197817.7999999523,1197840.341,1200740.225,8,400,28,,ISIC_0031589.JPG
break,html.Screen,4_77_1,2023-11-02T18:27:24.979Z,,0,,,NaN,,,,,,false,,,,1200718.3999999762,1200718.1999999285,,1200717.5999999046,,1200740.225,8,400,,,
break_continue,html.Screen,4_77_2,2023-11-02T18:27:24.979Z,,0,,,NaN,,,,,,false,,,,1200718.8999999762,1200718.7999999523,,1200718.5999999046,,1200740.225,8,400,,,
sequence,flow.Sequence,4_77,2023-11-02T18:27:24.979Z,,0,,,2878.4589999523014,completion,,,,,false,,,,1200719.0999999046,1200718.7999999523,1197807.009,1197817.7999999523,1197840.341,1200740.225,8,400,,,
trial,html.Screen,4_78_0,2023-11-02T18:27:28.223Z,,0,2,,3222.574999952223,response,ISIC_4013189.JPG,8,ISIC_6247668.JPG,ISIC_4013189.JPG,false,1,keypress(m),500,1203963.3999999762,1203962.7999999523,1200706.893,1200719.1999999285,1200740.225,1203990.752,8,400,29,,ISIC_6247668.JPG
break,html.Screen,4_78_1,2023-11-02T18:27:28.225Z,,0,,,NaN,,,,,,false,,,,1203964.5999999046,1203964.2999999523,,1203963.6999999285,,1203990.752,8,400,,,
break_continue,html.Screen,4_78_2,2023-11-02T18:27:28.225Z,,0,,,NaN,,,,,,false,,,,1203964.8999999762,1203964.7999999523,,1203964.6999999285,,1203990.752,8,400,,,
sequence,flow.Sequence,4_78,2023-11-02T18:27:28.225Z,,0,,,3224.574999952223,completion,,,,,false,,,,1203965,1203964.7999999523,1200706.893,1200719.0999999046,1200740.225,1203990.752,8,400,,,
trial,html.Screen,4_79_0,2023-11-02T18:27:33.206Z,,0,2,,4955.047999952221,response,ISIC_0056063.JPG,8,ISIC_3098750.JPG,ISIC_0056063.JPG,false,1,keypress(m),500,1208946.0999999046,1208945.7999999523,1203957.42,1203965.0999999046,1203990.752,1208973.886,8,400,30,,ISIC_3098750.JPG
break,html.Screen,4_79_1,2023-11-02T18:27:33.206Z,,0,,,NaN,,,,,,false,,,,1208946.5,1208946.3999999762,,1208946.1999999285,,1208973.886,8,400,,,
break_continue,html.Screen,4_79_2,2023-11-02T18:27:33.206Z,,0,,,NaN,,,,,,false,,,,1208946.5999999046,1208946.5999999046,,1208946.5,,1208973.886,8,400,,,
sequence,flow.Sequence,4_79,2023-11-02T18:27:33.207Z,,0,,,4955.847999904538,completion,,,,,false,,,,1208946.6999999285,1208946.5999999046,1203957.42,1203965.0999999046,1203990.752,1208973.886,8,400,,,
trial,html.Screen,4_80_0,2023-11-02T18:27:36.539Z,,0,2,,3305.313999928534,response,ISIC_0054377.JPG,7,ISIC_0770920.JPG,ISIC_0770920.JPG,false,0,keypress(z),500,1212279.6999999285,1212279.1999999285,1208940.554,1208946.7999999523,1208973.886,1212307.086,8,400,31,,ISIC_0054377.JPG
break,html.Screen,4_80_1,2023-11-02T18:27:36.541Z,,0,,,NaN,,,,,,false,,,,1212280.7999999523,1212280.5999999046,,1212280,,1212307.086,8,400,,,
break_continue,html.Screen,4_80_2,2023-11-02T18:27:36.541Z,,0,,,NaN,,,,,,false,,,,1212281.1999999285,1212281,,1212280.8999999762,,1212307.086,8,400,,,
sequence,flow.Sequence,4_80,2023-11-02T18:27:36.541Z,,0,,,3307.1140000000596,completion,,,,,false,,,,1212281.3999999762,1212281,1208940.554,1208946.7999999523,1208973.886,1212307.086,8,400,,,
trial,html.Screen,4_81_0,2023-11-02T18:27:39.287Z,,0,2,,2719.8139999762643,response,ISIC_0031977.JPG,7,ISIC_0069150.JPG,ISIC_0069150.JPG,false,0,keypress(z),500,1215027.3999999762,1215026.8999999762,1212273.754,1212281.5,1212307.086,1215057.554,8,400,32,,ISIC_0031977.JPG
break,html.Screen,4_81_1,2023-11-02T18:27:39.288Z,,0,,,NaN,,,,,,false,,,,1215028.5,1215028.3999999762,,1215027.6999999285,,1215057.554,8,400,,,
break_continue,html.Screen,4_81_2,2023-11-02T18:27:39.289Z,,0,,,NaN,,,,,,false,,,,1215029,1215028.8999999762,,1215028.7999999523,,1215057.554,8,400,,,
sequence,flow.Sequence,4_81,2023-11-02T18:27:39.289Z,,0,,,2721.8139999762643,completion,,,,,false,,,,1215029.0999999046,1215028.8999999762,1212273.754,1212281.5,1212307.086,1215057.554,8,400,,,
trial,html.Screen,4_82_0,2023-11-02T18:27:42.268Z,,0,2,,2950.1459999284707,response,ISIC_4043580.JPG,7,ISIC_0066001.JPG,ISIC_4043580.JPG,false,1,keypress(m),500,1218008.0999999046,1218007.6999999285,1215024.222,1215029.2999999523,1215057.554,1218040.768,8,400,33,,ISIC_0066001.JPG
break,html.Screen,4_82_1,2023-11-02T18:27:42.268Z,,0,,,NaN,,,,,,false,,,,1218008.7999999523,1218008.6999999285,,1218008.1999999285,,1218040.768,8,400,,,
break_continue,html.Screen,4_82_2,2023-11-02T18:27:42.269Z,,0,,,NaN,,,,,,false,,,,1218009.0999999046,1218009,,1218009,,1218040.768,8,400,,,
sequence,flow.Sequence,4_82,2023-11-02T18:27:42.269Z,,0,,,2951.4459999999963,completion,,,,,false,,,,1218009.0999999046,1218009,1215024.222,1215029.2999999523,1215057.554,1218040.768,8,400,,,
trial,html.Screen,4_83_0,2023-11-02T18:27:44.914Z,,0,2,,2612.7320000000764,response,ISIC_9684649.JPG,8,ISIC_9983696.JPG,ISIC_9684649.JPG,false,1,keypress(m),500,1220654,1220653.5,1218007.436,1218009.1999999285,1218040.768,1220673.996,8,400,34,,ISIC_9983696.JPG
break,html.Screen,4_83_1,2023-11-02T18:27:44.915Z,,0,,,NaN,,,,,,false,,,,1220655.2999999523,1220654.8999999762,,1220654.2999999523,,1220673.996,8,400,,,
break_continue,html.Screen,4_83_2,2023-11-02T18:27:44.915Z,,0,,,NaN,,,,,,false,,,,1220655.6999999285,1220655.5999999046,,1220655.3999999762,,1220673.996,8,400,,,
sequence,flow.Sequence,4_83,2023-11-02T18:27:44.915Z,,0,,,2614.831999904709,completion,,,,,false,,,,1220655.8999999762,1220655.5999999046,1218007.436,1218009.1999999285,1218040.768,1220673.996,8,400,,,
trial,html.Screen,4_84_0,2023-11-02T18:27:47.824Z,,0,2,,2889.7039999284316,response,ISIC_0027507.JPG,6,ISIC_7798403.JPG,ISIC_7798403.JPG,false,0,keypress(z),500,1223564.0999999046,1223563.6999999285,1220640.664,1220656.0999999046,1220673.996,1223590.546,8,400,35,,ISIC_0027507.JPG
break,html.Screen,4_84_1,2023-11-02T18:27:47.825Z,,0,,,NaN,,,,,,false,,,,1223565.2999999523,1223565.0999999046,,1223564.3999999762,,1223590.546,8,400,,,
break_continue,html.Screen,4_84_2,2023-11-02T18:27:47.825Z,,0,,,NaN,,,,,,false,,,,1223565.6999999285,1223565.5,,1223565.3999999762,,1223590.546,8,400,,,
sequence,flow.Sequence,4_84,2023-11-02T18:27:47.825Z,,0,,,2891.503999999957,completion,,,,,false,,,,1223565.7999999523,1223565.5,1220640.664,1220656,1220673.996,1223590.546,8,400,,,
trial,html.Screen,4_85_0,2023-11-02T18:27:50.534Z,,0,2,,2683.9539999999106,response,ISIC_0283541.JPG,6,ISIC_0511526.JPG,ISIC_0511526.JPG,false,0,keypress(z),500,1226275,1226274.5,1223557.214,1223566.0999999046,1223590.546,1226307.712,8,400,36,,ISIC_0283541.JPG
break,html.Screen,4_85_1,2023-11-02T18:27:50.536Z,,0,,,NaN,,,,,,false,,,,1226276.1999999285,1226275.8999999762,,1226275.2999999523,,1226307.712,8,400,,,
break_continue,html.Screen,4_85_2,2023-11-02T18:27:50.536Z,,0,,,NaN,,,,,,false,,,,1226276.5999999046,1226276.5,,1226276.2999999523,,1226307.712,8,400,,,
sequence,flow.Sequence,4_85,2023-11-02T18:27:50.536Z,,0,,,2685.9539999999106,completion,,,,,false,,,,1226276.7999999523,1226276.5,1223557.214,1223565.8999999762,1223590.546,1226307.712,8,400,,,
trial,html.Screen,4_86_0,2023-11-02T18:27:53.262Z,,0,2,,2694.6879999761004,response,ISIC_8380904.JPG,9,ISIC_0033980.JPG,ISIC_0033980.JPG,false,0,keypress(z),500,1229002.8999999762,1229002.3999999762,1226274.38,1226277,1226307.712,1229024.27,8,400,37,,ISIC_8380904.JPG
break,html.Screen,4_86_1,2023-11-02T18:27:53.263Z,,0,,,NaN,,,,,,false,,,,1229004.0999999046,1229003.8999999762,,1229003.1999999285,,1229024.27,8,400,,,
break_continue,html.Screen,4_86_2,2023-11-02T18:27:53.264Z,,0,,,NaN,,,,,,false,,,,1229004.5,1229004.3999999762,,1229004.1999999285,,1229024.27,8,400,,,
sequence,flow.Sequence,4_86,2023-11-02T18:27:53.264Z,,0,,,2696.6879999761004,completion,,,,,false,,,,1229004.6999999285,1229004.3999999762,1226274.38,1226276.8999999762,1226307.712,1229024.27,8,400,,,
trial,html.Screen,4_87_0,2023-11-02T18:27:58.070Z,,0,2,,4785.929999928456,response,ISIC_0786233.JPG,5,ISIC_0033211.JPG,ISIC_0786233.JPG,false,1,keypress(m),500,1233810.6999999285,1233810.1999999285,1228990.938,1229004.7999999523,1229024.27,1233840.744,8,400,38,,ISIC_0033211.JPG
break,html.Screen,4_87_1,2023-11-02T18:27:58.071Z,,0,,,NaN,,,,,,false,,,,1233811.8999999762,1233811.6999999285,,1233811.0999999046,,1233840.744,8,400,,,
break_continue,html.Screen,4_87_2,2023-11-02T18:27:58.071Z,,0,,,NaN,,,,,,false,,,,1233812.2999999523,1233812.0999999046,,1233812,,1233840.744,8,400,,,
sequence,flow.Sequence,4_87,2023-11-02T18:27:58.072Z,,0,,,4787.829999904614,completion,,,,,false,,,,1233812.5,1233812.0999999046,1228990.938,1229004.7999999523,1229024.27,1233840.744,8,400,,,
trial,html.Screen,4_88_0,2023-11-02T18:28:01.451Z,,0,2,,3350.6559999762103,response,ISIC_0238824.JPG,6,ISIC_8048668.JPG,ISIC_8048668.JPG,false,0,keypress(z),500,1237191.8999999762,1237191.3999999762,1233807.412,1233812.5999999046,1233840.744,1237224.512,8,400,39,,ISIC_0238824.JPG
break,html.Screen,4_88_1,2023-11-02T18:28:01.452Z,,0,,,NaN,,,,,,false,,,,1237193.0999999046,1237192.8999999762,,1237192.1999999285,,1237224.512,8,400,,,
break_continue,html.Screen,4_88_2,2023-11-02T18:28:01.453Z,,0,,,NaN,,,,,,false,,,,1237193.5,1237193.2999999523,,1237193.2999999523,,1237224.512,8,400,,,
sequence,flow.Sequence,4_88,2023-11-02T18:28:01.453Z,,0,,,3352.5559999523684,completion,,,,,false,,,,1237193.6999999285,1237193.2999999523,1233807.412,1233812.5999999046,1233840.744,1237224.512,8,400,,,
trial,html.Screen,4_89_0,2023-11-02T18:28:04.979Z,,0,2,,3495.18799992837,response,ISIC_6978997.JPG,5,ISIC_8609756.JPG,ISIC_8609756.JPG,false,0,keypress(z),500,1240720.2999999523,1240719.6999999285,1237191.18,1237193.8999999762,1237224.512,1240741.038,8,400,40,,ISIC_6978997.JPG
break,html.Screen,4_89_1,2023-11-02T18:28:04.981Z,,0,,,NaN,,,,,,false,,,,1240721.5,1240721.1999999285,,1240720.5,,1240741.038,8,400,,,
break_continue,html.Screen,4_89_2,2023-11-02T18:28:04.981Z,,0,,,NaN,,,,,,false,,,,1240721.8999999762,1240721.7999999523,,1240721.5999999046,,1240741.038,8,400,,,
sequence,flow.Sequence,4_89,2023-11-02T18:28:04.981Z,,0,,,3497.287999952212,completion,,,,,false,,,,1240722.0999999046,1240721.7999999523,1237191.18,1237193.7999999523,1237224.512,1240741.038,8,400,,,
trial,html.Screen,4_90_0,2023-11-02T18:28:08.906Z,,0,2,,3905.661999928532,response,ISIC_9913573.JPG,8,ISIC_0032806.JPG,ISIC_9913573.JPG,false,1,keypress(m),500,1244647.2999999523,1244646.6999999285,1240707.706,1240722.0999999046,1240741.038,1244674.214,8,400,41,,ISIC_0032806.JPG
break,html.Screen,4_90_1,2023-11-02T18:28:08.907Z,,0,,,NaN,,,,,,false,,,,1244648.5,1244648.2999999523,,1244647.5999999046,,1244674.214,8,400,,,
break_continue,html.Screen,4_90_2,2023-11-02T18:28:08.908Z,,0,,,NaN,,,,,,false,,,,1244649,1244648.7999999523,,1244648.6999999285,,1244674.214,8,400,,,
sequence,flow.Sequence,4_90,2023-11-02T18:28:08.908Z,,0,,,3907.761999952374,completion,,,,,false,,,,1244649.1999999285,1244648.7999999523,1240707.706,1240722.0999999046,1240741.038,1244674.214,8,400,,,
trial,html.Screen,4_91_0,2023-11-02T18:28:11.681Z,,0,2,,2747.3859999047127,response,ISIC_0054073.JPG,7,ISIC_2565154.JPG,ISIC_2565154.JPG,false,0,keypress(z),500,1247422.1999999285,1247421.5999999046,1244640.882,1244649.2999999523,1244674.214,1247441.383,8,400,42,,ISIC_0054073.JPG
break,html.Screen,4_91_1,2023-11-02T18:28:11.682Z,,0,,,NaN,,,,,,false,,,,1247423.2999999523,1247423,,1247422.3999999762,,1247441.383,8,400,,,
break_continue,html.Screen,4_91_2,2023-11-02T18:28:11.683Z,,0,,,NaN,,,,,,false,,,,1247423.6999999285,1247423.5999999046,,1247423.3999999762,,1247441.383,8,400,,,
sequence,flow.Sequence,4_91,2023-11-02T18:28:11.683Z,,0,,,2749.3859999047127,completion,,,,,false,,,,1247423.8999999762,1247423.5999999046,1244640.882,1244649.1999999285,1244674.214,1247441.383,8,400,,,
trial,html.Screen,4_92_0,2023-11-02T18:28:14.312Z,,0,2,,2611.7169999047183,response,ISIC_0032019.JPG,8,ISIC_9397126.JPG,ISIC_9397126.JPG,false,0,keypress(z),500,1250053.5999999046,1250053.0999999046,1247408.051,1247424,1247441.383,1250074.611,8,400,43,,ISIC_0032019.JPG
break,html.Screen,4_92_1,2023-11-02T18:28:14.314Z,,0,,,NaN,,,,,,false,,,,1250054.8999999762,1250054.5999999046,,1250054,,1250074.611,8,400,,,
break_continue,html.Screen,4_92_2,2023-11-02T18:28:14.314Z,,0,,,NaN,,,,,,false,,,,1250055.1999999285,1250055.0999999046,,1250055,,1250074.611,8,400,,,
sequence,flow.Sequence,4_92,2023-11-02T18:28:14.314Z,,0,,,2613.7169999047183,completion,,,,,false,,,,1250055.3999999762,1250055.0999999046,1247408.051,1247424,1247441.383,1250074.611,8,400,,,
trial,html.Screen,4_93_0,2023-11-02T18:28:18.271Z,,0,2,,3937.3889999999665,response,ISIC_7959386.JPG,8,ISIC_2141003.JPG,ISIC_7959386.JPG,false,1,keypress(m),500,1254012.5999999046,1254012,1250041.279,1250055.5,1250074.611,1254041.119,8,400,44,,ISIC_2141003.JPG
break,html.Screen,4_93_1,2023-11-02T18:28:18.273Z,,0,,,NaN,,,,,,false,,,,1254013.8999999762,1254013.5999999046,,1254012.8999999762,,1254041.119,8,400,,,
break_continue,html.Screen,4_93_2,2023-11-02T18:28:18.273Z,,0,,,NaN,,,,,,false,,,,1254014.1999999285,1254014.0999999046,,1254014,,1254041.119,8,400,,,
sequence,flow.Sequence,4_93,2023-11-02T18:28:18.273Z,,0,,,3939.488999904599,completion,,,,,false,,,,1254014.3999999762,1254014.0999999046,1250041.279,1250055.5,1250074.611,1254041.119,8,400,,,
trial,html.Screen,4_94_0,2023-11-02T18:28:20.878Z,,0,2,,2577.881000000052,response,ISIC_0029593.JPG,7,ISIC_3418978.JPG,ISIC_3418978.JPG,false,0,keypress(z),500,1256619.3999999762,1256619,1254007.787,1254014.5,1254041.119,1256641.602,8,400,45,,ISIC_0029593.JPG
break,html.Screen,4_94_1,2023-11-02T18:28:20.879Z,,0,,,NaN,,,,,,false,,,,1256620.3999999762,1256620.1999999285,,1256619.5999999046,,1256641.602,8,400,,,
break_continue,html.Screen,4_94_2,2023-11-02T18:28:20.879Z,,0,,,NaN,,,,,,false,,,,1256620.6999999285,1256620.5999999046,,1256620.5,,1256641.602,8,400,,,
sequence,flow.Sequence,4_94,2023-11-02T18:28:20.879Z,,0,,,2579.4809999046847,completion,,,,,false,,,,1256620.8999999762,1256620.5999999046,1254007.787,1254014.5,1254041.119,1256641.602,8,400,,,
trial,html.Screen,4_95_0,2023-11-02T18:28:23.649Z,,0,2,,2748.597999928519,response,ISIC_0070403.JPG,8,ISIC_0056930.JPG,ISIC_0056930.JPG,false,0,keypress(z),500,1259390.6999999285,1259390.1999999285,1256608.27,1256620.8999999762,1256641.602,1259424.824,8,400,46,,ISIC_0070403.JPG
break,html.Screen,4_95_1,2023-11-02T18:28:23.650Z,,0,,,NaN,,,,,,false,,,,1259391.7999999523,1259391.6999999285,,1259390.8999999762,,1259424.824,8,400,,,
break_continue,html.Screen,4_95_2,2023-11-02T18:28:23.651Z,,0,,,NaN,,,,,,false,,,,1259392.1999999285,1259392.0999999046,,1259392,,1259424.824,8,400,,,
sequence,flow.Sequence,4_95,2023-11-02T18:28:23.651Z,,0,,,2750.4979999046773,completion,,,,,false,,,,1259392.3999999762,1259392.0999999046,1256608.27,1256620.8999999762,1256641.602,1259424.824,8,400,,,
trial,html.Screen,4_96_0,2023-11-02T18:28:28.342Z,,0,2,,4658.575999976136,response,ISIC_7724764.JPG,8,ISIC_1929937.JPG,ISIC_7724764.JPG,false,1,keypress(m),500,1264083.8999999762,1264083.3999999762,1259391.492,1259392.5,1259424.824,1264107.97,8,400,47,,ISIC_1929937.JPG
break,html.Screen,4_96_1,2023-11-02T18:28:28.343Z,,0,,,NaN,,,,,,false,,,,1264085,1264084.7999999523,,1264084.0999999046,,1264107.97,8,400,,,
break_continue,html.Screen,4_96_2,2023-11-02T18:28:28.344Z,,0,,,NaN,,,,,,false,,,,1264085.2999999523,1264085.2999999523,,1264085.0999999046,,1264107.97,8,400,,,
sequence,flow.Sequence,4_96,2023-11-02T18:28:28.344Z,,0,,,4660.475999952294,completion,,,,,false,,,,1264085.5999999046,1264085.2999999523,1259391.492,1259392.5,1259424.824,1264107.97,8,400,,,
trial,html.Screen,4_97_0,2023-11-02T18:28:32.030Z,,0,2,,3662.7299999285024,response,ISIC_0024529.JPG,5,ISIC_0029593.JPG,ISIC_0024529.JPG,false,1,keypress(m),500,1267771.3999999762,1267770.6999999285,1264074.638,1264085.7999999523,1264107.97,1267791.697,8,400,48,,ISIC_0029593.JPG
break,html.Screen,4_97_1,2023-11-02T18:28:32.031Z,,0,,,NaN,,,,,,false,,,,1267772.6999999285,1267772.3999999762,,1267771.6999999285,,1267791.697,8,400,,,
break_continue,html.Screen,4_97_2,2023-11-02T18:28:32.031Z,,0,,,NaN,,,,,,false,,,,1267773.0999999046,1267773,,1267772.7999999523,,1267791.697,8,400,,,
sequence,flow.Sequence,4_97,2023-11-02T18:28:32.032Z,,0,,,3665.030000000028,completion,,,,,false,,,,1267773.3999999762,1267773,1264074.638,1264085.5999999046,1264107.97,1267791.697,8,400,,,
trial,html.Screen,4_98_0,2023-11-02T18:28:34.821Z,,0,2,,2770.502999928547,response,ISIC_6101007.JPG,7,ISIC_2096695.JPG,ISIC_2096695.JPG,false,0,keypress(z),500,1270562.7999999523,1270562.1999999285,1267758.365,1267773.3999999762,1267791.697,1270591.585,8,400,49,,ISIC_6101007.JPG
break,html.Screen,4_98_1,2023-11-02T18:28:34.822Z,,0,,,NaN,,,,,,false,,,,1270564.0999999046,1270563.8999999762,,1270563.0999999046,,1270591.585,8,400,,,
break_continue,html.Screen,4_98_2,2023-11-02T18:28:34.823Z,,0,,,NaN,,,,,,false,,,,1270564.3999999762,1270564.3999999762,,1270564.0999999046,,1270591.585,8,400,,,
sequence,flow.Sequence,4_98,2023-11-02T18:28:34.823Z,,0,,,2772.702999976231,completion,,,,,false,,,,1270564.5999999046,1270564.3999999762,1267758.365,1267773.3999999762,1267791.697,1270591.585,8,400,,,
trial,html.Screen,4_99_0,2023-11-02T18:28:37.818Z,,0,2,,2967.7149999523535,response,ISIC_8087949.JPG,8,ISIC_0034053.JPG,ISIC_0034053.JPG,false,0,keypress(z),500,1273559.7999999523,1273559.2999999523,1270558.253,1270564.7999999523,1270591.585,1273591.465,8,400,50,,ISIC_8087949.JPG
break,html.Screen,4_99_1,2023-11-02T18:28:47.821Z,,0,,,10000.20299999998,timeout,,,,,false,,,,1283563.0999999046,1283558.336,1273558.133,1273560.0999999046,1273591.465,1283591.668,8,400,,,
break_continue,html.Screen,4_99_2,2023-11-02T19:04:55.014Z,,0,,,1686145.832,response,,,,,false,continue,keypress(Space),,2969754.0999999046,2969737.5,1283558.336,1283563.1999999285,1283591.668,2969773.057,8,400,,,
sequence,flow.Sequence,4_99,2023-11-02T19:04:55.014Z,,0,,,1699145.915,completion,,,,,false,,,,2969754.2999999523,2969737.5,1270558.253,1270564.6999999285,1270591.585,2969773.057,8,400,,,
trial,html.Screen,4_100_0,2023-11-02T19:05:01.480Z,,0,3,,6447.142999928445,response,ISIC_5884700.JPG,9,ISIC_0010140.JPG,ISIC_5884700.JPG,false,1,keypress(m),500,2976220.399999976,2976220.1999999285,2969739.725,2969754.5,2969773.057,2976239.465,8,400,1,,ISIC_0010140.JPG
break,html.Screen,4_100_1,2023-11-02T19:05:01.481Z,,0,,,NaN,,,,,,false,,,,2976221,2976221,,2976220.5999999046,,2976239.465,8,400,,,
break_continue,html.Screen,4_100_2,2023-11-02T19:05:01.481Z,,0,,,NaN,,,,,,false,,,,2976221.2999999523,2976221.1999999285,,2976221.0999999046,,2976239.465,8,400,,,
sequence,flow.Sequence,4_100,2023-11-02T19:05:01.481Z,,0,,,6448.142999928445,completion,,,,,false,,,,2976221.2999999523,2976221.1999999285,2969739.725,2969754.5,2969773.057,2976239.465,8,400,,,
trial,html.Screen,4_101_0,2023-11-02T19:05:06.259Z,,0,3,,4763.834999952465,response,ISIC_0010810.JPG,8,ISIC_6442221.JPG,ISIC_6442221.JPG,false,0,keypress(z),500,2981003.6999999285,2981003.2999999523,2976206.133,2976221.399999976,2976239.465,2981023.15,8,400,2,,ISIC_0010810.JPG
break,html.Screen,4_101_1,2023-11-02T19:05:06.260Z,,0,,,NaN,,,,,,false,,,,2981004.899999976,2981004.6999999285,,2981004,,2981023.15,8,400,,,
break_continue,html.Screen,4_101_2,2023-11-02T19:05:06.261Z,,0,,,NaN,,,,,,false,,,,2981005.0999999046,2981005.0999999046,,2981005,,2981023.15,8,400,,,
sequence,flow.Sequence,4_101,2023-11-02T19:05:06.261Z,,0,,,4765.634999904782,completion,,,,,false,,,,2981005.2999999523,2981005.0999999046,2976206.133,2976221.399999976,2976239.465,2981023.15,8,400,,,
trial,html.Screen,4_102_0,2023-11-02T19:05:11.445Z,,0,3,,5171.149999952409,response,ISIC_0014222.JPG,5,ISIC_9417173.JPG,ISIC_0014222.JPG,false,1,keypress(m),500,2986194.7999999523,2986194.2999999523,2980989.818,2981005.5,2981023.15,2986239.608,8,400,3,,ISIC_9417173.JPG
break,html.Screen,4_102_1,2023-11-02T19:05:11.446Z,,0,,,NaN,,,,,,false,,,,2986196,2986195.7999999523,,2986195.0999999046,,2986239.608,8,400,,,
break_continue,html.Screen,4_102_2,2023-11-02T19:05:11.447Z,,0,,,NaN,,,,,,false,,,,2986196.399999976,2986196.1999999285,,2986196.0999999046,,2986239.608,8,400,,,
sequence,flow.Sequence,4_102,2023-11-02T19:05:11.447Z,,0,,,5173.049999928568,completion,,,,,false,,,,2986196.5999999046,2986196.1999999285,2980989.818,2981005.399999976,2981023.15,2986239.608,8,400,,,
trial,html.Screen,4_103_0,2023-11-02T19:05:14.361Z,,0,3,,2872.8919999999925,response,ISIC_0000387.JPG,4,ISIC_9302863.JPG,ISIC_0000387.JPG,false,1,keypress(m),500,2989113,2989112.5,2986206.276,2986196.6999999285,2986239.608,2989140.082,8,400,4,,ISIC_9302863.JPG
break,html.Screen,4_103_1,2023-11-02T19:05:14.362Z,,0,,,NaN,,,,,,false,,,,2989114.1999999285,2989113.899999976,,2989113.2999999523,,2989140.082,8,400,,,
break_continue,html.Screen,4_103_2,2023-11-02T19:05:14.363Z,,0,,,NaN,,,,,,false,,,,2989114.5,2989114.399999976,,2989114.2999999523,,2989140.082,8,400,,,
sequence,flow.Sequence,4_103,2023-11-02T19:05:14.363Z,,0,,,2874.7919999761507,completion,,,,,false,,,,2989114.7999999523,2989114.399999976,2986206.276,2986196.6999999285,2986239.608,2989140.082,8,400,,,
trial,html.Screen,4_104_0,2023-11-02T19:05:17.535Z,,0,3,,3148.017999904696,response,ISIC_2259861.JPG,7,ISIC_0067697.JPG,ISIC_0067697.JPG,false,0,keypress(z),500,2992288.5999999046,2992288.0999999046,2989106.75,2989114.899999976,2989140.082,2992306.622,8,400,5,,ISIC_2259861.JPG
break,html.Screen,4_104_1,2023-11-02T19:05:17.536Z,,0,,,NaN,,,,,,false,,,,2992289.7999999523,2992289.5999999046,,2992288.899999976,,2992306.622,8,400,,,
break_continue,html.Screen,4_104_2,2023-11-02T19:05:17.536Z,,0,,,NaN,,,,,,false,,,,2992290.0999999046,2992290,,2992289.899999976,,2992306.622,8,400,,,
sequence,flow.Sequence,4_104,2023-11-02T19:05:17.536Z,,0,,,3149.9180000000633,completion,,,,,false,,,,2992290.2999999523,2992290,2989106.75,2989114.899999976,2989140.082,2992306.622,8,400,,,
trial,html.Screen,4_105_0,2023-11-02T19:05:21.075Z,,0,3,,3523.277999976184,response,ISIC_0826998.JPG,7,ISIC_7763831.JPG,ISIC_7763831.JPG,false,0,keypress(z),500,2995830.5999999046,2995829.899999976,2992273.29,2992290.2999999523,2992306.622,2995856.48,8,400,6,,ISIC_0826998.JPG
break,html.Screen,4_105_1,2023-11-02T19:05:21.076Z,,0,,,NaN,,,,,,false,,,,2995831.6999999285,2995831.5,,2995830.7999999523,,2995856.48,8,400,,,
break_continue,html.Screen,4_105_2,2023-11-02T19:05:21.076Z,,0,,,NaN,,,,,,false,,,,2995832.0999999046,2995831.899999976,,2995831.899999976,,2995856.48,8,400,,,
sequence,flow.Sequence,4_105,2023-11-02T19:05:21.077Z,,0,,,3525.277999976184,completion,,,,,false,,,,2995832.2999999523,2995831.899999976,2992273.29,2992290.2999999523,2992306.622,2995856.48,8,400,,,
trial,html.Screen,4_106_0,2023-11-02T19:05:24.071Z,,0,3,,2971.319999952335,response,ISIC_4810485.JPG,6,ISIC_0055169.JPG,ISIC_4810485.JPG,false,1,keypress(m),500,2998828.2999999523,2998827.7999999523,2995823.148,2995832.5,2995856.48,2998856.924,8,400,7,,ISIC_0055169.JPG
break,html.Screen,4_106_1,2023-11-02T19:05:24.073Z,,0,,,NaN,,,,,,false,,,,2998829.5,2998829.2999999523,,2998828.5999999046,,2998856.924,8,400,,,
break_continue,html.Screen,4_106_2,2023-11-02T19:05:24.073Z,,0,,,NaN,,,,,,false,,,,2998829.899999976,2998829.7999999523,,2998829.6999999285,,2998856.924,8,400,,,
sequence,flow.Sequence,4_106,2023-11-02T19:05:24.073Z,,0,,,2973.319999952335,completion,,,,,false,,,,2998830.0999999046,2998829.7999999523,2995823.148,2995832.399999976,2995856.48,2998856.924,8,400,,,
trial,html.Screen,4_107_0,2023-11-02T19:05:27.317Z,,0,3,,3217.5759999998845,response,ISIC_7254389.JPG,7,ISIC_8650269.JPG,ISIC_7254389.JPG,false,1,keypress(m),500,3002074.7999999523,3002074.5,2998823.592,2998830.2999999523,2998856.924,3002106.794,8,400,8,,ISIC_8650269.JPG
break,html.Screen,4_107_1,2023-11-02T19:05:27.317Z,,0,,,NaN,,,,,,false,,,,3002075.5,3002075.399999976,,3002074.899999976,,3002106.794,8,400,,,
break_continue,html.Screen,4_107_2,2023-11-02T19:05:27.318Z,,0,,,NaN,,,,,,false,,,,3002075.6999999285,3002075.6999999285,,3002075.5999999046,,3002106.794,8,400,,,
sequence,flow.Sequence,4_107,2023-11-02T19:05:27.318Z,,0,,,3218.775999928359,completion,,,,,false,,,,3002075.7999999523,3002075.6999999285,2998823.592,2998830.1999999285,2998856.924,3002106.794,8,400,,,
trial,html.Screen,4_108_0,2023-11-02T19:05:30.390Z,,0,3,,3041.905999928247,response,ISIC_0013079.JPG,7,ISIC_0004848.JPG,ISIC_0004848.JPG,false,0,keypress(z),500,3005149.1999999285,3005148.6999999285,3002073.462,3002075.899999976,3002106.794,3005173.338,8,400,9,,ISIC_0013079.JPG
break,html.Screen,4_108_1,2023-11-02T19:05:30.391Z,,0,,,NaN,,,,,,false,,,,3005150.399999976,3005150.1999999285,,3005149.5,,3005173.338,8,400,,,
break_continue,html.Screen,4_108_2,2023-11-02T19:05:30.392Z,,0,,,NaN,,,,,,false,,,,3005150.7999999523,3005150.6999999285,,3005150.5,,3005173.338,8,400,,,
sequence,flow.Sequence,4_108,2023-11-02T19:05:30.392Z,,0,,,3043.905999928247,completion,,,,,false,,,,3005150.899999976,3005150.6999999285,3002073.462,3002075.7999999523,3002106.794,3005173.338,8,400,,,
trial,html.Screen,4_109_0,2023-11-02T19:05:33.205Z,,0,3,,2790.9619999523275,response,ISIC_0027560.JPG,7,ISIC_7558912.JPG,ISIC_7558912.JPG,false,0,keypress(z),500,3007964.6999999285,3007964.2999999523,3005140.006,3005151.0999999046,3005173.338,3007989.892,8,400,10,,ISIC_0027560.JPG
break,html.Screen,4_109_1,2023-11-02T19:05:33.206Z,,0,,,NaN,,,,,,false,,,,3007965.899999976,3007965.5999999046,,3007965,,3007989.892,8,400,,,
break_continue,html.Screen,4_109_2,2023-11-02T19:05:33.206Z,,0,,,NaN,,,,,,false,,,,3007966.1999999285,3007966.0999999046,,3007966,,3007989.892,8,400,,,
sequence,flow.Sequence,4_109,2023-11-02T19:05:33.207Z,,0,,,2792.7619999046437,completion,,,,,false,,,,3007966.399999976,3007966.0999999046,3005140.006,3005151.0999999046,3005173.338,3007989.892,8,400,,,
trial,html.Screen,4_110_0,2023-11-02T19:05:36.195Z,,0,3,,2965.6080000000075,response,ISIC_9564379.JPG,9,ISIC_0011726.JPG,ISIC_9564379.JPG,false,1,keypress(m),500,3010956,3010955.5,3007956.56,3007966.5,3007989.892,3010973.68,8,400,11,,ISIC_0011726.JPG
break,html.Screen,4_110_1,2023-11-02T19:05:36.197Z,,0,,,NaN,,,,,,false,,,,3010957.0999999046,3010956.899999976,,3010956.1999999285,,3010973.68,8,400,,,
break_continue,html.Screen,4_110_2,2023-11-02T19:05:36.197Z,,0,,,NaN,,,,,,false,,,,3010957.5,3010957.399999976,,3010957.2999999523,,3010973.68,8,400,,,
sequence,flow.Sequence,4_110,2023-11-02T19:05:36.197Z,,0,,,2967.5079999761656,completion,,,,,false,,,,3010957.6999999285,3010957.399999976,3007956.56,3007966.399999976,3007989.892,3010973.68,8,400,,,
trial,html.Screen,4_111_0,2023-11-02T19:05:39.108Z,,0,3,,2894.6199999521486,response,ISIC_1532403.JPG,7,ISIC_0059959.JPG,ISIC_0059959.JPG,false,0,keypress(z),500,3013868.7999999523,3013868.2999999523,3010940.348,3010957.899999976,3010973.68,3013890.23,8,400,12,,ISIC_1532403.JPG
break,html.Screen,4_111_1,2023-11-02T19:05:39.109Z,,0,,,NaN,,,,,,false,,,,3013870,3013869.7999999523,,3013869.1999999285,,3013890.23,8,400,,,
break_continue,html.Screen,4_111_2,2023-11-02T19:05:39.109Z,,0,,,NaN,,,,,,false,,,,3013870.399999976,3013870.2999999523,,3013870.1999999285,,3013890.23,8,400,,,
sequence,flow.Sequence,4_111,2023-11-02T19:05:39.110Z,,0,,,2896.6199999521486,completion,,,,,false,,,,3013870.5999999046,3013870.2999999523,3010940.348,3010957.899999976,3010973.68,3013890.23,8,400,,,
trial,html.Screen,4_112_0,2023-11-02T19:05:42.195Z,,0,3,,3065.969999928493,response,ISIC_1601532.JPG,8,ISIC_1758558.JPG,ISIC_1601532.JPG,false,1,keypress(m),500,3016956.6999999285,3016956.1999999285,3013856.898,3013870.6999999285,3013890.23,3016990.106,8,400,13,,ISIC_1758558.JPG
break,html.Screen,4_112_1,2023-11-02T19:05:42.196Z,,0,,,NaN,,,,,,false,,,,3016958,3016957.7999999523,,3016957.0999999046,,3016990.106,8,400,,,
break_continue,html.Screen,4_112_2,2023-11-02T19:05:42.197Z,,0,,,NaN,,,,,,false,,,,3016958.2999999523,3016958.1999999285,,3016958.0999999046,,3016990.106,8,400,,,
sequence,flow.Sequence,4_112,2023-11-02T19:05:42.197Z,,0,,,3067.969999928493,completion,,,,,false,,,,3016958.5,3016958.1999999285,3013856.898,3013870.6999999285,3013890.23,3016990.106,8,400,,,
trial,html.Screen,4_113_0,2023-11-02T19:05:46.937Z,,0,3,,4709.093999928329,response,ISIC_0013617.JPG,6,ISIC_0000463.JPG,ISIC_0000463.JPG,false,0,keypress(z),500,3021699.5999999046,3021699.1999999285,3016956.774,3016958.6999999285,3016990.106,3021723.968,8,400,14,,ISIC_0013617.JPG
break,html.Screen,4_113_1,2023-11-02T19:05:46.938Z,,0,,,NaN,,,,,,false,,,,3021700.5,3021700.2999999523,,3021699.7999999523,,3021723.968,8,400,,,
break_continue,html.Screen,4_113_2,2023-11-02T19:05:46.939Z,,0,,,NaN,,,,,,false,,,,3021700.6999999285,3021700.6999999285,,3021700.5999999046,,3021723.968,8,400,,,
sequence,flow.Sequence,4_113,2023-11-02T19:05:46.939Z,,0,,,4710.593999928329,completion,,,,,false,,,,3021700.7999999523,3021700.6999999285,3016956.774,3016958.5999999046,3016990.106,3021723.968,8,400,,,
trial,html.Screen,4_114_0,2023-11-02T19:05:50.079Z,,0,3,,3117.431999976281,response,ISIC_0002862.JPG,6,ISIC_6915759.JPG,ISIC_0002862.JPG,false,1,keypress(m),500,3024841.7999999523,3024841.399999976,3021690.636,3021700.899999976,3021723.968,3024873.842,8,400,15,,ISIC_6915759.JPG
break,html.Screen,4_114_1,2023-11-02T19:05:50.081Z,,0,,,NaN,,,,,,false,,,,3024843,3024842.7999999523,,3024842.1999999285,,3024873.842,8,400,,,
break_continue,html.Screen,4_114_2,2023-11-02T19:05:50.081Z,,0,,,NaN,,,,,,false,,,,3024843.399999976,3024843.2999999523,,3024843.1999999285,,3024873.842,8,400,,,
sequence,flow.Sequence,4_114,2023-11-02T19:05:50.081Z,,0,,,3119.331999952439,completion,,,,,false,,,,3024843.5999999046,3024843.2999999523,3021690.636,3021700.899999976,3021723.968,3024873.842,8,400,,,
trial,html.Screen,4_115_0,2023-11-02T19:05:53.335Z,,0,3,,3223.0579999759793,response,ISIC_4066726.JPG,8,ISIC_0059303.JPG,ISIC_0059303.JPG,false,0,keypress(z),500,3028097.399999976,3028096.899999976,3024840.51,3024843.6999999285,3024873.842,3028123.712,8,400,16,,ISIC_4066726.JPG
break,html.Screen,4_115_1,2023-11-02T19:05:53.336Z,,0,,,NaN,,,,,,false,,,,3028098.6999999285,3028098.399999976,,3028097.6999999285,,3028123.712,8,400,,,
break_continue,html.Screen,4_115_2,2023-11-02T19:05:53.336Z,,0,,,NaN,,,,,,false,,,,3028099,3028098.899999976,,3028098.6999999285,,3028123.712,8,400,,,
sequence,flow.Sequence,4_115,2023-11-02T19:05:53.336Z,,0,,,3225.0579999759793,completion,,,,,false,,,,3028099.2999999523,3028098.899999976,3024840.51,3024843.6999999285,3024873.842,3028123.712,8,400,,,
trial,html.Screen,4_116_0,2023-11-02T19:05:56.096Z,,0,3,,2735.1879999763332,response,ISIC_8922893.JPG,7,ISIC_0065535.JPG,ISIC_8922893.JPG,false,1,keypress(m),500,3030859.399999976,3030858.899999976,3028090.38,3028099.2999999523,3028123.712,3030890.268,8,400,17,,ISIC_0065535.JPG
break,html.Screen,4_116_1,2023-11-02T19:05:56.097Z,,0,,,NaN,,,,,,false,,,,3030860.5,3030860.399999976,,3030859.6999999285,,3030890.268,8,400,,,
break_continue,html.Screen,4_116_2,2023-11-02T19:05:56.098Z,,0,,,NaN,,,,,,false,,,,3030860.899999976,3030860.7999999523,,3030860.5999999046,,3030890.268,8,400,,,
sequence,flow.Sequence,4_116,2023-11-02T19:05:56.098Z,,0,,,2737.0879999524914,completion,,,,,false,,,,3030861.0999999046,3030860.7999999523,3028090.38,3028099.2999999523,3028123.712,3030890.268,8,400,,,
trial,html.Screen,4_117_0,2023-11-02T19:05:59.861Z,,0,3,,3733.831999904476,response,ISIC_2123159.JPG,7,ISIC_3928910.JPG,ISIC_2123159.JPG,false,1,keypress(m),500,3034624.5999999046,3034624.0999999046,3030856.936,3030861.1999999285,3030890.268,3034657.353,8,400,18,,ISIC_3928910.JPG
break,html.Screen,4_117_1,2023-11-02T19:05:59.862Z,,0,,,NaN,,,,,,false,,,,3034625.6999999285,3034625.5,,3034624.899999976,,3034657.353,8,400,,,
break_continue,html.Screen,4_117_2,2023-11-02T19:05:59.863Z,,0,,,NaN,,,,,,false,,,,3034626.0999999046,3034626,,3034625.899999976,,3034657.353,8,400,,,
sequence,flow.Sequence,4_117,2023-11-02T19:05:59.863Z,,0,,,3735.7319999998435,completion,,,,,false,,,,3034626.2999999523,3034626,3030856.936,3030861.1999999285,3030890.268,3034657.353,8,400,,,
trial,html.Screen,4_118_0,2023-11-02T19:06:02.448Z,,0,3,,2553.346999928355,response,ISIC_0000429.JPG,7,ISIC_3267196.JPG,ISIC_3267196.JPG,false,0,keypress(z),500,3037211.1999999285,3037210.6999999285,3034624.021,3034626.399999976,3034657.353,3037240.583,8,400,19,,ISIC_0000429.JPG
break,html.Screen,4_118_1,2023-11-02T19:06:02.449Z,,0,,,NaN,,,,,,false,,,,3037212.399999976,3037212.1999999285,,3037211.5,,3037240.583,8,400,,,
break_continue,html.Screen,4_118_2,2023-11-02T19:06:02.449Z,,0,,,NaN,,,,,,false,,,,3037212.6999999285,3037212.5999999046,,3037212.5999999046,,3037240.583,8,400,,,
sequence,flow.Sequence,4_118,2023-11-02T19:06:02.449Z,,0,,,2555.2469999045134,completion,,,,,false,,,,3037213,3037212.5999999046,3034624.021,3034626.399999976,3034657.353,3037240.583,8,400,,,
trial,html.Screen,4_119_0,2023-11-02T19:06:05.908Z,,0,3,,3430.3169999760576,response,ISIC_8006094.JPG,5,ISIC_1071355.JPG,ISIC_8006094.JPG,false,1,keypress(m),500,3040671.399999976,3040670.899999976,3037207.251,3037213.0999999046,3037240.583,3040690.445,8,400,20,,ISIC_1071355.JPG
break,html.Screen,4_119_1,2023-11-02T19:06:05.909Z,,0,,,NaN,,,,,,false,,,,3040672.5999999046,3040672.399999976,,3040671.6999999285,,3040690.445,8,400,,,
break_continue,html.Screen,4_119_2,2023-11-02T19:06:05.909Z,,0,,,NaN,,,,,,false,,,,3040673,3040672.7999999523,,3040672.7999999523,,3040690.445,8,400,,,
sequence,flow.Sequence,4_119,2023-11-02T19:06:05.909Z,,0,,,3432.2169999522157,completion,,,,,false,,,,3040673.1999999285,3040672.7999999523,3037207.251,3037213,3037240.583,3040690.445,8,400,,,
trial,html.Screen,4_120_0,2023-11-02T19:06:08.544Z,,0,3,,2616.6549999048,response,ISIC_7125023.JPG,8,ISIC_0025132.JPG,ISIC_7125023.JPG,false,1,keypress(m),500,3043307.5999999046,3043307.0999999046,3040657.113,3040673.399999976,3040690.445,3043340.896,8,400,21,,ISIC_0025132.JPG
break,html.Screen,4_120_1,2023-11-02T19:06:08.545Z,,0,,,NaN,,,,,,false,,,,3043308.7999999523,3043308.5,,3043307.899999976,,3043340.896,8,400,,,
break_continue,html.Screen,4_120_2,2023-11-02T19:06:08.545Z,,0,,,NaN,,,,,,false,,,,3043309.1999999285,3043309.0999999046,,3043308.899999976,,3043340.896,8,400,,,
sequence,flow.Sequence,4_120,2023-11-02T19:06:08.545Z,,0,,,2618.6549999048,completion,,,,,false,,,,3043309.399999976,3043309.0999999046,3040657.113,3040673.2999999523,3040690.445,3043340.896,8,400,,,
trial,html.Screen,4_121_0,2023-11-02T19:06:11.575Z,,0,3,,2997.303999928292,response,ISIC_0025996.JPG,7,ISIC_8105020.JPG,ISIC_8105020.JPG,false,0,keypress(z),500,3046338.6999999285,3046338.1999999285,3043307.564,3043309.5,3043340.896,3046357.442,8,400,22,,ISIC_0025996.JPG
break,html.Screen,4_121_1,2023-11-02T19:06:11.576Z,,0,,,NaN,,,,,,false,,,,3046339.7999999523,3046339.5999999046,,3046339,,3046357.442,8,400,,,
break_continue,html.Screen,4_121_2,2023-11-02T19:06:11.576Z,,0,,,NaN,,,,,,false,,,,3046340.0999999046,3046340.0999999046,,3046339.899999976,,3046357.442,8,400,,,
sequence,flow.Sequence,4_121,2023-11-02T19:06:11.576Z,,0,,,2999.20399990445,completion,,,,,false,,,,3046340.399999976,3046340.0999999046,3043307.564,3043309.5,3043340.896,3046357.442,8,400,,,
trial,html.Screen,4_122_0,2023-11-02T19:06:14.287Z,,0,3,,2692.85799995251,response,ISIC_8654660.JPG,8,ISIC_0029017.JPG,ISIC_0029017.JPG,false,0,keypress(z),500,3049050.7999999523,3049050.2999999523,3046324.11,3046340.5,3046357.442,3049074,8,400,23,,ISIC_8654660.JPG
break,html.Screen,4_122_1,2023-11-02T19:06:14.288Z,,0,,,NaN,,,,,,false,,,,3049052.0999999046,3049051.7999999523,,3049051.1999999285,,3049074,8,400,,,
break_continue,html.Screen,4_122_2,2023-11-02T19:06:14.288Z,,0,,,NaN,,,,,,false,,,,3049052.399999976,3049052.2999999523,,3049052.1999999285,,3049074,8,400,,,
sequence,flow.Sequence,4_122,2023-11-02T19:06:14.288Z,,0,,,2694.85799995251,completion,,,,,false,,,,3049052.6999999285,3049052.2999999523,3046324.11,3046340.5,3046357.442,3049074,8,400,,,
trial,html.Screen,4_123_0,2023-11-02T19:06:16.901Z,,0,3,,2590.7999999523163,response,ISIC_1067985.JPG,8,ISIC_0054284.JPG,ISIC_0054284.JPG,false,0,keypress(z),500,3051665.1999999285,3051664.7999999523,3049040.668,3049052.6999999285,3049074,3051690.562,8,400,24,,ISIC_1067985.JPG
break,html.Screen,4_123_1,2023-11-02T19:06:16.902Z,,0,,,NaN,,,,,,false,,,,3051666,3051665.7999999523,,3051665.2999999523,,3051690.562,8,400,,,
break_continue,html.Screen,4_123_2,2023-11-02T19:06:16.902Z,,0,,,NaN,,,,,,false,,,,3051666.1999999285,3051666.1999999285,,3051666.0999999046,,3051690.562,8,400,,,
sequence,flow.Sequence,4_123,2023-11-02T19:06:16.902Z,,0,,,2592.1999999284744,completion,,,,,false,,,,3051666.399999976,3051666.1999999285,3049040.668,3049052.6999999285,3049074,3051690.562,8,400,,,
trial,html.Screen,4_124_0,2023-11-02T19:06:19.562Z,,0,3,,2635.938000000082,response,ISIC_0027921.JPG,8,ISIC_3009493.JPG,ISIC_3009493.JPG,false,0,keypress(z),500,3054327,3054326.5,3051657.23,3051666.5,3051690.562,3054357.735,8,400,25,,ISIC_0027921.JPG
