sender,sender_type,sender_id,timestamp,meta,,blockNo,condition,duration,ended_on,img_left,img_reveal,img_right,loser,practice,response,response_action,selection_duration,time_commit,time_end,time_render,time_run,time_show,time_switch,total_blocks,total_trials,trialNo,url,winner
informed_consent,html.Screen,0,2023-11-01T18:11:30.600Z,"{""labjs_version"":""20.2.4"",""labjs_build"":{""flavor"":""production"",""commit"":""f5b4a49f956347addd546a832a3327688c2c0fef""},""location"":""https://run.pavlovia.org/MurrayBennett/melanoma-2afc/?participant=67044&platform=sona"",""userAgent"":""Mozilla/5.0 (Macintosh; Intel Mac OS X 10_15_7) AppleWebKit/537.36 (KHTML, like Gecko) Chrome/118.0.0.0 Safari/537.36"",""platform"":""MacIntel"",""language"":""en-US"",""locale"":""en-US"",""timeZone"":""America/Chicago"",""timezoneOffset"":300,""screen_width"":1280,""screen_height"":800,""scroll_width"":1280,""scroll_height"":635,""window_innerWidth"":1280,""window_innerHeight"":683,""devicePixelRatio"":2}",,,,16190.73799999851,response,,,,,,consent,click button,,19528,19494.89999999851,3270.83,3246,3304.162,19570.737,,,,"{""participant"":""67044"",""platform"":""sona""}",
Welcome,html.Screen,1,2023-11-01T18:12:00.110Z,,,,colourful,29445.96300000298,response,,,,,,continue,click button,,49037.5,49016.70000000298,19537.405,19528.29999999702,19570.737,49070.326,,,,,
trial,html.Screen,2_0_0,2023-11-01T18:12:04.339Z,,0,0,,4196.573999998509,response,ISIC_0025593.JPG,,ISIC_0063388.JPG,ISIC_0063388.JPG,true,0,keypress(z),500,53267.10000000149,53266.89999999851,49036.994,49037.79999999702,49070.326,53286.824,1,6,1,,ISIC_0025593.JPG
sequence,flow.Sequence,2_0,2023-11-01T18:12:04.340Z,,0,,,4196.573999998509,completion,,,,,true,,,,53267.29999999702,53266.89999999851,49036.994,49037.79999999702,49070.326,53286.824,1,6,,,
trial,html.Screen,2_1_0,2023-11-01T18:12:08.968Z,,0,0,,4608.575999998509,response,ISIC_1309015.JPG,,ISIC_0028178.JPG,ISIC_1309015.JPG,true,1,keypress(m),500,57895.60000000149,57895.39999999851,53253.492,53267.5,53286.824,57919.972,1,6,2,,ISIC_0028178.JPG
sequence,flow.Sequence,2_1,2023-11-01T18:12:08.968Z,,0,,,4608.575999998509,completion,,,,,true,,,,57895.70000000298,57895.39999999851,53253.492,53267.39999999851,53286.824,57919.972,1,6,,,
trial,html.Screen,2_2_0,2023-11-01T18:12:13.771Z,,0,0,,4778.6280000014885,response,ISIC_3314853.JPG,,ISIC_0031128.JPG,ISIC_0031128.JPG,true,0,keypress(z),500,62698.79999999702,62698.60000000149,57886.64,57896,57919.972,62720.047,1,6,3,,ISIC_3314853.JPG
sequence,flow.Sequence,2_2,2023-11-01T18:12:13.771Z,,0,,,4778.6280000014885,completion,,,,,true,,,,62698.89999999851,62698.60000000149,57886.64,57895.89999999851,57919.972,62720.047,1,6,,,
trial,html.Screen,2_3_0,2023-11-01T18:12:17.501Z,,0,0,,3707.752999997021,response,ISIC_0031612.JPG,,ISIC_8980141.JPG,ISIC_8980141.JPG,true,0,keypress(z),500,66428,66427.79999999702,62686.715,62699,62720.047,66453.231,1,6,4,,ISIC_0031612.JPG
sequence,flow.Sequence,2_3,2023-11-01T18:12:17.501Z,,0,,,3707.752999997021,completion,,,,,true,,,,66428.39999999851,66427.79999999702,62686.715,62699,62720.047,66453.231,1,6,,,
trial,html.Screen,2_4_0,2023-11-01T18:12:21.423Z,,0,0,,3897.16899999851,response,ISIC_9721604.JPG,,ISIC_1197737.JPG,ISIC_9721604.JPG,true,1,keypress(m),500,70350.60000000149,70350.39999999851,66419.899,66428.60000000149,66453.231,70370.027,1,6,5,,ISIC_1197737.JPG
sequence,flow.Sequence,2_4,2023-11-01T18:12:21.424Z,,0,,,3897.16899999851,completion,,,,,true,,,,70350.89999999851,70350.39999999851,66419.899,66428.5,66453.231,70370.027,1,6,,,
trial,html.Screen,2_5_0,2023-11-01T18:12:25.383Z,,0,0,,3939.6730000029784,response,ISIC_0025346.JPG,,ISIC_0010681.JPG,ISIC_0010681.JPG,true,0,keypress(z),500,74309.89999999851,74309.70000000298,70336.695,70351,70370.027,74336.535,1,6,6,,ISIC_0025346.JPG
sequence,flow.Sequence,2_5,2023-11-01T18:12:25.383Z,,0,,,3939.6730000029784,completion,,,,,true,,,,74310.10000000149,74309.70000000298,70336.695,70351,70370.027,74336.535,1,6,,,
loop,flow.Loop,2,2023-11-01T18:12:25.383Z,,,,,25239.37400000298,completion,,,,,true,,,,74310.20000000298,74309.70000000298,49036.994,49037.70000000298,49070.326,74336.535,1,6,,,
exp_instructions,html.Screen,3,2023-11-01T18:12:38.598Z,,,,,13183.864999998506,response,,,,,,continue,keypress(Space),,87524.89999999851,87520.39999999851,74303.203,74310.20000000298,74336.535,87553.05,,,,,
trial,html.Screen,4_0_0,2023-11-01T18:12:42.024Z,,0,1,,3398.050000001487,response,ISIC_6370748.JPG,5,ISIC_0010591.JPG,ISIC_6370748.JPG,false,1,keypress(m),500,90951.29999999702,90951.10000000149,87519.718,87525,87553.05,90986.246,8,400,1,,ISIC_0010591.JPG
break,html.Screen,4_0_1,2023-11-01T18:12:42.025Z,,0,,,NaN,,,,,,false,,,,90952.29999999702,90951.89999999851,,90951.5,,90986.246,8,400,,,
break_continue,html.Screen,4_0_2,2023-11-01T18:12:42.026Z,,0,,,NaN,,,,,,false,,,,90952.89999999851,90952.79999999702,,90952.39999999851,,90986.246,8,400,,,
sequence,flow.Sequence,4_0,2023-11-01T18:12:42.026Z,,0,,,3399.749999997017,completion,,,,,false,,,,90953.20000000298,90952.79999999702,87519.718,87525,87553.05,90986.246,8,400,,,
trial,html.Screen,4_1_0,2023-11-01T18:12:46.128Z,,0,1,,4068.5539999970206,response,ISIC_0071434.JPG,6,ISIC_0014217.JPG,ISIC_0014217.JPG,false,0,keypress(z),500,95055,95054.79999999702,90952.914,90953.20000000298,90986.246,95086.352,8,400,2,,ISIC_0071434.JPG
break,html.Screen,4_1_1,2023-11-01T18:12:46.128Z,,0,,,NaN,,,,,,false,,,,95055.29999999702,95055.29999999702,,95055,,95086.352,8,400,,,
break_continue,html.Screen,4_1_2,2023-11-01T18:12:46.129Z,,0,,,NaN,,,,,,false,,,,95055.5,95055.39999999851,,95055.39999999851,,95086.352,8,400,,,
sequence,flow.Sequence,4_1,2023-11-01T18:12:46.129Z,,0,,,4069.1539999985107,completion,,,,,false,,,,95055.60000000149,95055.39999999851,90952.914,90953.20000000298,90986.246,95086.352,8,400,,,
trial,html.Screen,4_2_0,2023-11-01T18:12:51.481Z,,0,1,,5321.447999997021,response,ISIC_0007740.JPG,7,ISIC_9612228.JPG,ISIC_0007740.JPG,false,1,keypress(m),500,100408.29999999702,100407.79999999702,95053.02,95055.70000000298,95086.352,100436.138,8,400,3,,ISIC_9612228.JPG
break,html.Screen,4_2_1,2023-11-01T18:12:51.482Z,,0,,,NaN,,,,,,false,,,,100408.70000000298,100408.60000000149,,100408.39999999851,,100436.138,8,400,,,
break_continue,html.Screen,4_2_2,2023-11-01T18:12:51.482Z,,0,,,NaN,,,,,,false,,,,100408.89999999851,100408.79999999702,,100408.79999999702,,100436.138,8,400,,,
sequence,flow.Sequence,4_2,2023-11-01T18:12:51.482Z,,0,,,5322.447999997021,completion,,,,,false,,,,100408.89999999851,100408.79999999702,95053.02,95055.70000000298,95086.352,100436.138,8,400,,,
trial,html.Screen,4_3_0,2023-11-01T18:12:55.151Z,,0,1,,3641.1619999970135,response,ISIC_2105563.JPG,6,ISIC_0010742.JPG,ISIC_2105563.JPG,false,1,keypress(m),500,104077.70000000298,104077.29999999702,100402.806,100409.10000000149,100436.138,104102.658,8,400,4,,ISIC_0010742.JPG
break,html.Screen,4_3_1,2023-11-01T18:12:55.157Z,,0,,,NaN,,,,,,false,,,,104083.5,104083.29999999702,,104077.79999999702,,104102.658,8,400,,,
break_continue,html.Screen,4_3_2,2023-11-01T18:12:55.157Z,,0,,,NaN,,,,,,false,,,,104083.70000000298,104083.70000000298,,104083.60000000149,,104102.658,8,400,,,
sequence,flow.Sequence,4_3,2023-11-01T18:12:55.157Z,,0,,,3647.562000002974,completion,,,,,false,,,,104084,104083.70000000298,100402.806,100409,100436.138,104102.658,8,400,,,
trial,html.Screen,4_4_0,2023-11-01T18:13:00.301Z,,0,1,,5125.241999998514,response,ISIC_8173531.JPG,4,ISIC_7438013.JPG,ISIC_7438013.JPG,false,0,keypress(z),500,109228.10000000149,109227.89999999851,104069.326,104084.10000000149,104102.658,109252.722,8,400,5,,ISIC_8173531.JPG
break,html.Screen,4_4_1,2023-11-01T18:13:00.302Z,,0,,,NaN,,,,,,false,,,,109228.60000000149,109228.5,,109228.20000000298,,109252.722,8,400,,,
break_continue,html.Screen,4_4_2,2023-11-01T18:13:00.302Z,,0,,,NaN,,,,,,false,,,,109228.79999999702,109228.70000000298,,109228.70000000298,,109252.722,8,400,,,
sequence,flow.Sequence,4_4,2023-11-01T18:13:00.302Z,,0,,,5126.042000002984,completion,,,,,false,,,,109228.89999999851,109228.70000000298,104069.326,104084.10000000149,104102.658,109252.722,8,400,,,
trial,html.Screen,4_5_0,2023-11-01T18:13:04.114Z,,0,1,,3787.878000001496,response,ISIC_1937955.JPG,5,ISIC_0063742.JPG,ISIC_1937955.JPG,false,1,keypress(m),500,113040.79999999702,113040.60000000149,109219.39,109229,109252.722,113069.236,8,400,6,,ISIC_0063742.JPG
break,html.Screen,4_5_1,2023-11-01T18:13:04.116Z,,0,,,NaN,,,,,,false,,,,113042.70000000298,113042.29999999702,,113041.29999999702,,113069.236,8,400,,,
break_continue,html.Screen,4_5_2,2023-11-01T18:13:04.117Z,,0,,,NaN,,,,,,false,,,,113043.29999999702,113043.20000000298,,113043,,113069.236,8,400,,,
sequence,flow.Sequence,4_5,2023-11-01T18:13:04.117Z,,0,,,3790.478000002986,completion,,,,,false,,,,113043.39999999851,113043.20000000298,109219.39,109228.89999999851,109252.722,113069.236,8,400,,,
trial,html.Screen,4_6_0,2023-11-01T18:13:08.473Z,,0,1,,4330.063999997015,response,ISIC_4184050.JPG,5,ISIC_0757147.JPG,ISIC_4184050.JPG,false,1,keypress(m),500,117399.5,117399.29999999702,113035.904,113043.60000000149,113069.236,117419.376,8,400,7,,ISIC_0757147.JPG
break,html.Screen,4_6_1,2023-11-01T18:13:08.474Z,,0,,,NaN,,,,,,false,,,,117400.10000000149,117399.89999999851,,117399.60000000149,,117419.376,8,400,,,
break_continue,html.Screen,4_6_2,2023-11-01T18:13:08.474Z,,0,,,NaN,,,,,,false,,,,117400.5,117400.29999999702,,117400.20000000298,,117419.376,8,400,,,
sequence,flow.Sequence,4_6,2023-11-01T18:13:08.474Z,,0,,,4331.063999997015,completion,,,,,false,,,,117400.60000000149,117400.29999999702,113035.904,113043.60000000149,113069.236,117419.376,8,400,,,
trial,html.Screen,4_7_0,2023-11-01T18:13:14.590Z,,0,1,,6097.023999998506,response,ISIC_9168700.JPG,7,ISIC_0026293.JPG,ISIC_9168700.JPG,false,1,keypress(m),500,123516.60000000149,123516.39999999851,117386.044,117400.70000000298,117419.376,123535.798,8,400,8,,ISIC_0026293.JPG
break,html.Screen,4_7_1,2023-11-01T18:13:14.591Z,,0,,,NaN,,,,,,false,,,,123517.70000000298,123517.5,,123517.29999999702,,123535.798,8,400,,,
break_continue,html.Screen,4_7_2,2023-11-01T18:13:14.591Z,,0,,,NaN,,,,,,false,,,,123517.89999999851,123517.79999999702,,123517.79999999702,,123535.798,8,400,,,
sequence,flow.Sequence,4_7,2023-11-01T18:13:14.592Z,,0,,,6098.423999997016,completion,,,,,false,,,,123518,123517.79999999702,117386.044,117400.70000000298,117419.376,123535.798,8,400,,,
trial,html.Screen,4_8_0,2023-11-01T18:13:17.669Z,,0,1,,3059.0019999970245,response,ISIC_9382494.JPG,4,ISIC_5281576.JPG,ISIC_5281576.JPG,false,0,keypress(z),500,126595,126594.79999999702,123502.466,123518.10000000149,123535.798,126619.008,8,400,9,,ISIC_9382494.JPG
break,html.Screen,4_8_1,2023-11-01T18:13:17.669Z,,0,,,NaN,,,,,,false,,,,126595.70000000298,126595.39999999851,,126595.20000000298,,126619.008,8,400,,,
break_continue,html.Screen,4_8_2,2023-11-01T18:13:17.670Z,,0,,,NaN,,,,,,false,,,,126596,126596,,126595.79999999702,,126619.008,8,400,,,
sequence,flow.Sequence,4_8,2023-11-01T18:13:17.670Z,,0,,,3060.202000000005,completion,,,,,false,,,,126596.20000000298,126596,123502.466,123518.10000000149,123535.798,126619.008,8,400,,,
trial,html.Screen,4_9_0,2023-11-01T18:13:21.578Z,,0,1,,3884.3919999985083,response,ISIC_0015044.JPG,7,ISIC_9927486.JPG,ISIC_9927486.JPG,false,0,keypress(z),500,130504.10000000149,130503.39999999851,126585.676,126596.29999999702,126619.008,130535.789,8,400,10,,ISIC_0015044.JPG
break,html.Screen,4_9_1,2023-11-01T18:13:21.578Z,,0,,,NaN,,,,,,false,,,,130504.60000000149,130504.5,,130504.29999999702,,130535.789,8,400,,,
break_continue,html.Screen,4_9_2,2023-11-01T18:13:21.579Z,,0,,,NaN,,,,,,false,,,,130505.20000000298,130505.10000000149,,130504.70000000298,,130535.789,8,400,,,
sequence,flow.Sequence,4_9,2023-11-01T18:13:21.579Z,,0,,,3886.0920000014885,completion,,,,,false,,,,130505.29999999702,130505.10000000149,126585.676,126596.20000000298,126619.008,130535.789,8,400,,,
trial,html.Screen,4_10_0,2023-11-01T18:13:24.369Z,,0,1,,2758.811000001486,response,ISIC_3416324.JPG,5,ISIC_0027436.JPG,ISIC_3416324.JPG,false,1,keypress(m),500,133295,133294.6000000015,130502.457,130505.5,130535.789,133319.011,8,400,11,,ISIC_0027436.JPG
break,html.Screen,4_10_1,2023-11-01T18:13:24.369Z,,0,,,NaN,,,,,,false,,,,133295.6000000015,133295.5,,133295.1000000015,,133319.011,8,400,,,
break_continue,html.Screen,4_10_2,2023-11-01T18:13:24.370Z,,0,,,NaN,,,,,,false,,,,133296.5,133296.29999999702,,133296.1000000015,,133319.011,8,400,,,
sequence,flow.Sequence,4_10,2023-11-01T18:13:24.370Z,,0,,,2760.5109999970155,completion,,,,,false,,,,133296.5,133296.29999999702,130502.457,130505.5,130535.789,133319.011,8,400,,,
trial,html.Screen,4_11_0,2023-11-01T18:13:27.481Z,,0,1,,3088.0890000014915,response,ISIC_3069695.JPG,4,ISIC_2064934.JPG,ISIC_2064934.JPG,false,0,keypress(z),500,136407.20000000298,136407.1000000015,133285.679,133296.70000000298,133319.011,136435.553,8,400,12,,ISIC_3069695.JPG
break,html.Screen,4_11_1,2023-11-01T18:13:27.481Z,,0,,,NaN,,,,,,false,,,,136407.6000000015,136407.5,,136407.29999999702,,136435.553,8,400,,,
break_continue,html.Screen,4_11_2,2023-11-01T18:13:27.482Z,,0,,,NaN,,,,,,false,,,,136407.79999999702,136407.79999999702,,136407.70000000298,,136435.553,8,400,,,
sequence,flow.Sequence,4_11,2023-11-01T18:13:27.482Z,,0,,,3088.788999997021,completion,,,,,false,,,,136407.8999999985,136407.79999999702,133285.679,133296.70000000298,133319.011,136435.553,8,400,,,
trial,html.Screen,4_12_0,2023-11-01T18:13:30.819Z,,0,1,,3309.147000002966,response,ISIC_0067808.JPG,5,ISIC_5122042.JPG,ISIC_5122042.JPG,false,0,keypress(z),500,139744.8999999985,139744.70000000298,136402.221,136407.8999999985,136435.553,139769.018,8,400,13,,ISIC_0067808.JPG
break,html.Screen,4_12_1,2023-11-01T18:13:30.819Z,,0,,,NaN,,,,,,false,,,,139745.3999999985,139745.20000000298,,139744.8999999985,,139769.018,8,400,,,
break_continue,html.Screen,4_12_2,2023-11-01T18:13:30.820Z,,0,,,NaN,,,,,,false,,,,139745.70000000298,139745.70000000298,,139745.5,,139769.018,8,400,,,
sequence,flow.Sequence,4_12,2023-11-01T18:13:30.820Z,,0,,,3310.147000002966,completion,,,,,false,,,,139745.8999999985,139745.70000000298,136402.221,136407.8999999985,136435.553,139769.018,8,400,,,
trial,html.Screen,4_13_0,2023-11-01T18:13:34.008Z,,0,1,,3165.381999998499,response,ISIC_5017874.JPG,6,ISIC_5383064.JPG,ISIC_5017874.JPG,false,1,keypress(m),500,142934.5,142934.3999999985,139735.686,139746,139769.018,142968.89,8,400,14,,ISIC_5383064.JPG
break,html.Screen,4_13_1,2023-11-01T18:13:34.009Z,,0,,,NaN,,,,,,false,,,,142934.8999999985,142934.8999999985,,142934.6000000015,,142968.89,8,400,,,
break_continue,html.Screen,4_13_2,2023-11-01T18:13:34.009Z,,0,,,NaN,,,,,,false,,,,142935.1000000015,142935.1000000015,,142935,,142968.89,8,400,,,
sequence,flow.Sequence,4_13,2023-11-01T18:13:34.009Z,,0,,,3166.082000001479,completion,,,,,false,,,,142935.20000000298,142935.1000000015,139735.686,139745.8999999985,139769.018,142968.89,8,400,,,
trial,html.Screen,4_14_0,2023-11-01T18:13:37.051Z,,0,1,,3008.210000001476,response,ISIC_4699066.JPG,8,ISIC_2412888.JPG,ISIC_2412888.JPG,false,0,keypress(z),500,145977.20000000298,145977.1000000015,142935.558,142935.20000000298,142968.89,146002.102,8,400,15,,ISIC_4699066.JPG
break,html.Screen,4_14_1,2023-11-01T18:13:37.052Z,,0,,,NaN,,,,,,false,,,,145977.79999999702,145977.70000000298,,145977.3999999985,,146002.102,8,400,,,
break_continue,html.Screen,4_14_2,2023-11-01T18:13:37.052Z,,0,,,NaN,,,,,,false,,,,145978.5,145978.20000000298,,145977.79999999702,,146002.102,8,400,,,
sequence,flow.Sequence,4_14,2023-11-01T18:13:37.052Z,,0,,,3009.3100000029663,completion,,,,,false,,,,145978.6000000015,145978.20000000298,142935.558,142935.20000000298,142968.89,146002.102,8,400,,,
trial,html.Screen,4_15_0,2023-11-01T18:13:39.806Z,,0,1,,2729.9980000014766,response,ISIC_0028181.JPG,8,ISIC_3478437.JPG,ISIC_3478437.JPG,false,0,keypress(z),500,148732.20000000298,148732.1000000015,145968.77,145978.70000000298,146002.102,148752.256,8,400,16,,ISIC_0028181.JPG
break,html.Screen,4_15_1,2023-11-01T18:13:39.807Z,,0,,,NaN,,,,,,false,,,,148732.70000000298,148732.5,,148732.29999999702,,148752.256,8,400,,,
break_continue,html.Screen,4_15_2,2023-11-01T18:13:39.807Z,,0,,,NaN,,,,,,false,,,,148733,148732.8999999985,,148732.79999999702,,148752.256,8,400,,,
sequence,flow.Sequence,4_15,2023-11-01T18:13:39.807Z,,0,,,2730.7979999984964,completion,,,,,false,,,,148733.1000000015,148732.8999999985,145968.77,145978.70000000298,146002.102,148752.256,8,400,,,
trial,html.Screen,4_16_0,2023-11-01T18:13:42.705Z,,0,1,,2878.143999998516,response,ISIC_0010837.JPG,5,ISIC_1002979.JPG,ISIC_1002979.JPG,false,0,keypress(z),500,151630.70000000298,151630.3999999985,148718.924,148733.20000000298,148752.256,151652.14,8,400,17,,ISIC_0010837.JPG
break,html.Screen,4_16_1,2023-11-01T18:13:42.705Z,,0,,,NaN,,,,,,false,,,,151631.3999999985,151631.20000000298,,151630.79999999702,,151652.14,8,400,,,
break_continue,html.Screen,4_16_2,2023-11-01T18:13:42.706Z,,0,,,NaN,,,,,,false,,,,151631.70000000298,151631.6000000015,,151631.5,,151652.14,8,400,,,
sequence,flow.Sequence,4_16,2023-11-01T18:13:42.706Z,,0,,,2879.344000001496,completion,,,,,false,,,,151631.70000000298,151631.6000000015,148718.924,148733.20000000298,148752.256,151652.14,8,400,,,
trial,html.Screen,4_17_0,2023-11-01T18:13:45.348Z,,0,1,,2621.859999999986,response,ISIC_0016131.JPG,6,ISIC_8380904.JPG,ISIC_8380904.JPG,false,0,keypress(z),500,154274.20000000298,154274,151618.808,151631.8999999985,151652.14,154302.034,8,400,18,,ISIC_0016131.JPG
break,html.Screen,4_17_1,2023-11-01T18:13:45.349Z,,0,,,NaN,,,,,,false,,,,154274.6000000015,154274.5,,154274.29999999702,,154302.034,8,400,,,
break_continue,html.Screen,4_17_2,2023-11-01T18:13:45.349Z,,0,,,NaN,,,,,,false,,,,154274.79999999702,154274.70000000298,,154274.70000000298,,154302.034,8,400,,,
sequence,flow.Sequence,4_17,2023-11-01T18:13:45.349Z,,0,,,2622.5600000029663,completion,,,,,false,,,,154274.8999999985,154274.70000000298,151618.808,151631.79999999702,151652.14,154302.034,8,400,,,
trial,html.Screen,4_18_0,2023-11-01T18:13:48.062Z,,0,1,,2685.7659999970056,response,ISIC_4312841.JPG,6,ISIC_4738636.JPG,ISIC_4738636.JPG,false,0,keypress(z),500,156988.29999999702,156987.79999999702,154268.702,154275,154302.034,157018.592,8,400,19,,ISIC_4312841.JPG
break,html.Screen,4_18_1,2023-11-01T18:13:48.063Z,,0,,,NaN,,,,,,false,,,,156989.20000000298,156989,,156988.6000000015,,157018.592,8,400,,,
break_continue,html.Screen,4_18_2,2023-11-01T18:13:48.064Z,,0,,,NaN,,,,,,false,,,,156989.6000000015,156989.5,,156989.5,,157018.592,8,400,,,
sequence,flow.Sequence,4_18,2023-11-01T18:13:48.064Z,,0,,,2687.465999999986,completion,,,,,false,,,,156989.70000000298,156989.5,154268.702,154274.8999999985,154302.034,157018.592,8,400,,,
trial,html.Screen,4_19_0,2023-11-01T18:13:51.154Z,,0,1,,3060.7079999970156,response,ISIC_0033533.JPG,5,ISIC_0027951.JPG,ISIC_0027951.JPG,false,0,keypress(z),500,160079.5,160079.29999999702,156985.26,156989.79999999702,157018.592,160102.077,8,400,20,,ISIC_0033533.JPG
break,html.Screen,4_19_1,2023-11-01T18:13:51.154Z,,0,,,NaN,,,,,,false,,,,160079.79999999702,160079.70000000298,,160079.6000000015,,160102.077,8,400,,,
break_continue,html.Screen,4_19_2,2023-11-01T18:13:51.154Z,,0,,,NaN,,,,,,false,,,,160080.1000000015,160079.8999999985,,160079.8999999985,,160102.077,8,400,,,
sequence,flow.Sequence,4_19,2023-11-01T18:13:51.154Z,,0,,,3061.3079999985057,completion,,,,,false,,,,160080.20000000298,160079.8999999985,156985.26,156989.79999999702,157018.592,160102.077,8,400,,,
trial,html.Screen,4_20_0,2023-11-01T18:13:54.903Z,,0,1,,3726.3229999985197,response,ISIC_0002613.JPG,6,ISIC_9694911.JPG,ISIC_0002613.JPG,false,1,keypress(m),500,163828.70000000298,163828.3999999985,160068.745,160080.20000000298,160102.077,163851.927,8,400,21,,ISIC_9694911.JPG
break,html.Screen,4_20_1,2023-11-01T18:13:54.904Z,,0,,,NaN,,,,,,false,,,,163829.3999999985,163829.20000000298,,163828.8999999985,,163851.927,8,400,,,
break_continue,html.Screen,4_20_2,2023-11-01T18:13:54.904Z,,0,,,NaN,,,,,,false,,,,163829.6000000015,163829.6000000015,,163829.5,,163851.927,8,400,,,
sequence,flow.Sequence,4_20,2023-11-01T18:13:54.904Z,,0,,,3727.5230000015,completion,,,,,false,,,,163829.70000000298,163829.6000000015,160068.745,160080.20000000298,160102.077,163851.927,8,400,,,
trial,html.Screen,4_21_0,2023-11-01T18:13:57.771Z,,0,1,,2844.173000001494,response,ISIC_9566964.JPG,7,ISIC_2800198.JPG,ISIC_2800198.JPG,false,0,keypress(z),500,166696.29999999702,166696.1000000015,163818.595,163829.8999999985,163851.927,166718.479,8,400,22,,ISIC_9566964.JPG
break,html.Screen,4_21_1,2023-11-01T18:13:57.771Z,,0,,,NaN,,,,,,false,,,,166696.79999999702,166696.6000000015,,166696.3999999985,,166718.479,8,400,,,
break_continue,html.Screen,4_21_2,2023-11-01T18:13:57.771Z,,0,,,NaN,,,,,,false,,,,166697.20000000298,166697,,166696.8999999985,,166718.479,8,400,,,
sequence,flow.Sequence,4_21,2023-11-01T18:13:57.772Z,,0,,,2845.073000000004,completion,,,,,false,,,,166697.20000000298,166697,163818.595,163829.8999999985,163851.927,166718.479,8,400,,,
trial,html.Screen,4_22_0,2023-11-01T18:14:00.559Z,,0,1,,2765.920999998518,response,ISIC_9353514.JPG,6,ISIC_0047004.JPG,ISIC_9353514.JPG,false,1,keypress(m),500,169484.6000000015,169484.3999999985,166685.147,166697.3999999985,166718.479,169518.634,8,400,23,,ISIC_0047004.JPG
break,html.Screen,4_22_1,2023-11-01T18:14:00.560Z,,0,,,NaN,,,,,,false,,,,169485.3999999985,169485.20000000298,,169484.79999999702,,169518.634,8,400,,,
break_continue,html.Screen,4_22_2,2023-11-01T18:14:00.560Z,,0,,,NaN,,,,,,false,,,,169485.70000000298,169485.6000000015,,169485.3999999985,,169518.634,8,400,,,
sequence,flow.Sequence,4_22,2023-11-01T18:14:00.560Z,,0,,,2767.121000001498,completion,,,,,false,,,,169485.79999999702,169485.6000000015,166685.147,166697.29999999702,166718.479,169518.634,8,400,,,
trial,html.Screen,4_23_0,2023-11-01T18:14:04.242Z,,0,1,,3648.866000000009,response,ISIC_0032638.JPG,5,ISIC_0027636.JPG,ISIC_0027636.JPG,false,0,keypress(z),500,173167.79999999702,173167.5,169485.302,169485.79999999702,169518.634,173218.486,8,400,24,,ISIC_0032638.JPG
break,html.Screen,4_23_1,2023-11-01T18:14:04.243Z,,0,,,NaN,,,,,,false,,,,173168.3999999985,173168.20000000298,,173168,,173218.486,8,400,,,
break_continue,html.Screen,4_23_2,2023-11-01T18:14:04.243Z,,0,,,NaN,,,,,,false,,,,173168.70000000298,173168.70000000298,,173168.6000000015,,173218.486,8,400,,,
sequence,flow.Sequence,4_23,2023-11-01T18:14:04.243Z,,0,,,3650.0660000029893,completion,,,,,false,,,,173168.79999999702,173168.70000000298,169485.302,169485.79999999702,169518.634,173218.486,8,400,,,
trial,html.Screen,4_24_0,2023-11-01T18:14:07.773Z,,0,1,,3479.5139999999956,response,ISIC_6678508.JPG,7,ISIC_3067522.JPG,ISIC_6678508.JPG,false,1,keypress(m),500,176698.29999999702,176698,173185.154,173168.8999999985,173218.486,176735.012,8,400,25,,ISIC_3067522.JPG
break,html.Screen,4_24_1,2023-11-01T18:14:07.773Z,,0,,,NaN,,,,,,false,,,,176699,176698.79999999702,,176698.5,,176735.012,8,400,,,
break_continue,html.Screen,4_24_2,2023-11-01T18:14:07.774Z,,0,,,NaN,,,,,,false,,,,176699.29999999702,176699.20000000298,,176699.1000000015,,176735.012,8,400,,,
sequence,flow.Sequence,4_24,2023-11-01T18:14:07.774Z,,0,,,3480.714000002976,completion,,,,,false,,,,176699.29999999702,176699.20000000298,173185.154,173168.8999999985,173218.486,176735.012,8,400,,,
trial,html.Screen,4_25_0,2023-11-01T18:14:11.075Z,,0,1,,3265.6880000029923,response,ISIC_0061583.JPG,5,ISIC_6735970.JPG,ISIC_6735970.JPG,false,0,keypress(z),500,180000.8999999985,180000.70000000298,176701.68,176699.3999999985,176735.012,180051.809,8,400,26,,ISIC_0061583.JPG
break,html.Screen,4_25_1,2023-11-01T18:14:11.076Z,,0,,,NaN,,,,,,false,,,,180001.70000000298,180001.5,,180001.20000000298,,180051.809,8,400,,,
break_continue,html.Screen,4_25_2,2023-11-01T18:14:11.076Z,,0,,,NaN,,,,,,false,,,,180002,180001.8999999985,,180001.79999999702,,180051.809,8,400,,,
sequence,flow.Sequence,4_25,2023-11-01T18:14:11.077Z,,0,,,3266.887999998522,completion,,,,,false,,,,180002.1000000015,180001.8999999985,176701.68,176699.3999999985,176735.012,180051.809,8,400,,,
trial,html.Screen,4_26_0,2023-11-01T18:14:14.951Z,,0,1,,3824.391000002972,response,ISIC_0068116.JPG,8,ISIC_0025186.JPG,ISIC_0068116.JPG,false,1,keypress(m),500,183876.5,183876.20000000298,180018.477,180002.20000000298,180051.809,183901.655,8,400,27,,ISIC_0025186.JPG
break,html.Screen,4_26_1,2023-11-01T18:14:14.951Z,,0,,,NaN,,,,,,false,,,,183876.8999999985,183876.79999999702,,183876.5,,183901.655,8,400,,,
break_continue,html.Screen,4_26_2,2023-11-01T18:14:14.952Z,,0,,,NaN,,,,,,false,,,,183877.1000000015,183877,,183876.8999999985,,183901.655,8,400,,,
sequence,flow.Sequence,4_26,2023-11-01T18:14:14.952Z,,0,,,3825.1909999999916,completion,,,,,false,,,,183877.20000000298,183877,180018.477,180002.20000000298,180051.809,183901.655,8,400,,,
trial,html.Screen,4_27_0,2023-11-01T18:14:17.882Z,,0,1,,2905.244999998511,response,ISIC_0034173.JPG,5,ISIC_0062077.JPG,ISIC_0062077.JPG,false,0,keypress(z),500,186807.20000000298,186806.8999999985,183868.323,183877.20000000298,183901.655,186834.871,8,400,28,,ISIC_0034173.JPG
break,html.Screen,4_27_1,2023-11-01T18:14:17.883Z,,0,,,NaN,,,,,,false,,,,186808.1000000015,186807.8999999985,,186807.3999999985,,186834.871,8,400,,,
break_continue,html.Screen,4_27_2,2023-11-01T18:14:17.883Z,,0,,,NaN,,,,,,false,,,,186808.5,186808.3999999985,,186808.1000000015,,186834.871,8,400,,,
sequence,flow.Sequence,4_27,2023-11-01T18:14:17.883Z,,0,,,2906.744999998511,completion,,,,,false,,,,186808.6000000015,186808.3999999985,183868.323,183877.20000000298,183901.655,186834.871,8,400,,,
trial,html.Screen,4_28_0,2023-11-01T18:14:24.415Z,,0,1,,6505.229000001476,response,ISIC_5028203.JPG,4,ISIC_0056707.JPG,ISIC_5028203.JPG,false,1,keypress(m),500,193340.29999999702,193340.1000000015,186801.539,186808.70000000298,186834.871,193368.206,8,400,29,,ISIC_0056707.JPG
break,html.Screen,4_28_1,2023-11-01T18:14:24.416Z,,0,,,NaN,,,,,,false,,,,193341,193340.8999999985,,193340.5,,193368.206,8,400,,,
break_continue,html.Screen,4_28_2,2023-11-01T18:14:24.416Z,,0,,,NaN,,,,,,false,,,,193341.20000000298,193341.20000000298,,193341.1000000015,,193368.206,8,400,,,
sequence,flow.Sequence,4_28,2023-11-01T18:14:24.416Z,,0,,,6506.3290000029665,completion,,,,,false,,,,193341.3999999985,193341.20000000298,186801.539,186808.70000000298,186834.871,193368.206,8,400,,,
trial,html.Screen,4_29_0,2023-11-01T18:14:27.220Z,,0,1,,2776.8940000014845,response,ISIC_6714082.JPG,7,ISIC_0031499.JPG,ISIC_0031499.JPG,false,0,keypress(z),500,196145.29999999702,196145.1000000015,193334.874,193341.5,193368.206,196168.094,8,400,30,,ISIC_6714082.JPG
break,html.Screen,4_29_1,2023-11-01T18:14:27.221Z,,0,,,NaN,,,,,,false,,,,196146.1000000015,196145.8999999985,,196145.5,,196168.094,8,400,,,
break_continue,html.Screen,4_29_2,2023-11-01T18:14:27.221Z,,0,,,NaN,,,,,,false,,,,196146.5,196146.3999999985,,196146.29999999702,,196168.094,8,400,,,
sequence,flow.Sequence,4_29,2023-11-01T18:14:27.221Z,,0,,,2778.1939999985043,completion,,,,,false,,,,196146.70000000298,196146.3999999985,193334.874,193341.5,193368.206,196168.094,8,400,,,
trial,html.Screen,4_30_0,2023-11-01T18:14:31.370Z,,0,1,,4126.506000001478,response,ISIC_2513933.JPG,6,ISIC_7489895.JPG,ISIC_2513933.JPG,false,1,keypress(m),500,200294.79999999702,200294.6000000015,196134.762,196146.79999999702,196168.094,200318.228,8,400,31,,ISIC_7489895.JPG
break,html.Screen,4_30_1,2023-11-01T18:14:31.370Z,,0,,,NaN,,,,,,false,,,,200295.70000000298,200295.3999999985,,200294.8999999985,,200318.228,8,400,,,
break_continue,html.Screen,4_30_2,2023-11-01T18:14:31.371Z,,0,,,NaN,,,,,,false,,,,200295.8999999985,200295.79999999702,,200295.79999999702,,200318.228,8,400,,,
sequence,flow.Sequence,4_30,2023-11-01T18:14:31.371Z,,0,,,4127.705999997008,completion,,,,,false,,,,200296.1000000015,200295.79999999702,196134.762,196146.70000000298,196168.094,200318.228,8,400,,,
trial,html.Screen,4_31_0,2023-11-01T18:14:35.972Z,,0,1,,4578.472000002977,response,ISIC_5406677.JPG,5,ISIC_3810274.JPG,ISIC_3810274.JPG,false,0,keypress(z),500,204896.8999999985,204896.70000000298,200284.896,200296.70000000298,200318.228,204918.044,8,400,32,,ISIC_5406677.JPG
break,html.Screen,4_31_1,2023-11-01T18:14:35.973Z,,0,,,NaN,,,,,,false,,,,204898.29999999702,204897.29999999702,,204897,,204918.044,8,400,,,
break_continue,html.Screen,4_31_2,2023-11-01T18:14:35.974Z,,0,,,NaN,,,,,,false,,,,204898.70000000298,204898.70000000298,,204898.5,,204918.044,8,400,,,
sequence,flow.Sequence,4_31,2023-11-01T18:14:35.974Z,,0,,,4580.472000002977,completion,,,,,false,,,,204898.8999999985,204898.70000000298,200284.896,200296.1000000015,200318.228,204918.044,8,400,,,
trial,html.Screen,4_32_0,2023-11-01T18:14:38.813Z,,0,1,,2819.5560000014957,response,ISIC_0027402.JPG,5,ISIC_0064393.JPG,ISIC_0027402.JPG,false,1,keypress(m),500,207737.79999999702,207737.6000000015,204884.712,204899,204918.044,207767.93,8,400,33,,ISIC_0064393.JPG
break,html.Screen,4_32_1,2023-11-01T18:14:38.813Z,,0,,,NaN,,,,,,false,,,,207738.5,207738.29999999702,,207738,,207767.93,8,400,,,
break_continue,html.Screen,4_32_2,2023-11-01T18:14:38.814Z,,0,,,NaN,,,,,,false,,,,207738.79999999702,207738.70000000298,,207738.6000000015,,207767.93,8,400,,,
sequence,flow.Sequence,4_32,2023-11-01T18:14:38.814Z,,0,,,2820.656000002986,completion,,,,,false,,,,207738.8999999985,207738.70000000298,204884.712,204899,204918.044,207767.93,8,400,,,
trial,html.Screen,4_33_0,2023-11-01T18:14:41.959Z,,0,1,,3115.8699999970268,response,ISIC_4481362.JPG,6,ISIC_0028379.JPG,ISIC_0028379.JPG,false,0,keypress(z),500,210884.20000000298,210883.79999999702,207734.598,207739,207767.93,210918.075,8,400,34,,ISIC_4481362.JPG
break,html.Screen,4_33_1,2023-11-01T18:14:41.961Z,,0,,,NaN,,,,,,false,,,,210885.70000000298,210885.20000000298,,210884.6000000015,,210918.075,8,400,,,
break_continue,html.Screen,4_33_2,2023-11-01T18:14:41.961Z,,0,,,NaN,,,,,,false,,,,210886,210886,,210885.79999999702,,210918.075,8,400,,,
sequence,flow.Sequence,4_33,2023-11-01T18:14:41.961Z,,0,,,3118.070000000007,completion,,,,,false,,,,210886.1000000015,210886,207734.598,207738.8999999985,207767.93,210918.075,8,400,,,
trial,html.Screen,4_34_0,2023-11-01T18:14:45.870Z,,0,1,,3876.5250000014785,response,ISIC_3959570.JPG,4,ISIC_6674653.JPG,ISIC_3959570.JPG,false,1,keypress(m),500,214794.70000000298,214794.6000000015,210884.743,210886.20000000298,210918.075,214834.585,8,400,35,,ISIC_6674653.JPG
break,html.Screen,4_34_1,2023-11-01T18:14:45.870Z,,0,,,NaN,,,,,,false,,,,214795.1000000015,214795,,214794.79999999702,,214834.585,8,400,,,
break_continue,html.Screen,4_34_2,2023-11-01T18:14:45.870Z,,0,,,NaN,,,,,,false,,,,214795.29999999702,214795.20000000298,,214795.1000000015,,214834.585,8,400,,,
sequence,flow.Sequence,4_34,2023-11-01T18:14:45.870Z,,0,,,3877.1250000029686,completion,,,,,false,,,,214795.3999999985,214795.20000000298,210884.743,210886.20000000298,210918.075,214834.585,8,400,,,
trial,html.Screen,4_35_0,2023-11-01T18:14:49.238Z,,0,1,,3327.915000000008,response,ISIC_8325226.JPG,8,ISIC_0011185.JPG,ISIC_8325226.JPG,false,1,keypress(m),500,218162.79999999702,218162.5,214801.253,214795.3999999985,214834.585,218184.451,8,400,36,,ISIC_0011185.JPG
break,html.Screen,4_35_1,2023-11-01T18:14:49.239Z,,0,,,NaN,,,,,,false,,,,218164.1000000015,218164,,218163.1000000015,,218184.451,8,400,,,
break_continue,html.Screen,4_35_2,2023-11-01T18:14:49.240Z,,0,,,NaN,,,,,,false,,,,218164.6000000015,218164.3999999985,,218164.20000000298,,218184.451,8,400,,,
sequence,flow.Sequence,4_35,2023-11-01T18:14:49.240Z,,0,,,3329.814999998518,completion,,,,,false,,,,218164.70000000298,218164.3999999985,214801.253,214795.3999999985,214834.585,218184.451,8,400,,,
trial,html.Screen,4_36_0,2023-11-01T18:14:52.253Z,,0,1,,2993.048999999999,response,ISIC_0031763.JPG,6,ISIC_0032750.JPG,ISIC_0032750.JPG,false,0,keypress(z),500,221177.6000000015,221177.5,218151.119,218165,218184.451,221201.273,8,400,37,,ISIC_0031763.JPG
break,html.Screen,4_36_1,2023-11-01T18:14:52.253Z,,0,,,NaN,,,,,,false,,,,221178.20000000298,221178,,221177.79999999702,,221201.273,8,400,,,
break_continue,html.Screen,4_36_2,2023-11-01T18:14:52.254Z,,0,,,NaN,,,,,,false,,,,221178.6000000015,221178.3999999985,,221178.29999999702,,221201.273,8,400,,,
sequence,flow.Sequence,4_36,2023-11-01T18:14:52.254Z,,0,,,2993.948999998509,completion,,,,,false,,,,221178.70000000298,221178.3999999985,218151.119,218165,218184.451,221201.273,8,400,,,
trial,html.Screen,4_37_0,2023-11-01T18:14:55.138Z,,0,1,,2861.1269999985234,response,ISIC_0011709.JPG,6,ISIC_6709052.JPG,ISIC_6709052.JPG,false,0,keypress(z),500,224062.6000000015,224062.3999999985,221167.941,221178.79999999702,221201.273,224084.491,8,400,38,,ISIC_0011709.JPG
break,html.Screen,4_37_1,2023-11-01T18:14:55.138Z,,0,,,NaN,,,,,,false,,,,224063,224062.8999999985,,224062.70000000298,,224084.491,8,400,,,
break_continue,html.Screen,4_37_2,2023-11-01T18:14:55.139Z,,0,,,NaN,,,,,,false,,,,224063.3999999985,224063.29999999702,,224063.20000000298,,224084.491,8,400,,,
sequence,flow.Sequence,4_37,2023-11-01T18:14:55.139Z,,0,,,2862.0269999970333,completion,,,,,false,,,,224063.5,224063.29999999702,221167.941,221178.79999999702,221201.273,224084.491,8,400,,,
trial,html.Screen,4_38_0,2023-11-01T18:14:57.892Z,,0,1,,2732.609000001481,response,ISIC_0064033.JPG,9,ISIC_7452410.JPG,ISIC_7452410.JPG,false,0,keypress(z),500,226817.20000000298,226817.1000000015,224051.159,224063.6000000015,224084.491,226867.713,8,400,39,,ISIC_0064033.JPG
break,html.Screen,4_38_1,2023-11-01T18:14:57.893Z,,0,,,NaN,,,,,,false,,,,226817.79999999702,226817.6000000015,,226817.3999999985,,226867.713,8,400,,,
break_continue,html.Screen,4_38_2,2023-11-01T18:14:57.893Z,,0,,,NaN,,,,,,false,,,,226818,226817.8999999985,,226817.8999999985,,226867.713,8,400,,,
sequence,flow.Sequence,4_38,2023-11-01T18:14:57.893Z,,0,,,2733.408999998501,completion,,,,,false,,,,226818.20000000298,226817.8999999985,224051.159,224063.6000000015,224084.491,226867.713,8,400,,,
trial,html.Screen,4_39_0,2023-11-01T18:15:00.650Z,,0,1,,2706.9870000029914,response,ISIC_0029575.JPG,5,ISIC_1937955.JPG,ISIC_1937955.JPG,false,0,keypress(z),500,229574.8999999985,229574.70000000298,226834.381,226818.29999999702,226867.713,229600.937,8,400,40,,ISIC_0029575.JPG
break,html.Screen,4_39_1,2023-11-01T18:15:00.651Z,,0,,,NaN,,,,,,false,,,,229575.5,229575.29999999702,,229575,,229600.937,8,400,,,
break_continue,html.Screen,4_39_2,2023-11-01T18:15:00.651Z,,0,,,NaN,,,,,,false,,,,229575.6000000015,229575.6000000015,,229575.6000000015,,229600.937,8,400,,,
sequence,flow.Sequence,4_39,2023-11-01T18:15:00.651Z,,0,,,2707.8870000015013,completion,,,,,false,,,,229575.70000000298,229575.6000000015,226834.381,226818.20000000298,226867.713,229600.937,8,400,,,
trial,html.Screen,4_40_0,2023-11-01T18:15:03.965Z,,0,1,,3288.5629999999946,response,ISIC_0025001.JPG,5,ISIC_1720856.JPG,ISIC_0025001.JPG,false,1,keypress(m),500,232889.70000000298,232889.5,229567.605,229575.8999999985,229600.937,232917.742,8,400,41,,ISIC_1720856.JPG
break,html.Screen,4_40_1,2023-11-01T18:15:03.966Z,,0,,,NaN,,,,,,false,,,,232890.8999999985,232890.79999999702,,232889.79999999702,,232917.742,8,400,,,
break_continue,html.Screen,4_40_2,2023-11-01T18:15:03.966Z,,0,,,NaN,,,,,,false,,,,232891.1000000015,232891.1000000015,,232891,,232917.742,8,400,,,
sequence,flow.Sequence,4_40,2023-11-01T18:15:03.967Z,,0,,,3290.1630000014848,completion,,,,,false,,,,232891.20000000298,232891.1000000015,229567.605,229575.79999999702,229600.937,232917.742,8,400,,,
trial,html.Screen,4_41_0,2023-11-01T18:15:06.658Z,,0,1,,2664.958000002982,response,ISIC_0027100.JPG,5,ISIC_1805921.JPG,ISIC_1805921.JPG,false,0,keypress(z),500,235582.8999999985,235582.70000000298,232884.41,232891.29999999702,232917.742,235617.634,8,400,42,,ISIC_0027100.JPG
break,html.Screen,4_41_1,2023-11-01T18:15:06.659Z,,0,,,NaN,,,,,,false,,,,235583.29999999702,235583.29999999702,,235583,,235617.634,8,400,,,
break_continue,html.Screen,4_41_2,2023-11-01T18:15:06.659Z,,0,,,NaN,,,,,,false,,,,235583.8999999985,235583.79999999702,,235583.70000000298,,235617.634,8,400,,,
sequence,flow.Sequence,4_41,2023-11-01T18:15:06.659Z,,0,,,2666.0579999970214,completion,,,,,false,,,,235583.8999999985,235583.79999999702,232884.41,232891.29999999702,232917.742,235617.634,8,400,,,
trial,html.Screen,4_42_0,2023-11-01T18:15:09.431Z,,0,1,,2737.765999998519,response,ISIC_0031821.JPG,8,ISIC_0011949.JPG,ISIC_0031821.JPG,false,1,keypress(m),500,238355.6000000015,238355.3999999985,235584.302,235584,235617.634,238384.19,8,400,43,,ISIC_0011949.JPG
break,html.Screen,4_42_1,2023-11-01T18:15:09.432Z,,0,,,NaN,,,,,,false,,,,238356.20000000298,238356,,238355.79999999702,,238384.19,8,400,,,
break_continue,html.Screen,4_42_2,2023-11-01T18:15:09.432Z,,0,,,NaN,,,,,,false,,,,238356.3999999985,238356.29999999702,,238356.20000000298,,238384.19,8,400,,,
sequence,flow.Sequence,4_42,2023-11-01T18:15:09.432Z,,0,,,2738.665999997029,completion,,,,,false,,,,238356.5,238356.29999999702,235584.302,235584,235617.634,238384.19,8,400,,,
trial,html.Screen,4_43_0,2023-11-01T18:15:12.306Z,,0,1,,2845.7099999985076,response,ISIC_6529819.JPG,5,ISIC_0033607.JPG,ISIC_6529819.JPG,false,1,keypress(m),500,241230.1000000015,241229.8999999985,238350.858,238356.6000000015,238384.19,241251.008,8,400,44,,ISIC_0033607.JPG
break,html.Screen,4_43_1,2023-11-01T18:15:12.306Z,,0,,,NaN,,,,,,false,,,,241231,241230.8999999985,,241230.3999999985,,241251.008,8,400,,,
break_continue,html.Screen,4_43_2,2023-11-01T18:15:12.307Z,,0,,,NaN,,,,,,false,,,,241231.20000000298,241231.20000000298,,241231.1000000015,,241251.008,8,400,,,
sequence,flow.Sequence,4_43,2023-11-01T18:15:12.307Z,,0,,,2847.010000002978,completion,,,,,false,,,,241231.29999999702,241231.20000000298,238350.858,238356.5,238384.19,241251.008,8,400,,,
trial,html.Screen,4_44_0,2023-11-01T18:15:15.015Z,,0,1,,2687.9919999999984,response,ISIC_0026497.JPG,5,ISIC_0046706.JPG,ISIC_0026497.JPG,false,1,keypress(m),500,243939.1000000015,243939,241217.41,241231.5,241251.008,243967.566,8,400,45,,ISIC_0046706.JPG
break,html.Screen,4_44_1,2023-11-01T18:15:15.015Z,,0,,,NaN,,,,,,false,,,,243939.70000000298,243939.5,,243939.29999999702,,243967.566,8,400,,,
break_continue,html.Screen,4_44_2,2023-11-01T18:15:15.015Z,,0,,,NaN,,,,,,false,,,,243939.79999999702,243939.79999999702,,243939.70000000298,,243967.566,8,400,,,
sequence,flow.Sequence,4_44,2023-11-01T18:15:15.016Z,,0,,,2688.791999997018,completion,,,,,false,,,,243940,243939.79999999702,241217.41,241231.5,241251.008,243967.566,8,400,,,
trial,html.Screen,4_45_0,2023-11-01T18:15:18.126Z,,0,1,,3083.0340000014985,response,ISIC_8655206.JPG,6,ISIC_4459125.JPG,ISIC_4459125.JPG,false,0,keypress(z),500,247050.79999999702,247050.6000000015,243934.234,243940.1000000015,243967.566,247084.108,8,400,46,,ISIC_8655206.JPG
break,html.Screen,4_45_1,2023-11-01T18:15:18.127Z,,0,,,NaN,,,,,,false,,,,247051.3999999985,247051.20000000298,,247051,,247084.108,8,400,,,
break_continue,html.Screen,4_45_2,2023-11-01T18:15:18.127Z,,0,,,NaN,,,,,,false,,,,247051.6000000015,247051.5,,247051.3999999985,,247084.108,8,400,,,
sequence,flow.Sequence,4_45,2023-11-01T18:15:18.127Z,,0,,,3083.9340000000084,completion,,,,,false,,,,247051.79999999702,247051.5,243934.234,243940.1000000015,243967.566,247084.108,8,400,,,
trial,html.Screen,4_46_0,2023-11-01T18:15:20.962Z,,0,1,,2802.3919999999925,response,ISIC_0032134.JPG,7,ISIC_7407847.JPG,ISIC_7407847.JPG,false,0,keypress(z),500,249886.6000000015,249886.5,247050.776,247051.79999999702,247084.108,249917.328,8,400,47,,ISIC_0032134.JPG
break,html.Screen,4_46_1,2023-11-01T18:15:20.963Z,,0,,,NaN,,,,,,false,,,,249887.20000000298,249887,,249886.79999999702,,249917.328,8,400,,,
break_continue,html.Screen,4_46_2,2023-11-01T18:15:20.963Z,,0,,,NaN,,,,,,false,,,,249887.3999999985,249887.29999999702,,249887.29999999702,,249917.328,8,400,,,
sequence,flow.Sequence,4_46,2023-11-01T18:15:20.963Z,,0,,,2803.1919999970123,completion,,,,,false,,,,249887.6000000015,249887.29999999702,247050.776,247051.79999999702,247084.108,249917.328,8,400,,,
trial,html.Screen,4_47_0,2023-11-01T18:15:23.756Z,,0,1,,2762.471999997011,response,ISIC_3058627.JPG,5,ISIC_1020369.JPG,ISIC_3058627.JPG,false,1,keypress(m),500,252680,252679.79999999702,249883.996,249887.6000000015,249917.328,252700.812,8,400,48,,ISIC_1020369.JPG
break,html.Screen,4_47_1,2023-11-01T18:15:23.756Z,,0,,,NaN,,,,,,false,,,,252680.6000000015,252680.5,,252680.1000000015,,252700.812,8,400,,,
break_continue,html.Screen,4_47_2,2023-11-01T18:15:23.756Z,,0,,,NaN,,,,,,false,,,,252680.79999999702,252680.70000000298,,252680.70000000298,,252700.812,8,400,,,
sequence,flow.Sequence,4_47,2023-11-01T18:15:23.757Z,,0,,,2763.3720000029716,completion,,,,,false,,,,252681,252680.70000000298,249883.996,249887.6000000015,249917.328,252700.812,8,400,,,
trial,html.Screen,4_48_0,2023-11-01T18:15:27.550Z,,0,1,,3773.5879999985045,response,ISIC_9175856.JPG,5,ISIC_3934537.JPG,ISIC_9175856.JPG,false,1,keypress(m),500,256474.70000000298,256474.3999999985,252667.48,252681.1000000015,252700.812,256500.66,8,400,49,,ISIC_3934537.JPG
break,html.Screen,4_48_1,2023-11-01T18:15:27.551Z,,0,,,NaN,,,,,,false,,,,256475.3999999985,256475.20000000298,,256475,,256500.66,8,400,,,
break_continue,html.Screen,4_48_2,2023-11-01T18:15:27.551Z,,0,,,NaN,,,,,,false,,,,256475.70000000298,256475.70000000298,,256475.6000000015,,256500.66,8,400,,,
sequence,flow.Sequence,4_48,2023-11-01T18:15:27.552Z,,0,,,3774.888000002975,completion,,,,,false,,,,256476,256475.70000000298,252667.48,252681,252700.812,256500.66,8,400,,,
trial,html.Screen,4_49_0,2023-11-01T18:15:30.291Z,,0,1,,2713.9400000014866,response,ISIC_6613079.JPG,7,ISIC_0056440.JPG,ISIC_6613079.JPG,false,1,keypress(m),500,259215,259214.6000000015,256467.328,256476.20000000298,256500.66,259267.216,8,400,50,,ISIC_0056440.JPG
break,html.Screen,4_49_1,2023-11-01T18:15:40.313Z,,0,,,9999.863000000041,timeout,,,,,false,,,,269237.5,269233.747,259233.884,259215.29999999702,259267.216,269267.079,8,400,,,
break_continue,html.Screen,4_49_2,2023-11-01T18:15:47.685Z,,0,,,7326.521000001463,response,,,,,false,continue,keypress(Space),,276609.299999997,276593.6000000015,269233.747,269237.6000000015,269267.079,276633.729,8,400,,,
sequence,flow.Sequence,4_49,2023-11-01T18:15:47.686Z,,0,,,20092.940000001487,completion,,,,,false,,,,276609.5,276593.6000000015,256467.328,256476.1000000015,256500.66,276633.729,8,400,,,
trial,html.Screen,4_50_0,2023-11-01T18:15:51.962Z,,0,2,,4251.471000002988,response,ISIC_6054977.JPG,7,ISIC_6697332.JPG,ISIC_6697332.JPG,false,0,keypress(z),500,280885.5,280885.200000003,276600.397,276609.700000003,276633.729,280916.891,8,400,1,,ISIC_6054977.JPG
break,html.Screen,4_50_1,2023-11-01T18:15:51.963Z,,0,,,NaN,,,,,,false,,,,280886.5,280886.299999997,,280886,,280916.891,8,400,,,
break_continue,html.Screen,4_50_2,2023-11-01T18:15:51.963Z,,0,,,NaN,,,,,,false,,,,280886.700000003,280886.6000000015,,280886.5,,280916.891,8,400,,,
sequence,flow.Sequence,4_50,2023-11-01T18:15:51.963Z,,0,,,4252.871000001498,completion,,,,,false,,,,280886.799999997,280886.6000000015,276600.397,276609.700000003,276633.729,280916.891,8,400,,,
trial,html.Screen,4_51_0,2023-11-01T18:15:54.592Z,,0,2,,2599.0089999985066,response,ISIC_0033508.JPG,6,ISIC_8671662.JPG,ISIC_8671662.JPG,false,0,keypress(z),500,283516.1000000015,283515.8999999985,280883.559,280886.8999999985,280916.891,283533.727,8,400,2,,ISIC_0033508.JPG
break,html.Screen,4_51_1,2023-11-01T18:15:54.593Z,,0,,,NaN,,,,,,false,,,,283516.700000003,283516.5,,283516.200000003,,283533.727,8,400,,,
break_continue,html.Screen,4_51_2,2023-11-01T18:15:54.593Z,,0,,,NaN,,,,,,false,,,,283517,283516.8999999985,,283516.799999997,,283533.727,8,400,,,
sequence,flow.Sequence,4_51,2023-11-01T18:15:54.593Z,,0,,,2600.0089999985066,completion,,,,,false,,,,283517.1000000015,283516.8999999985,280883.559,280886.8999999985,280916.891,283533.727,8,400,,,
trial,html.Screen,4_52_0,2023-11-01T18:15:57.378Z,,0,2,,2768.1729999984964,response,ISIC_0062389.JPG,7,ISIC_6913045.JPG,ISIC_6913045.JPG,false,0,keypress(z),500,286302.1000000015,286301.8999999985,283500.395,283517.1000000015,283533.727,286333.615,8,400,3,,ISIC_0062389.JPG
break,html.Screen,4_52_1,2023-11-01T18:15:57.379Z,,0,,,NaN,,,,,,false,,,,286303,286302.799999997,,286302.5,,286333.615,8,400,,,
break_continue,html.Screen,4_52_2,2023-11-01T18:15:57.379Z,,0,,,NaN,,,,,,false,,,,286303.299999997,286303.1000000015,,286303,,286333.615,8,400,,,
sequence,flow.Sequence,4_52,2023-11-01T18:15:57.380Z,,0,,,2769.3730000014766,completion,,,,,false,,,,286303.299999997,286303.1000000015,283500.395,283517.1000000015,283533.727,286333.615,8,400,,,
trial,html.Screen,4_53_0,2023-11-01T18:16:00.264Z,,0,2,,2853.5850000029895,response,ISIC_0025215.JPG,6,ISIC_0055179.JPG,ISIC_0025215.JPG,false,1,keypress(m),500,289187.5,289187.200000003,286300.283,286303.3999999985,286333.615,289216.833,8,400,4,,ISIC_0055179.JPG
break,html.Screen,4_53_1,2023-11-01T18:16:00.264Z,,0,,,NaN,,,,,,false,,,,289188.200000003,289188,,289187.700000003,,289216.833,8,400,,,
break_continue,html.Screen,4_53_2,2023-11-01T18:16:00.265Z,,0,,,NaN,,,,,,false,,,,289188.5,289188.299999997,,289188.299999997,,289216.833,8,400,,,
sequence,flow.Sequence,4_53,2023-11-01T18:16:00.265Z,,0,,,2854.684999997029,completion,,,,,false,,,,289188.6000000015,289188.299999997,286300.283,286303.3999999985,286333.615,289216.833,8,400,,,
trial,html.Screen,4_54_0,2023-11-01T18:16:03.038Z,,0,2,,2744.367000002996,response,ISIC_8690631.JPG,7,ISIC_6498634.JPG,ISIC_8690631.JPG,false,1,keypress(m),500,291961.5,291961.200000003,289183.501,289188.700000003,289216.833,291983.389,8,400,5,,ISIC_6498634.JPG
break,html.Screen,4_54_1,2023-11-01T18:16:03.039Z,,0,,,NaN,,,,,,false,,,,291962.6000000015,291962.200000003,,291961.8999999985,,291983.389,8,400,,,
break_continue,html.Screen,4_54_2,2023-11-01T18:16:03.039Z,,0,,,NaN,,,,,,false,,,,291963,291962.8999999985,,291962.700000003,,291983.389,8,400,,,
sequence,flow.Sequence,4_54,2023-11-01T18:16:03.039Z,,0,,,2746.0669999985257,completion,,,,,false,,,,291963.1000000015,291962.8999999985,289183.501,289188.6000000015,289216.833,291983.389,8,400,,,
trial,html.Screen,4_55_0,2023-11-01T18:16:05.715Z,,0,2,,2654.910999996995,response,ISIC_7822725.JPG,7,ISIC_0031741.JPG,ISIC_7822725.JPG,false,1,keypress(m),500,294638.6000000015,294638.299999997,291950.057,291963.200000003,291983.389,294666.892,8,400,6,,ISIC_0031741.JPG
break,html.Screen,4_55_1,2023-11-01T18:16:05.716Z,,0,,,NaN,,,,,,false,,,,294639.200000003,294639,,294638.700000003,,294666.892,8,400,,,
break_continue,html.Screen,4_55_2,2023-11-01T18:16:05.716Z,,0,,,NaN,,,,,,false,,,,294639.6000000015,294639.5,,294639.3999999985,,294666.892,8,400,,,
sequence,flow.Sequence,4_55,2023-11-01T18:16:05.716Z,,0,,,2656.1109999999753,completion,,,,,false,,,,294639.700000003,294639.5,291950.057,291963.200000003,291983.389,294666.892,8,400,,,
trial,html.Screen,4_56_0,2023-11-01T18:16:08.790Z,,0,2,,3046.1080000000075,response,ISIC_0010942.JPG,7,ISIC_0046458.JPG,ISIC_0010942.JPG,false,1,keypress(m),500,297713.200000003,297713,294633.56,294639.8999999985,294666.892,297733.436,8,400,7,,ISIC_0046458.JPG
break,html.Screen,4_56_1,2023-11-01T18:16:08.790Z,,0,,,NaN,,,,,,false,,,,297713.8999999985,297713.700000003,,297713.3999999985,,297733.436,8,400,,,
break_continue,html.Screen,4_56_2,2023-11-01T18:16:08.791Z,,0,,,NaN,,,,,,false,,,,297714.200000003,297714.1000000015,,297714,,297733.436,8,400,,,
sequence,flow.Sequence,4_56,2023-11-01T18:16:08.791Z,,0,,,3047.2080000014976,completion,,,,,false,,,,297714.200000003,297714.1000000015,294633.56,294639.799999997,294666.892,297733.436,8,400,,,
trial,html.Screen,4_57_0,2023-11-01T18:16:12.381Z,,0,2,,3570.164000001503,response,ISIC_0069361.JPG,5,ISIC_0068153.JPG,ISIC_0069361.JPG,false,1,keypress(m),500,301304.1000000015,301303.6000000015,297700.104,297714.299999997,297733.436,301333.292,8,400,8,,ISIC_0068153.JPG
break,html.Screen,4_57_1,2023-11-01T18:16:12.382Z,,0,,,NaN,,,,,,false,,,,301305.3999999985,301305.1000000015,,301304.799999997,,301333.292,8,400,,,
break_continue,html.Screen,4_57_2,2023-11-01T18:16:12.382Z,,0,,,NaN,,,,,,false,,,,301305.700000003,301305.6000000015,,301305.6000000015,,301333.292,8,400,,,
sequence,flow.Sequence,4_57,2023-11-01T18:16:12.382Z,,0,,,3572.164000001503,completion,,,,,false,,,,301305.799999997,301305.6000000015,297700.104,297714.299999997,297733.436,301333.292,8,400,,,
trial,html.Screen,4_58_0,2023-11-01T18:16:17.544Z,,0,2,,5133.507999997004,response,ISIC_7727830.JPG,6,ISIC_0063070.JPG,ISIC_7727830.JPG,false,1,keypress(m),500,306467.1000000015,306466.799999997,301299.96,301305.8999999985,301333.292,306500.053,8,400,9,,ISIC_0063070.JPG
break,html.Screen,4_58_1,2023-11-01T18:16:17.544Z,,0,,,NaN,,,,,,false,,,,306467.8999999985,306467.700000003,,306467.5,,306500.053,8,400,,,
break_continue,html.Screen,4_58_2,2023-11-01T18:16:17.545Z,,0,,,NaN,,,,,,false,,,,306468.200000003,306468.200000003,,306468,,306500.053,8,400,,,
sequence,flow.Sequence,4_58,2023-11-01T18:16:17.545Z,,0,,,5134.908000002964,completion,,,,,false,,,,306468.299999997,306468.200000003,301299.96,301305.8999999985,301333.292,306500.053,8,400,,,
trial,html.Screen,4_59_0,2023-11-01T18:16:20.158Z,,0,2,,2580.7469999970053,response,ISIC_0029803.JPG,4,ISIC_0070581.JPG,ISIC_0029803.JPG,false,1,keypress(m),500,309081.1000000015,309080.799999997,306466.721,306468.5,306500.053,309099.949,8,400,10,,ISIC_0070581.JPG
break,html.Screen,4_59_1,2023-11-01T18:16:20.158Z,,0,,,NaN,,,,,,false,,,,309081.799999997,309081.700000003,,309081.3999999985,,309099.949,8,400,,,
break_continue,html.Screen,4_59_2,2023-11-01T18:16:20.159Z,,0,,,NaN,,,,,,false,,,,309082.1000000015,309082.1000000015,,309082,,309099.949,8,400,,,
sequence,flow.Sequence,4_59,2023-11-01T18:16:20.159Z,,0,,,2582.0470000014757,completion,,,,,false,,,,309082.299999997,309082.1000000015,306466.721,306468.3999999985,306500.053,309099.949,8,400,,,
trial,html.Screen,4_60_0,2023-11-01T18:16:27.253Z,,0,2,,7075.651000001468,response,ISIC_5960765.JPG,7,ISIC_4523382.JPG,ISIC_4523382.JPG,false,0,keypress(z),500,316175.8999999985,316175.6000000015,309066.617,309082.3999999985,309099.949,316199.958,8,400,11,,ISIC_5960765.JPG
break,html.Screen,4_60_1,2023-11-01T18:16:27.254Z,,0,,,NaN,,,,,,false,,,,316177,316176.6000000015,,316176.3999999985,,316199.958,8,400,,,
break_continue,html.Screen,4_60_2,2023-11-01T18:16:27.254Z,,0,,,NaN,,,,,,false,,,,316177.3999999985,316177.299999997,,316177.200000003,,316199.958,8,400,,,
sequence,flow.Sequence,4_60,2023-11-01T18:16:27.254Z,,0,,,7077.350999996997,completion,,,,,false,,,,316177.5,316177.299999997,309066.617,309082.299999997,309099.949,316199.958,8,400,,,
trial,html.Screen,4_61_0,2023-11-01T18:16:30.874Z,,0,2,,3596.642000001506,response,ISIC_0024980.JPG,6,ISIC_6515546.JPG,ISIC_6515546.JPG,false,0,keypress(z),500,319797,319796.6000000015,316166.626,316177.6000000015,316199.958,319833.146,8,400,12,,ISIC_0024980.JPG
break,html.Screen,4_61_1,2023-11-01T18:16:30.875Z,,0,,,NaN,,,,,,false,,,,319798.700000003,319798.5,,319797.6000000015,,319833.146,8,400,,,
break_continue,html.Screen,4_61_2,2023-11-01T18:16:30.876Z,,0,,,NaN,,,,,,false,,,,319799.1000000015,319799.1000000015,,319799,,319833.146,8,400,,,
sequence,flow.Sequence,4_61,2023-11-01T18:16:30.876Z,,0,,,3599.142000001506,completion,,,,,false,,,,319799.299999997,319799.1000000015,316166.626,316177.6000000015,316199.958,319833.146,8,400,,,
trial,html.Screen,4_62_0,2023-11-01T18:16:34.884Z,,0,2,,3973.5540000029723,response,ISIC_8357420.JPG,5,ISIC_0070253.JPG,ISIC_0070253.JPG,false,0,keypress(z),500,323806.8999999985,323806.700000003,319799.814,319799.5,319833.146,323832.986,8,400,13,,ISIC_8357420.JPG
break,html.Screen,4_62_1,2023-11-01T18:16:34.884Z,,0,,,NaN,,,,,,false,,,,323807.3999999985,323807.200000003,,323807,,323832.986,8,400,,,
break_continue,html.Screen,4_62_2,2023-11-01T18:16:34.885Z,,0,,,NaN,,,,,,false,,,,323807.799999997,323807.700000003,,323807.6000000015,,323832.986,8,400,,,
sequence,flow.Sequence,4_62,2023-11-01T18:16:34.885Z,,0,,,3974.5540000029723,completion,,,,,false,,,,323807.8999999985,323807.700000003,319799.814,319799.3999999985,319833.146,323832.986,8,400,,,
trial,html.Screen,4_63_0,2023-11-01T18:16:39.036Z,,0,2,,4126.114000001515,response,ISIC_3529778.JPG,8,ISIC_4728200.JPG,ISIC_3529778.JPG,false,1,keypress(m),500,327959.200000003,327959.1000000015,323799.654,323808,323832.986,327983.091,8,400,14,,ISIC_4728200.JPG
break,html.Screen,4_63_1,2023-11-01T18:16:39.037Z,,0,,,NaN,,,,,,false,,,,327959.6000000015,327959.5,,327959.299999997,,327983.091,8,400,,,
break_continue,html.Screen,4_63_2,2023-11-01T18:16:39.037Z,,0,,,NaN,,,,,,false,,,,327959.799999997,327959.700000003,,327959.6000000015,,327983.091,8,400,,,
sequence,flow.Sequence,4_63,2023-11-01T18:16:39.037Z,,0,,,4126.714000003005,completion,,,,,false,,,,327959.799999997,327959.700000003,323799.654,323808,323832.986,327983.091,8,400,,,
trial,html.Screen,4_64_0,2023-11-01T18:16:41.951Z,,0,2,,2890.1090000029653,response,ISIC_0011463.JPG,7,ISIC_0029050.JPG,ISIC_0029050.JPG,false,0,keypress(z),500,330874.1000000015,330873.200000003,327949.759,327959.8999999985,327983.091,330899.641,8,400,15,,ISIC_0011463.JPG
break,html.Screen,4_64_1,2023-11-01T18:16:41.952Z,,0,,,NaN,,,,,,false,,,,330874.8999999985,330874.6000000015,,330874.299999997,,330899.641,8,400,,,
break_continue,html.Screen,4_64_2,2023-11-01T18:16:41.952Z,,0,,,NaN,,,,,,false,,,,330875.200000003,330875.1000000015,,330875,,330899.641,8,400,,,
sequence,flow.Sequence,4_64,2023-11-01T18:16:41.953Z,,0,,,2892.009000001475,completion,,,,,false,,,,330875.700000003,330875.1000000015,327949.759,327959.799999997,327983.091,330899.641,8,400,,,
trial,html.Screen,4_65_0,2023-11-01T18:16:44.614Z,,0,2,,2636.959000001487,response,ISIC_7928137.JPG,7,ISIC_0061293.JPG,ISIC_7928137.JPG,false,1,keypress(m),500,333536.8999999985,333536.6000000015,330866.309,330875.8999999985,330899.641,333566.201,8,400,16,,ISIC_0061293.JPG
break,html.Screen,4_65_1,2023-11-01T18:16:44.615Z,,0,,,NaN,,,,,,false,,,,333537.6000000015,333537.3999999985,,333537.200000003,,333566.201,8,400,,,
break_continue,html.Screen,4_65_2,2023-11-01T18:16:44.615Z,,0,,,NaN,,,,,,false,,,,333537.799999997,333537.700000003,,333537.6000000015,,333566.201,8,400,,,
sequence,flow.Sequence,4_65,2023-11-01T18:16:44.615Z,,0,,,2638.059000002977,completion,,,,,false,,,,333537.8999999985,333537.700000003,330866.309,330875.799999997,330899.641,333566.201,8,400,,,
trial,html.Screen,4_66_0,2023-11-01T18:16:49.035Z,,0,2,,4391.499000002979,response,ISIC_0016123.JPG,6,ISIC_0054963.JPG,ISIC_0054963.JPG,false,0,keypress(z),500,337957.799999997,337957.700000003,333532.869,333537.8999999985,333566.201,337999.656,8,400,17,,ISIC_0016123.JPG
break,html.Screen,4_66_1,2023-11-01T18:16:49.035Z,,0,,,NaN,,,,,,false,,,,337958.200000003,337958.1000000015,,337958,,337999.656,8,400,,,
break_continue,html.Screen,4_66_2,2023-11-01T18:16:49.036Z,,0,,,NaN,,,,,,false,,,,337958.5,337958.3999999985,,337958.299999997,,337999.656,8,400,,,
sequence,flow.Sequence,4_66,2023-11-01T18:16:49.036Z,,0,,,4392.198999998509,completion,,,,,false,,,,337958.700000003,337958.3999999985,333532.869,333537.8999999985,333566.201,337999.656,8,400,,,
trial,html.Screen,4_67_0,2023-11-01T18:16:53.839Z,,0,2,,4761.843999999983,response,ISIC_3561065.JPG,8,ISIC_8893501.JPG,ISIC_3561065.JPG,false,1,keypress(m),500,342762,342761.5,337966.324,337958.799999997,337999.656,342782.798,8,400,18,,ISIC_8893501.JPG
break,html.Screen,4_67_1,2023-11-01T18:16:53.840Z,,0,,,NaN,,,,,,false,,,,342762.6000000015,342762.3999999985,,342762.200000003,,342782.798,8,400,,,
break_continue,html.Screen,4_67_2,2023-11-01T18:16:53.840Z,,0,,,NaN,,,,,,false,,,,342762.799999997,342762.700000003,,342762.6000000015,,342782.798,8,400,,,
sequence,flow.Sequence,4_67,2023-11-01T18:16:53.840Z,,0,,,4763.044000002963,completion,,,,,false,,,,342762.8999999985,342762.700000003,337966.324,337958.700000003,337999.656,342782.798,8,400,,,
trial,html.Screen,4_68_0,2023-11-01T18:17:00.996Z,,0,2,,7135.1019999985,response,ISIC_9107280.JPG,5,ISIC_0959863.JPG,ISIC_0959863.JPG,false,0,keypress(z),500,349918.3999999985,349917.8999999985,342749.466,342763,342782.798,349949.449,8,400,19,,ISIC_9107280.JPG
break,html.Screen,4_68_1,2023-11-01T18:17:00.996Z,,0,,,NaN,,,,,,false,,,,349918.8999999985,349918.700000003,,349918.6000000015,,349949.449,8,400,,,
break_continue,html.Screen,4_68_2,2023-11-01T18:17:00.996Z,,0,,,NaN,,,,,,false,,,,349919,349918.8999999985,,349918.8999999985,,349949.449,8,400,,,
sequence,flow.Sequence,4_68,2023-11-01T18:17:00.996Z,,0,,,7136.1019999985,completion,,,,,false,,,,349919.1000000015,349918.8999999985,342749.466,342763,342782.798,349949.449,8,400,,,
trial,html.Screen,4_69_0,2023-11-01T18:17:04.584Z,,0,2,,3557.4509999984875,response,ISIC_0000166.JPG,4,ISIC_1513720.JPG,ISIC_1513720.JPG,false,0,keypress(z),500,353507.200000003,353506.8999999985,349916.117,349919.200000003,349949.449,353532.639,8,400,20,,ISIC_0000166.JPG
break,html.Screen,4_69_1,2023-11-01T18:17:04.585Z,,0,,,NaN,,,,,,false,,,,353508,353507.799999997,,353507.5,,353532.639,8,400,,,
break_continue,html.Screen,4_69_2,2023-11-01T18:17:04.586Z,,0,,,NaN,,,,,,false,,,,353508.299999997,353508.1000000015,,353508.1000000015,,353532.639,8,400,,,
sequence,flow.Sequence,4_69,2023-11-01T18:17:04.586Z,,0,,,3558.6510000014678,completion,,,,,false,,,,353508.3999999985,353508.1000000015,349916.117,349919.1000000015,349949.449,353532.639,8,400,,,
trial,html.Screen,4_70_0,2023-11-01T18:17:08.097Z,,0,2,,3487.260999998485,response,ISIC_5300774.JPG,5,ISIC_1120654.JPG,ISIC_1120654.JPG,false,0,keypress(z),500,357020.1000000015,357019.8999999985,353499.307,353508.5,353532.639,357049.165,8,400,21,,ISIC_5300774.JPG
break,html.Screen,4_70_1,2023-11-01T18:17:08.098Z,,0,,,NaN,,,,,,false,,,,357020.5,357020.299999997,,357020.200000003,,357049.165,8,400,,,
break_continue,html.Screen,4_70_2,2023-11-01T18:17:08.098Z,,0,,,NaN,,,,,,false,,,,357020.799999997,357020.799999997,,357020.6000000015,,357049.165,8,400,,,
sequence,flow.Sequence,4_70,2023-11-01T18:17:08.098Z,,0,,,3488.160999996995,completion,,,,,false,,,,357020.8999999985,357020.799999997,353499.307,353508.5,353532.639,357049.165,8,400,,,
trial,html.Screen,4_71_0,2023-11-01T18:17:11.732Z,,0,2,,3605.6349999970407,response,ISIC_8174951.JPG,6,ISIC_0033845.JPG,ISIC_8174951.JPG,false,1,keypress(m),500,360655,360654.799999997,357015.833,357021.1000000015,357049.165,360682.62,8,400,22,,ISIC_0033845.JPG
break,html.Screen,4_71_1,2023-11-01T18:17:11.733Z,,0,,,NaN,,,,,,false,,,,360655.700000003,360655.3999999985,,360655.1000000015,,360682.62,8,400,,,
break_continue,html.Screen,4_71_2,2023-11-01T18:17:11.733Z,,0,,,NaN,,,,,,false,,,,360655.8999999985,360655.8999999985,,360655.799999997,,360682.62,8,400,,,
sequence,flow.Sequence,4_71,2023-11-01T18:17:11.734Z,,0,,,3606.734999998531,completion,,,,,false,,,,360656.799999997,360655.8999999985,357015.833,357021,357049.165,360682.62,8,400,,,
trial,html.Screen,4_72_0,2023-11-01T18:17:15.178Z,,0,2,,3417.3800000000047,response,ISIC_0929517.JPG,8,ISIC_3105136.JPG,ISIC_0929517.JPG,false,1,keypress(m),500,364100.200000003,364100,360649.288,360657,360682.62,364132.482,8,400,23,,ISIC_3105136.JPG
break,html.Screen,4_72_1,2023-11-01T18:17:15.178Z,,0,,,NaN,,,,,,false,,,,364100.799999997,364100.5,,364100.299999997,,364132.482,8,400,,,
break_continue,html.Screen,4_72_2,2023-11-01T18:17:15.179Z,,0,,,NaN,,,,,,false,,,,364101.1000000015,364101,,364100.8999999985,,364132.482,8,400,,,
sequence,flow.Sequence,4_72,2023-11-01T18:17:15.179Z,,0,,,3418.3800000000047,completion,,,,,false,,,,364101.200000003,364101,360649.288,360657,360682.62,364132.482,8,400,,,
trial,html.Screen,4_73_0,2023-11-01T18:17:20.780Z,,0,2,,5569.618000001472,response,ISIC_0053493.JPG,5,ISIC_0062286.JPG,ISIC_0062286.JPG,false,0,keypress(z),500,369702.3999999985,369702.1000000015,364099.15,364101.299999997,364132.482,369732.55,8,400,24,,ISIC_0053493.JPG
break,html.Screen,4_73_1,2023-11-01T18:17:20.781Z,,0,,,NaN,,,,,,false,,,,369703.299999997,369703,,369702.700000003,,369732.55,8,400,,,
break_continue,html.Screen,4_73_2,2023-11-01T18:17:20.781Z,,0,,,NaN,,,,,,false,,,,369703.700000003,369703.5,,369703.3999999985,,369732.55,8,400,,,
sequence,flow.Sequence,4_73,2023-11-01T18:17:20.781Z,,0,,,5571.017999999982,completion,,,,,false,,,,369703.799999997,369703.5,364099.15,364101.299999997,364132.482,369732.55,8,400,,,
trial,html.Screen,4_74_0,2023-11-01T18:17:30.245Z,,0,2,,9433.950000000012,response,ISIC_3448546.JPG,6,ISIC_0069167.JPG,ISIC_3448546.JPG,false,1,keypress(m),500,379166.799999997,379166.5,369699.218,369703.8999999985,369732.55,379198.838,8,400,25,,ISIC_0069167.JPG
break,html.Screen,4_74_1,2023-11-01T18:17:30.245Z,,0,,,NaN,,,,,,false,,,,379167.3999999985,379167.200000003,,379166.8999999985,,379198.838,8,400,,,
break_continue,html.Screen,4_74_2,2023-11-01T18:17:30.246Z,,0,,,NaN,,,,,,false,,,,379167.700000003,379167.700000003,,379167.5,,379198.838,8,400,,,
sequence,flow.Sequence,4_74,2023-11-01T18:17:30.246Z,,0,,,9435.150000002992,completion,,,,,false,,,,379168.1000000015,379167.700000003,369699.218,369703.8999999985,369732.55,379198.838,8,400,,,
trial,html.Screen,4_75_0,2023-11-01T18:17:35.018Z,,0,2,,4741.162000000011,response,ISIC_0620587.JPG,5,ISIC_0055826.JPG,ISIC_0055826.JPG,false,0,keypress(z),500,383940.299999997,383940,379165.506,379168.200000003,379198.838,383965.576,8,400,26,,ISIC_0620587.JPG
break,html.Screen,4_75_1,2023-11-01T18:17:35.019Z,,0,,,NaN,,,,,,false,,,,383941.200000003,383941,,383940.700000003,,383965.576,8,400,,,
break_continue,html.Screen,4_75_2,2023-11-01T18:17:35.020Z,,0,,,NaN,,,,,,false,,,,383941.700000003,383941.5,,383941.3999999985,,383965.576,8,400,,,
sequence,flow.Sequence,4_75,2023-11-01T18:17:35.020Z,,0,,,4742.662000000011,completion,,,,,false,,,,383941.799999997,383941.5,379165.506,379168.200000003,379198.838,383965.576,8,400,,,
trial,html.Screen,4_76_0,2023-11-01T18:17:37.998Z,,0,2,,2954.423999999999,response,ISIC_0059601.JPG,7,ISIC_8792007.JPG,ISIC_8792007.JPG,false,0,keypress(z),500,386920.3999999985,386920,383932.244,383942,383965.576,386948.79,8,400,27,,ISIC_0059601.JPG
break,html.Screen,4_76_1,2023-11-01T18:17:37.999Z,,0,,,NaN,,,,,,false,,,,386921.299999997,386920.8999999985,,386920.5,,386948.79,8,400,,,
break_continue,html.Screen,4_76_2,2023-11-01T18:17:38.000Z,,0,,,NaN,,,,,,false,,,,386921.6000000015,386921.5,,386921.3999999985,,386948.79,8,400,,,
sequence,flow.Sequence,4_76,2023-11-01T18:17:38.000Z,,0,,,2955.923999999999,completion,,,,,false,,,,386921.799999997,386921.5,383932.244,383941.8999999985,383965.576,386948.79,8,400,,,
trial,html.Screen,4_77_0,2023-11-01T18:17:40.676Z,,0,2,,2649.210000000021,response,ISIC_0065181.JPG,6,ISIC_0030029.JPG,ISIC_0030029.JPG,false,0,keypress(z),500,389598.1000000015,389598,386915.458,386921.799999997,386948.79,389632.016,8,400,28,,ISIC_0065181.JPG
break,html.Screen,4_77_1,2023-11-01T18:17:40.677Z,,0,,,NaN,,,,,,false,,,,389599.1000000015,389599,,389598.5,,389632.016,8,400,,,
break_continue,html.Screen,4_77_2,2023-11-01T18:17:40.677Z,,0,,,NaN,,,,,,false,,,,389599.3999999985,389599.299999997,,389599.200000003,,389632.016,8,400,,,
sequence,flow.Sequence,4_77,2023-11-01T18:17:40.677Z,,0,,,2650.5099999970407,completion,,,,,false,,,,389599.5,389599.299999997,386915.458,386921.799999997,386948.79,389632.016,8,400,,,
trial,html.Screen,4_78_0,2023-11-01T18:17:43.500Z,,0,2,,2788.9839999999967,response,ISIC_3459981.JPG,4,ISIC_9142818.JPG,ISIC_3459981.JPG,false,1,keypress(m),500,392421.6000000015,392421,389598.684,389599.5,389632.016,392465.508,8,400,29,,ISIC_9142818.JPG
break,html.Screen,4_78_1,2023-11-01T18:17:43.500Z,,0,,,NaN,,,,,,false,,,,392421.8999999985,392421.8999999985,,392421.799999997,,392465.508,8,400,,,
break_continue,html.Screen,4_78_2,2023-11-01T18:17:43.500Z,,0,,,NaN,,,,,,false,,,,392422.200000003,392422.200000003,,392422.1000000015,,392465.508,8,400,,,
sequence,flow.Sequence,4_78,2023-11-01T18:17:43.500Z,,0,,,2790.184000002977,completion,,,,,false,,,,392422.200000003,392422.200000003,389598.684,389599.5,389632.016,392465.508,8,400,,,
trial,html.Screen,4_79_0,2023-11-01T18:17:46.243Z,,0,2,,2699.6920000030077,response,ISIC_5706192.JPG,7,ISIC_0027694.JPG,ISIC_5706192.JPG,false,1,keypress(m),500,395165.3999999985,395165.200000003,392432.176,392422.299999997,392465.508,395198.732,8,400,30,,ISIC_0027694.JPG
break,html.Screen,4_79_1,2023-11-01T18:17:46.245Z,,0,,,NaN,,,,,,false,,,,395166.5,395165.8999999985,,395165.6000000015,,395198.732,8,400,,,
break_continue,html.Screen,4_79_2,2023-11-01T18:17:46.245Z,,0,,,NaN,,,,,,false,,,,395166.799999997,395166.700000003,,395166.700000003,,395198.732,8,400,,,
sequence,flow.Sequence,4_79,2023-11-01T18:17:46.245Z,,0,,,2701.1920000030077,completion,,,,,false,,,,395167,395166.700000003,392432.176,392422.299999997,392465.508,395198.732,8,400,,,
trial,html.Screen,4_80_0,2023-11-01T18:17:50.247Z,,0,2,,3969.968000002962,response,ISIC_0024294.JPG,7,ISIC_5843614.JPG,ISIC_0024294.JPG,false,1,keypress(m),500,399169.1000000015,399168.700000003,395165.4,395167.799999997,395198.732,399198.572,8,400,31,,ISIC_5843614.JPG
break,html.Screen,4_80_1,2023-11-01T18:17:50.248Z,,0,,,NaN,,,,,,false,,,,399169.5,399169.299999997,,399169.200000003,,399198.572,8,400,,,
break_continue,html.Screen,4_80_2,2023-11-01T18:17:50.248Z,,0,,,NaN,,,,,,false,,,,399169.700000003,399169.6000000015,,399169.5,,399198.572,8,400,,,
sequence,flow.Sequence,4_80,2023-11-01T18:17:50.248Z,,0,,,3970.868000001472,completion,,,,,false,,,,399169.799999997,399169.6000000015,395165.4,395167.1000000015,395198.732,399198.572,8,400,,,
trial,html.Screen,4_81_0,2023-11-01T18:17:54.589Z,,0,2,,4311.928000000014,response,ISIC_6732560.JPG,6,ISIC_0610477.JPG,ISIC_0610477.JPG,false,0,keypress(z),500,403510.700000003,403510.5,399165.24,399170.1000000015,399198.572,403531.994,8,400,32,,ISIC_6732560.JPG
break,html.Screen,4_81_1,2023-11-01T18:17:54.589Z,,0,,,NaN,,,,,,false,,,,403511,403511,,403510.799999997,,403531.994,8,400,,,
break_continue,html.Screen,4_81_2,2023-11-01T18:17:54.589Z,,0,,,NaN,,,,,,false,,,,403511.200000003,403511.200000003,,403511.1000000015,,403531.994,8,400,,,
sequence,flow.Sequence,4_81,2023-11-01T18:17:54.590Z,,0,,,4312.628000002995,completion,,,,,false,,,,403511.299999997,403511.200000003,399165.24,399170,399198.572,403531.994,8,400,,,
trial,html.Screen,4_82_0,2023-11-01T18:17:57.441Z,,0,2,,2830.706000002974,response,ISIC_0072730.JPG,7,ISIC_0054885.JPG,ISIC_0072730.JPG,false,1,keypress(m),500,406363,406362.700000003,403498.662,403511.3999999985,403531.994,406381.88,8,400,33,,ISIC_0054885.JPG
break,html.Screen,4_82_1,2023-11-01T18:17:57.442Z,,0,,,NaN,,,,,,false,,,,406363.6000000015,406363.299999997,,406363.1000000015,,406381.88,8,400,,,
break_continue,html.Screen,4_82_2,2023-11-01T18:17:57.442Z,,0,,,NaN,,,,,,false,,,,406364.1000000015,406364,,406363.799999997,,406381.88,8,400,,,
sequence,flow.Sequence,4_82,2023-11-01T18:17:57.442Z,,0,,,2832.005999999994,completion,,,,,false,,,,406364.200000003,406364,403498.662,403511.3999999985,403531.994,406381.88,8,400,,,
trial,html.Screen,4_83_0,2023-11-01T18:18:00.616Z,,0,2,,3155.2200000014855,response,ISIC_0025579.JPG,5,ISIC_0014657.JPG,ISIC_0014657.JPG,false,0,keypress(z),500,409537.200000003,409537.1000000015,406348.548,406364.3999999985,406381.88,409565.086,8,400,34,,ISIC_0025579.JPG
break,html.Screen,4_83_1,2023-11-01T18:18:00.616Z,,0,,,NaN,,,,,,false,,,,409537.799999997,409537.700000003,,409537.3999999985,,409565.086,8,400,,,
break_continue,html.Screen,4_83_2,2023-11-01T18:18:00.616Z,,0,,,NaN,,,,,,false,,,,409538,409538,,409537.8999999985,,409565.086,8,400,,,
sequence,flow.Sequence,4_83,2023-11-01T18:18:00.616Z,,0,,,3156.1199999999953,completion,,,,,false,,,,409538.1000000015,409538,406348.548,406364.299999997,406381.88,409565.086,8,400,,,
trial,html.Screen,4_84_0,2023-11-01T18:18:04.027Z,,0,2,,3383.2139999970095,response,ISIC_4139260.JPG,5,ISIC_4362713.JPG,ISIC_4139260.JPG,false,1,keypress(m),500,412948.5,412948.299999997,409531.754,409538.200000003,409565.086,412981.902,8,400,35,,ISIC_4362713.JPG
break,html.Screen,4_84_1,2023-11-01T18:18:04.027Z,,0,,,NaN,,,,,,false,,,,412948.8999999985,412948.8999999985,,412948.6000000015,,412981.902,8,400,,,
break_continue,html.Screen,4_84_2,2023-11-01T18:18:04.027Z,,0,,,NaN,,,,,,false,,,,412949.1000000015,412949,,412949,,412981.902,8,400,,,
sequence,flow.Sequence,4_84,2023-11-01T18:18:04.028Z,,0,,,3383.9139999999898,completion,,,,,false,,,,412949.200000003,412949,409531.754,409538.200000003,409565.086,412981.902,8,400,,,
trial,html.Screen,4_85_0,2023-11-01T18:18:06.832Z,,0,2,,2770.897999997018,response,ISIC_3356355.JPG,5,ISIC_0059551.JPG,ISIC_3356355.JPG,false,1,keypress(m),500,415753.299999997,415752.799999997,412948.57,412949.200000003,412981.902,415781.79,8,400,36,,ISIC_0059551.JPG
break,html.Screen,4_85_1,2023-11-01T18:18:06.832Z,,0,,,NaN,,,,,,false,,,,415753.8999999985,415753.700000003,,415753.3999999985,,415781.79,8,400,,,
break_continue,html.Screen,4_85_2,2023-11-01T18:18:06.832Z,,0,,,NaN,,,,,,false,,,,415754.1000000015,415754,,415754,,415781.79,8,400,,,
sequence,flow.Sequence,4_85,2023-11-01T18:18:06.833Z,,0,,,2772.097999999998,completion,,,,,false,,,,415754.200000003,415754,412948.57,412949.200000003,412981.902,415781.79,8,400,,,
trial,html.Screen,4_86_0,2023-11-01T18:18:09.477Z,,0,2,,2616.5099999970407,response,ISIC_1930598.JPG,8,ISIC_9579506.JPG,ISIC_9579506.JPG,false,0,keypress(z),500,418398.6000000015,418398.299999997,415748.458,415754.200000003,415781.79,418431.684,8,400,37,,ISIC_1930598.JPG
break,html.Screen,4_86_1,2023-11-01T18:18:09.478Z,,0,,,NaN,,,,,,false,,,,418399.8999999985,418399.6000000015,,418399.200000003,,418431.684,8,400,,,
break_continue,html.Screen,4_86_2,2023-11-01T18:18:09.479Z,,0,,,NaN,,,,,,false,,,,418400.200000003,418400.1000000015,,418400,,418431.684,8,400,,,
sequence,flow.Sequence,4_86,2023-11-01T18:18:09.479Z,,0,,,2618.310000001511,completion,,,,,false,,,,418400.3999999985,418400.1000000015,415748.458,415754.200000003,415781.79,418431.684,8,400,,,
trial,html.Screen,4_87_0,2023-11-01T18:18:12.413Z,,0,2,,2902.516000002972,response,ISIC_0024756.JPG,5,ISIC_7128811.JPG,ISIC_7128811.JPG,false,0,keypress(z),500,421334.3999999985,421334.200000003,418398.352,418400.5,418431.684,421365.169,8,400,38,,ISIC_0024756.JPG
break,html.Screen,4_87_1,2023-11-01T18:18:12.414Z,,0,,,NaN,,,,,,false,,,,421335.1000000015,421334.8999999985,,421334.6000000015,,421365.169,8,400,,,
break_continue,html.Screen,4_87_2,2023-11-01T18:18:12.414Z,,0,,,NaN,,,,,,false,,,,421335.299999997,421335.200000003,,421335.1000000015,,421365.169,8,400,,,
sequence,flow.Sequence,4_87,2023-11-01T18:18:12.414Z,,0,,,2903.516000002972,completion,,,,,false,,,,421335.3999999985,421335.200000003,418398.352,418400.5,418431.684,421365.169,8,400,,,
trial,html.Screen,4_88_0,2023-11-01T18:18:16.064Z,,0,2,,3620.2309999985155,response,ISIC_0034000.JPG,6,ISIC_0031900.JPG,ISIC_0031900.JPG,false,0,keypress(z),500,424985.6000000015,424985.3999999985,421331.837,421335.5,421365.169,425015.023,8,400,39,,ISIC_0034000.JPG
break,html.Screen,4_88_1,2023-11-01T18:18:16.065Z,,0,,,NaN,,,,,,false,,,,424986.1000000015,424986,,424985.700000003,,425015.023,8,400,,,
break_continue,html.Screen,4_88_2,2023-11-01T18:18:16.065Z,,0,,,NaN,,,,,,false,,,,424986.200000003,424986.200000003,,424986.1000000015,,425015.023,8,400,,,
sequence,flow.Sequence,4_88,2023-11-01T18:18:16.065Z,,0,,,3621.031000002986,completion,,,,,false,,,,424986.3999999985,424986.200000003,421331.837,421335.3999999985,421365.169,425015.023,8,400,,,
trial,html.Screen,4_89_0,2023-11-01T18:18:18.740Z,,0,2,,2645.9770000000135,response,ISIC_1578399.JPG,6,ISIC_0064344.JPG,ISIC_1578399.JPG,false,1,keypress(m),500,427661.299999997,427661,424981.691,424986.3999999985,425015.023,427681.583,8,400,40,,ISIC_0064344.JPG
break,html.Screen,4_89_1,2023-11-01T18:18:18.741Z,,0,,,NaN,,,,,,false,,,,427662.1000000015,427661.799999997,,427661.5,,427681.583,8,400,,,
break_continue,html.Screen,4_89_2,2023-11-01T18:18:18.741Z,,0,,,NaN,,,,,,false,,,,427662.5,427662.299999997,,427662.200000003,,427681.583,8,400,,,
sequence,flow.Sequence,4_89,2023-11-01T18:18:18.741Z,,0,,,2647.2769999970333,completion,,,,,false,,,,427662.700000003,427662.299999997,424981.691,424986.3999999985,425015.023,427681.583,8,400,,,
trial,html.Screen,4_90_0,2023-11-01T18:18:21.223Z,,0,2,,2462.917000000016,response,ISIC_0033333.JPG,5,ISIC_0024398.JPG,ISIC_0024398.JPG,false,0,keypress(z),500,430144.6000000015,430144.5,427648.251,427662.799999997,427681.583,430164.817,8,400,41,,ISIC_0033333.JPG
break,html.Screen,4_90_1,2023-11-01T18:18:21.224Z,,0,,,NaN,,,,,,false,,,,430145.299999997,430145.1000000015,,430144.799999997,,430164.817,8,400,,,
break_continue,html.Screen,4_90_2,2023-11-01T18:18:21.224Z,,0,,,NaN,,,,,,false,,,,430145.5,430145.3999999985,,430145.3999999985,,430164.817,8,400,,,
sequence,flow.Sequence,4_90,2023-11-01T18:18:21.224Z,,0,,,2463.8169999985257,completion,,,,,false,,,,430145.6000000015,430145.3999999985,427648.251,427662.799999997,427681.583,430164.817,8,400,,,
trial,html.Screen,4_91_0,2023-11-01T18:18:23.758Z,,0,2,,2514.082999998529,response,ISIC_1794249.JPG,8,ISIC_0014800.JPG,ISIC_1794249.JPG,false,1,keypress(m),500,432679.200000003,432678.8999999985,430131.485,430145.700000003,430164.817,432698.319,8,400,42,,ISIC_0014800.JPG
break,html.Screen,4_91_1,2023-11-01T18:18:23.759Z,,0,,,NaN,,,,,,false,,,,432679.8999999985,432679.700000003,,432679.3999999985,,432698.319,8,400,,,
break_continue,html.Screen,4_91_2,2023-11-01T18:18:23.759Z,,0,,,NaN,,,,,,false,,,,432680.200000003,432680.1000000015,,432680,,432698.319,8,400,,,
sequence,flow.Sequence,4_91,2023-11-01T18:18:23.759Z,,0,,,2515.283000001509,completion,,,,,false,,,,432680.299999997,432680.1000000015,430131.485,430145.700000003,430164.817,432698.319,8,400,,,
trial,html.Screen,4_92_0,2023-11-01T18:18:27.063Z,,0,2,,3286.1809999999823,response,ISIC_0032269.JPG,6,ISIC_0010900.JPG,ISIC_0032269.JPG,false,1,keypress(m),500,435984.700000003,435984.5,432664.987,432680.3999999985,432698.319,436014.853,8,400,43,,ISIC_0010900.JPG
break,html.Screen,4_92_1,2023-11-01T18:18:27.064Z,,0,,,NaN,,,,,,false,,,,435985.299999997,435985,,435984.799999997,,436014.853,8,400,,,
break_continue,html.Screen,4_92_2,2023-11-01T18:18:27.064Z,,0,,,NaN,,,,,,false,,,,435985.6000000015,435985.5,,435985.3999999985,,436014.853,8,400,,,
sequence,flow.Sequence,4_92,2023-11-01T18:18:27.064Z,,0,,,3287.1809999999823,completion,,,,,false,,,,435985.700000003,435985.5,432664.987,432680.3999999985,432698.319,436014.853,8,400,,,
trial,html.Screen,4_93_0,2023-11-01T18:18:29.822Z,,0,2,,2728.3470000029774,response,ISIC_0708542.JPG,4,ISIC_0024962.JPG,ISIC_0708542.JPG,false,1,keypress(m),500,438743.6000000015,438743.200000003,435981.521,435985.700000003,436014.853,438764.743,8,400,44,,ISIC_0024962.JPG
break,html.Screen,4_93_1,2023-11-01T18:18:29.823Z,,0,,,NaN,,,,,,false,,,,438744.299999997,438744.1000000015,,438743.700000003,,438764.743,8,400,,,
break_continue,html.Screen,4_93_2,2023-11-01T18:18:29.823Z,,0,,,NaN,,,,,,false,,,,438744.700000003,438744.6000000015,,438744.5,,438764.743,8,400,,,
sequence,flow.Sequence,4_93,2023-11-01T18:18:29.824Z,,0,,,2729.7470000014873,completion,,,,,false,,,,438744.799999997,438744.6000000015,435981.521,435985.700000003,436014.853,438764.743,8,400,,,
trial,html.Screen,4_94_0,2023-11-01T18:18:32.725Z,,0,2,,2880.556999997003,response,ISIC_0033966.JPG,7,ISIC_0063473.JPG,ISIC_0033966.JPG,false,1,keypress(m),500,441646.3999999985,441645.299999997,438731.411,438744.8999999985,438764.743,441664.627,8,400,45,,ISIC_0063473.JPG
break,html.Screen,4_94_1,2023-11-01T18:18:32.726Z,,0,,,NaN,,,,,,false,,,,441646.8999999985,441646.700000003,,441646.5,,441664.627,8,400,,,
break_continue,html.Screen,4_94_2,2023-11-01T18:18:32.726Z,,0,,,NaN,,,,,,false,,,,441647.200000003,441647.200000003,,441647.1000000015,,441664.627,8,400,,,
sequence,flow.Sequence,4_94,2023-11-01T18:18:32.726Z,,0,,,2882.4570000029635,completion,,,,,false,,,,441647.3999999985,441647.200000003,438731.411,438744.799999997,438764.743,441664.627,8,400,,,
trial,html.Screen,4_95_0,2023-11-01T18:18:39.225Z,,0,2,,6481.272999998531,response,ISIC_0031010.JPG,9,ISIC_0031561.JPG,ISIC_0031010.JPG,false,1,keypress(m),500,448146.200000003,448145.8999999985,441631.295,441647.5,441664.627,448181.307,8,400,46,,ISIC_0031561.JPG
break,html.Screen,4_95_1,2023-11-01T18:18:39.226Z,,0,,,NaN,,,,,,false,,,,448146.799999997,448146.700000003,,448146.3999999985,,448181.307,8,400,,,
break_continue,html.Screen,4_95_2,2023-11-01T18:18:39.226Z,,0,,,NaN,,,,,,false,,,,448147.200000003,448147.1000000015,,448147,,448181.307,8,400,,,
sequence,flow.Sequence,4_95,2023-11-01T18:18:39.226Z,,0,,,6482.4730000015115,completion,,,,,false,,,,448147.299999997,448147.1000000015,441631.295,441647.5,441664.627,448181.307,8,400,,,
trial,html.Screen,4_96_0,2023-11-01T18:18:42.076Z,,0,2,,2815.5929999985383,response,ISIC_8310944.JPG,7,ISIC_0030969.JPG,ISIC_8310944.JPG,false,1,keypress(m),500,450997.200000003,450996.8999999985,448147.975,448147.299999997,448181.307,451014.527,8,400,47,,ISIC_0030969.JPG
break,html.Screen,4_96_1,2023-11-01T18:18:42.077Z,,0,,,NaN,,,,,,false,,,,450997.799999997,450997.6000000015,,450997.299999997,,451014.527,8,400,,,
break_continue,html.Screen,4_96_2,2023-11-01T18:18:42.077Z,,0,,,NaN,,,,,,false,,,,450998.1000000015,450998,,450997.8999999985,,451014.527,8,400,,,
sequence,flow.Sequence,4_96,2023-11-01T18:18:42.077Z,,0,,,2816.6930000000284,completion,,,,,false,,,,450998.200000003,450998,448147.975,448147.299999997,448181.307,451014.527,8,400,,,
trial,html.Screen,4_97_0,2023-11-01T18:18:44.887Z,,0,2,,2792.972999999998,response,ISIC_2457024.JPG,8,ISIC_7826557.JPG,ISIC_7826557.JPG,false,0,keypress(z),500,453807.700000003,453807.5,450981.195,450998.299999997,451014.527,453831.344,8,400,48,,ISIC_2457024.JPG
break,html.Screen,4_97_1,2023-11-01T18:18:44.888Z,,0,,,NaN,,,,,,false,,,,453808.6000000015,453808.3999999985,,453807.799999997,,453831.344,8,400,,,
break_continue,html.Screen,4_97_2,2023-11-01T18:18:44.888Z,,0,,,NaN,,,,,,false,,,,453809.1000000015,453808.8999999985,,453808.799999997,,453831.344,8,400,,,
sequence,flow.Sequence,4_97,2023-11-01T18:18:44.888Z,,0,,,2794.372999998508,completion,,,,,false,,,,453809.200000003,453808.8999999985,450981.195,450998.299999997,451014.527,453831.344,8,400,,,
trial,html.Screen,4_98_0,2023-11-01T18:18:49.581Z,,0,2,,4670.455999997037,response,ISIC_2106823.JPG,6,ISIC_8344345.JPG,ISIC_8344345.JPG,false,0,keypress(z),500,458502.1000000015,458501.799999997,453798.012,453809.3999999985,453831.344,458531.156,8,400,49,,ISIC_2106823.JPG
break,html.Screen,4_98_1,2023-11-01T18:18:49.582Z,,0,,,NaN,,,,,,false,,,,458502.700000003,458502.6000000015,,458502.299999997,,458531.156,8,400,,,
break_continue,html.Screen,4_98_2,2023-11-01T18:18:49.583Z,,0,,,NaN,,,,,,false,,,,458503.799999997,458503.1000000015,,458503,,458531.156,8,400,,,
sequence,flow.Sequence,4_98,2023-11-01T18:18:49.583Z,,0,,,4671.756000001507,completion,,,,,false,,,,458504.1000000015,458503.1000000015,453798.012,453809.200000003,453831.344,458531.156,8,400,,,
trial,html.Screen,4_99_0,2023-11-01T18:18:52.308Z,,0,2,,2698.044000002963,response,ISIC_1601784.JPG,5,ISIC_0031214.JPG,ISIC_1601784.JPG,false,1,keypress(m),500,461229.200000003,461229.200000003,458497.824,458504.299999997,458531.156,461247.714,8,400,50,,ISIC_0031214.JPG
break,html.Screen,4_99_1,2023-11-01T18:19:02.296Z,,0,,,9999.862000000023,timeout,,,,,false,,,,471216.200000003,471214.244,461214.382,461229.3999999985,461247.714,471247.576,8,400,,,
break_continue,html.Screen,4_99_2,2023-11-01T18:19:22.697Z,,0,,,20351.424,response,,,,,false,continue,keypress(Space),,491617.299999997,491599,471214.244,471216.299999997,471247.576,491647.542,8,400,,,
sequence,flow.Sequence,4_99,2023-11-01T18:19:22.697Z,,0,,,33067.84399999998,completion,,,,,false,,,,491617.5,491599,458497.824,458504.299999997,458531.156,491647.542,8,400,,,
trial,html.Screen,4_100_0,2023-11-01T18:19:26.238Z,,0,3,,3510.0580000014743,response,ISIC_1615485.JPG,8,ISIC_7369312.JPG,ISIC_1615485.JPG,false,1,keypress(m),500,495157.799999997,495157.6000000015,491613.428,491617.6000000015,491647.542,495180.734,8,400,1,,ISIC_7369312.JPG
break,html.Screen,4_100_1,2023-11-01T18:19:26.238Z,,0,,,NaN,,,,,,false,,,,495158.3999999985,495158.200000003,,495158,,495180.734,8,400,,,
break_continue,html.Screen,4_100_2,2023-11-01T18:19:26.239Z,,0,,,NaN,,,,,,false,,,,495158.799999997,495158.700000003,,495158.6000000015,,495180.734,8,400,,,
sequence,flow.Sequence,4_100,2023-11-01T18:19:26.239Z,,0,,,3511.1580000029644,completion,,,,,false,,,,495158.8999999985,495158.700000003,491613.428,491617.6000000015,491647.542,495180.734,8,400,,,
trial,html.Screen,4_101_0,2023-11-01T18:19:29.106Z,,0,3,,2845.3660000014934,response,ISIC_7779155.JPG,6,ISIC_0011505.JPG,ISIC_7779155.JPG,false,1,keypress(m),500,498026.3999999985,498026.1000000015,495147.402,495159,495180.734,498047.286,8,400,2,,ISIC_0011505.JPG
break,html.Screen,4_101_1,2023-11-01T18:19:29.107Z,,0,,,NaN,,,,,,false,,,,498027,498026.8999999985,,498026.5,,498047.286,8,400,,,
break_continue,html.Screen,4_101_2,2023-11-01T18:19:29.107Z,,0,,,NaN,,,,,,false,,,,498027.200000003,498027.200000003,,498027.1000000015,,498047.286,8,400,,,
sequence,flow.Sequence,4_101,2023-11-01T18:19:29.107Z,,0,,,2846.4660000029835,completion,,,,,false,,,,498027.299999997,498027.200000003,495147.402,495159,495180.734,498047.286,8,400,,,
trial,html.Screen,4_102_0,2023-11-01T18:19:31.980Z,,0,3,,2852.513999996998,response,ISIC_8253326.JPG,5,ISIC_0034268.JPG,ISIC_8253326.JPG,false,1,keypress(m),500,500899.8999999985,500899.799999997,498013.954,498027.3999999985,498047.286,500930.504,8,400,3,,ISIC_0034268.JPG
break,html.Screen,4_102_1,2023-11-01T18:19:31.980Z,,0,,,NaN,,,,,,false,,,,500900.5,500900.299999997,,500900,,500930.504,8,400,,,
break_continue,html.Screen,4_102_2,2023-11-01T18:19:31.981Z,,0,,,NaN,,,,,,false,,,,500900.799999997,500900.700000003,,500900.5,,500930.504,8,400,,,
sequence,flow.Sequence,4_102,2023-11-01T18:19:31.981Z,,0,,,2853.4140000029583,completion,,,,,false,,,,500901,500900.700000003,498013.954,498027.3999999985,498047.286,500930.504,8,400,,,
trial,html.Screen,4_103_0,2023-11-01T18:19:34.722Z,,0,3,,2711.696000002965,response,ISIC_0032072.JPG,8,ISIC_8504492.JPG,ISIC_8504492.JPG,false,0,keypress(z),500,503642.5,503642.200000003,500897.172,500901,500930.504,503663.998,8,400,4,,ISIC_0032072.JPG
break,html.Screen,4_103_1,2023-11-01T18:19:34.723Z,,0,,,NaN,,,,,,false,,,,503643,503642.8999999985,,503642.6000000015,,503663.998,8,400,,,
break_continue,html.Screen,4_103_2,2023-11-01T18:19:34.723Z,,0,,,NaN,,,,,,false,,,,503643.1000000015,503643.1000000015,,503643,,503663.998,8,400,,,
sequence,flow.Sequence,4_103,2023-11-01T18:19:34.723Z,,0,,,2712.5960000014747,completion,,,,,false,,,,503643.200000003,503643.1000000015,500897.172,500901,500930.504,503663.998,8,400,,,
trial,html.Screen,4_104_0,2023-11-01T18:19:37.398Z,,0,3,,2652.702000002959,response,ISIC_3824206.JPG,5,ISIC_9699238.JPG,ISIC_9699238.JPG,false,0,keypress(z),500,506317.799999997,506316.700000003,503630.666,503643.299999997,503663.998,506347.224,8,400,5,,ISIC_3824206.JPG
break,html.Screen,4_104_1,2023-11-01T18:19:37.398Z,,0,,,NaN,,,,,,false,,,,506318.200000003,506318,,506317.799999997,,506347.224,8,400,,,
break_continue,html.Screen,4_104_2,2023-11-01T18:19:37.398Z,,0,,,NaN,,,,,,false,,,,506318.5,506318.3999999985,,506318.299999997,,506347.224,8,400,,,
sequence,flow.Sequence,4_104,2023-11-01T18:19:37.399Z,,0,,,2654.4019999984885,completion,,,,,false,,,,506318.6000000015,506318.3999999985,503630.666,503643.299999997,503663.998,506347.224,8,400,,,
trial,html.Screen,4_105_0,2023-11-01T18:19:40.318Z,,0,3,,2890.5759999970323,response,ISIC_0033968.JPG,5,ISIC_4372519.JPG,ISIC_4372519.JPG,false,0,keypress(z),500,509238,509237.799999997,506313.892,506318.700000003,506347.224,509263.774,8,400,6,,ISIC_0033968.JPG
break,html.Screen,4_105_1,2023-11-01T18:19:40.318Z,,0,,,NaN,,,,,,false,,,,509238.3999999985,509238.200000003,,509238,,509263.774,8,400,,,
break_continue,html.Screen,4_105_2,2023-11-01T18:19:40.318Z,,0,,,NaN,,,,,,false,,,,509238.6000000015,509238.3999999985,,509238.3999999985,,509263.774,8,400,,,
sequence,flow.Sequence,4_105,2023-11-01T18:19:40.319Z,,0,,,2891.1759999985225,completion,,,,,false,,,,509238.700000003,509238.3999999985,506313.892,506318.6000000015,506347.224,509263.774,8,400,,,
trial,html.Screen,4_106_0,2023-11-01T18:19:44.039Z,,0,3,,3694.726000000024,response,ISIC_3787339.JPG,7,ISIC_3671963.JPG,ISIC_3671963.JPG,false,0,keypress(z),500,512958.700000003,512958.5,509230.442,509238.700000003,509263.774,512980.568,8,400,7,,ISIC_3787339.JPG
break,html.Screen,4_106_1,2023-11-01T18:19:44.039Z,,0,,,NaN,,,,,,false,,,,512959.1000000015,512959,,512958.799999997,,512980.568,8,400,,,
break_continue,html.Screen,4_106_2,2023-11-01T18:19:44.039Z,,0,,,NaN,,,,,,false,,,,512959.3999999985,512959.3999999985,,512959.3999999985,,512980.568,8,400,,,
sequence,flow.Sequence,4_106,2023-11-01T18:19:44.040Z,,0,,,3695.625999998534,completion,,,,,false,,,,512959.700000003,512959.3999999985,509230.442,509238.700000003,509263.774,512980.568,8,400,,,
trial,html.Screen,4_107_0,2023-11-01T18:19:48.106Z,,0,3,,4045.4319999999716,response,ISIC_1226882.JPG,6,ISIC_0059303.JPG,ISIC_1226882.JPG,false,1,keypress(m),500,517026.299999997,517026,512947.236,512959.799999997,512980.568,517047.072,8,400,8,,ISIC_0059303.JPG
break,html.Screen,4_107_1,2023-11-01T18:19:48.107Z,,0,,,NaN,,,,,,false,,,,517027,517026.799999997,,517026.5,,517047.072,8,400,,,
break_continue,html.Screen,4_107_2,2023-11-01T18:19:48.107Z,,0,,,NaN,,,,,,false,,,,517027.3999999985,517027.299999997,,517027.200000003,,517047.072,8,400,,,
sequence,flow.Sequence,4_107,2023-11-01T18:19:48.108Z,,0,,,4046.7319999969914,completion,,,,,false,,,,517027.5,517027.299999997,512947.236,512959.799999997,512980.568,517047.072,8,400,,,
trial,html.Screen,4_108_0,2023-11-01T18:19:50.771Z,,0,3,,2643.8279999985243,response,ISIC_0061685.JPG,8,ISIC_4938791.JPG,ISIC_4938791.JPG,false,0,keypress(z),500,519691,519690.8999999985,517013.74,517027.5,517047.072,519713.632,8,400,9,,ISIC_0061685.JPG
break,html.Screen,4_108_1,2023-11-01T18:19:50.772Z,,0,,,NaN,,,,,,false,,,,519691.5,519691.299999997,,519691.1000000015,,519713.632,8,400,,,
break_continue,html.Screen,4_108_2,2023-11-01T18:19:50.772Z,,0,,,NaN,,,,,,false,,,,519691.700000003,519691.6000000015,,519691.6000000015,,519713.632,8,400,,,
sequence,flow.Sequence,4_108,2023-11-01T18:19:50.772Z,,0,,,2644.5280000015046,completion,,,,,false,,,,519691.799999997,519691.6000000015,517013.74,517027.5,517047.072,519713.632,8,400,,,
trial,html.Screen,4_109_0,2023-11-01T18:19:53.430Z,,0,3,,2635.6679999970365,response,ISIC_0031883.JPG,6,ISIC_8906583.JPG,ISIC_8906583.JPG,false,0,keypress(z),500,522349.799999997,522349.299999997,519680.3,519691.799999997,519713.632,522380.192,8,400,10,,ISIC_0031883.JPG
break,html.Screen,4_109_1,2023-11-01T18:19:53.431Z,,0,,,NaN,,,,,,false,,,,522350.700000003,522350.6000000015,,522350,,522380.192,8,400,,,
break_continue,html.Screen,4_109_2,2023-11-01T18:19:53.431Z,,0,,,NaN,,,,,,false,,,,522350.8999999985,522350.799999997,,522350.700000003,,522380.192,8,400,,,
sequence,flow.Sequence,4_109,2023-11-01T18:19:53.431Z,,0,,,2637.1679999970365,completion,,,,,false,,,,522351,522350.799999997,519680.3,519691.799999997,519713.632,522380.192,8,400,,,
trial,html.Screen,4_110_0,2023-11-01T18:19:56.233Z,,0,3,,2772.607999997039,response,ISIC_1390308.JPG,7,ISIC_0990298.JPG,ISIC_1390308.JPG,false,1,keypress(m),500,525153,525152.799999997,522346.86,522351.1000000015,522380.192,525180.351,8,400,11,,ISIC_0990298.JPG
break,html.Screen,4_110_1,2023-11-01T18:19:56.234Z,,0,,,NaN,,,,,,false,,,,525153.5,525153.299999997,,525153.1000000015,,525180.351,8,400,,,
break_continue,html.Screen,4_110_2,2023-11-01T18:19:56.234Z,,0,,,NaN,,,,,,false,,,,525153.799999997,525153.6000000015,,525153.6000000015,,525180.351,8,400,,,
sequence,flow.Sequence,4_110,2023-11-01T18:19:56.234Z,,0,,,2773.408000001509,completion,,,,,false,,,,525153.799999997,525153.6000000015,522346.86,522351.1000000015,522380.192,525180.351,8,400,,,
trial,html.Screen,4_111_0,2023-11-01T18:19:59.468Z,,0,3,,3206.749000001466,response,ISIC_7235128.JPG,5,ISIC_0010734.JPG,ISIC_0010734.JPG,false,0,keypress(z),500,528387.299999997,528387.1000000015,525147.019,525153.8999999985,525180.351,528413.555,8,400,12,,ISIC_7235128.JPG
break,html.Screen,4_111_1,2023-11-01T18:19:59.468Z,,0,,,NaN,,,,,,false,,,,528388,528387.799999997,,528387.6000000015,,528413.555,8,400,,,
break_continue,html.Screen,4_111_2,2023-11-01T18:19:59.469Z,,0,,,NaN,,,,,,false,,,,528388.3999999985,528388.299999997,,528388.1000000015,,528413.555,8,400,,,
sequence,flow.Sequence,4_111,2023-11-01T18:19:59.469Z,,0,,,3207.9489999969956,completion,,,,,false,,,,528388.6000000015,528388.299999997,525147.019,525153.8999999985,525180.351,528413.555,8,400,,,
trial,html.Screen,4_112_0,2023-11-01T18:20:02.551Z,,0,3,,3056.444999999949,response,ISIC_0058851.JPG,7,ISIC_6463417.JPG,ISIC_6463417.JPG,false,0,keypress(z),500,531470.3999999985,531470,528380.223,528388.6000000015,528413.555,531496.765,8,400,13,,ISIC_0058851.JPG
break,html.Screen,4_112_1,2023-11-01T18:20:02.552Z,,0,,,NaN,,,,,,false,,,,531471.3999999985,531471.200000003,,531470.700000003,,531496.765,8,400,,,
break_continue,html.Screen,4_112_2,2023-11-01T18:20:02.552Z,,0,,,NaN,,,,,,false,,,,531471.799999997,531471.799999997,,531471.5,,531496.765,8,400,,,
sequence,flow.Sequence,4_112,2023-11-01T18:20:02.552Z,,0,,,3058.2449999969685,completion,,,,,false,,,,531472,531471.799999997,528380.223,528388.6000000015,528413.555,531496.765,8,400,,,
trial,html.Screen,4_113_0,2023-11-01T18:20:05.292Z,,0,3,,2714.835000001476,response,ISIC_0061184.JPG,7,ISIC_5122220.JPG,ISIC_5122220.JPG,false,0,keypress(z),500,534211.799999997,534211.6000000015,531463.433,531472.1000000015,531496.765,534263.586,8,400,14,,ISIC_0061184.JPG
break,html.Screen,4_113_1,2023-11-01T18:20:05.293Z,,0,,,NaN,,,,,,false,,,,534212.5,534212.200000003,,534211.8999999985,,534263.586,8,400,,,
break_continue,html.Screen,4_113_2,2023-11-01T18:20:05.294Z,,0,,,NaN,,,,,,false,,,,534213.299999997,534213.200000003,,534212.8999999985,,534263.586,8,400,,,
sequence,flow.Sequence,4_113,2023-11-01T18:20:05.294Z,,0,,,2716.4350000029663,completion,,,,,false,,,,534213.799999997,534213.200000003,531463.433,531472.1000000015,531496.765,534263.586,8,400,,,
trial,html.Screen,4_114_0,2023-11-01T18:20:08.614Z,,0,3,,3269.8139999984996,response,ISIC_0010068.JPG,6,ISIC_0073086.JPG,ISIC_0073086.JPG,false,0,keypress(z),500,537533.700000003,537533.3999999985,534230.254,534214.3999999985,534263.586,537563.454,8,400,15,,ISIC_0010068.JPG
break,html.Screen,4_114_1,2023-11-01T18:20:08.615Z,,0,,,NaN,,,,,,false,,,,537534.5,537534.299999997,,537534.1000000015,,537563.454,8,400,,,
break_continue,html.Screen,4_114_2,2023-11-01T18:20:08.615Z,,0,,,NaN,,,,,,false,,,,537535,537534.8999999985,,537534.700000003,,537563.454,8,400,,,
sequence,flow.Sequence,4_114,2023-11-01T18:20:08.616Z,,0,,,3271.3139999984996,completion,,,,,false,,,,537535.1000000015,537534.8999999985,534230.254,534214.299999997,534263.586,537563.454,8,400,,,
trial,html.Screen,4_115_0,2023-11-01T18:20:14.524Z,,0,3,,5879.646000001463,response,ISIC_0056811.JPG,7,ISIC_9462979.JPG,ISIC_9462979.JPG,false,0,keypress(z),500,543443.299999997,543443.1000000015,537530.122,537535.200000003,537563.454,543463.492,8,400,16,,ISIC_0056811.JPG
break,html.Screen,4_115_1,2023-11-01T18:20:14.524Z,,0,,,NaN,,,,,,false,,,,543443.8999999985,543443.6000000015,,543443.3999999985,,543463.492,8,400,,,
break_continue,html.Screen,4_115_2,2023-11-01T18:20:14.525Z,,0,,,NaN,,,,,,false,,,,543444.299999997,543444.1000000015,,543444.1000000015,,543463.492,8,400,,,
sequence,flow.Sequence,4_115,2023-11-01T18:20:14.525Z,,0,,,5880.646000001463,completion,,,,,false,,,,543444.3999999985,543444.1000000015,537530.122,537535.200000003,537563.454,543463.492,8,400,,,
trial,html.Screen,4_116_0,2023-11-01T18:20:17.696Z,,0,3,,3152.0080000000307,response,ISIC_0063715.JPG,7,ISIC_9913573.JPG,ISIC_9913573.JPG,false,0,keypress(z),500,546615.799999997,546615.5,543429.886,543444.3999999985,543463.492,546646.698,8,400,17,,ISIC_0063715.JPG
break,html.Screen,4_116_1,2023-11-01T18:20:17.697Z,,0,,,NaN,,,,,,false,,,,546616.5,546616.299999997,,546616.1000000015,,546646.698,8,400,,,
break_continue,html.Screen,4_116_2,2023-11-01T18:20:17.697Z,,0,,,NaN,,,,,,false,,,,546616.799999997,546616.700000003,,546616.6000000015,,546646.698,8,400,,,
sequence,flow.Sequence,4_116,2023-11-01T18:20:17.697Z,,0,,,3153.208000003011,completion,,,,,false,,,,546616.799999997,546616.700000003,543429.886,543444.3999999985,543463.492,546646.698,8,400,,,
trial,html.Screen,4_117_0,2023-11-01T18:20:20.820Z,,0,3,,3092.0020000030054,response,ISIC_4810500.JPG,6,ISIC_5191344.JPG,ISIC_4810500.JPG,false,1,keypress(m),500,549739.299999997,549738.700000003,546613.366,546616.8999999985,546646.698,549763.24,8,400,18,,ISIC_5191344.JPG
break,html.Screen,4_117_1,2023-11-01T18:20:20.821Z,,0,,,NaN,,,,,,false,,,,549740,549739.799999997,,549739.700000003,,549763.24,8,400,,,
break_continue,html.Screen,4_117_2,2023-11-01T18:20:20.821Z,,0,,,NaN,,,,,,false,,,,549740.200000003,549740.1000000015,,549740,,549763.24,8,400,,,
sequence,flow.Sequence,4_117,2023-11-01T18:20:20.821Z,,0,,,3093.4020000015153,completion,,,,,false,,,,549740.200000003,549740.1000000015,546613.366,546616.8999999985,546646.698,549763.24,8,400,,,
trial,html.Screen,4_118_0,2023-11-01T18:20:24.397Z,,0,3,,3552.659999998519,response,ISIC_3744940.JPG,6,ISIC_5624273.JPG,ISIC_3744940.JPG,false,1,keypress(m),500,553316.1000000015,553315.8999999985,549729.908,549740.3999999985,549763.24,553346.43,8,400,19,,ISIC_5624273.JPG
break,html.Screen,4_118_1,2023-11-01T18:20:24.397Z,,0,,,NaN,,,,,,false,,,,553316.700000003,553316.5,,553316.299999997,,553346.43,8,400,,,
break_continue,html.Screen,4_118_2,2023-11-01T18:20:24.398Z,,0,,,NaN,,,,,,false,,,,553316.8999999985,553316.799999997,,553316.700000003,,553346.43,8,400,,,
sequence,flow.Sequence,4_118,2023-11-01T18:20:24.398Z,,0,,,3553.559999997029,completion,,,,,false,,,,553317.1000000015,553316.799999997,549729.908,549740.299999997,549763.24,553346.43,8,400,,,
trial,html.Screen,4_119_0,2023-11-01T18:20:28.294Z,,0,3,,3866.569999999949,response,ISIC_3475660.JPG,5,ISIC_0011917.JPG,ISIC_0011917.JPG,false,0,keypress(z),500,557213.299999997,557213,553313.098,553317.1000000015,553346.43,557246.536,8,400,20,,ISIC_3475660.JPG
break,html.Screen,4_119_1,2023-11-01T18:20:28.295Z,,0,,,NaN,,,,,,false,,,,557214.3999999985,557214,,557213.700000003,,557246.536,8,400,,,
break_continue,html.Screen,4_119_2,2023-11-01T18:20:28.296Z,,0,,,NaN,,,,,,false,,,,557215.299999997,557214.6000000015,,557214.5,,557246.536,8,400,,,
sequence,flow.Sequence,4_119,2023-11-01T18:20:28.296Z,,0,,,3868.170000001439,completion,,,,,false,,,,557215.3999999985,557214.6000000015,553313.098,553317.1000000015,553346.43,557246.536,8,400,,,
trial,html.Screen,4_120_0,2023-11-01T18:20:31.850Z,,0,3,,3522.263999997056,response,ISIC_3585381.JPG,8,ISIC_9728003.JPG,ISIC_9728003.JPG,false,0,keypress(z),500,560769,560768.799999997,557213.204,557215.5,557246.536,560796.394,8,400,21,,ISIC_3585381.JPG
break,html.Screen,4_120_1,2023-11-01T18:20:31.850Z,,0,,,NaN,,,,,,false,,,,560769.3999999985,560769.299999997,,560769.1000000015,,560796.394,8,400,,,
break_continue,html.Screen,4_120_2,2023-11-01T18:20:31.850Z,,0,,,NaN,,,,,,false,,,,560769.6000000015,560769.5,,560769.5,,560796.394,8,400,,,
sequence,flow.Sequence,4_120,2023-11-01T18:20:31.851Z,,0,,,3522.9640000000363,completion,,,,,false,,,,560769.700000003,560769.5,557213.204,557215.3999999985,557246.536,560796.394,8,400,,,
trial,html.Screen,4_121_0,2023-11-01T18:20:39.892Z,,0,3,,8014.606000000029,response,ISIC_3971712.JPG,7,ISIC_7108282.JPG,ISIC_7108282.JPG,false,0,keypress(z),500,568811.200000003,568811,560763.062,560769.799999997,560796.394,568829.763,8,400,22,,ISIC_3971712.JPG
break,html.Screen,4_121_1,2023-11-01T18:20:39.893Z,,0,,,NaN,,,,,,false,,,,568812,568811.799999997,,568811.5,,568829.763,8,400,,,
break_continue,html.Screen,4_121_2,2023-11-01T18:20:39.893Z,,0,,,NaN,,,,,,false,,,,568812.3999999985,568812.3999999985,,568812.299999997,,568829.763,8,400,,,
sequence,flow.Sequence,4_121,2023-11-01T18:20:39.894Z,,0,,,8016.005999998539,completion,,,,,false,,,,568812.6000000015,568812.3999999985,560763.062,560769.799999997,560796.394,568829.763,8,400,,,
trial,html.Screen,4_122_0,2023-11-01T18:20:43.039Z,,0,3,,3127.937000002945,response,ISIC_0016014.JPG,5,ISIC_0032780.JPG,ISIC_0016014.JPG,false,1,keypress(m),500,571958,571957.700000003,568796.431,568812.700000003,568829.763,571979.637,8,400,23,,ISIC_0032780.JPG
break,html.Screen,4_122_1,2023-11-01T18:20:43.040Z,,0,,,NaN,,,,,,false,,,,571959.5,571959.1000000015,,571958.1000000015,,571979.637,8,400,,,
break_continue,html.Screen,4_122_2,2023-11-01T18:20:43.041Z,,0,,,NaN,,,,,,false,,,,571959.799999997,571959.6000000015,,571959.6000000015,,571979.637,8,400,,,
sequence,flow.Sequence,4_122,2023-11-01T18:20:43.041Z,,0,,,3129.8370000014547,completion,,,,,false,,,,571960,571959.6000000015,568796.431,568812.700000003,568829.763,571979.637,8,400,,,
trial,html.Screen,4_123_0,2023-11-01T18:20:49.028Z,,0,3,,5966.662999997032,response,ISIC_1146341.JPG,7,ISIC_8281208.JPG,ISIC_8281208.JPG,false,0,keypress(z),500,577946.5,577946.299999997,571946.305,571960.1000000015,571979.637,577979.667,8,400,24,,ISIC_1146341.JPG
break,html.Screen,4_123_1,2023-11-01T18:20:49.028Z,,0,,,NaN,,,,,,false,,,,577946.8999999985,577946.799999997,,577946.6000000015,,577979.667,8,400,,,
break_continue,html.Screen,4_123_2,2023-11-01T18:20:49.029Z,,0,,,NaN,,,,,,false,,,,577947.6000000015,577947.200000003,,577947.200000003,,577979.667,8,400,,,
sequence,flow.Sequence,4_123,2023-11-01T18:20:49.030Z,,0,,,5967.563000002992,completion,,,,,false,,,,577948.5,577947.200000003,571946.305,571960.1000000015,571979.637,577979.667,8,400,,,
trial,html.Screen,4_124_0,2023-11-01T18:20:51.611Z,,0,3,,2549.832999999984,response,ISIC_6995731.JPG,5,ISIC_0026266.JPG,ISIC_6995731.JPG,false,1,keypress(m),500,580529.700000003,580529.5,577946.335,577948.700000003,577979.667,580562.897,8,400,25,,ISIC_0026266.JPG
break,html.Screen,4_124_1,2023-11-01T18:20:51.611Z,,0,,,NaN,,,,,,false,,,,580530.299999997,580530.1000000015,,580529.799999997,,580562.897,8,400,,,
break_continue,html.Screen,4_124_2,2023-11-01T18:20:51.612Z,,0,,,NaN,,,,,,false,,,,580530.8999999985,580530.6000000015,,580530.5,,580562.897,8,400,,,
sequence,flow.Sequence,4_124,2023-11-01T18:20:51.612Z,,0,,,2550.9330000014743,completion,,,,,false,,,,580531.1000000015,580530.6000000015,577946.335,577948.700000003,577979.667,580562.897,8,400,,,
trial,html.Screen,4_125_0,2023-11-01T18:20:55.889Z,,0,3,,4243.902999997023,response,ISIC_8435105.JPG,5,ISIC_6358752.JPG,ISIC_8435105.JPG,false,1,keypress(m),500,584807.3999999985,584806.799999997,580529.565,580531.200000003,580562.897,584829.393,8,400,26,,ISIC_6358752.JPG
break,html.Screen,4_125_1,2023-11-01T18:20:55.889Z,,0,,,NaN,,,,,,false,,,,584807.799999997,584807.799999997,,584807.5,,584829.393,8,400,,,
break_continue,html.Screen,4_125_2,2023-11-01T18:20:55.889Z,,0,,,NaN,,,,,,false,,,,584808,584807.8999999985,,584807.8999999985,,584829.393,8,400,,,
sequence,flow.Sequence,4_125,2023-11-01T18:20:55.889Z,,0,,,4245.002999998513,completion,,,,,false,,,,584808.200000003,584807.8999999985,580529.565,580531.1000000015,580562.897,584829.393,8,400,,,
trial,html.Screen,4_126_0,2023-11-01T18:20:58.885Z,,0,3,,2973.9069999969797,response,ISIC_2146346.JPG,5,ISIC_0030829.JPG,ISIC_0030829.JPG,false,0,keypress(z),500,587803.6000000015,587803.299999997,584796.061,584808.299999997,584829.393,587829.273,8,400,27,,ISIC_2146346.JPG
break,html.Screen,4_126_1,2023-11-01T18:20:58.885Z,,0,,,NaN,,,,,,false,,,,587804.200000003,587803.8999999985,,587803.700000003,,587829.273,8,400,,,
break_continue,html.Screen,4_126_2,2023-11-01T18:20:58.886Z,,0,,,NaN,,,,,,false,,,,587804.3999999985,587804.299999997,,587804.200000003,,587829.273,8,400,,,
