sender,sender_type,sender_id,timestamp,meta,,blockNo,condition,duration,ended_on,img_left,img_reveal,img_right,loser,practice,response,response_action,selection_duration,time_commit,time_end,time_render,time_run,time_show,time_switch,total_blocks,total_trials,trialNo,url,winner
informed_consent,html.Screen,0,2023-10-31T00:02:33.390Z,"{""labjs_version"":""20.2.4"",""labjs_build"":{""flavor"":""production"",""commit"":""f5b4a49f956347addd546a832a3327688c2c0fef""},""location"":""https://run.pavlovia.org/MurrayBennett/melanoma-2afc/?participant=67069&platform=sona"",""userAgent"":""Mozilla/5.0 (Macintosh; Intel Mac OS X 10_15_7) AppleWebKit/537.36 (KHTML, like Gecko) Chrome/116.0.0.0 Safari/537.36"",""platform"":""MacIntel"",""language"":""en-US"",""locale"":""en-US"",""timeZone"":""America/Chicago"",""timezoneOffset"":300,""screen_width"":1470,""screen_height"":956,""scroll_width"":1470,""scroll_height"":755,""window_innerWidth"":1470,""window_innerHeight"":803,""devicePixelRatio"":2}",,,,5556.008000047684,response,,,,,,consent,click button,,7023.600000023842,7016.200000047684,1326.864,1466.3999999761581,1460.192,7026.636,,,,"{""participant"":""67069"",""platform"":""sona""}",
Welcome,html.Screen,1,2023-10-31T00:03:02.119Z,,,,uniform,28719.464000023843,response,,,,,,continue,click button,,35753,35746.10000002384,7009.97,7023.899999976158,7026.636,35775.486,,,,,
trial,html.Screen,2_0_0,2023-10-31T00:03:08.589Z,,0,0,,6447.114000023845,response,ISIC_0063388.JPG,,ISIC_0025593.JPG,ISIC_0063388.JPG,true,1,keypress(m),500,42223.200000047684,42222.60000002384,35758.82,35753.299999952316,35775.486,42226.57,1,6,1,,ISIC_0025593.JPG
sequence,flow.Sequence,2_0,2023-10-31T00:03:08.590Z,,0,,,6447.114000023845,completion,,,,,true,,,,42223.700000047684,42222.60000002384,35758.82,35753.200000047684,35775.486,42226.57,1,6,,,
trial,html.Screen,2_1_0,2023-10-31T00:03:12.145Z,,0,0,,3551.8299999761584,response,ISIC_1309015.JPG,,ISIC_0028178.JPG,ISIC_1309015.JPG,true,1,keypress(m),500,45778.799999952316,45778.39999997616,42209.904,42223.89999997616,42226.57,45793.094,1,6,2,,ISIC_0028178.JPG
sequence,flow.Sequence,2_1,2023-10-31T00:03:12.145Z,,0,,,3551.8299999761584,completion,,,,,true,,,,45779.200000047684,45778.39999997616,42209.904,42223.89999997616,42226.57,45793.094,1,6,,,
trial,html.Screen,2_2_0,2023-10-31T00:03:15.542Z,,0,0,,3382.6060000476864,response,ISIC_3314853.JPG,,ISIC_0031128.JPG,ISIC_0031128.JPG,true,0,keypress(z),500,49176.200000047684,49175.700000047684,45776.428,45779.39999997616,45793.094,49193.328,1,6,3,,ISIC_3314853.JPG
sequence,flow.Sequence,2_2,2023-10-31T00:03:15.543Z,,0,,,3382.6060000476864,completion,,,,,true,,,,49176.60000002384,49175.700000047684,45776.428,45779.39999997616,45793.094,49193.328,1,6,,,
trial,html.Screen,2_3_0,2023-10-31T00:03:18.736Z,,0,0,,3176.071999976157,response,ISIC_8980141.JPG,,ISIC_0031612.JPG,ISIC_0031612.JPG,true,0,keypress(z),500,52369.89999997616,52369.39999997616,49176.662,49176.89999997616,49193.328,52376.534,1,6,4,,ISIC_8980141.JPG
sequence,flow.Sequence,2_3,2023-10-31T00:03:18.737Z,,0,,,3176.071999976157,completion,,,,,true,,,,52370.39999997616,52369.39999997616,49176.662,49176.700000047684,49193.328,52376.534,1,6,,,
trial,html.Screen,2_4_0,2023-10-31T00:03:21.475Z,,0,0,,2731.566000023842,response,ISIC_9721604.JPG,,ISIC_1197737.JPG,ISIC_9721604.JPG,true,1,keypress(m),500,55108.700000047684,55108.10000002384,52359.868,52370.700000047684,52376.534,55126.424,1,6,5,,ISIC_1197737.JPG
sequence,flow.Sequence,2_4,2023-10-31T00:03:21.475Z,,0,,,2731.566000023842,completion,,,,,true,,,,55109.10000002384,55108.10000002384,52359.868,52370.60000002384,52376.534,55126.424,1,6,,,
trial,html.Screen,2_5_0,2023-10-31T00:03:25.095Z,,0,0,,3602.2760000476846,response,ISIC_0025346.JPG,,ISIC_0010681.JPG,ISIC_0025346.JPG,true,1,keypress(m),500,58729.200000047684,58728.700000047684,55109.758,55109.39999997616,55126.424,58743.313,1,6,6,,ISIC_0010681.JPG
sequence,flow.Sequence,2_5,2023-10-31T00:03:25.096Z,,0,,,3602.2760000476846,completion,,,,,true,,,,58729.60000002384,58728.700000047684,55109.758,55109.299999952316,55126.424,58743.313,1,6,,,
loop,flow.Loop,2,2023-10-31T00:03:25.096Z,,,,,22953.214000047687,completion,,,,,true,,,,58729.89999997616,58728.700000047684,35758.82,35753.200000047684,35775.486,58743.313,1,6,,,
exp_instructions,html.Screen,3,2023-10-31T00:03:37.203Z,,,,,12087.887000047682,response,,,,,,continue,keypress(Space),,70836.70000004768,70831.20000004768,58726.647,58730,58743.313,70842.829,,,,,
trial,html.Screen,4_0_0,2023-10-31T00:03:41.481Z,,0,1,,4271.371000047686,response,ISIC_0025626.JPG,8,ISIC_0062133.JPG,ISIC_0062133.JPG,false,0,keypress(z),500,75114.60000002384,75114.20000004768,70826.163,70837,70842.829,75126.501,8,400,1,,ISIC_0025626.JPG
break,html.Screen,4_0_1,2023-10-31T00:03:41.482Z,,0,,,NaN,,,,,,false,,,,75115.79999995232,75115.5,,75114.89999997616,,75126.501,8,400,,,
break_continue,html.Screen,4_0_2,2023-10-31T00:03:41.483Z,,0,,,NaN,,,,,,false,,,,75116.29999995232,75116.10000002384,,75116,,75126.501,8,400,,,
sequence,flow.Sequence,4_0,2023-10-31T00:03:41.483Z,,0,,,4273.271000023844,completion,,,,,false,,,,75116.5,75116.10000002384,70826.163,70836.89999997616,70842.829,75126.501,8,400,,,
trial,html.Screen,4_1_0,2023-10-31T00:03:44.654Z,,0,1,,3161.099000023838,response,ISIC_9442018.JPG,8,ISIC_0028915.JPG,ISIC_0028915.JPG,false,0,keypress(z),500,78288,78287.60000002384,75109.835,75116.60000002384,75126.501,78293.041,8,400,2,,ISIC_9442018.JPG
break,html.Screen,4_1_1,2023-10-31T00:03:44.655Z,,0,,,NaN,,,,,,false,,,,78289,78288.79999995232,,78288.29999995232,,78293.041,8,400,,,
break_continue,html.Screen,4_1_2,2023-10-31T00:03:44.657Z,,0,,,NaN,,,,,,false,,,,78290.5,78290.39999997616,,78290.20000004768,,78293.041,8,400,,,
sequence,flow.Sequence,4_1,2023-10-31T00:03:44.657Z,,0,,,3163.8989999761543,completion,,,,,false,,,,78290.70000004768,78290.39999997616,75109.835,75116.60000002384,75126.501,78293.041,8,400,,,
trial,html.Screen,4_2_0,2023-10-31T00:03:47.826Z,,0,1,,3166.258999952319,response,ISIC_3444719.JPG,5,ISIC_3013468.JPG,ISIC_3444719.JPG,false,1,keypress(m),500,81459.70000004768,81459.29999995232,78276.375,78290.70000004768,78293.041,81476.618,8,400,3,,ISIC_3013468.JPG
break,html.Screen,4_2_1,2023-10-31T00:03:47.827Z,,0,,,NaN,,,,,,false,,,,81460.70000004768,81460.39999997616,,81460,,81476.618,8,400,,,
break_continue,html.Screen,4_2_2,2023-10-31T00:03:47.827Z,,0,,,NaN,,,,,,false,,,,81461.10000002384,81460.89999997616,,81460.79999995232,,81476.618,8,400,,,
sequence,flow.Sequence,4_2,2023-10-31T00:03:47.827Z,,0,,,3167.8589999761607,completion,,,,,false,,,,81461.20000004768,81460.89999997616,78276.375,78290.70000004768,78293.041,81476.618,8,400,,,
trial,html.Screen,4_3_0,2023-10-31T00:03:50.944Z,,0,1,,3100.9820000238396,response,ISIC_0000056.JPG,8,ISIC_0025987.JPG,ISIC_0000056.JPG,false,1,keypress(m),500,84578,84577.60000002384,81459.952,81461.29999995232,81476.618,84593.16,8,400,4,,ISIC_0025987.JPG
break,html.Screen,4_3_1,2023-10-31T00:03:50.945Z,,0,,,NaN,,,,,,false,,,,84578.89999997616,84578.79999995232,,84578.29999995232,,84593.16,8,400,,,
break_continue,html.Screen,4_3_2,2023-10-31T00:03:50.945Z,,0,,,NaN,,,,,,false,,,,84579.29999995232,84579.20000004768,,84579,,84593.16,8,400,,,
sequence,flow.Sequence,4_3,2023-10-31T00:03:50.946Z,,0,,,3102.5820000476815,completion,,,,,false,,,,84579.39999997616,84579.20000004768,81459.952,81461.29999995232,81476.618,84593.16,8,400,,,
trial,html.Screen,4_4_0,2023-10-31T00:03:54.164Z,,0,1,,3204.139999952313,response,ISIC_6552552.JPG,7,ISIC_8397011.JPG,ISIC_8397011.JPG,false,0,keypress(z),500,87797.79999995232,87797.29999995232,84576.494,84579.5,84593.16,87809.698,8,400,5,,ISIC_6552552.JPG
break,html.Screen,4_4_1,2023-10-31T00:03:54.165Z,,0,,,NaN,,,,,,false,,,,87798.79999995232,87798.60000002384,,87798,,87809.698,8,400,,,
break_continue,html.Screen,4_4_2,2023-10-31T00:03:54.165Z,,0,,,NaN,,,,,,false,,,,87799.20000004768,87799,,87799,,87809.698,8,400,,,
sequence,flow.Sequence,4_4,2023-10-31T00:03:54.166Z,,0,,,3205.8399999999965,completion,,,,,false,,,,87799.29999995232,87799,84576.494,84579.5,84593.16,87809.698,8,400,,,
trial,html.Screen,4_5_0,2023-10-31T00:03:57.596Z,,0,1,,3419.801999999996,response,ISIC_0029343.JPG,7,ISIC_0032522.JPG,ISIC_0029343.JPG,false,1,keypress(m),500,91229.79999995232,91229.5,87793.032,87799.5,87809.698,91242.894,8,400,6,,ISIC_0032522.JPG
break,html.Screen,4_5_1,2023-10-31T00:03:57.597Z,,0,,,NaN,,,,,,false,,,,91230.79999995232,91230.60000002384,,91230.20000004768,,91242.894,8,400,,,
break_continue,html.Screen,4_5_2,2023-10-31T00:03:57.597Z,,0,,,NaN,,,,,,false,,,,91231.20000004768,91231.10000002384,,91231,,91242.894,8,400,,,
sequence,flow.Sequence,4_5,2023-10-31T00:03:57.598Z,,0,,,3421.402000023838,completion,,,,,false,,,,91231.39999997616,91231.10000002384,87793.032,87799.39999997616,87809.698,91242.894,8,400,,,
trial,html.Screen,4_6_0,2023-10-31T00:04:02.083Z,,0,1,,4473.706000023842,response,ISIC_5353986.JPG,8,ISIC_8249854.JPG,ISIC_8249854.JPG,false,0,keypress(z),500,95717,95716.60000002384,91226.228,91231.5,91242.894,95726.395,8,400,7,,ISIC_5353986.JPG
break,html.Screen,4_6_1,2023-10-31T00:04:02.084Z,,0,,,NaN,,,,,,false,,,,95717.89999997616,95717.70000004768,,95717.29999995232,,95726.395,8,400,,,
break_continue,html.Screen,4_6_2,2023-10-31T00:04:02.084Z,,0,,,NaN,,,,,,false,,,,95718.29999995232,95718.20000004768,,95718.10000002384,,95726.395,8,400,,,
sequence,flow.Sequence,4_6,2023-10-31T00:04:02.085Z,,0,,,4475.3060000476835,completion,,,,,false,,,,95718.5,95718.20000004768,91226.228,91231.39999997616,91242.894,95726.395,8,400,,,
trial,html.Screen,4_7_0,2023-10-31T00:04:05.402Z,,0,1,,3309.404999952312,response,ISIC_0011715.JPG,8,ISIC_6299036.JPG,ISIC_6299036.JPG,false,0,keypress(z),500,99036.29999995232,99035.79999995232,95709.729,95718.5,95726.395,99042.929,8,400,8,,ISIC_0011715.JPG
break,html.Screen,4_7_1,2023-10-31T00:04:05.403Z,,0,,,NaN,,,,,,false,,,,99037.20000004768,99037,,99036.5,,99042.929,8,400,,,
break_continue,html.Screen,4_7_2,2023-10-31T00:04:05.404Z,,0,,,NaN,,,,,,false,,,,99037.5,99037.39999997616,,99037.39999997616,,99042.929,8,400,,,
sequence,flow.Sequence,4_7,2023-10-31T00:04:05.404Z,,0,,,3311.004999976154,completion,,,,,false,,,,99037.70000004768,99037.39999997616,95709.729,95718.5,95726.395,99042.929,8,400,,,
trial,html.Screen,4_8_0,2023-10-31T00:04:08.338Z,,0,1,,2927.9709999761544,response,ISIC_0013530.JPG,5,ISIC_0031829.JPG,ISIC_0013530.JPG,false,1,keypress(m),500,101971.39999997616,101970.89999997616,99026.263,99037.89999997616,99042.929,101976.527,8,400,9,,ISIC_0031829.JPG
break,html.Screen,4_8_1,2023-10-31T00:04:08.339Z,,0,,,NaN,,,,,,false,,,,101972.39999997616,101972.10000002384,,101971.60000002384,,101976.527,8,400,,,
break_continue,html.Screen,4_8_2,2023-10-31T00:04:08.339Z,,0,,,NaN,,,,,,false,,,,101972.70000004768,101972.60000002384,,101972.5,,101976.527,8,400,,,
sequence,flow.Sequence,4_8,2023-10-31T00:04:08.339Z,,0,,,2929.671000023838,completion,,,,,false,,,,101972.89999997616,101972.60000002384,99026.263,99037.70000004768,99042.929,101976.527,8,400,,,
trial,html.Screen,4_9_0,2023-10-31T00:04:11.720Z,,0,1,,3376.8729999761563,response,ISIC_8851038.JPG,7,ISIC_9955163.JPG,ISIC_9955163.JPG,false,0,keypress(z),500,105353.89999997616,105353.39999997616,101959.861,101973,101976.527,105359.725,8,400,10,,ISIC_8851038.JPG
break,html.Screen,4_9_1,2023-10-31T00:04:11.721Z,,0,,,NaN,,,,,,false,,,,105354.79999995232,105354.60000002384,,105354.10000002384,,105359.725,8,400,,,
break_continue,html.Screen,4_9_2,2023-10-31T00:04:11.721Z,,0,,,NaN,,,,,,false,,,,105355.10000002384,105355,,105354.89999997616,,105359.725,8,400,,,
sequence,flow.Sequence,4_9,2023-10-31T00:04:11.722Z,,0,,,3378.472999999998,completion,,,,,false,,,,105355.29999995232,105355,101959.861,101973,101976.527,105359.725,8,400,,,
trial,html.Screen,4_10_0,2023-10-31T00:04:14.617Z,,0,1,,2890.975000047678,response,ISIC_0281291.JPG,8,ISIC_0056608.JPG,ISIC_0281291.JPG,false,1,keypress(m),500,108251.10000002384,108250.70000004768,105343.059,105355.39999997616,105359.725,108259.609,8,400,11,,ISIC_0056608.JPG
break,html.Screen,4_10_1,2023-10-31T00:04:14.618Z,,0,,,NaN,,,,,,false,,,,108252,108251.79999995232,,108251.39999997616,,108259.609,8,400,,,
break_continue,html.Screen,4_10_2,2023-10-31T00:04:14.619Z,,0,,,NaN,,,,,,false,,,,108252.5,108252.39999997616,,108252.20000004768,,108259.609,8,400,,,
sequence,flow.Sequence,4_10,2023-10-31T00:04:14.619Z,,0,,,2892.6749999761523,completion,,,,,false,,,,108252.60000002384,108252.39999997616,105343.059,105355.39999997616,105359.725,108259.609,8,400,,,
trial,html.Screen,4_11_0,2023-10-31T00:04:24.598Z,,0,1,,9971.19099995232,response,ISIC_6707990.JPG,7,ISIC_8414396.JPG,ISIC_6707990.JPG,false,1,keypress(m),500,118231.20000004768,118230.79999995232,108242.943,108252.70000004768,108259.609,118259.571,8,400,12,,ISIC_8414396.JPG
break,html.Screen,4_11_1,2023-10-31T00:04:24.598Z,,0,,,NaN,,,,,,false,,,,118232.20000004768,118232.10000002384,,118231.60000002384,,118259.571,8,400,,,
break_continue,html.Screen,4_11_2,2023-10-31T00:04:24.599Z,,0,,,NaN,,,,,,false,,,,118232.60000002384,118232.5,,118232.39999997616,,118259.571,8,400,,,
sequence,flow.Sequence,4_11,2023-10-31T00:04:24.599Z,,0,,,9972.891000000003,completion,,,,,false,,,,118232.79999995232,118232.5,108242.943,108252.70000004768,108259.609,118259.571,8,400,,,
trial,html.Screen,4_12_0,2023-10-31T00:04:29.996Z,,0,1,,5369.629000047687,response,ISIC_0068460.JPG,8,ISIC_7484771.JPG,ISIC_7484771.JPG,false,0,keypress(z),500,123629.5,123629.20000004768,118242.905,118232.79999995232,118259.571,123643.095,8,400,13,,ISIC_0068460.JPG
break,html.Screen,4_12_1,2023-10-31T00:04:29.997Z,,0,,,NaN,,,,,,false,,,,123630.5,123630.29999995232,,123629.79999995232,,123643.095,8,400,,,
break_continue,html.Screen,4_12_2,2023-10-31T00:04:29.997Z,,0,,,NaN,,,,,,false,,,,123630.89999997616,123630.79999995232,,123630.70000004768,,123643.095,8,400,,,
sequence,flow.Sequence,4_12,2023-10-31T00:04:29.997Z,,0,,,5371.22899995232,completion,,,,,false,,,,123631.10000002384,123630.79999995232,118242.905,118232.79999995232,118259.571,123643.095,8,400,,,
trial,html.Screen,4_13_0,2023-10-31T00:04:33.359Z,,0,1,,3349.404999999999,response,ISIC_5238111.JPG,9,ISIC_0033966.JPG,ISIC_5238111.JPG,false,1,keypress(m),500,126992.89999997616,126992.5,123626.429,123631.20000004768,123643.095,127009.627,8,400,14,,ISIC_0033966.JPG
break,html.Screen,4_13_1,2023-10-31T00:04:33.360Z,,0,,,NaN,,,,,,false,,,,126993.89999997616,126993.60000002384,,126993.20000004768,,127009.627,8,400,,,
break_continue,html.Screen,4_13_2,2023-10-31T00:04:33.360Z,,0,,,NaN,,,,,,false,,,,126994.20000004768,126994.10000002384,,126993.89999997616,,127009.627,8,400,,,
sequence,flow.Sequence,4_13,2023-10-31T00:04:33.361Z,,0,,,3351.0050000238407,completion,,,,,false,,,,126994.39999997616,126994.10000002384,123626.429,123631.10000002384,123643.095,127009.627,8,400,,,
trial,html.Screen,4_14_0,2023-10-31T00:04:37.331Z,,0,1,,3954.373000000007,response,ISIC_7623407.JPG,7,ISIC_0013364.JPG,ISIC_0013364.JPG,false,0,keypress(z),500,130964.5,130964,126992.961,126994.60000002384,127009.627,130976.135,8,400,15,,ISIC_7623407.JPG
break,html.Screen,4_14_1,2023-10-31T00:04:37.332Z,,0,,,NaN,,,,,,false,,,,130965.39999997616,130965.20000004768,,130964.70000004768,,130976.135,8,400,,,
break_continue,html.Screen,4_14_2,2023-10-31T00:04:37.332Z,,0,,,NaN,,,,,,false,,,,130965.79999995232,130965.70000004768,,130965.5,,130976.135,8,400,,,
sequence,flow.Sequence,4_14,2023-10-31T00:04:37.332Z,,0,,,3956.0730000476906,completion,,,,,false,,,,130965.89999997616,130965.70000004768,126992.961,126994.5,127009.627,130976.135,8,400,,,
trial,html.Screen,4_15_0,2023-10-31T00:04:40.777Z,,0,1,,3434.1649999523215,response,ISIC_5153848.JPG,8,ISIC_0010503.JPG,ISIC_0010503.JPG,false,0,keypress(z),500,134410.70000004768,134410.29999995232,130959.469,130966,130976.135,134426.337,8,400,16,,ISIC_5153848.JPG
break,html.Screen,4_15_1,2023-10-31T00:04:40.778Z,,0,,,NaN,,,,,,false,,,,134411.70000004768,134411.5,,134411,,134426.337,8,400,,,
break_continue,html.Screen,4_15_2,2023-10-31T00:04:40.778Z,,0,,,NaN,,,,,,false,,,,134412.10000002384,134412,,134411.79999995232,,134426.337,8,400,,,
sequence,flow.Sequence,4_15,2023-10-31T00:04:40.778Z,,0,,,3435.8650000000052,completion,,,,,false,,,,134412.20000004768,134412,130959.469,130966,130976.135,134426.337,8,400,,,
trial,html.Screen,4_16_0,2023-10-31T00:04:44.857Z,,0,1,,4064.2630000238423,response,ISIC_0064406.JPG,8,ISIC_9210255.JPG,ISIC_0064406.JPG,false,1,keypress(m),500,138491,138490.60000002384,134409.671,134412.29999995232,134426.337,138492.841,8,400,17,,ISIC_9210255.JPG
break,html.Screen,4_16_1,2023-10-31T00:04:44.858Z,,0,,,NaN,,,,,,false,,,,138491.89999997616,138491.70000004768,,138491.29999995232,,138492.841,8,400,,,
break_continue,html.Screen,4_16_2,2023-10-31T00:04:44.859Z,,0,,,NaN,,,,,,false,,,,138492.29999995232,138492.20000004768,,138492.10000002384,,138492.841,8,400,,,
sequence,flow.Sequence,4_16,2023-10-31T00:04:44.859Z,,0,,,4065.863000047684,completion,,,,,false,,,,138492.39999997616,138492.20000004768,134409.671,134412.20000004768,134426.337,138492.841,8,400,,,
trial,html.Screen,4_17_0,2023-10-31T00:04:48.569Z,,0,1,,3709.5589999761723,response,ISIC_0609067.JPG,8,ISIC_0033125.JPG,ISIC_0033125.JPG,false,0,keypress(z),500,142202.79999995232,142202.39999997616,138476.175,138492.60000002384,138492.841,142209.359,8,400,18,,ISIC_0609067.JPG
break,html.Screen,4_17_1,2023-10-31T00:04:48.570Z,,0,,,NaN,,,,,,false,,,,142203.79999995232,142203.60000002384,,142203.10000002384,,142209.359,8,400,,,
break_continue,html.Screen,4_17_2,2023-10-31T00:04:48.570Z,,0,,,NaN,,,,,,false,,,,142204.20000004768,142204.10000002384,,142203.89999997616,,142209.359,8,400,,,
sequence,flow.Sequence,4_17,2023-10-31T00:04:48.571Z,,0,,,3711.259000023856,completion,,,,,false,,,,142204.29999995232,142204.10000002384,138476.175,138492.5,138492.841,142209.359,8,400,,,
trial,html.Screen,4_18_0,2023-10-31T00:04:51.975Z,,0,1,,3399.0409999761614,response,ISIC_1323048.JPG,5,ISIC_0046917.JPG,ISIC_1323048.JPG,false,1,keypress(m),500,145608.79999995232,145608.39999997616,142192.693,142204.5,142209.359,145626.282,8,400,19,,ISIC_0046917.JPG
break,html.Screen,4_18_1,2023-10-31T00:04:51.976Z,,0,,,NaN,,,,,,false,,,,145609.70000004768,145609.5,,145609.10000002384,,145626.282,8,400,,,
break_continue,html.Screen,4_18_2,2023-10-31T00:04:51.976Z,,0,,,NaN,,,,,,false,,,,145610.10000002384,145610,,145609.89999997616,,145626.282,8,400,,,
sequence,flow.Sequence,4_18,2023-10-31T00:04:51.977Z,,0,,,3400.6410000000033,completion,,,,,false,,,,145610.29999995232,145610,142192.693,142204.39999997616,142209.359,145626.282,8,400,,,
trial,html.Screen,4_19_0,2023-10-31T00:04:55.497Z,,0,1,,3504.1179999761516,response,ISIC_0072642.JPG,8,ISIC_0523125.JPG,ISIC_0523125.JPG,false,0,keypress(z),500,149130.79999995232,149130.39999997616,145609.616,145610.29999995232,145626.282,149142.808,8,400,20,,ISIC_0072642.JPG
break,html.Screen,4_19_1,2023-10-31T00:04:55.498Z,,0,,,NaN,,,,,,false,,,,149131.60000002384,149131.5,,149131,,149142.808,8,400,,,
break_continue,html.Screen,4_19_2,2023-10-31T00:04:55.498Z,,0,,,NaN,,,,,,false,,,,149131.89999997616,149131.79999995232,,149131.70000004768,,149142.808,8,400,,,
sequence,flow.Sequence,4_19,2023-10-31T00:04:55.498Z,,0,,,3505.5179999523098,completion,,,,,false,,,,149132,149131.79999995232,145609.616,145610.29999995232,145626.282,149142.808,8,400,,,
trial,html.Screen,4_20_0,2023-10-31T00:04:58.720Z,,0,1,,3210.591999976168,response,ISIC_1269461.JPG,4,ISIC_0000377.JPG,ISIC_1269461.JPG,false,1,keypress(m),500,152353.70000004768,152353.39999997616,149126.142,149132.20000004768,149142.808,152359.346,8,400,21,,ISIC_0000377.JPG
break,html.Screen,4_20_1,2023-10-31T00:04:58.721Z,,0,,,NaN,,,,,,false,,,,152354.70000004768,152354.5,,152354,,152359.346,8,400,,,
break_continue,html.Screen,4_20_2,2023-10-31T00:04:58.721Z,,0,,,NaN,,,,,,false,,,,152355,152354.89999997616,,152354.79999995232,,152359.346,8,400,,,
sequence,flow.Sequence,4_20,2023-10-31T00:04:58.721Z,,0,,,3212.091999976168,completion,,,,,false,,,,152355.20000004768,152354.89999997616,149126.142,149132.10000002384,149142.808,152359.346,8,400,,,
trial,html.Screen,4_21_0,2023-10-31T00:05:02.003Z,,0,1,,3277.5539999761677,response,ISIC_5897799.JPG,8,ISIC_5903193.JPG,ISIC_5903193.JPG,false,0,keypress(z),500,155637.29999995232,155636.89999997616,152342.68,152355.39999997616,152359.346,155642.909,8,400,22,,ISIC_5897799.JPG
break,html.Screen,4_21_1,2023-10-31T00:05:02.004Z,,0,,,NaN,,,,,,false,,,,155638.10000002384,155637.89999997616,,155637.5,,155642.909,8,400,,,
break_continue,html.Screen,4_21_2,2023-10-31T00:05:02.005Z,,0,,,NaN,,,,,,false,,,,155638.5,155638.29999995232,,155638.29999995232,,155642.909,8,400,,,
sequence,flow.Sequence,4_21,2023-10-31T00:05:02.005Z,,0,,,3278.953999952326,completion,,,,,false,,,,155638.60000002384,155638.29999995232,152342.68,152355.29999995232,152359.346,155642.909,8,400,,,
trial,html.Screen,4_22_0,2023-10-31T00:05:05.690Z,,0,1,,3680.090999999986,response,ISIC_4898865.JPG,6,ISIC_1874480.JPG,ISIC_1874480.JPG,false,0,keypress(z),500,159323.39999997616,159323,155626.243,155638.70000004768,155642.909,159326.095,8,400,23,,ISIC_4898865.JPG
break,html.Screen,4_22_1,2023-10-31T00:05:05.691Z,,0,,,NaN,,,,,,false,,,,159324.29999995232,159324.20000004768,,159323.70000004768,,159326.095,8,400,,,
break_continue,html.Screen,4_22_2,2023-10-31T00:05:05.691Z,,0,,,NaN,,,,,,false,,,,159324.70000004768,159324.5,,159324.5,,159326.095,8,400,,,
sequence,flow.Sequence,4_22,2023-10-31T00:05:05.691Z,,0,,,3681.590999999986,completion,,,,,false,,,,159324.79999995232,159324.5,155626.243,155638.70000004768,155642.909,159326.095,8,400,,,
trial,html.Screen,4_23_0,2023-10-31T00:05:09.488Z,,0,1,,3795.5050000238407,response,ISIC_0070092.JPG,8,ISIC_3702669.JPG,ISIC_3702669.JPG,false,0,keypress(z),500,163121.89999997616,163121.60000002384,159309.429,159324.89999997616,159326.095,163125.943,8,400,24,,ISIC_0070092.JPG
break,html.Screen,4_23_1,2023-10-31T00:05:09.489Z,,0,,,NaN,,,,,,false,,,,163122.89999997616,163122.70000004768,,163122.29999995232,,163125.943,8,400,,,
break_continue,html.Screen,4_23_2,2023-10-31T00:05:09.490Z,,0,,,NaN,,,,,,false,,,,163123.29999995232,163123.20000004768,,163123,,163125.943,8,400,,,
sequence,flow.Sequence,4_23,2023-10-31T00:05:09.490Z,,0,,,3797.1050000476826,completion,,,,,false,,,,163123.39999997616,163123.20000004768,159309.429,159324.89999997616,159326.095,163125.943,8,400,,,
trial,html.Screen,4_24_0,2023-10-31T00:05:12.646Z,,0,1,,3153.6570000238426,response,ISIC_0056979.JPG,8,ISIC_4197990.JPG,ISIC_4197990.JPG,false,0,keypress(z),500,166280,166279.60000002384,163109.277,163123.60000002384,163125.943,166292.848,8,400,25,,ISIC_0056979.JPG
break,html.Screen,4_24_1,2023-10-31T00:05:12.647Z,,0,,,NaN,,,,,,false,,,,166280.79999995232,166280.70000004768,,166280.29999995232,,166292.848,8,400,,,
break_continue,html.Screen,4_24_2,2023-10-31T00:05:12.648Z,,0,,,NaN,,,,,,false,,,,166281.20000004768,166281.10000002384,,166281,,166292.848,8,400,,,
sequence,flow.Sequence,4_24,2023-10-31T00:05:12.648Z,,0,,,3155.1570000238426,completion,,,,,false,,,,166281.39999997616,166281.10000002384,163109.277,163123.5,163125.943,166292.848,8,400,,,
trial,html.Screen,4_25_0,2023-10-31T00:05:16.651Z,,0,1,,3991.2520000238437,response,ISIC_9030482.JPG,7,ISIC_0013429.JPG,ISIC_0013429.JPG,false,0,keypress(z),500,170284.5,170284.10000002384,166276.182,166281.5,166292.848,170292.688,8,400,26,,ISIC_9030482.JPG
break,html.Screen,4_25_1,2023-10-31T00:05:16.652Z,,0,,,NaN,,,,,,false,,,,170285.39999997616,170285.20000004768,,170284.79999995232,,170292.688,8,400,,,
break_continue,html.Screen,4_25_2,2023-10-31T00:05:16.652Z,,0,,,NaN,,,,,,false,,,,170285.70000004768,170285.70000004768,,170285.5,,170292.688,8,400,,,
sequence,flow.Sequence,4_25,2023-10-31T00:05:16.652Z,,0,,,3992.8520000476856,completion,,,,,false,,,,170285.89999997616,170285.70000004768,166276.182,166281.5,166292.848,170292.688,8,400,,,
trial,html.Screen,4_26_0,2023-10-31T00:05:19.874Z,,0,1,,3214.3120000000054,response,ISIC_0013052.JPG,7,ISIC_8843901.JPG,ISIC_0013052.JPG,false,1,keypress(m),500,173507.29999995232,173507,170276.022,170286.10000002384,170292.688,173509.226,8,400,27,,ISIC_8843901.JPG
break,html.Screen,4_26_1,2023-10-31T00:05:19.874Z,,0,,,NaN,,,,,,false,,,,173508.10000002384,173507.89999997616,,173507.5,,173509.226,8,400,,,
break_continue,html.Screen,4_26_2,2023-10-31T00:05:19.875Z,,0,,,NaN,,,,,,false,,,,173508.29999995232,173508.20000004768,,173508.10000002384,,173509.226,8,400,,,
sequence,flow.Sequence,4_26,2023-10-31T00:05:19.875Z,,0,,,3215.512000047689,completion,,,,,false,,,,173508.39999997616,173508.20000004768,170276.022,170286.10000002384,170292.688,173509.226,8,400,,,
trial,html.Screen,4_27_0,2023-10-31T00:05:23.279Z,,0,1,,3403.173999976163,response,ISIC_1220154.JPG,7,ISIC_0028949.JPG,ISIC_1220154.JPG,false,1,keypress(m),500,176912.89999997616,176912.39999997616,173492.56,173508.39999997616,173509.226,176926.122,8,400,28,,ISIC_0028949.JPG
break,html.Screen,4_27_1,2023-10-31T00:05:23.280Z,,0,,,NaN,,,,,,false,,,,176913.79999995232,176913.60000002384,,176913.10000002384,,176926.122,8,400,,,
break_continue,html.Screen,4_27_2,2023-10-31T00:05:23.280Z,,0,,,NaN,,,,,,false,,,,176914.20000004768,176914.10000002384,,176914,,176926.122,8,400,,,
sequence,flow.Sequence,4_27,2023-10-31T00:05:23.281Z,,0,,,3404.8740000238467,completion,,,,,false,,,,176914.29999995232,176914.10000002384,173492.56,173508.39999997616,173509.226,176926.122,8,400,,,
trial,html.Screen,4_28_0,2023-10-31T00:05:26.994Z,,0,1,,3701.1779999523133,response,ISIC_9596721.JPG,8,ISIC_0054677.JPG,ISIC_9596721.JPG,false,1,keypress(m),500,180627.70000004768,180627.29999995232,176909.456,176914.39999997616,176926.122,180642.64,8,400,29,,ISIC_0054677.JPG
break,html.Screen,4_28_1,2023-10-31T00:05:26.995Z,,0,,,NaN,,,,,,false,,,,180629.10000002384,180628.70000004768,,180628,,180642.64,8,400,,,
break_continue,html.Screen,4_28_2,2023-10-31T00:05:26.996Z,,0,,,NaN,,,,,,false,,,,180629.79999995232,180629.5,,180629.29999995232,,180642.64,8,400,,,
sequence,flow.Sequence,4_28,2023-10-31T00:05:26.996Z,,0,,,3703.377999999997,completion,,,,,false,,,,180629.89999997616,180629.5,176909.456,176914.39999997616,176926.122,180642.64,8,400,,,
trial,html.Screen,4_29_0,2023-10-31T00:05:30.394Z,,0,1,,3384.259999976144,response,ISIC_7511557.JPG,5,ISIC_0072516.JPG,ISIC_0072516.JPG,false,0,keypress(z),500,184027.29999995232,184026.89999997616,180625.974,180630,180642.64,184042.504,8,400,30,,ISIC_7511557.JPG
break,html.Screen,4_29_1,2023-10-31T00:05:30.395Z,,0,,,NaN,,,,,,false,,,,184028.29999995232,184028.10000002384,,184027.70000004768,,184042.504,8,400,,,
break_continue,html.Screen,4_29_2,2023-10-31T00:05:30.395Z,,0,,,NaN,,,,,,false,,,,184028.60000002384,184028.60000002384,,184028.5,,184042.504,8,400,,,
sequence,flow.Sequence,4_29,2023-10-31T00:05:30.395Z,,0,,,3385.960000023828,completion,,,,,false,,,,184028.79999995232,184028.60000002384,180625.974,180629.89999997616,180642.64,184042.504,8,400,,,
trial,html.Screen,4_30_0,2023-10-31T00:05:33.550Z,,0,1,,3140.79599995233,response,ISIC_7482149.JPG,8,ISIC_0065774.JPG,ISIC_7482149.JPG,false,1,keypress(m),500,187183.79999995232,187183.29999995232,184025.838,184029,184042.504,187192.742,8,400,31,,ISIC_0065774.JPG
break,html.Screen,4_30_1,2023-10-31T00:05:33.551Z,,0,,,NaN,,,,,,false,,,,187184.79999995232,187184.60000002384,,187184.10000002384,,187192.742,8,400,,,
break_continue,html.Screen,4_30_2,2023-10-31T00:05:33.551Z,,0,,,NaN,,,,,,false,,,,187185.10000002384,187185,,187184.89999997616,,187192.742,8,400,,,
sequence,flow.Sequence,4_30,2023-10-31T00:05:33.552Z,,0,,,3142.4960000000137,completion,,,,,false,,,,187185.29999995232,187185,184025.838,184028.89999997616,184042.504,187192.742,8,400,,,
trial,html.Screen,4_31_0,2023-10-31T00:05:36.325Z,,0,1,,2765.7580000000016,response,ISIC_0058186.JPG,9,ISIC_0032996.JPG,ISIC_0058186.JPG,false,1,keypress(m),500,189959,189958.5,187176.076,187185.39999997616,187192.742,189975.964,8,400,32,,ISIC_0032996.JPG
break,html.Screen,4_31_1,2023-10-31T00:05:36.326Z,,0,,,NaN,,,,,,false,,,,189959.89999997616,189959.70000004768,,189959.29999995232,,189975.964,8,400,,,
break_continue,html.Screen,4_31_2,2023-10-31T00:05:36.327Z,,0,,,NaN,,,,,,false,,,,189960.29999995232,189960.20000004768,,189960.10000002384,,189975.964,8,400,,,
sequence,flow.Sequence,4_31,2023-10-31T00:05:36.327Z,,0,,,2767.4580000476853,completion,,,,,false,,,,189960.39999997616,189960.20000004768,187176.076,187185.39999997616,187192.742,189975.964,8,400,,,
trial,html.Screen,4_32_0,2023-10-31T00:05:39.519Z,,0,1,,3176.6360000238346,response,ISIC_0071043.JPG,9,ISIC_0058098.JPG,ISIC_0071043.JPG,false,1,keypress(m),500,193153,193152.60000002384,189959.298,189960.39999997616,189975.964,193159.17,8,400,33,,ISIC_0058098.JPG
break,html.Screen,4_32_1,2023-10-31T00:05:39.520Z,,0,,,NaN,,,,,,false,,,,193154,193153.70000004768,,193153.20000004768,,193159.17,8,400,,,
break_continue,html.Screen,4_32_2,2023-10-31T00:05:39.521Z,,0,,,NaN,,,,,,false,,,,193154.39999997616,193154.29999995232,,193154.10000002384,,193159.17,8,400,,,
sequence,flow.Sequence,4_32,2023-10-31T00:05:39.521Z,,0,,,3178.335999952309,completion,,,,,false,,,,193154.60000002384,193154.29999995232,189959.298,189960.39999997616,189975.964,193159.17,8,400,,,
trial,html.Screen,4_33_0,2023-10-31T00:05:42.807Z,,0,1,,3280.6299999523035,response,ISIC_0069944.JPG,6,ISIC_0026278.JPG,ISIC_0026278.JPG,false,0,keypress(z),500,196440.20000004768,196439.79999995232,193142.504,193154.79999995232,193159.17,196442.772,8,400,34,,ISIC_0069944.JPG
break,html.Screen,4_33_1,2023-10-31T00:05:42.808Z,,0,,,NaN,,,,,,false,,,,196441.20000004768,196441,,196440.5,,196442.772,8,400,,,
break_continue,html.Screen,4_33_2,2023-10-31T00:05:42.808Z,,0,,,NaN,,,,,,false,,,,196441.5,196441.5,,196441.29999995232,,196442.772,8,400,,,
sequence,flow.Sequence,4_33,2023-10-31T00:05:42.808Z,,0,,,3282.329999999987,completion,,,,,false,,,,196441.70000004768,196441.5,193142.504,193154.70000004768,193159.17,196442.772,8,400,,,
trial,html.Screen,4_34_0,2023-10-31T00:05:46.328Z,,0,1,,3518.127999976161,response,ISIC_0059897.JPG,8,ISIC_7198887.JPG,ISIC_0059897.JPG,false,1,keypress(m),500,199961.29999995232,199960.89999997616,196426.106,196441.79999995232,196442.772,199992.63,8,400,35,,ISIC_7198887.JPG
break,html.Screen,4_34_1,2023-10-31T00:05:46.329Z,,0,,,NaN,,,,,,false,,,,199962.29999995232,199962.10000002384,,199961.60000002384,,199992.63,8,400,,,
break_continue,html.Screen,4_34_2,2023-10-31T00:05:46.329Z,,0,,,NaN,,,,,,false,,,,199962.39999997616,199962.29999995232,,199962.29999995232,,199992.63,8,400,,,
sequence,flow.Sequence,4_34,2023-10-31T00:05:46.329Z,,0,,,3519.527999952319,completion,,,,,false,,,,199962.5,199962.29999995232,196426.106,196441.79999995232,196442.772,199992.63,8,400,,,
trial,html.Screen,4_35_0,2023-10-31T00:05:49.851Z,,0,1,,3491.070000047679,response,ISIC_8820668.JPG,8,ISIC_0064964.JPG,ISIC_0064964.JPG,false,0,keypress(z),500,203484.20000004768,203483.70000004768,199975.964,199962.60000002384,199992.63,203492.49,8,400,36,,ISIC_8820668.JPG
break,html.Screen,4_35_1,2023-10-31T00:05:49.852Z,,0,,,NaN,,,,,,false,,,,203485.20000004768,203485,,203484.39999997616,,203492.49,8,400,,,
break_continue,html.Screen,4_35_2,2023-10-31T00:05:49.852Z,,0,,,NaN,,,,,,false,,,,203485.5,203485.39999997616,,203485.29999995232,,203492.49,8,400,,,
sequence,flow.Sequence,4_35,2023-10-31T00:05:49.852Z,,0,,,3492.7699999761535,completion,,,,,false,,,,203485.70000004768,203485.39999997616,199975.964,199962.60000002384,199992.63,203492.49,8,400,,,
trial,html.Screen,4_36_0,2023-10-31T00:05:53.551Z,,0,1,,3691.9099999761675,response,ISIC_0024853.JPG,8,ISIC_0000035.JPG,ISIC_0024853.JPG,false,1,keypress(m),500,207184.89999997616,207184.39999997616,203475.824,203485.79999995232,203492.49,207192.688,8,400,37,,ISIC_0000035.JPG
break,html.Screen,4_36_1,2023-10-31T00:05:53.552Z,,0,,,NaN,,,,,,false,,,,207185.79999995232,207185.70000004768,,207185.20000004768,,207192.688,8,400,,,
break_continue,html.Screen,4_36_2,2023-10-31T00:05:53.553Z,,0,,,NaN,,,,,,false,,,,207186.20000004768,207186.10000002384,,207186,,207192.688,8,400,,,
sequence,flow.Sequence,4_36,2023-10-31T00:05:53.553Z,,0,,,3693.610000023851,completion,,,,,false,,,,207186.39999997616,207186.10000002384,203475.824,203485.79999995232,203492.49,207192.688,8,400,,,
trial,html.Screen,4_37_0,2023-10-31T00:05:56.774Z,,0,1,,3214.8120000000054,response,ISIC_9059250.JPG,8,ISIC_1781273.JPG,ISIC_1781273.JPG,false,0,keypress(z),500,210408,210407.5,207176.022,207186.5,207192.688,210409.226,8,400,38,,ISIC_9059250.JPG
break,html.Screen,4_37_1,2023-10-31T00:05:56.775Z,,0,,,NaN,,,,,,false,,,,210409,210408.79999995232,,210408.29999995232,,210409.226,8,400,,,
break_continue,html.Screen,4_37_2,2023-10-31T00:05:56.776Z,,0,,,NaN,,,,,,false,,,,210409.39999997616,210409.29999995232,,210409.20000004768,,210409.226,8,400,,,
sequence,flow.Sequence,4_37,2023-10-31T00:05:56.776Z,,0,,,3216.6119999523216,completion,,,,,false,,,,210409.60000002384,210409.29999995232,207176.022,207186.5,207192.688,210409.226,8,400,,,
trial,html.Screen,4_38_0,2023-10-31T00:06:00.797Z,,0,1,,4020.673999976163,response,ISIC_7870290.JPG,7,ISIC_7937065.JPG,ISIC_7937065.JPG,false,0,keypress(z),500,214430.39999997616,214429.89999997616,210392.56,210409.79999995232,210409.226,214442.398,8,400,39,,ISIC_7870290.JPG
break,html.Screen,4_38_1,2023-10-31T00:06:00.798Z,,0,,,NaN,,,,,,false,,,,214431.39999997616,214431.20000004768,,214430.79999995232,,214442.398,8,400,,,
break_continue,html.Screen,4_38_2,2023-10-31T00:06:00.798Z,,0,,,NaN,,,,,,false,,,,214431.70000004768,214431.60000002384,,214431.5,,214442.398,8,400,,,
sequence,flow.Sequence,4_38,2023-10-31T00:06:00.798Z,,0,,,4022.3740000238467,completion,,,,,false,,,,214431.89999997616,214431.60000002384,210392.56,210409.70000004768,210409.226,214442.398,8,400,,,
trial,html.Screen,4_39_0,2023-10-31T00:06:04.451Z,,0,1,,3642.1020000000135,response,ISIC_6988514.JPG,6,ISIC_0070951.JPG,ISIC_0070951.JPG,false,0,keypress(z),500,218085,218084.5,214425.732,214432.10000002384,214442.398,218092.643,8,400,40,,ISIC_6988514.JPG
break,html.Screen,4_39_1,2023-10-31T00:06:04.452Z,,0,,,NaN,,,,,,false,,,,218086.10000002384,218085.79999995232,,218085.39999997616,,218092.643,8,400,,,
break_continue,html.Screen,4_39_2,2023-10-31T00:06:04.453Z,,0,,,NaN,,,,,,false,,,,218086.5,218086.29999995232,,218086.20000004768,,218092.643,8,400,,,
sequence,flow.Sequence,4_39,2023-10-31T00:06:04.453Z,,0,,,3643.90199995233,completion,,,,,false,,,,218086.5,218086.29999995232,214425.732,214432,214442.398,218092.643,8,400,,,
trial,html.Screen,4_40_0,2023-10-31T00:06:07.537Z,,0,1,,3077.057000047673,response,ISIC_0033498.JPG,6,ISIC_3666219.JPG,ISIC_3666219.JPG,false,0,keypress(z),500,221170.29999995232,221169.70000004768,218075.977,218086.70000004768,218092.643,221175.853,8,400,41,,ISIC_0033498.JPG
break,html.Screen,4_40_1,2023-10-31T00:06:07.538Z,,0,,,NaN,,,,,,false,,,,221171.20000004768,221171,,221170.5,,221175.853,8,400,,,
break_continue,html.Screen,4_40_2,2023-10-31T00:06:07.538Z,,0,,,NaN,,,,,,false,,,,221171.5,221171.39999997616,,221171.29999995232,,221175.853,8,400,,,
sequence,flow.Sequence,4_40,2023-10-31T00:06:07.538Z,,0,,,3078.756999976147,completion,,,,,false,,,,221171.70000004768,221171.39999997616,218075.977,218086.70000004768,218092.643,221175.853,8,400,,,
trial,html.Screen,4_41_0,2023-10-31T00:06:10.757Z,,0,1,,3214.5469999761553,response,ISIC_5358548.JPG,6,ISIC_0000957.JPG,ISIC_5358548.JPG,false,1,keypress(m),500,224390.89999997616,224390.39999997616,221159.187,221171.89999997616,221175.853,224409.057,8,400,42,,ISIC_0000957.JPG
break,html.Screen,4_41_1,2023-10-31T00:06:10.758Z,,0,,,NaN,,,,,,false,,,,224391.89999997616,224391.70000004768,,224391.20000004768,,224409.057,8,400,,,
break_continue,html.Screen,4_41_2,2023-10-31T00:06:10.759Z,,0,,,NaN,,,,,,false,,,,224392.29999995232,224392.10000002384,,224392,,224409.057,8,400,,,
sequence,flow.Sequence,4_41,2023-10-31T00:06:10.759Z,,0,,,3216.247000023839,completion,,,,,false,,,,224392.39999997616,224392.10000002384,221159.187,221171.79999995232,221175.853,224409.057,8,400,,,
trial,html.Screen,4_42_0,2023-10-31T00:06:13.995Z,,0,1,,3218.8429999761574,response,ISIC_5823859.JPG,8,ISIC_6685513.JPG,ISIC_5823859.JPG,false,1,keypress(m),500,227628.39999997616,227627.89999997616,224392.391,224392.5,224409.057,227642.616,8,400,43,,ISIC_6685513.JPG
break,html.Screen,4_42_1,2023-10-31T00:06:13.996Z,,0,,,NaN,,,,,,false,,,,227629.39999997616,227629.20000004768,,227628.70000004768,,227642.616,8,400,,,
break_continue,html.Screen,4_42_2,2023-10-31T00:06:13.996Z,,0,,,NaN,,,,,,false,,,,227629.79999995232,227629.60000002384,,227629.5,,227642.616,8,400,,,
sequence,flow.Sequence,4_42,2023-10-31T00:06:13.996Z,,0,,,3220.543000023841,completion,,,,,false,,,,227629.89999997616,227629.60000002384,224392.391,224392.5,224409.057,227642.616,8,400,,,
trial,html.Screen,4_43_0,2023-10-31T00:06:17.304Z,,0,1,,3294.883999999991,response,ISIC_0066012.JPG,8,ISIC_0072215.JPG,ISIC_0066012.JPG,false,1,keypress(m),500,230938,230937.5,227625.95,227630,227642.616,230942.484,8,400,44,,ISIC_0072215.JPG
break,html.Screen,4_43_1,2023-10-31T00:06:17.305Z,,0,,,NaN,,,,,,false,,,,230939,230938.79999995232,,230938.29999995232,,230942.484,8,400,,,
break_continue,html.Screen,4_43_2,2023-10-31T00:06:17.306Z,,0,,,NaN,,,,,,false,,,,230939.39999997616,230939.29999995232,,230939.20000004768,,230942.484,8,400,,,
sequence,flow.Sequence,4_43,2023-10-31T00:06:17.306Z,,0,,,3296.683999952307,completion,,,,,false,,,,230939.60000002384,230939.29999995232,227625.95,227630,227642.616,230942.484,8,400,,,
trial,html.Screen,4_44_0,2023-10-31T00:06:20.479Z,,0,1,,3169.9159999761614,response,ISIC_0024745.JPG,5,ISIC_7587869.JPG,ISIC_7587869.JPG,false,0,keypress(z),500,234112.89999997616,234112.39999997616,230925.818,230939.70000004768,230942.484,234125.69,8,400,45,,ISIC_0024745.JPG
break,html.Screen,4_44_1,2023-10-31T00:06:20.480Z,,0,,,NaN,,,,,,false,,,,234113.89999997616,234113.70000004768,,234113.10000002384,,234125.69,8,400,,,
break_continue,html.Screen,4_44_2,2023-10-31T00:06:20.481Z,,0,,,NaN,,,,,,false,,,,234114.29999995232,234114.20000004768,,234114,,234125.69,8,400,,,
sequence,flow.Sequence,4_44,2023-10-31T00:06:20.481Z,,0,,,3171.716000047687,completion,,,,,false,,,,234114.39999997616,234114.20000004768,230925.818,230939.70000004768,230942.484,234125.69,8,400,,,
trial,html.Screen,4_45_0,2023-10-31T00:06:24.183Z,,0,1,,3690.0100000476814,response,ISIC_0430837.JPG,8,ISIC_0065943.JPG,ISIC_0065943.JPG,false,0,keypress(z),500,237816.10000002384,237815.70000004768,234109.024,234114.5,234125.69,237825.92,8,400,46,,ISIC_0430837.JPG
break,html.Screen,4_45_1,2023-10-31T00:06:24.184Z,,0,,,NaN,,,,,,false,,,,237817.10000002384,237816.89999997616,,237816.5,,237825.92,8,400,,,
break_continue,html.Screen,4_45_2,2023-10-31T00:06:24.184Z,,0,,,NaN,,,,,,false,,,,237817.5,237817.39999997616,,237817.29999995232,,237825.92,8,400,,,
sequence,flow.Sequence,4_45,2023-10-31T00:06:24.184Z,,0,,,3691.709999976156,completion,,,,,false,,,,237817.70000004768,237817.39999997616,234109.024,234114.5,234125.69,237825.92,8,400,,,
trial,html.Screen,4_46_0,2023-10-31T00:06:27.312Z,,0,1,,3119.3799999523035,response,ISIC_0025987.JPG,6,ISIC_4810485.JPG,ISIC_4810485.JPG,false,0,keypress(z),500,240945.60000002384,240945.29999995232,237809.254,237817.89999997616,237825.92,240959.128,8,400,47,,ISIC_0025987.JPG
break,html.Screen,4_46_1,2023-10-31T00:06:27.313Z,,0,,,NaN,,,,,,false,,,,240946.60000002384,240946.29999995232,,240946,,240959.128,8,400,,,
break_continue,html.Screen,4_46_2,2023-10-31T00:06:27.313Z,,0,,,NaN,,,,,,false,,,,240946.89999997616,240946.79999995232,,240946.70000004768,,240959.128,8,400,,,
sequence,flow.Sequence,4_46,2023-10-31T00:06:27.313Z,,0,,,3120.8799999523035,completion,,,,,false,,,,240947.10000002384,240946.79999995232,237809.254,237817.79999995232,237825.92,240959.128,8,400,,,
trial,html.Screen,4_47_0,2023-10-31T00:06:30.021Z,,0,1,,2695.0720000476867,response,ISIC_0028548.JPG,8,ISIC_7162343.JPG,ISIC_0028548.JPG,false,1,keypress(m),500,243654.70000004768,243654.20000004768,240942.462,240947.20000004768,240959.128,243659.02,8,400,48,,ISIC_7162343.JPG
break,html.Screen,4_47_1,2023-10-31T00:06:30.022Z,,0,,,NaN,,,,,,false,,,,243655.79999995232,243655.5,,243655,,243659.02,8,400,,,
break_continue,html.Screen,4_47_2,2023-10-31T00:06:30.022Z,,0,,,NaN,,,,,,false,,,,243656.10000002384,243656,,243655.79999995232,,243659.02,8,400,,,
sequence,flow.Sequence,4_47,2023-10-31T00:06:30.023Z,,0,,,2696.872000000003,completion,,,,,false,,,,243656.20000004768,243656,240942.462,240947.10000002384,240959.128,243659.02,8,400,,,
trial,html.Screen,4_48_0,2023-10-31T00:06:33.452Z,,0,1,,3425.7799999523268,response,ISIC_0065292.JPG,8,ISIC_3170155.JPG,ISIC_3170155.JPG,false,0,keypress(z),500,247085.29999995232,247084.79999995232,243642.354,243656.29999995232,243659.02,247092.216,8,400,49,,ISIC_0065292.JPG
break,html.Screen,4_48_1,2023-10-31T00:06:33.453Z,,0,,,NaN,,,,,,false,,,,247086.39999997616,247086.10000002384,,247085.60000002384,,247092.216,8,400,,,
break_continue,html.Screen,4_48_2,2023-10-31T00:06:33.453Z,,0,,,NaN,,,,,,false,,,,247086.70000004768,247086.60000002384,,247086.39999997616,,247092.216,8,400,,,
sequence,flow.Sequence,4_48,2023-10-31T00:06:33.453Z,,0,,,3427.5800000238523,completion,,,,,false,,,,247086.89999997616,247086.60000002384,243642.354,243656.20000004768,243659.02,247092.216,8,400,,,
trial,html.Screen,4_49_0,2023-10-31T00:06:36.835Z,,0,1,,3375.5839999523305,response,ISIC_0013835.JPG,8,ISIC_2714907.JPG,ISIC_0013835.JPG,false,1,keypress(m),500,250468.29999995232,250467.79999995232,247075.55,247087,247092.216,250475.781,8,400,50,,ISIC_2714907.JPG
break,html.Screen,4_49_1,2023-10-31T00:06:46.830Z,,0,,,9999.957000000024,timeout,,,,,false,,,,260463.79999995232,260459.072,250459.115,250468.60000002384,250475.781,260475.738,8,400,,,
break_continue,html.Screen,4_49_2,2023-10-31T00:07:15.291Z,,0,,,28435.161999976146,response,,,,,false,continue,keypress(Space),,288924.5,288910.89999997616,260459.072,260464,260475.738,288941.266,8,400,,,
sequence,flow.Sequence,4_49,2023-10-31T00:07:15.291Z,,0,,,41818.68399997617,completion,,,,,false,,,,288924.7000000477,288910.89999997616,247075.55,247086.89999997616,247092.216,288941.266,8,400,,,
trial,html.Screen,4_50_0,2023-10-31T00:07:19.817Z,,0,2,,4509.334000023839,response,ISIC_0063026.JPG,6,ISIC_0015401.JPG,ISIC_0015401.JPG,false,0,keypress(z),500,293451,293450.60000002384,288924.6,288924.7999999523,288941.266,293458.848,8,400,1,,ISIC_0063026.JPG
break,html.Screen,4_50_1,2023-10-31T00:07:19.818Z,,0,,,NaN,,,,,,false,,,,293452,293451.7999999523,,293451.2999999523,,293458.848,8,400,,,
break_continue,html.Screen,4_50_2,2023-10-31T00:07:19.819Z,,0,,,NaN,,,,,,false,,,,293452.2999999523,293452.2000000477,,293452.2000000477,,293458.848,8,400,,,
sequence,flow.Sequence,4_50,2023-10-31T00:07:19.819Z,,0,,,4510.9340000476805,completion,,,,,false,,,,293452.5,293452.2000000477,288924.6,288924.7000000477,288941.266,293458.848,8,400,,,
trial,html.Screen,4_51_0,2023-10-31T00:07:22.856Z,,0,2,,3030.55199997616,response,ISIC_0027406.JPG,9,ISIC_5482426.JPG,ISIC_5482426.JPG,false,0,keypress(z),500,296489.7999999523,296489.39999997616,293442.182,293452.7000000477,293458.848,296492.06,8,400,2,,ISIC_0027406.JPG
break,html.Screen,4_51_1,2023-10-31T00:07:22.857Z,,0,,,NaN,,,,,,false,,,,296490.7999999523,296490.60000002384,,296490.2000000477,,296492.06,8,400,,,
break_continue,html.Screen,4_51_2,2023-10-31T00:07:22.858Z,,0,,,NaN,,,,,,false,,,,296491.2000000477,296491,,296490.89999997616,,296492.06,8,400,,,
sequence,flow.Sequence,4_51,2023-10-31T00:07:22.858Z,,0,,,3032.152000000002,completion,,,,,false,,,,296491.2999999523,296491,293442.182,293452.7000000477,293458.848,296492.06,8,400,,,
trial,html.Screen,4_52_0,2023-10-31T00:07:27.341Z,,0,2,,4481.739999952319,response,ISIC_0222117.JPG,8,ISIC_5994645.JPG,ISIC_0222117.JPG,false,1,keypress(m),500,300974.2000000477,300973.7999999523,296475.394,296491.5,296492.06,300975.638,8,400,3,,ISIC_5994645.JPG
break,html.Screen,4_52_1,2023-10-31T00:07:27.342Z,,0,,,NaN,,,,,,false,,,,300975.10000002384,300974.89999997616,,300974.39999997616,,300975.638,8,400,,,
break_continue,html.Screen,4_52_2,2023-10-31T00:07:27.342Z,,0,,,NaN,,,,,,false,,,,300975.5,300975.39999997616,,300975.2999999523,,300975.638,8,400,,,
sequence,flow.Sequence,4_52,2023-10-31T00:07:27.342Z,,0,,,4483.3399999761605,completion,,,,,false,,,,300975.7999999523,300975.39999997616,296475.394,296491.5,296492.06,300975.638,8,400,,,
trial,html.Screen,4_53_0,2023-10-31T00:07:38.828Z,,0,2,,11516.56600000005,timeout,ISIC_0781315.JPG,7,ISIC_2231191.JPG,,false,,,500,312461.2999999523,312460.7000000477,300958.972,300975.89999997616,300975.638,312492.204,8,400,4,,
break,html.Screen,4_53_1,2023-10-31T00:07:38.829Z,,0,,,NaN,,,,,,false,,,,312462.2000000477,312461.89999997616,,312461.5,,312492.204,8,400,,,
break_continue,html.Screen,4_53_2,2023-10-31T00:07:38.829Z,,0,,,NaN,,,,,,false,,,,312462.39999997616,312462.39999997616,,312462.2999999523,,312492.204,8,400,,,
sequence,flow.Sequence,4_53,2023-10-31T00:07:38.829Z,,0,,,11486.761999976181,completion,,,,,false,,,,312462.5,312462.39999997616,300958.972,300975.89999997616,300975.638,312492.204,8,400,,,
trial,html.Screen,4_54_0,2023-10-31T00:07:43.000Z,,0,2,,4140.795999999973,response,ISIC_8699796.JPG,5,ISIC_4529092.JPG,ISIC_8699796.JPG,false,1,keypress(m),500,316633.39999997616,316633,312475.538,312462.60000002384,312492.204,316642.038,8,400,5,,ISIC_4529092.JPG
break,html.Screen,4_54_1,2023-10-31T00:07:43.002Z,,0,,,NaN,,,,,,false,,,,316635.60000002384,316634.2000000477,,316633.7000000477,,316642.038,8,400,,,
break_continue,html.Screen,4_54_2,2023-10-31T00:07:43.002Z,,0,,,NaN,,,,,,false,,,,316635.89999997616,316635.7999999523,,316635.7000000477,,316642.038,8,400,,,
sequence,flow.Sequence,4_54,2023-10-31T00:07:43.003Z,,0,,,4143.595999952289,completion,,,,,false,,,,316636,316635.7999999523,312475.538,312462.60000002384,312492.204,316642.038,8,400,,,
trial,html.Screen,4_55_0,2023-10-31T00:07:54.496Z,,0,2,,11516.597999999998,timeout,ISIC_0032995.JPG,6,ISIC_0058781.JPG,ISIC_0058781.JPG,false,,,500,328129.2999999523,328128.7999999523,316625.372,316636.10000002384,316642.038,328158.636,8,400,6,,ISIC_0032995.JPG
break,html.Screen,4_55_1,2023-10-31T00:07:54.497Z,,0,,,NaN,,,,,,false,,,,328130.10000002384,328129.89999997616,,328129.60000002384,,328158.636,8,400,,,
break_continue,html.Screen,4_55_2,2023-10-31T00:07:54.497Z,,0,,,NaN,,,,,,false,,,,328130.5,328130.39999997616,,328130.2999999523,,328158.636,8,400,,,
sequence,flow.Sequence,4_55,2023-10-31T00:07:54.497Z,,0,,,11488.361999976158,completion,,,,,false,,,,328130.7000000477,328130.39999997616,316625.372,316636.10000002384,316642.038,328158.636,8,400,,,
trial,html.Screen,4_56_0,2023-10-31T00:07:58.504Z,,0,2,,3978.064000047685,response,ISIC_0783513.JPG,7,ISIC_7629589.JPG,ISIC_7629589.JPG,false,0,keypress(z),500,332137.10000002384,332136.7000000477,328141.97,328130.7999999523,328158.636,332141.81,8,400,7,,ISIC_0783513.JPG
break,html.Screen,4_56_1,2023-10-31T00:07:58.505Z,,0,,,NaN,,,,,,false,,,,332138.10000002384,332137.89999997616,,332137.5,,332141.81,8,400,,,
break_continue,html.Screen,4_56_2,2023-10-31T00:07:58.505Z,,0,,,NaN,,,,,,false,,,,332138.5,332138.39999997616,,332138.2999999523,,332141.81,8,400,,,
sequence,flow.Sequence,4_56,2023-10-31T00:07:58.505Z,,0,,,3979.7639999761595,completion,,,,,false,,,,332138.7000000477,332138.39999997616,328141.97,328130.7000000477,328158.636,332141.81,8,400,,,
trial,html.Screen,4_57_0,2023-10-31T00:08:01.663Z,,0,2,,3154.6900000000023,response,ISIC_6038490.JPG,5,ISIC_3734674.JPG,ISIC_3734674.JPG,false,0,keypress(z),500,335296.89999997616,335296.5,332125.144,332138.89999997616,332141.81,335308.76,8,400,8,,ISIC_6038490.JPG
break,html.Screen,4_57_1,2023-10-31T00:08:01.664Z,,0,,,NaN,,,,,,false,,,,335297.7999999523,335297.60000002384,,335297.10000002384,,335308.76,8,400,,,
break_continue,html.Screen,4_57_2,2023-10-31T00:08:01.665Z,,0,,,NaN,,,,,,false,,,,335298.2000000477,335298,,335297.89999997616,,335308.76,8,400,,,
sequence,flow.Sequence,4_57,2023-10-31T00:08:01.665Z,,0,,,3156.1900000000023,completion,,,,,false,,,,335298.2999999523,335298,332125.144,332138.7999999523,332141.81,335308.76,8,400,,,
trial,html.Screen,4_58_0,2023-10-31T00:08:05.168Z,,0,2,,3492.7399999999907,response,ISIC_0002899.JPG,7,ISIC_7057495.JPG,ISIC_7057495.JPG,false,0,keypress(z),500,338801.89999997616,338801.5,335292.094,335298.5,335308.76,338808.62,8,400,9,,ISIC_0002899.JPG
break,html.Screen,4_58_1,2023-10-31T00:08:05.169Z,,0,,,NaN,,,,,,false,,,,338802.7999999523,338802.60000002384,,338802.2000000477,,338808.62,8,400,,,
break_continue,html.Screen,4_58_2,2023-10-31T00:08:05.170Z,,0,,,NaN,,,,,,false,,,,338803.2000000477,338803.10000002384,,338803,,338808.62,8,400,,,
sequence,flow.Sequence,4_58,2023-10-31T00:08:05.170Z,,0,,,3494.3400000238325,completion,,,,,false,,,,338803.2999999523,338803.10000002384,335292.094,335298.39999997616,335308.76,338808.62,8,400,,,
trial,html.Screen,4_59_0,2023-10-31T00:08:08.919Z,,0,2,,3742.9800000238465,response,ISIC_0070048.JPG,8,ISIC_5356775.JPG,ISIC_5356775.JPG,false,0,keypress(z),500,342552,342551.60000002384,338791.954,338803.5,338808.62,342558.47,8,400,10,,ISIC_0070048.JPG
break,html.Screen,4_59_1,2023-10-31T00:08:08.919Z,,0,,,NaN,,,,,,false,,,,342553,342552.7000000477,,342552.2000000477,,342558.47,8,400,,,
break_continue,html.Screen,4_59_2,2023-10-31T00:08:08.920Z,,0,,,NaN,,,,,,false,,,,342553.2999999523,342553.10000002384,,342553,,342558.47,8,400,,,
sequence,flow.Sequence,4_59,2023-10-31T00:08:08.920Z,,0,,,3744.4800000238465,completion,,,,,false,,,,342553.39999997616,342553.10000002384,338791.954,338803.5,338808.62,342558.47,8,400,,,
trial,html.Screen,4_60_0,2023-10-31T00:08:12.269Z,,0,2,,3343.829999952344,response,ISIC_7803114.JPG,9,ISIC_0765585.JPG,ISIC_7803114.JPG,false,1,keypress(m),500,345902.60000002384,345902.2999999523,342541.804,342553.5,342558.47,345908.706,8,400,11,,ISIC_0765585.JPG
break,html.Screen,4_60_1,2023-10-31T00:08:12.270Z,,0,,,NaN,,,,,,false,,,,345903.5,345903.2999999523,,345902.89999997616,,345908.706,8,400,,,
break_continue,html.Screen,4_60_2,2023-10-31T00:08:12.270Z,,0,,,NaN,,,,,,false,,,,345903.89999997616,345903.7999999523,,345903.7000000477,,345908.706,8,400,,,
sequence,flow.Sequence,4_60,2023-10-31T00:08:12.271Z,,0,,,3345.329999952344,completion,,,,,false,,,,345904.10000002384,345903.7999999523,342541.804,342553.5,342558.47,345908.706,8,400,,,
trial,html.Screen,4_61_0,2023-10-31T00:08:15.379Z,,0,2,,3103.494000047678,response,ISIC_4022621.JPG,9,ISIC_0033320.JPG,ISIC_4022621.JPG,false,1,keypress(m),500,349012.5,349012.2000000477,345892.04,345904.2000000477,345908.706,349025.248,8,400,12,,ISIC_0033320.JPG
break,html.Screen,4_61_1,2023-10-31T00:08:15.380Z,,0,,,NaN,,,,,,false,,,,349013.39999997616,349013.2000000477,,349012.7999999523,,349025.248,8,400,,,
break_continue,html.Screen,4_61_2,2023-10-31T00:08:15.380Z,,0,,,NaN,,,,,,false,,,,349013.7999999523,349013.60000002384,,349013.60000002384,,349025.248,8,400,,,
sequence,flow.Sequence,4_61,2023-10-31T00:08:15.380Z,,0,,,3104.8940000238363,completion,,,,,false,,,,349013.89999997616,349013.60000002384,345892.04,345904.10000002384,345908.706,349025.248,8,400,,,
trial,html.Screen,4_62_0,2023-10-31T00:08:18.248Z,,0,2,,2855.551999952295,response,ISIC_0068837.JPG,7,ISIC_5179884.JPG,ISIC_5179884.JPG,false,0,keypress(z),500,351881.2000000477,351880.7999999523,349008.582,349014,349025.248,351891.8,8,400,13,,ISIC_0068837.JPG
break,html.Screen,4_62_1,2023-10-31T00:08:18.249Z,,0,,,NaN,,,,,,false,,,,351882.2999999523,351882.10000002384,,351881.60000002384,,351891.8,8,400,,,
break_continue,html.Screen,4_62_2,2023-10-31T00:08:18.249Z,,0,,,NaN,,,,,,false,,,,351882.7000000477,351882.5,,351882.39999997616,,351891.8,8,400,,,
sequence,flow.Sequence,4_62,2023-10-31T00:08:18.249Z,,0,,,2857.2519999999786,completion,,,,,false,,,,351882.7999999523,351882.5,349008.582,349014,349025.248,351891.8,8,400,,,
trial,html.Screen,4_63_0,2023-10-31T00:08:21.343Z,,0,2,,3083.9000000476954,response,ISIC_3973431.JPG,8,ISIC_7575246.JPG,ISIC_7575246.JPG,false,0,keypress(z),500,354976.10000002384,354975.7000000477,351875.134,351882.89999997616,351891.8,354992.064,8,400,14,,ISIC_3973431.JPG
break,html.Screen,4_63_1,2023-10-31T00:08:21.344Z,,0,,,NaN,,,,,,false,,,,354977.10000002384,354976.7999999523,,354976.39999997616,,354992.064,8,400,,,
break_continue,html.Screen,4_63_2,2023-10-31T00:08:21.344Z,,0,,,NaN,,,,,,false,,,,354977.39999997616,354977.2999999523,,354977.10000002384,,354992.064,8,400,,,
sequence,flow.Sequence,4_63,2023-10-31T00:08:21.344Z,,0,,,3085.499999952328,completion,,,,,false,,,,354977.5,354977.2999999523,351875.134,351882.89999997616,351891.8,354992.064,8,400,,,
trial,html.Screen,4_64_0,2023-10-31T00:08:24.706Z,,0,2,,3346.7359999523032,response,ISIC_2095347.JPG,8,ISIC_9943579.JPG,ISIC_9943579.JPG,false,0,keypress(z),500,358339.10000002384,358338.7999999523,354975.398,354977.60000002384,354992.064,358341.93,8,400,15,,ISIC_2095347.JPG
break,html.Screen,4_64_1,2023-10-31T00:08:24.707Z,,0,,,NaN,,,,,,false,,,,358340,358339.7999999523,,358339.39999997616,,358341.93,8,400,,,
break_continue,html.Screen,4_64_2,2023-10-31T00:08:24.707Z,,0,,,NaN,,,,,,false,,,,358340.2999999523,358340.2999999523,,358340.2000000477,,358341.93,8,400,,,
sequence,flow.Sequence,4_64,2023-10-31T00:08:24.707Z,,0,,,3348.2359999523032,completion,,,,,false,,,,358340.5,358340.2999999523,354975.398,354977.60000002384,354992.064,358341.93,8,400,,,
trial,html.Screen,4_65_0,2023-10-31T00:08:27.944Z,,0,2,,3235.3699999523233,response,ISIC_7468304.JPG,7,ISIC_0010956.JPG,ISIC_0010956.JPG,false,0,keypress(z),500,361577.5,361577.2999999523,358325.264,358340.7000000477,358341.93,361591.8,8,400,16,,ISIC_7468304.JPG
break,html.Screen,4_65_1,2023-10-31T00:08:27.945Z,,0,,,NaN,,,,,,false,,,,361578.39999997616,361578.2999999523,,361577.89999997616,,361591.8,8,400,,,
break_continue,html.Screen,4_65_2,2023-10-31T00:08:27.945Z,,0,,,NaN,,,,,,false,,,,361578.89999997616,361578.7000000477,,361578.60000002384,,361591.8,8,400,,,
sequence,flow.Sequence,4_65,2023-10-31T00:08:27.946Z,,0,,,3236.7700000476907,completion,,,,,false,,,,361579,361578.7000000477,358325.264,358340.60000002384,358341.93,361591.8,8,400,,,
trial,html.Screen,4_66_0,2023-10-31T00:08:30.778Z,,0,2,,2818.999999952328,response,ISIC_0057328.JPG,8,ISIC_9223679.JPG,ISIC_9223679.JPG,false,0,keypress(z),500,364411.2000000477,364410.7999999523,361575.134,361579.2000000477,361591.8,364425.02,8,400,17,,ISIC_0057328.JPG
break,html.Screen,4_66_1,2023-10-31T00:08:30.779Z,,0,,,NaN,,,,,,false,,,,364412.10000002384,364411.89999997616,,364411.5,,364425.02,8,400,,,
break_continue,html.Screen,4_66_2,2023-10-31T00:08:30.779Z,,0,,,NaN,,,,,,false,,,,364412.5,364412.2999999523,,364412.2999999523,,364425.02,8,400,,,
sequence,flow.Sequence,4_66,2023-10-31T00:08:30.779Z,,0,,,2820.499999952328,completion,,,,,false,,,,364412.60000002384,364412.2999999523,361575.134,361579.10000002384,361591.8,364425.02,8,400,,,
trial,html.Screen,4_67_0,2023-10-31T00:08:33.741Z,,0,2,,2948.9799999999814,response,ISIC_0032687.JPG,6,ISIC_0056164.JPG,ISIC_0056164.JPG,false,0,keypress(z),500,367374.39999997616,367374,364408.354,364412.7999999523,364425.02,367391.93,8,400,18,,ISIC_0032687.JPG
break,html.Screen,4_67_1,2023-10-31T00:08:33.742Z,,0,,,NaN,,,,,,false,,,,367375.2999999523,367375.2000000477,,367374.7999999523,,367391.93,8,400,,,
break_continue,html.Screen,4_67_2,2023-10-31T00:08:33.742Z,,0,,,NaN,,,,,,false,,,,367375.7999999523,367375.60000002384,,367375.5,,367391.93,8,400,,,
sequence,flow.Sequence,4_67,2023-10-31T00:08:33.742Z,,0,,,2950.5800000238232,completion,,,,,false,,,,367375.89999997616,367375.60000002384,364408.354,364412.7000000477,364425.02,367391.93,8,400,,,
trial,html.Screen,4_68_0,2023-10-31T00:08:36.676Z,,0,2,,2916.8699999523233,response,ISIC_0032736.JPG,8,ISIC_0009006.JPG,ISIC_0009006.JPG,false,0,keypress(z),500,370309.2000000477,370308.7999999523,367375.264,367376,367391.93,370325.146,8,400,19,,ISIC_0032736.JPG
break,html.Screen,4_68_1,2023-10-31T00:08:36.677Z,,0,,,NaN,,,,,,false,,,,370310.10000002384,370310,,370309.5,,370325.146,8,400,,,
break_continue,html.Screen,4_68_2,2023-10-31T00:08:36.677Z,,0,,,NaN,,,,,,false,,,,370310.5,370310.39999997616,,370310.2999999523,,370325.146,8,400,,,
sequence,flow.Sequence,4_68,2023-10-31T00:08:36.677Z,,0,,,2918.469999976165,completion,,,,,false,,,,370310.7000000477,370310.39999997616,367375.264,367376,367391.93,370325.146,8,400,,,
trial,html.Screen,4_69_0,2023-10-31T00:08:40.105Z,,0,2,,3413.054000047676,response,ISIC_0010746.JPG,8,ISIC_0029718.JPG,ISIC_0010746.JPG,false,1,keypress(m),500,373738.5,373738.2000000477,370308.48,370310.7999999523,370325.146,373741.676,8,400,20,,ISIC_0029718.JPG
break,html.Screen,4_69_1,2023-10-31T00:08:40.106Z,,0,,,NaN,,,,,,false,,,,373739.5,373739.2999999523,,373738.89999997616,,373741.676,8,400,,,
break_continue,html.Screen,4_69_2,2023-10-31T00:08:40.106Z,,0,,,NaN,,,,,,false,,,,373739.7999999523,373739.7000000477,,373739.60000002384,,373741.676,8,400,,,
sequence,flow.Sequence,4_69,2023-10-31T00:08:40.107Z,,0,,,3414.554000047676,completion,,,,,false,,,,373740.10000002384,373739.7000000477,370308.48,370310.7999999523,370325.146,373741.676,8,400,,,
trial,html.Screen,4_70_0,2023-10-31T00:08:43.016Z,,0,2,,2907.8240000000224,response,ISIC_3447311.JPG,8,ISIC_0189694.JPG,ISIC_0189694.JPG,false,0,keypress(z),500,376649.89999997616,376649.5,373725.01,373740.2000000477,373741.676,376658.585,8,400,21,,ISIC_3447311.JPG
break,html.Screen,4_70_1,2023-10-31T00:08:43.017Z,,0,,,NaN,,,,,,false,,,,376650.7999999523,376650.5,,376650.10000002384,,376658.585,8,400,,,
break_continue,html.Screen,4_70_2,2023-10-31T00:08:43.018Z,,0,,,NaN,,,,,,false,,,,376651.2000000477,376651.10000002384,,376650.89999997616,,376658.585,8,400,,,
sequence,flow.Sequence,4_70,2023-10-31T00:08:43.018Z,,0,,,2909.424000023864,completion,,,,,false,,,,376651.2999999523,376651.10000002384,373725.01,373740.10000002384,373741.676,376658.585,8,400,,,
trial,html.Screen,4_71_0,2023-10-31T00:08:46.415Z,,0,2,,3389.814999976137,response,ISIC_9227392.JPG,8,ISIC_0698821.JPG,ISIC_9227392.JPG,false,1,keypress(m),500,380048.7000000477,380048.39999997616,376641.919,376651.5,376658.585,380058.449,8,400,22,,ISIC_0698821.JPG
break,html.Screen,4_71_1,2023-10-31T00:08:46.416Z,,0,,,NaN,,,,,,false,,,,380049.5,380049.39999997616,,380048.89999997616,,380058.449,8,400,,,
break_continue,html.Screen,4_71_2,2023-10-31T00:08:46.416Z,,0,,,NaN,,,,,,false,,,,380050,380049.7999999523,,380049.7000000477,,380058.449,8,400,,,
sequence,flow.Sequence,4_71,2023-10-31T00:08:46.417Z,,0,,,3391.2149999522953,completion,,,,,false,,,,380050.10000002384,380049.7999999523,376641.919,376651.39999997616,376658.585,380058.449,8,400,,,
trial,html.Screen,4_72_0,2023-10-31T00:08:49.141Z,,0,2,,2715.950999976136,response,ISIC_0026963.JPG,8,ISIC_4574865.JPG,ISIC_4574865.JPG,false,0,keypress(z),500,382774.7999999523,382774.39999997616,380041.783,380050.2999999523,380058.449,382791.673,8,400,23,,ISIC_0026963.JPG
break,html.Screen,4_72_1,2023-10-31T00:08:49.142Z,,0,,,NaN,,,,,,false,,,,382775.7000000477,382775.5,,382775.10000002384,,382791.673,8,400,,,
break_continue,html.Screen,4_72_2,2023-10-31T00:08:49.143Z,,0,,,NaN,,,,,,false,,,,382776,382776,,382775.89999997616,,382791.673,8,400,,,
sequence,flow.Sequence,4_72,2023-10-31T00:08:49.143Z,,0,,,2717.5509999999776,completion,,,,,false,,,,382776.2000000477,382776,380041.783,380050.2000000477,380058.449,382791.673,8,400,,,
trial,html.Screen,4_73_0,2023-10-31T00:08:52.140Z,,0,2,,2981.527000047674,response,ISIC_0016112.JPG,9,ISIC_0034089.JPG,ISIC_0034089.JPG,false,0,keypress(z),500,385773.5,385773.2000000477,382775.007,382776.2999999523,382791.673,385775.261,8,400,24,,ISIC_0016112.JPG
break,html.Screen,4_73_1,2023-10-31T00:08:52.141Z,,0,,,NaN,,,,,,false,,,,385774.5,385774.2999999523,,385773.7999999523,,385775.261,8,400,,,
break_continue,html.Screen,4_73_2,2023-10-31T00:08:52.141Z,,0,,,NaN,,,,,,false,,,,385774.7999999523,385774.7000000477,,385774.60000002384,,385775.261,8,400,,,
sequence,flow.Sequence,4_73,2023-10-31T00:08:52.142Z,,0,,,2983.027000047674,completion,,,,,false,,,,385775,385774.7000000477,382775.007,382776.2999999523,382791.673,385775.261,8,400,,,
trial,html.Screen,4_74_0,2023-10-31T00:08:55.554Z,,0,2,,3411.2390000000014,response,ISIC_2007034.JPG,7,ISIC_3673517.JPG,ISIC_2007034.JPG,false,1,keypress(m),500,389187,389186.5,385758.595,385775.2000000477,385775.261,389191.791,8,400,25,,ISIC_3673517.JPG
break,html.Screen,4_74_1,2023-10-31T00:08:55.555Z,,0,,,NaN,,,,,,false,,,,389187.89999997616,389187.7000000477,,389187.2000000477,,389191.791,8,400,,,
break_continue,html.Screen,4_74_2,2023-10-31T00:08:55.555Z,,0,,,NaN,,,,,,false,,,,389188.2999999523,389188.10000002384,,389188,,389191.791,8,400,,,
sequence,flow.Sequence,4_74,2023-10-31T00:08:55.555Z,,0,,,3412.8390000238433,completion,,,,,false,,,,389188.5,389188.10000002384,385758.595,385775.10000002384,385775.261,389191.791,8,400,,,
trial,html.Screen,4_75_0,2023-10-31T00:08:59.625Z,,0,2,,4065.8090000238153,response,ISIC_7942881.JPG,7,ISIC_0030656.JPG,ISIC_7942881.JPG,false,1,keypress(m),500,393258.10000002384,393257.60000002384,389175.125,389188.60000002384,389191.791,393274.961,8,400,26,,ISIC_0030656.JPG
break,html.Screen,4_75_1,2023-10-31T00:08:59.626Z,,0,,,NaN,,,,,,false,,,,393259.10000002384,393258.89999997616,,393258.39999997616,,393274.961,8,400,,,
break_continue,html.Screen,4_75_2,2023-10-31T00:08:59.626Z,,0,,,NaN,,,,,,false,,,,393259.39999997616,393259.2999999523,,393259.2999999523,,393274.961,8,400,,,
sequence,flow.Sequence,4_75,2023-10-31T00:08:59.626Z,,0,,,4067.5089999522897,completion,,,,,false,,,,393259.7000000477,393259.2999999523,389175.125,389188.5,389191.791,393274.961,8,400,,,
trial,html.Screen,4_76_0,2023-10-31T00:09:02.985Z,,0,2,,3343.2390000476735,response,ISIC_0014217.JPG,7,ISIC_6829008.JPG,ISIC_0014217.JPG,false,1,keypress(m),500,396618.7000000477,396618.2000000477,393258.295,393259.7000000477,393274.961,396625.166,8,400,27,,ISIC_6829008.JPG
break,html.Screen,4_76_1,2023-10-31T00:09:02.986Z,,0,,,NaN,,,,,,false,,,,396619.60000002384,396619.5,,396618.89999997616,,396625.166,8,400,,,
break_continue,html.Screen,4_76_2,2023-10-31T00:09:02.987Z,,0,,,NaN,,,,,,false,,,,396620,396619.89999997616,,396619.7000000477,,396625.166,8,400,,,
sequence,flow.Sequence,4_76,2023-10-31T00:09:02.987Z,,0,,,3344.938999976148,completion,,,,,false,,,,396620.2000000477,396619.89999997616,393258.295,393259.7000000477,393274.961,396625.166,8,400,,,
trial,html.Screen,4_77_0,2023-10-31T00:09:05.753Z,,0,2,,2760.534000047657,response,ISIC_0010400.JPG,7,ISIC_2161864.JPG,ISIC_2161864.JPG,false,0,keypress(z),500,399386.2999999523,399385.7000000477,396608.5,396620.39999997616,396625.166,399391.722,8,400,28,,ISIC_0010400.JPG
break,html.Screen,4_77_1,2023-10-31T00:09:05.754Z,,0,,,NaN,,,,,,false,,,,399387.2000000477,399387,,399386.5,,399391.722,8,400,,,
break_continue,html.Screen,4_77_2,2023-10-31T00:09:05.754Z,,0,,,NaN,,,,,,false,,,,399387.60000002384,399387.39999997616,,399387.2999999523,,399391.722,8,400,,,
sequence,flow.Sequence,4_77,2023-10-31T00:09:05.754Z,,0,,,2762.2339999761316,completion,,,,,false,,,,399387.7000000477,399387.39999997616,396608.5,396620.2999999523,396625.166,399391.722,8,400,,,
trial,html.Screen,4_78_0,2023-10-31T00:09:17.245Z,,0,2,,11516.589999999967,timeout,ISIC_0014926.JPG,9,ISIC_4887874.JPG,,false,,,500,410878.60000002384,410878.2000000477,399375.056,399387.89999997616,399391.722,410908.312,8,400,29,,
break,html.Screen,4_78_1,2023-10-31T00:09:17.246Z,,0,,,NaN,,,,,,false,,,,410879.60000002384,410879.39999997616,,410878.89999997616,,410908.312,8,400,,,
break_continue,html.Screen,4_78_2,2023-10-31T00:09:17.247Z,,0,,,NaN,,,,,,false,,,,410880,410879.7999999523,,410879.7000000477,,410908.312,8,400,,,
sequence,flow.Sequence,4_78,2023-10-31T00:09:17.247Z,,0,,,11488.077999952307,completion,,,,,false,,,,410880.10000002384,410879.7999999523,399375.056,399387.89999997616,399391.722,410908.312,8,400,,,
trial,html.Screen,4_79_0,2023-10-31T00:09:28.761Z,,0,2,,11516.737000000023,timeout,ISIC_9905633.JPG,7,ISIC_3063260.JPG,,false,,,500,422394.7999999523,422394.39999997616,410891.646,410880.2000000477,410908.312,422425.049,8,400,30,,
break,html.Screen,4_79_1,2023-10-31T00:09:28.762Z,,0,,,NaN,,,,,,false,,,,422395.60000002384,422395.39999997616,,422395,,422425.049,8,400,,,
break_continue,html.Screen,4_79_2,2023-10-31T00:09:28.762Z,,0,,,NaN,,,,,,false,,,,422395.89999997616,422395.7000000477,,422395.7000000477,,422425.049,8,400,,,
sequence,flow.Sequence,4_79,2023-10-31T00:09:28.763Z,,0,,,11487.388000047707,completion,,,,,false,,,,422396.10000002384,422395.7000000477,410891.646,410880.10000002384,410908.312,422425.049,8,400,,,
trial,html.Screen,4_80_0,2023-10-31T00:09:32.128Z,,0,2,,3335.350999976159,response,ISIC_0028129.JPG,8,ISIC_0011269.JPG,ISIC_0028129.JPG,false,1,keypress(m),500,425760.89999997616,425760.39999997616,422408.383,422396.2000000477,422425.049,425774.915,8,400,31,,ISIC_0011269.JPG
break,html.Screen,4_80_1,2023-10-31T00:09:32.129Z,,0,,,NaN,,,,,,false,,,,425761.89999997616,425761.7000000477,,425761.2999999523,,425774.915,8,400,,,
break_continue,html.Screen,4_80_2,2023-10-31T00:09:32.129Z,,0,,,NaN,,,,,,false,,,,425762.2000000477,425762.2000000477,,425762,,425774.915,8,400,,,
sequence,flow.Sequence,4_80,2023-10-31T00:09:32.129Z,,0,,,3337.1510000476846,completion,,,,,false,,,,425762.5,425762.2000000477,422408.383,422396.10000002384,422425.049,425774.915,8,400,,,
trial,html.Screen,4_81_0,2023-10-31T00:09:35.160Z,,0,2,,3018.185000023863,response,ISIC_0013634.JPG,7,ISIC_0012395.JPG,ISIC_0013634.JPG,false,1,keypress(m),500,428793.5,428793.10000002384,425758.249,425762.5,425774.915,428808.127,8,400,32,,ISIC_0012395.JPG
break,html.Screen,4_81_1,2023-10-31T00:09:35.161Z,,0,,,NaN,,,,,,false,,,,428794.5,428794.2000000477,,428793.7999999523,,428808.127,8,400,,,
break_continue,html.Screen,4_81_2,2023-10-31T00:09:35.161Z,,0,,,NaN,,,,,,false,,,,428794.7999999523,428794.7000000477,,428794.60000002384,,428808.127,8,400,,,
sequence,flow.Sequence,4_81,2023-10-31T00:09:35.162Z,,0,,,3019.7850000477047,completion,,,,,false,,,,428795,428794.7000000477,425758.249,425762.5,425774.915,428808.127,8,400,,,
trial,html.Screen,4_82_0,2023-10-31T00:09:43.455Z,,0,2,,8279.672999952338,response,ISIC_6785249.JPG,8,ISIC_0000313.JPG,ISIC_6785249.JPG,false,1,keypress(m),500,437088.10000002384,437087.7999999523,428791.461,428795.10000002384,428808.127,437091.525,8,400,33,,ISIC_0000313.JPG
break,html.Screen,4_82_1,2023-10-31T00:09:43.456Z,,0,,,NaN,,,,,,false,,,,437089.2000000477,437088.89999997616,,437088.39999997616,,437091.525,8,400,,,
break_continue,html.Screen,4_82_2,2023-10-31T00:09:43.456Z,,0,,,NaN,,,,,,false,,,,437089.5,437089.39999997616,,437089.2000000477,,437091.525,8,400,,,
sequence,flow.Sequence,4_82,2023-10-31T00:09:43.456Z,,0,,,8281.27299997618,completion,,,,,false,,,,437089.7000000477,437089.39999997616,428791.461,428795.10000002384,428808.127,437091.525,8,400,,,
trial,html.Screen,4_83_0,2023-10-31T00:09:53.526Z,,0,2,,10066.974999999977,response,ISIC_9848743.JPG,8,ISIC_0032012.JPG,ISIC_0032012.JPG,false,0,keypress(z),500,447158.89999997616,447158.5,437074.859,437089.7999999523,437091.525,447174.987,8,400,34,,ISIC_9848743.JPG
break,html.Screen,4_83_1,2023-10-31T00:09:53.527Z,,0,,,NaN,,,,,,false,,,,447159.7999999523,447159.60000002384,,447159.2000000477,,447174.987,8,400,,,
break_continue,html.Screen,4_83_2,2023-10-31T00:09:53.527Z,,0,,,NaN,,,,,,false,,,,447160.2999999523,447160.10000002384,,447160,,447174.987,8,400,,,
sequence,flow.Sequence,4_83,2023-10-31T00:09:53.527Z,,0,,,10068.575000023819,completion,,,,,false,,,,447160.2999999523,447160.10000002384,437074.859,437089.7999999523,437091.525,447174.987,8,400,,,
trial,html.Screen,4_84_0,2023-10-31T00:10:02.529Z,,0,2,,8986.412999976135,response,ISIC_9076021.JPG,9,ISIC_0071133.JPG,ISIC_9076021.JPG,false,1,keypress(m),500,456161.89999997616,456161.39999997616,447158.321,447160.60000002384,447174.987,456174.627,8,400,35,,ISIC_0071133.JPG
break,html.Screen,4_84_1,2023-10-31T00:10:02.529Z,,0,,,NaN,,,,,,false,,,,456162.7999999523,456162.60000002384,,456162.10000002384,,456174.627,8,400,,,
break_continue,html.Screen,4_84_2,2023-10-31T00:10:02.530Z,,0,,,NaN,,,,,,false,,,,456163.2000000477,456163.10000002384,,456162.89999997616,,456174.627,8,400,,,
sequence,flow.Sequence,4_84,2023-10-31T00:10:02.530Z,,0,,,8988.113000023819,completion,,,,,false,,,,456163.2999999523,456163.10000002384,447158.321,447160.5,447174.987,456174.627,8,400,,,
trial,html.Screen,4_85_0,2023-10-31T00:10:12.164Z,,0,2,,9622.672999952338,response,ISIC_5545874.JPG,8,ISIC_0067012.JPG,ISIC_5545874.JPG,false,1,keypress(m),500,465797.7000000477,465797.2999999523,456157.961,456163.5,456174.627,465807.934,8,400,36,,ISIC_0067012.JPG
break,html.Screen,4_85_1,2023-10-31T00:10:12.165Z,,0,,,NaN,,,,,,false,,,,465798.7999999523,465798.5,,465798,,465807.934,8,400,,,
break_continue,html.Screen,4_85_2,2023-10-31T00:10:12.166Z,,0,,,NaN,,,,,,false,,,,465799.10000002384,465799,,465798.89999997616,,465807.934,8,400,,,
sequence,flow.Sequence,4_85,2023-10-31T00:10:12.166Z,,0,,,9624.373000000021,completion,,,,,false,,,,465799.2000000477,465799,456157.961,456163.39999997616,456174.627,465807.934,8,400,,,
trial,html.Screen,4_86_0,2023-10-31T00:10:15.514Z,,0,2,,3338.6660000238335,response,ISIC_0027031.JPG,8,ISIC_0519386.JPG,ISIC_0519386.JPG,false,0,keypress(z),500,469147,469146.60000002384,465791.268,465799.39999997616,465807.934,469158.179,8,400,37,,ISIC_0027031.JPG
break,html.Screen,4_86_1,2023-10-31T00:10:15.515Z,,0,,,NaN,,,,,,false,,,,469147.89999997616,469147.7000000477,,469147.2999999523,,469158.179,8,400,,,
break_continue,html.Screen,4_86_2,2023-10-31T00:10:15.515Z,,0,,,NaN,,,,,,false,,,,469148.2999999523,469148.2999999523,,469148.10000002384,,469158.179,8,400,,,
sequence,flow.Sequence,4_86,2023-10-31T00:10:15.515Z,,0,,,3340.365999952308,completion,,,,,false,,,,469148.5,469148.2999999523,465791.268,465799.2999999523,465807.934,469158.179,8,400,,,
trial,html.Screen,4_87_0,2023-10-31T00:10:19.457Z,,0,2,,3931.421000023838,response,ISIC_0010555.JPG,5,ISIC_0000801.JPG,ISIC_0000801.JPG,false,0,keypress(z),500,473090.10000002384,473089.60000002384,469141.513,469148.60000002384,469158.179,473091.355,8,400,38,,ISIC_0010555.JPG
break,html.Screen,4_87_1,2023-10-31T00:10:19.458Z,,0,,,NaN,,,,,,false,,,,473091,473090.89999997616,,473090.39999997616,,473091.355,8,400,,,
break_continue,html.Screen,4_87_2,2023-10-31T00:10:19.458Z,,0,,,NaN,,,,,,false,,,,473091.5,473091.2999999523,,473091.2000000477,,473091.355,8,400,,,
sequence,flow.Sequence,4_87,2023-10-31T00:10:19.458Z,,0,,,3933.1209999523126,completion,,,,,false,,,,473091.60000002384,473091.2999999523,469141.513,469148.60000002384,469158.179,473091.355,8,400,,,
trial,html.Screen,4_88_0,2023-10-31T00:10:22.577Z,,0,2,,3118.3450000477023,response,ISIC_2410240.JPG,8,ISIC_9096302.JPG,ISIC_9096302.JPG,false,0,keypress(z),500,476210.2000000477,476209.7000000477,473074.689,473091.7000000477,473091.355,476224.563,8,400,39,,ISIC_2410240.JPG
break,html.Screen,4_88_1,2023-10-31T00:10:22.578Z,,0,,,NaN,,,,,,false,,,,476211.10000002384,476211,,476210.5,,476224.563,8,400,,,
break_continue,html.Screen,4_88_2,2023-10-31T00:10:22.578Z,,0,,,NaN,,,,,,false,,,,476211.60000002384,476211.39999997616,,476211.2999999523,,476224.563,8,400,,,
sequence,flow.Sequence,4_88,2023-10-31T00:10:22.578Z,,0,,,3120.0449999761768,completion,,,,,false,,,,476211.60000002384,476211.39999997616,473074.689,473091.7000000477,473091.355,476224.563,8,400,,,
trial,html.Screen,4_89_0,2023-10-31T00:10:25.880Z,,0,2,,3288.037000023818,response,ISIC_4653503.JPG,9,ISIC_0030484.JPG,ISIC_4653503.JPG,false,1,keypress(m),500,479513,479512.60000002384,476207.897,476211.7999999523,476224.563,479524.799,8,400,40,,ISIC_0030484.JPG
break,html.Screen,4_89_1,2023-10-31T00:10:25.881Z,,0,,,NaN,,,,,,false,,,,479513.89999997616,479513.7999999523,,479513.2999999523,,479524.799,8,400,,,
break_continue,html.Screen,4_89_2,2023-10-31T00:10:25.881Z,,0,,,NaN,,,,,,false,,,,479514.2999999523,479514.2000000477,,479514,,479524.799,8,400,,,
sequence,flow.Sequence,4_89,2023-10-31T00:10:25.881Z,,0,,,3289.63700004766,completion,,,,,false,,,,479514.5,479514.2000000477,476207.897,476211.7000000477,476224.563,479524.799,8,400,,,
trial,html.Screen,4_90_0,2023-10-31T00:10:29.595Z,,0,2,,3703.4010000476846,response,ISIC_0067905.JPG,7,ISIC_0058658.JPG,ISIC_0058658.JPG,false,0,keypress(z),500,483228.60000002384,483228.2000000477,479508.133,479514.5,479524.799,483241.317,8,400,41,,ISIC_0067905.JPG
break,html.Screen,4_90_1,2023-10-31T00:10:29.596Z,,0,,,NaN,,,,,,false,,,,483229.5,483229.2999999523,,483228.89999997616,,483241.317,8,400,,,
break_continue,html.Screen,4_90_2,2023-10-31T00:10:29.597Z,,0,,,NaN,,,,,,false,,,,483229.7999999523,483229.7000000477,,483229.60000002384,,483241.317,8,400,,,
sequence,flow.Sequence,4_90,2023-10-31T00:10:29.597Z,,0,,,3704.9010000476846,completion,,,,,false,,,,483230,483229.7000000477,479508.133,479514.5,479524.799,483241.317,8,400,,,
trial,html.Screen,4_91_0,2023-10-31T00:10:32.362Z,,0,2,,2753.183000000019,response,ISIC_0473135.JPG,7,ISIC_7702483.JPG,ISIC_7702483.JPG,false,0,keypress(z),500,485994.89999997616,485994.5,483224.651,483230.2000000477,483241.317,486007.873,8,400,42,,ISIC_0473135.JPG
break,html.Screen,4_91_1,2023-10-31T00:10:32.363Z,,0,,,NaN,,,,,,false,,,,485995.89999997616,485995.7000000477,,485995.2000000477,,486007.873,8,400,,,
break_continue,html.Screen,4_91_2,2023-10-31T00:10:32.363Z,,0,,,NaN,,,,,,false,,,,485996.2999999523,485996.2000000477,,485996,,486007.873,8,400,,,
sequence,flow.Sequence,4_91,2023-10-31T00:10:32.363Z,,0,,,2754.883000047703,completion,,,,,false,,,,485996.39999997616,485996.2000000477,483224.651,483230.10000002384,483241.317,486007.873,8,400,,,
trial,html.Screen,4_92_0,2023-10-31T00:10:35.823Z,,0,2,,3448.2270000238204,response,ISIC_0024321.JPG,8,ISIC_2244564.JPG,ISIC_0024321.JPG,false,1,keypress(m),500,489456.5,489456.10000002384,485991.207,485996.5,486007.873,489474.803,8,400,43,,ISIC_2244564.JPG
break,html.Screen,4_92_1,2023-10-31T00:10:35.824Z,,0,,,NaN,,,,,,false,,,,489457.5,489457.2999999523,,489456.89999997616,,489474.803,8,400,,,
break_continue,html.Screen,4_92_2,2023-10-31T00:10:35.825Z,,0,,,NaN,,,,,,false,,,,489457.89999997616,489457.7999999523,,489457.7000000477,,489474.803,8,400,,,
sequence,flow.Sequence,4_92,2023-10-31T00:10:35.825Z,,0,,,3449.926999952295,completion,,,,,false,,,,489458,489457.7999999523,485991.207,485996.39999997616,486007.873,489474.803,8,400,,,
trial,html.Screen,4_93_0,2023-10-31T00:10:38.722Z,,0,2,,2880.2970000238274,response,ISIC_9860895.JPG,7,ISIC_0034192.JPG,ISIC_0034192.JPG,false,0,keypress(z),500,492355.60000002384,492355.10000002384,489458.137,489458.10000002384,489474.803,492358.021,8,400,44,,ISIC_9860895.JPG
break,html.Screen,4_93_1,2023-10-31T00:10:38.723Z,,0,,,NaN,,,,,,false,,,,492356.60000002384,492356.2999999523,,492355.89999997616,,492358.021,8,400,,,
break_continue,html.Screen,4_93_2,2023-10-31T00:10:38.724Z,,0,,,NaN,,,,,,false,,,,492357,492356.7999999523,,492356.7000000477,,492358.021,8,400,,,
sequence,flow.Sequence,4_93,2023-10-31T00:10:38.724Z,,0,,,2881.996999952302,completion,,,,,false,,,,492357.10000002384,492356.7999999523,489458.137,489458.10000002384,489474.803,492358.021,8,400,,,
trial,html.Screen,4_94_0,2023-10-31T00:10:42.936Z,,0,2,,4210.579000023834,response,ISIC_5578611.JPG,8,ISIC_6207818.JPG,ISIC_5578611.JPG,false,1,keypress(m),500,496569.10000002384,496568.60000002384,492341.355,492357.2000000477,492358.021,496574.519,8,400,45,,ISIC_6207818.JPG
break,html.Screen,4_94_1,2023-10-31T00:10:42.937Z,,0,,,NaN,,,,,,false,,,,496570.10000002384,496569.89999997616,,496569.39999997616,,496574.519,8,400,,,
break_continue,html.Screen,4_94_2,2023-10-31T00:10:42.937Z,,0,,,NaN,,,,,,false,,,,496570.5,496570.2999999523,,496570.2000000477,,496574.519,8,400,,,
sequence,flow.Sequence,4_94,2023-10-31T00:10:42.937Z,,0,,,4212.278999952308,completion,,,,,false,,,,496570.7000000477,496570.2999999523,492341.355,492357.2000000477,492358.021,496574.519,8,400,,,
trial,html.Screen,4_95_0,2023-10-31T00:10:46.313Z,,0,2,,3371.481000000029,response,ISIC_0069791.JPG,8,ISIC_6323420.JPG,ISIC_0069791.JPG,false,1,keypress(m),500,499946.39999997616,499946,496557.853,496570.7999999523,496574.519,499958.062,8,400,46,,ISIC_6323420.JPG
break,html.Screen,4_95_1,2023-10-31T00:10:46.314Z,,0,,,NaN,,,,,,false,,,,499947.39999997616,499947.2000000477,,499946.7000000477,,499958.062,8,400,,,
break_continue,html.Screen,4_95_2,2023-10-31T00:10:46.315Z,,0,,,NaN,,,,,,false,,,,499947.7999999523,499947.7000000477,,499947.60000002384,,499958.062,8,400,,,
sequence,flow.Sequence,4_95,2023-10-31T00:10:46.315Z,,0,,,3373.1810000477126,completion,,,,,false,,,,499947.89999997616,499947.7000000477,496557.853,496570.7000000477,496574.519,499958.062,8,400,,,
trial,html.Screen,4_96_0,2023-10-31T00:10:49.745Z,,0,2,,3419.6380000477075,response,ISIC_0011696.JPG,9,ISIC_5149162.JPG,ISIC_5149162.JPG,false,0,keypress(z),500,503378.10000002384,503377.7000000477,499941.396,499948.10000002384,499958.062,503391.258,8,400,47,,ISIC_0011696.JPG
break,html.Screen,4_96_1,2023-10-31T00:10:49.746Z,,0,,,NaN,,,,,,false,,,,503379.10000002384,503378.89999997616,,503378.39999997616,,503391.258,8,400,,,
break_continue,html.Screen,4_96_2,2023-10-31T00:10:49.746Z,,0,,,NaN,,,,,,false,,,,503379.39999997616,503379.2999999523,,503379.2999999523,,503391.258,8,400,,,
sequence,flow.Sequence,4_96,2023-10-31T00:10:49.746Z,,0,,,3421.23799995234,completion,,,,,false,,,,503379.7000000477,503379.2999999523,499941.396,499948.10000002384,499958.062,503391.258,8,400,,,
trial,html.Screen,4_97_0,2023-10-31T00:10:52.946Z,,0,2,,3187.3420000238693,response,ISIC_0031070.JPG,8,ISIC_0055440.JPG,ISIC_0055440.JPG,false,0,keypress(z),500,506578.89999997616,506578.60000002384,503374.592,503379.7999999523,503391.258,506591.13,8,400,48,,ISIC_0031070.JPG
break,html.Screen,4_97_1,2023-10-31T00:10:52.947Z,,0,,,NaN,,,,,,false,,,,506580,506579.7000000477,,506579.2999999523,,506591.13,8,400,,,
break_continue,html.Screen,4_97_2,2023-10-31T00:10:52.947Z,,0,,,NaN,,,,,,false,,,,506580.2000000477,506580.2000000477,,506580.10000002384,,506591.13,8,400,,,
sequence,flow.Sequence,4_97,2023-10-31T00:10:52.947Z,,0,,,3188.942000047711,completion,,,,,false,,,,506580.39999997616,506580.2000000477,503374.592,503379.7999999523,503391.258,506591.13,8,400,,,
trial,html.Screen,4_98_0,2023-10-31T00:10:56.137Z,,0,2,,3179.1699999523116,response,ISIC_0024962.JPG,8,ISIC_6723937.JPG,ISIC_6723937.JPG,false,0,keypress(z),500,509770.7000000477,509770.2999999523,506574.464,506580.60000002384,506591.13,509774.336,8,400,49,,ISIC_0024962.JPG
break,html.Screen,4_98_1,2023-10-31T00:10:56.138Z,,0,,,NaN,,,,,,false,,,,509771.7000000477,509771.39999997616,,509771,,509774.336,8,400,,,
break_continue,html.Screen,4_98_2,2023-10-31T00:10:56.139Z,,0,,,NaN,,,,,,false,,,,509772,509771.89999997616,,509771.7999999523,,509774.336,8,400,,,
sequence,flow.Sequence,4_98,2023-10-31T00:10:56.139Z,,0,,,3180.7699999761535,completion,,,,,false,,,,509772.10000002384,509771.89999997616,506574.464,506580.60000002384,506591.13,509774.336,8,400,,,
trial,html.Screen,4_99_0,2023-10-31T00:10:59.536Z,,0,2,,3394.6639999999898,response,ISIC_0010757.JPG,5,ISIC_0033279.JPG,ISIC_0010757.JPG,false,1,keypress(m),500,513169.5,513169,509757.67,509772.2000000477,509774.336,513174.591,8,400,50,,ISIC_0033279.JPG
break,html.Screen,4_99_1,2023-10-31T00:11:09.530Z,,0,,,9999.962,timeout,,,,,false,,,,523162.89999997616,523157.887,513157.925,513169.7999999523,513174.591,523174.553,8,400,,,
break_continue,html.Screen,4_99_2,2023-10-31T00:11:10.837Z,,0,,,1280.8469999761437,response,,,,,false,continue,keypress(Space),,524470.5,524455.3999999762,523157.887,523163.10000002384,523174.553,524474.501,8,400,,,
sequence,flow.Sequence,4_99,2023-10-31T00:11:10.837Z,,0,,,14681.063999976148,completion,,,,,false,,,,524470.7000000477,524455.3999999762,509757.67,509772.2000000477,509774.336,524474.501,8,400,,,
trial,html.Screen,4_100_0,2023-10-31T00:11:14.272Z,,0,3,,3430.4989999999525,response,ISIC_0069996.JPG,8,ISIC_0026300.JPG,ISIC_0026300.JPG,false,0,keypress(z),500,527905.2999999523,527905,524457.835,524470.7999999523,524474.501,527907.697,8,400,1,,ISIC_0069996.JPG
break,html.Screen,4_100_1,2023-10-31T00:11:14.273Z,,0,,,NaN,,,,,,false,,,,527906.2000000477,527906,,527905.5,,527907.697,8,400,,,
break_continue,html.Screen,4_100_2,2023-10-31T00:11:14.273Z,,0,,,NaN,,,,,,false,,,,527906.6000000238,527906.5,,527906.3999999762,,527907.697,8,400,,,
sequence,flow.Sequence,4_100,2023-10-31T00:11:14.274Z,,0,,,3431.9989999999525,completion,,,,,false,,,,527906.7999999523,527906.5,524457.835,524470.7999999523,524474.501,527907.697,8,400,,,
trial,html.Screen,4_101_0,2023-10-31T00:11:17.127Z,,0,3,,2852.00300004764,response,ISIC_0034237.JPG,8,ISIC_0063521.JPG,ISIC_0063521.JPG,false,0,keypress(z),500,530760,530759.7000000477,527891.031,527906.8999999762,527907.697,530774.62,8,400,2,,ISIC_0034237.JPG
break,html.Screen,4_101_1,2023-10-31T00:11:17.128Z,,0,,,NaN,,,,,,false,,,,530761,530760.7999999523,,530760.3999999762,,530774.62,8,400,,,
break_continue,html.Screen,4_101_2,2023-10-31T00:11:17.128Z,,0,,,NaN,,,,,,false,,,,530761.2999999523,530761.2000000477,,530761.1000000238,,530774.62,8,400,,,
sequence,flow.Sequence,4_101,2023-10-31T00:11:17.128Z,,0,,,2853.50300004764,completion,,,,,false,,,,530761.5,530761.2000000477,527891.031,527906.7999999523,527907.697,530774.62,8,400,,,
trial,html.Screen,4_102_0,2023-10-31T00:11:19.915Z,,0,3,,2773.679999952321,response,ISIC_0624779.JPG,5,ISIC_0029711.JPG,ISIC_0624779.JPG,false,1,keypress(m),500,533548.7000000477,533548.2999999523,530757.954,530761.6000000238,530774.62,533557.842,8,400,3,,ISIC_0029711.JPG
break,html.Screen,4_102_1,2023-10-31T00:11:19.916Z,,0,,,NaN,,,,,,false,,,,533549.7000000477,533549.3999999762,,533548.8999999762,,533557.842,8,400,,,
break_continue,html.Screen,4_102_2,2023-10-31T00:11:19.917Z,,0,,,NaN,,,,,,false,,,,533550,533549.8999999762,,533549.7999999523,,533557.842,8,400,,,
sequence,flow.Sequence,4_102,2023-10-31T00:11:19.917Z,,0,,,2775.279999976163,completion,,,,,false,,,,533550.1000000238,533549.8999999762,530757.954,530761.6000000238,530774.62,533557.842,8,400,,,
trial,html.Screen,4_103_0,2023-10-31T00:11:22.665Z,,0,3,,2740.258000023896,response,ISIC_3378691.JPG,7,ISIC_0014703.JPG,ISIC_3378691.JPG,false,1,keypress(m),500,536298.5,536298.1000000238,533541.176,533550.3999999762,533557.842,536307.732,8,400,4,,ISIC_0014703.JPG
break,html.Screen,4_103_1,2023-10-31T00:11:22.666Z,,0,,,NaN,,,,,,false,,,,536299.6000000238,536299.2000000477,,536298.8999999762,,536307.732,8,400,,,
break_continue,html.Screen,4_103_2,2023-10-31T00:11:22.667Z,,0,,,NaN,,,,,,false,,,,536299.7999999523,536299.7999999523,,536299.6000000238,,536307.732,8,400,,,
sequence,flow.Sequence,4_103,2023-10-31T00:11:22.667Z,,0,,,2741.9579999523703,completion,,,,,false,,,,536300,536299.7999999523,533541.176,533550.2000000477,533557.842,536307.732,8,400,,,
trial,html.Screen,4_104_0,2023-10-31T00:11:25.136Z,,0,3,,2461.167999976198,response,ISIC_0033616.JPG,6,ISIC_6618851.JPG,ISIC_6618851.JPG,false,0,keypress(z),500,538769.2000000477,538768.8999999762,536291.066,536300.2000000477,536307.732,538774.3,8,400,5,,ISIC_0033616.JPG
break,html.Screen,4_104_1,2023-10-31T00:11:25.137Z,,0,,,NaN,,,,,,false,,,,538770.2000000477,538770,,538769.5,,538774.3,8,400,,,
break_continue,html.Screen,4_104_2,2023-10-31T00:11:25.137Z,,0,,,NaN,,,,,,false,,,,538770.5,538770.3999999762,,538770.2999999523,,538774.3,8,400,,,
sequence,flow.Sequence,4_104,2023-10-31T00:11:25.137Z,,0,,,2462.667999976198,completion,,,,,false,,,,538770.7000000477,538770.3999999762,536291.066,536300.1000000238,536307.732,538774.3,8,400,,,
trial,html.Screen,4_105_0,2023-10-31T00:11:27.825Z,,0,3,,2683.6999999999534,response,ISIC_0010124.JPG,9,ISIC_0025391.JPG,ISIC_0025391.JPG,false,0,keypress(z),500,541458.5,541458,538757.634,538770.8999999762,538774.3,541474.549,8,400,6,,ISIC_0010124.JPG
break,html.Screen,4_105_1,2023-10-31T00:11:27.826Z,,0,,,NaN,,,,,,false,,,,541459.5,541459.2000000477,,541458.7000000477,,541474.549,8,400,,,
break_continue,html.Screen,4_105_2,2023-10-31T00:11:27.827Z,,0,,,NaN,,,,,,false,,,,541459.7999999523,541459.7000000477,,541459.5,,541474.549,8,400,,,
sequence,flow.Sequence,4_105,2023-10-31T00:11:27.827Z,,0,,,2685.400000047637,completion,,,,,false,,,,541460,541459.7000000477,538757.634,538770.7999999523,538774.3,541474.549,8,400,,,
trial,html.Screen,4_106_0,2023-10-31T00:11:30.344Z,,0,3,,2502.350999976159,response,ISIC_4882123.JPG,8,ISIC_0060700.JPG,ISIC_4882123.JPG,false,1,keypress(m),500,543977.2999999523,543976.8999999762,541457.883,541460.1000000238,541474.549,543991.115,8,400,7,,ISIC_0060700.JPG
break,html.Screen,4_106_1,2023-10-31T00:11:30.345Z,,0,,,NaN,,,,,,false,,,,543978.2999999523,543978,,543977.6000000238,,543991.115,8,400,,,
break_continue,html.Screen,4_106_2,2023-10-31T00:11:30.345Z,,0,,,NaN,,,,,,false,,,,543978.6000000238,543978.5,,543978.3999999762,,543991.115,8,400,,,
sequence,flow.Sequence,4_106,2023-10-31T00:11:30.346Z,,0,,,2503.951000000001,completion,,,,,false,,,,543978.8999999762,543978.5,541457.883,541460.1000000238,541474.549,543991.115,8,400,,,
trial,html.Screen,4_107_0,2023-10-31T00:11:32.862Z,,0,3,,2503.8850000000093,response,ISIC_0068798.JPG,9,ISIC_0057009.JPG,ISIC_0068798.JPG,false,1,keypress(m),500,546495.3999999762,546495,543974.449,543979,543991.115,546507.681,8,400,8,,ISIC_0057009.JPG
break,html.Screen,4_107_1,2023-10-31T00:11:32.863Z,,0,,,NaN,,,,,,false,,,,546496.3999999762,546496.1000000238,,546495.7000000477,,546507.681,8,400,,,
break_continue,html.Screen,4_107_2,2023-10-31T00:11:32.863Z,,0,,,NaN,,,,,,false,,,,546496.7000000477,546496.6000000238,,546496.5,,546507.681,8,400,,,
sequence,flow.Sequence,4_107,2023-10-31T00:11:32.864Z,,0,,,2505.485000023851,completion,,,,,false,,,,546496.7999999523,546496.6000000238,543974.449,543978.8999999762,543991.115,546507.681,8,400,,,
trial,html.Screen,4_108_0,2023-10-31T00:11:35.637Z,,0,3,,2762.3190000000177,response,ISIC_8592235.JPG,8,ISIC_1389141.JPG,ISIC_1389141.JPG,false,0,keypress(z),500,549270.3999999762,549270,546491.015,546497,546507.681,549274.237,8,400,9,,ISIC_8592235.JPG
break,html.Screen,4_108_1,2023-10-31T00:11:35.638Z,,0,,,NaN,,,,,,false,,,,549271.3999999762,549271.2000000477,,549270.6000000238,,549274.237,8,400,,,
break_continue,html.Screen,4_108_2,2023-10-31T00:11:35.639Z,,0,,,NaN,,,,,,false,,,,549271.7000000477,549271.6000000238,,549271.5,,549274.237,8,400,,,
sequence,flow.Sequence,4_108,2023-10-31T00:11:35.639Z,,0,,,2763.9190000238596,completion,,,,,false,,,,549271.8999999762,549271.6000000238,546491.015,546497,546507.681,549274.237,8,400,,,
trial,html.Screen,4_109_0,2023-10-31T00:11:38.140Z,,0,3,,2498.3630000238772,response,ISIC_7980339.JPG,8,ISIC_0064563.JPG,ISIC_7980339.JPG,false,1,keypress(m),500,551773,551772.6000000238,549257.571,549272.1000000238,549274.237,551774.511,8,400,10,,ISIC_0064563.JPG
break,html.Screen,4_109_1,2023-10-31T00:11:38.141Z,,0,,,NaN,,,,,,false,,,,551774.1000000238,551773.7999999523,,551773.2999999523,,551774.511,8,400,,,
break_continue,html.Screen,4_109_2,2023-10-31T00:11:38.141Z,,0,,,NaN,,,,,,false,,,,551774.3999999762,551774.2999999523,,551774.1000000238,,551774.511,8,400,,,
sequence,flow.Sequence,4_109,2023-10-31T00:11:38.141Z,,0,,,2500.0629999523517,completion,,,,,false,,,,551774.6000000238,551774.2999999523,549257.571,549271.8999999762,549274.237,551774.511,8,400,,,
trial,html.Screen,4_110_0,2023-10-31T00:11:40.681Z,,0,3,,2539.488999999943,response,ISIC_7351939.JPG,7,ISIC_1018265.JPG,ISIC_1018265.JPG,false,0,keypress(z),500,554314.2999999523,554314,551757.845,551774.7000000477,551774.511,554324.409,8,400,11,,ISIC_7351939.JPG
break,html.Screen,4_110_1,2023-10-31T00:11:40.682Z,,0,,,NaN,,,,,,false,,,,554315.2999999523,554315,,554314.6000000238,,554324.409,8,400,,,
break_continue,html.Screen,4_110_2,2023-10-31T00:11:40.682Z,,0,,,NaN,,,,,,false,,,,554315.7000000477,554315.5,,554315.3999999762,,554324.409,8,400,,,
sequence,flow.Sequence,4_110,2023-10-31T00:11:40.683Z,,0,,,2540.988999999943,completion,,,,,false,,,,554315.7999999523,554315.5,551757.845,551774.7000000477,551774.511,554324.409,8,400,,,
trial,html.Screen,4_111_0,2023-10-31T00:11:43.232Z,,0,3,,2540.591000000015,response,ISIC_3288342.JPG,8,ISIC_8438811.JPG,ISIC_3288342.JPG,false,1,keypress(m),500,556865.3999999762,556865,554307.743,554316,554324.409,556874.307,8,400,12,,ISIC_8438811.JPG
break,html.Screen,4_111_1,2023-10-31T00:11:43.233Z,,0,,,NaN,,,,,,false,,,,556866.2999999523,556866.2000000477,,556865.7000000477,,556874.307,8,400,,,
break_continue,html.Screen,4_111_2,2023-10-31T00:11:43.234Z,,0,,,NaN,,,,,,false,,,,556866.7999999523,556866.6000000238,,556866.5,,556874.307,8,400,,,
sequence,flow.Sequence,4_111,2023-10-31T00:11:43.234Z,,0,,,2542.1910000238568,completion,,,,,false,,,,556866.8999999762,556866.6000000238,554307.743,554316,554324.409,556874.307,8,400,,,
trial,html.Screen,4_112_0,2023-10-31T00:11:45.796Z,,0,3,,2554.893000047654,response,ISIC_3478473.JPG,7,ISIC_0033319.JPG,ISIC_3478473.JPG,false,1,keypress(m),500,559429.7000000477,559429.2000000477,556857.641,556867,556874.307,559440.871,8,400,13,,ISIC_0033319.JPG
break,html.Screen,4_112_1,2023-10-31T00:11:45.798Z,,0,,,NaN,,,,,,false,,,,559430.7000000477,559430.5,,559430,,559440.871,8,400,,,
break_continue,html.Screen,4_112_2,2023-10-31T00:11:45.798Z,,0,,,NaN,,,,,,false,,,,559431.1000000238,559431,,559430.8999999762,,559440.871,8,400,,,
sequence,flow.Sequence,4_112,2023-10-31T00:11:45.798Z,,0,,,2556.69299999997,completion,,,,,false,,,,559431.2999999523,559431,556857.641,556867,556874.307,559440.871,8,400,,,
trial,html.Screen,4_113_0,2023-10-31T00:11:48.346Z,,0,3,,2538.128999999957,response,ISIC_5029636.JPG,8,ISIC_1576437.JPG,ISIC_5029636.JPG,false,1,keypress(m),500,561979.5,561979,559424.205,559431.5,559440.871,561991.12,8,400,14,,ISIC_1576437.JPG
break,html.Screen,4_113_1,2023-10-31T00:11:48.347Z,,0,,,NaN,,,,,,false,,,,561980.3999999762,561980.2000000477,,561979.7000000477,,561991.12,8,400,,,
break_continue,html.Screen,4_113_2,2023-10-31T00:11:48.348Z,,0,,,NaN,,,,,,false,,,,561980.7999999523,561980.7000000477,,561980.6000000238,,561991.12,8,400,,,
sequence,flow.Sequence,4_113,2023-10-31T00:11:48.348Z,,0,,,2539.829000047641,completion,,,,,false,,,,561981,561980.7000000477,559424.205,559431.3999999762,559440.871,561991.12,8,400,,,
trial,html.Screen,4_114_0,2023-10-31T00:11:51.114Z,,0,3,,2755.279999976163,response,ISIC_7138875.JPG,8,ISIC_8704257.JPG,ISIC_7138875.JPG,false,1,keypress(m),500,564746.7999999523,564746.3999999762,561974.454,561981.1000000238,561991.12,564757.676,8,400,15,,ISIC_8704257.JPG
break,html.Screen,4_114_1,2023-10-31T00:11:51.115Z,,0,,,NaN,,,,,,false,,,,564747.7999999523,564747.6000000238,,564747.1000000238,,564757.676,8,400,,,
break_continue,html.Screen,4_114_2,2023-10-31T00:11:51.115Z,,0,,,NaN,,,,,,false,,,,564748.2999999523,564748.1000000238,,564748,,564757.676,8,400,,,
sequence,flow.Sequence,4_114,2023-10-31T00:11:51.115Z,,0,,,2756.9800000238465,completion,,,,,false,,,,564748.3999999762,564748.1000000238,561974.454,561981,561991.12,564757.676,8,400,,,
trial,html.Screen,4_115_0,2023-10-31T00:11:53.936Z,,0,3,,2811.2239999761805,response,ISIC_0005261.JPG,7,ISIC_1693572.JPG,ISIC_1693572.JPG,false,0,keypress(z),500,567569.2999999523,567568.8999999762,564741.01,564748.5,564757.676,567574.23,8,400,16,,ISIC_0005261.JPG
break,html.Screen,4_115_1,2023-10-31T00:11:53.937Z,,0,,,NaN,,,,,,false,,,,567570.2000000477,567570,,567569.6000000238,,567574.23,8,400,,,
break_continue,html.Screen,4_115_2,2023-10-31T00:11:53.937Z,,0,,,NaN,,,,,,false,,,,567570.6000000238,567570.3999999762,,567570.3999999762,,567574.23,8,400,,,
sequence,flow.Sequence,4_115,2023-10-31T00:11:53.938Z,,0,,,2812.7239999761805,completion,,,,,false,,,,567570.7999999523,567570.3999999762,564741.01,564748.5,564757.676,567574.23,8,400,,,
trial,html.Screen,4_116_0,2023-10-31T00:11:57.253Z,,0,3,,3311.7700000000186,response,ISIC_0034140.JPG,8,ISIC_1083681.JPG,ISIC_1083681.JPG,false,0,keypress(z),500,570886.3999999762,570886,567557.564,567570.8999999762,567574.23,570890.764,8,400,17,,ISIC_0034140.JPG
break,html.Screen,4_116_1,2023-10-31T00:11:57.254Z,,0,,,NaN,,,,,,false,,,,570887.3999999762,570887.1000000238,,570886.7000000477,,570890.764,8,400,,,
break_continue,html.Screen,4_116_2,2023-10-31T00:11:57.255Z,,0,,,NaN,,,,,,false,,,,570887.7999999523,570887.6000000238,,570887.5,,570890.764,8,400,,,
sequence,flow.Sequence,4_116,2023-10-31T00:11:57.255Z,,0,,,3313.3700000238605,completion,,,,,false,,,,570887.8999999762,570887.6000000238,567557.564,567570.8999999762,567574.23,570890.764,8,400,,,
trial,html.Screen,4_117_0,2023-10-31T00:12:00.017Z,,0,3,,2758.9360000477172,response,ISIC_0001141.JPG,9,ISIC_0024756.JPG,ISIC_0001141.JPG,false,1,keypress(m),500,573650.1000000238,573649.7000000477,570874.098,570888,570890.764,573657.711,8,400,18,,ISIC_0024756.JPG
break,html.Screen,4_117_1,2023-10-31T00:12:00.018Z,,0,,,NaN,,,,,,false,,,,573651.1000000238,573650.8999999762,,573650.3999999762,,573657.711,8,400,,,
break_continue,html.Screen,4_117_2,2023-10-31T00:12:00.018Z,,0,,,NaN,,,,,,false,,,,573651.5,573651.3999999762,,573651.2000000477,,573657.711,8,400,,,
sequence,flow.Sequence,4_117,2023-10-31T00:12:00.018Z,,0,,,2760.6359999761917,completion,,,,,false,,,,573651.6000000238,573651.3999999762,570874.098,570888,570890.764,573657.711,8,400,,,
trial,html.Screen,4_118_0,2023-10-31T00:12:03.145Z,,0,3,,3119.588999952306,response,ISIC_0010770.JPG,8,ISIC_7852890.JPG,ISIC_0010770.JPG,false,1,keypress(m),500,576777.7000000477,576777.2999999523,573641.045,573651.7999999523,573657.711,576790.919,8,400,19,,ISIC_7852890.JPG
break,html.Screen,4_118_1,2023-10-31T00:12:03.146Z,,0,,,NaN,,,,,,false,,,,576778.7000000477,576778.5,,576778.1000000238,,576790.919,8,400,,,
break_continue,html.Screen,4_118_2,2023-10-31T00:12:03.146Z,,0,,,NaN,,,,,,false,,,,576779.1000000238,576779,,576778.8999999762,,576790.919,8,400,,,
sequence,flow.Sequence,4_118,2023-10-31T00:12:03.146Z,,0,,,3121.2889999999898,completion,,,,,false,,,,576779.2000000477,576779,573641.045,573651.7000000477,573657.711,576790.919,8,400,,,
trial,html.Screen,4_119_0,2023-10-31T00:12:05.805Z,,0,3,,2646.5810000000056,response,ISIC_3506204.JPG,8,ISIC_0068217.JPG,ISIC_3506204.JPG,false,1,keypress(m),500,579438,579437.5,576774.253,576779.3999999762,576790.919,579440.813,8,400,20,,ISIC_0068217.JPG
break,html.Screen,4_119_1,2023-10-31T00:12:05.806Z,,0,,,NaN,,,,,,false,,,,579438.8999999762,579438.7000000477,,579438.2000000477,,579440.813,8,400,,,
break_continue,html.Screen,4_119_2,2023-10-31T00:12:05.806Z,,0,,,NaN,,,,,,false,,,,579439.2999999523,579439.2000000477,,579439.1000000238,,579440.813,8,400,,,
sequence,flow.Sequence,4_119,2023-10-31T00:12:05.806Z,,0,,,2648.2810000476893,completion,,,,,false,,,,579439.3999999762,579439.2000000477,576774.253,576779.2999999523,576790.919,579440.813,8,400,,,
trial,html.Screen,4_120_0,2023-10-31T00:12:08.642Z,,0,3,,2833.9869999523507,response,ISIC_1027512.JPG,7,ISIC_4067693.JPG,ISIC_1027512.JPG,false,1,keypress(m),500,582275.2000000477,582274.7999999523,579424.147,579439.6000000238,579440.813,582290.699,8,400,21,,ISIC_4067693.JPG
break,html.Screen,4_120_1,2023-10-31T00:12:08.643Z,,0,,,NaN,,,,,,false,,,,582276.2000000477,582276,,582275.3999999762,,582290.699,8,400,,,
break_continue,html.Screen,4_120_2,2023-10-31T00:12:08.643Z,,0,,,NaN,,,,,,false,,,,582276.6000000238,582276.3999999762,,582276.3999999762,,582290.699,8,400,,,
sequence,flow.Sequence,4_120,2023-10-31T00:12:08.644Z,,0,,,2835.5869999761926,completion,,,,,false,,,,582276.7000000477,582276.3999999762,579424.147,579439.6000000238,579440.813,582290.699,8,400,,,
trial,html.Screen,4_121_0,2023-10-31T00:12:11.330Z,,0,3,,2672.100999952294,response,ISIC_0032540.JPG,7,ISIC_0283957.JPG,ISIC_0283957.JPG,false,0,keypress(z),500,584963.2000000477,584962.7999999523,582274.033,582276.8999999762,582290.699,584974.303,8,400,22,,ISIC_0032540.JPG
break,html.Screen,4_121_1,2023-10-31T00:12:11.331Z,,0,,,NaN,,,,,,false,,,,584964.2999999523,584964.1000000238,,584963.5,,584974.303,8,400,,,
break_continue,html.Screen,4_121_2,2023-10-31T00:12:11.331Z,,0,,,NaN,,,,,,false,,,,584964.7000000477,584964.5,,584964.3999999762,,584974.303,8,400,,,
sequence,flow.Sequence,4_121,2023-10-31T00:12:11.332Z,,0,,,2673.8009999999776,completion,,,,,false,,,,584964.7999999523,584964.5,582274.033,582276.8999999762,582290.699,584974.303,8,400,,,
trial,html.Screen,4_122_0,2023-10-31T00:12:13.977Z,,0,3,,2635.596999976202,response,ISIC_0033121.JPG,8,ISIC_9574101.JPG,ISIC_9574101.JPG,false,0,keypress(z),500,587610.2999999523,587609.8999999762,584957.637,584964.8999999762,584974.303,587624.197,8,400,23,,ISIC_0033121.JPG
break,html.Screen,4_122_1,2023-10-31T00:12:13.978Z,,0,,,NaN,,,,,,false,,,,587611.5,587611.2000000477,,587610.7000000477,,587624.197,8,400,,,
break_continue,html.Screen,4_122_2,2023-10-31T00:12:13.979Z,,0,,,NaN,,,,,,false,,,,587611.7999999523,587611.7000000477,,587611.6000000238,,587624.197,8,400,,,
sequence,flow.Sequence,4_122,2023-10-31T00:12:13.979Z,,0,,,2637.3970000477275,completion,,,,,false,,,,587612,587611.7000000477,584957.637,584964.8999999762,584974.303,587624.197,8,400,,,
trial,html.Screen,4_123_0,2023-10-31T00:12:16.921Z,,0,3,,2929.903000023798,response,ISIC_0028410.JPG,7,ISIC_0054705.JPG,ISIC_0054705.JPG,false,0,keypress(z),500,590554.5,590554.1000000238,587607.531,587612.1000000238,587624.197,590557.413,8,400,24,,ISIC_0028410.JPG
break,html.Screen,4_123_1,2023-10-31T00:12:16.922Z,,0,,,NaN,,,,,,false,,,,590555.5,590555.2000000477,,590554.7999999523,,590557.413,8,400,,,
break_continue,html.Screen,4_123_2,2023-10-31T00:12:16.923Z,,0,,,NaN,,,,,,false,,,,590555.7999999523,590555.6000000238,,590555.5,,590557.413,8,400,,,
sequence,flow.Sequence,4_123,2023-10-31T00:12:16.923Z,,0,,,2931.403000023798,completion,,,,,false,,,,590555.8999999762,590555.6000000238,587607.531,587612.1000000238,587624.197,590557.413,8,400,,,
trial,html.Screen,4_124_0,2023-10-31T00:12:19.840Z,,0,3,,2914.886999952374,response,ISIC_4967639.JPG,5,ISIC_0032975.JPG,ISIC_4967639.JPG,false,1,keypress(m),500,593472.7000000477,593472.2999999523,590540.747,590556.1000000238,590557.413,593474.342,8,400,25,,ISIC_0032975.JPG
break,html.Screen,4_124_1,2023-10-31T00:12:19.841Z,,0,,,NaN,,,,,,false,,,,593473.6000000238,593473.3999999762,,593473,,593474.342,8,400,,,
break_continue,html.Screen,4_124_2,2023-10-31T00:12:19.841Z,,0,,,NaN,,,,,,false,,,,593474.1000000238,593473.8999999762,,593473.7999999523,,593474.342,8,400,,,
sequence,flow.Sequence,4_124,2023-10-31T00:12:19.841Z,,0,,,2916.486999976216,completion,,,,,false,,,,593474.2000000477,593473.8999999762,590540.747,590556,590557.413,593474.342,8,400,,,
trial,html.Screen,4_125_0,2023-10-31T00:12:22.966Z,,0,3,,3124.8580000477377,response,ISIC_1328488.JPG,7,ISIC_9742891.JPG,ISIC_9742891.JPG,false,0,keypress(z),500,596599.7000000477,596599.2000000477,593457.676,593474.3999999762,593474.342,596607.55,8,400,26,,ISIC_1328488.JPG
break,html.Screen,4_125_1,2023-10-31T00:12:22.967Z,,0,,,NaN,,,,,,false,,,,596600.7000000477,596600.3999999762,,596600,,596607.55,8,400,,,
break_continue,html.Screen,4_125_2,2023-10-31T00:12:22.968Z,,0,,,NaN,,,,,,false,,,,596601,596600.8999999762,,596600.7000000477,,596607.55,8,400,,,
sequence,flow.Sequence,4_125,2023-10-31T00:12:22.968Z,,0,,,3126.557999976212,completion,,,,,false,,,,596601.2000000477,596600.8999999762,593457.676,593474.2999999523,593474.342,596607.55,8,400,,,
trial,html.Screen,4_126_0,2023-10-31T00:12:25.576Z,,0,3,,2601.650000047637,response,ISIC_0732375.JPG,8,ISIC_8363069.JPG,ISIC_0732375.JPG,false,1,keypress(m),500,599209.6000000238,599209.2000000477,596590.884,596601.2000000477,596607.55,599224.112,8,400,27,,ISIC_8363069.JPG
