sender,sender_type,sender_id,timestamp,meta,,blockNo,condition,duration,ended_on,img_left,img_reveal,img_right,loser,practice,response,response_action,selection_duration,time_commit,time_end,time_render,time_run,time_show,time_switch,total_blocks,total_trials,trialNo,url,winner
informed_consent,html.Screen,0,2023-11-01T16:10:21.740Z,"{""labjs_version"":""20.2.4"",""labjs_build"":{""flavor"":""production"",""commit"":""f5b4a49f956347addd546a832a3327688c2c0fef""},""location"":""https://run.pavlovia.org/MurrayBennett/melanoma-2afc/?participant=65959&platform=sona"",""userAgent"":""Mozilla/5.0 (Macintosh; Intel Mac OS X 10_15_7) AppleWebKit/605.1.15 (KHTML, like Gecko) Version/14.1.1 Safari/605.1.15"",""platform"":""MacIntel"",""language"":""en-us"",""locale"":""en-US"",""timeZone"":""America/Chicago"",""timezoneOffset"":300,""screen_width"":1440,""screen_height"":900,""scroll_width"":1440,""scroll_height"":772,""window_innerWidth"":1440,""window_innerHeight"":820,""devicePixelRatio"":2}",,,,5444,response,,,,,,consent,click button,,7137,7122,1678,1647,1689,7167,,,,"{""participant"":""65959"",""platform"":""sona""}",
Welcome,html.Screen,1,2023-11-01T16:10:33.120Z,,,,asymmetry,11351,response,,,,,,continue,click button,,18517,18501,7150,7137,7167,18550,,,,,
trial,html.Screen,2_0_0,2023-11-01T16:10:40.137Z,,0,0,,7000,response,ISIC_6997061.JPG,,ISIC_0069348.JPG,ISIC_6997061.JPG,true,1,keypress(m),500,25534,25534,18534,18519.000000000004,18550,25567,1,6,1,,ISIC_0069348.JPG
sequence,flow.Sequence,2_0,2023-11-01T16:10:40.138Z,,0,,,6984,completion,,,,,true,,,,25535,25534,18534,18519.000000000004,18550,25567,1,6,,,
trial,html.Screen,2_1_0,2023-11-01T16:10:47.292Z,,0,0,,7138.000000000004,response,ISIC_0057368.JPG,,ISIC_0009529.JPG,ISIC_0009529.JPG,true,0,keypress(z),500,32689,32688.000000000004,25550,25535,25567,32734,1,6,2,,ISIC_0057368.JPG
sequence,flow.Sequence,2_1,2023-11-01T16:10:47.293Z,,0,,,7121.000000000004,completion,,,,,true,,,,32689.999999999996,32688.000000000004,25550,25535,25567,32734,1,6,,,
trial,html.Screen,2_2_0,2023-11-01T16:10:54.202Z,,0,0,,6881,response,ISIC_9758671.JPG,,ISIC_0064954.JPG,ISIC_0064954.JPG,true,0,keypress(z),500,39599.00000000001,39598,32717,32689.999999999996,32734,39634,1,6,3,,ISIC_9758671.JPG
sequence,flow.Sequence,2_2,2023-11-01T16:10:54.202Z,,0,,,6864,completion,,,,,true,,,,39599.00000000001,39598,32717,32689.999999999996,32734,39634,1,6,,,
trial,html.Screen,2_3_0,2023-11-01T16:10:59.458Z,,0,0,,5237,response,ISIC_0000080.JPG,,ISIC_0005785.JPG,ISIC_0000080.JPG,true,1,keypress(m),500,44855.00000000001,44854,39617,39600,39634,44883,1,6,4,,ISIC_0005785.JPG
sequence,flow.Sequence,2_3,2023-11-01T16:10:59.458Z,,0,,,5220,completion,,,,,true,,,,44855.00000000001,44854,39617,39600,39634,44883,1,6,,,
trial,html.Screen,2_4_0,2023-11-01T16:11:10.972Z,,0,0,,11518,timeout,ISIC_7944028.JPG,,ISIC_5390060.JPG,,true,,,500,56369,56368,44867,44856,44883,56401,1,6,5,,
sequence,flow.Sequence,2_4,2023-11-01T16:11:10.972Z,,0,,,11485,completion,,,,,true,,,,56369,56368,44867,44856,44883,56401,1,6,,,
trial,html.Screen,2_5_0,2023-11-01T16:11:15.818Z,,0,0,,4831,response,ISIC_0010188.JPG,,ISIC_0794216.JPG,ISIC_0794216.JPG,true,0,keypress(z),500,61215,61215,56384,56370.00000000001,56401,61251,1,6,6,,ISIC_0010188.JPG
sequence,flow.Sequence,2_5,2023-11-01T16:11:15.819Z,,0,,,4814,completion,,,,,true,,,,61216,61215,56384,56369,56401,61251,1,6,,,
loop,flow.Loop,2,2023-11-01T16:11:15.819Z,,,,,42665,completion,,,,,true,,,,61216,61215,18534,18519.000000000004,18550,61251,1,6,,,
exp_instructions,html.Screen,3,2023-11-01T16:11:19.270Z,,,,,3412,response,,,,,,continue,keypress(Space),,64667,64646,61234,61217,61251,64701,,,,,
trial,html.Screen,4_0_0,2023-11-01T16:11:24.270Z,,0,1,,4982,response,ISIC_0034087.JPG,5,ISIC_0030641.JPG,ISIC_0030641.JPG,false,0,keypress(z),500,69667,69666,64684,64667,64701,69701,8,400,1,,ISIC_0034087.JPG
break,html.Screen,4_0_1,2023-11-01T16:11:24.271Z,,0,,,NaN,,,,,,false,,,,69668,69668,,69667,,69701,8,400,,,
break_continue,html.Screen,4_0_2,2023-11-01T16:11:24.272Z,,0,,,NaN,,,,,,false,,,,69669,69669,,69669,,69701,8,400,,,
sequence,flow.Sequence,4_0,2023-11-01T16:11:24.273Z,,0,,,4968,completion,,,,,false,,,,69669,69669,64684,64667,64701,69701,8,400,,,
trial,html.Screen,4_1_0,2023-11-01T16:11:27.379Z,,0,1,,3091,response,ISIC_0011959.JPG,11,ISIC_7511557.JPG,ISIC_7511557.JPG,false,0,keypress(z),500,72776,72775,69684,69670,69701,72817,8,400,2,,ISIC_0011959.JPG
break,html.Screen,4_1_1,2023-11-01T16:11:27.381Z,,0,,,NaN,,,,,,false,,,,72777,72777,,72776,,72817,8,400,,,
break_continue,html.Screen,4_1_2,2023-11-01T16:11:27.381Z,,0,,,NaN,,,,,,false,,,,72778,72778,,72778,,72817,8,400,,,
sequence,flow.Sequence,4_1,2023-11-01T16:11:27.381Z,,0,,,3077,completion,,,,,false,,,,72778,72778,69684,69670,69701,72817,8,400,,,
trial,html.Screen,4_2_0,2023-11-01T16:11:30.228Z,,0,1,,2825,response,ISIC_0060707.JPG,6,ISIC_2167209.JPG,ISIC_2167209.JPG,false,0,keypress(z),500,75625,75625,72800,72779,72817,75668,8,400,3,,ISIC_0060707.JPG
break,html.Screen,4_2_1,2023-11-01T16:11:30.230Z,,0,,,NaN,,,,,,false,,,,75627,75626,,75626,,75668,8,400,,,
break_continue,html.Screen,4_2_2,2023-11-01T16:11:30.230Z,,0,,,NaN,,,,,,false,,,,75627,75627,,75627,,75668,8,400,,,
sequence,flow.Sequence,4_2,2023-11-01T16:11:30.230Z,,0,,,2810,completion,,,,,false,,,,75627,75627,72800,72779,72817,75668,8,400,,,
trial,html.Screen,4_3_0,2023-11-01T16:11:33.021Z,,0,1,,2766,response,ISIC_0064318.JPG,5,ISIC_0253516.JPG,ISIC_0253516.JPG,false,0,keypress(z),500,78418,78417,75651,75627,75668,78450,8,400,4,,ISIC_0064318.JPG
break,html.Screen,4_3_1,2023-11-01T16:11:33.022Z,,0,,,NaN,,,,,,false,,,,78419,78418,,78418,,78450,8,400,,,
break_continue,html.Screen,4_3_2,2023-11-01T16:11:33.022Z,,0,,,NaN,,,,,,false,,,,78419,78419,,78419,,78450,8,400,,,
sequence,flow.Sequence,4_3,2023-11-01T16:11:33.023Z,,0,,,2751,completion,,,,,false,,,,78419,78419,75651,75627,75668,78450,8,400,,,
trial,html.Screen,4_4_0,2023-11-01T16:11:35.738Z,,0,1,,2700,response,ISIC_7475827.JPG,10,ISIC_9152603.JPG,ISIC_9152603.JPG,false,0,keypress(z),500,81135,81134,78434,78420,78450,81168,8,400,5,,ISIC_7475827.JPG
break,html.Screen,4_4_1,2023-11-01T16:11:35.739Z,,0,,,NaN,,,,,,false,,,,81136,81136,,81135,,81168,8,400,,,
break_continue,html.Screen,4_4_2,2023-11-01T16:11:35.739Z,,0,,,NaN,,,,,,false,,,,81136,81136,,81136,,81168,8,400,,,
sequence,flow.Sequence,4_4,2023-11-01T16:11:35.740Z,,0,,,2686,completion,,,,,false,,,,81137,81136,78434,78420,78450,81168,8,400,,,
trial,html.Screen,4_5_0,2023-11-01T16:11:38.612Z,,0,1,,2857,response,ISIC_3212781.JPG,1,ISIC_1782545.JPG,ISIC_3212781.JPG,false,1,keypress(m),500,84009,84008,81151,81137,81168,84050,8,400,6,,ISIC_1782545.JPG
break,html.Screen,4_5_1,2023-11-01T16:11:38.614Z,,0,,,NaN,,,,,,false,,,,84010,84010,,84010,,84050,8,400,,,
break_continue,html.Screen,4_5_2,2023-11-01T16:11:38.614Z,,0,,,NaN,,,,,,false,,,,84011,84011,,84011,,84050,8,400,,,
sequence,flow.Sequence,4_5,2023-11-01T16:11:38.614Z,,0,,,2843,completion,,,,,false,,,,84011,84011,81151,81137,81168,84050,8,400,,,
trial,html.Screen,4_6_0,2023-11-01T16:11:41.581Z,,0,1,,2943,response,ISIC_5333058.JPG,3,ISIC_5650816.JPG,ISIC_5333058.JPG,false,1,keypress(m),500,86978.00000000001,86977,84034,84011,84050,87018,8,400,7,,ISIC_5650816.JPG
break,html.Screen,4_6_1,2023-11-01T16:11:41.582Z,,0,,,NaN,,,,,,false,,,,86979,86979,,86978.00000000001,,87018,8,400,,,
break_continue,html.Screen,4_6_2,2023-11-01T16:11:41.582Z,,0,,,NaN,,,,,,false,,,,86979,86979,,86979,,87018,8,400,,,
sequence,flow.Sequence,4_6,2023-11-01T16:11:41.583Z,,0,,,2929,completion,,,,,false,,,,86980,86979,84034,84011,84050,87018,8,400,,,
trial,html.Screen,4_7_0,2023-11-01T16:11:45.405Z,,0,1,,3800,response,ISIC_6937905.JPG,5,ISIC_3942075.JPG,ISIC_6937905.JPG,false,1,keypress(m),500,90801,90801,87001,86980,87018,90833,8,400,8,,ISIC_3942075.JPG
break,html.Screen,4_7_1,2023-11-01T16:11:45.406Z,,0,,,NaN,,,,,,false,,,,90803,90802,,90802,,90833,8,400,,,
break_continue,html.Screen,4_7_2,2023-11-01T16:11:45.407Z,,0,,,NaN,,,,,,false,,,,90804,90803,,90803,,90833,8,400,,,
sequence,flow.Sequence,4_7,2023-11-01T16:11:45.408Z,,0,,,3785,completion,,,,,false,,,,90804,90803,87001,86980,87018,90833,8,400,,,
trial,html.Screen,4_8_0,2023-11-01T16:11:48.165Z,,0,1,,2743,response,ISIC_9667908.JPG,12,ISIC_1334038.JPG,ISIC_9667908.JPG,false,1,keypress(m),500,93562,93561,90818,90805,90833,93600,8,400,9,,ISIC_1334038.JPG
break,html.Screen,4_8_1,2023-11-01T16:11:48.166Z,,0,,,NaN,,,,,,false,,,,93563,93563,,93562,,93600,8,400,,,
break_continue,html.Screen,4_8_2,2023-11-01T16:11:48.166Z,,0,,,NaN,,,,,,false,,,,93563,93563,,93563,,93600,8,400,,,
sequence,flow.Sequence,4_8,2023-11-01T16:11:48.167Z,,0,,,2730,completion,,,,,false,,,,93563,93563,90818,90805,90833,93600,8,400,,,
trial,html.Screen,4_9_0,2023-11-01T16:11:51.586Z,,0,1,,3399,response,ISIC_4887874.JPG,7,ISIC_0028341.JPG,ISIC_0028341.JPG,false,0,keypress(z),500,96982,96982,93583,93564,93600,97001,8,400,10,,ISIC_4887874.JPG
break,html.Screen,4_9_1,2023-11-01T16:11:51.587Z,,0,,,NaN,,,,,,false,,,,96984.00000000001,96983,,96983,,97001,8,400,,,
break_continue,html.Screen,4_9_2,2023-11-01T16:11:51.587Z,,0,,,NaN,,,,,,false,,,,96984.00000000001,96984.00000000001,,96984.00000000001,,97001,8,400,,,
sequence,flow.Sequence,4_9,2023-11-01T16:11:51.587Z,,0,,,3384.0000000000146,completion,,,,,false,,,,96984.00000000001,96984.00000000001,93583,93564,93600,97001,8,400,,,
trial,html.Screen,4_10_0,2023-11-01T16:11:54.265Z,,0,1,,2674,response,ISIC_9442018.JPG,14,ISIC_0015969.JPG,ISIC_9442018.JPG,false,1,keypress(m),500,99662,99661,96987,96984.00000000001,97001,99701,8,400,11,,ISIC_0015969.JPG
break,html.Screen,4_10_1,2023-11-01T16:11:54.266Z,,0,,,NaN,,,,,,false,,,,99663,99663,,99662,,99701,8,400,,,
break_continue,html.Screen,4_10_2,2023-11-01T16:11:54.267Z,,0,,,NaN,,,,,,false,,,,99663,99663,,99663,,99701,8,400,,,
sequence,flow.Sequence,4_10,2023-11-01T16:11:54.267Z,,0,,,2662,completion,,,,,false,,,,99664,99663,96987,96984.00000000001,97001,99701,8,400,,,
trial,html.Screen,4_11_0,2023-11-01T16:11:56.920Z,,0,1,,2632,response,ISIC_0030596.JPG,8,ISIC_0001100.JPG,ISIC_0030596.JPG,false,1,keypress(m),500,102317,102316,99684,99664,99701,102350,8,400,12,,ISIC_0001100.JPG
break,html.Screen,4_11_1,2023-11-01T16:11:56.922Z,,0,,,NaN,,,,,,false,,,,102319,102318,,102317,,102350,8,400,,,
break_continue,html.Screen,4_11_2,2023-11-01T16:11:56.922Z,,0,,,NaN,,,,,,false,,,,102319,102319,,102319,,102350,8,400,,,
sequence,flow.Sequence,4_11,2023-11-01T16:11:56.923Z,,0,,,2618,completion,,,,,false,,,,102319,102319,99684,99664,99701,102350,8,400,,,
trial,html.Screen,4_12_0,2023-11-01T16:11:59.863Z,,0,1,,2925,response,ISIC_9485536.JPG,8,ISIC_2432848.JPG,ISIC_9485536.JPG,false,1,keypress(m),500,105259,105259,102334,102320.00000000001,102350,105301,8,400,13,,ISIC_2432848.JPG
break,html.Screen,4_12_1,2023-11-01T16:11:59.864Z,,0,,,NaN,,,,,,false,,,,105261,105261,,105260,,105301,8,400,,,
break_continue,html.Screen,4_12_2,2023-11-01T16:11:59.864Z,,0,,,NaN,,,,,,false,,,,105261,105261,,105261,,105301,8,400,,,
sequence,flow.Sequence,4_12,2023-11-01T16:11:59.865Z,,0,,,2911,completion,,,,,false,,,,105262,105261,102334,102320.00000000001,102350,105301,8,400,,,
trial,html.Screen,4_13_0,2023-11-01T16:12:02.489Z,,0,1,,2601,response,ISIC_0026352.JPG,9,ISIC_4796100.JPG,ISIC_4796100.JPG,false,0,keypress(z),500,107885,107885,105284,105262,105301,107918,8,400,14,,ISIC_0026352.JPG
break,html.Screen,4_13_1,2023-11-01T16:12:02.490Z,,0,,,NaN,,,,,,false,,,,107887,107886,,107886,,107918,8,400,,,
break_continue,html.Screen,4_13_2,2023-11-01T16:12:02.491Z,,0,,,NaN,,,,,,false,,,,107887,107887,,107887,,107918,8,400,,,
sequence,flow.Sequence,4_13,2023-11-01T16:12:02.491Z,,0,,,2586,completion,,,,,false,,,,107888,107887,105284,105262,105301,107918,8,400,,,
trial,html.Screen,4_14_0,2023-11-01T16:12:05.145Z,,0,1,,2640,response,ISIC_0027964.JPG,10,ISIC_0004042.JPG,ISIC_0004042.JPG,false,0,keypress(z),500,110542,110541,107901,107888,107918,110585,8,400,15,,ISIC_0027964.JPG
break,html.Screen,4_14_1,2023-11-01T16:12:05.146Z,,0,,,NaN,,,,,,false,,,,110543,110543,,110542,,110585,8,400,,,
break_continue,html.Screen,4_14_2,2023-11-01T16:12:05.147Z,,0,,,NaN,,,,,,false,,,,110543,110543,,110543,,110585,8,400,,,
sequence,flow.Sequence,4_14,2023-11-01T16:12:05.147Z,,0,,,2625,completion,,,,,false,,,,110544,110543,107901,107888,107918,110585,8,400,,,
trial,html.Screen,4_15_0,2023-11-01T16:12:08.216Z,,0,1,,3044.0000000000146,response,ISIC_6974830.JPG,5,ISIC_0069556.JPG,ISIC_0069556.JPG,false,0,keypress(z),500,113613,113612.00000000001,110568,110544,110585,113651,8,400,16,,ISIC_6974830.JPG
break,html.Screen,4_15_1,2023-11-01T16:12:08.217Z,,0,,,NaN,,,,,,false,,,,113614,113614,,113613,,113651,8,400,,,
break_continue,html.Screen,4_15_2,2023-11-01T16:12:08.218Z,,0,,,NaN,,,,,,false,,,,113615.00000000001,113615.00000000001,,113614,,113651,8,400,,,
sequence,flow.Sequence,4_15,2023-11-01T16:12:08.218Z,,0,,,3030.0000000000146,completion,,,,,false,,,,113615.00000000001,113615.00000000001,110568,110544,110585,113651,8,400,,,
trial,html.Screen,4_16_0,2023-11-01T16:12:11.028Z,,0,1,,2791,response,ISIC_0025735.JPG,8,ISIC_0014542.JPG,ISIC_0014542.JPG,false,0,keypress(z),500,116425,116425,113634,113615.00000000001,113651,116467,8,400,17,,ISIC_0025735.JPG
break,html.Screen,4_16_1,2023-11-01T16:12:11.030Z,,0,,,NaN,,,,,,false,,,,116426,116426,,116425,,116467,8,400,,,
break_continue,html.Screen,4_16_2,2023-11-01T16:12:11.030Z,,0,,,NaN,,,,,,false,,,,116427,116427,,116427,,116467,8,400,,,
sequence,flow.Sequence,4_16,2023-11-01T16:12:11.031Z,,0,,,2776,completion,,,,,false,,,,116427,116427,113634,113615.00000000001,113651,116467,8,400,,,
trial,html.Screen,4_17_0,2023-11-01T16:12:13.571Z,,0,1,,2516,response,ISIC_0072353.JPG,7,ISIC_0062530.JPG,ISIC_0062530.JPG,false,0,keypress(z),500,118967,118967,116451,116428,116467,119001,8,400,18,,ISIC_0072353.JPG
break,html.Screen,4_17_1,2023-11-01T16:12:13.572Z,,0,,,NaN,,,,,,false,,,,118968,118968,,118968,,119001,8,400,,,
break_continue,html.Screen,4_17_2,2023-11-01T16:12:13.572Z,,0,,,NaN,,,,,,false,,,,118969.00000000001,118969.00000000001,,118969.00000000001,,119001,8,400,,,
sequence,flow.Sequence,4_17,2023-11-01T16:12:13.572Z,,0,,,2502.0000000000146,completion,,,,,false,,,,118969.00000000001,118969.00000000001,116451,116428,116467,119001,8,400,,,
trial,html.Screen,4_18_0,2023-11-01T16:12:16.160Z,,0,1,,2572,response,ISIC_4357596.JPG,10,ISIC_0013972.JPG,ISIC_4357596.JPG,false,1,keypress(m),500,121557,121556,118984,118969.00000000001,119001,121600,8,400,19,,ISIC_0013972.JPG
break,html.Screen,4_18_1,2023-11-01T16:12:16.161Z,,0,,,NaN,,,,,,false,,,,121558,121558,,121557,,121600,8,400,,,
break_continue,html.Screen,4_18_2,2023-11-01T16:12:16.162Z,,0,,,NaN,,,,,,false,,,,121559,121559,,121559,,121600,8,400,,,
sequence,flow.Sequence,4_18,2023-11-01T16:12:16.162Z,,0,,,2558,completion,,,,,false,,,,121559,121559,118984,118969.00000000001,119001,121600,8,400,,,
trial,html.Screen,4_19_0,2023-11-01T16:12:18.760Z,,0,1,,2571,response,ISIC_0413173.JPG,7,ISIC_0025500.JPG,ISIC_0413173.JPG,false,1,keypress(m),500,124157,124156,121585,121559,121600,124185,8,400,20,,ISIC_0025500.JPG
break,html.Screen,4_19_1,2023-11-01T16:12:18.761Z,,0,,,NaN,,,,,,false,,,,124158,124158,,124157,,124185,8,400,,,
break_continue,html.Screen,4_19_2,2023-11-01T16:12:18.762Z,,0,,,NaN,,,,,,false,,,,124158,124158,,124158,,124185,8,400,,,
sequence,flow.Sequence,4_19,2023-11-01T16:12:18.762Z,,0,,,2558,completion,,,,,false,,,,124159,124158,121585,121559,121600,124185,8,400,,,
trial,html.Screen,4_20_0,2023-11-01T16:12:21.506Z,,0,1,,2734,response,ISIC_0210998.JPG,6,ISIC_4136663.JPG,ISIC_4136663.JPG,false,0,keypress(z),500,126903,126902,124168,124159,124185,126935,8,400,21,,ISIC_0210998.JPG
break,html.Screen,4_20_1,2023-11-01T16:12:21.507Z,,0,,,NaN,,,,,,false,,,,126904,126903,,126903,,126935,8,400,,,
break_continue,html.Screen,4_20_2,2023-11-01T16:12:21.507Z,,0,,,NaN,,,,,,false,,,,126904,126904,,126904,,126935,8,400,,,
sequence,flow.Sequence,4_20,2023-11-01T16:12:21.508Z,,0,,,2719,completion,,,,,false,,,,126904,126904,124168,124159,124185,126935,8,400,,,
trial,html.Screen,4_21_0,2023-11-01T16:12:24.089Z,,0,1,,2567.0000000000146,response,ISIC_0029898.JPG,11,ISIC_9337870.JPG,ISIC_9337870.JPG,false,0,keypress(z),500,129485.00000000001,129485.00000000001,126918,126905,126935,129517,8,400,22,,ISIC_0029898.JPG
break,html.Screen,4_21_1,2023-11-01T16:12:24.090Z,,0,,,NaN,,,,,,false,,,,129485.99999999999,129485.99999999999,,129485.99999999999,,129517,8,400,,,
break_continue,html.Screen,4_21_2,2023-11-01T16:12:24.090Z,,0,,,NaN,,,,,,false,,,,129487,129487,,129487,,129517,8,400,,,
sequence,flow.Sequence,4_21,2023-11-01T16:12:24.090Z,,0,,,2552,completion,,,,,false,,,,129487,129487,126918,126905,126935,129517,8,400,,,
trial,html.Screen,4_22_0,2023-11-01T16:12:26.762Z,,0,1,,2657.000000000029,response,ISIC_0066114.JPG,11,ISIC_0011057.JPG,ISIC_0011057.JPG,false,0,keypress(z),500,132159,132158.00000000003,129501,129487,129517,132201,8,400,23,,ISIC_0066114.JPG
break,html.Screen,4_22_1,2023-11-01T16:12:26.763Z,,0,,,NaN,,,,,,false,,,,132160,132160,,132159,,132201,8,400,,,
break_continue,html.Screen,4_22_2,2023-11-01T16:12:26.763Z,,0,,,NaN,,,,,,false,,,,132160,132160,,132160,,132201,8,400,,,
sequence,flow.Sequence,4_22,2023-11-01T16:12:26.764Z,,0,,,2643,completion,,,,,false,,,,132160,132160,129501,129487,129517,132201,8,400,,,
trial,html.Screen,4_23_0,2023-11-01T16:12:29.872Z,,0,1,,3083,response,ISIC_0000154.JPG,9,ISIC_4927943.JPG,ISIC_4927943.JPG,false,0,keypress(z),500,135269,135268,132185,132160,132201,135301,8,400,24,,ISIC_0000154.JPG
break,html.Screen,4_23_1,2023-11-01T16:12:29.874Z,,0,,,NaN,,,,,,false,,,,135270,135270,,135269,,135301,8,400,,,
break_continue,html.Screen,4_23_2,2023-11-01T16:12:29.874Z,,0,,,NaN,,,,,,false,,,,135271.00000000003,135271.00000000003,,135270,,135301,8,400,,,
sequence,flow.Sequence,4_23,2023-11-01T16:12:29.874Z,,0,,,3070.000000000029,completion,,,,,false,,,,135271.00000000003,135271.00000000003,132185,132160,132201,135301,8,400,,,
trial,html.Screen,4_24_0,2023-11-01T16:12:32.436Z,,0,1,,2547,response,ISIC_0046741.JPG,9,ISIC_9760652.JPG,ISIC_9760652.JPG,false,0,keypress(z),500,137833,137832,135285,135271.00000000003,135301,137868,8,400,25,,ISIC_0046741.JPG
break,html.Screen,4_24_1,2023-11-01T16:12:32.438Z,,0,,,NaN,,,,,,false,,,,137834,137834,,137833,,137868,8,400,,,
break_continue,html.Screen,4_24_2,2023-11-01T16:12:32.438Z,,0,,,NaN,,,,,,false,,,,137834,137834,,137834,,137868,8,400,,,
sequence,flow.Sequence,4_24,2023-11-01T16:12:32.438Z,,0,,,2533,completion,,,,,false,,,,137835,137834,135285,135271.00000000003,135301,137868,8,400,,,
trial,html.Screen,4_25_0,2023-11-01T16:12:34.954Z,,0,1,,2499,response,ISIC_0000866.JPG,12,ISIC_8690631.JPG,ISIC_8690631.JPG,false,0,keypress(z),500,140350,140350,137851,137835,137868,140384,8,400,26,,ISIC_0000866.JPG
break,html.Screen,4_25_1,2023-11-01T16:12:34.955Z,,0,,,NaN,,,,,,false,,,,140352,140351,,140351,,140384,8,400,,,
break_continue,html.Screen,4_25_2,2023-11-01T16:12:34.955Z,,0,,,NaN,,,,,,false,,,,140352,140352,,140352,,140384,8,400,,,
sequence,flow.Sequence,4_25,2023-11-01T16:12:34.955Z,,0,,,2484,completion,,,,,false,,,,140352,140352,137851,137835,137868,140384,8,400,,,
trial,html.Screen,4_26_0,2023-11-01T16:12:38.039Z,,0,1,,3066,response,ISIC_6381852.JPG,13,ISIC_7167811.JPG,ISIC_7167811.JPG,false,0,keypress(z),500,143435,143434,140368,140352,140384,143468,8,400,27,,ISIC_6381852.JPG
break,html.Screen,4_26_1,2023-11-01T16:12:38.040Z,,0,,,NaN,,,,,,false,,,,143437,143436,,143436,,143468,8,400,,,
break_continue,html.Screen,4_26_2,2023-11-01T16:12:38.040Z,,0,,,NaN,,,,,,false,,,,143437,143437,,143437,,143468,8,400,,,
sequence,flow.Sequence,4_26,2023-11-01T16:12:38.041Z,,0,,,3053,completion,,,,,false,,,,143437,143437,140368,140352,140384,143468,8,400,,,
trial,html.Screen,4_27_0,2023-11-01T16:12:41.225Z,,0,1,,3170,response,ISIC_0010767.JPG,11,ISIC_0006321.JPG,ISIC_0006321.JPG,false,0,keypress(z),500,146621,146621,143451,143437,143468,146652,8,400,28,,ISIC_0010767.JPG
break,html.Screen,4_27_1,2023-11-01T16:12:41.226Z,,0,,,NaN,,,,,,false,,,,146623,146622,,146622,,146652,8,400,,,
break_continue,html.Screen,4_27_2,2023-11-01T16:12:41.227Z,,0,,,NaN,,,,,,false,,,,146623,146623,,146623,,146652,8,400,,,
sequence,flow.Sequence,4_27,2023-11-01T16:12:41.227Z,,0,,,3155,completion,,,,,false,,,,146624,146623,143451,143437,143468,146652,8,400,,,
trial,html.Screen,4_28_0,2023-11-01T16:12:43.947Z,,0,1,,2708,response,ISIC_6803432.JPG,5,ISIC_4789377.JPG,ISIC_4789377.JPG,false,0,keypress(z),500,149344,149343,146635,146624,146652,149385,8,400,29,,ISIC_6803432.JPG
break,html.Screen,4_28_1,2023-11-01T16:12:43.949Z,,0,,,NaN,,,,,,false,,,,149345,149345,,149344,,149385,8,400,,,
break_continue,html.Screen,4_28_2,2023-11-01T16:12:43.949Z,,0,,,NaN,,,,,,false,,,,149346,149346,,149346,,149385,8,400,,,
sequence,flow.Sequence,4_28,2023-11-01T16:12:43.949Z,,0,,,2694,completion,,,,,false,,,,149346,149346,146635,146624,146652,149385,8,400,,,
trial,html.Screen,4_29_0,2023-11-01T16:12:46.756Z,,0,1,,2784.000000000029,response,ISIC_0029339.JPG,8,ISIC_0069175.JPG,ISIC_0069175.JPG,false,0,keypress(z),500,152152.00000000003,152152.00000000003,149368,149346,149385,152184,8,400,30,,ISIC_0029339.JPG
break,html.Screen,4_29_1,2023-11-01T16:12:46.757Z,,0,,,NaN,,,,,,false,,,,152154,152154,,152153,,152184,8,400,,,
break_continue,html.Screen,4_29_2,2023-11-01T16:12:46.758Z,,0,,,NaN,,,,,,false,,,,152154,152154,,152154,,152184,8,400,,,
sequence,flow.Sequence,4_29,2023-11-01T16:12:46.758Z,,0,,,2769,completion,,,,,false,,,,152154,152154,149368,149346,149385,152184,8,400,,,
trial,html.Screen,4_30_0,2023-11-01T16:12:49.706Z,,0,1,,2934,response,ISIC_2153401.JPG,8,ISIC_3049506.JPG,ISIC_3049506.JPG,false,0,keypress(z),500,155103,155102,152168,152155,152184,155134,8,400,31,,ISIC_2153401.JPG
break,html.Screen,4_30_1,2023-11-01T16:12:49.707Z,,0,,,NaN,,,,,,false,,,,155104,155104,,155103,,155134,8,400,,,
break_continue,html.Screen,4_30_2,2023-11-01T16:12:49.708Z,,0,,,NaN,,,,,,false,,,,155104,155104,,155104,,155134,8,400,,,
sequence,flow.Sequence,4_30,2023-11-01T16:12:49.708Z,,0,,,2920,completion,,,,,false,,,,155105,155104,152168,152155,152184,155134,8,400,,,
trial,html.Screen,4_31_0,2023-11-01T16:12:52.632Z,,0,1,,2910,response,ISIC_1504257.JPG,6,ISIC_3816833.JPG,ISIC_1504257.JPG,false,1,keypress(m),500,158029,158028,155118,155105,155134,158068,8,400,32,,ISIC_3816833.JPG
break,html.Screen,4_31_1,2023-11-01T16:12:52.634Z,,0,,,NaN,,,,,,false,,,,158030,158030,,158029,,158068,8,400,,,
break_continue,html.Screen,4_31_2,2023-11-01T16:12:52.634Z,,0,,,NaN,,,,,,false,,,,158030,158030,,158030,,158068,8,400,,,
sequence,flow.Sequence,4_31,2023-11-01T16:12:52.634Z,,0,,,2896,completion,,,,,false,,,,158031,158030,155118,155105,155134,158068,8,400,,,
trial,html.Screen,4_32_0,2023-11-01T16:12:55.454Z,,0,1,,2799,response,ISIC_5921777.JPG,7,ISIC_4780727.JPG,ISIC_5921777.JPG,false,1,keypress(m),500,160851,160850,158051,158031,158068,160884,8,400,33,,ISIC_4780727.JPG
break,html.Screen,4_32_1,2023-11-01T16:12:55.456Z,,0,,,NaN,,,,,,false,,,,160852,160852,,160851,,160884,8,400,,,
break_continue,html.Screen,4_32_2,2023-11-01T16:12:55.456Z,,0,,,NaN,,,,,,false,,,,160853,160852,,160852,,160884,8,400,,,
sequence,flow.Sequence,4_32,2023-11-01T16:12:55.456Z,,0,,,2784,completion,,,,,false,,,,160853,160852,158051,158031,158068,160884,8,400,,,
trial,html.Screen,4_33_0,2023-11-01T16:12:57.764Z,,0,1,,2292,response,ISIC_0034222.JPG,11,ISIC_0011904.JPG,ISIC_0034222.JPG,false,1,keypress(m),500,163161,163160,160868,160853,160884,163202,8,400,34,,ISIC_0011904.JPG
break,html.Screen,4_33_1,2023-11-01T16:12:57.766Z,,0,,,NaN,,,,,,false,,,,163162,163162,,163161,,163202,8,400,,,
break_continue,html.Screen,4_33_2,2023-11-01T16:12:57.767Z,,0,,,NaN,,,,,,false,,,,163163,163163,,163163,,163202,8,400,,,
sequence,flow.Sequence,4_33,2023-11-01T16:12:57.767Z,,0,,,2279,completion,,,,,false,,,,163164.00000000003,163163,160868,160853,160884,163202,8,400,,,
trial,html.Screen,4_34_0,2023-11-01T16:13:00.369Z,,0,1,,2580,response,ISIC_0070050.JPG,5,ISIC_3349562.JPG,ISIC_3349562.JPG,false,0,keypress(z),500,165765.00000000003,165764,163184,163164.00000000003,163202,165802,8,400,35,,ISIC_0070050.JPG
break,html.Screen,4_34_1,2023-11-01T16:13:00.370Z,,0,,,NaN,,,,,,false,,,,165767,165767,,165766,,165802,8,400,,,
break_continue,html.Screen,4_34_2,2023-11-01T16:13:00.371Z,,0,,,NaN,,,,,,false,,,,165767,165767,,165767,,165802,8,400,,,
sequence,flow.Sequence,4_34,2023-11-01T16:13:00.371Z,,0,,,2565,completion,,,,,false,,,,165768,165767,163184,163164.00000000003,163202,165802,8,400,,,
trial,html.Screen,4_35_0,2023-11-01T16:13:02.980Z,,0,1,,2591,response,ISIC_0066314.JPG,13,ISIC_0011752.JPG,ISIC_0066314.JPG,false,1,keypress(m),500,168377,168376,165785,165768,165802,168402,8,400,36,,ISIC_0011752.JPG
break,html.Screen,4_35_1,2023-11-01T16:13:02.982Z,,0,,,NaN,,,,,,false,,,,168378,168378,,168377,,168402,8,400,,,
break_continue,html.Screen,4_35_2,2023-11-01T16:13:02.982Z,,0,,,NaN,,,,,,false,,,,168379,168379,,168379,,168402,8,400,,,
sequence,flow.Sequence,4_35,2023-11-01T16:13:02.983Z,,0,,,2577,completion,,,,,false,,,,168379,168379,165785,165768,165802,168402,8,400,,,
trial,html.Screen,4_36_0,2023-11-01T16:13:05.507Z,,0,1,,2518,response,ISIC_0033533.JPG,7,ISIC_2054180.JPG,ISIC_2054180.JPG,false,0,keypress(z),500,170903,170903,168385,168380,168402,170935,8,400,37,,ISIC_0033533.JPG
break,html.Screen,4_36_1,2023-11-01T16:13:05.508Z,,0,,,NaN,,,,,,false,,,,170905,170904,,170904,,170935,8,400,,,
break_continue,html.Screen,4_36_2,2023-11-01T16:13:05.509Z,,0,,,NaN,,,,,,false,,,,170905,170905,,170905,,170935,8,400,,,
sequence,flow.Sequence,4_36,2023-11-01T16:13:05.509Z,,0,,,2503,completion,,,,,false,,,,170905,170905,168385,168379,168402,170935,8,400,,,
trial,html.Screen,4_37_0,2023-11-01T16:13:09.249Z,,0,1,,3728,response,ISIC_0029283.JPG,7,ISIC_3590997.JPG,ISIC_3590997.JPG,false,0,keypress(z),500,174646.00000000003,174645,170917,170905,170935,174685,8,400,38,,ISIC_0029283.JPG
break,html.Screen,4_37_1,2023-11-01T16:13:09.251Z,,0,,,NaN,,,,,,false,,,,174647,174647,,174646.00000000003,,174685,8,400,,,
break_continue,html.Screen,4_37_2,2023-11-01T16:13:09.251Z,,0,,,NaN,,,,,,false,,,,174648,174648,,174647,,174685,8,400,,,
sequence,flow.Sequence,4_37,2023-11-01T16:13:09.251Z,,0,,,3713,completion,,,,,false,,,,174648,174648,170917,170905,170935,174685,8,400,,,
trial,html.Screen,4_38_0,2023-11-01T16:13:11.977Z,,0,1,,2705,response,ISIC_0033605.JPG,5,ISIC_0027276.JPG,ISIC_0027276.JPG,false,0,keypress(z),500,177374,177373,174668,174648,174685,177401,8,400,39,,ISIC_0033605.JPG
break,html.Screen,4_38_1,2023-11-01T16:13:11.978Z,,0,,,NaN,,,,,,false,,,,177375,177375,,177374,,177401,8,400,,,
break_continue,html.Screen,4_38_2,2023-11-01T16:13:11.979Z,,0,,,NaN,,,,,,false,,,,177375,177375,,177375,,177401,8,400,,,
sequence,flow.Sequence,4_38,2023-11-01T16:13:11.979Z,,0,,,2690,completion,,,,,false,,,,177375,177375,174668,174648,174685,177401,8,400,,,
trial,html.Screen,4_39_0,2023-11-01T16:13:15.016Z,,0,1,,3027,response,ISIC_0029007.JPG,16,ISIC_0029944.JPG,ISIC_0029007.JPG,false,1,keypress(m),500,180412,180412,177385,177375,177401,180451,8,400,40,,ISIC_0029944.JPG
break,html.Screen,4_39_1,2023-11-01T16:13:15.017Z,,0,,,NaN,,,,,,false,,,,180413,180413,,180412,,180451,8,400,,,
break_continue,html.Screen,4_39_2,2023-11-01T16:13:15.017Z,,0,,,NaN,,,,,,false,,,,180414.00000000003,180414.00000000003,,180413,,180451,8,400,,,
sequence,flow.Sequence,4_39,2023-11-01T16:13:15.018Z,,0,,,3013.000000000029,completion,,,,,false,,,,180414.00000000003,180414.00000000003,177385,177375,177401,180451,8,400,,,
trial,html.Screen,4_40_0,2023-11-01T16:13:18.571Z,,0,1,,3532,response,ISIC_3151260.JPG,6,ISIC_0025093.JPG,ISIC_0025093.JPG,false,0,keypress(z),500,183968.00000000003,183967,180435,180414.00000000003,180451,184002,8,400,41,,ISIC_3151260.JPG
break,html.Screen,4_40_1,2023-11-01T16:13:18.572Z,,0,,,NaN,,,,,,false,,,,183969,183968.00000000003,,183968.00000000003,,184002,8,400,,,
break_continue,html.Screen,4_40_2,2023-11-01T16:13:18.573Z,,0,,,NaN,,,,,,false,,,,183969,183969,,183969,,184002,8,400,,,
sequence,flow.Sequence,4_40,2023-11-01T16:13:18.573Z,,0,,,3518,completion,,,,,false,,,,183970,183969,180435,180414.00000000003,180451,184002,8,400,,,
trial,html.Screen,4_41_0,2023-11-01T16:13:22.879Z,,0,1,,4291,response,ISIC_0002811.JPG,14,ISIC_0060660.JPG,ISIC_0002811.JPG,false,1,keypress(m),500,188275,188275,183984,183970,184002,188317,8,400,42,,ISIC_0060660.JPG
break,html.Screen,4_41_1,2023-11-01T16:13:22.880Z,,0,,,NaN,,,,,,false,,,,188277.00000000003,188277.00000000003,,188276,,188317,8,400,,,
break_continue,html.Screen,4_41_2,2023-11-01T16:13:22.881Z,,0,,,NaN,,,,,,false,,,,188277.00000000003,188277.00000000003,,188277.00000000003,,188317,8,400,,,
sequence,flow.Sequence,4_41,2023-11-01T16:13:22.881Z,,0,,,4275.000000000029,completion,,,,,false,,,,188277.00000000003,188277.00000000003,183984,183970,184002,188317,8,400,,,
trial,html.Screen,4_42_0,2023-11-01T16:13:26.472Z,,0,1,,3567,response,ISIC_2396791.JPG,7,ISIC_2298440.JPG,ISIC_2396791.JPG,false,1,keypress(m),500,191868,191868,188301,188278,188317,191901,8,400,43,,ISIC_2298440.JPG
break,html.Screen,4_42_1,2023-11-01T16:13:26.473Z,,0,,,NaN,,,,,,false,,,,191870,191869,,191869,,191901,8,400,,,
break_continue,html.Screen,4_42_2,2023-11-01T16:13:26.473Z,,0,,,NaN,,,,,,false,,,,191870,191870,,191870,,191901,8,400,,,
sequence,flow.Sequence,4_42,2023-11-01T16:13:26.474Z,,0,,,3553,completion,,,,,false,,,,191870,191870,188301,188277.00000000003,188317,191901,8,400,,,
trial,html.Screen,4_43_0,2023-11-01T16:13:34.634Z,,0,1,,8145,response,ISIC_1453671.JPG,10,ISIC_0033427.JPG,ISIC_1453671.JPG,false,1,keypress(m),500,200031,200030,191885,191870,191901,200067,8,400,44,,ISIC_0033427.JPG
break,html.Screen,4_43_1,2023-11-01T16:13:34.636Z,,0,,,NaN,,,,,,false,,,,200032,200032,,200031,,200067,8,400,,,
break_continue,html.Screen,4_43_2,2023-11-01T16:13:34.636Z,,0,,,NaN,,,,,,false,,,,200033.00000000003,200032,,200032,,200067,8,400,,,
sequence,flow.Sequence,4_43,2023-11-01T16:13:34.636Z,,0,,,8131,completion,,,,,false,,,,200033.00000000003,200032,191885,191870,191901,200067,8,400,,,
trial,html.Screen,4_44_0,2023-11-01T16:13:37.854Z,,0,1,,3198,response,ISIC_0059786.JPG,6,ISIC_1761799.JPG,ISIC_1761799.JPG,false,0,keypress(z),500,203250,203250,200052,200033.00000000003,200067,203284,8,400,45,,ISIC_0059786.JPG
break,html.Screen,4_44_1,2023-11-01T16:13:37.855Z,,0,,,NaN,,,,,,false,,,,203251,203251,,203250,,203284,8,400,,,
break_continue,html.Screen,4_44_2,2023-11-01T16:13:37.855Z,,0,,,NaN,,,,,,false,,,,203252,203252,,203251,,203284,8,400,,,
sequence,flow.Sequence,4_44,2023-11-01T16:13:37.855Z,,0,,,3185,completion,,,,,false,,,,203252,203252,200052,200033.00000000003,200067,203284,8,400,,,
trial,html.Screen,4_45_0,2023-11-01T16:13:41.093Z,,0,1,,3221,response,ISIC_0072004.JPG,12,ISIC_0974833.JPG,ISIC_0974833.JPG,false,0,keypress(z),500,206489,206489,203268,203252,203284,206518,8,400,46,,ISIC_0072004.JPG
break,html.Screen,4_45_1,2023-11-01T16:13:41.094Z,,0,,,NaN,,,,,,false,,,,206490,206490,,206489,,206518,8,400,,,
break_continue,html.Screen,4_45_2,2023-11-01T16:13:41.094Z,,0,,,NaN,,,,,,false,,,,206491,206491,,206490,,206518,8,400,,,
sequence,flow.Sequence,4_45,2023-11-01T16:13:41.094Z,,0,,,3207,completion,,,,,false,,,,206491,206491,203268,203252,203284,206518,8,400,,,
trial,html.Screen,4_46_0,2023-11-01T16:13:44.530Z,,0,1,,3424.000000000029,response,ISIC_0958701.JPG,5,ISIC_1584535.JPG,ISIC_1584535.JPG,false,0,keypress(z),500,209927,209926.00000000003,206502,206491,206518,209952,8,400,47,,ISIC_0958701.JPG
break,html.Screen,4_46_1,2023-11-01T16:13:44.532Z,,0,,,NaN,,,,,,false,,,,209928,209928,,209927,,209952,8,400,,,
break_continue,html.Screen,4_46_2,2023-11-01T16:13:44.532Z,,0,,,NaN,,,,,,false,,,,209928,209928,,209928,,209952,8,400,,,
sequence,flow.Sequence,4_46,2023-11-01T16:13:44.532Z,,0,,,3410,completion,,,,,false,,,,209928,209928,206502,206491,206518,209952,8,400,,,
trial,html.Screen,4_47_0,2023-11-01T16:13:48.157Z,,0,1,,3617,response,ISIC_5706956.JPG,7,ISIC_0024292.JPG,ISIC_5706956.JPG,false,1,keypress(m),500,213553,213552,209935,209929,209952,213585,8,400,48,,ISIC_0024292.JPG
break,html.Screen,4_47_1,2023-11-01T16:13:48.158Z,,0,,,NaN,,,,,,false,,,,213554,213554,,213554,,213585,8,400,,,
break_continue,html.Screen,4_47_2,2023-11-01T16:13:48.158Z,,0,,,NaN,,,,,,false,,,,213555,213555,,213554,,213585,8,400,,,
sequence,flow.Sequence,4_47,2023-11-01T16:13:48.159Z,,0,,,3603,completion,,,,,false,,,,213555,213555,209935,209928,209952,213585,8,400,,,
trial,html.Screen,4_48_0,2023-11-01T16:13:51.209Z,,0,1,,3037.000000000029,response,ISIC_4798962.JPG,9,ISIC_0218575.JPG,ISIC_0218575.JPG,false,0,keypress(z),500,216606,216605.00000000003,213568,213555,213585,216635,8,400,49,,ISIC_4798962.JPG
break,html.Screen,4_48_1,2023-11-01T16:13:51.211Z,,0,,,NaN,,,,,,false,,,,216607,216607,,216606,,216635,8,400,,,
break_continue,html.Screen,4_48_2,2023-11-01T16:13:51.211Z,,0,,,NaN,,,,,,false,,,,216608,216607,,216607,,216635,8,400,,,
sequence,flow.Sequence,4_48,2023-11-01T16:13:51.211Z,,0,,,3022,completion,,,,,false,,,,216608,216607,213568,213555,213585,216635,8,400,,,
trial,html.Screen,4_49_0,2023-11-01T16:13:54.251Z,,0,1,,3028,response,ISIC_3198111.JPG,8,ISIC_5048124.JPG,ISIC_3198111.JPG,false,1,keypress(m),500,219648,219647,216619,216608,216635,219684,8,400,50,,ISIC_5048124.JPG
break,html.Screen,4_49_1,2023-11-01T16:15:10.685Z,,0,,,10003,timeout,,,,,false,,,,229669,229668,219669,219648,219684,229687,8,400,,,
break_continue,html.Screen,4_49_2,2023-11-02T03:18:01.580Z,,0,,,5139506,response,,,,,false,continue,keypress(Space),,5369209,5369174,229668,229669,229687,5369240,8,400,,,
sequence,flow.Sequence,4_49,2023-11-02T03:18:01.581Z,,0,,,5152539,completion,,,,,false,,,,5369209,5369174,216619,216608,216635,5369240,8,400,,,
trial,html.Screen,4_50_0,2023-11-02T03:18:13.097Z,,0,2,,11517,timeout,ISIC_8027899.JPG,4,ISIC_0046670.JPG,,false,,,500,5380725,5380725,5369224,5369209,5369240,5380757,8,400,1,,
break,html.Screen,4_50_1,2023-11-02T03:18:13.098Z,,0,,,NaN,,,,,,false,,,,5380727,5380726,,5380726,,5380757,8,400,,,
break_continue,html.Screen,4_50_2,2023-11-02T03:18:13.099Z,,0,,,NaN,,,,,,false,,,,5380727,5380727,,5380727,,5380757,8,400,,,
sequence,flow.Sequence,4_50,2023-11-02T03:18:13.099Z,,0,,,11487,completion,,,,,false,,,,5380727,5380727,5369224,5369209,5369240,5380757,8,400,,,
trial,html.Screen,4_51_0,2023-11-02T03:18:21.747Z,,0,2,,8635,response,ISIC_5360921.JPG,3,ISIC_0072010.JPG,ISIC_5360921.JPG,false,1,keypress(m),500,5389375,5389375,5380740,5380728,5380757,5389407,8,400,2,,ISIC_0072010.JPG
break,html.Screen,4_51_1,2023-11-02T03:18:21.748Z,,0,,,NaN,,,,,,false,,,,5389377,5389376,,5389376,,5389407,8,400,,,
break_continue,html.Screen,4_51_2,2023-11-02T03:18:21.749Z,,0,,,NaN,,,,,,false,,,,5389377,5389377,,5389377,,5389407,8,400,,,
sequence,flow.Sequence,4_51,2023-11-02T03:18:21.749Z,,0,,,8620,completion,,,,,false,,,,5389378,5389377,5380740,5380727,5380757,5389407,8,400,,,
trial,html.Screen,4_52_0,2023-11-02T03:18:26.443Z,,0,2,,4681,response,ISIC_1166522.JPG,10,ISIC_8910589.JPG,ISIC_8910589.JPG,false,0,keypress(z),500,5394072,5394072,5389391,5389378,5389407,5394107,8,400,3,,ISIC_1166522.JPG
break,html.Screen,4_52_1,2023-11-02T03:18:26.445Z,,0,,,NaN,,,,,,false,,,,5394073,5394073,,5394072,,5394107,8,400,,,
break_continue,html.Screen,4_52_2,2023-11-02T03:18:26.445Z,,0,,,NaN,,,,,,false,,,,5394074.000000001,5394074.000000001,,5394074.000000001,,5394107,8,400,,,
sequence,flow.Sequence,4_52,2023-11-02T03:18:26.446Z,,0,,,4667.000000000931,completion,,,,,false,,,,5394074.000000001,5394074.000000001,5389391,5389378,5389407,5394107,8,400,,,
trial,html.Screen,4_53_0,2023-11-02T03:18:30.014Z,,0,2,,3551,response,ISIC_0064261.JPG,13,ISIC_0011801.JPG,ISIC_0011801.JPG,false,0,keypress(z),500,5397643,5397642,5394091,5394074.000000001,5394107,5397674,8,400,4,,ISIC_0064261.JPG
break,html.Screen,4_53_1,2023-11-02T03:18:30.015Z,,0,,,NaN,,,,,,false,,,,5397644,5397644,,5397643,,5397674,8,400,,,
break_continue,html.Screen,4_53_2,2023-11-02T03:18:30.016Z,,0,,,NaN,,,,,,false,,,,5397644,5397644,,5397644,,5397674,8,400,,,
sequence,flow.Sequence,4_53,2023-11-02T03:18:30.016Z,,0,,,3537,completion,,,,,false,,,,5397645,5397644,5394091,5394074.000000001,5394107,5397674,8,400,,,
trial,html.Screen,4_54_0,2023-11-02T03:18:33.386Z,,0,2,,3357,response,ISIC_6033222.JPG,5,ISIC_3430953.JPG,ISIC_6033222.JPG,false,1,keypress(m),500,5401015,5401014,5397657,5397645,5397674,5401058,8,400,5,,ISIC_3430953.JPG
break,html.Screen,4_54_1,2023-11-02T03:18:33.387Z,,0,,,NaN,,,,,,false,,,,5401016.000000001,5401016.000000001,,5401015,,5401058,8,400,,,
break_continue,html.Screen,4_54_2,2023-11-02T03:18:33.388Z,,0,,,NaN,,,,,,false,,,,5401017,5401016.000000001,,5401016.000000001,,5401058,8,400,,,
sequence,flow.Sequence,4_54,2023-11-02T03:18:33.388Z,,0,,,3342.0000000009313,completion,,,,,false,,,,5401017,5401016.000000001,5397657,5397645,5397674,5401058,8,400,,,
trial,html.Screen,4_55_0,2023-11-02T03:18:36.518Z,,0,2,,3105,response,ISIC_0033439.JPG,7,ISIC_0069505.JPG,ISIC_0033439.JPG,false,1,keypress(m),500,5404147,5404146,5401041,5401017,5401058,5404174,8,400,6,,ISIC_0069505.JPG
break,html.Screen,4_55_1,2023-11-02T03:18:36.520Z,,0,,,NaN,,,,,,false,,,,5404149,5404148,,5404147,,5404174,8,400,,,
break_continue,html.Screen,4_55_2,2023-11-02T03:18:36.520Z,,0,,,NaN,,,,,,false,,,,5404149,5404149,,5404149,,5404174,8,400,,,
sequence,flow.Sequence,4_55,2023-11-02T03:18:36.520Z,,0,,,3091,completion,,,,,false,,,,5404149,5404149,5401041,5401017,5401058,5404174,8,400,,,
trial,html.Screen,4_56_0,2023-11-02T03:18:40.023Z,,0,2,,3494,response,ISIC_6756517.JPG,8,ISIC_0072826.JPG,ISIC_6756517.JPG,false,1,keypress(m),500,5407652,5407651,5404157,5404149,5404174,5407674,8,400,7,,ISIC_0072826.JPG
break,html.Screen,4_56_1,2023-11-02T03:18:40.024Z,,0,,,NaN,,,,,,false,,,,5407653,5407653,,5407652,,5407674,8,400,,,
break_continue,html.Screen,4_56_2,2023-11-02T03:18:40.024Z,,0,,,NaN,,,,,,false,,,,5407653,5407653,,5407653,,5407674,8,400,,,
sequence,flow.Sequence,4_56,2023-11-02T03:18:40.025Z,,0,,,3479,completion,,,,,false,,,,5407654,5407653,5404157,5404149,5404174,5407674,8,400,,,
trial,html.Screen,4_57_0,2023-11-02T03:18:48.770Z,,0,2,,8742,response,ISIC_0033042.JPG,9,ISIC_0014422.JPG,ISIC_0033042.JPG,false,1,keypress(m),500,5416399,5416399,5407657,5407654,5407674,5416441,8,400,8,,ISIC_0014422.JPG
break,html.Screen,4_57_1,2023-11-02T03:18:48.772Z,,0,,,NaN,,,,,,false,,,,5416400.000000001,5416400.000000001,,5416400.000000001,,5416441,8,400,,,
break_continue,html.Screen,4_57_2,2023-11-02T03:18:48.772Z,,0,,,NaN,,,,,,false,,,,5416401,5416401,,5416401,,5416441,8,400,,,
sequence,flow.Sequence,4_57,2023-11-02T03:18:48.772Z,,0,,,8727,completion,,,,,false,,,,5416401,5416401,5407657,5407654,5407674,5416441,8,400,,,
trial,html.Screen,4_58_0,2023-11-02T03:18:52.276Z,,0,2,,3480,response,ISIC_0013334.JPG,9,ISIC_7956417.JPG,ISIC_7956417.JPG,false,0,keypress(z),500,5419905,5419904,5416424,5416401,5416441,5419941,8,400,9,,ISIC_0013334.JPG
break,html.Screen,4_58_1,2023-11-02T03:18:52.277Z,,0,,,NaN,,,,,,false,,,,5419906,5419906,,5419905,,5419941,8,400,,,
break_continue,html.Screen,4_58_2,2023-11-02T03:18:52.277Z,,0,,,NaN,,,,,,false,,,,5419906,5419906,,5419906,,5419941,8,400,,,
sequence,flow.Sequence,4_58,2023-11-02T03:18:52.278Z,,0,,,3465,completion,,,,,false,,,,5419907,5419906,5416424,5416401,5416441,5419941,8,400,,,
trial,html.Screen,4_59_0,2023-11-02T03:18:55.733Z,,0,2,,3436,response,ISIC_3267196.JPG,13,ISIC_0003217.JPG,ISIC_0003217.JPG,false,0,keypress(z),500,5423362,5423361,5419925,5419907,5419941,5423391,8,400,10,,ISIC_3267196.JPG
break,html.Screen,4_59_1,2023-11-02T03:18:55.734Z,,0,,,NaN,,,,,,false,,,,5423363,5423363,,5423362,,5423391,8,400,,,
break_continue,html.Screen,4_59_2,2023-11-02T03:18:55.735Z,,0,,,NaN,,,,,,false,,,,5423364.000000001,5423364.000000001,,5423363,,5423391,8,400,,,
sequence,flow.Sequence,4_59,2023-11-02T03:18:55.735Z,,0,,,3423.0000000009313,completion,,,,,false,,,,5423364.000000001,5423364.000000001,5419925,5419907,5419941,5423391,8,400,,,
trial,html.Screen,4_60_0,2023-11-02T03:18:58.994Z,,0,2,,3245,response,ISIC_3520591.JPG,7,ISIC_5457229.JPG,ISIC_5457229.JPG,false,0,keypress(z),500,5426623.000000001,5426619,5423374,5423364.000000001,5423391,5426658,8,400,11,,ISIC_3520591.JPG
break,html.Screen,4_60_1,2023-11-02T03:18:58.996Z,,0,,,NaN,,,,,,false,,,,5426625,5426624,,5426624,,5426658,8,400,,,
break_continue,html.Screen,4_60_2,2023-11-02T03:18:58.996Z,,0,,,NaN,,,,,,false,,,,5426625,5426625,,5426625,,5426658,8,400,,,
sequence,flow.Sequence,4_60,2023-11-02T03:18:58.996Z,,0,,,3234,completion,,,,,false,,,,5426625,5426625,5423374,5423364.000000001,5423391,5426658,8,400,,,
trial,html.Screen,4_61_0,2023-11-02T03:19:02.642Z,,0,2,,3629,response,ISIC_6754835.JPG,14,ISIC_0027646.JPG,ISIC_0027646.JPG,false,0,keypress(z),500,5430271,5430270,5426641,5426625,5426658,5430291,8,400,12,,ISIC_6754835.JPG
break,html.Screen,4_61_1,2023-11-02T03:19:02.643Z,,0,,,NaN,,,,,,false,,,,5430272,5430272,,5430271,,5430291,8,400,,,
break_continue,html.Screen,4_61_2,2023-11-02T03:19:02.644Z,,0,,,NaN,,,,,,false,,,,5430273,5430273,,5430272,,5430291,8,400,,,
sequence,flow.Sequence,4_61,2023-11-02T03:19:02.644Z,,0,,,3615,completion,,,,,false,,,,5430273,5430273,5426641,5426625,5426658,5430291,8,400,,,
trial,html.Screen,4_62_0,2023-11-02T03:19:11.987Z,,0,2,,9341,response,ISIC_0053555.JPG,7,ISIC_4732241.JPG,ISIC_4732241.JPG,false,0,keypress(z),500,5439617,5439616,5430275,5430273,5430291,5439658,8,400,13,,ISIC_0053555.JPG
break,html.Screen,4_62_1,2023-11-02T03:19:11.989Z,,0,,,NaN,,,,,,false,,,,5439618,5439618,,5439617,,5439658,8,400,,,
break_continue,html.Screen,4_62_2,2023-11-02T03:19:11.989Z,,0,,,NaN,,,,,,false,,,,5439618,5439618,,5439618,,5439658,8,400,,,
sequence,flow.Sequence,4_62,2023-11-02T03:19:11.989Z,,0,,,9327,completion,,,,,false,,,,5439619,5439618,5430275,5430273,5430291,5439658,8,400,,,
trial,html.Screen,4_63_0,2023-11-02T03:19:15.062Z,,0,2,,3050,response,ISIC_3273370.JPG,3,ISIC_0806138.JPG,ISIC_3273370.JPG,false,1,keypress(m),500,5442691,5442691,5439641,5439619,5439658,5442724,8,400,14,,ISIC_0806138.JPG
break,html.Screen,4_63_1,2023-11-02T03:19:15.063Z,,0,,,NaN,,,,,,false,,,,5442693,5442692,,5442692,,5442724,8,400,,,
break_continue,html.Screen,4_63_2,2023-11-02T03:19:15.064Z,,0,,,NaN,,,,,,false,,,,5442693,5442693,,5442693,,5442724,8,400,,,
sequence,flow.Sequence,4_63,2023-11-02T03:19:15.064Z,,0,,,3035,completion,,,,,false,,,,5442693,5442693,5439641,5439619,5439658,5442724,8,400,,,
trial,html.Screen,4_64_0,2023-11-02T03:19:18.205Z,,0,2,,3126,response,ISIC_0027100.JPG,12,ISIC_3305055.JPG,ISIC_0027100.JPG,false,1,keypress(m),500,5445835,5445834,5442708,5442693,5442724,5445874,8,400,15,,ISIC_3305055.JPG
break,html.Screen,4_64_1,2023-11-02T03:19:18.207Z,,0,,,NaN,,,,,,false,,,,5445836,5445836,,5445835,,5445874,8,400,,,
break_continue,html.Screen,4_64_2,2023-11-02T03:19:18.207Z,,0,,,NaN,,,,,,false,,,,5445837,5445837,,5445836,,5445874,8,400,,,
sequence,flow.Sequence,4_64,2023-11-02T03:19:18.208Z,,0,,,3113,completion,,,,,false,,,,5445837,5445837,5442708,5442693,5442724,5445874,8,400,,,
trial,html.Screen,4_65_0,2023-11-02T03:19:29.728Z,,0,2,,11517,timeout,ISIC_0080817.JPG,7,ISIC_0056409.JPG,,false,,,500,5457358,5457357,5445858,5445837,5445874,5457391,8,400,16,,
break,html.Screen,4_65_1,2023-11-02T03:19:29.730Z,,0,,,NaN,,,,,,false,,,,5457359,5457359,,5457358,,5457391,8,400,,,
break_continue,html.Screen,4_65_2,2023-11-02T03:19:29.730Z,,0,,,NaN,,,,,,false,,,,5457360,5457360,,5457359,,5457391,8,400,,,
sequence,flow.Sequence,4_65,2023-11-02T03:19:29.730Z,,0,,,11486,completion,,,,,false,,,,5457360,5457360,5445858,5445837,5445874,5457391,8,400,,,
trial,html.Screen,4_66_0,2023-11-02T03:19:39.976Z,,0,2,,10231.000000000931,response,ISIC_0010442.JPG,11,ISIC_9086288.JPG,ISIC_9086288.JPG,false,0,keypress(z),500,5467606,5467605.000000001,5457374,5457360,5457391,5467641,8,400,17,,ISIC_0010442.JPG
break,html.Screen,4_66_1,2023-11-02T03:19:39.977Z,,0,,,NaN,,,,,,false,,,,5467607,5467606,,5467606,,5467641,8,400,,,
break_continue,html.Screen,4_66_2,2023-11-02T03:19:39.977Z,,0,,,NaN,,,,,,false,,,,5467607,5467607,,5467607,,5467641,8,400,,,
sequence,flow.Sequence,4_66,2023-11-02T03:19:39.978Z,,0,,,10216,completion,,,,,false,,,,5467607,5467607,5457374,5457360,5457391,5467641,8,400,,,
trial,html.Screen,4_67_0,2023-11-02T03:19:42.999Z,,0,2,,3003,response,ISIC_6604862.JPG,4,ISIC_0011530.JPG,ISIC_6604862.JPG,false,1,keypress(m),500,5470628,5470628,5467625,5467607,5467641,5470658,8,400,18,,ISIC_0011530.JPG
break,html.Screen,4_67_1,2023-11-02T03:19:43.000Z,,0,,,NaN,,,,,,false,,,,5470629,5470629,,5470629,,5470658,8,400,,,
break_continue,html.Screen,4_67_2,2023-11-02T03:19:43.000Z,,0,,,NaN,,,,,,false,,,,5470630,5470630,,5470630,,5470658,8,400,,,
sequence,flow.Sequence,4_67,2023-11-02T03:19:43.000Z,,0,,,2989,completion,,,,,false,,,,5470630,5470630,5467625,5467607,5467641,5470658,8,400,,,
trial,html.Screen,4_68_0,2023-11-02T03:19:45.914Z,,0,2,,2902,response,ISIC_0000660.JPG,7,ISIC_1956504.JPG,ISIC_0000660.JPG,false,1,keypress(m),500,5473544,5473543,5470641,5470630,5470658,5473575,8,400,19,,ISIC_1956504.JPG
break,html.Screen,4_68_1,2023-11-02T03:19:45.916Z,,0,,,NaN,,,,,,false,,,,5473545,5473545,,5473544,,5473575,8,400,,,
break_continue,html.Screen,4_68_2,2023-11-02T03:19:45.916Z,,0,,,NaN,,,,,,false,,,,5473546,5473545,,5473545,,5473575,8,400,,,
sequence,flow.Sequence,4_68,2023-11-02T03:19:45.916Z,,0,,,2887,completion,,,,,false,,,,5473546,5473545,5470641,5470630,5470658,5473575,8,400,,,
trial,html.Screen,4_69_0,2023-11-02T03:19:48.961Z,,0,2,,3032,response,ISIC_0033966.JPG,9,ISIC_0025970.JPG,ISIC_0033966.JPG,false,1,keypress(m),500,5476591,5476590,5473558,5473546,5473575,5476625,8,400,20,,ISIC_0025970.JPG
break,html.Screen,4_69_1,2023-11-02T03:19:48.963Z,,0,,,NaN,,,,,,false,,,,5476592.000000001,5476592.000000001,,5476591,,5476625,8,400,,,
break_continue,html.Screen,4_69_2,2023-11-02T03:19:48.963Z,,0,,,NaN,,,,,,false,,,,5476593,5476593,,5476593,,5476625,8,400,,,
sequence,flow.Sequence,4_69,2023-11-02T03:19:48.964Z,,0,,,3018,completion,,,,,false,,,,5476594,5476593,5473558,5473546,5473575,5476625,8,400,,,
trial,html.Screen,4_70_0,2023-11-02T03:19:52.197Z,,0,2,,3219,response,ISIC_7555812.JPG,10,ISIC_5732487.JPG,ISIC_5732487.JPG,false,0,keypress(z),500,5479826,5479826,5476607,5476594,5476625,5479858,8,400,21,,ISIC_7555812.JPG
break,html.Screen,4_70_1,2023-11-02T03:19:52.198Z,,0,,,NaN,,,,,,false,,,,5479828,5479827,,5479827,,5479858,8,400,,,
break_continue,html.Screen,4_70_2,2023-11-02T03:19:52.198Z,,0,,,NaN,,,,,,false,,,,5479828,5479828,,5479828,,5479858,8,400,,,
sequence,flow.Sequence,4_70,2023-11-02T03:19:52.199Z,,0,,,3203,completion,,,,,false,,,,5479828,5479828,5476607,5476594,5476625,5479858,8,400,,,
trial,html.Screen,4_71_0,2023-11-02T03:19:54.769Z,,0,2,,2557,response,ISIC_2642873.JPG,7,ISIC_0060817.JPG,ISIC_2642873.JPG,false,1,keypress(m),500,5482399,5482398,5479841,5479829,5479858,5482440,8,400,22,,ISIC_0060817.JPG
break,html.Screen,4_71_1,2023-11-02T03:19:54.771Z,,0,,,NaN,,,,,,false,,,,5482400.000000001,5482400.000000001,,5482400.000000001,,5482440,8,400,,,
break_continue,html.Screen,4_71_2,2023-11-02T03:19:54.771Z,,0,,,NaN,,,,,,false,,,,5482401,5482401,,5482401,,5482440,8,400,,,
sequence,flow.Sequence,4_71,2023-11-02T03:19:54.771Z,,0,,,2543,completion,,,,,false,,,,5482401,5482401,5479841,5479829,5479858,5482440,8,400,,,
trial,html.Screen,4_72_0,2023-11-02T03:19:57.238Z,,0,2,,2443,response,ISIC_1870415.JPG,5,ISIC_0030447.JPG,ISIC_1870415.JPG,false,1,keypress(m),500,5484868,5484868,5482425,5482401,5482440,5484908,8,400,23,,ISIC_0030447.JPG
break,html.Screen,4_72_1,2023-11-02T03:19:57.239Z,,0,,,NaN,,,,,,false,,,,5484869,5484869,,5484868,,5484908,8,400,,,
break_continue,html.Screen,4_72_2,2023-11-02T03:19:57.239Z,,0,,,NaN,,,,,,false,,,,5484869,5484869,,5484869,,5484908,8,400,,,
sequence,flow.Sequence,4_72,2023-11-02T03:19:57.239Z,,0,,,2429,completion,,,,,false,,,,5484869,5484869,5482425,5482401,5482440,5484908,8,400,,,
trial,html.Screen,4_73_0,2023-11-02T03:19:59.866Z,,0,2,,2603,response,ISIC_0008636.JPG,4,ISIC_0060397.JPG,ISIC_0008636.JPG,false,1,keypress(m),500,5487496,5487495,5484892,5484869,5484908,5487525,8,400,24,,ISIC_0060397.JPG
break,html.Screen,4_73_1,2023-11-02T03:19:59.867Z,,0,,,NaN,,,,,,false,,,,5487497,5487497,,5487496,,5487525,8,400,,,
break_continue,html.Screen,4_73_2,2023-11-02T03:19:59.868Z,,0,,,NaN,,,,,,false,,,,5487497,5487497,,5487497,,5487525,8,400,,,
sequence,flow.Sequence,4_73,2023-11-02T03:19:59.868Z,,0,,,2589,completion,,,,,false,,,,5487498.000000001,5487497,5484892,5484869,5484908,5487525,8,400,,,
trial,html.Screen,4_74_0,2023-11-02T03:20:02.530Z,,0,2,,2651.0000000009313,response,ISIC_6831108.JPG,5,ISIC_0057539.JPG,ISIC_6831108.JPG,false,1,keypress(m),500,5490160,5490159.000000001,5487508,5487498.000000001,5487525,5490192,8,400,25,,ISIC_0057539.JPG
break,html.Screen,4_74_1,2023-11-02T03:20:02.531Z,,0,,,NaN,,,,,,false,,,,5490161,5490161,,5490160,,5490192,8,400,,,
break_continue,html.Screen,4_74_2,2023-11-02T03:20:02.531Z,,0,,,NaN,,,,,,false,,,,5490161,5490161,,5490161,,5490192,8,400,,,
sequence,flow.Sequence,4_74,2023-11-02T03:20:02.532Z,,0,,,2636,completion,,,,,false,,,,5490162,5490161,5487508,5487498.000000001,5487525,5490192,8,400,,,
trial,html.Screen,4_75_0,2023-11-02T03:20:05.705Z,,0,2,,3159,response,ISIC_9865097.JPG,7,ISIC_5017874.JPG,ISIC_5017874.JPG,false,0,keypress(z),500,5493335,5493334,5490175,5490162,5490192,5493375,8,400,26,,ISIC_9865097.JPG
break,html.Screen,4_75_1,2023-11-02T03:20:05.706Z,,0,,,NaN,,,,,,false,,,,5493336,5493336,,5493335,,5493375,8,400,,,
break_continue,html.Screen,4_75_2,2023-11-02T03:20:05.707Z,,0,,,NaN,,,,,,false,,,,5493337,5493336,,5493336,,5493375,8,400,,,
sequence,flow.Sequence,4_75,2023-11-02T03:20:05.707Z,,0,,,3144,completion,,,,,false,,,,5493337,5493336,5490175,5490162,5490192,5493375,8,400,,,
trial,html.Screen,4_76_0,2023-11-02T03:20:08.418Z,,0,2,,2689.0000000009313,response,ISIC_8730617.JPG,4,ISIC_8806357.JPG,ISIC_8730617.JPG,false,1,keypress(m),500,5496048,5496047.000000001,5493358,5493337,5493375,5496092,8,400,27,,ISIC_8806357.JPG
break,html.Screen,4_76_1,2023-11-02T03:20:08.419Z,,0,,,NaN,,,,,,false,,,,5496049,5496049,,5496049,,5496092,8,400,,,
break_continue,html.Screen,4_76_2,2023-11-02T03:20:08.420Z,,0,,,NaN,,,,,,false,,,,5496050,5496050,,5496049,,5496092,8,400,,,
sequence,flow.Sequence,4_76,2023-11-02T03:20:08.420Z,,0,,,2675,completion,,,,,false,,,,5496050,5496050,5493358,5493337,5493375,5496092,8,400,,,
trial,html.Screen,4_77_0,2023-11-02T03:20:11.541Z,,0,2,,3096,response,ISIC_7630208.JPG,4,ISIC_0028967.JPG,ISIC_0028967.JPG,false,0,keypress(z),500,5499171,5499171,5496075,5496050,5496092,5499208,8,400,28,,ISIC_7630208.JPG
break,html.Screen,4_77_1,2023-11-02T03:20:11.542Z,,0,,,NaN,,,,,,false,,,,5499172.000000001,5499172.000000001,,5499171,,5499208,8,400,,,
break_continue,html.Screen,4_77_2,2023-11-02T03:20:11.543Z,,0,,,NaN,,,,,,false,,,,5499173,5499173,,5499173,,5499208,8,400,,,
sequence,flow.Sequence,4_77,2023-11-02T03:20:11.543Z,,0,,,3081,completion,,,,,false,,,,5499173,5499173,5496075,5496050,5496092,5499208,8,400,,,
trial,html.Screen,4_78_0,2023-11-02T03:20:14.917Z,,0,2,,3354,response,ISIC_0009488.JPG,5,ISIC_0070747.JPG,ISIC_0009488.JPG,false,1,keypress(m),500,5502547.000000001,5502546,5499192,5499173,5499208,5502575,8,400,29,,ISIC_0070747.JPG
break,html.Screen,4_78_1,2023-11-02T03:20:14.918Z,,0,,,NaN,,,,,,false,,,,5502548,5502548,,5502547.000000001,,5502575,8,400,,,
break_continue,html.Screen,4_78_2,2023-11-02T03:20:14.918Z,,0,,,NaN,,,,,,false,,,,5502549,5502548,,5502548,,5502575,8,400,,,
sequence,flow.Sequence,4_78,2023-11-02T03:20:14.919Z,,0,,,3340,completion,,,,,false,,,,5502549,5502548,5499192,5499173,5499208,5502575,8,400,,,
trial,html.Screen,4_79_0,2023-11-02T03:20:18.685Z,,0,2,,3757.0000000009313,response,ISIC_0026364.JPG,5,ISIC_0000274.JPG,ISIC_0026364.JPG,false,1,keypress(m),500,5506316,5506315.000000001,5502558,5502549,5502575,5506342,8,400,30,,ISIC_0000274.JPG
break,html.Screen,4_79_1,2023-11-02T03:20:18.687Z,,0,,,NaN,,,,,,false,,,,5506317,5506317,,5506316,,5506342,8,400,,,
break_continue,html.Screen,4_79_2,2023-11-02T03:20:18.687Z,,0,,,NaN,,,,,,false,,,,5506317,5506317,,5506317,,5506342,8,400,,,
sequence,flow.Sequence,4_79,2023-11-02T03:20:18.688Z,,0,,,3742,completion,,,,,false,,,,5506318,5506317,5502558,5502549,5502575,5506342,8,400,,,
trial,html.Screen,4_80_0,2023-11-02T03:20:21.971Z,,0,2,,3275,response,ISIC_2119925.JPG,8,ISIC_0059551.JPG,ISIC_2119925.JPG,false,1,keypress(m),500,5509601.000000001,5509600,5506325,5506318,5506342,5509641,8,400,31,,ISIC_0059551.JPG
break,html.Screen,4_80_1,2023-11-02T03:20:21.972Z,,0,,,NaN,,,,,,false,,,,5509602,5509602,,5509601.000000001,,5509641,8,400,,,
break_continue,html.Screen,4_80_2,2023-11-02T03:20:21.972Z,,0,,,NaN,,,,,,false,,,,5509602,5509602,,5509602,,5509641,8,400,,,
sequence,flow.Sequence,4_80,2023-11-02T03:20:21.972Z,,0,,,3260,completion,,,,,false,,,,5509603,5509602,5506325,5506318,5506342,5509641,8,400,,,
trial,html.Screen,4_81_0,2023-11-02T03:20:24.788Z,,0,2,,2793,response,ISIC_0063425.JPG,0,ISIC_0066429.JPG,ISIC_0066429.JPG,false,0,keypress(z),500,5512418,5512418,5509625,5509603,5509641,5512441,8,400,32,,ISIC_0063425.JPG
break,html.Screen,4_81_1,2023-11-02T03:20:24.789Z,,0,,,NaN,,,,,,false,,,,5512420,5512419,,5512419,,5512441,8,400,,,
break_continue,html.Screen,4_81_2,2023-11-02T03:20:24.790Z,,0,,,NaN,,,,,,false,,,,5512420,5512420,,5512420,,5512441,8,400,,,
sequence,flow.Sequence,4_81,2023-11-02T03:20:24.790Z,,0,,,2779,completion,,,,,false,,,,5512421,5512420,5509625,5509603,5509641,5512441,8,400,,,
trial,html.Screen,4_82_0,2023-11-02T03:20:27.414Z,,0,2,,2618,response,ISIC_2876073.JPG,9,ISIC_2520840.JPG,ISIC_2876073.JPG,false,1,keypress(m),500,5515044,5515043,5512425,5512421,5512441,5515074,8,400,33,,ISIC_2520840.JPG
break,html.Screen,4_82_1,2023-11-02T03:20:27.415Z,,0,,,NaN,,,,,,false,,,,5515045,5515045,,5515044,,5515074,8,400,,,
break_continue,html.Screen,4_82_2,2023-11-02T03:20:27.415Z,,0,,,NaN,,,,,,false,,,,5515046,5515046,,5515045,,5515074,8,400,,,
sequence,flow.Sequence,4_82,2023-11-02T03:20:27.416Z,,0,,,2605,completion,,,,,false,,,,5515046,5515046,5512425,5512421,5512441,5515074,8,400,,,
trial,html.Screen,4_83_0,2023-11-02T03:20:29.940Z,,0,2,,2512,response,ISIC_5568525.JPG,6,ISIC_3826102.JPG,ISIC_5568525.JPG,false,1,keypress(m),500,5517571,5517570,5515058,5515047.000000001,5515074,5517608,8,400,34,,ISIC_3826102.JPG
break,html.Screen,4_83_1,2023-11-02T03:20:29.942Z,,0,,,NaN,,,,,,false,,,,5517572,5517572,,5517571,,5517608,8,400,,,
break_continue,html.Screen,4_83_2,2023-11-02T03:20:29.943Z,,0,,,NaN,,,,,,false,,,,5517573,5517573,,5517573,,5517608,8,400,,,
sequence,flow.Sequence,4_83,2023-11-02T03:20:29.943Z,,0,,,2499,completion,,,,,false,,,,5517573,5517573,5515058,5515047.000000001,5515074,5517608,8,400,,,
trial,html.Screen,4_84_0,2023-11-02T03:20:32.599Z,,0,2,,2637,response,ISIC_0438136.JPG,6,ISIC_0056793.JPG,ISIC_0438136.JPG,false,1,keypress(m),500,5520229,5520229,5517592,5517574.000000001,5517608,5520258,8,400,35,,ISIC_0056793.JPG
break,html.Screen,4_84_1,2023-11-02T03:20:32.600Z,,0,,,NaN,,,,,,false,,,,5520230.000000001,5520230.000000001,,5520230.000000001,,5520258,8,400,,,
break_continue,html.Screen,4_84_2,2023-11-02T03:20:32.600Z,,0,,,NaN,,,,,,false,,,,5520231,5520231,,5520231,,5520258,8,400,,,
sequence,flow.Sequence,4_84,2023-11-02T03:20:32.601Z,,0,,,2623,completion,,,,,false,,,,5520231,5520231,5517592,5517573,5517608,5520258,8,400,,,
trial,html.Screen,4_85_0,2023-11-02T03:20:35.842Z,,0,2,,3229,response,ISIC_1344537.JPG,7,ISIC_1492055.JPG,ISIC_1492055.JPG,false,0,keypress(z),500,5523472,5523471,5520242,5520231,5520258,5523508,8,400,36,,ISIC_1344537.JPG
break,html.Screen,4_85_1,2023-11-02T03:20:35.843Z,,0,,,NaN,,,,,,false,,,,5523474,5523473,,5523472,,5523508,8,400,,,
break_continue,html.Screen,4_85_2,2023-11-02T03:20:35.844Z,,0,,,NaN,,,,,,false,,,,5523475,5523474,,5523474,,5523508,8,400,,,
sequence,flow.Sequence,4_85,2023-11-02T03:20:35.844Z,,0,,,3216,completion,,,,,false,,,,5523475,5523474,5520242,5520231,5520258,5523508,8,400,,,
trial,html.Screen,4_86_0,2023-11-02T03:20:39.515Z,,0,2,,3652,response,ISIC_8636706.JPG,13,ISIC_7492530.JPG,ISIC_8636706.JPG,false,1,keypress(m),500,5527145,5527144,5523492,5523475,5523508,5527175,8,400,37,,ISIC_7492530.JPG
break,html.Screen,4_86_1,2023-11-02T03:20:39.516Z,,0,,,NaN,,,,,,false,,,,5527146,5527146,,5527145,,5527175,8,400,,,
break_continue,html.Screen,4_86_2,2023-11-02T03:20:39.516Z,,0,,,NaN,,,,,,false,,,,5527147,5527147,,5527146,,5527175,8,400,,,
sequence,flow.Sequence,4_86,2023-11-02T03:20:39.517Z,,0,,,3639,completion,,,,,false,,,,5527147,5527147,5523492,5523475,5523508,5527175,8,400,,,
trial,html.Screen,4_87_0,2023-11-02T03:20:41.939Z,,0,2,,2410,response,ISIC_7748144.JPG,8,ISIC_0032721.JPG,ISIC_0032721.JPG,false,0,keypress(z),500,5529569,5529568,5527158,5527147,5527175,5529608,8,400,38,,ISIC_7748144.JPG
break,html.Screen,4_87_1,2023-11-02T03:20:41.940Z,,0,,,NaN,,,,,,false,,,,5529571,5529570,,5529570,,5529608,8,400,,,
break_continue,html.Screen,4_87_2,2023-11-02T03:20:41.940Z,,0,,,NaN,,,,,,false,,,,5529571,5529571,,5529571,,5529608,8,400,,,
sequence,flow.Sequence,4_87,2023-11-02T03:20:41.941Z,,0,,,2396,completion,,,,,false,,,,5529571,5529571,5527158,5527147,5527175,5529608,8,400,,,
trial,html.Screen,4_88_0,2023-11-02T03:20:44.520Z,,0,2,,2558.0000000009313,response,ISIC_2071966.JPG,1,ISIC_8253326.JPG,ISIC_2071966.JPG,false,1,keypress(m),500,5532151,5532150.000000001,5529592,5529571,5529608,5532192,8,400,39,,ISIC_8253326.JPG
break,html.Screen,4_88_1,2023-11-02T03:20:44.521Z,,0,,,NaN,,,,,,false,,,,5532152,5532152,,5532151,,5532192,8,400,,,
break_continue,html.Screen,4_88_2,2023-11-02T03:20:44.522Z,,0,,,NaN,,,,,,false,,,,5532152,5532152,,5532152,,5532192,8,400,,,
sequence,flow.Sequence,4_88,2023-11-02T03:20:44.522Z,,0,,,2544,completion,,,,,false,,,,5532153,5532152,5529592,5529571,5529608,5532192,8,400,,,
trial,html.Screen,4_89_0,2023-11-02T03:20:47.220Z,,0,2,,2675,response,ISIC_4138377.JPG,8,ISIC_2948811.JPG,ISIC_4138377.JPG,false,1,keypress(m),500,5534851.000000001,5534850,5532175,5532153,5532192,5534892,8,400,40,,ISIC_2948811.JPG
break,html.Screen,4_89_1,2023-11-02T03:20:47.221Z,,0,,,NaN,,,,,,false,,,,5534852,5534852,,5534851.000000001,,5534892,8,400,,,
break_continue,html.Screen,4_89_2,2023-11-02T03:20:47.222Z,,0,,,NaN,,,,,,false,,,,5534852,5534852,,5534852,,5534892,8,400,,,
sequence,flow.Sequence,4_89,2023-11-02T03:20:47.222Z,,0,,,2660,completion,,,,,false,,,,5534852,5534852,5532175,5532153,5532192,5534892,8,400,,,
trial,html.Screen,4_90_0,2023-11-02T03:20:49.844Z,,0,2,,2599,response,ISIC_5509212.JPG,8,ISIC_9802008.JPG,ISIC_5509212.JPG,false,1,keypress(m),500,5537474,5537474,5534875,5534852,5534892,5537508,8,400,41,,ISIC_9802008.JPG
break,html.Screen,4_90_1,2023-11-02T03:20:49.845Z,,0,,,NaN,,,,,,false,,,,5537476.000000001,5537475,,5537475,,5537508,8,400,,,
break_continue,html.Screen,4_90_2,2023-11-02T03:20:49.845Z,,0,,,NaN,,,,,,false,,,,5537476.000000001,5537476.000000001,,5537476.000000001,,5537508,8,400,,,
sequence,flow.Sequence,4_90,2023-11-02T03:20:49.846Z,,0,,,2584.0000000009313,completion,,,,,false,,,,5537476.000000001,5537476.000000001,5534875,5534852,5534892,5537508,8,400,,,
trial,html.Screen,4_91_0,2023-11-02T03:20:53.049Z,,0,2,,3187,response,ISIC_5336007.JPG,9,ISIC_0012037.JPG,ISIC_5336007.JPG,false,1,keypress(m),500,5540679,5540679,5537492,5537476.000000001,5537508,5540708,8,400,42,,ISIC_0012037.JPG
break,html.Screen,4_91_1,2023-11-02T03:20:53.050Z,,0,,,NaN,,,,,,false,,,,5540680,5540680,,5540680,,5540708,8,400,,,
break_continue,html.Screen,4_91_2,2023-11-02T03:20:53.050Z,,0,,,NaN,,,,,,false,,,,5540681.000000001,5540681.000000001,,5540681.000000001,,5540708,8,400,,,
sequence,flow.Sequence,4_91,2023-11-02T03:20:53.051Z,,0,,,3173.0000000009313,completion,,,,,false,,,,5540681.000000001,5540681.000000001,5537492,5537476.000000001,5537508,5540708,8,400,,,
trial,html.Screen,4_92_0,2023-11-02T03:20:55.506Z,,0,2,,2444,response,ISIC_7923008.JPG,7,ISIC_0281179.JPG,ISIC_7923008.JPG,false,1,keypress(m),500,5543137,5543136,5540692,5540681.000000001,5540708,5543174,8,400,43,,ISIC_0281179.JPG
break,html.Screen,4_92_1,2023-11-02T03:20:55.507Z,,0,,,NaN,,,,,,false,,,,5543138,5543138,,5543137,,5543174,8,400,,,
break_continue,html.Screen,4_92_2,2023-11-02T03:20:55.508Z,,0,,,NaN,,,,,,false,,,,5543138,5543138,,5543138,,5543174,8,400,,,
sequence,flow.Sequence,4_92,2023-11-02T03:20:55.508Z,,0,,,2430,completion,,,,,false,,,,5543138,5543138,5540692,5540681.000000001,5540708,5543174,8,400,,,
trial,html.Screen,4_93_0,2023-11-02T03:20:58.229Z,,0,2,,2701,response,ISIC_8354042.JPG,9,ISIC_0056260.JPG,ISIC_8354042.JPG,false,1,keypress(m),500,5545860,5545859,5543158,5543138,5543174,5545891,8,400,44,,ISIC_0056260.JPG
break,html.Screen,4_93_1,2023-11-02T03:20:58.231Z,,0,,,NaN,,,,,,false,,,,5545861,5545861,,5545860,,5545891,8,400,,,
break_continue,html.Screen,4_93_2,2023-11-02T03:20:58.231Z,,0,,,NaN,,,,,,false,,,,5545862,5545862,,5545861,,5545891,8,400,,,
sequence,flow.Sequence,4_93,2023-11-02T03:20:58.231Z,,0,,,2688,completion,,,,,false,,,,5545862,5545862,5543158,5543138,5543174,5545891,8,400,,,
trial,html.Screen,4_94_0,2023-11-02T03:21:01.191Z,,0,2,,2946,response,ISIC_9049170.JPG,2,ISIC_0010532.JPG,ISIC_0010532.JPG,false,0,keypress(z),500,5548821,5548821,5545875,5545862,5545891,5548859,8,400,45,,ISIC_9049170.JPG
break,html.Screen,4_94_1,2023-11-02T03:21:01.192Z,,0,,,NaN,,,,,,false,,,,5548823,5548823,,5548822,,5548859,8,400,,,
break_continue,html.Screen,4_94_2,2023-11-02T03:21:01.193Z,,0,,,NaN,,,,,,false,,,,5548824.000000001,5548823,,5548823,,5548859,8,400,,,
sequence,flow.Sequence,4_94,2023-11-02T03:21:01.193Z,,0,,,2932,completion,,,,,false,,,,5548824.000000001,5548823,5545875,5545862,5545891,5548859,8,400,,,
trial,html.Screen,4_95_0,2023-11-02T03:21:04.457Z,,0,2,,3244,response,ISIC_7685761.JPG,4,ISIC_0010124.JPG,ISIC_0010124.JPG,false,0,keypress(z),500,5552088,5552087,5548843,5548824.000000001,5548859,5552125,8,400,46,,ISIC_7685761.JPG
break,html.Screen,4_95_1,2023-11-02T03:21:04.458Z,,0,,,NaN,,,,,,false,,,,5552089,5552089,,5552088,,5552125,8,400,,,
break_continue,html.Screen,4_95_2,2023-11-02T03:21:04.458Z,,0,,,NaN,,,,,,false,,,,5552089,5552089,,5552089,,5552125,8,400,,,
sequence,flow.Sequence,4_95,2023-11-02T03:21:04.459Z,,0,,,3230,completion,,,,,false,,,,5552089,5552089,5548843,5548824.000000001,5548859,5552125,8,400,,,
trial,html.Screen,4_96_0,2023-11-02T03:21:15.979Z,,0,2,,11517,timeout,ISIC_0011709.JPG,8,ISIC_8145260.JPG,ISIC_8145260.JPG,false,,,500,5563609,5563609,5552109,5552090,5552125,5563642,8,400,47,,ISIC_0011709.JPG
break,html.Screen,4_96_1,2023-11-02T03:21:15.980Z,,0,,,NaN,,,,,,false,,,,5563611,5563611,,5563610,,5563642,8,400,,,
break_continue,html.Screen,4_96_2,2023-11-02T03:21:15.980Z,,0,,,NaN,,,,,,false,,,,5563611,5563611,,5563611,,5563642,8,400,,,
sequence,flow.Sequence,4_96,2023-11-02T03:21:15.981Z,,0,,,11486,completion,,,,,false,,,,5563612,5563611,5552109,5552090,5552125,5563642,8,400,,,
trial,html.Screen,4_97_0,2023-11-02T03:21:18.941Z,,0,2,,2943,response,ISIC_4343836.JPG,5,ISIC_5073160.JPG,ISIC_4343836.JPG,false,1,keypress(m),500,5566572,5566568,5563625,5563612,5563642,5566609,8,400,48,,ISIC_5073160.JPG
break,html.Screen,4_97_1,2023-11-02T03:21:18.942Z,,0,,,NaN,,,,,,false,,,,5566573,5566573,,5566572,,5566609,8,400,,,
break_continue,html.Screen,4_97_2,2023-11-02T03:21:18.943Z,,0,,,NaN,,,,,,false,,,,5566574.000000001,5566574.000000001,,5566573,,5566609,8,400,,,
sequence,flow.Sequence,4_97,2023-11-02T03:21:18.943Z,,0,,,2932.0000000009313,completion,,,,,false,,,,5566574.000000001,5566574.000000001,5563625,5563612,5563642,5566609,8,400,,,
trial,html.Screen,4_98_0,2023-11-02T03:21:21.510Z,,0,2,,2548,response,ISIC_6324832.JPG,12,ISIC_0010773.JPG,ISIC_6324832.JPG,false,1,keypress(m),500,5569141.000000001,5569140,5566592,5566574.000000001,5566609,5569175,8,400,49,,ISIC_0010773.JPG
break,html.Screen,4_98_1,2023-11-02T03:21:21.511Z,,0,,,NaN,,,,,,false,,,,5569142,5569142,,5569141.000000001,,5569175,8,400,,,
break_continue,html.Screen,4_98_2,2023-11-02T03:21:21.511Z,,0,,,NaN,,,,,,false,,,,5569142,5569142,,5569142,,5569175,8,400,,,
sequence,flow.Sequence,4_98,2023-11-02T03:21:21.512Z,,0,,,2533,completion,,,,,false,,,,5569143,5569142,5566592,5566574.000000001,5566609,5569175,8,400,,,
trial,html.Screen,4_99_0,2023-11-02T03:21:24.114Z,,0,2,,2586,response,ISIC_0014919.JPG,11,ISIC_0058508.JPG,ISIC_0014919.JPG,false,1,keypress(m),500,5571745,5571745,5569159,5569143,5569175,5571775,8,400,50,,ISIC_0058508.JPG
break,html.Screen,4_99_1,2023-11-02T03:21:34.128Z,,0,,,10000,timeout,,,,,false,,,,5581760,5581759,5571759,5571746,5571775,5581775,8,400,,,
break_continue,html.Screen,4_99_2,2023-11-02T03:21:35.293Z,,0,,,1145,response,,,,,false,continue,keypress(Space),,5582924,5582904,5581759,5581760,5581775,5582958,8,400,,,
sequence,flow.Sequence,4_99,2023-11-02T03:21:35.293Z,,0,,,13729,completion,,,,,false,,,,5582924,5582904,5569159,5569143,5569175,5582958,8,400,,,
trial,html.Screen,4_100_0,2023-11-02T03:21:43.659Z,,0,3,,8347,response,ISIC_0030193.JPG,2,ISIC_0026407.JPG,ISIC_0030193.JPG,false,1,keypress(m),500,5591290,5591289,5582942,5582924,5582958,5591325,8,400,1,,ISIC_0026407.JPG
break,html.Screen,4_100_1,2023-11-02T03:21:43.660Z,,0,,,NaN,,,,,,false,,,,5591291,5591291,,5591290,,5591325,8,400,,,
break_continue,html.Screen,4_100_2,2023-11-02T03:21:43.660Z,,0,,,NaN,,,,,,false,,,,5591292,5591292,,5591291,,5591325,8,400,,,
sequence,flow.Sequence,4_100,2023-11-02T03:21:43.661Z,,0,,,8334,completion,,,,,false,,,,5591292,5591292,5582942,5582924,5582958,5591325,8,400,,,
trial,html.Screen,4_101_0,2023-11-02T03:21:52.430Z,,0,3,,8752,response,ISIC_0062536.JPG,12,ISIC_7533216.JPG,ISIC_7533216.JPG,false,0,keypress(z),500,5600062,5600061,5591309,5591292,5591325,5600092,8,400,2,,ISIC_0062536.JPG
break,html.Screen,4_101_1,2023-11-02T03:21:52.432Z,,0,,,NaN,,,,,,false,,,,5600063,5600063,,5600062,,5600092,8,400,,,
break_continue,html.Screen,4_101_2,2023-11-02T03:21:52.432Z,,0,,,NaN,,,,,,false,,,,5600063,5600063,,5600063,,5600092,8,400,,,
sequence,flow.Sequence,4_101,2023-11-02T03:21:52.432Z,,0,,,8738,completion,,,,,false,,,,5600064,5600063,5591309,5591292,5591325,5600092,8,400,,,
trial,html.Screen,4_102_0,2023-11-02T03:21:55.502Z,,0,3,,3057,response,ISIC_0010036.JPG,3,ISIC_0010241.JPG,ISIC_0010241.JPG,false,0,keypress(z),500,5603134,5603133,5600076,5600064,5600092,5603176,8,400,3,,ISIC_0010036.JPG
break,html.Screen,4_102_1,2023-11-02T03:21:55.503Z,,0,,,NaN,,,,,,false,,,,5603135,5603134,,5603134,,5603176,8,400,,,
break_continue,html.Screen,4_102_2,2023-11-02T03:21:55.504Z,,0,,,NaN,,,,,,false,,,,5603135,5603135,,5603135,,5603176,8,400,,,
sequence,flow.Sequence,4_102,2023-11-02T03:21:55.504Z,,0,,,3043,completion,,,,,false,,,,5603135,5603135,5600076,5600064,5600092,5603176,8,400,,,
trial,html.Screen,4_103_0,2023-11-02T03:21:57.962Z,,0,3,,2434,response,ISIC_0009947.JPG,5,ISIC_7161002.JPG,ISIC_0009947.JPG,false,1,keypress(m),500,5605594,5605593,5603159,5603136,5603176,5605625,8,400,4,,ISIC_7161002.JPG
break,html.Screen,4_103_1,2023-11-02T03:21:57.964Z,,0,,,NaN,,,,,,false,,,,5605595,5605595,,5605594,,5605625,8,400,,,
break_continue,html.Screen,4_103_2,2023-11-02T03:21:57.964Z,,0,,,NaN,,,,,,false,,,,5605596,5605595,,5605595,,5605625,8,400,,,
sequence,flow.Sequence,4_103,2023-11-02T03:21:57.964Z,,0,,,2419,completion,,,,,false,,,,5605596,5605595,5603159,5603136,5603176,5605625,8,400,,,
trial,html.Screen,4_104_0,2023-11-02T03:22:00.539Z,,0,3,,2561,response,ISIC_0030798.JPG,10,ISIC_0029513.JPG,ISIC_0029513.JPG,false,0,keypress(z),500,5608171,5608170,5605609,5605596,5605625,5608208,8,400,5,,ISIC_0030798.JPG
break,html.Screen,4_104_1,2023-11-02T03:22:00.541Z,,0,,,NaN,,,,,,false,,,,5608172.000000001,5608172.000000001,,5608171,,5608208,8,400,,,
break_continue,html.Screen,4_104_2,2023-11-02T03:22:00.541Z,,0,,,NaN,,,,,,false,,,,5608173,5608173,,5608173,,5608208,8,400,,,
sequence,flow.Sequence,4_104,2023-11-02T03:22:00.541Z,,0,,,2548,completion,,,,,false,,,,5608173,5608173,5605609,5605596,5605625,5608208,8,400,,,
trial,html.Screen,4_105_0,2023-11-02T03:22:03.252Z,,0,3,,2691,response,ISIC_3292151.JPG,4,ISIC_0011356.JPG,ISIC_3292151.JPG,false,1,keypress(m),500,5610884,5610883,5608192,5608173,5608208,5610926,8,400,6,,ISIC_0011356.JPG
break,html.Screen,4_105_1,2023-11-02T03:22:03.254Z,,0,,,NaN,,,,,,false,,,,5610885,5610885,,5610884,,5610926,8,400,,,
break_continue,html.Screen,4_105_2,2023-11-02T03:22:03.254Z,,0,,,NaN,,,,,,false,,,,5610886,5610886,,5610886,,5610926,8,400,,,
sequence,flow.Sequence,4_105,2023-11-02T03:22:03.254Z,,0,,,2678,completion,,,,,false,,,,5610886,5610886,5608192,5608173,5608208,5610926,8,400,,,
trial,html.Screen,4_106_0,2023-11-02T03:22:05.631Z,,0,3,,2353,response,ISIC_2489504.JPG,7,ISIC_0013617.JPG,ISIC_2489504.JPG,false,1,keypress(m),500,5613263,5613262,5610909,5610886,5610926,5613292,8,400,7,,ISIC_0013617.JPG
break,html.Screen,4_106_1,2023-11-02T03:22:05.633Z,,0,,,NaN,,,,,,false,,,,5613264,5613264,,5613263,,5613292,8,400,,,
break_continue,html.Screen,4_106_2,2023-11-02T03:22:05.633Z,,0,,,NaN,,,,,,false,,,,5613264,5613264,,5613264,,5613292,8,400,,,
sequence,flow.Sequence,4_106,2023-11-02T03:22:05.633Z,,0,,,2338,completion,,,,,false,,,,5613265,5613264,5610909,5610886,5610926,5613292,8,400,,,
trial,html.Screen,4_107_0,2023-11-02T03:22:08.540Z,,0,3,,2895,response,ISIC_0030845.JPG,9,ISIC_0031077.JPG,ISIC_0030845.JPG,false,1,keypress(m),500,5616172.000000001,5616171,5613276,5613265,5613292,5616209,8,400,8,,ISIC_0031077.JPG
break,html.Screen,4_107_1,2023-11-02T03:22:08.541Z,,0,,,NaN,,,,,,false,,,,5616173,5616172.000000001,,5616172.000000001,,5616209,8,400,,,
break_continue,html.Screen,4_107_2,2023-11-02T03:22:08.541Z,,0,,,NaN,,,,,,false,,,,5616173,5616173,,5616173,,5616209,8,400,,,
sequence,flow.Sequence,4_107,2023-11-02T03:22:08.542Z,,0,,,2881,completion,,,,,false,,,,5616173,5616173,5613276,5613265,5613292,5616209,8,400,,,
trial,html.Screen,4_108_0,2023-11-02T03:22:11.287Z,,0,3,,2726,response,ISIC_8737794.JPG,8,ISIC_2064934.JPG,ISIC_2064934.JPG,false,0,keypress(z),500,5618919,5618918,5616192,5616173,5616209,5618959,8,400,9,,ISIC_8737794.JPG
break,html.Screen,4_108_1,2023-11-02T03:22:11.288Z,,0,,,NaN,,,,,,false,,,,5618920,5618920,,5618919,,5618959,8,400,,,
break_continue,html.Screen,4_108_2,2023-11-02T03:22:11.289Z,,0,,,NaN,,,,,,false,,,,5618920,5618920,,5618920,,5618959,8,400,,,
sequence,flow.Sequence,4_108,2023-11-02T03:22:11.289Z,,0,,,2711,completion,,,,,false,,,,5618921,5618920,5616192,5616173,5616209,5618959,8,400,,,
trial,html.Screen,4_109_0,2023-11-02T03:22:13.769Z,,0,3,,2456,response,ISIC_1026382.JPG,7,ISIC_8759207.JPG,ISIC_1026382.JPG,false,1,keypress(m),500,5621401,5621399,5618943,5618921,5618959,5621442,8,400,10,,ISIC_8759207.JPG
break,html.Screen,4_109_1,2023-11-02T03:22:13.770Z,,0,,,NaN,,,,,,false,,,,5621402,5621402,,5621401,,5621442,8,400,,,
break_continue,html.Screen,4_109_2,2023-11-02T03:22:13.771Z,,0,,,NaN,,,,,,false,,,,5621402,5621402,,5621402,,5621442,8,400,,,
sequence,flow.Sequence,4_109,2023-11-02T03:22:13.771Z,,0,,,2443,completion,,,,,false,,,,5621403,5621402,5618943,5618921,5618959,5621442,8,400,,,
trial,html.Screen,4_110_0,2023-11-02T03:22:16.785Z,,0,3,,2990,response,ISIC_0010850.JPG,10,ISIC_0031104.JPG,ISIC_0031104.JPG,false,0,keypress(z),500,5624417,5624416,5621426,5621403,5621442,5624458,8,400,11,,ISIC_0010850.JPG
break,html.Screen,4_110_1,2023-11-02T03:22:16.786Z,,0,,,NaN,,,,,,false,,,,5624418,5624418,,5624417,,5624458,8,400,,,
break_continue,html.Screen,4_110_2,2023-11-02T03:22:16.786Z,,0,,,NaN,,,,,,false,,,,5624418,5624418,,5624418,,5624458,8,400,,,
sequence,flow.Sequence,4_110,2023-11-02T03:22:16.787Z,,0,,,2976,completion,,,,,false,,,,5624419,5624418,5621426,5621403,5621442,5624458,8,400,,,
trial,html.Screen,4_111_0,2023-11-02T03:22:20.579Z,,0,3,,3768,response,ISIC_4969996.JPG,3,ISIC_0006730.JPG,ISIC_0006730.JPG,false,0,keypress(z),500,5628211,5628210,5624442,5624419,5624458,5628242,8,400,12,,ISIC_4969996.JPG
break,html.Screen,4_111_1,2023-11-02T03:22:20.580Z,,0,,,NaN,,,,,,false,,,,5628212,5628212,,5628211,,5628242,8,400,,,
break_continue,html.Screen,4_111_2,2023-11-02T03:22:20.581Z,,0,,,NaN,,,,,,false,,,,5628212,5628212,,5628212,,5628242,8,400,,,
sequence,flow.Sequence,4_111,2023-11-02T03:22:20.581Z,,0,,,3754,completion,,,,,false,,,,5628213,5628212,5624442,5624419,5624458,5628242,8,400,,,
trial,html.Screen,4_112_0,2023-11-02T03:22:23.035Z,,0,3,,2441,response,ISIC_0027081.JPG,5,ISIC_4131353.JPG,ISIC_0027081.JPG,false,1,keypress(m),500,5630667,5630667,5628226,5628213,5628242,5630709,8,400,13,,ISIC_4131353.JPG
break,html.Screen,4_112_1,2023-11-02T03:22:23.036Z,,0,,,NaN,,,,,,false,,,,5630668,5630668,,5630667,,5630709,8,400,,,
break_continue,html.Screen,4_112_2,2023-11-02T03:22:23.037Z,,0,,,NaN,,,,,,false,,,,5630669,5630669,,5630668,,5630709,8,400,,,
sequence,flow.Sequence,4_112,2023-11-02T03:22:23.037Z,,0,,,2427,completion,,,,,false,,,,5630669,5630669,5628226,5628213,5628242,5630709,8,400,,,
trial,html.Screen,4_113_0,2023-11-02T03:22:25.580Z,,0,3,,2518,response,ISIC_1585511.JPG,2,ISIC_0024421.JPG,ISIC_0024421.JPG,false,0,keypress(z),500,5633212,5633211,5630693,5630669,5630709,5633242,8,400,14,,ISIC_1585511.JPG
break,html.Screen,4_113_1,2023-11-02T03:22:25.581Z,,0,,,NaN,,,,,,false,,,,5633213,5633213,,5633213,,5633242,8,400,,,
break_continue,html.Screen,4_113_2,2023-11-02T03:22:25.582Z,,0,,,NaN,,,,,,false,,,,5633214,5633214,,5633214,,5633242,8,400,,,
sequence,flow.Sequence,4_113,2023-11-02T03:22:25.582Z,,0,,,2505,completion,,,,,false,,,,5633214,5633214,5630693,5630669,5630709,5633242,8,400,,,
trial,html.Screen,4_114_0,2023-11-02T03:22:28.035Z,,0,3,,2441,response,ISIC_1351604.JPG,6,ISIC_0069933.JPG,ISIC_1351604.JPG,false,1,keypress(m),500,5635667,5635667,5633226,5633214,5633242,5635709,8,400,15,,ISIC_0069933.JPG
break,html.Screen,4_114_1,2023-11-02T03:22:28.036Z,,0,,,NaN,,,,,,false,,,,5635668,5635668,,5635667,,5635709,8,400,,,
break_continue,html.Screen,4_114_2,2023-11-02T03:22:28.037Z,,0,,,NaN,,,,,,false,,,,5635669,5635668,,5635668,,5635709,8,400,,,
sequence,flow.Sequence,4_114,2023-11-02T03:22:28.037Z,,0,,,2426,completion,,,,,false,,,,5635669,5635668,5633226,5633214,5633242,5635709,8,400,,,
trial,html.Screen,4_115_0,2023-11-02T03:22:30.054Z,,0,3,,1993,response,ISIC_4718313.JPG,7,ISIC_0013492.JPG,ISIC_0013492.JPG,false,0,keypress(z),500,5637686,5637686,5635693,5635669,5635709,5637726,8,400,16,,ISIC_4718313.JPG
break,html.Screen,4_115_1,2023-11-02T03:22:30.055Z,,0,,,NaN,,,,,,false,,,,5637687,5637687,,5637686,,5637726,8,400,,,
break_continue,html.Screen,4_115_2,2023-11-02T03:22:30.056Z,,0,,,NaN,,,,,,false,,,,5637688,5637688,,5637688,,5637726,8,400,,,
sequence,flow.Sequence,4_115,2023-11-02T03:22:30.056Z,,0,,,1979,completion,,,,,false,,,,5637688,5637688,5635693,5635669,5635709,5637726,8,400,,,
trial,html.Screen,4_116_0,2023-11-02T03:22:32.477Z,,0,3,,2399,response,ISIC_8451869.JPG,5,ISIC_3775417.JPG,ISIC_8451869.JPG,false,1,keypress(m),500,5640109,5640108,5637709,5637688,5637726,5640143,8,400,17,,ISIC_3775417.JPG
break,html.Screen,4_116_1,2023-11-02T03:22:32.478Z,,0,,,NaN,,,,,,false,,,,5640110,5640110,,5640109,,5640143,8,400,,,
break_continue,html.Screen,4_116_2,2023-11-02T03:22:32.479Z,,0,,,NaN,,,,,,false,,,,5640111,5640111,,5640111,,5640143,8,400,,,
sequence,flow.Sequence,4_116,2023-11-02T03:22:32.479Z,,0,,,2385,completion,,,,,false,,,,5640111,5640111,5637709,5637688,5637726,5640143,8,400,,,
trial,html.Screen,4_117_0,2023-11-02T03:22:34.807Z,,0,3,,2312,response,ISIC_0054229.JPG,2,ISIC_0030689.JPG,ISIC_0054229.JPG,false,1,keypress(m),500,5642439,5642438,5640126,5640111,5640143,5642475,8,400,18,,ISIC_0030689.JPG
break,html.Screen,4_117_1,2023-11-02T03:22:34.808Z,,0,,,NaN,,,,,,false,,,,5642440.000000001,5642439,,5642439,,5642475,8,400,,,
break_continue,html.Screen,4_117_2,2023-11-02T03:22:34.808Z,,0,,,NaN,,,,,,false,,,,5642440.000000001,5642440.000000001,,5642440.000000001,,5642475,8,400,,,
sequence,flow.Sequence,4_117,2023-11-02T03:22:34.808Z,,0,,,2297.0000000009313,completion,,,,,false,,,,5642440.000000001,5642440.000000001,5640126,5640111,5640143,5642475,8,400,,,
trial,html.Screen,4_118_0,2023-11-02T03:22:37.192Z,,0,3,,2364,response,ISIC_9756858.JPG,15,ISIC_7599444.JPG,ISIC_9756858.JPG,false,1,keypress(m),500,5644824.000000001,5644823,5642459,5642440.000000001,5642475,5644859,8,400,19,,ISIC_7599444.JPG
break,html.Screen,4_118_1,2023-11-02T03:22:37.193Z,,0,,,NaN,,,,,,false,,,,5644825,5644825,,5644824.000000001,,5644859,8,400,,,
break_continue,html.Screen,4_118_2,2023-11-02T03:22:37.193Z,,0,,,NaN,,,,,,false,,,,5644825,5644825,,5644825,,5644859,8,400,,,
sequence,flow.Sequence,4_118,2023-11-02T03:22:37.194Z,,0,,,2350,completion,,,,,false,,,,5644826,5644825,5642459,5642440.000000001,5642475,5644859,8,400,,,
trial,html.Screen,4_119_0,2023-11-02T03:22:40.103Z,,0,3,,2892,response,ISIC_0011703.JPG,7,ISIC_0032492.JPG,ISIC_0032492.JPG,false,0,keypress(z),500,5647736,5647735,5644843,5644826,5644859,5647758,8,400,20,,ISIC_0011703.JPG
break,html.Screen,4_119_1,2023-11-02T03:22:40.105Z,,0,,,NaN,,,,,,false,,,,5647737,5647736,,5647736,,5647758,8,400,,,
break_continue,html.Screen,4_119_2,2023-11-02T03:22:40.105Z,,0,,,NaN,,,,,,false,,,,5647737,5647737,,5647737,,5647758,8,400,,,
sequence,flow.Sequence,4_119,2023-11-02T03:22:40.105Z,,0,,,2878,completion,,,,,false,,,,5647737,5647737,5644843,5644826,5644859,5647758,8,400,,,
trial,html.Screen,4_120_0,2023-11-02T03:22:42.493Z,,0,3,,2381,response,ISIC_0031752.JPG,3,ISIC_0063369.JPG,ISIC_0031752.JPG,false,1,keypress(m),500,5650125,5650124,5647743,5647737,5647758,5650143,8,400,21,,ISIC_0063369.JPG
break,html.Screen,4_120_1,2023-11-02T03:22:42.494Z,,0,,,NaN,,,,,,false,,,,5650127,5650126,,5650126,,5650143,8,400,,,
break_continue,html.Screen,4_120_2,2023-11-02T03:22:42.495Z,,0,,,NaN,,,,,,false,,,,5650127,5650127,,5650127,,5650143,8,400,,,
sequence,flow.Sequence,4_120,2023-11-02T03:22:42.495Z,,0,,,2369,completion,,,,,false,,,,5650127,5650127,5647743,5647737,5647758,5650143,8,400,,,
trial,html.Screen,4_121_0,2023-11-02T03:22:44.803Z,,0,3,,2304,response,ISIC_0031741.JPG,13,ISIC_0046471.JPG,ISIC_0046471.JPG,false,0,keypress(z),500,5652435,5652434,5650130,5650127,5650143,5652459,8,400,22,,ISIC_0031741.JPG
break,html.Screen,4_121_1,2023-11-02T03:22:44.804Z,,0,,,NaN,,,,,,false,,,,5652436,5652436,,5652435,,5652459,8,400,,,
break_continue,html.Screen,4_121_2,2023-11-02T03:22:44.805Z,,0,,,NaN,,,,,,false,,,,5652437,5652437,,5652437,,5652459,8,400,,,
sequence,flow.Sequence,4_121,2023-11-02T03:22:44.805Z,,0,,,2294,completion,,,,,false,,,,5652437,5652437,5650130,5650127,5650143,5652459,8,400,,,
trial,html.Screen,4_122_0,2023-11-02T03:22:47.321Z,,0,3,,2509,response,ISIC_5017874.JPG,7,ISIC_0011349.JPG,ISIC_5017874.JPG,false,1,keypress(m),500,5654953,5654952,5652443,5652437,5652459,5654976,8,400,23,,ISIC_0011349.JPG
break,html.Screen,4_122_1,2023-11-02T03:22:47.322Z,,0,,,NaN,,,,,,false,,,,5654954,5654954,,5654953,,5654976,8,400,,,
break_continue,html.Screen,4_122_2,2023-11-02T03:22:47.322Z,,0,,,NaN,,,,,,false,,,,5654955,5654954,,5654954,,5654976,8,400,,,
sequence,flow.Sequence,4_122,2023-11-02T03:22:47.323Z,,0,,,2495,completion,,,,,false,,,,5654955,5654954,5652443,5652437,5652459,5654976,8,400,,,
trial,html.Screen,4_123_0,2023-11-02T03:22:50.303Z,,0,3,,2976,response,ISIC_0479264.JPG,11,ISIC_5116614.JPG,ISIC_5116614.JPG,false,0,keypress(z),500,5657935,5657935,5654959,5654955,5654976,5657958,8,400,24,,ISIC_0479264.JPG
break,html.Screen,4_123_1,2023-11-02T03:22:50.305Z,,0,,,NaN,,,,,,false,,,,5657937,5657937,,5657936,,5657958,8,400,,,
break_continue,html.Screen,4_123_2,2023-11-02T03:22:50.305Z,,0,,,NaN,,,,,,false,,,,5657937,5657937,,5657937,,5657958,8,400,,,
sequence,flow.Sequence,4_123,2023-11-02T03:22:50.305Z,,0,,,2961,completion,,,,,false,,,,5657937,5657937,5654959,5654955,5654976,5657958,8,400,,,
trial,html.Screen,4_124_0,2023-11-02T03:22:54.150Z,,0,3,,3838,response,ISIC_0064006.JPG,5,ISIC_0056047.JPG,ISIC_0064006.JPG,false,1,keypress(m),500,5661782,5661781,5657943,5657937,5657958,5661809,8,400,25,,ISIC_0056047.JPG
break,html.Screen,4_124_1,2023-11-02T03:22:54.151Z,,0,,,NaN,,,,,,false,,,,5661783,5661783,,5661782,,5661809,8,400,,,
break_continue,html.Screen,4_124_2,2023-11-02T03:22:54.151Z,,0,,,NaN,,,,,,false,,,,5661783,5661783,,5661783,,5661809,8,400,,,
sequence,flow.Sequence,4_124,2023-11-02T03:22:54.151Z,,0,,,3825,completion,,,,,false,,,,5661784.000000001,5661783,5657943,5657937,5657958,5661809,8,400,,,
trial,html.Screen,4_125_0,2023-11-02T03:22:56.990Z,,0,3,,2829,response,ISIC_0000445.JPG,5,ISIC_0014629.JPG,ISIC_0000445.JPG,false,1,keypress(m),500,5664623.000000001,5664622,5661793,5661784.000000001,5661809,5664659,8,400,26,,ISIC_0014629.JPG
break,html.Screen,4_125_1,2023-11-02T03:22:56.992Z,,0,,,NaN,,,,,,false,,,,5664624,5664624,,5664623.000000001,,5664659,8,400,,,
break_continue,html.Screen,4_125_2,2023-11-02T03:22:56.992Z,,0,,,NaN,,,,,,false,,,,5664625,5664624,,5664624,,5664659,8,400,,,
sequence,flow.Sequence,4_125,2023-11-02T03:22:56.992Z,,0,,,2815,completion,,,,,false,,,,5664625,5664624,5661793,5661784.000000001,5661809,5664659,8,400,,,
trial,html.Screen,4_126_0,2023-11-02T03:22:59.717Z,,0,3,,2706,response,ISIC_0056717.JPG,3,ISIC_0025184.JPG,ISIC_0025184.JPG,false,0,keypress(z),500,5667350,5667349,5664643,5664625,5664659,5667392,8,400,27,,ISIC_0056717.JPG
break,html.Screen,4_126_1,2023-11-02T03:22:59.719Z,,0,,,NaN,,,,,,false,,,,5667351.000000001,5667351.000000001,,5667350,,5667392,8,400,,,
break_continue,html.Screen,4_126_2,2023-11-02T03:22:59.719Z,,0,,,NaN,,,,,,false,,,,5667352,5667352,,5667351.000000001,,5667392,8,400,,,
sequence,flow.Sequence,4_126,2023-11-02T03:22:59.720Z,,0,,,2693,completion,,,,,false,,,,5667352,5667352,5664643,5664625,5664659,5667392,8,400,,,
trial,html.Screen,4_127_0,2023-11-02T03:23:02.560Z,,0,3,,2815,response,ISIC_0055917.JPG,6,ISIC_0024990.JPG,ISIC_0055917.JPG,false,1,keypress(m),500,5670192,5670191,5667376,5667352,5667392,5670226,8,400,28,,ISIC_0024990.JPG
break,html.Screen,4_127_1,2023-11-02T03:23:02.561Z,,0,,,NaN,,,,,,false,,,,5670194,5670193,,5670193,,5670226,8,400,,,
break_continue,html.Screen,4_127_2,2023-11-02T03:23:02.562Z,,0,,,NaN,,,,,,false,,,,5670194,5670194,,5670194,,5670226,8,400,,,
sequence,flow.Sequence,4_127,2023-11-02T03:23:02.562Z,,0,,,2802,completion,,,,,false,,,,5670194,5670194,5667376,5667352,5667392,5670226,8,400,,,
trial,html.Screen,4_128_0,2023-11-02T03:23:05.189Z,,0,3,,2611,response,ISIC_0003281.JPG,9,ISIC_0027076.JPG,ISIC_0003281.JPG,false,1,keypress(m),500,5672822,5672821,5670210,5670195,5670226,5672859,8,400,29,,ISIC_0027076.JPG
break,html.Screen,4_128_1,2023-11-02T03:23:05.190Z,,0,,,NaN,,,,,,false,,,,5672823,5672823,,5672822,,5672859,8,400,,,
break_continue,html.Screen,4_128_2,2023-11-02T03:23:05.191Z,,0,,,NaN,,,,,,false,,,,5672823,5672823,,5672823,,5672859,8,400,,,
sequence,flow.Sequence,4_128,2023-11-02T03:23:05.191Z,,0,,,2597,completion,,,,,false,,,,5672824.000000001,5672823,5670210,5670195,5670226,5672859,8,400,,,
trial,html.Screen,4_129_0,2023-11-02T03:23:07.887Z,,0,3,,2675,response,ISIC_2299862.JPG,7,ISIC_7460560.JPG,ISIC_2299862.JPG,false,1,keypress(m),500,5675519,5675518,5672843,5672824.000000001,5672859,5675560,8,400,30,,ISIC_7460560.JPG
break,html.Screen,4_129_1,2023-11-02T03:23:07.888Z,,0,,,NaN,,,,,,false,,,,5675521,5675520,,5675520,,5675560,8,400,,,
break_continue,html.Screen,4_129_2,2023-11-02T03:23:07.889Z,,0,,,NaN,,,,,,false,,,,5675521,5675521,,5675521,,5675560,8,400,,,
sequence,flow.Sequence,4_129,2023-11-02T03:23:07.889Z,,0,,,2662,completion,,,,,false,,,,5675521,5675521,5672843,5672824.000000001,5672859,5675560,8,400,,,
trial,html.Screen,4_130_0,2023-11-02T03:23:10.605Z,,0,3,,2695,response,ISIC_0010900.JPG,10,ISIC_4539674.JPG,ISIC_4539674.JPG,false,0,keypress(z),500,5678237,5678237,5675542,5675521,5675560,5678276,8,400,31,,ISIC_0010900.JPG
break,html.Screen,4_130_1,2023-11-02T03:23:10.606Z,,0,,,NaN,,,,,,false,,,,5678238,5678238,,5678238,,5678276,8,400,,,
break_continue,html.Screen,4_130_2,2023-11-02T03:23:10.606Z,,0,,,NaN,,,,,,false,,,,5678239.000000001,5678239.000000001,,5678239.000000001,,5678276,8,400,,,
sequence,flow.Sequence,4_130,2023-11-02T03:23:10.607Z,,0,,,2679.0000000009313,completion,,,,,false,,,,5678239.000000001,5678239.000000001,5675542,5675521,5675560,5678276,8,400,,,
trial,html.Screen,4_131_0,2023-11-02T03:23:13.284Z,,0,3,,2656,response,ISIC_0011848.JPG,6,ISIC_0068477.JPG,ISIC_0011848.JPG,false,1,keypress(m),500,5680916,5680915,5678259,5678239.000000001,5678276,5680959,8,400,32,,ISIC_0068477.JPG
break,html.Screen,4_131_1,2023-11-02T03:23:13.285Z,,0,,,NaN,,,,,,false,,,,5680917,5680917,,5680916,,5680959,8,400,,,
break_continue,html.Screen,4_131_2,2023-11-02T03:23:13.285Z,,0,,,NaN,,,,,,false,,,,5680918,5680918,,5680918,,5680959,8,400,,,
sequence,flow.Sequence,4_131,2023-11-02T03:23:13.286Z,,0,,,2642,completion,,,,,false,,,,5680918,5680918,5678259,5678239.000000001,5678276,5680959,8,400,,,
trial,html.Screen,4_132_0,2023-11-02T03:23:15.963Z,,0,3,,2652,response,ISIC_0005879.JPG,3,ISIC_0016112.JPG,ISIC_0005879.JPG,false,1,keypress(m),500,5683596,5683595,5680943,5680918,5680959,5683625,8,400,33,,ISIC_0016112.JPG
break,html.Screen,4_132_1,2023-11-02T03:23:15.965Z,,0,,,NaN,,,,,,false,,,,5683597,5683597,,5683596,,5683625,8,400,,,
break_continue,html.Screen,4_132_2,2023-11-02T03:23:15.965Z,,0,,,NaN,,,,,,false,,,,5683598,5683598,,5683598,,5683625,8,400,,,
sequence,flow.Sequence,4_132,2023-11-02T03:23:15.965Z,,0,,,2639,completion,,,,,false,,,,5683598,5683598,5680943,5680918,5680959,5683625,8,400,,,
trial,html.Screen,4_133_0,2023-11-02T03:23:18.792Z,,0,3,,2814,response,ISIC_0071826.JPG,5,ISIC_0066149.JPG,ISIC_0066149.JPG,false,0,keypress(z),500,5686425,5686424,5683610,5683598,5683625,5686460,8,400,34,,ISIC_0071826.JPG
break,html.Screen,4_133_1,2023-11-02T03:23:18.793Z,,0,,,NaN,,,,,,false,,,,5686426,5686426,,5686425,,5686460,8,400,,,
break_continue,html.Screen,4_133_2,2023-11-02T03:23:18.794Z,,0,,,NaN,,,,,,false,,,,5686427,5686427,,5686426,,5686460,8,400,,,
sequence,flow.Sequence,4_133,2023-11-02T03:23:18.794Z,,0,,,2802,completion,,,,,false,,,,5686427,5686427,5683610,5683598,5683625,5686460,8,400,,,
trial,html.Screen,4_134_0,2023-11-02T03:23:21.165Z,,0,3,,2355.0000000009313,response,ISIC_0026901.JPG,8,ISIC_6920867.JPG,ISIC_0026901.JPG,false,1,keypress(m),500,5688798,5688797.000000001,5686442,5686427,5686460,5688826,8,400,35,,ISIC_6920867.JPG
break,html.Screen,4_134_1,2023-11-02T03:23:21.167Z,,0,,,NaN,,,,,,false,,,,5688799,5688799,,5688798,,5688826,8,400,,,
break_continue,html.Screen,4_134_2,2023-11-02T03:23:21.167Z,,0,,,NaN,,,,,,false,,,,5688800,5688800,,5688800,,5688826,8,400,,,
sequence,flow.Sequence,4_134,2023-11-02T03:23:21.168Z,,0,,,2340,completion,,,,,false,,,,5688800,5688800,5686442,5686427,5686460,5688826,8,400,,,
trial,html.Screen,4_135_0,2023-11-02T03:23:23.945Z,,0,3,,2767,response,ISIC_0169604.JPG,7,ISIC_0004482.JPG,ISIC_0004482.JPG,false,0,keypress(z),500,5691578,5691577,5688810,5688800,5688826,5691609,8,400,36,,ISIC_0169604.JPG
break,html.Screen,4_135_1,2023-11-02T03:23:23.947Z,,0,,,NaN,,,,,,false,,,,5691579,5691579,,5691578,,5691609,8,400,,,
break_continue,html.Screen,4_135_2,2023-11-02T03:23:23.947Z,,0,,,NaN,,,,,,false,,,,5691580,5691579,,5691579,,5691609,8,400,,,
sequence,flow.Sequence,4_135,2023-11-02T03:23:23.947Z,,0,,,2753,completion,,,,,false,,,,5691580,5691579,5688810,5688800,5688826,5691609,8,400,,,
trial,html.Screen,4_136_0,2023-11-02T03:23:26.344Z,,0,3,,2383.0000000009313,response,ISIC_2874218.JPG,9,ISIC_0025195.JPG,ISIC_2874218.JPG,false,1,keypress(m),500,5693977,5693976.000000001,5691593,5691580,5691609,5694010,8,400,37,,ISIC_0025195.JPG
break,html.Screen,4_136_1,2023-11-02T03:23:26.345Z,,0,,,NaN,,,,,,false,,,,5693978,5693977,,5693977,,5694010,8,400,,,
break_continue,html.Screen,4_136_2,2023-11-02T03:23:26.346Z,,0,,,NaN,,,,,,false,,,,5693978,5693978,,5693978,,5694010,8,400,,,
sequence,flow.Sequence,4_136,2023-11-02T03:23:26.346Z,,0,,,2369,completion,,,,,false,,,,5693978,5693978,5691593,5691580,5691609,5694010,8,400,,,
trial,html.Screen,4_137_0,2023-11-02T03:23:29.155Z,,0,3,,2795,response,ISIC_7132685.JPG,12,ISIC_0067458.JPG,ISIC_7132685.JPG,false,1,keypress(m),500,5696788,5696788,5693993,5693979,5694010,5696810,8,400,38,,ISIC_0067458.JPG
break,html.Screen,4_137_1,2023-11-02T03:23:29.157Z,,0,,,NaN,,,,,,false,,,,5696790,5696789,,5696789,,5696810,8,400,,,
break_continue,html.Screen,4_137_2,2023-11-02T03:23:29.157Z,,0,,,NaN,,,,,,false,,,,5696790,5696790,,5696790,,5696810,8,400,,,
sequence,flow.Sequence,4_137,2023-11-02T03:23:29.157Z,,0,,,2780,completion,,,,,false,,,,5696790,5696790,5693993,5693979,5694010,5696810,8,400,,,
trial,html.Screen,4_138_0,2023-11-02T03:23:31.913Z,,0,3,,2752,response,ISIC_2445475.JPG,6,ISIC_1874480.JPG,ISIC_2445475.JPG,false,1,keypress(m),500,5699545,5699545,5696793,5696790,5696810,5699576,8,400,39,,ISIC_1874480.JPG
break,html.Screen,4_138_1,2023-11-02T03:23:31.914Z,,0,,,NaN,,,,,,false,,,,5699547.000000001,5699547.000000001,,5699546,,5699576,8,400,,,
break_continue,html.Screen,4_138_2,2023-11-02T03:23:31.915Z,,0,,,NaN,,,,,,false,,,,5699547.000000001,5699547.000000001,,5699547.000000001,,5699576,8,400,,,
sequence,flow.Sequence,4_138,2023-11-02T03:23:31.915Z,,0,,,2737.0000000009313,completion,,,,,false,,,,5699547.000000001,5699547.000000001,5696793,5696790,5696810,5699576,8,400,,,
trial,html.Screen,4_139_0,2023-11-02T03:23:34.522Z,,0,3,,2595,response,ISIC_0013204.JPG,8,ISIC_5576354.JPG,ISIC_0013204.JPG,false,1,keypress(m),500,5702155,5702155,5699560,5699548,5699576,5702193,8,400,40,,ISIC_5576354.JPG
break,html.Screen,4_139_1,2023-11-02T03:23:34.523Z,,0,,,NaN,,,,,,false,,,,5702156,5702156,,5702155,,5702193,8,400,,,
break_continue,html.Screen,4_139_2,2023-11-02T03:23:34.524Z,,0,,,NaN,,,,,,false,,,,5702157,5702157,,5702156,,5702193,8,400,,,
sequence,flow.Sequence,4_139,2023-11-02T03:23:34.524Z,,0,,,2581,completion,,,,,false,,,,5702157,5702157,5699560,5699548,5699576,5702193,8,400,,,
trial,html.Screen,4_140_0,2023-11-02T03:23:37.031Z,,0,3,,2488,response,ISIC_0028919.JPG,6,ISIC_0026239.JPG,ISIC_0028919.JPG,false,1,keypress(m),500,5704664,5704664,5702176,5702157,5702193,5704692,8,400,41,,ISIC_0026239.JPG
break,html.Screen,4_140_1,2023-11-02T03:23:37.032Z,,0,,,NaN,,,,,,false,,,,5704665,5704665,,5704665,,5704692,8,400,,,
break_continue,html.Screen,4_140_2,2023-11-02T03:23:37.033Z,,0,,,NaN,,,,,,false,,,,5704666,5704666,,5704665,,5704692,8,400,,,
sequence,flow.Sequence,4_140,2023-11-02T03:23:37.033Z,,0,,,2473,completion,,,,,false,,,,5704666,5704666,5702176,5702157,5702193,5704692,8,400,,,
trial,html.Screen,4_141_0,2023-11-02T03:23:39.818Z,,0,3,,2771,response,ISIC_0032171.JPG,4,ISIC_5267208.JPG,ISIC_0032171.JPG,false,1,keypress(m),500,5707451,5707447,5704676,5704666,5704692,5707492,8,400,42,,ISIC_5267208.JPG
break,html.Screen,4_141_1,2023-11-02T03:23:39.819Z,,0,,,NaN,,,,,,false,,,,5707452,5707451,,5707451,,5707492,8,400,,,
break_continue,html.Screen,4_141_2,2023-11-02T03:23:39.819Z,,0,,,NaN,,,,,,false,,,,5707452,5707452,,5707452,,5707492,8,400,,,
sequence,flow.Sequence,4_141,2023-11-02T03:23:39.819Z,,0,,,2760,completion,,,,,false,,,,5707452,5707452,5704676,5704666,5704692,5707492,8,400,,,
trial,html.Screen,4_142_0,2023-11-02T03:23:42.375Z,,0,3,,2531.0000000009313,response,ISIC_8497457.JPG,5,ISIC_0027271.JPG,ISIC_0027271.JPG,false,0,keypress(z),500,5710008,5710007.000000001,5707476,5707452,5707492,5710043,8,400,43,,ISIC_8497457.JPG
break,html.Screen,4_142_1,2023-11-02T03:23:42.376Z,,0,,,NaN,,,,,,false,,,,5710009,5710009,,5710008,,5710043,8,400,,,
break_continue,html.Screen,4_142_2,2023-11-02T03:23:42.377Z,,0,,,NaN,,,,,,false,,,,5710010,5710010,,5710009,,5710043,8,400,,,
sequence,flow.Sequence,4_142,2023-11-02T03:23:42.377Z,,0,,,2518,completion,,,,,false,,,,5710010,5710010,5707476,5707452,5707492,5710043,8,400,,,
trial,html.Screen,4_143_0,2023-11-02T03:23:44.837Z,,0,3,,2443,response,ISIC_0014946.JPG,13,ISIC_0068727.JPG,ISIC_0014946.JPG,false,1,keypress(m),500,5712470,5712469,5710026,5710010,5710043,5712493,8,400,44,,ISIC_0068727.JPG
break,html.Screen,4_143_1,2023-11-02T03:23:44.838Z,,0,,,NaN,,,,,,false,,,,5712471,5712471,,5712470,,5712493,8,400,,,
break_continue,html.Screen,4_143_2,2023-11-02T03:23:44.839Z,,0,,,NaN,,,,,,false,,,,5712472,5712472,,5712471,,5712493,8,400,,,
sequence,flow.Sequence,4_143,2023-11-02T03:23:44.839Z,,0,,,2429,completion,,,,,false,,,,5712472,5712472,5710026,5710010,5710043,5712493,8,400,,,
trial,html.Screen,4_144_0,2023-11-02T03:23:47.402Z,,0,3,,2559,response,ISIC_2731621.JPG,8,ISIC_0011163.JPG,ISIC_2731621.JPG,false,1,keypress(m),500,5715035,5715035,5712476,5712472,5712493,5715060,8,400,45,,ISIC_0011163.JPG
break,html.Screen,4_144_1,2023-11-02T03:23:47.403Z,,0,,,NaN,,,,,,false,,,,5715036,5715036,,5715035,,5715060,8,400,,,
break_continue,html.Screen,4_144_2,2023-11-02T03:23:47.404Z,,0,,,NaN,,,,,,false,,,,5715037,5715037,,5715037,,5715060,8,400,,,
sequence,flow.Sequence,4_144,2023-11-02T03:23:47.404Z,,0,,,2544,completion,,,,,false,,,,5715037,5715037,5712476,5712472,5712493,5715060,8,400,,,
trial,html.Screen,4_145_0,2023-11-02T03:23:49.865Z,,0,3,,2455.0000000009313,response,ISIC_1441260.JPG,7,ISIC_0029839.JPG,ISIC_1441260.JPG,false,1,keypress(m),500,5717498.000000001,5717498.000000001,5715043,5715037,5715060,5717526,8,400,46,,ISIC_0029839.JPG
break,html.Screen,4_145_1,2023-11-02T03:23:49.867Z,,0,,,NaN,,,,,,false,,,,5717500,5717499,,5717499,,5717526,8,400,,,
break_continue,html.Screen,4_145_2,2023-11-02T03:23:49.867Z,,0,,,NaN,,,,,,false,,,,5717500,5717500,,5717500,,5717526,8,400,,,
sequence,flow.Sequence,4_145,2023-11-02T03:23:49.867Z,,0,,,2440,completion,,,,,false,,,,5717500,5717500,5715043,5715037,5715060,5717526,8,400,,,
trial,html.Screen,4_146_0,2023-11-02T03:23:52.232Z,,0,3,,2356,response,ISIC_0034052.JPG,5,ISIC_0011375.JPG,ISIC_0034052.JPG,false,1,keypress(m),500,5719866,5719865,5717509,5717500,5717526,5719893,8,400,47,,ISIC_0011375.JPG
break,html.Screen,4_146_1,2023-11-02T03:23:52.234Z,,0,,,NaN,,,,,,false,,,,5719867,5719866,,5719866,,5719893,8,400,,,
break_continue,html.Screen,4_146_2,2023-11-02T03:23:52.234Z,,0,,,NaN,,,,,,false,,,,5719867,5719867,,5719867,,5719893,8,400,,,
sequence,flow.Sequence,4_146,2023-11-02T03:23:52.234Z,,0,,,2341,completion,,,,,false,,,,5719867,5719867,5717509,5717500,5717526,5719893,8,400,,,
trial,html.Screen,4_147_0,2023-11-02T03:23:54.994Z,,0,3,,2751,response,ISIC_0029651.JPG,5,ISIC_6839272.JPG,ISIC_0029651.JPG,false,1,keypress(m),500,5722627,5722627,5719876,5719868,5719893,5722659,8,400,48,,ISIC_6839272.JPG
break,html.Screen,4_147_1,2023-11-02T03:23:54.996Z,,0,,,NaN,,,,,,false,,,,5722629,5722628,,5722628,,5722659,8,400,,,
break_continue,html.Screen,4_147_2,2023-11-02T03:23:54.996Z,,0,,,NaN,,,,,,false,,,,5722630,5722629,,5722629,,5722659,8,400,,,
sequence,flow.Sequence,4_147,2023-11-02T03:23:54.997Z,,0,,,2736,completion,,,,,false,,,,5722630,5722629,5719876,5719867,5719893,5722659,8,400,,,
trial,html.Screen,4_148_0,2023-11-02T03:23:57.567Z,,0,3,,2556.0000000009313,response,ISIC_9109847.JPG,10,ISIC_2948811.JPG,ISIC_9109847.JPG,false,1,keypress(m),500,5725200,5725199.000000001,5722643,5722630,5722659,5725227,8,400,49,,ISIC_2948811.JPG
break,html.Screen,4_148_1,2023-11-02T03:23:57.568Z,,0,,,NaN,,,,,,false,,,,5725201,5725201,,5725200,,5725227,8,400,,,
break_continue,html.Screen,4_148_2,2023-11-02T03:23:57.568Z,,0,,,NaN,,,,,,false,,,,5725202,5725201,,5725201,,5725227,8,400,,,
sequence,flow.Sequence,4_148,2023-11-02T03:23:57.569Z,,0,,,2542,completion,,,,,false,,,,5725202,5725201,5722643,5722630,5722659,5725227,8,400,,,
trial,html.Screen,4_149_0,2023-11-02T03:24:00.140Z,,0,3,,2562,response,ISIC_0013498.JPG,8,ISIC_0033813.JPG,ISIC_0013498.JPG,false,1,keypress(m),500,5727773,5727772,5725210,5725202,5725227,5727793,8,400,50,,ISIC_0033813.JPG
break,html.Screen,4_149_1,2023-11-02T03:24:10.144Z,,0,,,10000,timeout,,,,,false,,,,5737777,5737777,5727776,5727773,5727793,5737793,8,400,,,
break_continue,html.Screen,4_149_2,2023-11-02T03:24:11.156Z,,0,,,995,response,,,,,false,continue,keypress(Space),,5738790,5738772,5737777,5737777,5737793,5738826,8,400,,,
sequence,flow.Sequence,4_149,2023-11-02T03:24:11.156Z,,0,,,13545,completion,,,,,false,,,,5738790,5738772,5725210,5725202,5725227,5738826,8,400,,,
trial,html.Screen,4_150_0,2023-11-02T03:24:14.539Z,,0,4,,3362.0000000009313,response,ISIC_2089231.JPG,5,ISIC_0014132.JPG,ISIC_2089231.JPG,false,1,keypress(m),500,5742173,5742172.000000001,5738810,5738790,5738826,5742210,8,400,1,,ISIC_0014132.JPG
break,html.Screen,4_150_1,2023-11-02T03:24:14.541Z,,0,,,NaN,,,,,,false,,,,5742174,5742174,,5742173,,5742210,8,400,,,
break_continue,html.Screen,4_150_2,2023-11-02T03:24:14.541Z,,0,,,NaN,,,,,,false,,,,5742174,5742174,,5742174,,5742210,8,400,,,
sequence,flow.Sequence,4_150,2023-11-02T03:24:14.541Z,,0,,,3348,completion,,,,,false,,,,5742175,5742174,5738810,5738790,5738826,5742210,8,400,,,
trial,html.Screen,4_151_0,2023-11-02T03:24:17.474Z,,0,4,,2914,response,ISIC_0011286.JPG,3,ISIC_1838888.JPG,ISIC_1838888.JPG,false,0,keypress(z),500,5745108,5745107,5742193,5742175,5742210,5745143,8,400,2,,ISIC_0011286.JPG
break,html.Screen,4_151_1,2023-11-02T03:24:17.475Z,,0,,,NaN,,,,,,false,,,,5745109,5745109,,5745108,,5745143,8,400,,,
break_continue,html.Screen,4_151_2,2023-11-02T03:24:17.476Z,,0,,,NaN,,,,,,false,,,,5745109,5745109,,5745109,,5745143,8,400,,,
sequence,flow.Sequence,4_151,2023-11-02T03:24:17.476Z,,0,,,2899,completion,,,,,false,,,,5745110,5745109,5742193,5742175,5742210,5745143,8,400,,,
trial,html.Screen,4_152_0,2023-11-02T03:24:20.252Z,,0,4,,2758,response,ISIC_0062196.JPG,13,ISIC_9335652.JPG,ISIC_9335652.JPG,false,0,keypress(z),500,5747885,5747885,5745127,5745110,5745143,5747927,8,400,3,,ISIC_0062196.JPG
break,html.Screen,4_152_1,2023-11-02T03:24:20.253Z,,0,,,NaN,,,,,,false,,,,5747886,5747886,,5747885,,5747927,8,400,,,
break_continue,html.Screen,4_152_2,2023-11-02T03:24:20.253Z,,0,,,NaN,,,,,,false,,,,5747887,5747887,,5747886,,5747927,8,400,,,
sequence,flow.Sequence,4_152,2023-11-02T03:24:20.253Z,,0,,,2744,completion,,,,,false,,,,5747887,5747887,5745127,5745110,5745143,5747927,8,400,,,
trial,html.Screen,4_153_0,2023-11-02T03:24:22.939Z,,0,4,,2662,response,ISIC_0071481.JPG,7,ISIC_1772828.JPG,ISIC_0071481.JPG,false,1,keypress(m),500,5750573,5750572,5747910,5747887,5747927,5750609,8,400,4,,ISIC_1772828.JPG
break,html.Screen,4_153_1,2023-11-02T03:24:22.940Z,,0,,,NaN,,,,,,false,,,,5750574.000000001,5750574.000000001,,5750573,,5750609,8,400,,,
break_continue,html.Screen,4_153_2,2023-11-02T03:24:22.941Z,,0,,,NaN,,,,,,false,,,,5750574.000000001,5750574.000000001,,5750574.000000001,,5750609,8,400,,,
sequence,flow.Sequence,4_153,2023-11-02T03:24:22.941Z,,0,,,2647.0000000009313,completion,,,,,false,,,,5750574.000000001,5750574.000000001,5747910,5747887,5747927,5750609,8,400,,,
trial,html.Screen,4_154_0,2023-11-02T03:24:25.947Z,,0,4,,2987,response,ISIC_0062323.JPG,3,ISIC_0801281.JPG,ISIC_0801281.JPG,false,0,keypress(z),500,5753581,5753580,5750593,5750575,5750609,5753610,8,400,5,,ISIC_0062323.JPG
break,html.Screen,4_154_1,2023-11-02T03:24:25.949Z,,0,,,NaN,,,,,,false,,,,5753582,5753582,,5753581,,5753610,8,400,,,
break_continue,html.Screen,4_154_2,2023-11-02T03:24:25.949Z,,0,,,NaN,,,,,,false,,,,5753583.000000001,5753583.000000001,,5753583.000000001,,5753610,8,400,,,
sequence,flow.Sequence,4_154,2023-11-02T03:24:25.949Z,,0,,,2974.0000000009313,completion,,,,,false,,,,5753583.000000001,5753583.000000001,5750593,5750575,5750609,5753610,8,400,,,
trial,html.Screen,4_155_0,2023-11-02T03:24:29.481Z,,0,4,,3521.0000000009313,response,ISIC_0069488.JPG,4,ISIC_3564136.JPG,ISIC_3564136.JPG,false,0,keypress(z),500,5757115,5757114.000000001,5753593,5753583.000000001,5753610,5757143,8,400,6,,ISIC_0069488.JPG
break,html.Screen,4_155_1,2023-11-02T03:24:29.482Z,,0,,,NaN,,,,,,false,,,,5757116,5757116,,5757115,,5757143,8,400,,,
break_continue,html.Screen,4_155_2,2023-11-02T03:24:29.483Z,,0,,,NaN,,,,,,false,,,,5757116,5757116,,5757116,,5757143,8,400,,,
