sender,sender_type,sender_id,timestamp,meta,,blockNo,condition,duration,ended_on,img_left,img_reveal,img_right,loser,practice,response,response_action,selection_duration,time_commit,time_end,time_render,time_run,time_show,time_switch,total_blocks,total_trials,trialNo,url,winner
informed_consent,html.Screen,0,2023-10-31T00:42:58.266Z,"{""labjs_version"":""20.2.4"",""labjs_build"":{""flavor"":""production"",""commit"":""f5b4a49f956347addd546a832a3327688c2c0fef""},""location"":""https://run.pavlovia.org/MurrayBennett/melanoma-2afc/?participant=66057&platform=sona"",""userAgent"":""Mozilla/5.0 (Macintosh; Intel Mac OS X 10_15_7) AppleWebKit/605.1.15 (KHTML, like Gecko) Version/16.6 Safari/605.1.15"",""platform"":""MacIntel"",""language"":""en-US"",""locale"":""en-US"",""timeZone"":""America/Chicago"",""timezoneOffset"":300,""screen_width"":1680,""screen_height"":1050,""scroll_width"":1324,""scroll_height"":812,""window_innerWidth"":1324,""window_innerHeight"":860,""devicePixelRatio"":2}",,,,13829,response,,,,,,consent,click button,,14778,14733,904,898,910,14806,,,,"{""participant"":""66057"",""platform"":""sona""}",
Welcome,html.Screen,1,2023-10-31T00:43:58.264Z,,,,irregular,59932,response,,,,,,continue,click button,,74776,74732,14800,14778,14806,74801,,,,,
trial,html.Screen,2_0_0,2023-10-31T00:44:08.660Z,,0,0,,10388,response,ISIC_4679428.JPG,,ISIC_0061792.JPG,ISIC_4679428.JPG,true,1,keypress(m),500,85172,85172,74784,74777,74801,85200,1,6,1,,ISIC_0061792.JPG
sequence,flow.Sequence,2_0,2023-10-31T00:44:08.660Z,,0,,,10371,completion,,,,,true,,,,85172,85172,74784,74777,74801,85200,1,6,,,
trial,html.Screen,2_1_0,2023-10-31T00:44:15.353Z,,0,0,,6680,response,ISIC_5199497.JPG,,ISIC_0776486.JPG,ISIC_0776486.JPG,true,0,keypress(z),500,91865,91865,85185,85173,85200,91901,1,6,2,,ISIC_5199497.JPG
sequence,flow.Sequence,2_1,2023-10-31T00:44:15.353Z,,0,,,6665,completion,,,,,true,,,,91865,91865,85185,85172,85200,91901,1,6,,,
trial,html.Screen,2_2_0,2023-10-31T00:44:19.562Z,,0,0,,4190.000000000015,response,ISIC_8575776.JPG,,ISIC_2556187.JPG,ISIC_8575776.JPG,true,1,keypress(m),500,96073.00000000001,96073.00000000001,91883,91865,91901,96101,1,6,3,,ISIC_2556187.JPG
sequence,flow.Sequence,2_2,2023-10-31T00:44:19.562Z,,0,,,4172.000000000015,completion,,,,,true,,,,96074,96073.00000000001,91883,91865,91901,96101,1,6,,,
trial,html.Screen,2_3_0,2023-10-31T00:44:24.389Z,,0,0,,4816,response,ISIC_8141769.JPG,,ISIC_9238366.JPG,ISIC_8141769.JPG,true,1,keypress(m),500,100900,100900,96084,96074,96101,100934,1,6,4,,ISIC_9238366.JPG
sequence,flow.Sequence,2_3,2023-10-31T00:44:24.389Z,,0,,,4799,completion,,,,,true,,,,100900,100900,96084,96074,96101,100934,1,6,,,
trial,html.Screen,2_4_0,2023-10-31T00:44:29.947Z,,0,0,,5540,response,ISIC_9959593.JPG,,ISIC_8949026.JPG,ISIC_8949026.JPG,true,0,keypress(z),500,106458,106458,100918,100901,100934,106484,1,6,5,,ISIC_9959593.JPG
sequence,flow.Sequence,2_4,2023-10-31T00:44:29.947Z,,0,,,5524,completion,,,,,true,,,,106459,106458,100918,100901,100934,106484,1,6,,,
trial,html.Screen,2_5_0,2023-10-31T00:44:33.787Z,,0,0,,3831,response,ISIC_0010479.JPG,,ISIC_0460240.JPG,ISIC_0460240.JPG,true,0,keypress(z),500,110298,110298,106467,106459,106484,110333,1,6,6,,ISIC_0010479.JPG
sequence,flow.Sequence,2_5,2023-10-31T00:44:33.787Z,,0,,,3814,completion,,,,,true,,,,110299,110298,106467,106459,106484,110333,1,6,,,
loop,flow.Loop,2,2023-10-31T00:44:33.787Z,,,,,35497,completion,,,,,true,,,,110299,110298,74784,74777,74801,110333,1,6,,,
exp_instructions,html.Screen,3,2023-10-31T00:44:40.924Z,,,,,7092,response,,,,,,continue,keypress(Space),,117435,117410,110318,110299,110333,117468,,,,,
trial,html.Screen,4_0_0,2023-10-31T00:44:49.472Z,,0,1,,8534.000000000015,response,ISIC_0004996.JPG,7,ISIC_0068217.JPG,ISIC_0068217.JPG,false,0,keypress(z),500,125984.00000000001,125984.00000000001,117450,117435,117468,126017,8,400,1,,ISIC_0004996.JPG
break,html.Screen,4_0_1,2023-10-31T00:44:49.473Z,,0,,,NaN,,,,,,false,,,,125985,125984.00000000001,,125984.00000000001,,126017,8,400,,,
break_continue,html.Screen,4_0_2,2023-10-31T00:44:49.473Z,,0,,,NaN,,,,,,false,,,,125985,125985,,125985,,126017,8,400,,,
sequence,flow.Sequence,4_0,2023-10-31T00:44:49.474Z,,0,,,8517,completion,,,,,false,,,,125985,125985,117450,117435,117468,126017,8,400,,,
trial,html.Screen,4_1_0,2023-10-31T00:44:53.573Z,,0,1,,4085.0000000000146,response,ISIC_2349743.JPG,10,ISIC_5409902.JPG,ISIC_5409902.JPG,false,0,keypress(z),500,130085.00000000001,130085.00000000001,126000,125985,126017,130116,8,400,2,,ISIC_2349743.JPG
break,html.Screen,4_1_1,2023-10-31T00:44:53.574Z,,0,,,NaN,,,,,,false,,,,130085.00000000001,130085.00000000001,,130085.00000000001,,130116,8,400,,,
break_continue,html.Screen,4_1_2,2023-10-31T00:44:53.574Z,,0,,,NaN,,,,,,false,,,,130086.00000000001,130086.00000000001,,130086.00000000001,,130116,8,400,,,
sequence,flow.Sequence,4_1,2023-10-31T00:44:53.575Z,,0,,,4069.0000000000146,completion,,,,,false,,,,130086.00000000001,130086.00000000001,126000,125985,126017,130116,8,400,,,
trial,html.Screen,4_2_0,2023-10-31T00:44:57.308Z,,0,1,,3718.000000000029,response,ISIC_4539674.JPG,10,ISIC_2702929.JPG,ISIC_4539674.JPG,false,1,keypress(m),500,133819.00000000003,133819.00000000003,130101,130086.00000000001,130116,133850,8,400,3,,ISIC_2702929.JPG
break,html.Screen,4_2_1,2023-10-31T00:44:57.308Z,,0,,,NaN,,,,,,false,,,,133820,133819.00000000003,,133819.00000000003,,133850,8,400,,,
break_continue,html.Screen,4_2_2,2023-10-31T00:44:57.309Z,,0,,,NaN,,,,,,false,,,,133820,133820,,133820,,133850,8,400,,,
sequence,flow.Sequence,4_2,2023-10-31T00:44:57.309Z,,0,,,3704,completion,,,,,false,,,,133820,133820,130101,130086.00000000001,130116,133850,8,400,,,
trial,html.Screen,4_3_0,2023-10-31T00:45:05.128Z,,0,1,,7805,response,ISIC_4899386.JPG,5,ISIC_1083681.JPG,ISIC_1083681.JPG,false,0,keypress(z),500,141640.00000000003,141639,133834,133820,133850,141667,8,400,4,,ISIC_4899386.JPG
break,html.Screen,4_3_1,2023-10-31T00:45:05.129Z,,0,,,NaN,,,,,,false,,,,141640.00000000003,141640.00000000003,,141640.00000000003,,141667,8,400,,,
break_continue,html.Screen,4_3_2,2023-10-31T00:45:05.129Z,,0,,,NaN,,,,,,false,,,,141641,141641,,141640.00000000003,,141667,8,400,,,
sequence,flow.Sequence,4_3,2023-10-31T00:45:05.129Z,,0,,,7791,completion,,,,,false,,,,141641,141641,133834,133820,133850,141667,8,400,,,
trial,html.Screen,4_4_0,2023-10-31T00:45:09.508Z,,0,1,,4369,response,ISIC_1226440.JPG,6,ISIC_3073634.JPG,ISIC_3073634.JPG,false,0,keypress(z),500,146020,146019,141650,141641,141667,146050,8,400,5,,ISIC_1226440.JPG
break,html.Screen,4_4_1,2023-10-31T00:45:09.509Z,,0,,,NaN,,,,,,false,,,,146020,146020,,146020,,146050,8,400,,,
break_continue,html.Screen,4_4_2,2023-10-31T00:45:09.509Z,,0,,,NaN,,,,,,false,,,,146021.00000000003,146021.00000000003,,146021.00000000003,,146050,8,400,,,
sequence,flow.Sequence,4_4,2023-10-31T00:45:09.510Z,,0,,,4354.000000000029,completion,,,,,false,,,,146021.00000000003,146021.00000000003,141650,141641,141667,146050,8,400,,,
trial,html.Screen,4_5_0,2023-10-31T00:45:13.447Z,,0,1,,3925,response,ISIC_3690890.JPG,9,ISIC_0011669.JPG,ISIC_3690890.JPG,false,1,keypress(m),500,149958,149958,146033,146021.00000000003,146050,149984,8,400,6,,ISIC_0011669.JPG
break,html.Screen,4_5_1,2023-10-31T00:45:13.447Z,,0,,,NaN,,,,,,false,,,,149959,149958,,149958,,149984,8,400,,,
break_continue,html.Screen,4_5_2,2023-10-31T00:45:13.448Z,,0,,,NaN,,,,,,false,,,,149959,149959,,149959,,149984,8,400,,,
sequence,flow.Sequence,4_5,2023-10-31T00:45:13.448Z,,0,,,3909,completion,,,,,false,,,,149959,149959,146033,146021.00000000003,146050,149984,8,400,,,
trial,html.Screen,4_6_0,2023-10-31T00:45:18.688Z,,0,1,,5232,response,ISIC_0013969.JPG,5,ISIC_4032636.JPG,ISIC_4032636.JPG,false,0,keypress(z),500,155199,155199,149967,149959,149984,155234,8,400,7,,ISIC_0013969.JPG
break,html.Screen,4_6_1,2023-10-31T00:45:18.689Z,,0,,,NaN,,,,,,false,,,,155200.00000000003,155200.00000000003,,155199,,155234,8,400,,,
break_continue,html.Screen,4_6_2,2023-10-31T00:45:18.689Z,,0,,,NaN,,,,,,false,,,,155200.00000000003,155200.00000000003,,155200.00000000003,,155234,8,400,,,
sequence,flow.Sequence,4_6,2023-10-31T00:45:18.689Z,,0,,,5216.000000000029,completion,,,,,false,,,,155200.00000000003,155200.00000000003,149967,149959,149984,155234,8,400,,,
trial,html.Screen,4_7_0,2023-10-31T00:45:21.904Z,,0,1,,3198,response,ISIC_0029937.JPG,13,ISIC_0032204.JPG,ISIC_0029937.JPG,false,1,keypress(m),500,158415,158415,155217,155200.00000000003,155234,158450,8,400,8,,ISIC_0032204.JPG
break,html.Screen,4_7_1,2023-10-31T00:45:21.905Z,,0,,,NaN,,,,,,false,,,,158416,158416,,158415,,158450,8,400,,,
break_continue,html.Screen,4_7_2,2023-10-31T00:45:21.905Z,,0,,,NaN,,,,,,false,,,,158416,158416,,158416,,158450,8,400,,,
sequence,flow.Sequence,4_7,2023-10-31T00:45:21.905Z,,0,,,3182,completion,,,,,false,,,,158416,158416,155217,155200.00000000003,155234,158450,8,400,,,
trial,html.Screen,4_8_0,2023-10-31T00:45:26.234Z,,0,1,,4312,response,ISIC_2822622.JPG,12,ISIC_4568084.JPG,ISIC_4568084.JPG,false,0,keypress(z),500,162745,162745,158433,158416,158450,162766,8,400,9,,ISIC_2822622.JPG
break,html.Screen,4_8_1,2023-10-31T00:45:26.235Z,,0,,,NaN,,,,,,false,,,,162746,162746,,162746,,162766,8,400,,,
break_continue,html.Screen,4_8_2,2023-10-31T00:45:26.235Z,,0,,,NaN,,,,,,false,,,,162746,162746,,162746,,162766,8,400,,,
sequence,flow.Sequence,4_8,2023-10-31T00:45:26.235Z,,0,,,4296,completion,,,,,false,,,,162746,162746,158433,158416,158450,162766,8,400,,,
trial,html.Screen,4_9_0,2023-10-31T00:45:29.744Z,,0,1,,3505,response,ISIC_0029118.JPG,9,ISIC_3685448.JPG,ISIC_0029118.JPG,false,1,keypress(m),500,166255,166254,162749,162747,162766,166283,8,400,10,,ISIC_3685448.JPG
break,html.Screen,4_9_1,2023-10-31T00:45:29.744Z,,0,,,NaN,,,,,,false,,,,166255,166255,,166255,,166283,8,400,,,
break_continue,html.Screen,4_9_2,2023-10-31T00:45:29.744Z,,0,,,NaN,,,,,,false,,,,166256,166255,,166255,,166283,8,400,,,
sequence,flow.Sequence,4_9,2023-10-31T00:45:29.745Z,,0,,,3489,completion,,,,,false,,,,166256,166255,162749,162747,162766,166283,8,400,,,
trial,html.Screen,4_10_0,2023-10-31T00:45:33.477Z,,0,1,,3721,response,ISIC_0034232.JPG,10,ISIC_1739667.JPG,ISIC_1739667.JPG,false,0,keypress(z),500,169988,169987,166266,166256,166283,170017,8,400,11,,ISIC_0034232.JPG
break,html.Screen,4_10_1,2023-10-31T00:45:33.477Z,,0,,,NaN,,,,,,false,,,,169988,169988,,169988,,170017,8,400,,,
break_continue,html.Screen,4_10_2,2023-10-31T00:45:33.477Z,,0,,,NaN,,,,,,false,,,,169988,169988,,169988,,170017,8,400,,,
sequence,flow.Sequence,4_10,2023-10-31T00:45:33.478Z,,0,,,3705,completion,,,,,false,,,,169989,169988,166266,166256,166283,170017,8,400,,,
trial,html.Screen,4_11_0,2023-10-31T00:45:38.803Z,,0,1,,5314,response,ISIC_6404049.JPG,10,ISIC_5614300.JPG,ISIC_5614300.JPG,false,0,keypress(z),500,175314,175314,170000,169989,170017,175349,8,400,12,,ISIC_6404049.JPG
break,html.Screen,4_11_1,2023-10-31T00:45:38.804Z,,0,,,NaN,,,,,,false,,,,175315,175315,,175314,,175349,8,400,,,
break_continue,html.Screen,4_11_2,2023-10-31T00:45:38.804Z,,0,,,NaN,,,,,,false,,,,175315,175315,,175315,,175349,8,400,,,
sequence,flow.Sequence,4_11,2023-10-31T00:45:38.804Z,,0,,,5298,completion,,,,,false,,,,175315,175315,170000,169989,170017,175349,8,400,,,
trial,html.Screen,4_12_0,2023-10-31T00:45:41.944Z,,0,1,,3123,response,ISIC_3207651.JPG,7,ISIC_5707761.JPG,ISIC_5707761.JPG,false,0,keypress(z),500,178455,178455,175332,175315,175349,178483,8,400,13,,ISIC_3207651.JPG
break,html.Screen,4_12_1,2023-10-31T00:45:41.945Z,,0,,,NaN,,,,,,false,,,,178456.00000000003,178456.00000000003,,178456.00000000003,,178483,8,400,,,
break_continue,html.Screen,4_12_2,2023-10-31T00:45:41.945Z,,0,,,NaN,,,,,,false,,,,178456.00000000003,178456.00000000003,,178456.00000000003,,178483,8,400,,,
sequence,flow.Sequence,4_12,2023-10-31T00:45:41.945Z,,0,,,3107.000000000029,completion,,,,,false,,,,178456.00000000003,178456.00000000003,175332,175315,175349,178483,8,400,,,
trial,html.Screen,4_13_0,2023-10-31T00:45:46.239Z,,0,1,,4284,response,ISIC_0072977.JPG,9,ISIC_0034313.JPG,ISIC_0034313.JPG,false,0,keypress(z),500,182750,182750,178466,178456.00000000003,178483,182782,8,400,14,,ISIC_0072977.JPG
break,html.Screen,4_13_1,2023-10-31T00:45:46.240Z,,0,,,NaN,,,,,,false,,,,182751,182751,,182750,,182782,8,400,,,
break_continue,html.Screen,4_13_2,2023-10-31T00:45:46.240Z,,0,,,NaN,,,,,,false,,,,182751,182751,,182751,,182782,8,400,,,
sequence,flow.Sequence,4_13,2023-10-31T00:45:46.240Z,,0,,,4268,completion,,,,,false,,,,182751,182751,178466,178456.00000000003,178483,182782,8,400,,,
trial,html.Screen,4_14_0,2023-10-31T00:45:49.484Z,,0,1,,3228,response,ISIC_4246086.JPG,3,ISIC_0034106.JPG,ISIC_4246086.JPG,false,1,keypress(m),500,185995,185995,182767,182751,182782,186016,8,400,15,,ISIC_0034106.JPG
break,html.Screen,4_14_1,2023-10-31T00:45:49.485Z,,0,,,NaN,,,,,,false,,,,185996,185996,,185995,,186016,8,400,,,
break_continue,html.Screen,4_14_2,2023-10-31T00:45:49.485Z,,0,,,NaN,,,,,,false,,,,185996,185996,,185996,,186016,8,400,,,
sequence,flow.Sequence,4_14,2023-10-31T00:45:49.485Z,,0,,,3214,completion,,,,,false,,,,185996,185996,182767,182751,182782,186016,8,400,,,
trial,html.Screen,4_15_0,2023-10-31T00:45:52.395Z,,0,1,,2907,response,ISIC_0067719.JPG,8,ISIC_4099058.JPG,ISIC_4099058.JPG,false,0,keypress(z),500,188906,188906,185999,185996,186016,188932,8,400,16,,ISIC_0067719.JPG
break,html.Screen,4_15_1,2023-10-31T00:45:52.395Z,,0,,,NaN,,,,,,false,,,,188906,188906,,188906,,188932,8,400,,,
break_continue,html.Screen,4_15_2,2023-10-31T00:45:52.396Z,,0,,,NaN,,,,,,false,,,,188906,188906,,188906,,188932,8,400,,,
sequence,flow.Sequence,4_15,2023-10-31T00:45:52.396Z,,0,,,2890,completion,,,,,false,,,,188906,188906,185999,185996,186016,188932,8,400,,,
trial,html.Screen,4_16_0,2023-10-31T00:45:55.672Z,,0,1,,3266.000000000029,response,ISIC_0011500.JPG,12,ISIC_0058125.JPG,ISIC_0058125.JPG,false,0,keypress(z),500,192183,192182.00000000003,188916,188907,188932,192215,8,400,17,,ISIC_0011500.JPG
break,html.Screen,4_16_1,2023-10-31T00:45:55.672Z,,0,,,NaN,,,,,,false,,,,192183,192183,,192183,,192215,8,400,,,
break_continue,html.Screen,4_16_2,2023-10-31T00:45:55.673Z,,0,,,NaN,,,,,,false,,,,192183,192183,,192183,,192215,8,400,,,
sequence,flow.Sequence,4_16,2023-10-31T00:45:55.673Z,,0,,,3251,completion,,,,,false,,,,192184,192183,188916,188907,188932,192215,8,400,,,
trial,html.Screen,4_17_0,2023-10-31T00:45:58.821Z,,0,1,,3132,response,ISIC_8822738.JPG,9,ISIC_8348712.JPG,ISIC_8822738.JPG,false,1,keypress(m),500,195332,195332,192200,192184,192215,195365,8,400,18,,ISIC_8348712.JPG
break,html.Screen,4_17_1,2023-10-31T00:45:58.822Z,,0,,,NaN,,,,,,false,,,,195332,195332,,195332,,195365,8,400,,,
break_continue,html.Screen,4_17_2,2023-10-31T00:45:58.822Z,,0,,,NaN,,,,,,false,,,,195333,195333,,195333,,195365,8,400,,,
sequence,flow.Sequence,4_17,2023-10-31T00:45:58.822Z,,0,,,3118,completion,,,,,false,,,,195333,195333,192200,192184,192215,195365,8,400,,,
trial,html.Screen,4_18_0,2023-10-31T00:46:03.141Z,,0,1,,4301,response,ISIC_0032546.JPG,15,ISIC_0072694.JPG,ISIC_0032546.JPG,false,1,keypress(m),500,199651,199651,195350,195333,195365,199683,8,400,19,,ISIC_0072694.JPG
break,html.Screen,4_18_1,2023-10-31T00:46:03.141Z,,0,,,NaN,,,,,,false,,,,199652.00000000003,199652.00000000003,,199651,,199683,8,400,,,
break_continue,html.Screen,4_18_2,2023-10-31T00:46:03.141Z,,0,,,NaN,,,,,,false,,,,199652.00000000003,199652.00000000003,,199652.00000000003,,199683,8,400,,,
sequence,flow.Sequence,4_18,2023-10-31T00:46:03.141Z,,0,,,4287.000000000029,completion,,,,,false,,,,199652.00000000003,199652.00000000003,195350,195333,195365,199683,8,400,,,
trial,html.Screen,4_19_0,2023-10-31T00:46:06.438Z,,0,1,,3283,response,ISIC_0033967.JPG,12,ISIC_6688417.JPG,ISIC_6688417.JPG,false,0,keypress(z),500,202949,202949,199666,199652.00000000003,199683,202983,8,400,20,,ISIC_0033967.JPG
break,html.Screen,4_19_1,2023-10-31T00:46:06.439Z,,0,,,NaN,,,,,,false,,,,202950.00000000003,202949,,202949,,202983,8,400,,,
break_continue,html.Screen,4_19_2,2023-10-31T00:46:06.439Z,,0,,,NaN,,,,,,false,,,,202950.00000000003,202950.00000000003,,202950.00000000003,,202983,8,400,,,
sequence,flow.Sequence,4_19,2023-10-31T00:46:06.439Z,,0,,,3267.000000000029,completion,,,,,false,,,,202950.00000000003,202950.00000000003,199666,199652.00000000003,199683,202983,8,400,,,
trial,html.Screen,4_20_0,2023-10-31T00:46:11.059Z,,0,1,,4603.000000000029,response,ISIC_0026160.JPG,13,ISIC_0064034.JPG,ISIC_0026160.JPG,false,1,keypress(m),500,207570,207569.00000000003,202966,202950.00000000003,202983,207599,8,400,21,,ISIC_0064034.JPG
break,html.Screen,4_20_1,2023-10-31T00:46:11.059Z,,0,,,NaN,,,,,,false,,,,207570,207570,,207570,,207599,8,400,,,
break_continue,html.Screen,4_20_2,2023-10-31T00:46:11.060Z,,0,,,NaN,,,,,,false,,,,207570,207570,,207570,,207599,8,400,,,
sequence,flow.Sequence,4_20,2023-10-31T00:46:11.060Z,,0,,,4587,completion,,,,,false,,,,207570,207570,202966,202950.00000000003,202983,207599,8,400,,,
trial,html.Screen,4_21_0,2023-10-31T00:46:13.928Z,,0,1,,2856,response,ISIC_0010162.JPG,10,ISIC_4236274.JPG,ISIC_4236274.JPG,false,0,keypress(z),500,210439,210439,207583,207571,207599,210466,8,400,22,,ISIC_0010162.JPG
break,html.Screen,4_21_1,2023-10-31T00:46:13.929Z,,0,,,NaN,,,,,,false,,,,210440,210440,,210439,,210466,8,400,,,
break_continue,html.Screen,4_21_2,2023-10-31T00:46:13.929Z,,0,,,NaN,,,,,,false,,,,210440,210440,,210440,,210466,8,400,,,
sequence,flow.Sequence,4_21,2023-10-31T00:46:13.929Z,,0,,,2841,completion,,,,,false,,,,210440,210440,207583,207571,207599,210466,8,400,,,
trial,html.Screen,4_22_0,2023-10-31T00:46:18.600Z,,0,1,,4661,response,ISIC_4226395.JPG,5,ISIC_7642500.JPG,ISIC_7642500.JPG,false,0,keypress(z),500,215110,215110,210449,210440,210466,215133,8,400,23,,ISIC_4226395.JPG
break,html.Screen,4_22_1,2023-10-31T00:46:18.600Z,,0,,,NaN,,,,,,false,,,,215111.00000000003,215111.00000000003,,215110,,215133,8,400,,,
break_continue,html.Screen,4_22_2,2023-10-31T00:46:18.600Z,,0,,,NaN,,,,,,false,,,,215111.00000000003,215111.00000000003,,215111.00000000003,,215133,8,400,,,
sequence,flow.Sequence,4_22,2023-10-31T00:46:18.601Z,,0,,,4645.000000000029,completion,,,,,false,,,,215111.00000000003,215111.00000000003,210449,210440,210466,215133,8,400,,,
trial,html.Screen,4_23_0,2023-10-31T00:46:22.184Z,,0,1,,3580,response,ISIC_0027060.JPG,8,ISIC_0027089.JPG,ISIC_0027089.JPG,false,0,keypress(z),500,218695,218695,215115,215111.00000000003,215133,218732,8,400,24,,ISIC_0027060.JPG
break,html.Screen,4_23_1,2023-10-31T00:46:22.185Z,,0,,,NaN,,,,,,false,,,,218696,218695,,218695,,218732,8,400,,,
break_continue,html.Screen,4_23_2,2023-10-31T00:46:22.185Z,,0,,,NaN,,,,,,false,,,,218696,218696,,218696,,218732,8,400,,,
sequence,flow.Sequence,4_23,2023-10-31T00:46:22.185Z,,0,,,3563,completion,,,,,false,,,,218696,218696,215115,215111.00000000003,215133,218732,8,400,,,
trial,html.Screen,4_24_0,2023-10-31T00:46:29.853Z,,0,1,,7648,response,ISIC_0053725.JPG,7,ISIC_0031565.JPG,ISIC_0031565.JPG,false,0,keypress(z),500,226363,226363,218715,218696,218732,226399,8,400,25,,ISIC_0053725.JPG
break,html.Screen,4_24_1,2023-10-31T00:46:29.853Z,,0,,,NaN,,,,,,false,,,,226364,226364,,226363,,226399,8,400,,,
break_continue,html.Screen,4_24_2,2023-10-31T00:46:29.854Z,,0,,,NaN,,,,,,false,,,,226364,226364,,226364,,226399,8,400,,,
sequence,flow.Sequence,4_24,2023-10-31T00:46:29.854Z,,0,,,7632,completion,,,,,false,,,,226364,226364,218715,218696,218732,226399,8,400,,,
trial,html.Screen,4_25_0,2023-10-31T00:46:33.147Z,,0,1,,3276.000000000029,response,ISIC_0029995.JPG,13,ISIC_8384985.JPG,ISIC_8384985.JPG,false,0,keypress(z),500,229658.00000000003,229658.00000000003,226382,226364,226399,229682,8,400,26,,ISIC_0029995.JPG
break,html.Screen,4_25_1,2023-10-31T00:46:33.148Z,,0,,,NaN,,,,,,false,,,,229658.00000000003,229658.00000000003,,229658.00000000003,,229682,8,400,,,
break_continue,html.Screen,4_25_2,2023-10-31T00:46:33.148Z,,0,,,NaN,,,,,,false,,,,229659,229659,,229658.00000000003,,229682,8,400,,,
sequence,flow.Sequence,4_25,2023-10-31T00:46:33.148Z,,0,,,3260,completion,,,,,false,,,,229659,229659,226382,226364,226399,229682,8,400,,,
trial,html.Screen,4_26_0,2023-10-31T00:46:36.407Z,,0,1,,3251,response,ISIC_3440004.JPG,8,ISIC_6118204.JPG,ISIC_6118204.JPG,false,0,keypress(z),500,232917,232917,229666,229659,229682,232949,8,400,27,,ISIC_3440004.JPG
break,html.Screen,4_26_1,2023-10-31T00:46:36.407Z,,0,,,NaN,,,,,,false,,,,232918,232918,,232917,,232949,8,400,,,
break_continue,html.Screen,4_26_2,2023-10-31T00:46:36.407Z,,0,,,NaN,,,,,,false,,,,232918,232918,,232918,,232949,8,400,,,
sequence,flow.Sequence,4_26,2023-10-31T00:46:36.408Z,,0,,,3236,completion,,,,,false,,,,232918,232918,229666,229659,229682,232949,8,400,,,
trial,html.Screen,4_27_0,2023-10-31T00:46:39.277Z,,0,1,,2855,response,ISIC_1655513.JPG,12,ISIC_0030981.JPG,ISIC_1655513.JPG,false,1,keypress(m),500,235787,235787,232932,232918,232949,235816,8,400,28,,ISIC_0030981.JPG
break,html.Screen,4_27_1,2023-10-31T00:46:39.277Z,,0,,,NaN,,,,,,false,,,,235788,235787,,235787,,235816,8,400,,,
break_continue,html.Screen,4_27_2,2023-10-31T00:46:39.277Z,,0,,,NaN,,,,,,false,,,,235788,235788,,235788,,235816,8,400,,,
sequence,flow.Sequence,4_27,2023-10-31T00:46:39.277Z,,0,,,2839,completion,,,,,false,,,,235788,235788,232932,232918,232949,235816,8,400,,,
trial,html.Screen,4_28_0,2023-10-31T00:46:42.184Z,,0,1,,2896,response,ISIC_8899350.JPG,5,ISIC_0029513.JPG,ISIC_8899350.JPG,false,1,keypress(m),500,238695,238695,235799,235788,235816,238731,8,400,29,,ISIC_0029513.JPG
break,html.Screen,4_28_1,2023-10-31T00:46:42.185Z,,0,,,NaN,,,,,,false,,,,238695,238695,,238695,,238731,8,400,,,
break_continue,html.Screen,4_28_2,2023-10-31T00:46:42.185Z,,0,,,NaN,,,,,,false,,,,238696,238696,,238695,,238731,8,400,,,
sequence,flow.Sequence,4_28,2023-10-31T00:46:42.185Z,,0,,,2880,completion,,,,,false,,,,238696,238696,235799,235788,235816,238731,8,400,,,
trial,html.Screen,4_29_0,2023-10-31T00:46:45.251Z,,0,1,,3047,response,ISIC_0033362.JPG,5,ISIC_6971606.JPG,ISIC_6971606.JPG,false,0,keypress(z),500,241762,241762,238715,238696,238731,241798,8,400,30,,ISIC_0033362.JPG
break,html.Screen,4_29_1,2023-10-31T00:46:45.252Z,,0,,,NaN,,,,,,false,,,,241762,241762,,241762,,241798,8,400,,,
break_continue,html.Screen,4_29_2,2023-10-31T00:46:45.252Z,,0,,,NaN,,,,,,false,,,,241762,241762,,241762,,241798,8,400,,,
sequence,flow.Sequence,4_29,2023-10-31T00:46:45.252Z,,0,,,3031,completion,,,,,false,,,,241763,241762,238715,238696,238731,241798,8,400,,,
trial,html.Screen,4_30_0,2023-10-31T00:46:48.803Z,,0,1,,3533,response,ISIC_0034134.JPG,2,ISIC_1328804.JPG,ISIC_1328804.JPG,false,0,keypress(z),500,245314,245314,241781,241763,241798,245349,8,400,31,,ISIC_0034134.JPG
break,html.Screen,4_30_1,2023-10-31T00:46:48.804Z,,0,,,NaN,,,,,,false,,,,245314,245314,,245314,,245349,8,400,,,
break_continue,html.Screen,4_30_2,2023-10-31T00:46:48.804Z,,0,,,NaN,,,,,,false,,,,245314,245314,,245314,,245349,8,400,,,
sequence,flow.Sequence,4_30,2023-10-31T00:46:48.804Z,,0,,,3516,completion,,,,,false,,,,245314,245314,241781,241763,241798,245349,8,400,,,
trial,html.Screen,4_31_0,2023-10-31T00:46:51.731Z,,0,1,,2910,response,ISIC_2398511.JPG,3,ISIC_0062576.JPG,ISIC_2398511.JPG,false,1,keypress(m),500,248241,248241,245331,245314,245349,248265,8,400,32,,ISIC_0062576.JPG
break,html.Screen,4_31_1,2023-10-31T00:46:51.731Z,,0,,,NaN,,,,,,false,,,,248241,248241,,248241,,248265,8,400,,,
break_continue,html.Screen,4_31_2,2023-10-31T00:46:51.731Z,,0,,,NaN,,,,,,false,,,,248242.00000000003,248242.00000000003,,248242.00000000003,,248265,8,400,,,
sequence,flow.Sequence,4_31,2023-10-31T00:46:51.731Z,,0,,,2893.000000000029,completion,,,,,false,,,,248242.00000000003,248242.00000000003,245331,245314,245349,248265,8,400,,,
trial,html.Screen,4_32_0,2023-10-31T00:46:55.064Z,,0,1,,3326,response,ISIC_2355513.JPG,9,ISIC_1525284.JPG,ISIC_1525284.JPG,false,0,keypress(z),500,251575.00000000003,251574,248248,248242.00000000003,248265,251598,8,400,33,,ISIC_2355513.JPG
break,html.Screen,4_32_1,2023-10-31T00:46:55.065Z,,0,,,NaN,,,,,,false,,,,251575.00000000003,251575.00000000003,,251575.00000000003,,251598,8,400,,,
break_continue,html.Screen,4_32_2,2023-10-31T00:46:55.065Z,,0,,,NaN,,,,,,false,,,,251575.00000000003,251575.00000000003,,251575.00000000003,,251598,8,400,,,
sequence,flow.Sequence,4_32,2023-10-31T00:46:55.065Z,,0,,,3310.000000000029,completion,,,,,false,,,,251575.00000000003,251575.00000000003,248248,248242.00000000003,248265,251598,8,400,,,
trial,html.Screen,4_33_0,2023-10-31T00:47:00.201Z,,0,1,,5129,response,ISIC_0011587.JPG,9,ISIC_0033925.JPG,ISIC_0011587.JPG,false,1,keypress(m),500,256711,256711,251582,251575.00000000003,251598,256748,8,400,34,,ISIC_0033925.JPG
break,html.Screen,4_33_1,2023-10-31T00:47:00.202Z,,0,,,NaN,,,,,,false,,,,256712,256712,,256711,,256748,8,400,,,
break_continue,html.Screen,4_33_2,2023-10-31T00:47:00.202Z,,0,,,NaN,,,,,,false,,,,256712,256712,,256712,,256748,8,400,,,
sequence,flow.Sequence,4_33,2023-10-31T00:47:00.202Z,,0,,,5114,completion,,,,,false,,,,256712,256712,251582,251575.00000000003,251598,256748,8,400,,,
trial,html.Screen,4_34_0,2023-10-31T00:47:03.499Z,,0,1,,3278,response,ISIC_0027152.JPG,6,ISIC_1615485.JPG,ISIC_1615485.JPG,false,0,keypress(z),500,260009,260009,256731,256712,256748,260031,8,400,35,,ISIC_0027152.JPG
break,html.Screen,4_34_1,2023-10-31T00:47:03.500Z,,0,,,NaN,,,,,,false,,,,260010,260010,,260009,,260031,8,400,,,
break_continue,html.Screen,4_34_2,2023-10-31T00:47:03.500Z,,0,,,NaN,,,,,,false,,,,260010,260010,,260010,,260031,8,400,,,
sequence,flow.Sequence,4_34,2023-10-31T00:47:03.500Z,,0,,,3262,completion,,,,,false,,,,260010,260010,256731,256712,256748,260031,8,400,,,
trial,html.Screen,4_35_0,2023-10-31T00:47:10.889Z,,0,1,,7384,response,ISIC_0063981.JPG,5,ISIC_0058177.JPG,ISIC_0063981.JPG,false,1,keypress(m),500,267399,267399,260015,260010,260031,267431,8,400,36,,ISIC_0058177.JPG
break,html.Screen,4_35_1,2023-10-31T00:47:10.889Z,,0,,,NaN,,,,,,false,,,,267399,267399,,267399,,267431,8,400,,,
break_continue,html.Screen,4_35_2,2023-10-31T00:47:10.889Z,,0,,,NaN,,,,,,false,,,,267400,267400,,267399,,267431,8,400,,,
sequence,flow.Sequence,4_35,2023-10-31T00:47:10.890Z,,0,,,7369,completion,,,,,false,,,,267400,267400,260015,260010,260031,267431,8,400,,,
trial,html.Screen,4_36_0,2023-10-31T00:47:14.647Z,,0,1,,3742,response,ISIC_5116614.JPG,13,ISIC_1202976.JPG,ISIC_1202976.JPG,false,0,keypress(z),500,271158,271157,267415,267400,267431,271181,8,400,37,,ISIC_5116614.JPG
break,html.Screen,4_36_1,2023-10-31T00:47:14.648Z,,0,,,NaN,,,,,,false,,,,271158,271158,,271158,,271181,8,400,,,
break_continue,html.Screen,4_36_2,2023-10-31T00:47:14.648Z,,0,,,NaN,,,,,,false,,,,271158,271158,,271158,,271181,8,400,,,
sequence,flow.Sequence,4_36,2023-10-31T00:47:14.648Z,,0,,,3727,completion,,,,,false,,,,271158,271158,267415,267400,267431,271181,8,400,,,
trial,html.Screen,4_37_0,2023-10-31T00:47:20.768Z,,0,1,,6113,response,ISIC_0028472.JPG,10,ISIC_0064006.JPG,ISIC_0064006.JPG,false,0,keypress(z),500,277278,277278,271165,271158,271181,277297,8,400,38,,ISIC_0028472.JPG
break,html.Screen,4_37_1,2023-10-31T00:47:20.768Z,,0,,,NaN,,,,,,false,,,,277278,277278,,277278,,277297,8,400,,,
break_continue,html.Screen,4_37_2,2023-10-31T00:47:20.769Z,,0,,,NaN,,,,,,false,,,,277279,277278,,277278,,277297,8,400,,,
sequence,flow.Sequence,4_37,2023-10-31T00:47:20.769Z,,0,,,6097,completion,,,,,false,,,,277279,277278,271165,271158,271181,277297,8,400,,,
trial,html.Screen,4_38_0,2023-10-31T00:47:24.769Z,,0,1,,3996,response,ISIC_0046222.JPG,11,ISIC_6938608.JPG,ISIC_6938608.JPG,false,0,keypress(z),500,281279,281278,277282,277279,277297,281297,8,400,39,,ISIC_0046222.JPG
break,html.Screen,4_38_1,2023-10-31T00:47:24.769Z,,0,,,NaN,,,,,,false,,,,281279,281279,,281279,,281297,8,400,,,
break_continue,html.Screen,4_38_2,2023-10-31T00:47:24.769Z,,0,,,NaN,,,,,,false,,,,281279,281279,,281279,,281297,8,400,,,
sequence,flow.Sequence,4_38,2023-10-31T00:47:24.769Z,,0,,,3982,completion,,,,,false,,,,281279,281279,277282,277279,277297,281297,8,400,,,
trial,html.Screen,4_39_0,2023-10-31T00:47:28.623Z,,0,1,,3852,response,ISIC_0025987.JPG,7,ISIC_3560519.JPG,ISIC_3560519.JPG,false,0,keypress(z),500,285133,285133,281281,281279,281297,285165,8,400,40,,ISIC_0025987.JPG
break,html.Screen,4_39_1,2023-10-31T00:47:28.623Z,,0,,,NaN,,,,,,false,,,,285133,285133,,285133,,285165,8,400,,,
break_continue,html.Screen,4_39_2,2023-10-31T00:47:28.623Z,,0,,,NaN,,,,,,false,,,,285133,285133,,285133,,285165,8,400,,,
sequence,flow.Sequence,4_39,2023-10-31T00:47:28.624Z,,0,,,3836,completion,,,,,false,,,,285134,285133,281281,281279,281297,285165,8,400,,,
trial,html.Screen,4_40_0,2023-10-31T00:47:31.824Z,,0,1,,3186,response,ISIC_3084322.JPG,2,ISIC_5485674.JPG,ISIC_5485674.JPG,false,0,keypress(z),500,288334,288334,285148,285134,285165,288365,8,400,41,,ISIC_3084322.JPG
break,html.Screen,4_40_1,2023-10-31T00:47:31.824Z,,0,,,NaN,,,,,,false,,,,288334,288334,,288334,,288365,8,400,,,
break_continue,html.Screen,4_40_2,2023-10-31T00:47:31.825Z,,0,,,NaN,,,,,,false,,,,288335,288335,,288335,,288365,8,400,,,
sequence,flow.Sequence,4_40,2023-10-31T00:47:31.825Z,,0,,,3170,completion,,,,,false,,,,288335,288335,285148,285134,285165,288365,8,400,,,
trial,html.Screen,4_41_0,2023-10-31T00:47:34.895Z,,0,1,,3057.000000000058,response,ISIC_0009880.JPG,8,ISIC_0067226.JPG,ISIC_0009880.JPG,false,1,keypress(m),500,291405.00000000006,291405.00000000006,288348,288335,288365,291431,8,400,42,,ISIC_0067226.JPG
break,html.Screen,4_41_1,2023-10-31T00:47:34.896Z,,0,,,NaN,,,,,,false,,,,291406,291406,,291405.00000000006,,291431,8,400,,,
break_continue,html.Screen,4_41_2,2023-10-31T00:47:34.896Z,,0,,,NaN,,,,,,false,,,,291406,291406,,291406,,291431,8,400,,,
sequence,flow.Sequence,4_41,2023-10-31T00:47:34.896Z,,0,,,3041,completion,,,,,false,,,,291406,291406,288348,288335,288365,291431,8,400,,,
trial,html.Screen,4_42_0,2023-10-31T00:47:38.895Z,,0,1,,3991.000000000058,response,ISIC_7147898.JPG,10,ISIC_4069836.JPG,ISIC_7147898.JPG,false,1,keypress(m),500,295405.00000000006,295405.00000000006,291414,291406,291431,295431,8,400,43,,ISIC_4069836.JPG
break,html.Screen,4_42_1,2023-10-31T00:47:38.896Z,,0,,,NaN,,,,,,false,,,,295406,295406,,295405.00000000006,,295431,8,400,,,
break_continue,html.Screen,4_42_2,2023-10-31T00:47:38.896Z,,0,,,NaN,,,,,,false,,,,295406,295406,,295406,,295431,8,400,,,
sequence,flow.Sequence,4_42,2023-10-31T00:47:38.896Z,,0,,,3975,completion,,,,,false,,,,295406,295406,291414,291406,291431,295431,8,400,,,
trial,html.Screen,4_43_0,2023-10-31T00:47:41.927Z,,0,1,,3023,response,ISIC_8588033.JPG,4,ISIC_0025289.JPG,ISIC_0025289.JPG,false,0,keypress(z),500,298437,298437,295414,295406,295431,298464,8,400,44,,ISIC_8588033.JPG
break,html.Screen,4_43_1,2023-10-31T00:47:41.927Z,,0,,,NaN,,,,,,false,,,,298437,298437,,298437,,298464,8,400,,,
break_continue,html.Screen,4_43_2,2023-10-31T00:47:41.928Z,,0,,,NaN,,,,,,false,,,,298438,298437,,298437,,298464,8,400,,,
sequence,flow.Sequence,4_43,2023-10-31T00:47:41.928Z,,0,,,3006,completion,,,,,false,,,,298438,298437,295414,295406,295431,298464,8,400,,,
trial,html.Screen,4_44_0,2023-10-31T00:47:45.667Z,,0,1,,3728,response,ISIC_1477990.JPG,11,ISIC_0032278.JPG,ISIC_1477990.JPG,false,1,keypress(m),500,302176,302176,298448,298438,298464,302198,8,400,45,,ISIC_0032278.JPG
break,html.Screen,4_44_1,2023-10-31T00:47:45.667Z,,0,,,NaN,,,,,,false,,,,302177,302177,,302176,,302198,8,400,,,
break_continue,html.Screen,4_44_2,2023-10-31T00:47:45.667Z,,0,,,NaN,,,,,,false,,,,302177,302177,,302177,,302198,8,400,,,
sequence,flow.Sequence,4_44,2023-10-31T00:47:45.667Z,,0,,,3713,completion,,,,,false,,,,302177,302177,298448,298438,298464,302198,8,400,,,
trial,html.Screen,4_45_0,2023-10-31T00:47:49.260Z,,0,1,,3589,response,ISIC_6268546.JPG,10,ISIC_9007206.JPG,ISIC_9007206.JPG,false,0,keypress(z),500,305770,305770,302181,302177,302198,305798,8,400,46,,ISIC_6268546.JPG
break,html.Screen,4_45_1,2023-10-31T00:47:49.261Z,,0,,,NaN,,,,,,false,,,,305770,305770,,305770,,305798,8,400,,,
break_continue,html.Screen,4_45_2,2023-10-31T00:47:49.261Z,,0,,,NaN,,,,,,false,,,,305771,305771,,305771,,305798,8,400,,,
sequence,flow.Sequence,4_45,2023-10-31T00:47:49.261Z,,0,,,3573,completion,,,,,false,,,,305771,305771,302181,302177,302198,305798,8,400,,,
trial,html.Screen,4_46_0,2023-10-31T00:47:52.882Z,,0,1,,3611,response,ISIC_0033806.JPG,8,ISIC_6052437.JPG,ISIC_6052437.JPG,false,0,keypress(z),500,309392,309392,305781,305771,305798,309414,8,400,47,,ISIC_0033806.JPG
break,html.Screen,4_46_1,2023-10-31T00:47:52.883Z,,0,,,NaN,,,,,,false,,,,309393,309393,,309392,,309414,8,400,,,
break_continue,html.Screen,4_46_2,2023-10-31T00:47:52.883Z,,0,,,NaN,,,,,,false,,,,309393,309393,,309393,,309414,8,400,,,
sequence,flow.Sequence,4_46,2023-10-31T00:47:52.883Z,,0,,,3595,completion,,,,,false,,,,309393,309393,305781,305771,305798,309414,8,400,,,
trial,html.Screen,4_47_0,2023-10-31T00:47:56.076Z,,0,1,,3188,response,ISIC_6132976.JPG,11,ISIC_3475142.JPG,ISIC_3475142.JPG,false,0,keypress(z),500,312586,312586,309398,309393,309414,312614,8,400,48,,ISIC_6132976.JPG
break,html.Screen,4_47_1,2023-10-31T00:47:56.076Z,,0,,,NaN,,,,,,false,,,,312586,312586,,312586,,312614,8,400,,,
break_continue,html.Screen,4_47_2,2023-10-31T00:47:56.077Z,,0,,,NaN,,,,,,false,,,,312586,312586,,312586,,312614,8,400,,,
sequence,flow.Sequence,4_47,2023-10-31T00:47:56.077Z,,0,,,3172,completion,,,,,false,,,,312587,312586,309398,309393,309414,312614,8,400,,,
trial,html.Screen,4_48_0,2023-10-31T00:48:00.066Z,,0,1,,3977,response,ISIC_9104982.JPG,14,ISIC_0026812.JPG,ISIC_9104982.JPG,false,1,keypress(m),500,316575,316575,312598,312587,312614,316598,8,400,49,,ISIC_0026812.JPG
break,html.Screen,4_48_1,2023-10-31T00:48:00.066Z,,0,,,NaN,,,,,,false,,,,316576,316576,,316575,,316598,8,400,,,
break_continue,html.Screen,4_48_2,2023-10-31T00:48:00.066Z,,0,,,NaN,,,,,,false,,,,316576,316576,,316576,,316598,8,400,,,
sequence,flow.Sequence,4_48,2023-10-31T00:48:00.066Z,,0,,,3962,completion,,,,,false,,,,316576,316576,312598,312587,312614,316598,8,400,,,
trial,html.Screen,4_49_0,2023-10-31T00:48:03.638Z,,0,1,,3567,response,ISIC_0069743.JPG,6,ISIC_7839712.JPG,ISIC_7839712.JPG,false,0,keypress(z),500,320148,320148,316581,316576,316598,320181,8,400,50,,ISIC_0069743.JPG
break,html.Screen,4_49_1,2023-10-31T00:48:13.655Z,,0,,,10000,timeout,,,,,false,,,,330165,330164,320165,320148,320181,330181,8,400,,,
break_continue,html.Screen,4_49_2,2023-10-31T00:48:19.028Z,,0,,,5344,response,,,,,false,continue,keypress(Space),,335537.00000000006,335508,330164,330165,330181,335564,8,400,,,
sequence,flow.Sequence,4_49,2023-10-31T00:48:19.028Z,,0,,,18910,completion,,,,,false,,,,335538,335508,316581,316576,316598,335564,8,400,,,
trial,html.Screen,4_50_0,2023-10-31T00:48:22.903Z,,0,2,,3864.000000000058,response,ISIC_0063018.JPG,7,ISIC_9639931.JPG,ISIC_9639931.JPG,false,0,keypress(z),500,339412.00000000006,339412.00000000006,335548,335538,335564,339447,8,400,1,,ISIC_0063018.JPG
break,html.Screen,4_50_1,2023-10-31T00:48:22.903Z,,0,,,NaN,,,,,,false,,,,339413,339413,,339412.00000000006,,339447,8,400,,,
break_continue,html.Screen,4_50_2,2023-10-31T00:48:22.903Z,,0,,,NaN,,,,,,false,,,,339413,339413,,339413,,339447,8,400,,,
sequence,flow.Sequence,4_50,2023-10-31T00:48:22.904Z,,0,,,3849,completion,,,,,false,,,,339413,339413,335548,335538,335564,339447,8,400,,,
trial,html.Screen,4_51_0,2023-10-31T00:48:25.836Z,,0,2,,2915,response,ISIC_8618835.JPG,13,ISIC_2399613.JPG,ISIC_8618835.JPG,false,1,keypress(m),500,342346,342345,339430,339413,339447,342380,8,400,2,,ISIC_2399613.JPG
break,html.Screen,4_51_1,2023-10-31T00:48:25.837Z,,0,,,NaN,,,,,,false,,,,342346,342346,,342346,,342380,8,400,,,
break_continue,html.Screen,4_51_2,2023-10-31T00:48:25.837Z,,0,,,NaN,,,,,,false,,,,342346,342346,,342346,,342380,8,400,,,
sequence,flow.Sequence,4_51,2023-10-31T00:48:25.837Z,,0,,,2899,completion,,,,,false,,,,342346,342346,339430,339413,339447,342380,8,400,,,
trial,html.Screen,4_52_0,2023-10-31T00:48:28.647Z,,0,2,,2792,response,ISIC_0072182.JPG,12,ISIC_0046773.JPG,ISIC_0046773.JPG,false,0,keypress(z),500,345157,345157,342365,342346,342380,345180,8,400,3,,ISIC_0072182.JPG
break,html.Screen,4_52_1,2023-10-31T00:48:28.648Z,,0,,,NaN,,,,,,false,,,,345157,345157,,345157,,345180,8,400,,,
break_continue,html.Screen,4_52_2,2023-10-31T00:48:28.648Z,,0,,,NaN,,,,,,false,,,,345157,345157,,345157,,345180,8,400,,,
sequence,flow.Sequence,4_52,2023-10-31T00:48:28.648Z,,0,,,2777,completion,,,,,false,,,,345157,345157,342365,342346,342380,345180,8,400,,,
trial,html.Screen,4_53_0,2023-10-31T00:48:31.910Z,,0,2,,3256,response,ISIC_5697228.JPG,10,ISIC_5762714.JPG,ISIC_5697228.JPG,false,1,keypress(m),500,348420,348420,345164,345157,345180,348447,8,400,4,,ISIC_5762714.JPG
break,html.Screen,4_53_1,2023-10-31T00:48:31.911Z,,0,,,NaN,,,,,,false,,,,348420,348420,,348420,,348447,8,400,,,
break_continue,html.Screen,4_53_2,2023-10-31T00:48:31.911Z,,0,,,NaN,,,,,,false,,,,348421,348421,,348421,,348447,8,400,,,
sequence,flow.Sequence,4_53,2023-10-31T00:48:31.911Z,,0,,,3241,completion,,,,,false,,,,348421,348421,345164,345157,345180,348447,8,400,,,
trial,html.Screen,4_54_0,2023-10-31T00:48:34.621Z,,0,2,,2699,response,ISIC_0011696.JPG,3,ISIC_0071208.JPG,ISIC_0071208.JPG,false,0,keypress(z),500,351130,351130,348431,348421,348447,351163,8,400,5,,ISIC_0011696.JPG
break,html.Screen,4_54_1,2023-10-31T00:48:34.621Z,,0,,,NaN,,,,,,false,,,,351130,351130,,351130,,351163,8,400,,,
break_continue,html.Screen,4_54_2,2023-10-31T00:48:34.621Z,,0,,,NaN,,,,,,false,,,,351131,351131,,351131,,351163,8,400,,,
sequence,flow.Sequence,4_54,2023-10-31T00:48:34.621Z,,0,,,2684,completion,,,,,false,,,,351131,351131,348431,348421,348447,351163,8,400,,,
trial,html.Screen,4_55_0,2023-10-31T00:48:37.387Z,,0,2,,2748,response,ISIC_0031674.JPG,4,ISIC_9471156.JPG,ISIC_0031674.JPG,false,1,keypress(m),500,353896,353896,351148,351131,351163,353931,8,400,6,,ISIC_9471156.JPG
break,html.Screen,4_55_1,2023-10-31T00:48:37.387Z,,0,,,NaN,,,,,,false,,,,353897,353896,,353896,,353931,8,400,,,
break_continue,html.Screen,4_55_2,2023-10-31T00:48:37.387Z,,0,,,NaN,,,,,,false,,,,353897,353897,,353897,,353931,8,400,,,
sequence,flow.Sequence,4_55,2023-10-31T00:48:37.388Z,,0,,,2734,completion,,,,,false,,,,353897,353897,351148,351131,351163,353931,8,400,,,
trial,html.Screen,4_56_0,2023-10-31T00:48:40.104Z,,0,2,,2699,response,ISIC_0028579.JPG,7,ISIC_6108795.JPG,ISIC_6108795.JPG,false,0,keypress(z),500,356613,356613,353914,353897,353931,356647,8,400,7,,ISIC_0028579.JPG
break,html.Screen,4_56_1,2023-10-31T00:48:40.105Z,,0,,,NaN,,,,,,false,,,,356614.00000000006,356614.00000000006,,356614.00000000006,,356647,8,400,,,
break_continue,html.Screen,4_56_2,2023-10-31T00:48:40.105Z,,0,,,NaN,,,,,,false,,,,356614.00000000006,356614.00000000006,,356614.00000000006,,356647,8,400,,,
sequence,flow.Sequence,4_56,2023-10-31T00:48:40.105Z,,0,,,2683.000000000058,completion,,,,,false,,,,356614.00000000006,356614.00000000006,353914,353897,353931,356647,8,400,,,
trial,html.Screen,4_57_0,2023-10-31T00:48:43.858Z,,0,2,,3737,response,ISIC_0029777.JPG,12,ISIC_0029189.JPG,ISIC_0029777.JPG,false,1,keypress(m),500,360368,360367,356630,356614.00000000006,356647,360397,8,400,8,,ISIC_0029189.JPG
break,html.Screen,4_57_1,2023-10-31T00:48:43.859Z,,0,,,NaN,,,,,,false,,,,360368,360368,,360368,,360397,8,400,,,
break_continue,html.Screen,4_57_2,2023-10-31T00:48:43.859Z,,0,,,NaN,,,,,,false,,,,360369,360368,,360368,,360397,8,400,,,
sequence,flow.Sequence,4_57,2023-10-31T00:48:43.859Z,,0,,,3721,completion,,,,,false,,,,360369,360368,356630,356614.00000000006,356647,360397,8,400,,,
trial,html.Screen,4_58_0,2023-10-31T00:48:46.737Z,,0,2,,2866,response,ISIC_8127578.JPG,6,ISIC_0013672.JPG,ISIC_0013672.JPG,false,0,keypress(z),500,363247,363246,360380,360369,360397,363279,8,400,9,,ISIC_8127578.JPG
break,html.Screen,4_58_1,2023-10-31T00:48:46.738Z,,0,,,NaN,,,,,,false,,,,363247,363247,,363247,,363279,8,400,,,
break_continue,html.Screen,4_58_2,2023-10-31T00:48:46.738Z,,0,,,NaN,,,,,,false,,,,363247,363247,,363247,,363279,8,400,,,
sequence,flow.Sequence,4_58,2023-10-31T00:48:46.738Z,,0,,,2850,completion,,,,,false,,,,363247,363247,360380,360369,360397,363279,8,400,,,
trial,html.Screen,4_59_0,2023-10-31T00:48:49.850Z,,0,2,,3095,response,ISIC_3494219.JPG,12,ISIC_1217314.JPG,ISIC_3494219.JPG,false,1,keypress(m),500,366359,366359,363264,363247,363279,366379,8,400,10,,ISIC_1217314.JPG
break,html.Screen,4_59_1,2023-10-31T00:48:49.850Z,,0,,,NaN,,,,,,false,,,,366360,366359,,366359,,366379,8,400,,,
break_continue,html.Screen,4_59_2,2023-10-31T00:48:49.850Z,,0,,,NaN,,,,,,false,,,,366360,366360,,366360,,366379,8,400,,,
sequence,flow.Sequence,4_59,2023-10-31T00:48:49.850Z,,0,,,3081,completion,,,,,false,,,,366360,366360,363264,363247,363279,366379,8,400,,,
trial,html.Screen,4_60_0,2023-10-31T00:48:52.506Z,,0,2,,2652,response,ISIC_0014982.JPG,8,ISIC_0032635.JPG,ISIC_0032635.JPG,false,0,keypress(z),500,369015,369015,366363,366360,366379,369047,8,400,11,,ISIC_0014982.JPG
break,html.Screen,4_60_1,2023-10-31T00:48:52.506Z,,0,,,NaN,,,,,,false,,,,369016,369015,,369015,,369047,8,400,,,
break_continue,html.Screen,4_60_2,2023-10-31T00:48:52.506Z,,0,,,NaN,,,,,,false,,,,369016,369016,,369016,,369047,8,400,,,
sequence,flow.Sequence,4_60,2023-10-31T00:48:52.507Z,,0,,,2637,completion,,,,,false,,,,369016,369016,366363,366360,366379,369047,8,400,,,
trial,html.Screen,4_61_0,2023-10-31T00:48:55.896Z,,0,2,,3375.000000000058,response,ISIC_4508878.JPG,16,ISIC_2432848.JPG,ISIC_2432848.JPG,false,0,keypress(z),500,372405.00000000006,372405.00000000006,369030,369016,369047,372430,8,400,12,,ISIC_4508878.JPG
break,html.Screen,4_61_1,2023-10-31T00:48:55.896Z,,0,,,NaN,,,,,,false,,,,372406,372405.00000000006,,372405.00000000006,,372430,8,400,,,
break_continue,html.Screen,4_61_2,2023-10-31T00:48:55.896Z,,0,,,NaN,,,,,,false,,,,372406,372406,,372406,,372430,8,400,,,
sequence,flow.Sequence,4_61,2023-10-31T00:48:55.897Z,,0,,,3359,completion,,,,,false,,,,372406,372406,369030,369016,369047,372430,8,400,,,
trial,html.Screen,4_62_0,2023-10-31T00:49:00.864Z,,0,2,,4959,response,ISIC_6661904.JPG,11,ISIC_0027235.JPG,ISIC_6661904.JPG,false,1,keypress(m),500,377373,377373,372414,372406,372430,377397,8,400,13,,ISIC_0027235.JPG
break,html.Screen,4_62_1,2023-10-31T00:49:00.864Z,,0,,,NaN,,,,,,false,,,,377374,377373,,377373,,377397,8,400,,,
break_continue,html.Screen,4_62_2,2023-10-31T00:49:00.865Z,,0,,,NaN,,,,,,false,,,,377374,377374,,377374,,377397,8,400,,,
sequence,flow.Sequence,4_62,2023-10-31T00:49:00.865Z,,0,,,4944,completion,,,,,false,,,,377374,377374,372414,372406,372430,377397,8,400,,,
trial,html.Screen,4_63_0,2023-10-31T00:49:04.013Z,,0,2,,3142,response,ISIC_5237059.JPG,5,ISIC_0054973.JPG,ISIC_0054973.JPG,false,0,keypress(z),500,380522,380522,377380,377374,377397,380547,8,400,14,,ISIC_5237059.JPG
break,html.Screen,4_63_1,2023-10-31T00:49:04.013Z,,0,,,NaN,,,,,,false,,,,380523,380522,,380522,,380547,8,400,,,
break_continue,html.Screen,4_63_2,2023-10-31T00:49:04.014Z,,0,,,NaN,,,,,,false,,,,380523,380523,,380523,,380547,8,400,,,
sequence,flow.Sequence,4_63,2023-10-31T00:49:04.014Z,,0,,,3126,completion,,,,,false,,,,380523,380523,377380,377374,377397,380547,8,400,,,
trial,html.Screen,4_64_0,2023-10-31T00:49:07.518Z,,0,2,,3498,response,ISIC_0071245.JPG,12,ISIC_5433087.JPG,ISIC_0071245.JPG,false,1,keypress(m),500,384027,384027,380529,380523,380547,384063,8,400,15,,ISIC_5433087.JPG
break,html.Screen,4_64_1,2023-10-31T00:49:07.518Z,,0,,,NaN,,,,,,false,,,,384027,384027,,384027,,384063,8,400,,,
break_continue,html.Screen,4_64_2,2023-10-31T00:49:07.519Z,,0,,,NaN,,,,,,false,,,,384028,384028,,384028,,384063,8,400,,,
sequence,flow.Sequence,4_64,2023-10-31T00:49:07.519Z,,0,,,3481,completion,,,,,false,,,,384028,384028,380529,380523,380547,384063,8,400,,,
trial,html.Screen,4_65_0,2023-10-31T00:49:11.042Z,,0,2,,3505,response,ISIC_0071245.JPG,8,ISIC_8516223.JPG,ISIC_0071245.JPG,false,1,keypress(m),500,387551,387551,384046,384028,384063,387579,8,400,16,,ISIC_8516223.JPG
break,html.Screen,4_65_1,2023-10-31T00:49:11.043Z,,0,,,NaN,,,,,,false,,,,387552,387552,,387552,,387579,8,400,,,
break_continue,html.Screen,4_65_2,2023-10-31T00:49:11.043Z,,0,,,NaN,,,,,,false,,,,387552,387552,,387552,,387579,8,400,,,
sequence,flow.Sequence,4_65,2023-10-31T00:49:11.043Z,,0,,,3489,completion,,,,,false,,,,387552,387552,384046,384028,384063,387579,8,400,,,
trial,html.Screen,4_66_0,2023-10-31T00:49:16.869Z,,0,2,,5814,response,ISIC_5482426.JPG,6,ISIC_6377883.JPG,ISIC_6377883.JPG,false,0,keypress(z),500,393378,393378,387564,387552,387579,393413,8,400,17,,ISIC_5482426.JPG
break,html.Screen,4_66_1,2023-10-31T00:49:16.869Z,,0,,,NaN,,,,,,false,,,,393378,393378,,393378,,393413,8,400,,,
break_continue,html.Screen,4_66_2,2023-10-31T00:49:16.869Z,,0,,,NaN,,,,,,false,,,,393379,393378,,393378,,393413,8,400,,,
sequence,flow.Sequence,4_66,2023-10-31T00:49:16.870Z,,0,,,5799,completion,,,,,false,,,,393379,393378,387564,387552,387579,393413,8,400,,,
trial,html.Screen,4_67_0,2023-10-31T00:49:19.893Z,,0,2,,3006,response,ISIC_4494516.JPG,6,ISIC_3518299.JPG,ISIC_4494516.JPG,false,1,keypress(m),500,396402,396402,393396,393379,393413,396429,8,400,18,,ISIC_3518299.JPG
break,html.Screen,4_67_1,2023-10-31T00:49:19.894Z,,0,,,NaN,,,,,,false,,,,396403,396402,,396402,,396429,8,400,,,
break_continue,html.Screen,4_67_2,2023-10-31T00:49:19.894Z,,0,,,NaN,,,,,,false,,,,396403,396403,,396403,,396429,8,400,,,
sequence,flow.Sequence,4_67,2023-10-31T00:49:19.894Z,,0,,,2990,completion,,,,,false,,,,396403,396403,393396,393379,393413,396429,8,400,,,
trial,html.Screen,4_68_0,2023-10-31T00:49:22.664Z,,0,2,,2760,response,ISIC_0033476.JPG,3,ISIC_0399220.JPG,ISIC_0399220.JPG,false,0,keypress(z),500,399173,399173,396413,396403,396429,399196,8,400,19,,ISIC_0033476.JPG
break,html.Screen,4_68_1,2023-10-31T00:49:22.664Z,,0,,,NaN,,,,,,false,,,,399173,399173,,399173,,399196,8,400,,,
break_continue,html.Screen,4_68_2,2023-10-31T00:49:22.664Z,,0,,,NaN,,,,,,false,,,,399173,399173,,399173,,399196,8,400,,,
sequence,flow.Sequence,4_68,2023-10-31T00:49:22.664Z,,0,,,2744,completion,,,,,false,,,,399173,399173,396413,396403,396429,399196,8,400,,,
trial,html.Screen,4_69_0,2023-10-31T00:49:25.627Z,,0,2,,2956,response,ISIC_7022381.JPG,10,ISIC_0055450.JPG,ISIC_0055450.JPG,false,0,keypress(z),500,402136,402136,399180,399174.00000000006,399196,402162,8,400,20,,ISIC_7022381.JPG
break,html.Screen,4_69_1,2023-10-31T00:49:25.627Z,,0,,,NaN,,,,,,false,,,,402136,402136,,402136,,402162,8,400,,,
break_continue,html.Screen,4_69_2,2023-10-31T00:49:25.627Z,,0,,,NaN,,,,,,false,,,,402136,402136,,402136,,402162,8,400,,,
sequence,flow.Sequence,4_69,2023-10-31T00:49:25.627Z,,0,,,2940,completion,,,,,false,,,,402136,402136,399180,399174.00000000006,399196,402162,8,400,,,
trial,html.Screen,4_70_0,2023-10-31T00:49:28.268Z,,0,2,,2630,response,ISIC_0046618.JPG,7,ISIC_6101007.JPG,ISIC_6101007.JPG,false,0,keypress(z),500,404777,404777,402147,402136,402162,404812,8,400,21,,ISIC_0046618.JPG
break,html.Screen,4_70_1,2023-10-31T00:49:28.268Z,,0,,,NaN,,,,,,false,,,,404777,404777,,404777,,404812,8,400,,,
break_continue,html.Screen,4_70_2,2023-10-31T00:49:28.269Z,,0,,,NaN,,,,,,false,,,,404778,404777,,404777,,404812,8,400,,,
sequence,flow.Sequence,4_70,2023-10-31T00:49:28.269Z,,0,,,2615,completion,,,,,false,,,,404778,404777,402147,402136,402162,404812,8,400,,,
trial,html.Screen,4_71_0,2023-10-31T00:49:31.184Z,,0,2,,2896,response,ISIC_0025369.JPG,12,ISIC_2702929.JPG,ISIC_0025369.JPG,false,1,keypress(m),500,407693,407692,404796,404778,404812,407729,8,400,22,,ISIC_2702929.JPG
break,html.Screen,4_71_1,2023-10-31T00:49:31.184Z,,0,,,NaN,,,,,,false,,,,407693,407693,,407693,,407729,8,400,,,
break_continue,html.Screen,4_71_2,2023-10-31T00:49:31.184Z,,0,,,NaN,,,,,,false,,,,407693,407693,,407693,,407729,8,400,,,
sequence,flow.Sequence,4_71,2023-10-31T00:49:31.185Z,,0,,,2881,completion,,,,,false,,,,407693,407693,404796,404778,404812,407729,8,400,,,
trial,html.Screen,4_72_0,2023-10-31T00:49:35.178Z,,0,2,,3974.000000000058,response,ISIC_2086540.JPG,0,ISIC_2366727.JPG,ISIC_2366727.JPG,false,0,keypress(z),500,411686.00000000006,411686.00000000006,407712,407694,407729,411713,8,400,23,,ISIC_2086540.JPG
break,html.Screen,4_72_1,2023-10-31T00:49:35.178Z,,0,,,NaN,,,,,,false,,,,411687,411687,,411687,,411713,8,400,,,
break_continue,html.Screen,4_72_2,2023-10-31T00:49:35.178Z,,0,,,NaN,,,,,,false,,,,411687,411687,,411687,,411713,8,400,,,
sequence,flow.Sequence,4_72,2023-10-31T00:49:35.178Z,,0,,,3958,completion,,,,,false,,,,411687,411687,407712,407694,407729,411713,8,400,,,
trial,html.Screen,4_73_0,2023-10-31T00:49:38.582Z,,0,2,,3396,response,ISIC_4378189.JPG,9,ISIC_0350472.JPG,ISIC_0350472.JPG,false,0,keypress(z),500,415091,415091,411695,411687,411713,415112,8,400,24,,ISIC_4378189.JPG
break,html.Screen,4_73_1,2023-10-31T00:49:38.582Z,,0,,,NaN,,,,,,false,,,,415091,415091,,415091,,415112,8,400,,,
break_continue,html.Screen,4_73_2,2023-10-31T00:49:38.583Z,,0,,,NaN,,,,,,false,,,,415092,415091,,415091,,415112,8,400,,,
sequence,flow.Sequence,4_73,2023-10-31T00:49:38.583Z,,0,,,3378,completion,,,,,false,,,,415092,415091,411695,411687,411713,415112,8,400,,,
trial,html.Screen,4_74_0,2023-10-31T00:49:42.104Z,,0,2,,3517,response,ISIC_8168598.JPG,0,ISIC_0028069.JPG,ISIC_0028069.JPG,false,0,keypress(z),500,418613,418613,415096,415092,415112,418646,8,400,25,,ISIC_8168598.JPG
break,html.Screen,4_74_1,2023-10-31T00:49:42.104Z,,0,,,NaN,,,,,,false,,,,418613,418613,,418613,,418646,8,400,,,
break_continue,html.Screen,4_74_2,2023-10-31T00:49:42.105Z,,0,,,NaN,,,,,,false,,,,418613,418613,,418613,,418646,8,400,,,
sequence,flow.Sequence,4_74,2023-10-31T00:49:42.105Z,,0,,,3501,completion,,,,,false,,,,418613,418613,415096,415092,415112,418646,8,400,,,
trial,html.Screen,4_75_0,2023-10-31T00:49:45.097Z,,0,2,,2975,response,ISIC_6066292.JPG,2,ISIC_0065746.JPG,ISIC_6066292.JPG,false,1,keypress(m),500,421605,421605,418630,418613,418646,421629,8,400,26,,ISIC_0065746.JPG
break,html.Screen,4_75_1,2023-10-31T00:49:45.097Z,,0,,,NaN,,,,,,false,,,,421606,421606,,421606,,421629,8,400,,,
break_continue,html.Screen,4_75_2,2023-10-31T00:49:45.097Z,,0,,,NaN,,,,,,false,,,,421606,421606,,421606,,421629,8,400,,,
sequence,flow.Sequence,4_75,2023-10-31T00:49:45.097Z,,0,,,2960,completion,,,,,false,,,,421606,421606,418630,418613,418646,421629,8,400,,,
trial,html.Screen,4_76_0,2023-10-31T00:49:48.164Z,,0,2,,3060,response,ISIC_3520709.JPG,4,ISIC_0000087.JPG,ISIC_3520709.JPG,false,1,keypress(m),500,424673,424672,421612,421606,421629,424696,8,400,27,,ISIC_0000087.JPG
break,html.Screen,4_76_1,2023-10-31T00:49:48.164Z,,0,,,NaN,,,,,,false,,,,424673,424673,,424673,,424696,8,400,,,
break_continue,html.Screen,4_76_2,2023-10-31T00:49:48.165Z,,0,,,NaN,,,,,,false,,,,424673,424673,,424673,,424696,8,400,,,
sequence,flow.Sequence,4_76,2023-10-31T00:49:48.165Z,,0,,,3044,completion,,,,,false,,,,424673,424673,421612,421606,421629,424696,8,400,,,
trial,html.Screen,4_77_0,2023-10-31T00:49:51.094Z,,0,2,,2924,response,ISIC_1745731.JPG,7,ISIC_4322723.JPG,ISIC_4322723.JPG,false,0,keypress(z),500,427603,427603,424679,424673,424696,427629,8,400,28,,ISIC_1745731.JPG
break,html.Screen,4_77_1,2023-10-31T00:49:51.095Z,,0,,,NaN,,,,,,false,,,,427604,427604,,427603,,427629,8,400,,,
break_continue,html.Screen,4_77_2,2023-10-31T00:49:51.095Z,,0,,,NaN,,,,,,false,,,,427604,427604,,427604,,427629,8,400,,,
sequence,flow.Sequence,4_77,2023-10-31T00:49:51.095Z,,0,,,2908,completion,,,,,false,,,,427604,427604,424679,424673,424696,427629,8,400,,,
trial,html.Screen,4_78_0,2023-10-31T00:49:53.893Z,,0,2,,2788,response,ISIC_0009958.JPG,0,ISIC_0046405.JPG,ISIC_0009958.JPG,false,1,keypress(m),500,430402,430401,427613,427604,427629,430429,8,400,29,,ISIC_0046405.JPG
break,html.Screen,4_78_1,2023-10-31T00:49:53.893Z,,0,,,NaN,,,,,,false,,,,430402,430402,,430402,,430429,8,400,,,
break_continue,html.Screen,4_78_2,2023-10-31T00:49:53.894Z,,0,,,NaN,,,,,,false,,,,430402,430402,,430402,,430429,8,400,,,
sequence,flow.Sequence,4_78,2023-10-31T00:49:53.894Z,,0,,,2773,completion,,,,,false,,,,430402,430402,427613,427604,427629,430429,8,400,,,
trial,html.Screen,4_79_0,2023-10-31T00:49:56.720Z,,0,2,,2816,response,ISIC_8843901.JPG,3,ISIC_0024401.JPG,ISIC_0024401.JPG,false,0,keypress(z),500,433229,433229,430413,430402,430429,433262,8,400,30,,ISIC_8843901.JPG
break,html.Screen,4_79_1,2023-10-31T00:49:56.721Z,,0,,,NaN,,,,,,false,,,,433229,433229,,433229,,433262,8,400,,,
break_continue,html.Screen,4_79_2,2023-10-31T00:49:56.721Z,,0,,,NaN,,,,,,false,,,,433230,433229,,433229,,433262,8,400,,,
sequence,flow.Sequence,4_79,2023-10-31T00:49:56.721Z,,0,,,2800,completion,,,,,false,,,,433230,433229,430413,430402,430429,433262,8,400,,,
trial,html.Screen,4_80_0,2023-10-31T00:49:59.571Z,,0,2,,2834,response,ISIC_1394786.JPG,6,ISIC_7580408.JPG,ISIC_1394786.JPG,false,1,keypress(m),500,436080,436080,433246,433230,433262,436112,8,400,31,,ISIC_7580408.JPG
break,html.Screen,4_80_1,2023-10-31T00:49:59.572Z,,0,,,NaN,,,,,,false,,,,436080,436080,,436080,,436112,8,400,,,
break_continue,html.Screen,4_80_2,2023-10-31T00:49:59.572Z,,0,,,NaN,,,,,,false,,,,436081,436081,,436080,,436112,8,400,,,
sequence,flow.Sequence,4_80,2023-10-31T00:49:59.572Z,,0,,,2819,completion,,,,,false,,,,436081,436081,433246,433230,433262,436112,8,400,,,
trial,html.Screen,4_81_0,2023-10-31T00:50:02.549Z,,0,2,,2962,response,ISIC_0062812.JPG,14,ISIC_8340256.JPG,ISIC_8340256.JPG,false,0,keypress(z),500,439058,439058,436096,436081,436112,439078,8,400,32,,ISIC_0062812.JPG
break,html.Screen,4_81_1,2023-10-31T00:50:02.550Z,,0,,,NaN,,,,,,false,,,,439059,439058,,439058,,439078,8,400,,,
break_continue,html.Screen,4_81_2,2023-10-31T00:50:02.550Z,,0,,,NaN,,,,,,false,,,,439059,439059,,439059,,439078,8,400,,,
sequence,flow.Sequence,4_81,2023-10-31T00:50:02.550Z,,0,,,2947,completion,,,,,false,,,,439059,439059,436096,436081,436112,439078,8,400,,,
trial,html.Screen,4_82_0,2023-10-31T00:50:13.186Z,,0,2,,10633,response,ISIC_0009879.JPG,0,ISIC_3963183.JPG,ISIC_0009879.JPG,false,1,keypress(m),500,449695,449695,439062,439059,439078,449729,8,400,33,,ISIC_3963183.JPG
break,html.Screen,4_82_1,2023-10-31T00:50:13.187Z,,0,,,NaN,,,,,,false,,,,449695,449695,,449695,,449729,8,400,,,
break_continue,html.Screen,4_82_2,2023-10-31T00:50:13.187Z,,0,,,NaN,,,,,,false,,,,449695,449695,,449695,,449729,8,400,,,
sequence,flow.Sequence,4_82,2023-10-31T00:50:13.187Z,,0,,,10617,completion,,,,,false,,,,449696,449695,439062,439059,439078,449729,8,400,,,
trial,html.Screen,4_83_0,2023-10-31T00:50:19.224Z,,0,2,,6020,response,ISIC_0055491.JPG,1,ISIC_7623407.JPG,ISIC_7623407.JPG,false,0,keypress(z),500,455733,455733,449713,449696,449729,455762,8,400,34,,ISIC_0055491.JPG
break,html.Screen,4_83_1,2023-10-31T00:50:19.225Z,,0,,,NaN,,,,,,false,,,,455733,455733,,455733,,455762,8,400,,,
break_continue,html.Screen,4_83_2,2023-10-31T00:50:19.225Z,,0,,,NaN,,,,,,false,,,,455733,455733,,455733,,455762,8,400,,,
sequence,flow.Sequence,4_83,2023-10-31T00:50:19.225Z,,0,,,6004,completion,,,,,false,,,,455734.00000000006,455733,449713,449696,449729,455762,8,400,,,
trial,html.Screen,4_84_0,2023-10-31T00:50:21.850Z,,0,2,,2612,response,ISIC_0033393.JPG,0,ISIC_0054167.JPG,ISIC_0033393.JPG,false,1,keypress(m),500,458358,458358,455746,455734.00000000006,455762,458395,8,400,35,,ISIC_0054167.JPG
break,html.Screen,4_84_1,2023-10-31T00:50:21.850Z,,0,,,NaN,,,,,,false,,,,458359.00000000006,458359.00000000006,,458359.00000000006,,458395,8,400,,,
break_continue,html.Screen,4_84_2,2023-10-31T00:50:21.851Z,,0,,,NaN,,,,,,false,,,,458359.00000000006,458359.00000000006,,458359.00000000006,,458395,8,400,,,
sequence,flow.Sequence,4_84,2023-10-31T00:50:21.851Z,,0,,,2597.000000000058,completion,,,,,false,,,,458359.00000000006,458359.00000000006,455746,455734.00000000006,455762,458395,8,400,,,
trial,html.Screen,4_85_0,2023-10-31T00:50:25.979Z,,0,2,,4108,response,ISIC_0029349.JPG,0,ISIC_0010982.JPG,ISIC_0029349.JPG,false,1,keypress(m),500,462488,462487,458379,458359.00000000006,458395,462512,8,400,36,,ISIC_0010982.JPG
break,html.Screen,4_85_1,2023-10-31T00:50:25.980Z,,0,,,NaN,,,,,,false,,,,462488,462488,,462488,,462512,8,400,,,
break_continue,html.Screen,4_85_2,2023-10-31T00:50:25.980Z,,0,,,NaN,,,,,,false,,,,462488,462488,,462488,,462512,8,400,,,
sequence,flow.Sequence,4_85,2023-10-31T00:50:25.980Z,,0,,,4093,completion,,,,,false,,,,462488,462488,458379,458359.00000000006,458395,462512,8,400,,,
trial,html.Screen,4_86_0,2023-10-31T00:50:28.642Z,,0,2,,2654.000000000058,response,ISIC_0011329.JPG,11,ISIC_0000546.JPG,ISIC_0000546.JPG,false,0,keypress(z),500,465151,465150.00000000006,462496,462489.00000000006,462512,465178,8,400,37,,ISIC_0011329.JPG
break,html.Screen,4_86_1,2023-10-31T00:50:28.643Z,,0,,,NaN,,,,,,false,,,,465151,465151,,465151,,465178,8,400,,,
break_continue,html.Screen,4_86_2,2023-10-31T00:50:28.643Z,,0,,,NaN,,,,,,false,,,,465151,465151,,465151,,465178,8,400,,,
sequence,flow.Sequence,4_86,2023-10-31T00:50:28.643Z,,0,,,2639,completion,,,,,false,,,,465152,465151,462496,462489.00000000006,462512,465178,8,400,,,
trial,html.Screen,4_87_0,2023-10-31T00:50:32.286Z,,0,2,,3632,response,ISIC_0455743.JPG,8,ISIC_0070709.JPG,ISIC_0070709.JPG,false,0,keypress(z),500,468794,468794,465162,465152,465178,468829,8,400,38,,ISIC_0455743.JPG
break,html.Screen,4_87_1,2023-10-31T00:50:32.286Z,,0,,,NaN,,,,,,false,,,,468795,468794,,468794,,468829,8,400,,,
break_continue,html.Screen,4_87_2,2023-10-31T00:50:32.286Z,,0,,,NaN,,,,,,false,,,,468795,468795,,468795,,468829,8,400,,,
sequence,flow.Sequence,4_87,2023-10-31T00:50:32.287Z,,0,,,3617,completion,,,,,false,,,,468795,468795,465162,465152,465178,468829,8,400,,,
trial,html.Screen,4_88_0,2023-10-31T00:50:35.484Z,,0,2,,3180,response,ISIC_8562820.JPG,2,ISIC_0055251.JPG,ISIC_8562820.JPG,false,1,keypress(m),500,471992,471992,468812,468795,468829,472028,8,400,39,,ISIC_0055251.JPG
break,html.Screen,4_88_1,2023-10-31T00:50:35.484Z,,0,,,NaN,,,,,,false,,,,471993,471993,,471992,,472028,8,400,,,
break_continue,html.Screen,4_88_2,2023-10-31T00:50:35.485Z,,0,,,NaN,,,,,,false,,,,471993,471993,,471993,,472028,8,400,,,
sequence,flow.Sequence,4_88,2023-10-31T00:50:35.485Z,,0,,,3164,completion,,,,,false,,,,471993,471993,468812,468795,468829,472028,8,400,,,
trial,html.Screen,4_89_0,2023-10-31T00:50:38.591Z,,0,2,,3088,response,ISIC_8124900.JPG,10,ISIC_1937197.JPG,ISIC_8124900.JPG,false,1,keypress(m),500,475100,475099,472011,471993,472028,475129,8,400,40,,ISIC_1937197.JPG
break,html.Screen,4_89_1,2023-10-31T00:50:38.592Z,,0,,,NaN,,,,,,false,,,,475100,475100,,475100,,475129,8,400,,,
break_continue,html.Screen,4_89_2,2023-10-31T00:50:38.592Z,,0,,,NaN,,,,,,false,,,,475100,475100,,475100,,475129,8,400,,,
sequence,flow.Sequence,4_89,2023-10-31T00:50:38.592Z,,0,,,3072,completion,,,,,false,,,,475100,475100,472011,471993,472028,475129,8,400,,,
trial,html.Screen,4_90_0,2023-10-31T00:50:41.860Z,,0,2,,3256,response,ISIC_3948754.JPG,6,ISIC_0014936.JPG,ISIC_3948754.JPG,false,1,keypress(m),500,478368,478368,475112,475100,475129,478396,8,400,41,,ISIC_0014936.JPG
break,html.Screen,4_90_1,2023-10-31T00:50:41.860Z,,0,,,NaN,,,,,,false,,,,478369,478369,,478368,,478396,8,400,,,
break_continue,html.Screen,4_90_2,2023-10-31T00:50:41.861Z,,0,,,NaN,,,,,,false,,,,478369,478369,,478369,,478396,8,400,,,
sequence,flow.Sequence,4_90,2023-10-31T00:50:41.861Z,,0,,,3240,completion,,,,,false,,,,478369,478369,475112,475100,475129,478396,8,400,,,
trial,html.Screen,4_91_0,2023-10-31T00:50:48.448Z,,0,2,,6578,response,ISIC_0029189.JPG,12,ISIC_5714411.JPG,ISIC_0029189.JPG,false,1,keypress(m),500,484956,484956,478378,478369,478396,484978,8,400,42,,ISIC_5714411.JPG
break,html.Screen,4_91_1,2023-10-31T00:50:48.448Z,,0,,,NaN,,,,,,false,,,,484957,484957,,484956,,484978,8,400,,,
break_continue,html.Screen,4_91_2,2023-10-31T00:50:48.449Z,,0,,,NaN,,,,,,false,,,,484957,484957,,484957,,484978,8,400,,,
sequence,flow.Sequence,4_91,2023-10-31T00:50:48.449Z,,0,,,6561,completion,,,,,false,,,,484957,484957,478378,478369,478396,484978,8,400,,,
trial,html.Screen,4_92_0,2023-10-31T00:50:59.953Z,,0,2,,11517,timeout,ISIC_0032722.JPG,7,ISIC_0059065.JPG,,false,,,500,496461,496461,484961,484957,484978,496495,8,400,43,,
break,html.Screen,4_92_1,2023-10-31T00:50:59.953Z,,0,,,NaN,,,,,,false,,,,496461,496461,,496461,,496495,8,400,,,
break_continue,html.Screen,4_92_2,2023-10-31T00:50:59.953Z,,0,,,NaN,,,,,,false,,,,496462,496462,,496461,,496495,8,400,,,
sequence,flow.Sequence,4_92,2023-10-31T00:50:59.954Z,,0,,,11484,completion,,,,,false,,,,496462,496462,484961,484957,484978,496495,8,400,,,
trial,html.Screen,4_93_0,2023-10-31T00:51:02.890Z,,0,2,,2920,response,ISIC_0067805.JPG,2,ISIC_8147542.JPG,ISIC_0067805.JPG,false,1,keypress(m),500,499398,499398,496478,496462,496495,499428,8,400,44,,ISIC_8147542.JPG
break,html.Screen,4_93_1,2023-10-31T00:51:02.891Z,,0,,,NaN,,,,,,false,,,,499399,499398,,499398,,499428,8,400,,,
break_continue,html.Screen,4_93_2,2023-10-31T00:51:02.891Z,,0,,,NaN,,,,,,false,,,,499399,499399,,499399,,499428,8,400,,,
sequence,flow.Sequence,4_93,2023-10-31T00:51:02.891Z,,0,,,2904,completion,,,,,false,,,,499399,499399,496478,496462,496495,499428,8,400,,,
trial,html.Screen,4_94_0,2023-10-31T00:51:05.548Z,,0,2,,2644,response,ISIC_0006158.JPG,5,ISIC_4548995.JPG,ISIC_0006158.JPG,false,1,keypress(m),500,502056,502056,499412,499399,499428,502078,8,400,45,,ISIC_4548995.JPG
break,html.Screen,4_94_1,2023-10-31T00:51:05.549Z,,0,,,NaN,,,,,,false,,,,502057,502057,,502056,,502078,8,400,,,
break_continue,html.Screen,4_94_2,2023-10-31T00:51:05.549Z,,0,,,NaN,,,,,,false,,,,502057,502057,,502057,,502078,8,400,,,
sequence,flow.Sequence,4_94,2023-10-31T00:51:05.549Z,,0,,,2629,completion,,,,,false,,,,502057,502057,499412,499399,499428,502078,8,400,,,
trial,html.Screen,4_95_0,2023-10-31T00:51:08.382Z,,0,2,,2828,response,ISIC_0011798.JPG,8,ISIC_7131973.JPG,ISIC_0011798.JPG,false,1,keypress(m),500,504890,504890,502062,502057,502078,504911,8,400,46,,ISIC_7131973.JPG
break,html.Screen,4_95_1,2023-10-31T00:51:08.383Z,,0,,,NaN,,,,,,false,,,,504891,504891,,504890,,504911,8,400,,,
break_continue,html.Screen,4_95_2,2023-10-31T00:51:08.383Z,,0,,,NaN,,,,,,false,,,,504891,504891,,504891,,504911,8,400,,,
sequence,flow.Sequence,4_95,2023-10-31T00:51:08.383Z,,0,,,2813,completion,,,,,false,,,,504891,504891,502062,502057,502078,504911,8,400,,,
trial,html.Screen,4_96_0,2023-10-31T00:51:11.115Z,,0,2,,2728,response,ISIC_8659618.JPG,5,ISIC_0054395.JPG,ISIC_8659618.JPG,false,1,keypress(m),500,507623,507623,504895,504891,504911,507644,8,400,47,,ISIC_0054395.JPG
break,html.Screen,4_96_1,2023-10-31T00:51:11.116Z,,0,,,NaN,,,,,,false,,,,507624,507623,,507623,,507644,8,400,,,
break_continue,html.Screen,4_96_2,2023-10-31T00:51:11.116Z,,0,,,NaN,,,,,,false,,,,507624,507624,,507624,,507644,8,400,,,
sequence,flow.Sequence,4_96,2023-10-31T00:51:11.116Z,,0,,,2713,completion,,,,,false,,,,507624,507624,504895,504891,504911,507644,8,400,,,
trial,html.Screen,4_97_0,2023-10-31T00:51:13.695Z,,0,2,,2574,response,ISIC_9879693.JPG,10,ISIC_0062559.JPG,ISIC_0062559.JPG,false,0,keypress(z),500,510203.00000000006,510202,507628,507624,507644,510228,8,400,48,,ISIC_9879693.JPG
break,html.Screen,4_97_1,2023-10-31T00:51:13.695Z,,0,,,NaN,,,,,,false,,,,510203.00000000006,510203.00000000006,,510203.00000000006,,510228,8,400,,,
break_continue,html.Screen,4_97_2,2023-10-31T00:51:13.695Z,,0,,,NaN,,,,,,false,,,,510203.00000000006,510203.00000000006,,510203.00000000006,,510228,8,400,,,
sequence,flow.Sequence,4_97,2023-10-31T00:51:13.695Z,,0,,,2559.000000000058,completion,,,,,false,,,,510203.00000000006,510203.00000000006,507628,507624,507644,510228,8,400,,,
trial,html.Screen,4_98_0,2023-10-31T00:51:17.362Z,,0,2,,3658,response,ISIC_0003438.JPG,9,ISIC_0013639.JPG,ISIC_0003438.JPG,false,1,keypress(m),500,513870,513870,510212,510203.00000000006,510228,513895,8,400,49,,ISIC_0013639.JPG
break,html.Screen,4_98_1,2023-10-31T00:51:17.363Z,,0,,,NaN,,,,,,false,,,,513871,513871,,513870,,513895,8,400,,,
break_continue,html.Screen,4_98_2,2023-10-31T00:51:17.363Z,,0,,,NaN,,,,,,false,,,,513871,513871,,513871,,513895,8,400,,,
sequence,flow.Sequence,4_98,2023-10-31T00:51:17.363Z,,0,,,3643,completion,,,,,false,,,,513871,513871,510212,510203.00000000006,510228,513895,8,400,,,
trial,html.Screen,4_99_0,2023-10-31T00:51:20.273Z,,0,2,,2903.000000000058,response,ISIC_5306427.JPG,1,ISIC_5282642.JPG,ISIC_5306427.JPG,false,1,keypress(m),500,516781.00000000006,516781.00000000006,513878,513871,513895,516812,8,400,50,,ISIC_5282642.JPG
break,html.Screen,4_99_1,2023-10-31T00:51:30.287Z,,0,,,9999,timeout,,,,,false,,,,526795,526795,516795,516781.00000000006,516812,526811,8,400,,,
break_continue,html.Screen,4_99_2,2023-10-31T00:51:30.775Z,,0,,,457.0000000001164,response,,,,,false,continue,keypress(Space),,527283,527252.0000000001,526795,526795,526811,527311,8,400,,,
sequence,flow.Sequence,4_99,2023-10-31T00:51:30.776Z,,0,,,13357.000000000116,completion,,,,,false,,,,527283,527252.0000000001,513878,513871,513895,527311,8,400,,,
trial,html.Screen,4_100_0,2023-10-31T00:51:33.969Z,,0,3,,3182,response,ISIC_6763221.JPG,8,ISIC_2197722.JPG,ISIC_6763221.JPG,false,1,keypress(m),500,530476,530476,527294,527283,527311,530511,8,400,1,,ISIC_2197722.JPG
break,html.Screen,4_100_1,2023-10-31T00:51:33.969Z,,0,,,NaN,,,,,,false,,,,530477,530477,,530477,,530511,8,400,,,
break_continue,html.Screen,4_100_2,2023-10-31T00:51:33.969Z,,0,,,NaN,,,,,,false,,,,530477,530477,,530477,,530511,8,400,,,
sequence,flow.Sequence,4_100,2023-10-31T00:51:33.969Z,,0,,,3166,completion,,,,,false,,,,530477,530477,527294,527283,527311,530511,8,400,,,
trial,html.Screen,4_101_0,2023-10-31T00:51:36.720Z,,0,3,,2733.0000000001164,response,ISIC_0034289.JPG,9,ISIC_0054087.JPG,ISIC_0034289.JPG,false,1,keypress(m),500,533228.0000000001,533228.0000000001,530495,530477,530511,533260,8,400,2,,ISIC_0054087.JPG
break,html.Screen,4_101_1,2023-10-31T00:51:36.721Z,,0,,,NaN,,,,,,false,,,,533228.0000000001,533228.0000000001,,533228.0000000001,,533260,8,400,,,
break_continue,html.Screen,4_101_2,2023-10-31T00:51:36.721Z,,0,,,NaN,,,,,,false,,,,533229,533228.0000000001,,533228.0000000001,,533260,8,400,,,
sequence,flow.Sequence,4_101,2023-10-31T00:51:36.721Z,,0,,,2717.0000000001164,completion,,,,,false,,,,533229,533228.0000000001,530495,530477,530511,533260,8,400,,,
trial,html.Screen,4_102_0,2023-10-31T00:51:42.028Z,,0,3,,5291,response,ISIC_0062468.JPG,12,ISIC_0028396.JPG,ISIC_0028396.JPG,false,0,keypress(z),500,538535,538535,533244,533229,533260,538561,8,400,3,,ISIC_0062468.JPG
break,html.Screen,4_102_1,2023-10-31T00:51:42.028Z,,0,,,NaN,,,,,,false,,,,538536,538536,,538535,,538561,8,400,,,
break_continue,html.Screen,4_102_2,2023-10-31T00:51:42.028Z,,0,,,NaN,,,,,,false,,,,538536,538536,,538536,,538561,8,400,,,
sequence,flow.Sequence,4_102,2023-10-31T00:51:42.028Z,,0,,,5276,completion,,,,,false,,,,538536,538536,533244,533229,533260,538561,8,400,,,
trial,html.Screen,4_103_0,2023-10-31T00:51:45.025Z,,0,3,,2989,response,ISIC_5281908.JPG,9,ISIC_5150200.JPG,ISIC_5281908.JPG,false,1,keypress(m),500,541533,541533,538544,538536,538561,541560,8,400,4,,ISIC_5150200.JPG
break,html.Screen,4_103_1,2023-10-31T00:51:45.026Z,,0,,,NaN,,,,,,false,,,,541533,541533,,541533,,541560,8,400,,,
break_continue,html.Screen,4_103_2,2023-10-31T00:51:45.026Z,,0,,,NaN,,,,,,false,,,,541534,541534,,541534,,541560,8,400,,,
sequence,flow.Sequence,4_103,2023-10-31T00:51:45.026Z,,0,,,2973,completion,,,,,false,,,,541534,541534,538544,538536,538561,541560,8,400,,,
trial,html.Screen,4_104_0,2023-10-31T00:51:49.702Z,,0,3,,4664.000000000116,response,ISIC_0060934.JPG,12,ISIC_2447578.JPG,ISIC_0060934.JPG,false,1,keypress(m),500,546210,546209.0000000001,541545,541534,541560,546244,8,400,5,,ISIC_2447578.JPG
break,html.Screen,4_104_1,2023-10-31T00:51:49.702Z,,0,,,NaN,,,,,,false,,,,546210,546210,,546210,,546244,8,400,,,
break_continue,html.Screen,4_104_2,2023-10-31T00:51:49.703Z,,0,,,NaN,,,,,,false,,,,546210,546210,,546210,,546244,8,400,,,
sequence,flow.Sequence,4_104,2023-10-31T00:51:49.703Z,,0,,,4650,completion,,,,,false,,,,546210,546210,541545,541534,541560,546244,8,400,,,
trial,html.Screen,4_105_0,2023-10-31T00:51:52.956Z,,0,3,,3236,response,ISIC_0032278.JPG,12,ISIC_7161002.JPG,ISIC_7161002.JPG,false,0,keypress(z),500,549463,549463,546227,546210,546244,549494,8,400,6,,ISIC_0032278.JPG
break,html.Screen,4_105_1,2023-10-31T00:51:52.956Z,,0,,,NaN,,,,,,false,,,,549464,549464,,549463,,549494,8,400,,,
break_continue,html.Screen,4_105_2,2023-10-31T00:51:52.957Z,,0,,,NaN,,,,,,false,,,,549464,549464,,549464,,549494,8,400,,,
sequence,flow.Sequence,4_105,2023-10-31T00:51:52.957Z,,0,,,3220,completion,,,,,false,,,,549464,549464,546227,546210,546244,549494,8,400,,,
trial,html.Screen,4_106_0,2023-10-31T00:51:55.817Z,,0,3,,2847,response,ISIC_0070666.JPG,11,ISIC_2818530.JPG,ISIC_2818530.JPG,false,0,keypress(z),500,552325,552325,549478,549464,549494,552361,8,400,7,,ISIC_0070666.JPG
break,html.Screen,4_106_1,2023-10-31T00:51:55.818Z,,0,,,NaN,,,,,,false,,,,552325,552325,,552325,,552361,8,400,,,
break_continue,html.Screen,4_106_2,2023-10-31T00:51:55.818Z,,0,,,NaN,,,,,,false,,,,552325,552325,,552325,,552361,8,400,,,
sequence,flow.Sequence,4_106,2023-10-31T00:51:55.818Z,,0,,,2831,completion,,,,,false,,,,552325,552325,549478,549464,549494,552361,8,400,,,
trial,html.Screen,4_107_0,2023-10-31T00:51:58.952Z,,0,3,,3116.0000000001164,response,ISIC_0014290.JPG,14,ISIC_9660528.JPG,ISIC_9660528.JPG,false,0,keypress(z),500,555460,555459.0000000001,552343,552326,552361,555494,8,400,8,,ISIC_0014290.JPG
break,html.Screen,4_107_1,2023-10-31T00:51:58.952Z,,0,,,NaN,,,,,,false,,,,555460,555460,,555460,,555494,8,400,,,
break_continue,html.Screen,4_107_2,2023-10-31T00:51:58.953Z,,0,,,NaN,,,,,,false,,,,555460,555460,,555460,,555494,8,400,,,
sequence,flow.Sequence,4_107,2023-10-31T00:51:58.953Z,,0,,,3099,completion,,,,,false,,,,555460,555460,552343,552326,552361,555494,8,400,,,
trial,html.Screen,4_108_0,2023-10-31T00:52:01.851Z,,0,3,,2882,response,ISIC_9572152.JPG,14,ISIC_0027560.JPG,ISIC_9572152.JPG,false,1,keypress(m),500,558359,558359,555477,555460,555494,558394,8,400,9,,ISIC_0027560.JPG
break,html.Screen,4_108_1,2023-10-31T00:52:01.852Z,,0,,,NaN,,,,,,false,,,,558360,558359,,558359,,558394,8,400,,,
break_continue,html.Screen,4_108_2,2023-10-31T00:52:01.852Z,,0,,,NaN,,,,,,false,,,,558360,558360,,558360,,558394,8,400,,,
sequence,flow.Sequence,4_108,2023-10-31T00:52:01.852Z,,0,,,2866,completion,,,,,false,,,,558360,558360,555477,555460,555494,558394,8,400,,,
trial,html.Screen,4_109_0,2023-10-31T00:52:05.049Z,,0,3,,3179,response,ISIC_0011198.JPG,4,ISIC_7581199.JPG,ISIC_0011198.JPG,false,1,keypress(m),500,561557,561556,558377,558360,558394,561594,8,400,10,,ISIC_7581199.JPG
break,html.Screen,4_109_1,2023-10-31T00:52:05.050Z,,0,,,NaN,,,,,,false,,,,561557,561557,,561557,,561594,8,400,,,
break_continue,html.Screen,4_109_2,2023-10-31T00:52:05.050Z,,0,,,NaN,,,,,,false,,,,561557,561557,,561557,,561594,8,400,,,
sequence,flow.Sequence,4_109,2023-10-31T00:52:05.050Z,,0,,,3163,completion,,,,,false,,,,561557,561557,558377,558360,558394,561594,8,400,,,
trial,html.Screen,4_110_0,2023-10-31T00:52:07.764Z,,0,3,,2695,response,ISIC_9152603.JPG,10,ISIC_0030969.JPG,ISIC_0030969.JPG,false,0,keypress(z),500,564272,564272,561577,561558,561594,564294,8,400,11,,ISIC_9152603.JPG
break,html.Screen,4_110_1,2023-10-31T00:52:07.765Z,,0,,,NaN,,,,,,false,,,,564272,564272,,564272,,564294,8,400,,,
break_continue,html.Screen,4_110_2,2023-10-31T00:52:07.765Z,,0,,,NaN,,,,,,false,,,,564272,564272,,564272,,564294,8,400,,,
sequence,flow.Sequence,4_110,2023-10-31T00:52:07.765Z,,0,,,2678,completion,,,,,false,,,,564273,564272,561577,561558,561594,564294,8,400,,,
trial,html.Screen,4_111_0,2023-10-31T00:52:10.989Z,,0,3,,3220,response,ISIC_5529924.JPG,5,ISIC_0060091.JPG,ISIC_5529924.JPG,false,1,keypress(m),500,567497,567497,564277,564273,564294,567528,8,400,12,,ISIC_0060091.JPG
break,html.Screen,4_111_1,2023-10-31T00:52:10.990Z,,0,,,NaN,,,,,,false,,,,567497,567497,,567497,,567528,8,400,,,
break_continue,html.Screen,4_111_2,2023-10-31T00:52:10.990Z,,0,,,NaN,,,,,,false,,,,567497,567497,,567497,,567528,8,400,,,
sequence,flow.Sequence,4_111,2023-10-31T00:52:10.990Z,,0,,,3203,completion,,,,,false,,,,567497,567497,564277,564273,564294,567528,8,400,,,
trial,html.Screen,4_112_0,2023-10-31T00:52:13.830Z,,0,3,,2826,response,ISIC_4836699.JPG,5,ISIC_2868199.JPG,ISIC_2868199.JPG,false,0,keypress(z),500,570337,570337,567511,567498,567528,570360,8,400,13,,ISIC_4836699.JPG
break,html.Screen,4_112_1,2023-10-31T00:52:13.830Z,,0,,,NaN,,,,,,false,,,,570337,570337,,570337,,570360,8,400,,,
break_continue,html.Screen,4_112_2,2023-10-31T00:52:13.830Z,,0,,,NaN,,,,,,false,,,,570338,570338,,570338,,570360,8,400,,,
sequence,flow.Sequence,4_112,2023-10-31T00:52:13.830Z,,0,,,2810,completion,,,,,false,,,,570338,570338,567511,567497,567528,570360,8,400,,,
trial,html.Screen,4_113_0,2023-10-31T00:52:16.771Z,,0,3,,2934,response,ISIC_8167374.JPG,1,ISIC_7189490.JPG,ISIC_8167374.JPG,false,1,keypress(m),500,573278,573278,570344,570338,570360,573310,8,400,14,,ISIC_7189490.JPG
break,html.Screen,4_113_1,2023-10-31T00:52:16.771Z,,0,,,NaN,,,,,,false,,,,573278,573278,,573278,,573310,8,400,,,
break_continue,html.Screen,4_113_2,2023-10-31T00:52:16.771Z,,0,,,NaN,,,,,,false,,,,573279,573279,,573279,,573310,8,400,,,
sequence,flow.Sequence,4_113,2023-10-31T00:52:16.771Z,,0,,,2919,completion,,,,,false,,,,573279,573279,570344,570338,570360,573310,8,400,,,
trial,html.Screen,4_114_0,2023-10-31T00:52:19.511Z,,0,3,,2724,response,ISIC_5307086.JPG,7,ISIC_0011520.JPG,ISIC_5307086.JPG,false,1,keypress(m),500,576018,576018,573294,573279,573310,576043,8,400,15,,ISIC_0011520.JPG
break,html.Screen,4_114_1,2023-10-31T00:52:19.511Z,,0,,,NaN,,,,,,false,,,,576018,576018,,576018,,576043,8,400,,,
break_continue,html.Screen,4_114_2,2023-10-31T00:52:19.511Z,,0,,,NaN,,,,,,false,,,,576019,576019,,576019,,576043,8,400,,,
sequence,flow.Sequence,4_114,2023-10-31T00:52:19.511Z,,0,,,2709,completion,,,,,false,,,,576019,576019,573294,573279,573310,576043,8,400,,,
trial,html.Screen,4_115_0,2023-10-31T00:52:22.230Z,,0,3,,2711,response,ISIC_0033841.JPG,6,ISIC_0033074.JPG,ISIC_0033841.JPG,false,1,keypress(m),500,578737,578737,576026,576019,576043,578760,8,400,16,,ISIC_0033074.JPG
break,html.Screen,4_115_1,2023-10-31T00:52:22.230Z,,0,,,NaN,,,,,,false,,,,578738,578738,,578737,,578760,8,400,,,
break_continue,html.Screen,4_115_2,2023-10-31T00:52:22.231Z,,0,,,NaN,,,,,,false,,,,578738,578738,,578738,,578760,8,400,,,
sequence,flow.Sequence,4_115,2023-10-31T00:52:22.231Z,,0,,,2695,completion,,,,,false,,,,578738,578738,576026,576019,576043,578760,8,400,,,
trial,html.Screen,4_116_0,2023-10-31T00:52:25.069Z,,0,3,,2832,response,ISIC_0813342.JPG,6,ISIC_0031408.JPG,ISIC_0813342.JPG,false,1,keypress(m),500,581577,581576,578744,578738,578760,581610,8,400,17,,ISIC_0031408.JPG
break,html.Screen,4_116_1,2023-10-31T00:52:25.070Z,,0,,,NaN,,,,,,false,,,,581577,581577,,581577,,581610,8,400,,,
break_continue,html.Screen,4_116_2,2023-10-31T00:52:25.070Z,,0,,,NaN,,,,,,false,,,,581577,581577,,581577,,581610,8,400,,,
sequence,flow.Sequence,4_116,2023-10-31T00:52:25.070Z,,0,,,2817,completion,,,,,false,,,,581578,581577,578744,578738,578760,581610,8,400,,,
trial,html.Screen,4_117_0,2023-10-31T00:52:27.957Z,,0,3,,2870,response,ISIC_2843245.JPG,10,ISIC_0031350.JPG,ISIC_2843245.JPG,false,1,keypress(m),500,584464,584464,581594,581578,581610,584493,8,400,18,,ISIC_0031350.JPG
break,html.Screen,4_117_1,2023-10-31T00:52:27.958Z,,0,,,NaN,,,,,,false,,,,584465,584465,,584465,,584493,8,400,,,
break_continue,html.Screen,4_117_2,2023-10-31T00:52:27.958Z,,0,,,NaN,,,,,,false,,,,584465,584465,,584465,,584493,8,400,,,
sequence,flow.Sequence,4_117,2023-10-31T00:52:27.958Z,,0,,,2855,completion,,,,,false,,,,584465,584465,581594,581578,581610,584493,8,400,,,
trial,html.Screen,4_118_0,2023-10-31T00:52:30.674Z,,0,3,,2704,response,ISIC_0031005.JPG,10,ISIC_9228573.JPG,ISIC_9228573.JPG,false,0,keypress(z),500,587181,587181,584477,584465,584493,587210,8,400,19,,ISIC_0031005.JPG
break,html.Screen,4_118_1,2023-10-31T00:52:30.674Z,,0,,,NaN,,,,,,false,,,,587182,587181,,587181,,587210,8,400,,,
break_continue,html.Screen,4_118_2,2023-10-31T00:52:30.674Z,,0,,,NaN,,,,,,false,,,,587182,587182,,587182,,587210,8,400,,,
sequence,flow.Sequence,4_118,2023-10-31T00:52:30.674Z,,0,,,2689,completion,,,,,false,,,,587182,587182,584477,584465,584493,587210,8,400,,,
trial,html.Screen,4_119_0,2023-10-31T00:52:33.499Z,,0,3,,2813,response,ISIC_0070422.JPG,8,ISIC_1859923.JPG,ISIC_1859923.JPG,false,0,keypress(z),500,590007.0000000001,590006,587193,587182,587210,590043,8,400,20,,ISIC_0070422.JPG
break,html.Screen,4_119_1,2023-10-31T00:52:33.500Z,,0,,,NaN,,,,,,false,,,,590007.0000000001,590007.0000000001,,590007.0000000001,,590043,8,400,,,
break_continue,html.Screen,4_119_2,2023-10-31T00:52:33.500Z,,0,,,NaN,,,,,,false,,,,590007.0000000001,590007.0000000001,,590007.0000000001,,590043,8,400,,,
sequence,flow.Sequence,4_119,2023-10-31T00:52:33.500Z,,0,,,2797.0000000001164,completion,,,,,false,,,,590007.0000000001,590007.0000000001,587193,587182,587210,590043,8,400,,,
trial,html.Screen,4_120_0,2023-10-31T00:52:36.455Z,,0,3,,2936,response,ISIC_0054080.JPG,2,ISIC_8497457.JPG,ISIC_8497457.JPG,false,0,keypress(z),500,592962,592962,590026,590008,590043,592994,8,400,21,,ISIC_0054080.JPG
break,html.Screen,4_120_1,2023-10-31T00:52:36.456Z,,0,,,NaN,,,,,,false,,,,592963,592963,,592962,,592994,8,400,,,
break_continue,html.Screen,4_120_2,2023-10-31T00:52:36.456Z,,0,,,NaN,,,,,,false,,,,592963,592963,,592963,,592994,8,400,,,
sequence,flow.Sequence,4_120,2023-10-31T00:52:36.456Z,,0,,,2920,completion,,,,,false,,,,592963,592963,590026,590008,590043,592994,8,400,,,
trial,html.Screen,4_121_0,2023-10-31T00:52:39.239Z,,0,3,,2769,response,ISIC_0025219.JPG,4,ISIC_2482061.JPG,ISIC_2482061.JPG,false,0,keypress(z),500,595746,595746,592977,592963,592994,595777,8,400,22,,ISIC_0025219.JPG
break,html.Screen,4_121_1,2023-10-31T00:52:39.239Z,,0,,,NaN,,,,,,false,,,,595747,595746,,595746,,595777,8,400,,,
break_continue,html.Screen,4_121_2,2023-10-31T00:52:39.240Z,,0,,,NaN,,,,,,false,,,,595747,595747,,595747,,595777,8,400,,,
sequence,flow.Sequence,4_121,2023-10-31T00:52:39.240Z,,0,,,2753,completion,,,,,false,,,,595747,595747,592977,592963,592994,595777,8,400,,,
trial,html.Screen,4_122_0,2023-10-31T00:52:42.257Z,,0,3,,3003,response,ISIC_4602691.JPG,9,ISIC_4446385.JPG,ISIC_4446385.JPG,false,0,keypress(z),500,598764,598764,595761,595747,595777,598794,8,400,23,,ISIC_4602691.JPG
break,html.Screen,4_122_1,2023-10-31T00:52:42.257Z,,0,,,NaN,,,,,,false,,,,598765,598764,,598764,,598794,8,400,,,
break_continue,html.Screen,4_122_2,2023-10-31T00:52:42.258Z,,0,,,NaN,,,,,,false,,,,598765,598765,,598765,,598794,8,400,,,
sequence,flow.Sequence,4_122,2023-10-31T00:52:42.258Z,,0,,,2988,completion,,,,,false,,,,598765,598765,595761,595747,595777,598794,8,400,,,
trial,html.Screen,4_123_0,2023-10-31T00:52:45.047Z,,0,3,,2777,response,ISIC_7830756.JPG,5,ISIC_4890201.JPG,ISIC_7830756.JPG,false,1,keypress(m),500,601554,601554,598777,598765,598794,601577,8,400,24,,ISIC_4890201.JPG
break,html.Screen,4_123_1,2023-10-31T00:52:45.048Z,,0,,,NaN,,,,,,false,,,,601555.0000000001,601555.0000000001,,601554,,601577,8,400,,,
break_continue,html.Screen,4_123_2,2023-10-31T00:52:45.048Z,,0,,,NaN,,,,,,false,,,,601555.0000000001,601555.0000000001,,601555.0000000001,,601577,8,400,,,
sequence,flow.Sequence,4_123,2023-10-31T00:52:45.048Z,,0,,,2761.0000000001164,completion,,,,,false,,,,601555.0000000001,601555.0000000001,598777,598765,598794,601577,8,400,,,
trial,html.Screen,4_124_0,2023-10-31T00:52:47.769Z,,0,3,,2716.0000000001164,response,ISIC_0027265.JPG,7,ISIC_0033679.JPG,ISIC_0033679.JPG,false,0,keypress(z),500,604277,604276.0000000001,601560,601555.0000000001,601577,604310,8,400,25,,ISIC_0027265.JPG
break,html.Screen,4_124_1,2023-10-31T00:52:47.770Z,,0,,,NaN,,,,,,false,,,,604277,604277,,604277,,604310,8,400,,,
break_continue,html.Screen,4_124_2,2023-10-31T00:52:47.770Z,,0,,,NaN,,,,,,false,,,,604277,604277,,604277,,604310,8,400,,,
sequence,flow.Sequence,4_124,2023-10-31T00:52:47.770Z,,0,,,2700,completion,,,,,false,,,,604277,604277,601560,601555.0000000001,601577,604310,8,400,,,
trial,html.Screen,4_125_0,2023-10-31T00:52:50.574Z,,0,3,,2786,response,ISIC_7190243.JPG,10,ISIC_0231167.JPG,ISIC_0231167.JPG,false,0,keypress(z),500,607081,607080,604294,604278,604310,607110,8,400,26,,ISIC_7190243.JPG
break,html.Screen,4_125_1,2023-10-31T00:52:50.574Z,,0,,,NaN,,,,,,false,,,,607081,607081,,607081,,607110,8,400,,,
break_continue,html.Screen,4_125_2,2023-10-31T00:52:50.574Z,,0,,,NaN,,,,,,false,,,,607081,607081,,607081,,607110,8,400,,,
sequence,flow.Sequence,4_125,2023-10-31T00:52:50.574Z,,0,,,2771,completion,,,,,false,,,,607081,607081,604294,604278,604310,607110,8,400,,,
trial,html.Screen,4_126_0,2023-10-31T00:52:53.418Z,,0,3,,2831.0000000001164,response,ISIC_6633906.JPG,8,ISIC_0029740.JPG,ISIC_6633906.JPG,false,1,keypress(m),500,609925.0000000001,609925.0000000001,607094,607082,607110,609960,8,400,27,,ISIC_0029740.JPG
break,html.Screen,4_126_1,2023-10-31T00:52:53.419Z,,0,,,NaN,,,,,,false,,,,609926,609926,,609925.0000000001,,609960,8,400,,,
break_continue,html.Screen,4_126_2,2023-10-31T00:52:53.419Z,,0,,,NaN,,,,,,false,,,,609926,609926,,609926,,609960,8,400,,,
sequence,flow.Sequence,4_126,2023-10-31T00:52:53.419Z,,0,,,2816,completion,,,,,false,,,,609926,609926,607094,607081,607110,609960,8,400,,,
trial,html.Screen,4_127_0,2023-10-31T00:52:56.834Z,,0,3,,3398,response,ISIC_8255784.JPG,14,ISIC_7901891.JPG,ISIC_7901891.JPG,false,0,keypress(z),500,613341,613341,609943,609926,609960,613376,8,400,28,,ISIC_8255784.JPG
break,html.Screen,4_127_1,2023-10-31T00:52:56.835Z,,0,,,NaN,,,,,,false,,,,613342,613342,,613341,,613376,8,400,,,
break_continue,html.Screen,4_127_2,2023-10-31T00:52:56.835Z,,0,,,NaN,,,,,,false,,,,613342,613342,,613342,,613376,8,400,,,
sequence,flow.Sequence,4_127,2023-10-31T00:52:56.835Z,,0,,,3382,completion,,,,,false,,,,613342,613342,609943,609926,609960,613376,8,400,,,
trial,html.Screen,4_128_0,2023-10-31T00:52:59.941Z,,0,3,,3089,response,ISIC_7208412.JPG,1,ISIC_0071733.JPG,ISIC_7208412.JPG,false,1,keypress(m),500,616448,616448,613359,613342,613376,616476,8,400,29,,ISIC_0071733.JPG
break,html.Screen,4_128_1,2023-10-31T00:52:59.942Z,,0,,,NaN,,,,,,false,,,,616449.0000000001,616449.0000000001,,616448,,616476,8,400,,,
break_continue,html.Screen,4_128_2,2023-10-31T00:52:59.942Z,,0,,,NaN,,,,,,false,,,,616449.0000000001,616449.0000000001,,616449.0000000001,,616476,8,400,,,
sequence,flow.Sequence,4_128,2023-10-31T00:52:59.942Z,,0,,,3073.0000000001164,completion,,,,,false,,,,616449.0000000001,616449.0000000001,613359,613342,613376,616476,8,400,,,
trial,html.Screen,4_129_0,2023-10-31T00:53:03.137Z,,0,3,,3184,response,ISIC_5029636.JPG,11,ISIC_0975874.JPG,ISIC_5029636.JPG,false,1,keypress(m),500,619644,619644,616460,616449.0000000001,616476,619676,8,400,30,,ISIC_0975874.JPG
break,html.Screen,4_129_1,2023-10-31T00:53:03.138Z,,0,,,NaN,,,,,,false,,,,619645,619645,,619644,,619676,8,400,,,
break_continue,html.Screen,4_129_2,2023-10-31T00:53:03.138Z,,0,,,NaN,,,,,,false,,,,619645,619645,,619645,,619676,8,400,,,
sequence,flow.Sequence,4_129,2023-10-31T00:53:03.138Z,,0,,,3169,completion,,,,,false,,,,619645,619645,616460,616449.0000000001,616476,619676,8,400,,,
trial,html.Screen,4_130_0,2023-10-31T00:53:05.758Z,,0,3,,2605,response,ISIC_0031204.JPG,17,ISIC_9119549.JPG,ISIC_9119549.JPG,false,0,keypress(z),500,622265,622265,619660,619645,619676,622293,8,400,31,,ISIC_0031204.JPG
break,html.Screen,4_130_1,2023-10-31T00:53:05.759Z,,0,,,NaN,,,,,,false,,,,622266,622266,,622265,,622293,8,400,,,
break_continue,html.Screen,4_130_2,2023-10-31T00:53:05.759Z,,0,,,NaN,,,,,,false,,,,622266,622266,,622266,,622293,8,400,,,
sequence,flow.Sequence,4_130,2023-10-31T00:53:05.759Z,,0,,,2590,completion,,,,,false,,,,622266,622266,619660,619645,619676,622293,8,400,,,
trial,html.Screen,4_131_0,2023-10-31T00:53:08.646Z,,0,3,,2876,response,ISIC_0033771.JPG,5,ISIC_0033830.JPG,ISIC_0033771.JPG,false,1,keypress(m),500,625153,625153,622277,622266,622293,625176,8,400,32,,ISIC_0033830.JPG
break,html.Screen,4_131_1,2023-10-31T00:53:08.649Z,,0,,,NaN,,,,,,false,,,,625156.0000000001,625156.0000000001,,625155,,625176,8,400,,,
break_continue,html.Screen,4_131_2,2023-10-31T00:53:08.649Z,,0,,,NaN,,,,,,false,,,,625156.0000000001,625156.0000000001,,625156.0000000001,,625176,8,400,,,
sequence,flow.Sequence,4_131,2023-10-31T00:53:08.649Z,,0,,,2863.0000000001164,completion,,,,,false,,,,625156.0000000001,625156.0000000001,622277,622266,622293,625176,8,400,,,
trial,html.Screen,4_132_0,2023-10-31T00:53:11.448Z,,0,3,,2796,response,ISIC_0062468.JPG,6,ISIC_0069411.JPG,ISIC_0062468.JPG,false,1,keypress(m),500,627955,627955,625159,625156.0000000001,625176,627976,8,400,33,,ISIC_0069411.JPG
break,html.Screen,4_132_1,2023-10-31T00:53:11.449Z,,0,,,NaN,,,,,,false,,,,627956,627956,,627955,,627976,8,400,,,
break_continue,html.Screen,4_132_2,2023-10-31T00:53:11.449Z,,0,,,NaN,,,,,,false,,,,627956,627956,,627956,,627976,8,400,,,
sequence,flow.Sequence,4_132,2023-10-31T00:53:11.449Z,,0,,,2780,completion,,,,,false,,,,627956,627956,625159,625156.0000000001,625176,627976,8,400,,,
trial,html.Screen,4_133_0,2023-10-31T00:53:14.378Z,,0,3,,2926,response,ISIC_7287540.JPG,10,ISIC_0000148.JPG,ISIC_7287540.JPG,false,1,keypress(m),500,630885,630885,627959,627956,627976,630910,8,400,34,,ISIC_0000148.JPG
break,html.Screen,4_133_1,2023-10-31T00:53:14.379Z,,0,,,NaN,,,,,,false,,,,630885,630885,,630885,,630910,8,400,,,
break_continue,html.Screen,4_133_2,2023-10-31T00:53:14.379Z,,0,,,NaN,,,,,,false,,,,630886,630886,,630885,,630910,8,400,,,
sequence,flow.Sequence,4_133,2023-10-31T00:53:14.379Z,,0,,,2910,completion,,,,,false,,,,630886,630886,627959,627956,627976,630910,8,400,,,
trial,html.Screen,4_134_0,2023-10-31T00:53:16.984Z,,0,3,,2597,response,ISIC_0032112.JPG,4,ISIC_8647900.JPG,ISIC_8647900.JPG,false,0,keypress(z),500,633490,633490,630893,630886,630910,633527,8,400,35,,ISIC_0032112.JPG
break,html.Screen,4_134_1,2023-10-31T00:53:16.984Z,,0,,,NaN,,,,,,false,,,,633491,633491,,633491,,633527,8,400,,,
break_continue,html.Screen,4_134_2,2023-10-31T00:53:16.984Z,,0,,,NaN,,,,,,false,,,,633491,633491,,633491,,633527,8,400,,,
sequence,flow.Sequence,4_134,2023-10-31T00:53:16.984Z,,0,,,2581,completion,,,,,false,,,,633491,633491,630893,630886,630910,633527,8,400,,,
trial,html.Screen,4_135_0,2023-10-31T00:53:19.622Z,,0,3,,2619,response,ISIC_9030482.JPG,10,ISIC_0060716.JPG,ISIC_9030482.JPG,false,1,keypress(m),500,636129,636128,633509,633491,633527,636160,8,400,36,,ISIC_0060716.JPG
break,html.Screen,4_135_1,2023-10-31T00:53:19.622Z,,0,,,NaN,,,,,,false,,,,636129,636129,,636129,,636160,8,400,,,
break_continue,html.Screen,4_135_2,2023-10-31T00:53:19.622Z,,0,,,NaN,,,,,,false,,,,636129,636129,,636129,,636160,8,400,,,
sequence,flow.Sequence,4_135,2023-10-31T00:53:19.622Z,,0,,,2602,completion,,,,,false,,,,636129,636129,633509,633491,633527,636160,8,400,,,
trial,html.Screen,4_136_0,2023-10-31T00:53:22.533Z,,0,3,,2897,response,ISIC_9596721.JPG,10,ISIC_0009913.JPG,ISIC_0009913.JPG,false,0,keypress(z),500,639040,639040,636143,636129,636160,639076,8,400,37,,ISIC_9596721.JPG
break,html.Screen,4_136_1,2023-10-31T00:53:22.534Z,,0,,,NaN,,,,,,false,,,,639041,639041,,639040,,639076,8,400,,,
break_continue,html.Screen,4_136_2,2023-10-31T00:53:22.534Z,,0,,,NaN,,,,,,false,,,,639041,639041,,639041,,639076,8,400,,,
sequence,flow.Sequence,4_136,2023-10-31T00:53:22.534Z,,0,,,2881,completion,,,,,false,,,,639041,639041,636143,636129,636160,639076,8,400,,,
trial,html.Screen,4_137_0,2023-10-31T00:53:25.179Z,,0,3,,2627,response,ISIC_0014501.JPG,3,ISIC_6423860.JPG,ISIC_0014501.JPG,false,1,keypress(m),500,641686,641686,639059,639041,639076,641709,8,400,38,,ISIC_6423860.JPG
break,html.Screen,4_137_1,2023-10-31T00:53:25.179Z,,0,,,NaN,,,,,,false,,,,641686,641686,,641686,,641709,8,400,,,
break_continue,html.Screen,4_137_2,2023-10-31T00:53:25.180Z,,0,,,NaN,,,,,,false,,,,641686,641686,,641686,,641709,8,400,,,
sequence,flow.Sequence,4_137,2023-10-31T00:53:25.180Z,,0,,,2610,completion,,,,,false,,,,641686,641686,639059,639041,639076,641709,8,400,,,
trial,html.Screen,4_138_0,2023-10-31T00:53:27.845Z,,0,3,,2658,response,ISIC_0010765.JPG,9,ISIC_0027359.JPG,ISIC_0027359.JPG,false,0,keypress(z),500,644352,644351,641693,641686,641709,644376,8,400,39,,ISIC_0010765.JPG
break,html.Screen,4_138_1,2023-10-31T00:53:27.845Z,,0,,,NaN,,,,,,false,,,,644352,644352,,644352,,644376,8,400,,,
break_continue,html.Screen,4_138_2,2023-10-31T00:53:27.846Z,,0,,,NaN,,,,,,false,,,,644352,644352,,644352,,644376,8,400,,,
sequence,flow.Sequence,4_138,2023-10-31T00:53:27.846Z,,0,,,2643,completion,,,,,false,,,,644352,644352,641693,641686,641709,644376,8,400,,,
trial,html.Screen,4_139_0,2023-10-31T00:53:30.180Z,,0,3,,2327,response,ISIC_5832901.JPG,11,ISIC_0028465.JPG,ISIC_5832901.JPG,false,1,keypress(m),500,646687,646687,644360,644352,644376,646709,8,400,40,,ISIC_0028465.JPG
break,html.Screen,4_139_1,2023-10-31T00:53:30.181Z,,0,,,NaN,,,,,,false,,,,646687,646687,,646687,,646709,8,400,,,
break_continue,html.Screen,4_139_2,2023-10-31T00:53:30.181Z,,0,,,NaN,,,,,,false,,,,646688,646688,,646688,,646709,8,400,,,
sequence,flow.Sequence,4_139,2023-10-31T00:53:30.181Z,,0,,,2312,completion,,,,,false,,,,646688,646688,644360,644352,644376,646709,8,400,,,
trial,html.Screen,4_140_0,2023-10-31T00:53:32.909Z,,0,3,,2722,response,ISIC_9155855.JPG,8,ISIC_1216698.JPG,ISIC_9155855.JPG,false,1,keypress(m),500,649415,649415,646693,646688,646709,649442,8,400,41,,ISIC_1216698.JPG
break,html.Screen,4_140_1,2023-10-31T00:53:32.909Z,,0,,,NaN,,,,,,false,,,,649416,649416,,649416,,649442,8,400,,,
break_continue,html.Screen,4_140_2,2023-10-31T00:53:32.909Z,,0,,,NaN,,,,,,false,,,,649416,649416,,649416,,649442,8,400,,,
sequence,flow.Sequence,4_140,2023-10-31T00:53:32.910Z,,0,,,2707,completion,,,,,false,,,,649416,649416,646693,646688,646709,649442,8,400,,,
trial,html.Screen,4_141_0,2023-10-31T00:53:36.709Z,,0,3,,3790,response,ISIC_2957732.JPG,2,ISIC_7139908.JPG,ISIC_7139908.JPG,false,0,keypress(z),500,653216,653216,649426,649417,649442,653242,8,400,42,,ISIC_2957732.JPG
break,html.Screen,4_141_1,2023-10-31T00:53:36.710Z,,0,,,NaN,,,,,,false,,,,653216,653216,,653216,,653242,8,400,,,
break_continue,html.Screen,4_141_2,2023-10-31T00:53:36.710Z,,0,,,NaN,,,,,,false,,,,653217,653217,,653217,,653242,8,400,,,
sequence,flow.Sequence,4_141,2023-10-31T00:53:36.710Z,,0,,,3775,completion,,,,,false,,,,653217,653217,649426,649416,649442,653242,8,400,,,
trial,html.Screen,4_142_0,2023-10-31T00:53:38.894Z,,0,3,,2174,response,ISIC_0024512.JPG,11,ISIC_0011698.JPG,ISIC_0011698.JPG,false,0,keypress(z),500,655400,655400,653226,653217,653242,655426,8,400,43,,ISIC_0024512.JPG
break,html.Screen,4_142_1,2023-10-31T00:53:38.894Z,,0,,,NaN,,,,,,false,,,,655401.0000000001,655401.0000000001,,655401.0000000001,,655426,8,400,,,
break_continue,html.Screen,4_142_2,2023-10-31T00:53:38.895Z,,0,,,NaN,,,,,,false,,,,655401.0000000001,655401.0000000001,,655401.0000000001,,655426,8,400,,,
sequence,flow.Sequence,4_142,2023-10-31T00:53:38.895Z,,0,,,2159.0000000001164,completion,,,,,false,,,,655401.0000000001,655401.0000000001,653226,653217,653242,655426,8,400,,,
trial,html.Screen,4_143_0,2023-10-31T00:53:41.634Z,,0,3,,2730,response,ISIC_0034311.JPG,9,ISIC_0070074.JPG,ISIC_0034311.JPG,false,1,keypress(m),500,658141,658140,655410,655401.0000000001,655426,658176,8,400,44,,ISIC_0070074.JPG
break,html.Screen,4_143_1,2023-10-31T00:53:41.634Z,,0,,,NaN,,,,,,false,,,,658141,658141,,658141,,658176,8,400,,,
break_continue,html.Screen,4_143_2,2023-10-31T00:53:41.634Z,,0,,,NaN,,,,,,false,,,,658141,658141,,658141,,658176,8,400,,,
sequence,flow.Sequence,4_143,2023-10-31T00:53:41.635Z,,0,,,2715,completion,,,,,false,,,,658141,658141,655410,655401.0000000001,655426,658176,8,400,,,
trial,html.Screen,4_144_0,2023-10-31T00:53:44.817Z,,0,3,,3165.0000000001164,response,ISIC_0071826.JPG,4,ISIC_0059808.JPG,ISIC_0071826.JPG,false,1,keypress(m),500,661324.0000000001,661324.0000000001,658159,658141,658176,661359,8,400,45,,ISIC_0059808.JPG
break,html.Screen,4_144_1,2023-10-31T00:53:44.818Z,,0,,,NaN,,,,,,false,,,,661324.0000000001,661324.0000000001,,661324.0000000001,,661359,8,400,,,
break_continue,html.Screen,4_144_2,2023-10-31T00:53:44.818Z,,0,,,NaN,,,,,,false,,,,661325,661325,,661325,,661359,8,400,,,
sequence,flow.Sequence,4_144,2023-10-31T00:53:44.818Z,,0,,,3149,completion,,,,,false,,,,661325,661325,658159,658141,658176,661359,8,400,,,
trial,html.Screen,4_145_0,2023-10-31T00:53:47.860Z,,0,3,,3024,response,ISIC_5312710.JPG,5,ISIC_7110531.JPG,ISIC_5312710.JPG,false,1,keypress(m),500,664367,664367,661343,661325,661359,664393,8,400,46,,ISIC_7110531.JPG
break,html.Screen,4_145_1,2023-10-31T00:53:47.861Z,,0,,,NaN,,,,,,false,,,,664367,664367,,664367,,664393,8,400,,,
break_continue,html.Screen,4_145_2,2023-10-31T00:53:47.861Z,,0,,,NaN,,,,,,false,,,,664368,664368,,664367,,664393,8,400,,,
sequence,flow.Sequence,4_145,2023-10-31T00:53:47.861Z,,0,,,3009,completion,,,,,false,,,,664368,664368,661343,661325,661359,664393,8,400,,,
trial,html.Screen,4_146_0,2023-10-31T00:53:51.842Z,,0,3,,3972.0000000001164,response,ISIC_8065633.JPG,9,ISIC_0054334.JPG,ISIC_8065633.JPG,false,1,keypress(m),500,668348.0000000001,668348.0000000001,664376,664368,664393,668376,8,400,47,,ISIC_0054334.JPG
break,html.Screen,4_146_1,2023-10-31T00:53:51.842Z,,0,,,NaN,,,,,,false,,,,668349,668349,,668348.0000000001,,668376,8,400,,,
break_continue,html.Screen,4_146_2,2023-10-31T00:53:51.842Z,,0,,,NaN,,,,,,false,,,,668349,668349,,668349,,668376,8,400,,,
sequence,flow.Sequence,4_146,2023-10-31T00:53:51.843Z,,0,,,3956,completion,,,,,false,,,,668349,668349,664376,664368,664393,668376,8,400,,,
trial,html.Screen,4_147_0,2023-10-31T00:53:55.078Z,,0,3,,3225.0000000001164,response,ISIC_6771810.JPG,12,ISIC_6393611.JPG,ISIC_6771810.JPG,false,1,keypress(m),500,671584.0000000001,671584.0000000001,668359,668349,668376,671608,8,400,48,,ISIC_6393611.JPG
break,html.Screen,4_147_1,2023-10-31T00:53:55.078Z,,0,,,NaN,,,,,,false,,,,671585,671585,,671584.0000000001,,671608,8,400,,,
break_continue,html.Screen,4_147_2,2023-10-31T00:53:55.078Z,,0,,,NaN,,,,,,false,,,,671585,671585,,671585,,671608,8,400,,,
sequence,flow.Sequence,4_147,2023-10-31T00:53:55.078Z,,0,,,3209,completion,,,,,false,,,,671585,671585,668359,668349,668376,671608,8,400,,,
trial,html.Screen,4_148_0,2023-10-31T00:53:58.044Z,,0,3,,2957.0000000001164,response,ISIC_8325260.JPG,6,ISIC_0012048.JPG,ISIC_8325260.JPG,false,1,keypress(m),500,674550.0000000001,674550.0000000001,671593,671585,671608,674575,8,400,49,,ISIC_0012048.JPG
break,html.Screen,4_148_1,2023-10-31T00:53:58.044Z,,0,,,NaN,,,,,,false,,,,674551,674550.0000000001,,674550.0000000001,,674575,8,400,,,
break_continue,html.Screen,4_148_2,2023-10-31T00:53:58.044Z,,0,,,NaN,,,,,,false,,,,674551,674551,,674551,,674575,8,400,,,
sequence,flow.Sequence,4_148,2023-10-31T00:53:58.044Z,,0,,,2943,completion,,,,,false,,,,674551,674551,671593,671585,671608,674575,8,400,,,
trial,html.Screen,4_149_0,2023-10-31T00:54:00.820Z,,0,3,,2767,response,ISIC_0030255.JPG,9,ISIC_8436194.JPG,ISIC_8436194.JPG,false,0,keypress(z),500,677326,677326,674559,674551,674575,677359,8,400,50,,ISIC_0030255.JPG
break,html.Screen,4_149_1,2023-10-31T00:54:10.836Z,,0,,,10000,timeout,,,,,false,,,,687343,687342,677342,677326,677359,687359,8,400,,,
break_continue,html.Screen,4_149_2,2023-10-31T00:54:14.399Z,,0,,,3529,response,,,,,false,continue,keypress(Space),,690905,690871,687342,687343,687359,690942,8,400,,,
sequence,flow.Sequence,4_149,2023-10-31T00:54:14.399Z,,0,,,16296,completion,,,,,false,,,,690905,690871,674559,674551,674575,690942,8,400,,,
trial,html.Screen,4_150_0,2023-10-31T00:54:18.729Z,,0,4,,4310,response,ISIC_2380341.JPG,10,ISIC_0062712.JPG,ISIC_2380341.JPG,false,1,keypress(m),500,695235,695235,690925,690905,690942,695258,8,400,1,,ISIC_0062712.JPG
break,html.Screen,4_150_1,2023-10-31T00:54:18.729Z,,0,,,NaN,,,,,,false,,,,695235,695235,,695235,,695258,8,400,,,
break_continue,html.Screen,4_150_2,2023-10-31T00:54:18.729Z,,0,,,NaN,,,,,,false,,,,695236,695236,,695236,,695258,8,400,,,
sequence,flow.Sequence,4_150,2023-10-31T00:54:18.730Z,,0,,,4294,completion,,,,,false,,,,695236,695236,690925,690905,690942,695258,8,400,,,
trial,html.Screen,4_151_0,2023-10-31T00:54:22.043Z,,0,4,,3307,response,ISIC_0010174.JPG,9,ISIC_7284399.JPG,ISIC_0010174.JPG,false,1,keypress(m),500,698549,698549,695242,695236,695258,698576,8,400,2,,ISIC_7284399.JPG
break,html.Screen,4_151_1,2023-10-31T00:54:22.043Z,,0,,,NaN,,,,,,false,,,,698550.0000000001,698550.0000000001,,698549,,698576,8,400,,,
break_continue,html.Screen,4_151_2,2023-10-31T00:54:22.044Z,,0,,,NaN,,,,,,false,,,,698550.0000000001,698550.0000000001,,698550.0000000001,,698576,8,400,,,
sequence,flow.Sequence,4_151,2023-10-31T00:54:22.044Z,,0,,,3292.0000000001164,completion,,,,,false,,,,698550.0000000001,698550.0000000001,695242,695236,695258,698576,8,400,,,
trial,html.Screen,4_152_0,2023-10-31T00:54:25.170Z,,0,4,,3117,response,ISIC_0015005.JPG,12,ISIC_0030563.JPG,ISIC_0015005.JPG,false,1,keypress(m),500,701676,701676,698559,698550.0000000001,698576,701708,8,400,3,,ISIC_0030563.JPG
break,html.Screen,4_152_1,2023-10-31T00:54:25.170Z,,0,,,NaN,,,,,,false,,,,701677,701676,,701676,,701708,8,400,,,
break_continue,html.Screen,4_152_2,2023-10-31T00:54:25.170Z,,0,,,NaN,,,,,,false,,,,701677,701677,,701677,,701708,8,400,,,
sequence,flow.Sequence,4_152,2023-10-31T00:54:25.171Z,,0,,,3101,completion,,,,,false,,,,701677,701677,698559,698550.0000000001,698576,701708,8,400,,,
trial,html.Screen,4_153_0,2023-10-31T00:54:28.298Z,,0,4,,3112,response,ISIC_0030235.JPG,13,ISIC_0799535.JPG,ISIC_0799535.JPG,false,0,keypress(z),500,704804,704804,701692,701677,701708,704825,8,400,4,,ISIC_0030235.JPG
break,html.Screen,4_153_1,2023-10-31T00:54:28.299Z,,0,,,NaN,,,,,,false,,,,704805.0000000001,704805.0000000001,,704804,,704825,8,400,,,
break_continue,html.Screen,4_153_2,2023-10-31T00:54:28.299Z,,0,,,NaN,,,,,,false,,,,704805.0000000001,704805.0000000001,,704805.0000000001,,704825,8,400,,,
sequence,flow.Sequence,4_153,2023-10-31T00:54:28.299Z,,0,,,3097.0000000001164,completion,,,,,false,,,,704805.0000000001,704805.0000000001,701692,701677,701708,704825,8,400,,,
trial,html.Screen,4_154_0,2023-10-31T00:54:31.251Z,,0,4,,2949.0000000001164,response,ISIC_0010934.JPG,5,ISIC_0058909.JPG,ISIC_0058909.JPG,false,0,keypress(z),500,707757.0000000001,707757.0000000001,704808,704805.0000000001,704825,707791,8,400,5,,ISIC_0010934.JPG
break,html.Screen,4_154_1,2023-10-31T00:54:31.251Z,,0,,,NaN,,,,,,false,,,,707757.0000000001,707757.0000000001,,707757.0000000001,,707791,8,400,,,
break_continue,html.Screen,4_154_2,2023-10-31T00:54:31.251Z,,0,,,NaN,,,,,,false,,,,707757.0000000001,707757.0000000001,,707757.0000000001,,707791,8,400,,,
sequence,flow.Sequence,4_154,2023-10-31T00:54:31.251Z,,0,,,2932.0000000001164,completion,,,,,false,,,,707758,707757.0000000001,704808,704805.0000000001,704825,707791,8,400,,,
trial,html.Screen,4_155_0,2023-10-31T00:54:33.981Z,,0,4,,2712,response,ISIC_0000074.JPG,8,ISIC_0067905.JPG,ISIC_0067905.JPG,false,0,keypress(z),500,710487,710487,707775,707758,707791,710508,8,400,6,,ISIC_0000074.JPG
break,html.Screen,4_155_1,2023-10-31T00:54:33.982Z,,0,,,NaN,,,,,,false,,,,710488,710488,,710487,,710508,8,400,,,
break_continue,html.Screen,4_155_2,2023-10-31T00:54:33.982Z,,0,,,NaN,,,,,,false,,,,710488,710488,,710488,,710508,8,400,,,
sequence,flow.Sequence,4_155,2023-10-31T00:54:33.982Z,,0,,,2697,completion,,,,,false,,,,710488,710488,707775,707758,707791,710508,8,400,,,
trial,html.Screen,4_156_0,2023-10-31T00:54:36.843Z,,0,4,,2857,response,ISIC_0014469.JPG,8,ISIC_5980439.JPG,ISIC_0014469.JPG,false,1,keypress(m),500,713349,713349,710492,710488,710508,713375,8,400,7,,ISIC_5980439.JPG
break,html.Screen,4_156_1,2023-10-31T00:54:36.843Z,,0,,,NaN,,,,,,false,,,,713350,713349,,713349,,713375,8,400,,,
break_continue,html.Screen,4_156_2,2023-10-31T00:54:36.844Z,,0,,,NaN,,,,,,false,,,,713350,713350,,713350,,713375,8,400,,,
sequence,flow.Sequence,4_156,2023-10-31T00:54:36.844Z,,0,,,2842,completion,,,,,false,,,,713350,713350,710492,710488,710508,713375,8,400,,,
