"","pID","condition","block_no","trial_no","stimulus","response","correct","rt","age","gender"
"1",1,"ab",1,1,"hl","lh",FALSE,8254.126,18,"female"
"2",1,"ab",1,2,"hh","hh",TRUE,2224.224,18,"female"
"3",1,"ab",1,3,"hh","hh",TRUE,4261.639,18,"female"
"4",1,"ab",1,4,"hl","ll",FALSE,3337.379,18,"female"
"5",1,"ab",1,5,"hh","hl",FALSE,9922.166,18,"female"
"6",1,"ab",1,6,"ll","hl",FALSE,6963.297,18,"female"
"7",1,"ab",1,7,"lh","hl",FALSE,3562.543,18,"female"
"8",1,"ab",1,8,"ll","lh",FALSE,4346.916,18,"female"
"9",1,"ab",1,9,"ll","hh",FALSE,3961.91,18,"female"
"10",1,"ab",1,10,"hh","hl",FALSE,4090.138,18,"female"
"11",1,"ab",1,11,"hh","hh",TRUE,8420.023,18,"female"
"12",1,"ab",1,12,"hh","hh",TRUE,2050.464,18,"female"
"13",1,"ab",1,13,"lh","ll",FALSE,2366.33,18,"female"
"14",1,"ab",1,14,"hh","hh",TRUE,1196.912,18,"female"
"15",1,"ab",1,15,"hl","hh",FALSE,4698.667,18,"female"
"16",1,"ab",1,16,"lh","hh",FALSE,2541.649,18,"female"
"17",1,"ab",1,17,"lh","hh",FALSE,3798.358,18,"female"
"18",1,"ab",1,18,"ll","ll",TRUE,5131.586,18,"female"
"19",1,"ab",1,19,"lh","ll",FALSE,3916.425,18,"female"
"20",1,"ab",1,20,"hh","hh",TRUE,5262.069,18,"female"
"21",1,"ab",1,21,"hh","lh",FALSE,5690.281,18,"female"
"22",1,"ab",1,22,"ll","hh",FALSE,8149.08,18,"female"
"23",1,"ab",1,23,"ll","ll",TRUE,2716.56,18,"female"
"24",1,"ab",1,24,"lh","hh",FALSE,2206.24,18,"female"
"25",1,"ab",1,25,"hh","hh",TRUE,3892.171,18,"female"
"26",1,"ab",1,26,"hh","hh",TRUE,3238.744,18,"female"
"27",1,"ab",1,27,"hh","hh",TRUE,3155.304,18,"female"
"28",1,"ab",1,28,"hl","hl",TRUE,8882.603,18,"female"
"29",1,"ab",1,29,"hl","hl",TRUE,4270.226,18,"female"
"30",1,"ab",1,30,"hl","ll",FALSE,3968.938,18,"female"
"31",1,"ab",1,31,"ll","lh",FALSE,5696.4,18,"female"
"32",1,"ab",1,32,"hl","hh",FALSE,3403.551,18,"female"
"33",1,"ab",1,33,"hl","hh",FALSE,2401.364,18,"female"
"34",1,"ab",1,34,"lh","lh",TRUE,5823.279,18,"female"
"35",1,"ab",1,35,"hl","hh",FALSE,3028.599,18,"female"
"36",1,"ab",1,36,"lh","ll",FALSE,2730.298,18,"female"
"37",1,"ab",1,37,"hl","ll",FALSE,1002.295,18,"female"
"38",1,"ab",1,38,"hl","ll",FALSE,9969.035,18,"female"
"39",1,"ab",1,39,"hh","hh",TRUE,3038.812,18,"female"
"40",1,"ab",1,40,"hl","ll",FALSE,8437.049,18,"female"
"41",1,"ab",1,41,"lh","ll",FALSE,3489.864,18,"female"
"42",1,"ab",1,42,"lh","ll",FALSE,6068.389,18,"female"
"43",1,"ab",1,43,"hh","hh",TRUE,1839.406,18,"female"
"44",1,"ab",1,44,"lh","ll",FALSE,2132.272,18,"female"
"45",1,"ab",1,45,"lh","ll",FALSE,1468.501,18,"female"
"46",1,"ab",1,46,"lh","ll",FALSE,4752.032,18,"female"
"47",1,"ab",1,47,"lh","ll",FALSE,3760.118,18,"female"
"48",1,"ab",1,48,"lh","ll",FALSE,2104.148,18,"female"
"49",1,"ab",1,49,"lh","ll",FALSE,4994.395,18,"female"
"50",1,"ab",1,50,"lh","hh",FALSE,5721.101,18,"female"
"51",1,"ab",1,51,"hh","hh",TRUE,2017.953,18,"female"
"52",1,"ab",1,52,"hh","hh",TRUE,2558.498,18,"female"
"53",1,"ab",1,53,"hh","hh",TRUE,3079.509,18,"female"
"54",1,"ab",1,54,"lh","lh",TRUE,7579.015,18,"female"
"55",1,"ab",1,55,"hl","hh",FALSE,6922.087,18,"female"
"56",1,"ab",1,56,"hl","hh",FALSE,3891.544,18,"female"
"57",1,"ab",1,57,"ll","ll",TRUE,1717.568,18,"female"
"58",1,"ab",1,58,"ll","ll",TRUE,2927.053,18,"female"
"59",1,"ab",1,59,"ll","ll",TRUE,1736.75,18,"female"
"60",1,"ab",1,60,"hh","ll",FALSE,1633.504,18,"female"
"61",1,"ab",1,61,"hl","hh",FALSE,1997.956,18,"female"
"62",1,"ab",1,62,"hh","hh",TRUE,2027.611,18,"female"
"63",1,"ab",1,63,"hh","hh",TRUE,7145.322,18,"female"
"64",1,"ab",1,64,"lh","ll",FALSE,1449.905,18,"female"
"65",1,"ab",1,65,"hh","hh",TRUE,4238.193,18,"female"
"66",1,"ab",1,66,"hh","hh",TRUE,1826.975,18,"female"
"67",1,"ab",1,67,"hh","hh",TRUE,1528.2,18,"female"
"68",1,"ab",1,68,"lh","hl",FALSE,6041.651,18,"female"
"69",1,"ab",1,69,"lh","ll",FALSE,8342.421,18,"female"
"70",1,"ab",1,70,"lh","ll",FALSE,2117.999,18,"female"
"71",1,"ab",1,71,"hl","hh",FALSE,2384.328,18,"female"
"72",1,"ab",1,72,"hl","ll",FALSE,2014.635,18,"female"
"73",1,"ab",1,73,"hl","hh",FALSE,1404.444,18,"female"
"74",1,"ab",1,74,"hh","lh",FALSE,5538.057,18,"female"
"75",1,"ab",1,75,"lh","hl",FALSE,4226.987,18,"female"
"76",1,"ab",1,76,"ll","ll",TRUE,8312.37,18,"female"
"77",1,"ab",1,77,"ll","ll",TRUE,4121.943,18,"female"
"78",1,"ab",1,78,"hh","lh",FALSE,7299.037,18,"female"
"79",1,"ab",1,79,"lh","hh",FALSE,7293.009,18,"female"
"80",1,"ab",1,80,"hl","ll",FALSE,2152.575,18,"female"
"81",1,"ab",1,81,"hl","lh",FALSE,8032.179,18,"female"
"82",1,"ab",1,82,"lh","ll",FALSE,3644.676,18,"female"
"83",1,"ab",1,83,"ll","ll",TRUE,2249.248,18,"female"
"84",1,"ab",1,84,"hh","hh",TRUE,1373.21,18,"female"
"85",1,"ab",1,85,"hh","hh",TRUE,3268.971,18,"female"
"86",1,"ab",1,86,"hl","hh",FALSE,10944.234,18,"female"
"87",1,"ab",1,87,"hh","hh",TRUE,2360.942,18,"female"
"88",1,"ab",1,88,"ll","ll",TRUE,5672.811,18,"female"
"89",1,"ab",1,89,"lh","ll",FALSE,6210.931,18,"female"
"90",1,"ab",1,90,"hl","ll",FALSE,1481.418,18,"female"
"91",1,"ab",1,91,"ll","ll",TRUE,5804.191,18,"female"
"92",1,"ab",1,92,"ll","ll",TRUE,1570.004,18,"female"
"93",1,"ab",1,93,"lh","hl",FALSE,5857.512,18,"female"
"94",1,"ab",1,94,"lh","ll",FALSE,9125.91,18,"female"
"95",1,"ab",1,95,"ll","ll",TRUE,6822.333,18,"female"
"96",1,"ab",1,96,"hl","lh",FALSE,3683.803,18,"female"
"97",1,"ab",1,97,"ll","ll",TRUE,8285.02,18,"female"
"98",1,"ab",1,98,"lh","lh",TRUE,4961.286,18,"female"
"99",1,"ab",1,99,"lh","ll",FALSE,3704.922,18,"female"
"100",1,"ab",1,100,"hl","lh",FALSE,5266.945,18,"female"
"101",1,"ab",1,101,"ll","ll",TRUE,4046.318,18,"female"
"102",1,"ab",1,102,"ll","ll",TRUE,7867.011,18,"female"
"103",1,"ab",1,103,"hh","hh",TRUE,4462.52,18,"female"
"104",1,"ab",1,104,"lh","ll",FALSE,4202.549,18,"female"
"105",1,"ab",1,105,"hh","hh",TRUE,1424.335,18,"female"
"106",1,"ab",1,106,"ll","hh",FALSE,6181.523,18,"female"
"107",1,"ab",1,107,"lh","hh",FALSE,1868.18,18,"female"
"108",1,"ab",1,108,"ll","ll",TRUE,1423.067,18,"female"
"109",1,"ab",1,109,"hl","hl",TRUE,11269.159,18,"female"
"110",1,"ab",1,110,"ll","ll",TRUE,3424.004,18,"female"
"111",1,"ab",1,111,"hl","hh",FALSE,3861.747,18,"female"
"112",1,"ab",1,112,"ll","ll",TRUE,4073.847,18,"female"
"113",1,"ab",1,113,"ll","ll",TRUE,2468.906,18,"female"
"114",1,"ab",1,114,"hl","hl",TRUE,7888.387,18,"female"
"115",1,"ab",1,115,"ll","ll",TRUE,1954.936,18,"female"
"116",1,"ab",1,116,"ll","hh",FALSE,1874.635,18,"female"
"117",1,"ab",1,117,"hl","hh",FALSE,2342.324,18,"female"
"118",1,"ab",1,118,"ll","lh",FALSE,6310.548,18,"female"
"119",1,"ab",1,119,"lh","ll",FALSE,1673.015,18,"female"
"120",1,"ab",1,120,"hl","ll",FALSE,4500.304,18,"female"
"121",1,"ab",2,1,"lh","ll",FALSE,6842.532,18,"female"
"122",1,"ab",2,2,"hh","hh",TRUE,1350.827,18,"female"
"123",1,"ab",2,3,"ll","ll",TRUE,3726.971,18,"female"
"124",1,"ab",2,4,"hh","hh",TRUE,1032.594,18,"female"
"125",1,"ab",2,5,"hh","hh",TRUE,2812.95,18,"female"
"126",1,"ab",2,6,"lh","hh",FALSE,3290.935,18,"female"
"127",1,"ab",2,7,"hh","hl",FALSE,9269.143,18,"female"
"128",1,"ab",2,8,"ll","hh",FALSE,6624.718,18,"female"
"129",1,"ab",2,9,"lh","hh",FALSE,3478.329,18,"female"
"130",1,"ab",2,10,"ll","lh",FALSE,13705.863,18,"female"
"131",1,"ab",2,11,"hl","hh",FALSE,2163.785,18,"female"
"132",1,"ab",2,12,"ll","ll",TRUE,2250.704,18,"female"
"133",1,"ab",2,13,"ll","ll",TRUE,8542.956,18,"female"
"134",1,"ab",2,14,"hh","hh",TRUE,2167.774,18,"female"
"135",1,"ab",2,15,"lh","ll",FALSE,2702.958,18,"female"
"136",1,"ab",2,16,"hh","lh",FALSE,8801.251,18,"female"
"137",1,"ab",2,17,"hh","hl",FALSE,5310.189,18,"female"
"138",1,"ab",2,18,"hl","hh",FALSE,6617.162,18,"female"
"139",1,"ab",2,19,"lh","ll",FALSE,4670.541,18,"female"
"140",1,"ab",2,20,"ll","ll",TRUE,4545.401,18,"female"
"141",1,"ab",2,21,"hl","hl",TRUE,6426.424,18,"female"
"142",1,"ab",2,22,"ll","ll",TRUE,2263.574,18,"female"
"143",1,"ab",2,23,"hl","ll",FALSE,9466.631,18,"female"
"144",1,"ab",2,24,"hh","hh",TRUE,1774.576,18,"female"
"145",1,"ab",2,25,"ll","ll",TRUE,4325.673,18,"female"
"146",1,"ab",2,26,"lh","hh",FALSE,2167.223,18,"female"
"147",1,"ab",2,27,"hl","hl",TRUE,9454.5,18,"female"
"148",1,"ab",2,28,"hh","hh",TRUE,3569.841,18,"female"
"149",1,"ab",2,29,"lh","hh",FALSE,1233.912,18,"female"
"150",1,"ab",2,30,"ll","ll",TRUE,1790.365,18,"female"
"151",1,"ab",2,31,"ll","ll",TRUE,2021.049,18,"female"
"152",1,"ab",2,32,"hh","hh",TRUE,1794.623,18,"female"
"153",1,"ab",2,33,"hl","ll",FALSE,1864.957,18,"female"
"154",1,"ab",2,34,"lh","ll",FALSE,4060.527,18,"female"
"155",1,"ab",2,35,"hh","hh",TRUE,1832.184,18,"female"
"156",1,"ab",2,36,"hl","ll",FALSE,3452.698,18,"female"
"157",1,"ab",2,37,"lh","ll",FALSE,1313.442,18,"female"
"158",1,"ab",2,38,"lh","hh",FALSE,6713.961,18,"female"
"159",1,"ab",2,39,"ll","ll",TRUE,9739.207,18,"female"
"160",1,"ab",2,40,"ll","ll",TRUE,1668,18,"female"
"161",1,"ab",2,41,"ll","ll",TRUE,1391.569,18,"female"
"162",1,"ab",2,42,"hl","hl",TRUE,6614.735,18,"female"
"163",1,"ab",2,43,"ll","ll",TRUE,2731.51,18,"female"
"164",1,"ab",2,44,"ll","ll",TRUE,1548.371,18,"female"
"165",1,"ab",2,45,"hh","hh",TRUE,1420.004,18,"female"
"166",1,"ab",2,46,"hh","hh",TRUE,1200.914,18,"female"
"167",1,"ab",2,47,"hh","hh",TRUE,3055.212,18,"female"
"168",1,"ab",2,48,"lh","hl",FALSE,6004.059,18,"female"
"169",1,"ab",2,49,"lh","hh",FALSE,2513.804,18,"female"
"170",1,"ab",2,50,"ll","ll",TRUE,4394.502,18,"female"
"171",1,"ab",2,51,"lh","ll",FALSE,3977.91,18,"female"
"172",1,"ab",2,52,"hl","ll",FALSE,2953.286,18,"female"
"173",1,"ab",2,53,"lh","hh",FALSE,1488.844,18,"female"
"174",1,"ab",2,54,"lh","ll",FALSE,1539.84,18,"female"
"175",1,"ab",2,55,"ll","ll",TRUE,3092.448,18,"female"
"176",1,"ab",2,56,"hh","hh",TRUE,1958.758,18,"female"
"177",1,"ab",2,57,"hl","hh",FALSE,2839.268,18,"female"
"178",1,"ab",2,58,"ll","ll",TRUE,3011.829,18,"female"
"179",1,"ab",2,59,"hl","hh",FALSE,13465.346,18,"female"
"180",1,"ab",2,60,"hl","hh",FALSE,7341.247,18,"female"
"181",1,"ab",2,61,"ll","lh",FALSE,7589.392,18,"female"
"182",1,"ab",2,62,"ll","ll",TRUE,1636.738,18,"female"
"183",1,"ab",2,63,"hl","hh",FALSE,928.904,18,"female"
"184",1,"ab",2,64,"ll","ll",TRUE,2538.545,18,"female"
"185",1,"ab",2,65,"ll","ll",TRUE,1331.528,18,"female"
"186",1,"ab",2,66,"ll","ll",TRUE,955.629,18,"female"
"187",1,"ab",2,67,"lh","ll",FALSE,3427.723,18,"female"
"188",1,"ab",2,68,"ll","ll",TRUE,2249.508,18,"female"
"189",1,"ab",2,69,"hl","hh",FALSE,3165.074,18,"female"
"190",1,"ab",2,70,"hh","hh",TRUE,1996.176,18,"female"
"191",1,"ab",2,71,"hh","hh",TRUE,3594.197,18,"female"
"192",1,"ab",2,72,"lh","hl",FALSE,6136.934,18,"female"
"193",1,"ab",2,73,"lh","ll",FALSE,5681.73,18,"female"
"194",1,"ab",2,74,"hh","hh",TRUE,2652.309,18,"female"
"195",1,"ab",2,75,"hh","lh",FALSE,8015.795,18,"female"
"196",1,"ab",2,76,"hl","hh",FALSE,5549.058,18,"female"
"197",1,"ab",2,77,"hh","hh",TRUE,2556.887,18,"female"
"198",1,"ab",2,78,"ll","ll",TRUE,1988.829,18,"female"
"199",1,"ab",2,79,"hl","hh",FALSE,1234.838,18,"female"
"200",1,"ab",2,80,"ll","ll",TRUE,1695.931,18,"female"
"201",1,"ab",2,81,"hl","hh",FALSE,7931.123,18,"female"
"202",1,"ab",2,82,"ll","ll",TRUE,1563.637,18,"female"
"203",1,"ab",2,83,"hh","hh",TRUE,1178.367,18,"female"
"204",1,"ab",2,84,"hl","hh",FALSE,1002.855,18,"female"
"205",1,"ab",2,85,"lh","lh",TRUE,8352.472,18,"female"
"206",1,"ab",2,86,"ll","ll",TRUE,2064.335,18,"female"
"207",1,"ab",2,87,"ll","lh",FALSE,6332.105,18,"female"
"208",1,"ab",2,88,"lh","hh",FALSE,2204.573,18,"female"
"209",1,"ab",2,89,"hh","hh",TRUE,1153.68,18,"female"
"210",1,"ab",2,90,"lh","hh",FALSE,1298.639,18,"female"
"211",1,"ab",2,91,"hl","hh",FALSE,1899.713,18,"female"
"212",1,"ab",2,92,"hl","hh",FALSE,1854.692,18,"female"
"213",1,"ab",2,93,"lh","hh",FALSE,3522.395,18,"female"
"214",1,"ab",2,94,"hh","hh",TRUE,5155.843,18,"female"
"215",1,"ab",2,95,"hh","hh",TRUE,4979.678,18,"female"
"216",1,"ab",2,96,"hh","hh",TRUE,3451.277,18,"female"
"217",1,"ab",2,97,"hh","lh",FALSE,6863.326,18,"female"
"218",1,"ab",2,98,"hl","ll",FALSE,4137.805,18,"female"
"219",1,"ab",2,99,"lh","ll",FALSE,3570.166,18,"female"
"220",1,"ab",2,100,"lh","hh",FALSE,8050.093,18,"female"
"221",1,"ab",2,101,"hl","hh",FALSE,1246.026,18,"female"
"222",1,"ab",2,102,"hl","ll",FALSE,2203.307,18,"female"
"223",1,"ab",2,103,"lh","hh",FALSE,2256.571,18,"female"
"224",1,"ab",2,104,"lh","ll",FALSE,6341.226,18,"female"
"225",1,"ab",2,105,"hh","ll",FALSE,5749.866,18,"female"
"226",1,"ab",2,106,"ll","ll",TRUE,2717.593,18,"female"
"227",1,"ab",2,107,"hh","ll",FALSE,927.288,18,"female"
"228",1,"ab",2,108,"lh","ll",FALSE,1144.052,18,"female"
"229",1,"ab",2,109,"ll","ll",TRUE,873.124,18,"female"
"230",1,"ab",2,110,"hl","lh",FALSE,6099.641,18,"female"
"231",1,"ab",2,111,"hl","ll",FALSE,3022.32,18,"female"
"232",1,"ab",2,112,"hh","hh",TRUE,1395.585,18,"female"
"233",1,"ab",2,113,"ll","ll",TRUE,2730.602,18,"female"
"234",1,"ab",2,114,"lh","ll",FALSE,5867.215,18,"female"
"235",1,"ab",2,115,"hh","hh",TRUE,1037.992,18,"female"
"236",1,"ab",2,116,"lh","hh",FALSE,1251.157,18,"female"
"237",1,"ab",2,117,"ll","ll",TRUE,1103.078,18,"female"
"238",1,"ab",2,118,"hh","ll",FALSE,2064.808,18,"female"
"239",1,"ab",2,119,"hh","hh",TRUE,4011.47,18,"female"
"240",1,"ab",2,120,"hh","hh",TRUE,1977.959,18,"female"
"241",1,"ab",3,1,"hl","hh",FALSE,3363.127,18,"female"
"242",1,"ab",3,2,"hh","hh",TRUE,1212.123,18,"female"
"243",1,"ab",3,3,"hl","hh",FALSE,1337.891,18,"female"
"244",1,"ab",3,4,"ll","ll",TRUE,1938.647,18,"female"
"245",1,"ab",3,5,"lh","ll",FALSE,1234.847,18,"female"
"246",1,"ab",3,6,"lh","hh",FALSE,1551.81,18,"female"
"247",1,"ab",3,7,"ll","lh",FALSE,4655.59,18,"female"
"248",1,"ab",3,8,"hl","hh",FALSE,1651.292,18,"female"
"249",1,"ab",3,9,"ll","ll",TRUE,2143.001,18,"female"
"250",1,"ab",3,10,"hl","ll",FALSE,1031.945,18,"female"
"251",1,"ab",3,11,"hh","hh",TRUE,1036.243,18,"female"
"252",1,"ab",3,12,"hl","hl",TRUE,5633.222,18,"female"
"253",1,"ab",3,13,"ll","ll",TRUE,1677.288,18,"female"
"254",1,"ab",3,14,"ll","hl",FALSE,1033.159,18,"female"
"255",1,"ab",3,15,"hh","hh",TRUE,2221.845,18,"female"
"256",1,"ab",3,16,"ll","ll",TRUE,1091,18,"female"
"257",1,"ab",3,17,"hl","hh",FALSE,870.144,18,"female"
"258",1,"ab",3,18,"lh","ll",FALSE,1201.18,18,"female"
"259",1,"ab",3,19,"lh","hh",FALSE,1039.038,18,"female"
"260",1,"ab",3,20,"hl","ll",FALSE,1107.701,18,"female"
"261",1,"ab",3,21,"lh","hh",FALSE,1606.062,18,"female"
"262",1,"ab",3,22,"hl","hh",FALSE,739.791,18,"female"
"263",1,"ab",3,23,"lh","ll",FALSE,1379.738,18,"female"
"264",1,"ab",3,24,"ll","ll",TRUE,1417.902,18,"female"
"265",1,"ab",3,25,"hh","hh",TRUE,831.517,18,"female"
"266",1,"ab",3,26,"lh","ll",FALSE,2316.385,18,"female"
"267",1,"ab",3,27,"ll","ll",TRUE,4414,18,"female"
"268",1,"ab",3,28,"ll","ll",TRUE,1562.877,18,"female"
"269",1,"ab",3,29,"lh","ll",FALSE,1050.003,18,"female"
"270",1,"ab",3,30,"ll","lh",FALSE,2942.149,18,"female"
"271",1,"ab",3,31,"hl","hh",FALSE,3847.446,18,"female"
"272",1,"ab",3,32,"hl","hh",FALSE,778.789,18,"female"
"273",1,"ab",3,33,"hh","hh",TRUE,1226.799,18,"female"
"274",1,"ab",3,34,"hl","hl",TRUE,2120.225,18,"female"
"275",1,"ab",3,35,"lh","hh",FALSE,1953.32,18,"female"
"276",1,"ab",3,36,"hh","hh",TRUE,848.869,18,"female"
"277",1,"ab",3,37,"hl","hh",FALSE,1132.883,18,"female"
"278",1,"ab",3,38,"hl","hh",FALSE,1229.597,18,"female"
"279",1,"ab",3,39,"ll","hl",FALSE,3450.87,18,"female"
"280",1,"ab",3,40,"hl","hh",FALSE,1439.215,18,"female"
"281",1,"ab",3,41,"ll","ll",TRUE,1667.348,18,"female"
"282",1,"ab",3,42,"hh","hh",TRUE,2734.935,18,"female"
"283",1,"ab",3,43,"hh","hl",FALSE,3823.777,18,"female"
"284",1,"ab",3,44,"lh","ll",FALSE,3333.29,18,"female"
"285",1,"ab",3,45,"ll","ll",TRUE,2413.843,18,"female"
"286",1,"ab",3,46,"lh","ll",FALSE,1978.945,18,"female"
"287",1,"ab",3,47,"hh","hh",TRUE,954.234,18,"female"
"288",1,"ab",3,48,"hh","hh",TRUE,1218.362,18,"female"
"289",1,"ab",3,49,"ll","ll",TRUE,1151.594,18,"female"
"290",1,"ab",3,50,"hl","hh",FALSE,927.873,18,"female"
"291",1,"ab",3,51,"hh","ll",FALSE,1576.899,18,"female"
"292",1,"ab",3,52,"hl","hl",TRUE,4168.367,18,"female"
"293",1,"ab",3,53,"hh","hh",TRUE,3184.315,18,"female"
"294",1,"ab",3,54,"lh","ll",FALSE,2830.52,18,"female"
"295",1,"ab",3,55,"lh","hl",FALSE,3162.694,18,"female"
"296",1,"ab",3,56,"ll","ll",TRUE,3019.334,18,"female"
"297",1,"ab",3,57,"hl","hh",FALSE,880.917,18,"female"
"298",1,"ab",3,58,"hl","hh",FALSE,1003.128,18,"female"
"299",1,"ab",3,59,"ll","ll",TRUE,881.34,18,"female"
"300",1,"ab",3,60,"hh","hh",TRUE,1275.326,18,"female"
"301",1,"ab",3,61,"lh","lh",TRUE,1335.248,18,"female"
"302",1,"ab",3,62,"ll","ll",TRUE,1263.146,18,"female"
"303",1,"ab",3,63,"hh","hh",TRUE,939.121,18,"female"
"304",1,"ab",3,64,"ll","ll",TRUE,979.771,18,"female"
"305",1,"ab",3,65,"hh","hh",TRUE,859.349,18,"female"
"306",1,"ab",3,66,"hh","hl",FALSE,3511.454,18,"female"
"307",1,"ab",3,67,"ll","ll",TRUE,11593.66,18,"female"
"308",1,"ab",3,68,"hh","hh",TRUE,1480.119,18,"female"
"309",1,"ab",3,69,"ll","hh",FALSE,1178.156,18,"female"
"310",1,"ab",3,70,"ll","hh",FALSE,1193.85,18,"female"
"311",1,"ab",3,71,"ll","hh",FALSE,1256.801,18,"female"
"312",1,"ab",3,72,"hl","hh",FALSE,916.682,18,"female"
"313",1,"ab",3,73,"lh","hh",FALSE,1693.572,18,"female"
"314",1,"ab",3,74,"hh","hh",TRUE,696.409,18,"female"
"315",1,"ab",3,75,"ll","ll",TRUE,441.704,18,"female"
"316",1,"ab",3,76,"ll","hh",FALSE,823.138,18,"female"
"317",1,"ab",3,77,"hh","hh",TRUE,899.684,18,"female"
"318",1,"ab",3,78,"hl","hh",FALSE,782.329,18,"female"
"319",1,"ab",3,79,"lh","ll",FALSE,1165.204,18,"female"
"320",1,"ab",3,80,"hl","hh",FALSE,764.564,18,"female"
"321",1,"ab",3,81,"hh","hh",TRUE,1147.726,18,"female"
"322",1,"ab",3,82,"hh","ll",FALSE,1115.211,18,"female"
"323",1,"ab",3,83,"hh","hh",TRUE,701.514,18,"female"
"324",1,"ab",3,84,"lh","ll",FALSE,895.338,18,"female"
"325",1,"ab",3,85,"hl","hh",FALSE,521.982,18,"female"
"326",1,"ab",3,86,"hl","lh",FALSE,4579.108,18,"female"
"327",1,"ab",3,87,"hh","hh",TRUE,2506.68,18,"female"
"328",1,"ab",3,88,"lh","hh",FALSE,1396.861,18,"female"
"329",1,"ab",3,89,"hh","hh",TRUE,1417.861,18,"female"
"330",1,"ab",3,90,"ll","ll",TRUE,895.451,18,"female"
"331",1,"ab",3,91,"hh","hh",TRUE,986.865,18,"female"
"332",1,"ab",3,92,"ll","ll",TRUE,1009.242,18,"female"
"333",1,"ab",3,93,"hl","hh",FALSE,1382.299,18,"female"
"334",1,"ab",3,94,"lh","hl",FALSE,2300.761,18,"female"
"335",1,"ab",3,95,"hl","ll",FALSE,991.067,18,"female"
"336",1,"ab",3,96,"ll","ll",TRUE,1861.701,18,"female"
"337",1,"ab",3,97,"hl","hh",FALSE,3065.987,18,"female"
"338",1,"ab",3,98,"hl","hh",FALSE,1981.079,18,"female"
"339",1,"ab",3,99,"hl","hh",FALSE,2235.658,18,"female"
"340",1,"ab",3,100,"hh","hh",TRUE,911.572,18,"female"
"341",1,"ab",3,101,"hh","hh",TRUE,938.128,18,"female"
"342",1,"ab",3,102,"hl","ll",FALSE,1282.65,18,"female"
"343",1,"ab",3,103,"lh","hh",FALSE,924.994,18,"female"
"344",1,"ab",3,104,"ll","lh",FALSE,6982.529,18,"female"
"345",1,"ab",3,105,"ll","ll",TRUE,1213.364,18,"female"
"346",1,"ab",3,106,"lh","hh",FALSE,3178.532,18,"female"
"347",1,"ab",3,107,"lh","ll",FALSE,794.153,18,"female"
"348",1,"ab",3,108,"hh","ll",FALSE,792.845,18,"female"
"349",1,"ab",3,109,"lh","ll",FALSE,631.292,18,"female"
"350",1,"ab",3,110,"lh","hh",FALSE,603.511,18,"female"
"351",1,"ab",3,111,"hl","hh",FALSE,993.286,18,"female"
"352",1,"ab",3,112,"hh","hh",TRUE,679.934,18,"female"
"353",1,"ab",3,113,"ll","hh",FALSE,872.811,18,"female"
"354",1,"ab",3,114,"ll","ll",TRUE,2293.973,18,"female"
"355",1,"ab",3,115,"hl","hh",FALSE,2248.941,18,"female"
"356",1,"ab",3,116,"lh","lh",TRUE,5036.497,18,"female"
"357",1,"ab",3,117,"ll","ll",TRUE,4721.42,18,"female"
"358",1,"ab",3,118,"lh","ll",FALSE,2290.756,18,"female"
"359",1,"ab",3,119,"hl","ll",FALSE,1813.495,18,"female"
"360",1,"ab",3,120,"lh","ll",FALSE,2649.692,18,"female"
"361",1,"ab",4,1,"hl","hh",FALSE,3339.715,18,"female"
"362",1,"ab",4,2,"hl","hh",FALSE,1188.534,18,"female"
"363",1,"ab",4,3,"ll","ll",TRUE,2211.372,18,"female"
"364",1,"ab",4,4,"hh","ll",FALSE,1545.462,18,"female"
"365",1,"ab",4,5,"lh","ll",FALSE,2202.032,18,"female"
"366",1,"ab",4,6,"hh","hh",TRUE,1903.994,18,"female"
"367",1,"ab",4,7,"hh","hh",TRUE,1393.692,18,"female"
"368",1,"ab",4,8,"hl","hh",FALSE,968.81,18,"female"
"369",1,"ab",4,9,"ll","ll",TRUE,1135.476,18,"female"
"370",1,"ab",4,10,"hh","ll",FALSE,1280.641,18,"female"
"371",1,"ab",4,11,"hh","hh",TRUE,779.307,18,"female"
"372",1,"ab",4,12,"hl","hh",FALSE,666.419,18,"female"
"373",1,"ab",4,13,"hl","hh",FALSE,734.075,18,"female"
"374",1,"ab",4,14,"lh","ll",FALSE,1566.574,18,"female"
"375",1,"ab",4,15,"hh","hh",TRUE,782.055,18,"female"
"376",1,"ab",4,16,"hl","ll",FALSE,988.661,18,"female"
"377",1,"ab",4,17,"hl","hh",FALSE,1155.598,18,"female"
"378",1,"ab",4,18,"hl","hh",FALSE,947.389,18,"female"
"379",1,"ab",4,19,"ll","ll",TRUE,1035.224,18,"female"
"380",1,"ab",4,20,"hl","hl",TRUE,1936.172,18,"female"
"381",1,"ab",4,21,"lh","ll",FALSE,2496.839,18,"female"
"382",1,"ab",4,22,"lh","lh",TRUE,5674.377,18,"female"
"383",1,"ab",4,23,"hl","hh",FALSE,4565.042,18,"female"
"384",1,"ab",4,24,"lh","ll",FALSE,1708.763,18,"female"
"385",1,"ab",4,25,"hl","hh",FALSE,1734.859,18,"female"
"386",1,"ab",4,26,"ll","ll",TRUE,1775.452,18,"female"
"387",1,"ab",4,27,"ll","ll",TRUE,1478.256,18,"female"
"388",1,"ab",4,28,"hh","hh",TRUE,1370.363,18,"female"
"389",1,"ab",4,29,"lh","ll",FALSE,1521.654,18,"female"
"390",1,"ab",4,30,"ll","ll",TRUE,1762.119,18,"female"
"391",1,"ab",4,31,"hl","hh",FALSE,4234.271,18,"female"
"392",1,"ab",4,32,"hl","hh",FALSE,863.632,18,"female"
"393",1,"ab",4,33,"hh","hl",FALSE,3785.725,18,"female"
"394",1,"ab",4,34,"lh","ll",FALSE,1809.59,18,"female"
"395",1,"ab",4,35,"ll","ll",TRUE,919.656,18,"female"
"396",1,"ab",4,36,"hl","hh",FALSE,3168.143,18,"female"
"397",1,"ab",4,37,"lh","ll",FALSE,2064.287,18,"female"
"398",1,"ab",4,38,"lh","ll",FALSE,3195.203,18,"female"
"399",1,"ab",4,39,"hl","hh",FALSE,2266.243,18,"female"
"400",1,"ab",4,40,"ll","ll",TRUE,1597.618,18,"female"
"401",1,"ab",4,41,"lh","ll",FALSE,1051.435,18,"female"
"402",1,"ab",4,42,"hh","hh",TRUE,1567.317,18,"female"
"403",1,"ab",4,43,"ll","ll",TRUE,1469.614,18,"female"
"404",1,"ab",4,44,"lh","hl",FALSE,3233.661,18,"female"
"405",1,"ab",4,45,"ll","hh",FALSE,2957.612,18,"female"
"406",1,"ab",4,46,"hl","ll",FALSE,1718.261,18,"female"
"407",1,"ab",4,47,"hh","hh",TRUE,1599.541,18,"female"
"408",1,"ab",4,48,"lh","hh",FALSE,1101.314,18,"female"
"409",1,"ab",4,49,"ll","ll",TRUE,1183.056,18,"female"
"410",1,"ab",4,50,"ll","lh",FALSE,6125.965,18,"female"
"411",1,"ab",4,51,"hh","hh",TRUE,1319.716,18,"female"
"412",1,"ab",4,52,"lh","ll",FALSE,1520.808,18,"female"
"413",1,"ab",4,53,"lh","ll",FALSE,1122.217,18,"female"
"414",1,"ab",4,54,"lh","ll",FALSE,947.571,18,"female"
"415",1,"ab",4,55,"hl","hh",FALSE,1402.787,18,"female"
"416",1,"ab",4,56,"ll","ll",TRUE,4160.818,18,"female"
"417",1,"ab",4,57,"hl","hh",FALSE,1512.955,18,"female"
"418",1,"ab",4,58,"lh","ll",FALSE,1722.765,18,"female"
"419",1,"ab",4,59,"hh","hh",TRUE,1235.565,18,"female"
"420",1,"ab",4,60,"lh","ll",FALSE,2063.999,18,"female"
"421",1,"ab",4,61,"lh","hh",FALSE,3098.905,18,"female"
"422",1,"ab",4,62,"hl","ll",FALSE,3981.486,18,"female"
"423",1,"ab",4,63,"lh","ll",FALSE,3324.205,18,"female"
"424",1,"ab",4,64,"hl","hh",FALSE,1381.459,18,"female"
"425",1,"ab",4,65,"hh","hh",TRUE,2731.754,18,"female"
"426",1,"ab",4,66,"lh","ll",FALSE,1820.558,18,"female"
"427",1,"ab",4,67,"hh","hh",TRUE,833.569,18,"female"
"428",1,"ab",4,68,"ll","ll",TRUE,1038.738,18,"female"
"429",1,"ab",4,69,"hl","hh",FALSE,818.599,18,"female"
"430",1,"ab",4,70,"lh","hh",FALSE,880.944,18,"female"
"431",1,"ab",4,71,"lh","hh",FALSE,794.908,18,"female"
"432",1,"ab",4,72,"hl","hh",FALSE,938.452,18,"female"
"433",1,"ab",4,73,"hl","hl",TRUE,3314.666,18,"female"
"434",1,"ab",4,74,"ll","hh",FALSE,763.804,18,"female"
"435",1,"ab",4,75,"lh","hh",FALSE,715.245,18,"female"
"436",1,"ab",4,76,"ll","ll",TRUE,1676.279,18,"female"
"437",1,"ab",4,77,"hl","ll",FALSE,1496.462,18,"female"
"438",1,"ab",4,78,"hh","ll",FALSE,1930.822,18,"female"
"439",1,"ab",4,79,"ll","ll",TRUE,1242.829,18,"female"
"440",1,"ab",4,80,"ll","ll",TRUE,1063.946,18,"female"
"441",1,"ab",4,81,"hl","hh",FALSE,1643.254,18,"female"
"442",1,"ab",4,82,"lh","hh",FALSE,1608.481,18,"female"
"443",1,"ab",4,83,"lh","hh",FALSE,1333.879,18,"female"
"444",1,"ab",4,84,"ll","hh",FALSE,942.681,18,"female"
"445",1,"ab",4,85,"lh","ll",FALSE,2695.722,18,"female"
"446",1,"ab",4,86,"lh","ll",FALSE,745.44,18,"female"
"447",1,"ab",4,87,"lh","ll",FALSE,1321.97,18,"female"
"448",1,"ab",4,88,"ll","ll",TRUE,1058.741,18,"female"
"449",1,"ab",4,89,"ll","ll",TRUE,823.601,18,"female"
"450",1,"ab",4,90,"hh","hh",TRUE,852.904,18,"female"
"451",1,"ab",4,91,"lh","ll",FALSE,1616.909,18,"female"
"452",1,"ab",4,92,"ll","hh",FALSE,2526.484,18,"female"
"453",1,"ab",4,93,"hh","hl",FALSE,5047.614,18,"female"
"454",1,"ab",4,94,"hl","hh",FALSE,1355.6,18,"female"
"455",1,"ab",4,95,"hh","hh",TRUE,883.563,18,"female"
"456",1,"ab",4,96,"hh","hh",TRUE,685.583,18,"female"
"457",1,"ab",4,97,"hh","hh",TRUE,752.242,18,"female"
"458",1,"ab",4,98,"hh","hh",TRUE,1344.37,18,"female"
"459",1,"ab",4,99,"ll","hh",FALSE,873.081,18,"female"
"460",1,"ab",4,100,"hh","hh",TRUE,1827.979,18,"female"
"461",1,"ab",4,101,"hh","hh",TRUE,1385.737,18,"female"
"462",1,"ab",4,102,"hh","hh",TRUE,2112.085,18,"female"
"463",1,"ab",4,103,"hh","hh",TRUE,2682.334,18,"female"
"464",1,"ab",4,104,"lh","hh",FALSE,1836.897,18,"female"
"465",1,"ab",4,105,"ll","hh",FALSE,2001.706,18,"female"
"466",1,"ab",4,106,"hh","ll",FALSE,1743.329,18,"female"
"467",1,"ab",4,107,"hl","hl",TRUE,5240.248,18,"female"
"468",1,"ab",4,108,"hl","hl",TRUE,3444.952,18,"female"
"469",1,"ab",4,109,"ll","ll",TRUE,4313.096,18,"female"
"470",1,"ab",4,110,"lh","ll",FALSE,1019.303,18,"female"
"471",1,"ab",4,111,"ll","ll",TRUE,1072.768,18,"female"
"472",1,"ab",4,112,"hh","hh",TRUE,1492.348,18,"female"
"473",1,"ab",4,113,"lh","ll",FALSE,902.343,18,"female"
"474",1,"ab",4,114,"ll","ll",TRUE,1008.597,18,"female"
"475",1,"ab",4,115,"ll","ll",TRUE,1110.178,18,"female"
"476",1,"ab",4,116,"hl","ll",FALSE,343.348,18,"female"
"477",1,"ab",4,117,"hl","ll",FALSE,3496.586,18,"female"
"478",1,"ab",4,118,"hh","hl",FALSE,6474.983,18,"female"
"479",1,"ab",4,119,"ll","ll",TRUE,982.244,18,"female"
"480",1,"ab",4,120,"hl","hh",FALSE,1260.404,18,"female"
"481",1,"ab",5,1,"hl","hh",FALSE,2286.547,18,"female"
"482",1,"ab",5,2,"ll","hh",FALSE,864.812,18,"female"
"483",1,"ab",5,3,"hh","hh",TRUE,1099.077,18,"female"
"484",1,"ab",5,4,"lh","hh",FALSE,718.366,18,"female"
"485",1,"ab",5,5,"hl","ll",FALSE,1583.741,18,"female"
"486",1,"ab",5,6,"lh","ll",FALSE,813.532,18,"female"
"487",1,"ab",5,7,"hh","ll",FALSE,906.748,18,"female"
"488",1,"ab",5,8,"ll","ll",TRUE,1333.517,18,"female"
"489",1,"ab",5,9,"lh","ll",FALSE,1214.189,18,"female"
"490",1,"ab",5,10,"lh","ll",FALSE,2362.857,18,"female"
"491",1,"ab",5,11,"hl","hh",FALSE,1019.219,18,"female"
"492",1,"ab",5,12,"lh","ll",FALSE,912.079,18,"female"
"493",1,"ab",5,13,"lh","ll",FALSE,1466.77,18,"female"
"494",1,"ab",5,14,"hl","hh",FALSE,4093.612,18,"female"
"495",1,"ab",5,15,"ll","ll",TRUE,2104.254,18,"female"
"496",1,"ab",5,16,"ll","ll",TRUE,898.32,18,"female"
"497",1,"ab",5,17,"lh","ll",FALSE,1052.01,18,"female"
"498",1,"ab",5,18,"hh","ll",FALSE,1023.676,18,"female"
"499",1,"ab",5,19,"lh","hh",FALSE,772.91,18,"female"
"500",1,"ab",5,20,"lh","hh",FALSE,789.152,18,"female"
"501",1,"ab",5,21,"ll","ll",TRUE,4131.449,18,"female"
"502",1,"ab",5,22,"hh","hh",TRUE,3100.422,18,"female"
"503",1,"ab",5,23,"hh","hh",TRUE,782.337,18,"female"
"504",1,"ab",5,24,"lh","ll",FALSE,1708.618,18,"female"
"505",1,"ab",5,25,"ll","ll",TRUE,1334.414,18,"female"
"506",1,"ab",5,26,"hh","hh",TRUE,1519.931,18,"female"
"507",1,"ab",5,27,"ll","ll",TRUE,1329.324,18,"female"
"508",1,"ab",5,28,"ll","ll",TRUE,1321.913,18,"female"
"509",1,"ab",5,29,"ll","ll",TRUE,1283.273,18,"female"
"510",1,"ab",5,30,"hl","hh",FALSE,1214.403,18,"female"
"511",1,"ab",5,31,"hl","hh",FALSE,1195.655,18,"female"
"512",1,"ab",5,32,"hh","hh",TRUE,1258.526,18,"female"
"513",1,"ab",5,33,"hl","hh",FALSE,1078.424,18,"female"
"514",1,"ab",5,34,"hh","hh",TRUE,1449.953,18,"female"
"515",1,"ab",5,35,"hh","hh",TRUE,1693.517,18,"female"
"516",1,"ab",5,36,"ll","ll",TRUE,1927.796,18,"female"
"517",1,"ab",5,37,"hh","hh",TRUE,1161.965,18,"female"
"518",1,"ab",5,38,"hl","hl",TRUE,4969.737,18,"female"
"519",1,"ab",5,39,"lh","ll",FALSE,3376.864,18,"female"
"520",1,"ab",5,40,"lh","ll",FALSE,1896.538,18,"female"
"521",1,"ab",5,41,"hh","hh",TRUE,1931.225,18,"female"
"522",1,"ab",5,42,"hl","hh",FALSE,1338.181,18,"female"
"523",1,"ab",5,43,"hh","hh",TRUE,1603.113,18,"female"
"524",1,"ab",5,44,"hl","hh",FALSE,1649.822,18,"female"
"525",1,"ab",5,45,"hl","hl",TRUE,4157.709,18,"female"
"526",1,"ab",5,46,"lh","ll",FALSE,2101.901,18,"female"
"527",1,"ab",5,47,"hl","hh",FALSE,1343.623,18,"female"
"528",1,"ab",5,48,"hl","hh",FALSE,1272.68,18,"female"
"529",1,"ab",5,49,"hh","hh",TRUE,1187.521,18,"female"
"530",1,"ab",5,50,"hh","hh",TRUE,1378.635,18,"female"
"531",1,"ab",5,51,"hh","hl",FALSE,3274.015,18,"female"
"532",1,"ab",5,52,"ll","hl",FALSE,4277.511,18,"female"
"533",1,"ab",5,53,"hl","lh",FALSE,3256.417,18,"female"
"534",1,"ab",5,54,"hh","hh",TRUE,1412.33,18,"female"
"535",1,"ab",5,55,"hl","hh",FALSE,1370.503,18,"female"
"536",1,"ab",5,56,"lh","hh",FALSE,1841.667,18,"female"
"537",1,"ab",5,57,"hl","hh",FALSE,7702.609,18,"female"
"538",1,"ab",5,58,"lh","ll",FALSE,2368.419,18,"female"
"539",1,"ab",5,59,"ll","hh",FALSE,1071.468,18,"female"
"540",1,"ab",5,60,"hl","hh",FALSE,3010.91,18,"female"
"541",1,"ab",5,61,"ll","ll",TRUE,1145.447,18,"female"
"542",1,"ab",5,62,"ll","ll",TRUE,1049.764,18,"female"
"543",1,"ab",5,63,"lh","ll",FALSE,652.976,18,"female"
"544",1,"ab",5,64,"ll","hh",FALSE,1537.605,18,"female"
"545",1,"ab",5,65,"hl","hh",FALSE,914.342,18,"female"
"546",1,"ab",5,66,"ll","hh",FALSE,1899.143,18,"female"
"547",1,"ab",5,67,"hl","hh",FALSE,1868.981,18,"female"
"548",1,"ab",5,68,"lh","hh",FALSE,3039.699,18,"female"
"549",1,"ab",5,69,"hl","ll",FALSE,820.816,18,"female"
"550",1,"ab",5,70,"hl","ll",FALSE,1874.555,18,"female"
"551",1,"ab",5,71,"hh","hh",TRUE,1348.98,18,"female"
"552",1,"ab",5,72,"hh","hh",TRUE,861.538,18,"female"
"553",1,"ab",5,73,"ll","ll",TRUE,648.983,18,"female"
"554",1,"ab",5,74,"lh","hh",FALSE,1149.71,18,"female"
"555",1,"ab",5,75,"ll","ll",TRUE,876.966,18,"female"
"556",1,"ab",5,76,"ll","ll",TRUE,873.328,18,"female"
"557",1,"ab",5,77,"ll","ll",TRUE,1475.911,18,"female"
"558",1,"ab",5,78,"lh","ll",FALSE,1591.91,18,"female"
"559",1,"ab",5,79,"lh","hh",FALSE,2998.672,18,"female"
"560",1,"ab",5,80,"hh","hh",TRUE,1116.582,18,"female"
"561",1,"ab",5,81,"hl","hh",FALSE,894.532,18,"female"
"562",1,"ab",5,82,"hl","hh",FALSE,743.618,18,"female"
"563",1,"ab",5,83,"hl","hh",FALSE,1944.49,18,"female"
"564",1,"ab",5,84,"hh","hh",TRUE,809.242,18,"female"
"565",1,"ab",5,85,"lh","hh",FALSE,870.211,18,"female"
"566",1,"ab",5,86,"hh","hh",TRUE,1105.85,18,"female"
"567",1,"ab",5,87,"hl","ll",FALSE,4243.738,18,"female"
"568",1,"ab",5,88,"lh","ll",FALSE,1784.603,18,"female"
"569",1,"ab",5,89,"hh","hh",TRUE,1678.795,18,"female"
"570",1,"ab",5,90,"lh","hh",FALSE,922.709,18,"female"
"571",1,"ab",5,91,"lh","hl",FALSE,6404.101,18,"female"
"572",1,"ab",5,92,"hh","hh",TRUE,2193.872,18,"female"
"573",1,"ab",5,93,"hh","hh",TRUE,1304.822,18,"female"
"574",1,"ab",5,94,"lh","ll",FALSE,1634.565,18,"female"
"575",1,"ab",5,95,"hl","hh",FALSE,1454.828,18,"female"
"576",1,"ab",5,96,"ll","ll",TRUE,1346.326,18,"female"
"577",1,"ab",5,97,"hh","hh",TRUE,1305.345,18,"female"
"578",1,"ab",5,98,"hl","hh",FALSE,2292.439,18,"female"
"579",1,"ab",5,99,"hl","hh",FALSE,1207.212,18,"female"
"580",1,"ab",5,100,"lh","ll",FALSE,1317.168,18,"female"
"581",1,"ab",5,101,"hl","ll",FALSE,1581.968,18,"female"
"582",1,"ab",5,102,"hh","ll",FALSE,1325.299,18,"female"
"583",1,"ab",5,103,"ll","hl",FALSE,3558.849,18,"female"
"584",1,"ab",5,104,"hl","ll",FALSE,2086.457,18,"female"
"585",1,"ab",5,105,"hh","ll",FALSE,848.401,18,"female"
"586",1,"ab",5,106,"ll","ll",TRUE,957.316,18,"female"
"587",1,"ab",5,107,"hl","ll",FALSE,868.901,18,"female"
"588",1,"ab",5,108,"hh","hh",TRUE,1887.787,18,"female"
"589",1,"ab",5,109,"ll","ll",TRUE,2083.198,18,"female"
"590",1,"ab",5,110,"ll","ll",TRUE,1069.624,18,"female"
"591",1,"ab",5,111,"ll","ll",TRUE,1376.978,18,"female"
"592",1,"ab",5,112,"ll","ll",TRUE,1528.342,18,"female"
"593",1,"ab",5,113,"ll","ll",TRUE,1401.911,18,"female"
"594",1,"ab",5,114,"hh","ll",FALSE,3007.07,18,"female"
"595",1,"ab",5,115,"lh","ll",FALSE,1798.109,18,"female"
"596",1,"ab",5,116,"lh","ll",FALSE,2347.553,18,"female"
"597",1,"ab",5,117,"lh","hh",FALSE,3467.651,18,"female"
"598",1,"ab",5,118,"hl","hh",FALSE,2991.179,18,"female"
"599",1,"ab",5,119,"hl","ll",FALSE,1237.879,18,"female"
"600",1,"ab",5,120,"hh","hh",TRUE,1938.166,18,"female"
"601",11,"ab",1,1,"lh","hl",FALSE,6520.193,19,"female"
"602",11,"ab",1,2,"ll","ll",TRUE,2707.769,19,"female"
"603",11,"ab",1,3,"lh","hl",FALSE,3193.159,19,"female"
"604",11,"ab",1,4,"hl","hl",TRUE,1760.547,19,"female"
"605",11,"ab",1,5,"ll","ll",TRUE,1564.624,19,"female"
"606",11,"ab",1,6,"hh","ll",FALSE,1276.988,19,"female"
"607",11,"ab",1,7,"hh","hh",TRUE,1090.446,19,"female"
"608",11,"ab",1,8,"hl","ll",FALSE,1479.777,19,"female"
"609",11,"ab",1,9,"ll","ll",TRUE,1267.893,19,"female"
"610",11,"ab",1,10,"ll","ll",TRUE,1169.113,19,"female"
"611",11,"ab",1,11,"ll","ll",TRUE,1122.571,19,"female"
"612",11,"ab",1,12,"hh","hh",TRUE,1766.164,19,"female"
"613",11,"ab",1,13,"ll","ll",TRUE,1271.334,19,"female"
"614",11,"ab",1,14,"hl","ll",FALSE,1100.465,19,"female"
"615",11,"ab",1,15,"hl","ll",FALSE,2464.481,19,"female"
"616",11,"ab",1,16,"lh","lh",TRUE,1222.023,19,"female"
"617",11,"ab",1,17,"lh","hh",FALSE,1958.03,19,"female"
"618",11,"ab",1,18,"hl","ll",FALSE,1479.331,19,"female"
"619",11,"ab",1,19,"lh","hh",FALSE,5707.251,19,"female"
"620",11,"ab",1,20,"lh","ll",FALSE,1751.26,19,"female"
"621",11,"ab",1,21,"hh","hh",TRUE,1738.102,19,"female"
"622",11,"ab",1,22,"hh","hh",TRUE,12466.139,19,"female"
"623",11,"ab",1,23,"lh","lh",TRUE,1689.956,19,"female"
"624",11,"ab",1,24,"lh","lh",TRUE,1163.294,19,"female"
"625",11,"ab",1,25,"hh","hh",TRUE,2270.431,19,"female"
"626",11,"ab",1,26,"lh","hh",FALSE,1498.897,19,"female"
"627",11,"ab",1,27,"lh","lh",TRUE,1751.956,19,"female"
"628",11,"ab",1,28,"lh","ll",FALSE,1209.904,19,"female"
"629",11,"ab",1,29,"lh","hh",FALSE,1609.262,19,"female"
"630",11,"ab",1,30,"lh","lh",TRUE,1664.029,19,"female"
"631",11,"ab",1,31,"hh","lh",FALSE,3486.529,19,"female"
"632",11,"ab",1,32,"lh","hh",FALSE,2580.077,19,"female"
"633",11,"ab",1,33,"lh","ll",FALSE,2100.072,19,"female"
"634",11,"ab",1,34,"hl","hh",FALSE,2016.86,19,"female"
"635",11,"ab",1,35,"lh","lh",TRUE,1271.633,19,"female"
"636",11,"ab",1,36,"ll","hl",FALSE,4459.524,19,"female"
"637",11,"ab",1,37,"hh","hh",TRUE,1403.683,19,"female"
"638",11,"ab",1,38,"ll","hl",FALSE,4139.849,19,"female"
"639",11,"ab",1,39,"ll","ll",TRUE,1262.46,19,"female"
"640",11,"ab",1,40,"hh","lh",FALSE,1475.108,19,"female"
"641",11,"ab",1,41,"lh","lh",TRUE,1296.26,19,"female"
"642",11,"ab",1,42,"ll","hh",FALSE,1618.57,19,"female"
"643",11,"ab",1,43,"hh","lh",FALSE,1443.202,19,"female"
"644",11,"ab",1,44,"hl","lh",FALSE,1257.368,19,"female"
"645",11,"ab",1,45,"hh","hh",TRUE,1407.463,19,"female"
"646",11,"ab",1,46,"lh","ll",FALSE,1366.119,19,"female"
"647",11,"ab",1,47,"hh","hh",TRUE,1294.963,19,"female"
"648",11,"ab",1,48,"ll","hl",FALSE,1043.907,19,"female"
"649",11,"ab",1,49,"hl","hl",TRUE,1017.482,19,"female"
"650",11,"ab",1,50,"ll","hl",FALSE,1089.733,19,"female"
"651",11,"ab",1,51,"hh","hh",TRUE,1910.177,19,"female"
"652",11,"ab",1,52,"hh","hh",TRUE,3233.05,19,"female"
"653",11,"ab",1,53,"lh","hh",FALSE,2160.678,19,"female"
"654",11,"ab",1,54,"lh","ll",FALSE,3033.429,19,"female"
"655",11,"ab",1,55,"ll","ll",TRUE,960.919,19,"female"
"656",11,"ab",1,56,"lh","hl",FALSE,8608.107,19,"female"
"657",11,"ab",1,57,"ll","ll",TRUE,5634.273,19,"female"
"658",11,"ab",1,58,"lh","ll",FALSE,2112.524,19,"female"
"659",11,"ab",1,59,"lh","lh",TRUE,1930.2,19,"female"
"660",11,"ab",1,60,"hh","hh",TRUE,1477.414,19,"female"
"661",11,"ab",1,61,"ll","ll",TRUE,1156.231,19,"female"
"662",11,"ab",1,62,"ll","ll",TRUE,1838.023,19,"female"
"663",11,"ab",1,63,"ll","ll",TRUE,1875.393,19,"female"
"664",11,"ab",1,64,"lh","hl",FALSE,3194.437,19,"female"
"665",11,"ab",1,65,"hl","hl",TRUE,1544.823,19,"female"
"666",11,"ab",1,66,"hh","hh",TRUE,4473.306,19,"female"
"667",11,"ab",1,67,"lh","lh",TRUE,2090.46,19,"female"
"668",11,"ab",1,68,"hh","hh",TRUE,9111.04,19,"female"
"669",11,"ab",1,69,"hl","hh",FALSE,1592.46,19,"female"
"670",11,"ab",1,70,"hh","lh",FALSE,1210.438,19,"female"
"671",11,"ab",1,71,"ll","hl",FALSE,1650.324,19,"female"
"672",11,"ab",1,72,"ll","hl",FALSE,1849.216,19,"female"
"673",11,"ab",1,73,"ll","ll",TRUE,1260.627,19,"female"
"674",11,"ab",1,74,"hh","lh",FALSE,9339.004,19,"female"
"675",11,"ab",1,75,"lh","lh",TRUE,1079.52,19,"female"
"676",11,"ab",1,76,"hh","hh",TRUE,1172.396,19,"female"
"677",11,"ab",1,77,"ll","hl",FALSE,3749.901,19,"female"
"678",11,"ab",1,78,"lh","lh",TRUE,1279.333,19,"female"
"679",11,"ab",1,79,"hl","ll",FALSE,3684.357,19,"female"
"680",11,"ab",1,80,"hl","hl",TRUE,1969.07,19,"female"
"681",11,"ab",1,81,"hl","hl",TRUE,3930.2,19,"female"
"682",11,"ab",1,82,"hh","lh",FALSE,1468.273,19,"female"
"683",11,"ab",1,83,"hh","hh",TRUE,1200.734,19,"female"
"684",11,"ab",1,84,"hl","lh",FALSE,4594.035,19,"female"
"685",11,"ab",1,85,"hl","hh",FALSE,2034.046,19,"female"
"686",11,"ab",1,86,"ll","hl",FALSE,2480.59,19,"female"
"687",11,"ab",1,87,"hh","hh",TRUE,1348.823,19,"female"
"688",11,"ab",1,88,"ll","ll",TRUE,1126.21,19,"female"
"689",11,"ab",1,89,"lh","hl",FALSE,2003.317,19,"female"
"690",11,"ab",1,90,"hh","lh",FALSE,2906.984,19,"female"
"691",11,"ab",1,91,"ll","ll",TRUE,2223.328,19,"female"
"692",11,"ab",1,92,"hh","hh",TRUE,1038.269,19,"female"
"693",11,"ab",1,93,"lh","hl",FALSE,5820.357,19,"female"
"694",11,"ab",1,94,"hl","lh",FALSE,4773.124,19,"female"
"695",11,"ab",1,95,"ll","ll",TRUE,2805.171,19,"female"
"696",11,"ab",1,96,"ll","hl",FALSE,2555.905,19,"female"
"697",11,"ab",1,97,"hh","lh",FALSE,2981.41,19,"female"
"698",11,"ab",1,98,"hl","lh",FALSE,1296.391,19,"female"
"699",11,"ab",1,99,"lh","hl",FALSE,2708.712,19,"female"
"700",11,"ab",1,100,"ll","hl",FALSE,3304.39,19,"female"
"701",11,"ab",1,101,"ll","ll",TRUE,1355.839,19,"female"
"702",11,"ab",1,102,"ll","ll",TRUE,854.007,19,"female"
"703",11,"ab",1,103,"ll","ll",TRUE,1324.761,19,"female"
"704",11,"ab",1,104,"lh","ll",FALSE,5071.75,19,"female"
"705",11,"ab",1,105,"lh","lh",TRUE,1317.402,19,"female"
"706",11,"ab",1,106,"hh","hh",TRUE,1272.943,19,"female"
"707",11,"ab",1,107,"ll","ll",TRUE,3173.308,19,"female"
"708",11,"ab",1,108,"lh","lh",TRUE,1350.821,19,"female"
"709",11,"ab",1,109,"lh","hl",FALSE,5000.752,19,"female"
"710",11,"ab",1,110,"lh","ll",FALSE,1192.231,19,"female"
"711",11,"ab",1,111,"lh","hl",FALSE,3042.104,19,"female"
"712",11,"ab",1,112,"ll","lh",FALSE,5415.793,19,"female"
"713",11,"ab",1,113,"ll","ll",TRUE,4591.369,19,"female"
"714",11,"ab",1,114,"lh","hh",FALSE,1263.927,19,"female"
"715",11,"ab",1,115,"ll","ll",TRUE,1453.253,19,"female"
"716",11,"ab",1,116,"hl","hh",FALSE,1163.358,19,"female"
"717",11,"ab",1,117,"ll","ll",TRUE,1427.116,19,"female"
"718",11,"ab",1,118,"hl","hh",FALSE,1277.465,19,"female"
"719",11,"ab",1,119,"hl","hh",FALSE,1542.489,19,"female"
"720",11,"ab",1,120,"lh","lh",TRUE,2866.097,19,"female"
"721",11,"ab",2,1,"ll","ll",TRUE,1706.301,19,"female"
"722",11,"ab",2,2,"hl","ll",FALSE,1022.606,19,"female"
"723",11,"ab",2,3,"hl","hh",FALSE,1212.568,19,"female"
"724",11,"ab",2,4,"hl","hl",TRUE,1956.776,19,"female"
"725",11,"ab",2,5,"hh","hh",TRUE,1086.868,19,"female"
"726",11,"ab",2,6,"lh","ll",FALSE,1219.175,19,"female"
"727",11,"ab",2,7,"hh","hh",TRUE,1048.441,19,"female"
"728",11,"ab",2,8,"lh","lh",TRUE,1361.625,19,"female"
"729",11,"ab",2,9,"hh","lh",FALSE,2770.261,19,"female"
"730",11,"ab",2,10,"lh","ll",FALSE,7244.494,19,"female"
"731",11,"ab",2,11,"lh","hh",FALSE,1585.177,19,"female"
"732",11,"ab",2,12,"hl","lh",FALSE,5200.092,19,"female"
"733",11,"ab",2,13,"hh","hh",TRUE,1146.346,19,"female"
"734",11,"ab",2,14,"lh","ll",FALSE,1268.958,19,"female"
"735",11,"ab",2,15,"hh","hh",TRUE,2793.002,19,"female"
"736",11,"ab",2,16,"hh","lh",FALSE,1425.168,19,"female"
"737",11,"ab",2,17,"hl","lh",FALSE,10626.657,19,"female"
"738",11,"ab",2,18,"ll","hh",FALSE,6088.373,19,"female"
"739",11,"ab",2,19,"lh","ll",FALSE,2901.028,19,"female"
"740",11,"ab",2,20,"lh","lh",TRUE,1408.684,19,"female"
"741",11,"ab",2,21,"hh","hh",TRUE,13438.471,19,"female"
"742",11,"ab",2,22,"hl","hh",FALSE,2006.876,19,"female"
"743",11,"ab",2,23,"ll","ll",TRUE,1006.239,19,"female"
"744",11,"ab",2,24,"lh","lh",TRUE,2246.088,19,"female"
"745",11,"ab",2,25,"ll","ll",TRUE,1846.43,19,"female"
"746",11,"ab",2,26,"ll","ll",TRUE,1780.615,19,"female"
"747",11,"ab",2,27,"hl","hl",TRUE,2378.709,19,"female"
"748",11,"ab",2,28,"lh","lh",TRUE,1243.163,19,"female"
"749",11,"ab",2,29,"hl","hl",TRUE,875.126,19,"female"
"750",11,"ab",2,30,"lh","hl",FALSE,4326.606,19,"female"
"751",11,"ab",2,31,"lh","hl",FALSE,2475.675,19,"female"
"752",11,"ab",2,32,"hl","hh",FALSE,1665.807,19,"female"
"753",11,"ab",2,33,"hl","lh",FALSE,1692.466,19,"female"
"754",11,"ab",2,34,"ll","lh",FALSE,5963.899,19,"female"
"755",11,"ab",2,35,"ll","ll",TRUE,2514.529,19,"female"
"756",11,"ab",2,36,"hl","hh",FALSE,2176.52,19,"female"
"757",11,"ab",2,37,"ll","ll",TRUE,2247.713,19,"female"
"758",11,"ab",2,38,"hh","hh",TRUE,1110.69,19,"female"
"759",11,"ab",2,39,"hl","ll",FALSE,1170.553,19,"female"
"760",11,"ab",2,40,"hh","lh",FALSE,3676.161,19,"female"
"761",11,"ab",2,41,"ll","lh",FALSE,4257.227,19,"female"
"762",11,"ab",2,42,"hl","hl",TRUE,2295.884,19,"female"
"763",11,"ab",2,43,"ll","ll",TRUE,2427.651,19,"female"
"764",11,"ab",2,44,"lh","lh",TRUE,3646.686,19,"female"
"765",11,"ab",2,45,"","",FALSE,14799.805,19,"female"
"766",11,"ab",2,46,"hl","lh",FALSE,1775.65,19,"female"
"767",11,"ab",2,47,"lh","lh",TRUE,1761.197,19,"female"
"768",11,"ab",2,48,"lh","lh",TRUE,2026.538,19,"female"
"769",11,"ab",2,49,"ll","lh",FALSE,1913.474,19,"female"
"770",11,"ab",2,50,"hh","hh",TRUE,989.22,19,"female"
"771",11,"ab",2,51,"lh","hh",FALSE,1013.852,19,"female"
"772",11,"ab",2,52,"ll","ll",TRUE,1612.644,19,"female"
"773",11,"ab",2,53,"hl","ll",FALSE,1484.395,19,"female"
"774",11,"ab",2,54,"hl","ll",FALSE,2513.127,19,"female"
"775",11,"ab",2,55,"hl","lh",FALSE,1601.982,19,"female"
"776",11,"ab",2,56,"hh","hh",TRUE,900.146,19,"female"
"777",11,"ab",2,57,"hl","ll",FALSE,1889.306,19,"female"
"778",11,"ab",2,58,"hh","lh",FALSE,3165.24,19,"female"
"779",11,"ab",2,59,"ll","ll",TRUE,1022.308,19,"female"
"780",11,"ab",2,60,"ll","ll",TRUE,1565.912,19,"female"
"781",11,"ab",2,61,"hh","hh",TRUE,1173.232,19,"female"
"782",11,"ab",2,62,"lh","hl",FALSE,2408.487,19,"female"
"783",11,"ab",2,63,"lh","ll",FALSE,1422.331,19,"female"
"784",11,"ab",2,64,"ll","lh",FALSE,3864.519,19,"female"
"785",11,"ab",2,65,"hl","hh",FALSE,3163.123,19,"female"
"786",11,"ab",2,66,"hl","hl",TRUE,1871.557,19,"female"
"787",11,"ab",2,67,"hl","lh",FALSE,2869.374,19,"female"
"788",11,"ab",2,68,"lh","hl",FALSE,1777.712,19,"female"
"789",11,"ab",2,69,"hh","lh",FALSE,2337.575,19,"female"
"790",11,"ab",2,70,"hh","hh",TRUE,3660.507,19,"female"
"791",11,"ab",2,71,"hl","lh",FALSE,4162.777,19,"female"
"792",11,"ab",2,72,"lh","hh",FALSE,3291.991,19,"female"
"793",11,"ab",2,73,"hl","hh",FALSE,1448.044,19,"female"
"794",11,"ab",2,74,"ll","ll",TRUE,1086.906,19,"female"
"795",11,"ab",2,75,"ll","ll",TRUE,1280.491,19,"female"
"796",11,"ab",2,76,"hh","hh",TRUE,1807.905,19,"female"
"797",11,"ab",2,77,"hl","hl",TRUE,3917.203,19,"female"
"798",11,"ab",2,78,"hl","hl",TRUE,2314.47,19,"female"
"799",11,"ab",2,79,"hh","lh",FALSE,1212.627,19,"female"
"800",11,"ab",2,80,"hl","hl",TRUE,7202.884,19,"female"
"801",11,"ab",2,81,"lh","hh",FALSE,1300.843,19,"female"
"802",11,"ab",2,82,"hh","lh",FALSE,1007.707,19,"female"
"803",11,"ab",2,83,"ll","hl",FALSE,2817.073,19,"female"
"804",11,"ab",2,84,"ll","lh",FALSE,1232.872,19,"female"
"805",11,"ab",2,85,"hl","lh",FALSE,4040.255,19,"female"
"806",11,"ab",2,86,"hh","hh",TRUE,1317.969,19,"female"
"807",11,"ab",2,87,"hl","ll",FALSE,2463.385,19,"female"
"808",11,"ab",2,88,"lh","ll",FALSE,1102.635,19,"female"
"809",11,"ab",2,89,"ll","ll",TRUE,2529.467,19,"female"
"810",11,"ab",2,90,"lh","lh",TRUE,3013.857,19,"female"
"811",11,"ab",2,91,"hl","hl",TRUE,5909.499,19,"female"
"812",11,"ab",2,92,"lh","hh",FALSE,2119.82,19,"female"
"813",11,"ab",2,93,"ll","lh",FALSE,2241.305,19,"female"
"814",11,"ab",2,94,"hl","lh",FALSE,2048.129,19,"female"
"815",11,"ab",2,95,"hh","lh",FALSE,4911.053,19,"female"
"816",11,"ab",2,96,"ll","ll",TRUE,1179.301,19,"female"
"817",11,"ab",2,97,"lh","lh",TRUE,5417.438,19,"female"
"818",11,"ab",2,98,"lh","lh",TRUE,4308.51,19,"female"
"819",11,"ab",2,99,"lh","hl",FALSE,2253.641,19,"female"
"820",11,"ab",2,100,"ll","lh",FALSE,1693.755,19,"female"
"821",11,"ab",2,101,"hl","hl",TRUE,3002.356,19,"female"
"822",11,"ab",2,102,"ll","ll",TRUE,1264.166,19,"female"
"823",11,"ab",2,103,"hh","hh",TRUE,1039.199,19,"female"
"824",11,"ab",2,104,"hh","hh",TRUE,1222.118,19,"female"
"825",11,"ab",2,105,"lh","lh",TRUE,4403.479,19,"female"
"826",11,"ab",2,106,"lh","lh",TRUE,1259.289,19,"female"
"827",11,"ab",2,107,"lh","ll",FALSE,4587.707,19,"female"
"828",11,"ab",2,108,"ll","hl",FALSE,2852.957,19,"female"
"829",11,"ab",2,109,"ll","hl",FALSE,3266.505,19,"female"
"830",11,"ab",2,110,"lh","lh",TRUE,7112.207,19,"female"
"831",11,"ab",2,111,"lh","lh",TRUE,1242.993,19,"female"
"832",11,"ab",2,112,"ll","hl",FALSE,3799.345,19,"female"
"833",11,"ab",2,113,"hl","hl",TRUE,2382.953,19,"female"
"834",11,"ab",2,114,"hl","hl",TRUE,7410.653,19,"female"
"835",11,"ab",2,115,"hl","ll",FALSE,1952.069,19,"female"
"836",11,"ab",2,116,"hh","hh",TRUE,1108.474,19,"female"
"837",11,"ab",2,117,"hh","lh",FALSE,1872.301,19,"female"
"838",11,"ab",2,118,"hl","hl",TRUE,1530.959,19,"female"
"839",11,"ab",2,119,"hl","hl",TRUE,1119.538,19,"female"
"840",11,"ab",2,120,"hh","hl",FALSE,3098.838,19,"female"
"841",11,"ab",3,1,"hl","hh",FALSE,2534.844,19,"female"
"842",11,"ab",3,2,"ll","hl",FALSE,2073.911,19,"female"
"843",11,"ab",3,3,"ll","ll",TRUE,3357.058,19,"female"
"844",11,"ab",3,4,"lh","lh",TRUE,3361.858,19,"female"
"845",11,"ab",3,5,"ll","hh",FALSE,2739.157,19,"female"
"846",11,"ab",3,6,"lh","hl",FALSE,2869.173,19,"female"
"847",11,"ab",3,7,"lh","ll",FALSE,2227.308,19,"female"
"848",11,"ab",3,8,"hh","lh",FALSE,1457.903,19,"female"
"849",11,"ab",3,9,"hh","lh",FALSE,2311.308,19,"female"
"850",11,"ab",3,10,"hh","lh",FALSE,3568.003,19,"female"
"851",11,"ab",3,11,"ll","ll",TRUE,2660.47,19,"female"
"852",11,"ab",3,12,"lh","lh",TRUE,2962.777,19,"female"
"853",11,"ab",3,13,"hl","lh",FALSE,5018.749,19,"female"
"854",11,"ab",3,14,"hl","hh",FALSE,1042.385,19,"female"
"855",11,"ab",3,15,"hh","lh",FALSE,1296.958,19,"female"
"856",11,"ab",3,16,"ll","lh",FALSE,1428.843,19,"female"
"857",11,"ab",3,17,"hl","hl",TRUE,2048.885,19,"female"
"858",11,"ab",3,18,"ll","hl",FALSE,1882.9,19,"female"
"859",11,"ab",3,19,"hl","hh",FALSE,1926.715,19,"female"
"860",11,"ab",3,20,"ll","hl",FALSE,1274.216,19,"female"
"861",11,"ab",3,21,"ll","hl",FALSE,2704.302,19,"female"
"862",11,"ab",3,22,"ll","ll",TRUE,3908.255,19,"female"
"863",11,"ab",3,23,"hh","hh",TRUE,983.12,19,"female"
"864",11,"ab",3,24,"hl","lh",FALSE,2959.991,19,"female"
"865",11,"ab",3,25,"hl","lh",FALSE,4209.632,19,"female"
"866",11,"ab",3,26,"ll","ll",TRUE,1233.705,19,"female"
"867",11,"ab",3,27,"hh","lh",FALSE,1549.522,19,"female"
"868",11,"ab",3,28,"hl","hl",TRUE,1408.321,19,"female"
"869",11,"ab",3,29,"ll","ll",TRUE,1826.232,19,"female"
"870",11,"ab",3,30,"ll","ll",TRUE,898.345,19,"female"
"871",11,"ab",3,31,"hh","lh",FALSE,1429.475,19,"female"
"872",11,"ab",3,32,"hl","hl",TRUE,2188.38,19,"female"
"873",11,"ab",3,33,"lh","hl",FALSE,8907.228,19,"female"
"874",11,"ab",3,34,"hl","hh",FALSE,1393.526,19,"female"
"875",11,"ab",3,35,"hl","lh",FALSE,1120.319,19,"female"
"876",11,"ab",3,36,"hh","hh",TRUE,1206.294,19,"female"
"877",11,"ab",3,37,"lh","lh",TRUE,4069.438,19,"female"
"878",11,"ab",3,38,"hl","hl",TRUE,5986.602,19,"female"
"879",11,"ab",3,39,"lh","lh",TRUE,2273.163,19,"female"
"880",11,"ab",3,40,"lh","hl",FALSE,2782.108,19,"female"
"881",11,"ab",3,41,"hh","hh",TRUE,1614.911,19,"female"
"882",11,"ab",3,42,"lh","lh",TRUE,1553.003,19,"female"
"883",11,"ab",3,43,"hl","hl",TRUE,3818.727,19,"female"
"884",11,"ab",3,44,"ll","hl",FALSE,6346.804,19,"female"
"885",11,"ab",3,45,"ll","ll",TRUE,1189.146,19,"female"
"886",11,"ab",3,46,"hh","hh",TRUE,994.614,19,"female"
"887",11,"ab",3,47,"lh","hh",FALSE,1861.175,19,"female"
"888",11,"ab",3,48,"ll","lh",FALSE,1202.21,19,"female"
"889",11,"ab",3,49,"hl","lh",FALSE,1514.978,19,"female"
"890",11,"ab",3,50,"hl","hh",FALSE,1575.04,19,"female"
"891",11,"ab",3,51,"lh","hl",FALSE,5910.885,19,"female"
"892",11,"ab",3,52,"hl","hh",FALSE,1857.973,19,"female"
"893",11,"ab",3,53,"ll","ll",TRUE,3262.226,19,"female"
"894",11,"ab",3,54,"ll","lh",FALSE,2533.617,19,"female"
"895",11,"ab",3,55,"hh","hh",TRUE,1113.588,19,"female"
"896",11,"ab",3,56,"ll","ll",TRUE,1180.8,19,"female"
"897",11,"ab",3,57,"hl","ll",FALSE,1572.441,19,"female"
"898",11,"ab",3,58,"hh","hh",TRUE,1262.326,19,"female"
"899",11,"ab",3,59,"hh","hh",TRUE,960.77,19,"female"
"900",11,"ab",3,60,"ll","hl",FALSE,2374.242,19,"female"
"901",11,"ab",3,61,"lh","lh",TRUE,6396.684,19,"female"
"902",11,"ab",3,62,"hh","lh",FALSE,1014.134,19,"female"
"903",11,"ab",3,63,"ll","ll",TRUE,1294.633,19,"female"
"904",11,"ab",3,64,"hh","lh",FALSE,5358.194,19,"female"
"905",11,"ab",3,65,"hl","hh",FALSE,2180.596,19,"female"
"906",11,"ab",3,66,"hh","hh",TRUE,3930.565,19,"female"
"907",11,"ab",3,67,"hl","ll",FALSE,3975.339,19,"female"
"908",11,"ab",3,68,"lh","lh",TRUE,5685.867,19,"female"
"909",11,"ab",3,69,"lh","hl",FALSE,3941.548,19,"female"
"910",11,"ab",3,70,"lh","lh",TRUE,1800.525,19,"female"
"911",11,"ab",3,71,"hh","lh",FALSE,4103.396,19,"female"
"912",11,"ab",3,72,"hl","lh",FALSE,3017.257,19,"female"
"913",11,"ab",3,73,"hl","lh",FALSE,1083.386,19,"female"
"914",11,"ab",3,74,"hh","hh",TRUE,1913.102,19,"female"
"915",11,"ab",3,75,"hl","hh",FALSE,1744.564,19,"female"
"916",11,"ab",3,76,"ll","ll",TRUE,1710.796,19,"female"
"917",11,"ab",3,77,"hh","hh",TRUE,1488.534,19,"female"
"918",11,"ab",3,78,"hl","ll",FALSE,1926.093,19,"female"
"919",11,"ab",3,79,"ll","ll",TRUE,1718.984,19,"female"
"920",11,"ab",3,80,"hh","lh",FALSE,3388.798,19,"female"
"921",11,"ab",3,81,"ll","ll",TRUE,2166.079,19,"female"
"922",11,"ab",3,82,"ll","ll",TRUE,1234.983,19,"female"
"923",11,"ab",3,83,"hl","hl",TRUE,3396.793,19,"female"
"924",11,"ab",3,84,"hl","hl",TRUE,3709.477,19,"female"
"925",11,"ab",3,85,"hl","hh",FALSE,3392.626,19,"female"
"926",11,"ab",3,86,"hh","lh",FALSE,1839.342,19,"female"
"927",11,"ab",3,87,"hl","ll",FALSE,1984.182,19,"female"
"928",11,"ab",3,88,"hh","lh",FALSE,4502.407,19,"female"
"929",11,"ab",3,89,"ll","ll",TRUE,2341.661,19,"female"
"930",11,"ab",3,90,"ll","lh",FALSE,5487.382,19,"female"
"931",11,"ab",3,91,"hl","lh",FALSE,4308.32,19,"female"
"932",11,"ab",3,92,"hh","hh",TRUE,4392.253,19,"female"
"933",11,"ab",3,93,"hh","hh",TRUE,2585.809,19,"female"
"934",11,"ab",3,94,"hl","ll",FALSE,1658.312,19,"female"
"935",11,"ab",3,95,"ll","ll",TRUE,1737.026,19,"female"
"936",11,"ab",3,96,"ll","ll",TRUE,1474.197,19,"female"
"937",11,"ab",3,97,"ll","ll",TRUE,3767.616,19,"female"
"938",11,"ab",3,98,"hl","hl",TRUE,2600.577,19,"female"
"939",11,"ab",3,99,"ll","hl",FALSE,2440.785,19,"female"
"940",11,"ab",3,100,"lh","lh",TRUE,4172.345,19,"female"
"941",11,"ab",3,101,"lh","lh",TRUE,2094.889,19,"female"
"942",11,"ab",3,102,"lh","ll",FALSE,2925.687,19,"female"
"943",11,"ab",3,103,"hl","ll",FALSE,1661.446,19,"female"
"944",11,"ab",3,104,"hl","hh",FALSE,2549.133,19,"female"
"945",11,"ab",3,105,"hl","hh",FALSE,1472.036,19,"female"
"946",11,"ab",3,106,"ll","hl",FALSE,1994.629,19,"female"
"947",11,"ab",3,107,"lh","lh",TRUE,8439.308,19,"female"
"948",11,"ab",3,108,"ll","ll",TRUE,2810.136,19,"female"
"949",11,"ab",3,109,"lh","hh",FALSE,5210.122,19,"female"
"950",11,"ab",3,110,"hh","hh",TRUE,6052.835,19,"female"
"951",11,"ab",3,111,"hh","hh",TRUE,3287.867,19,"female"
"952",11,"ab",3,112,"ll","ll",TRUE,1720.25,19,"female"
"953",11,"ab",3,113,"hl","hh",FALSE,8955.786,19,"female"
"954",11,"ab",3,114,"hl","lh",FALSE,4060.691,19,"female"
"955",11,"ab",3,115,"lh","ll",FALSE,1838.326,19,"female"
"956",11,"ab",3,116,"lh","hl",FALSE,1761.808,19,"female"
"957",11,"ab",3,117,"ll","ll",TRUE,1490.509,19,"female"
"958",11,"ab",3,118,"ll","lh",FALSE,1213.788,19,"female"
"959",11,"ab",3,119,"hh","lh",FALSE,2517.138,19,"female"
"960",11,"ab",3,120,"lh","hh",FALSE,1438.066,19,"female"
"961",11,"ab",4,1,"lh","hh",FALSE,1623.884,19,"female"
"962",11,"ab",4,2,"hh","lh",FALSE,3159.497,19,"female"
"963",11,"ab",4,3,"hh","hh",TRUE,961.108,19,"female"
"964",11,"ab",4,4,"hl","hh",FALSE,910.753,19,"female"
"965",11,"ab",4,5,"hh","lh",FALSE,1717.954,19,"female"
"966",11,"ab",4,6,"hl","lh",FALSE,1833.13,19,"female"
"967",11,"ab",4,7,"lh","hl",FALSE,3312.755,19,"female"
"968",11,"ab",4,8,"hh","lh",FALSE,1240.338,19,"female"
"969",11,"ab",4,9,"lh","ll",FALSE,2090.783,19,"female"
"970",11,"ab",4,10,"ll","ll",TRUE,1190.775,19,"female"
"971",11,"ab",4,11,"ll","hl",FALSE,2695.027,19,"female"
"972",11,"ab",4,12,"lh","hh",FALSE,1519.892,19,"female"
"973",11,"ab",4,13,"ll","ll",TRUE,1016.046,19,"female"
"974",11,"ab",4,14,"lh","lh",TRUE,6806.736,19,"female"
"975",11,"ab",4,15,"ll","ll",TRUE,1227.18,19,"female"
"976",11,"ab",4,16,"hh","hh",TRUE,1701.8,19,"female"
"977",11,"ab",4,17,"hl","hh",FALSE,991.998,19,"female"
"978",11,"ab",4,18,"hh","lh",FALSE,1187.055,19,"female"
"979",11,"ab",4,19,"hl","lh",FALSE,3387.412,19,"female"
"980",11,"ab",4,20,"hl","lh",FALSE,2792.599,19,"female"
"981",11,"ab",4,21,"ll","ll",TRUE,1852.58,19,"female"
"982",11,"ab",4,22,"hh","lh",FALSE,2979.02,19,"female"
"983",11,"ab",4,23,"lh","hl",FALSE,3944.118,19,"female"
"984",11,"ab",4,24,"ll","ll",TRUE,1711.058,19,"female"
"985",11,"ab",4,25,"lh","hh",FALSE,2785.486,19,"female"
"986",11,"ab",4,26,"hh","hh",TRUE,1810.154,19,"female"
"987",11,"ab",4,27,"ll","ll",TRUE,1498.842,19,"female"
"988",11,"ab",4,28,"hl","hh",FALSE,947.117,19,"female"
"989",11,"ab",4,29,"hh","lh",FALSE,3288.249,19,"female"
"990",11,"ab",4,30,"lh","hl",FALSE,3076.724,19,"female"
"991",11,"ab",4,31,"hh","lh",FALSE,1754.891,19,"female"
"992",11,"ab",4,32,"hl","lh",FALSE,8195.023,19,"female"
"993",11,"ab",4,33,"lh","hl",FALSE,2692.092,19,"female"
"994",11,"ab",4,34,"hl","hh",FALSE,2660.71,19,"female"
"995",11,"ab",4,35,"hh","lh",FALSE,4661.804,19,"female"
"996",11,"ab",4,36,"ll","hl",FALSE,2236.121,19,"female"
"997",11,"ab",4,37,"hh","lh",FALSE,1715.231,19,"female"
"998",11,"ab",4,38,"lh","hl",FALSE,4125.508,19,"female"
"999",11,"ab",4,39,"ll","ll",TRUE,1909.932,19,"female"
"1000",11,"ab",4,40,"hh","lh",FALSE,2278.369,19,"female"
"1001",11,"ab",4,41,"lh","hl",FALSE,6929.62,19,"female"
"1002",11,"ab",4,42,"hh","hh",TRUE,2136.616,19,"female"
"1003",11,"ab",4,43,"hh","hh",TRUE,1192.518,19,"female"
"1004",11,"ab",4,44,"hh","hh",TRUE,1671.37,19,"female"
"1005",11,"ab",4,45,"hh","lh",FALSE,5477.421,19,"female"
"1006",11,"ab",4,46,"hl","hh",FALSE,2496.893,19,"female"
"1007",11,"ab",4,47,"hh","lh",FALSE,1789.114,19,"female"
"1008",11,"ab",4,48,"hh","lh",FALSE,2766.667,19,"female"
"1009",11,"ab",4,49,"hl","lh",FALSE,3103.62,19,"female"
"1010",11,"ab",4,50,"ll","ll",TRUE,1803.247,19,"female"
"1011",11,"ab",4,51,"hl","ll",FALSE,1663.607,19,"female"
"1012",11,"ab",4,52,"ll","ll",TRUE,1526.226,19,"female"
"1013",11,"ab",4,53,"lh","hh",FALSE,2820.881,19,"female"
"1014",11,"ab",4,54,"hl","hl",TRUE,6235.959,19,"female"
"1015",11,"ab",4,55,"lh","hh",FALSE,1474.223,19,"female"
"1016",11,"ab",4,56,"hh","hh",TRUE,1300.878,19,"female"
"1017",11,"ab",4,57,"hl","hh",FALSE,1003.498,19,"female"
"1018",11,"ab",4,58,"hl","hh",FALSE,1147.044,19,"female"
"1019",11,"ab",4,59,"hl","ll",FALSE,2538.419,19,"female"
"1020",11,"ab",4,60,"hl","hh",FALSE,3904.952,19,"female"
"1021",11,"ab",4,61,"hh","hh",TRUE,3117.411,19,"female"
"1022",11,"ab",4,62,"hl","hh",FALSE,9111.407,19,"female"
"1023",11,"ab",4,63,"ll","hl",FALSE,2491.156,19,"female"
"1024",11,"ab",4,64,"hl","hh",FALSE,1223.545,19,"female"
"1025",11,"ab",4,65,"hh","hh",TRUE,1335.1,19,"female"
"1026",11,"ab",4,66,"lh","hl",FALSE,3710.472,19,"female"
"1027",11,"ab",4,67,"lh","hh",FALSE,2125.261,19,"female"
"1028",11,"ab",4,68,"lh","hl",FALSE,2417.814,19,"female"
"1029",11,"ab",4,69,"hh","hh",TRUE,1264.082,19,"female"
"1030",11,"ab",4,70,"hh","lh",FALSE,3614.343,19,"female"
"1031",11,"ab",4,71,"lh","ll",FALSE,2034.344,19,"female"
"1032",11,"ab",4,72,"hl","hh",FALSE,2227.96,19,"female"
"1033",11,"ab",4,73,"hl","ll",FALSE,6666.071,19,"female"
"1034",11,"ab",4,74,"hh","hh",TRUE,1728.566,19,"female"
"1035",11,"ab",4,75,"ll","ll",TRUE,1936.877,19,"female"
"1036",11,"ab",4,76,"hh","lh",FALSE,1846.089,19,"female"
"1037",11,"ab",4,77,"hh","hh",TRUE,4747.627,19,"female"
"1038",11,"ab",4,78,"hh","hh",TRUE,1750.064,19,"female"
"1039",11,"ab",4,79,"ll","ll",TRUE,2033.026,19,"female"
"1040",11,"ab",4,80,"ll","ll",TRUE,847.644,19,"female"
"1041",11,"ab",4,81,"ll","ll",TRUE,868.553,19,"female"
"1042",11,"ab",4,82,"ll","hl",FALSE,2410.116,19,"female"
"1043",11,"ab",4,83,"hh","lh",FALSE,3489.346,19,"female"
"1044",11,"ab",4,84,"lh","ll",FALSE,2342.037,19,"female"
"1045",11,"ab",4,85,"hl","lh",FALSE,6903.622,19,"female"
"1046",11,"ab",4,86,"lh","ll",FALSE,2181.731,19,"female"
"1047",11,"ab",4,87,"lh","ll",FALSE,7173.035,19,"female"
"1048",11,"ab",4,88,"hh","lh",FALSE,2126.594,19,"female"
"1049",11,"ab",4,89,"ll","hh",FALSE,2343.11,19,"female"
"1050",11,"ab",4,90,"hl","lh",FALSE,4934.749,19,"female"
"1051",11,"ab",4,91,"hl","hh",FALSE,5727.662,19,"female"
"1052",11,"ab",4,92,"ll","hl",FALSE,2216.341,19,"female"
"1053",11,"ab",4,93,"hh","hh",TRUE,2390.504,19,"female"
"1054",11,"ab",4,94,"ll","ll",TRUE,1786.943,19,"female"
"1055",11,"ab",4,95,"ll","lh",FALSE,4226.834,19,"female"
"1056",11,"ab",4,96,"lh","lh",TRUE,12502.297,19,"female"
"1057",11,"ab",4,97,"hh","hh",TRUE,2466.524,19,"female"
"1058",11,"ab",4,98,"hh","hh",TRUE,2971.872,19,"female"
"1059",11,"ab",4,99,"ll","ll",TRUE,2537.508,19,"female"
"1060",11,"ab",4,100,"ll","hl",FALSE,3460.195,19,"female"
"1061",11,"ab",4,101,"hh","lh",FALSE,2010.999,19,"female"
"1062",11,"ab",4,102,"ll","ll",TRUE,3149.423,19,"female"
"1063",11,"ab",4,103,"hh","hl",FALSE,6728.447,19,"female"
"1064",11,"ab",4,104,"ll","ll",TRUE,3354.934,19,"female"
"1065",11,"ab",4,105,"lh","lh",TRUE,3180.994,19,"female"
"1066",11,"ab",4,106,"hh","hh",TRUE,5922.941,19,"female"
"1067",11,"ab",4,107,"hl","hh",FALSE,2728.916,19,"female"
"1068",11,"ab",4,108,"hh","hh",TRUE,1555.924,19,"female"
"1069",11,"ab",4,109,"lh","lh",TRUE,3092.9,19,"female"
"1070",11,"ab",4,110,"hl","lh",FALSE,2881.312,19,"female"
"1071",11,"ab",4,111,"hl","hl",TRUE,2190.751,19,"female"
"1072",11,"ab",4,112,"lh","lh",TRUE,3150.644,19,"female"
"1073",11,"ab",4,113,"ll","hl",FALSE,1517.413,19,"female"
"1074",11,"ab",4,114,"hl","hh",FALSE,3101.402,19,"female"
"1075",11,"ab",4,115,"lh","lh",TRUE,5268.257,19,"female"
"1076",11,"ab",4,116,"hl","ll",FALSE,3581.37,19,"female"
"1077",11,"ab",4,117,"lh","hh",FALSE,3157.812,19,"female"
"1078",11,"ab",4,118,"hh","lh",FALSE,3775.874,19,"female"
"1079",11,"ab",4,119,"hl","hh",FALSE,2344.929,19,"female"
"1080",11,"ab",4,120,"hl","hh",FALSE,1967.028,19,"female"
"1081",11,"ab",5,1,"ll","ll",TRUE,1604.024,19,"female"
"1082",11,"ab",5,2,"hl","hl",TRUE,1472.234,19,"female"
"1083",11,"ab",5,3,"hl","hh",FALSE,2889.862,19,"female"
"1084",11,"ab",5,4,"hl","hh",FALSE,1479.351,19,"female"
"1085",11,"ab",5,5,"ll","hl",FALSE,1475.752,19,"female"
"1086",11,"ab",5,6,"hh","hh",TRUE,1856.066,19,"female"
"1087",11,"ab",5,7,"hl","ll",FALSE,3322.572,19,"female"
"1088",11,"ab",5,8,"hh","hh",TRUE,1378.924,19,"female"
"1089",11,"ab",5,9,"hh","hh",TRUE,1466.099,19,"female"
"1090",11,"ab",5,10,"hh","hh",TRUE,1360.535,19,"female"
"1091",11,"ab",5,11,"hh","hh",TRUE,2495.261,19,"female"
"1092",11,"ab",5,12,"hl","lh",FALSE,6020.411,19,"female"
"1093",11,"ab",5,13,"ll","ll",TRUE,5908.989,19,"female"
"1094",11,"ab",5,14,"ll","ll",TRUE,2152.972,19,"female"
"1095",11,"ab",5,15,"lh","lh",TRUE,1610.446,19,"female"
"1096",11,"ab",5,16,"lh","hh",FALSE,1422.566,19,"female"
"1097",11,"ab",5,17,"lh","lh",TRUE,1417.397,19,"female"
"1098",11,"ab",5,18,"ll","ll",TRUE,1317.532,19,"female"
"1099",11,"ab",5,19,"hh","hh",TRUE,1420.816,19,"female"
"1100",11,"ab",5,20,"hh","lh",FALSE,1588.56,19,"female"
"1101",11,"ab",5,21,"lh","lh",TRUE,3632.891,19,"female"
"1102",11,"ab",5,22,"hh","lh",FALSE,9155.28,19,"female"
"1103",11,"ab",5,23,"hl","hl",TRUE,5929.395,19,"female"
"1104",11,"ab",5,24,"hl","ll",FALSE,1967.251,19,"female"
"1105",11,"ab",5,25,"ll","ll",TRUE,2010.307,19,"female"
"1106",11,"ab",5,26,"hl","ll",FALSE,1945.658,19,"female"
"1107",11,"ab",5,27,"ll","lh",FALSE,5826.732,19,"female"
"1108",11,"ab",5,28,"lh","lh",TRUE,9258.418,19,"female"
"1109",11,"ab",5,29,"hh","hh",TRUE,2416.619,19,"female"
"1110",11,"ab",5,30,"hl","hh",FALSE,6551.696,19,"female"
"1111",11,"ab",5,31,"lh","lh",TRUE,3467.063,19,"female"
"1112",11,"ab",5,32,"lh","hl",FALSE,4467.35,19,"female"
"1113",11,"ab",5,33,"hl","ll",FALSE,5675.666,19,"female"
"1114",11,"ab",5,34,"hl","hh",FALSE,4176.848,19,"female"
"1115",11,"ab",5,35,"ll","ll",TRUE,2390.606,19,"female"
"1116",11,"ab",5,36,"hh","lh",FALSE,1508.063,19,"female"
"1117",11,"ab",5,37,"hl","hh",FALSE,6135.187,19,"female"
"1118",11,"ab",5,38,"lh","hh",FALSE,6647.269,19,"female"
"1119",11,"ab",5,39,"hl","hh",FALSE,1072.527,19,"female"
"1120",11,"ab",5,40,"hl","hl",TRUE,2405.025,19,"female"
"1121",11,"ab",5,41,"hh","hh",TRUE,1289.267,19,"female"
"1122",11,"ab",5,42,"hl","ll",FALSE,3834.107,19,"female"
"1123",11,"ab",5,43,"hh","lh",FALSE,2768.712,19,"female"
"1124",11,"ab",5,44,"ll","ll",TRUE,5649.666,19,"female"
"1125",11,"ab",5,45,"hl","hh",FALSE,1304.581,19,"female"
"1126",11,"ab",5,46,"lh","hh",FALSE,1389.374,19,"female"
"1127",11,"ab",5,47,"lh","hh",FALSE,2092.121,19,"female"
"1128",11,"ab",5,48,"lh","ll",FALSE,2241.422,19,"female"
"1129",11,"ab",5,49,"hh","hh",TRUE,1368.069,19,"female"
"1130",11,"ab",5,50,"hh","hh",TRUE,1357.759,19,"female"
"1131",11,"ab",5,51,"hh","hh",TRUE,1679.813,19,"female"
"1132",11,"ab",5,52,"ll","hl",FALSE,1671.806,19,"female"
"1133",11,"ab",5,53,"hh","hh",TRUE,1321.769,19,"female"
"1134",11,"ab",5,54,"ll","ll",TRUE,1440.9,19,"female"
"1135",11,"ab",5,55,"lh","hh",FALSE,2827.948,19,"female"
"1136",11,"ab",5,56,"ll","hl",FALSE,1805.198,19,"female"
"1137",11,"ab",5,57,"hh","hh",TRUE,1218.597,19,"female"
"1138",11,"ab",5,58,"hh","hh",TRUE,989.246,19,"female"
"1139",11,"ab",5,59,"hl","lh",FALSE,2238.586,19,"female"
"1140",11,"ab",5,60,"ll","lh",FALSE,4660.531,19,"female"
"1141",11,"ab",5,61,"lh","ll",FALSE,5027.34,19,"female"
"1142",11,"ab",5,62,"lh","hl",FALSE,3641.687,19,"female"
"1143",11,"ab",5,63,"ll","ll",TRUE,1760.363,19,"female"
"1144",11,"ab",5,64,"hl","hh",FALSE,1998.284,19,"female"
"1145",11,"ab",5,65,"ll","ll",TRUE,1906.758,19,"female"
"1146",11,"ab",5,66,"hl","lh",FALSE,5250.913,19,"female"
"1147",11,"ab",5,67,"ll","hl",FALSE,11303.86,19,"female"
"1148",11,"ab",5,68,"hh","hh",TRUE,1732.314,19,"female"
"1149",11,"ab",5,69,"ll","ll",TRUE,1262.699,19,"female"
"1150",11,"ab",5,70,"lh","lh",TRUE,3431.872,19,"female"
"1151",11,"ab",5,71,"hl","hl",TRUE,2739.194,19,"female"
"1152",11,"ab",5,72,"lh","hh",FALSE,6934.138,19,"female"
"1153",11,"ab",5,73,"lh","hh",FALSE,4624.142,19,"female"
"1154",11,"ab",5,74,"hh","lh",FALSE,1547.398,19,"female"
"1155",11,"ab",5,75,"ll","hl",FALSE,1537.97,19,"female"
"1156",11,"ab",5,76,"hl","hh",FALSE,2796.137,19,"female"
"1157",11,"ab",5,77,"lh","ll",FALSE,2897.749,19,"female"
"1158",11,"ab",5,78,"hh","hh",TRUE,2437.085,19,"female"
"1159",11,"ab",5,79,"ll","ll",TRUE,2347.373,19,"female"
"1160",11,"ab",5,80,"hl","ll",FALSE,2611.122,19,"female"
"1161",11,"ab",5,81,"lh","hh",FALSE,9141.664,19,"female"
"1162",11,"ab",5,82,"hh","hh",TRUE,4603.759,19,"female"
"1163",11,"ab",5,83,"lh","lh",TRUE,5367.369,19,"female"
"1164",11,"ab",5,84,"hh","hh",TRUE,1673.379,19,"female"
"1165",11,"ab",5,85,"hl","hh",FALSE,1862.661,19,"female"
"1166",11,"ab",5,86,"ll","ll",TRUE,3032.746,19,"female"
"1167",11,"ab",5,87,"hh","lh",FALSE,3806.704,19,"female"
"1168",11,"ab",5,88,"lh","hh",FALSE,1898.592,19,"female"
"1169",11,"ab",5,89,"hh","hh",TRUE,6079.031,19,"female"
"1170",11,"ab",5,90,"hl","hl",TRUE,2767.202,19,"female"
"1171",11,"ab",5,91,"ll","ll",TRUE,1376.961,19,"female"
"1172",11,"ab",5,92,"hl","lh",FALSE,4053.372,19,"female"
"1173",11,"ab",5,93,"hh","hl",FALSE,3548.708,19,"female"
"1174",11,"ab",5,94,"ll","ll",TRUE,1870.239,19,"female"
"1175",11,"ab",5,95,"hl","lh",FALSE,3235.751,19,"female"
"1176",11,"ab",5,96,"hh","lh",FALSE,2045.816,19,"female"
"1177",11,"ab",5,97,"lh","hl",FALSE,3183.835,19,"female"
"1178",11,"ab",5,98,"ll","lh",FALSE,2564.122,19,"female"
"1179",11,"ab",5,99,"ll","ll",TRUE,1777.552,19,"female"
"1180",11,"ab",5,100,"lh","hh",FALSE,3578.985,19,"female"
"1181",11,"ab",5,101,"ll","ll",TRUE,2283.338,19,"female"
"1182",11,"ab",5,102,"hl","hh",FALSE,5289.461,19,"female"
"1183",11,"ab",5,103,"lh","ll",FALSE,4564.916,19,"female"
"1184",11,"ab",5,104,"hh","lh",FALSE,2189.58,19,"female"
"1185",11,"ab",5,105,"hh","hh",TRUE,2656.037,19,"female"
"1186",11,"ab",5,106,"ll","hl",FALSE,3038.778,19,"female"
"1187",11,"ab",5,107,"lh","lh",TRUE,2324.05,19,"female"
"1188",11,"ab",5,108,"hl","ll",FALSE,3094.691,19,"female"
"1189",11,"ab",5,109,"hh","lh",FALSE,1977.053,19,"female"
"1190",11,"ab",5,110,"lh","ll",FALSE,1707.309,19,"female"
"1191",11,"ab",5,111,"lh","lh",TRUE,2903.657,19,"female"
"1192",11,"ab",5,112,"hh","hh",TRUE,1267.33,19,"female"
"1193",11,"ab",5,113,"lh","ll",FALSE,9385.243,19,"female"
"1194",11,"ab",5,114,"lh","ll",FALSE,3297.205,19,"female"
"1195",11,"ab",5,115,"hl","lh",FALSE,2918.141,19,"female"
"1196",11,"ab",5,116,"lh","lh",TRUE,2729.599,19,"female"
"1197",11,"ab",5,117,"lh","lh",TRUE,2500.666,19,"female"
"1198",11,"ab",5,118,"hh","hh",TRUE,1390.776,19,"female"
"1199",11,"ab",5,119,"ll","lh",FALSE,5140.813,19,"female"
"1200",11,"ab",5,120,"hh","hh",TRUE,1327.219,19,"female"
"1201",12,"ab",1,1,"hl","hh",FALSE,11543.578,26,"male"
"1202",12,"ab",1,2,"ll","hh",FALSE,13365.671,26,"male"
"1203",12,"ab",1,3,"lh","ll",FALSE,5611.999,26,"male"
"1204",12,"ab",1,4,"hh","hl",FALSE,6456.855,26,"male"
"1205",12,"ab",1,5,"ll","lh",FALSE,5076.325,26,"male"
"1206",12,"ab",1,6,"ll","hh",FALSE,9846.938,26,"male"
"1207",12,"ab",1,7,"hh","hl",FALSE,8153.531,26,"male"
"1208",12,"ab",1,8,"ll","lh",FALSE,10961.538,26,"male"
"1209",12,"ab",1,9,"hl","hh",FALSE,6311.39,26,"male"
"1210",12,"ab",1,10,"","",FALSE,15016.46,26,"male"
"1211",12,"ab",1,11,"lh","ll",FALSE,8199.595,26,"male"
"1212",12,"ab",1,12,"lh","hl",FALSE,14828.823,26,"male"
"1213",12,"ab",1,13,"ll","ll",TRUE,4952.231,26,"male"
"1214",12,"ab",1,14,"ll","hh",FALSE,6096.422,26,"male"
"1215",12,"ab",1,15,"ll","hl",FALSE,4761.547,26,"male"
"1216",12,"ab",1,16,"ll","ll",TRUE,9447.414,26,"male"
"1217",12,"ab",1,17,"ll","ll",TRUE,3866.455,26,"male"
"1218",12,"ab",1,18,"lh","hh",FALSE,1757.637,26,"male"
"1219",12,"ab",1,19,"ll","ll",TRUE,6052.399,26,"male"
"1220",12,"ab",1,20,"hh","hl",FALSE,5311.817,26,"male"
"1221",12,"ab",1,21,"","",FALSE,15016.523,26,"male"
"1222",12,"ab",1,22,"hl","hl",TRUE,5272.342,26,"male"
"1223",12,"ab",1,23,"hh","hh",TRUE,3170.581,26,"male"
"1224",12,"ab",1,24,"hh","hh",TRUE,1697.676,26,"male"
"1225",12,"ab",1,25,"lh","hh",FALSE,1706.637,26,"male"
"1226",12,"ab",1,26,"ll","ll",TRUE,7556.426,26,"male"
"1227",12,"ab",1,27,"hh","hh",TRUE,1763.103,26,"male"
"1228",12,"ab",1,28,"hh","hh",TRUE,3738.225,26,"male"
"1229",12,"ab",1,29,"ll","lh",FALSE,7729.857,26,"male"
"1230",12,"ab",1,30,"hl","hh",FALSE,2218.163,26,"male"
"1231",12,"ab",1,31,"hl","hh",FALSE,2318.496,26,"male"
"1232",12,"ab",1,32,"hl","lh",FALSE,8863.51,26,"male"
"1233",12,"ab",1,33,"hh","hh",TRUE,3737.348,26,"male"
"1234",12,"ab",1,34,"hl","hl",TRUE,4449.551,26,"male"
"1235",12,"ab",1,35,"hh","hh",TRUE,4364.736,26,"male"
"1236",12,"ab",1,36,"hl","ll",FALSE,11467.505,26,"male"
"1237",12,"ab",1,37,"hl","hh",FALSE,9534.458,26,"male"
"1238",12,"ab",1,38,"hl","lh",FALSE,9517.237,26,"male"
"1239",12,"ab",1,39,"lh","hh",FALSE,1790.906,26,"male"
"1240",12,"ab",1,40,"lh","ll",FALSE,7028.444,26,"male"
"1241",12,"ab",1,41,"hl","hh",FALSE,8311.781,26,"male"
"1242",12,"ab",1,42,"hl","ll",FALSE,9016.962,26,"male"
"1243",12,"ab",1,43,"lh","ll",FALSE,3404.805,26,"male"
"1244",12,"ab",1,44,"hl","hl",TRUE,6210.338,26,"male"
"1245",12,"ab",1,45,"hl","hh",FALSE,3511.655,26,"male"
"1246",12,"ab",1,46,"lh","ll",FALSE,3943.879,26,"male"
"1247",12,"ab",1,47,"hh","hh",TRUE,6311.098,26,"male"
"1248",12,"ab",1,48,"ll","lh",FALSE,4855.597,26,"male"
"1249",12,"ab",1,49,"ll","ll",TRUE,7635.479,26,"male"
"1250",12,"ab",1,50,"lh","lh",TRUE,5311.575,26,"male"
"1251",12,"ab",1,51,"lh","hh",FALSE,3960.296,26,"male"
"1252",12,"ab",1,52,"hl","hh",FALSE,8503.7,26,"male"
"1253",12,"ab",1,53,"hh","hh",TRUE,5521.002,26,"male"
"1254",12,"ab",1,54,"ll","lh",FALSE,7281.743,26,"male"
"1255",12,"ab",1,55,"lh","ll",FALSE,12379.897,26,"male"
"1256",12,"ab",1,56,"hl","lh",FALSE,7417.976,26,"male"
"1257",12,"ab",1,57,"ll","lh",FALSE,5309.728,26,"male"
"1258",12,"ab",1,58,"hh","hl",FALSE,7383.765,26,"male"
"1259",12,"ab",1,59,"hh","hh",TRUE,2077.691,26,"male"
"1260",12,"ab",1,60,"hl","hl",TRUE,6887.166,26,"male"
"1261",12,"ab",1,61,"hl","hh",FALSE,8577.674,26,"male"
"1262",12,"ab",1,62,"ll","lh",FALSE,6759.332,26,"male"
"1263",12,"ab",1,63,"lh","lh",TRUE,5543.031,26,"male"
"1264",12,"ab",1,64,"hh","hh",TRUE,9927.048,26,"male"
"1265",12,"ab",1,65,"lh","lh",TRUE,11191.752,26,"male"
"1266",12,"ab",1,66,"ll","hl",FALSE,4965.639,26,"male"
"1267",12,"ab",1,67,"lh","hh",FALSE,1612.39,26,"male"
"1268",12,"ab",1,68,"ll","ll",TRUE,9656.762,26,"male"
"1269",12,"ab",1,69,"","",FALSE,14883.281,26,"male"
"1270",12,"ab",1,70,"ll","ll",TRUE,6873.03,26,"male"
"1271",12,"ab",1,71,"hl","ll",FALSE,6707.791,26,"male"
"1272",12,"ab",1,72,"hh","hh",TRUE,7028.971,26,"male"
"1273",12,"ab",1,73,"ll","ll",TRUE,2568.473,26,"male"
"1274",12,"ab",1,74,"hl","ll",FALSE,10751.802,26,"male"
"1275",12,"ab",1,75,"lh","lh",TRUE,6287.059,26,"male"
"1276",12,"ab",1,76,"hl","lh",FALSE,11408.855,26,"male"
"1277",12,"ab",1,77,"lh","hh",FALSE,5398.12,26,"male"
"1278",12,"ab",1,78,"ll","ll",TRUE,4619.658,26,"male"
"1279",12,"ab",1,79,"hl","hl",TRUE,5920.403,26,"male"
"1280",12,"ab",1,80,"lh","lh",TRUE,8417.307,26,"male"
"1281",12,"ab",1,81,"hh","hl",FALSE,8477.537,26,"male"
"1282",12,"ab",1,82,"lh","hh",FALSE,8758.478,26,"male"
"1283",12,"ab",1,83,"ll","ll",TRUE,4823.126,26,"male"
"1284",12,"ab",1,84,"ll","ll",TRUE,7363.849,26,"male"
"1285",12,"ab",1,85,"ll","ll",TRUE,3338.072,26,"male"
"1286",12,"ab",1,86,"lh","hh",FALSE,6386.29,26,"male"
"1287",12,"ab",1,87,"hh","ll",FALSE,13488.199,26,"male"
"1288",12,"ab",1,88,"hh","hl",FALSE,7410.242,26,"male"
"1289",12,"ab",1,89,"hl","hl",TRUE,7639.756,26,"male"
"1290",12,"ab",1,90,"lh","hh",FALSE,2595.851,26,"male"
"1291",12,"ab",1,91,"hl","hh",FALSE,5335.787,26,"male"
"1292",12,"ab",1,92,"hh","ll",FALSE,4897.219,26,"male"
"1293",12,"ab",1,93,"ll","ll",TRUE,1930.009,26,"male"
"1294",12,"ab",1,94,"lh","ll",FALSE,7530.27,26,"male"
"1295",12,"ab",1,95,"hh","hh",TRUE,10746.2,26,"male"
"1296",12,"ab",1,96,"hl","ll",FALSE,3385.547,26,"male"
"1297",12,"ab",1,97,"lh","ll",FALSE,7727.408,26,"male"
"1298",12,"ab",1,98,"ll","ll",TRUE,7174.789,26,"male"
"1299",12,"ab",1,99,"hl","hh",FALSE,5142.505,26,"male"
"1300",12,"ab",1,100,"hl","hh",FALSE,3749.619,26,"male"
"1301",12,"ab",1,101,"hh","hh",TRUE,1309.655,26,"male"
"1302",12,"ab",1,102,"hl","hh",FALSE,2999.185,26,"male"
"1303",12,"ab",1,103,"hh","hh",TRUE,5260.115,26,"male"
"1304",12,"ab",1,104,"hh","hh",TRUE,2151.796,26,"male"
"1305",12,"ab",1,105,"lh","hh",FALSE,3695.122,26,"male"
"1306",12,"ab",1,106,"hl","hl",TRUE,3495.387,26,"male"
"1307",12,"ab",1,107,"hh","hh",TRUE,1832.902,26,"male"
"1308",12,"ab",1,108,"lh","hh",FALSE,6716.991,26,"male"
"1309",12,"ab",1,109,"lh","lh",TRUE,7197.756,26,"male"
"1310",12,"ab",1,110,"ll","hh",FALSE,8474.913,26,"male"
"1311",12,"ab",1,111,"lh","ll",FALSE,8181.819,26,"male"
"1312",12,"ab",1,112,"hl","lh",FALSE,11451.965,26,"male"
"1313",12,"ab",1,113,"hl","ll",FALSE,5919.245,26,"male"
"1314",12,"ab",1,114,"hl","ll",FALSE,6863.705,26,"male"
"1315",12,"ab",1,115,"hl","hl",TRUE,6474.141,26,"male"
"1316",12,"ab",1,116,"lh","ll",FALSE,5877.325,26,"male"
"1317",12,"ab",1,117,"ll","ll",TRUE,12086.682,26,"male"
"1318",12,"ab",1,118,"lh","hl",FALSE,5360.927,26,"male"
"1319",12,"ab",1,119,"ll","ll",TRUE,5542.742,26,"male"
"1320",12,"ab",1,120,"lh","ll",FALSE,2759.711,26,"male"
"1321",12,"ab",2,1,"lh","ll",FALSE,6034.406,26,"male"
"1322",12,"ab",2,2,"lh","hh",FALSE,1678.402,26,"male"
"1323",12,"ab",2,3,"hl","hl",TRUE,6360.488,26,"male"
"1324",12,"ab",2,4,"ll","ll",TRUE,4423.341,26,"male"
"1325",12,"ab",2,5,"hh","hl",FALSE,8724.585,26,"male"
"1326",12,"ab",2,6,"hh","hh",TRUE,2805.085,26,"male"
"1327",12,"ab",2,7,"hh","hh",TRUE,1426.488,26,"male"
"1328",12,"ab",2,8,"hh","hh",TRUE,4135.183,26,"male"
"1329",12,"ab",2,9,"hh","hh",TRUE,2686.7,26,"male"
"1330",12,"ab",2,10,"hh","ll",FALSE,4577.028,26,"male"
"1331",12,"ab",2,11,"hl","ll",FALSE,12311.99,26,"male"
"1332",12,"ab",2,12,"lh","lh",TRUE,12329.219,26,"male"
"1333",12,"ab",2,13,"hh","hh",TRUE,1351.915,26,"male"
"1334",12,"ab",2,14,"hh","hh",TRUE,1455.654,26,"male"
"1335",12,"ab",2,15,"lh","hh",FALSE,3202.861,26,"male"
"1336",12,"ab",2,16,"lh","lh",TRUE,4608.376,26,"male"
"1337",12,"ab",2,17,"hl","hl",TRUE,4133.934,26,"male"
"1338",12,"ab",2,18,"hh","hh",TRUE,1037.572,26,"male"
"1339",12,"ab",2,19,"lh","ll",FALSE,3585.949,26,"male"
"1340",12,"ab",2,20,"ll","ll",TRUE,5119.728,26,"male"
"1341",12,"ab",2,21,"hh","lh",FALSE,7504.355,26,"male"
"1342",12,"ab",2,22,"lh","ll",FALSE,4305.709,26,"male"
"1343",12,"ab",2,23,"lh","ll",FALSE,6994.816,26,"male"
"1344",12,"ab",2,24,"hl","lh",FALSE,10839.916,26,"male"
"1345",12,"ab",2,25,"lh","hl",FALSE,5796.465,26,"male"
"1346",12,"ab",2,26,"lh","ll",FALSE,4249.782,26,"male"
"1347",12,"ab",2,27,"hh","hl",FALSE,4492.85,26,"male"
"1348",12,"ab",2,28,"hl","lh",FALSE,3703.15,26,"male"
"1349",12,"ab",2,29,"ll","lh",FALSE,3375.85,26,"male"
"1350",12,"ab",2,30,"ll","ll",TRUE,6374.498,26,"male"
"1351",12,"ab",2,31,"ll","hh",FALSE,5317.556,26,"male"
"1352",12,"ab",2,32,"lh","hl",FALSE,7741.71,26,"male"
"1353",12,"ab",2,33,"hh","hh",TRUE,5781.855,26,"male"
"1354",12,"ab",2,34,"lh","ll",FALSE,4955.918,26,"male"
"1355",12,"ab",2,35,"","",FALSE,15016.69,26,"male"
"1356",12,"ab",2,36,"lh","hl",FALSE,7506.646,26,"male"
"1357",12,"ab",2,37,"ll","lh",FALSE,5219.771,26,"male"
"1358",12,"ab",2,38,"lh","ll",FALSE,3487.671,26,"male"
"1359",12,"ab",2,39,"hh","hh",TRUE,3170.388,26,"male"
"1360",12,"ab",2,40,"lh","ll",FALSE,5697.452,26,"male"
"1361",12,"ab",2,41,"hh","hh",TRUE,2778.436,26,"male"
"1362",12,"ab",2,42,"lh","hl",FALSE,2920.309,26,"male"
"1363",12,"ab",2,43,"hl","ll",FALSE,10128.87,26,"male"
"1364",12,"ab",2,44,"hl","lh",FALSE,6408.609,26,"male"
"1365",12,"ab",2,45,"lh","hl",FALSE,7702.556,26,"male"
"1366",12,"ab",2,46,"hl","hh",FALSE,3935.444,26,"male"
"1367",12,"ab",2,47,"hl","lh",FALSE,9952.054,26,"male"
"1368",12,"ab",2,48,"lh","hh",FALSE,7534.616,26,"male"
"1369",12,"ab",2,49,"ll","hh",FALSE,7358.541,26,"male"
"1370",12,"ab",2,50,"ll","lh",FALSE,4230.566,26,"male"
"1371",12,"ab",2,51,"ll","hh",FALSE,6586.152,26,"male"
"1372",12,"ab",2,52,"hl","hh",FALSE,4304.363,26,"male"
"1373",12,"ab",2,53,"hl","lh",FALSE,6065.919,26,"male"
"1374",12,"ab",2,54,"hh","hh",TRUE,3451.658,26,"male"
"1375",12,"ab",2,55,"","",FALSE,15016.699,26,"male"
"1376",12,"ab",2,56,"hl","hh",FALSE,4927.277,26,"male"
"1377",12,"ab",2,57,"hh","hh",TRUE,1429.955,26,"male"
"1378",12,"ab",2,58,"hh","hh",TRUE,1146.777,26,"male"
"1379",12,"ab",2,59,"hh","hh",TRUE,2794.314,26,"male"
"1380",12,"ab",2,60,"hl","hl",TRUE,5462.845,26,"male"
"1381",12,"ab",2,61,"ll","hh",FALSE,3865.89,26,"male"
"1382",12,"ab",2,62,"lh","lh",TRUE,6188.661,26,"male"
"1383",12,"ab",2,63,"ll","hh",FALSE,7186.446,26,"male"
"1384",12,"ab",2,64,"hh","hh",TRUE,4608.367,26,"male"
"1385",12,"ab",2,65,"lh","ll",FALSE,12197.939,26,"male"
"1386",12,"ab",2,66,"hl","ll",FALSE,3163.184,26,"male"
"1387",12,"ab",2,67,"lh","ll",FALSE,6217.663,26,"male"
"1388",12,"ab",2,68,"hh","hh",TRUE,1294.203,26,"male"
"1389",12,"ab",2,69,"hl","ll",FALSE,4902.342,26,"male"
"1390",12,"ab",2,70,"ll","hh",FALSE,4288.633,26,"male"
"1391",12,"ab",2,71,"ll","ll",TRUE,3571.213,26,"male"
"1392",12,"ab",2,72,"lh","hh",FALSE,2225.758,26,"male"
"1393",12,"ab",2,73,"hh","hh",TRUE,2374.334,26,"male"
"1394",12,"ab",2,74,"hh","hh",TRUE,997.289,26,"male"
"1395",12,"ab",2,75,"lh","hh",FALSE,6362.561,26,"male"
"1396",12,"ab",2,76,"hh","hh",TRUE,1848.273,26,"male"
"1397",12,"ab",2,77,"hh","hl",FALSE,3212.008,26,"male"
"1398",12,"ab",2,78,"hh","hh",TRUE,952.305,26,"male"
"1399",12,"ab",2,79,"lh","hh",FALSE,2079.971,26,"male"
"1400",12,"ab",2,80,"hl","hh",FALSE,5082.014,26,"male"
"1401",12,"ab",2,81,"hl","hh",FALSE,6123.758,26,"male"
"1402",12,"ab",2,82,"lh","hl",FALSE,5524.467,26,"male"
"1403",12,"ab",2,83,"ll","lh",FALSE,5413.126,26,"male"
"1404",12,"ab",2,84,"hh","hl",FALSE,4585.649,26,"male"
"1405",12,"ab",2,85,"hl","lh",FALSE,4415.63,26,"male"
"1406",12,"ab",2,86,"hh","hh",TRUE,1100.436,26,"male"
"1407",12,"ab",2,87,"hh","hh",TRUE,1069.746,26,"male"
"1408",12,"ab",2,88,"hh","hh",TRUE,5264.125,26,"male"
"1409",12,"ab",2,89,"lh","lh",TRUE,12651.07,26,"male"
"1410",12,"ab",2,90,"lh","hl",FALSE,6862.631,26,"male"
"1411",12,"ab",2,91,"ll","ll",TRUE,4392.863,26,"male"
"1412",12,"ab",2,92,"ll","lh",FALSE,7607.412,26,"male"
"1413",12,"ab",2,93,"hh","hh",TRUE,1140.751,26,"male"
"1414",12,"ab",2,94,"hl","lh",FALSE,4837.658,26,"male"
"1415",12,"ab",2,95,"hh","hh",TRUE,4512.715,26,"male"
"1416",12,"ab",2,96,"ll","ll",TRUE,4137.125,26,"male"
"1417",12,"ab",2,97,"hh","hh",TRUE,3297.068,26,"male"
"1418",12,"ab",2,98,"hh","hl",FALSE,7257.934,26,"male"
"1419",12,"ab",2,99,"hl","hl",TRUE,9894.023,26,"male"
"1420",12,"ab",2,100,"hl","hl",TRUE,13637.506,26,"male"
"1421",12,"ab",2,101,"ll","ll",TRUE,2499.14,26,"male"
"1422",12,"ab",2,102,"hh","hl",FALSE,3980.19,26,"male"
"1423",12,"ab",2,103,"hh","hh",TRUE,4010.633,26,"male"
"1424",12,"ab",2,104,"hl","hh",FALSE,2422.854,26,"male"
"1425",12,"ab",2,105,"lh","hl",FALSE,4419.878,26,"male"
"1426",12,"ab",2,106,"lh","hl",FALSE,6992.73,26,"male"
"1427",12,"ab",2,107,"hl","ll",FALSE,12918.655,26,"male"
"1428",12,"ab",2,108,"hh","hh",TRUE,1151.113,26,"male"
"1429",12,"ab",2,109,"hl","ll",FALSE,1902.666,26,"male"
"1430",12,"ab",2,110,"hl","ll",FALSE,4191.672,26,"male"
"1431",12,"ab",2,111,"ll","ll",TRUE,4788.858,26,"male"
"1432",12,"ab",2,112,"ll","ll",TRUE,8979.46,26,"male"
"1433",12,"ab",2,113,"hh","hl",FALSE,6377.285,26,"male"
"1434",12,"ab",2,114,"hl","hl",TRUE,3975.444,26,"male"
"1435",12,"ab",2,115,"lh","lh",TRUE,6326.82,26,"male"
"1436",12,"ab",2,116,"hh","hh",TRUE,7078.991,26,"male"
"1437",12,"ab",2,117,"ll","lh",FALSE,5112.684,26,"male"
"1438",12,"ab",2,118,"ll","ll",TRUE,3305.872,26,"male"
"1439",12,"ab",2,119,"hl","ll",FALSE,8307.406,26,"male"
"1440",12,"ab",2,120,"ll","ll",TRUE,3028.7,26,"male"
"1441",12,"ab",3,1,"hl","lh",FALSE,6645.801,26,"male"
"1442",12,"ab",3,2,"ll","lh",FALSE,4810.034,26,"male"
"1443",12,"ab",3,3,"ll","ll",TRUE,4983.228,26,"male"
"1444",12,"ab",3,4,"hl","lh",FALSE,3164.056,26,"male"
"1445",12,"ab",3,5,"hl","hh",FALSE,5659.114,26,"male"
"1446",12,"ab",3,6,"hl","ll",FALSE,3750.6,26,"male"
"1447",12,"ab",3,7,"ll","ll",TRUE,1901.778,26,"male"
"1448",12,"ab",3,8,"hh","hh",TRUE,2415.277,26,"male"
"1449",12,"ab",3,9,"ll","ll",TRUE,2331.591,26,"male"
"1450",12,"ab",3,10,"hh","hh",TRUE,4939.526,26,"male"
"1451",12,"ab",3,11,"hh","hl",FALSE,5347.736,26,"male"
"1452",12,"ab",3,12,"hl","hh",FALSE,1819.373,26,"male"
"1453",12,"ab",3,13,"lh","hh",FALSE,4479.906,26,"male"
"1454",12,"ab",3,14,"ll","ll",TRUE,1849.952,26,"male"
"1455",12,"ab",3,15,"hl","hh",FALSE,2300.883,26,"male"
"1456",12,"ab",3,16,"lh","hh",FALSE,3070.379,26,"male"
"1457",12,"ab",3,17,"ll","ll",TRUE,5120.585,26,"male"
"1458",12,"ab",3,18,"lh","ll",FALSE,11552.483,26,"male"
"1459",12,"ab",3,19,"ll","hh",FALSE,5120.145,26,"male"
"1460",12,"ab",3,20,"hh","ll",FALSE,8384.776,26,"male"
"1461",12,"ab",3,21,"hl","hh",FALSE,2238.705,26,"male"
"1462",12,"ab",3,22,"hh","hh",TRUE,1090.74,26,"male"
"1463",12,"ab",3,23,"ll","ll",TRUE,4180.667,26,"male"
"1464",12,"ab",3,24,"hl","ll",FALSE,5146.285,26,"male"
"1465",12,"ab",3,25,"lh","ll",FALSE,5289.519,26,"male"
"1466",12,"ab",3,26,"lh","hh",FALSE,10596.346,26,"male"
"1467",12,"ab",3,27,"hh","hh",TRUE,4232.932,26,"male"
"1468",12,"ab",3,28,"hl","ll",FALSE,4173.395,26,"male"
"1469",12,"ab",3,29,"hl","hh",FALSE,2836.179,26,"male"
"1470",12,"ab",3,30,"hh","hh",TRUE,991.513,26,"male"
"1471",12,"ab",3,31,"hl","hl",TRUE,3894.172,26,"male"
"1472",12,"ab",3,32,"ll","lh",FALSE,4102.491,26,"male"
"1473",12,"ab",3,33,"hh","hh",TRUE,2655.626,26,"male"
"1474",12,"ab",3,34,"lh","ll",FALSE,2931.379,26,"male"
"1475",12,"ab",3,35,"hh","hh",TRUE,4154.569,26,"male"
"1476",12,"ab",3,36,"ll","ll",TRUE,12882.762,26,"male"
"1477",12,"ab",3,37,"hh","hh",TRUE,2332.914,26,"male"
"1478",12,"ab",3,38,"hh","hh",TRUE,876.524,26,"male"
"1479",12,"ab",3,39,"hl","ll",FALSE,4823.592,26,"male"
"1480",12,"ab",3,40,"ll","hl",FALSE,8531.819,26,"male"
"1481",12,"ab",3,41,"ll","ll",TRUE,2812.155,26,"male"
"1482",12,"ab",3,42,"hh","hh",TRUE,1800.533,26,"male"
"1483",12,"ab",3,43,"lh","lh",TRUE,5662.041,26,"male"
"1484",12,"ab",3,44,"lh","lh",TRUE,3256.753,26,"male"
"1485",12,"ab",3,45,"hl","hh",FALSE,1156.143,26,"male"
"1486",12,"ab",3,46,"hl","hh",FALSE,2003.41,26,"male"
"1487",12,"ab",3,47,"hl","hl",TRUE,4016.554,26,"male"
"1488",12,"ab",3,48,"hl","hh",FALSE,4221.366,26,"male"
"1489",12,"ab",3,49,"hl","hh",FALSE,3842.065,26,"male"
"1490",12,"ab",3,50,"ll","ll",TRUE,2230.081,26,"male"
"1491",12,"ab",3,51,"lh","ll",FALSE,1562.129,26,"male"
"1492",12,"ab",3,52,"hl","hh",FALSE,8920.653,26,"male"
"1493",12,"ab",3,53,"lh","lh",TRUE,6401.344,26,"male"
"1494",12,"ab",3,54,"lh","hl",FALSE,3182.864,26,"male"
"1495",12,"ab",3,55,"ll","hl",FALSE,4748.448,26,"male"
"1496",12,"ab",3,56,"hh","hh",TRUE,1307.953,26,"male"
"1497",12,"ab",3,57,"hl","hh",FALSE,3653.554,26,"male"
"1498",12,"ab",3,58,"ll","ll",TRUE,6240.918,26,"male"
"1499",12,"ab",3,59,"","",FALSE,15016.742,26,"male"
"1500",12,"ab",3,60,"ll","ll",TRUE,3844.191,26,"male"
"1501",12,"ab",3,61,"ll","lh",FALSE,9238.966,26,"male"
"1502",12,"ab",3,62,"hh","hh",TRUE,4003.404,26,"male"
"1503",12,"ab",3,63,"lh","ll",FALSE,4480.851,26,"male"
"1504",12,"ab",3,64,"hh","hh",TRUE,7450.691,26,"male"
"1505",12,"ab",3,65,"ll","ll",TRUE,6254.097,26,"male"
"1506",12,"ab",3,66,"ll","lh",FALSE,4737.643,26,"male"
"1507",12,"ab",3,67,"hh","hh",TRUE,912.984,26,"male"
"1508",12,"ab",3,68,"lh","ll",FALSE,2041.979,26,"male"
"1509",12,"ab",3,69,"hh","hh",TRUE,742.218,26,"male"
"1510",12,"ab",3,70,"lh","hh",FALSE,1894.13,26,"male"
"1511",12,"ab",3,71,"hl","hl",TRUE,2966.999,26,"male"
"1512",12,"ab",3,72,"hl","hh",FALSE,2733.627,26,"male"
"1513",12,"ab",3,73,"ll","lh",FALSE,4493.714,26,"male"
"1514",12,"ab",3,74,"lh","hh",FALSE,1256.248,26,"male"
"1515",12,"ab",3,75,"hh","hl",FALSE,2915.212,26,"male"
"1516",12,"ab",3,76,"lh","hh",FALSE,1740.179,26,"male"
"1517",12,"ab",3,77,"ll","ll",TRUE,2356.157,26,"male"
"1518",12,"ab",3,78,"hl","hh",FALSE,1571.394,26,"male"
"1519",12,"ab",3,79,"ll","ll",TRUE,1425.997,26,"male"
"1520",12,"ab",3,80,"lh","ll",FALSE,5366.731,26,"male"
"1521",12,"ab",3,81,"ll","hl",FALSE,3069.777,26,"male"
"1522",12,"ab",3,82,"hh","hl",FALSE,14640.229,26,"male"
"1523",12,"ab",3,83,"hh","hh",TRUE,868.112,26,"male"
"1524",12,"ab",3,84,"ll","ll",TRUE,2942.734,26,"male"
"1525",12,"ab",3,85,"ll","hh",FALSE,1414.87,26,"male"
"1526",12,"ab",3,86,"lh","ll",FALSE,9691.403,26,"male"
"1527",12,"ab",3,87,"ll","hh",FALSE,3013.548,26,"male"
"1528",12,"ab",3,88,"ll","lh",FALSE,3530.19,26,"male"
"1529",12,"ab",3,89,"ll","hh",FALSE,8937.953,26,"male"
"1530",12,"ab",3,90,"lh","hh",FALSE,1090.035,26,"male"
"1531",12,"ab",3,91,"ll","ll",TRUE,5619.953,26,"male"
"1532",12,"ab",3,92,"ll","lh",FALSE,4737.159,26,"male"
"1533",12,"ab",3,93,"hh","ll",FALSE,6688.807,26,"male"
"1534",12,"ab",3,94,"ll","ll",TRUE,1634.794,26,"male"
"1535",12,"ab",3,95,"","",FALSE,15016.87,26,"male"
"1536",12,"ab",3,96,"lh","ll",FALSE,3341.661,26,"male"
"1537",12,"ab",3,97,"ll","ll",TRUE,1830.09,26,"male"
"1538",12,"ab",3,98,"hl","ll",FALSE,4042.24,26,"male"
"1539",12,"ab",3,99,"lh","hl",FALSE,4774.399,26,"male"
"1540",12,"ab",3,100,"hl","hh",FALSE,1412.78,26,"male"
"1541",12,"ab",3,101,"ll","hh",FALSE,6569.378,26,"male"
"1542",12,"ab",3,102,"hh","lh",FALSE,7216.124,26,"male"
"1543",12,"ab",3,103,"lh","hh",FALSE,4124.863,26,"male"
"1544",12,"ab",3,104,"ll","ll",TRUE,4997.582,26,"male"
"1545",12,"ab",3,105,"lh","lh",TRUE,3626.972,26,"male"
"1546",12,"ab",3,106,"lh","hh",FALSE,1063.685,26,"male"
"1547",12,"ab",3,107,"ll","ll",TRUE,1818.165,26,"male"
"1548",12,"ab",3,108,"ll","ll",TRUE,6462.676,26,"male"
"1549",12,"ab",3,109,"hh","hh",TRUE,4697.626,26,"male"
"1550",12,"ab",3,110,"lh","hh",FALSE,5818.659,26,"male"
"1551",12,"ab",3,111,"ll","ll",TRUE,3742.765,26,"male"
"1552",12,"ab",3,112,"lh","lh",TRUE,4455.387,26,"male"
"1553",12,"ab",3,113,"hl","ll",FALSE,14114.845,26,"male"
"1554",12,"ab",3,114,"hl","lh",FALSE,4987.151,26,"male"
"1555",12,"ab",3,115,"hh","hh",TRUE,945.503,26,"male"
"1556",12,"ab",3,116,"hh","hh",TRUE,1064.778,26,"male"
"1557",12,"ab",3,117,"lh","ll",FALSE,4043.158,26,"male"
"1558",12,"ab",3,118,"lh","ll",FALSE,2007.558,26,"male"
"1559",12,"ab",3,119,"lh","hh",FALSE,1012.994,26,"male"
"1560",12,"ab",3,120,"lh","lh",TRUE,8937.342,26,"male"
"1561",12,"ab",4,1,"hh","lh",FALSE,5694.28,26,"male"
"1562",12,"ab",4,2,"hh","hh",TRUE,2359.061,26,"male"
"1563",12,"ab",4,3,"hl","hh",FALSE,1798.922,26,"male"
"1564",12,"ab",4,4,"hl","lh",FALSE,4251.793,26,"male"
"1565",12,"ab",4,5,"ll","lh",FALSE,2143.473,26,"male"
"1566",12,"ab",4,6,"ll","ll",TRUE,3990.813,26,"male"
"1567",12,"ab",4,7,"hh","hh",TRUE,1445.104,26,"male"
"1568",12,"ab",4,8,"ll","ll",TRUE,2248.779,26,"male"
"1569",12,"ab",4,9,"hl","hh",FALSE,6892.121,26,"male"
"1570",12,"ab",4,10,"ll","ll",TRUE,12374.394,26,"male"
"1571",12,"ab",4,11,"hh","hh",TRUE,2484.877,26,"male"
"1572",12,"ab",4,12,"hh","hh",TRUE,6558.865,26,"male"
"1573",12,"ab",4,13,"hl","hh",FALSE,3637.826,26,"male"
"1574",12,"ab",4,14,"hh","hh",TRUE,2241.255,26,"male"
"1575",12,"ab",4,15,"hl","ll",FALSE,3046.35,26,"male"
"1576",12,"ab",4,16,"ll","lh",FALSE,9993.302,26,"male"
"1577",12,"ab",4,17,"ll","ll",TRUE,2663.49,26,"male"
"1578",12,"ab",4,18,"hl","hh",FALSE,1482.049,26,"male"
"1579",12,"ab",4,19,"hh","hh",TRUE,859.472,26,"male"
"1580",12,"ab",4,20,"ll","ll",TRUE,7607.176,26,"male"
"1581",12,"ab",4,21,"lh","lh",TRUE,12708.639,26,"male"
"1582",12,"ab",4,22,"hl","hl",TRUE,5158.581,26,"male"
"1583",12,"ab",4,23,"ll","ll",TRUE,1701.627,26,"male"
"1584",12,"ab",4,24,"hl","hl",TRUE,4382.967,26,"male"
"1585",12,"ab",4,25,"hh","hh",TRUE,1164.624,26,"male"
"1586",12,"ab",4,26,"hl","lh",FALSE,5146.797,26,"male"
"1587",12,"ab",4,27,"hh","hh",TRUE,1017.924,26,"male"
"1588",12,"ab",4,28,"hh","hl",FALSE,4974.588,26,"male"
"1589",12,"ab",4,29,"lh","ll",FALSE,2437.053,26,"male"
"1590",12,"ab",4,30,"lh","lh",TRUE,5233.161,26,"male"
"1591",12,"ab",4,31,"hl","hh",FALSE,2461.837,26,"male"
"1592",12,"ab",4,32,"hl","hh",FALSE,2295.971,26,"male"
"1593",12,"ab",4,33,"lh","hh",FALSE,1657.23,26,"male"
"1594",12,"ab",4,34,"hh","hl",FALSE,10372.533,26,"male"
"1595",12,"ab",4,35,"hl","hh",FALSE,2051.677,26,"male"
"1596",12,"ab",4,36,"hl","ll",FALSE,5886.819,26,"male"
"1597",12,"ab",4,37,"lh","hh",FALSE,2016.621,26,"male"
"1598",12,"ab",4,38,"hh","hl",FALSE,3453.415,26,"male"
"1599",12,"ab",4,39,"hl","lh",FALSE,4656.796,26,"male"
"1600",12,"ab",4,40,"lh","ll",FALSE,5379.454,26,"male"
"1601",12,"ab",4,41,"hh","hh",TRUE,985.004,26,"male"
"1602",12,"ab",4,42,"lh","hh",FALSE,3503.329,26,"male"
"1603",12,"ab",4,43,"ll","lh",FALSE,13664.869,26,"male"
"1604",12,"ab",4,44,"hl","hl",TRUE,7803.428,26,"male"
"1605",12,"ab",4,45,"hh","hh",TRUE,1041.028,26,"male"
"1606",12,"ab",4,46,"hl","hh",FALSE,4132.995,26,"male"
"1607",12,"ab",4,47,"ll","ll",TRUE,5053.091,26,"male"
"1608",12,"ab",4,48,"lh","hh",FALSE,6752.233,26,"male"
"1609",12,"ab",4,49,"hl","hh",FALSE,2447.676,26,"male"
"1610",12,"ab",4,50,"hh","hh",TRUE,1274.619,26,"male"
"1611",12,"ab",4,51,"lh","hl",FALSE,13877.777,26,"male"
"1612",12,"ab",4,52,"lh","ll",FALSE,2214.995,26,"male"
"1613",12,"ab",4,53,"ll","hh",FALSE,2171.834,26,"male"
"1614",12,"ab",4,54,"ll","ll",TRUE,6866.704,26,"male"
"1615",12,"ab",4,55,"ll","ll",TRUE,5581.335,26,"male"
"1616",12,"ab",4,56,"ll","ll",TRUE,1099.464,26,"male"
"1617",12,"ab",4,57,"lh","hh",FALSE,1212.8,26,"male"
"1618",12,"ab",4,58,"hh","hh",TRUE,809.465,26,"male"
"1619",12,"ab",4,59,"ll","lh",FALSE,6726.978,26,"male"
"1620",12,"ab",4,60,"hh","hh",TRUE,2743.639,26,"male"
"1621",12,"ab",4,61,"ll","lh",FALSE,5815.639,26,"male"
"1622",12,"ab",4,62,"hl","hl",TRUE,3579.676,26,"male"
"1623",12,"ab",4,63,"hl","hh",FALSE,2026.144,26,"male"
"1624",12,"ab",4,64,"hl","ll",FALSE,4566.974,26,"male"
"1625",12,"ab",4,65,"ll","ll",TRUE,2013.597,26,"male"
"1626",12,"ab",4,66,"hh","hh",TRUE,2874.099,26,"male"
"1627",12,"ab",4,67,"hl","hl",TRUE,8661.318,26,"male"
"1628",12,"ab",4,68,"hh","lh",FALSE,7318.657,26,"male"
"1629",12,"ab",4,69,"lh","hh",FALSE,3632.371,26,"male"
"1630",12,"ab",4,70,"lh","hh",FALSE,12299.684,26,"male"
"1631",12,"ab",4,71,"ll","ll",TRUE,2605.683,26,"male"
"1632",12,"ab",4,72,"hl","hh",FALSE,4114.786,26,"male"
"1633",12,"ab",4,73,"ll","hh",FALSE,2410.867,26,"male"
"1634",12,"ab",4,74,"hh","hh",TRUE,1927.862,26,"male"
"1635",12,"ab",4,75,"lh","hl",FALSE,11592.059,26,"male"
"1636",12,"ab",4,76,"hl","hh",FALSE,1286.323,26,"male"
"1637",12,"ab",4,77,"lh","hh",FALSE,5248.528,26,"male"
"1638",12,"ab",4,78,"hl","hh",FALSE,1995.73,26,"male"
"1639",12,"ab",4,79,"","",FALSE,15016.47,26,"male"
"1640",12,"ab",4,80,"hh","hl",FALSE,3816.332,26,"male"
"1641",12,"ab",4,81,"hh","hh",TRUE,860.914,26,"male"
"1642",12,"ab",4,82,"lh","ll",FALSE,2263.07,26,"male"
"1643",12,"ab",4,83,"hl","ll",FALSE,5865.903,26,"male"
"1644",12,"ab",4,84,"ll","ll",TRUE,1772.429,26,"male"
"1645",12,"ab",4,85,"hl","hh",FALSE,2179.208,26,"male"
"1646",12,"ab",4,86,"hl","hh",FALSE,1849.455,26,"male"
"1647",12,"ab",4,87,"ll","ll",TRUE,2317.046,26,"male"
"1648",12,"ab",4,88,"lh","ll",FALSE,1261.167,26,"male"
"1649",12,"ab",4,89,"ll","hh",FALSE,952.086,26,"male"
"1650",12,"ab",4,90,"lh","hh",FALSE,974.218,26,"male"
"1651",12,"ab",4,91,"hh","hh",TRUE,789.996,26,"male"
"1652",12,"ab",4,92,"ll","ll",TRUE,1715.684,26,"male"
"1653",12,"ab",4,93,"ll","ll",TRUE,4891.391,26,"male"
"1654",12,"ab",4,94,"hh","hh",TRUE,788.847,26,"male"
"1655",12,"ab",4,95,"lh","hh",FALSE,4195.251,26,"male"
"1656",12,"ab",4,96,"lh","hh",FALSE,1224.234,26,"male"
"1657",12,"ab",4,97,"hl","ll",FALSE,5669.283,26,"male"
"1658",12,"ab",4,98,"lh","lh",TRUE,5375.757,26,"male"
"1659",12,"ab",4,99,"lh","hh",FALSE,2214.029,26,"male"
"1660",12,"ab",4,100,"hl","hl",TRUE,3691.221,26,"male"
"1661",12,"ab",4,101,"ll","ll",TRUE,1060.5,26,"male"
"1662",12,"ab",4,102,"lh","hh",FALSE,7000.65,26,"male"
"1663",12,"ab",4,103,"ll","ll",TRUE,973.245,26,"male"
"1664",12,"ab",4,104,"lh","ll",FALSE,4052.456,26,"male"
"1665",12,"ab",4,105,"ll","hh",FALSE,3615.626,26,"male"
"1666",12,"ab",4,106,"hl","hh",FALSE,2076.385,26,"male"
"1667",12,"ab",4,107,"hl","hh",FALSE,6311.342,26,"male"
"1668",12,"ab",4,108,"lh","ll",FALSE,13559.688,26,"male"
"1669",12,"ab",4,109,"hl","ll",FALSE,4135.163,26,"male"
"1670",12,"ab",4,110,"ll","ll",TRUE,1934.788,26,"male"
"1671",12,"ab",4,111,"lh","ll",FALSE,3790.736,26,"male"
"1672",12,"ab",4,112,"ll","ll",TRUE,1461.066,26,"male"
"1673",12,"ab",4,113,"lh","ll",FALSE,9607.499,26,"male"
"1674",12,"ab",4,114,"hh","hh",TRUE,9733.142,26,"male"
"1675",12,"ab",4,115,"hh","hh",TRUE,1164.606,26,"male"
"1676",12,"ab",4,116,"lh","hh",FALSE,2636.036,26,"male"
"1677",12,"ab",4,117,"hl","ll",FALSE,2367.574,26,"male"
"1678",12,"ab",4,118,"lh","ll",FALSE,2302.568,26,"male"
"1679",12,"ab",4,119,"hh","hh",TRUE,2094.449,26,"male"
"1680",12,"ab",4,120,"lh","ll",FALSE,1704.324,26,"male"
"1681",12,"ab",5,1,"lh","lh",TRUE,4203.171,26,"male"
"1682",12,"ab",5,2,"ll","lh",FALSE,5520.293,26,"male"
"1683",12,"ab",5,3,"lh","ll",FALSE,6000.684,26,"male"
"1684",12,"ab",5,4,"ll","ll",TRUE,1134.456,26,"male"
"1685",12,"ab",5,5,"lh","hh",FALSE,2510.606,26,"male"
"1686",12,"ab",5,6,"hh","hl",FALSE,3015.146,26,"male"
"1687",12,"ab",5,7,"lh","hl",FALSE,2812.398,26,"male"
"1688",12,"ab",5,8,"ll","lh",FALSE,5688.971,26,"male"
"1689",12,"ab",5,9,"hl","lh",FALSE,6946.59,26,"male"
"1690",12,"ab",5,10,"hh","hh",TRUE,1370.572,26,"male"
"1691",12,"ab",5,11,"ll","lh",FALSE,6673.135,26,"male"
"1692",12,"ab",5,12,"ll","lh",FALSE,3939.955,26,"male"
"1693",12,"ab",5,13,"hh","hh",TRUE,1059.879,26,"male"
"1694",12,"ab",5,14,"hh","hh",TRUE,1719.12,26,"male"
"1695",12,"ab",5,15,"hh","hh",TRUE,1487.723,26,"male"
"1696",12,"ab",5,16,"lh","lh",TRUE,9105.996,26,"male"
"1697",12,"ab",5,17,"lh","hh",FALSE,962.385,26,"male"
"1698",12,"ab",5,18,"lh","hh",FALSE,760.82,26,"male"
"1699",12,"ab",5,19,"lh","hl",FALSE,4087.371,26,"male"
"1700",12,"ab",5,20,"hl","hh",FALSE,5522.016,26,"male"
"1701",12,"ab",5,21,"hh","hh",TRUE,3042.437,26,"male"
"1702",12,"ab",5,22,"hl","hh",FALSE,1446.52,26,"male"
"1703",12,"ab",5,23,"hh","hh",TRUE,1161.564,26,"male"
"1704",12,"ab",5,24,"ll","ll",TRUE,2024.731,26,"male"
"1705",12,"ab",5,25,"ll","lh",FALSE,7765.097,26,"male"
"1706",12,"ab",5,26,"hl","ll",FALSE,3995.867,26,"male"
"1707",12,"ab",5,27,"hl","hh",FALSE,1016.894,26,"male"
"1708",12,"ab",5,28,"ll","lh",FALSE,5933.831,26,"male"
"1709",12,"ab",5,29,"ll","lh",FALSE,4910.077,26,"male"
"1710",12,"ab",5,30,"lh","lh",TRUE,4487.015,26,"male"
"1711",12,"ab",5,31,"lh","hh",FALSE,2864.808,26,"male"
"1712",12,"ab",5,32,"ll","ll",TRUE,1835.613,26,"male"
"1713",12,"ab",5,33,"hh","hh",TRUE,10111.74,26,"male"
"1714",12,"ab",5,34,"lh","hh",FALSE,1192.003,26,"male"
"1715",12,"ab",5,35,"hl","ll",FALSE,1478.436,26,"male"
"1716",12,"ab",5,36,"lh","hh",FALSE,1448.354,26,"male"
"1717",12,"ab",5,37,"hh","hh",TRUE,3739.555,26,"male"
"1718",12,"ab",5,38,"hl","hl",TRUE,4627.711,26,"male"
"1719",12,"ab",5,39,"lh","hh",FALSE,1351.24,26,"male"
"1720",12,"ab",5,40,"lh","hh",FALSE,1119.028,26,"male"
"1721",12,"ab",5,41,"hh","hh",TRUE,1215.834,26,"male"
"1722",12,"ab",5,42,"lh","ll",FALSE,5356.288,26,"male"
"1723",12,"ab",5,43,"ll","lh",FALSE,4147.877,26,"male"
"1724",12,"ab",5,44,"lh","hh",FALSE,4794.783,26,"male"
"1725",12,"ab",5,45,"hh","hl",FALSE,5464.416,26,"male"
"1726",12,"ab",5,46,"ll","ll",TRUE,1098.932,26,"male"
"1727",12,"ab",5,47,"hh","hh",TRUE,3964.84,26,"male"
"1728",12,"ab",5,48,"hl","hh",FALSE,1771.282,26,"male"
"1729",12,"ab",5,49,"hh","hh",TRUE,1649.748,26,"male"
"1730",12,"ab",5,50,"lh","hh",FALSE,1069.185,26,"male"
"1731",12,"ab",5,51,"hh","hl",FALSE,3023.075,26,"male"
"1732",12,"ab",5,52,"hh","hh",TRUE,2420.418,26,"male"
"1733",12,"ab",5,53,"hh","hh",TRUE,897.127,26,"male"
"1734",12,"ab",5,54,"ll","ll",TRUE,2569.998,26,"male"
"1735",12,"ab",5,55,"lh","hl",FALSE,8369.216,26,"male"
"1736",12,"ab",5,56,"hh","hh",TRUE,2159.877,26,"male"
"1737",12,"ab",5,57,"hl","hl",TRUE,5783.314,26,"male"
"1738",12,"ab",5,58,"hl","hl",TRUE,1949.131,26,"male"
"1739",12,"ab",5,59,"ll","lh",FALSE,3868.205,26,"male"
"1740",12,"ab",5,60,"ll","ll",TRUE,1135.169,26,"male"
"1741",12,"ab",5,61,"hh","hh",TRUE,3103.263,26,"male"
"1742",12,"ab",5,62,"hh","lh",FALSE,7280.343,26,"male"
"1743",12,"ab",5,63,"ll","hh",FALSE,1834.506,26,"male"
"1744",12,"ab",5,64,"ll","ll",TRUE,942.404,26,"male"
"1745",12,"ab",5,65,"hl","hh",FALSE,1030.402,26,"male"
"1746",12,"ab",5,66,"ll","ll",TRUE,1497.932,26,"male"
"1747",12,"ab",5,67,"hh","hl",FALSE,6188.001,26,"male"
"1748",12,"ab",5,68,"lh","hl",FALSE,4289.848,26,"male"
"1749",12,"ab",5,69,"lh","lh",TRUE,5715.751,26,"male"
"1750",12,"ab",5,70,"hl","hh",FALSE,1691.972,26,"male"
"1751",12,"ab",5,71,"hl","hh",FALSE,2821.514,26,"male"
"1752",12,"ab",5,72,"hl","ll",FALSE,4163.089,26,"male"
"1753",12,"ab",5,73,"hh","hh",TRUE,1049.704,26,"male"
"1754",12,"ab",5,74,"ll","hl",FALSE,4780.825,26,"male"
"1755",12,"ab",5,75,"hl","ll",FALSE,2171.416,26,"male"
"1756",12,"ab",5,76,"lh","hh",FALSE,1026.084,26,"male"
"1757",12,"ab",5,77,"hl","hh",FALSE,5494.654,26,"male"
"1758",12,"ab",5,78,"hl","lh",FALSE,4391.464,26,"male"
"1759",12,"ab",5,79,"hh","hh",TRUE,1877.906,26,"male"
"1760",12,"ab",5,80,"ll","hl",FALSE,3926.589,26,"male"
"1761",12,"ab",5,81,"hh","lh",FALSE,6679.699,26,"male"
"1762",12,"ab",5,82,"ll","lh",FALSE,3737.866,26,"male"
"1763",12,"ab",5,83,"lh","lh",TRUE,6609.807,26,"male"
"1764",12,"ab",5,84,"hh","hh",TRUE,1223.374,26,"male"
"1765",12,"ab",5,85,"lh","hh",FALSE,14051.641,26,"male"
"1766",12,"ab",5,86,"hh","hl",FALSE,6223.221,26,"male"
"1767",12,"ab",5,87,"hh","hh",TRUE,819.457,26,"male"
"1768",12,"ab",5,88,"lh","hh",FALSE,2368.636,26,"male"
"1769",12,"ab",5,89,"hh","hh",TRUE,2015.085,26,"male"
"1770",12,"ab",5,90,"ll","lh",FALSE,3179.761,26,"male"
"1771",12,"ab",5,91,"hh","hh",TRUE,3209.638,26,"male"
"1772",12,"ab",5,92,"hl","ll",FALSE,1351.255,26,"male"
"1773",12,"ab",5,93,"ll","lh",FALSE,3182.454,26,"male"
"1774",12,"ab",5,94,"hh","hh",TRUE,940.289,26,"male"
"1775",12,"ab",5,95,"hl","hh",FALSE,5364.547,26,"male"
"1776",12,"ab",5,96,"ll","ll",TRUE,2954.992,26,"male"
"1777",12,"ab",5,97,"lh","ll",FALSE,1794.56,26,"male"
"1778",12,"ab",5,98,"hl","hh",FALSE,1863.459,26,"male"
"1779",12,"ab",5,99,"hh","hh",TRUE,969.911,26,"male"
"1780",12,"ab",5,100,"hh","hh",TRUE,1088.639,26,"male"
"1781",12,"ab",5,101,"ll","hl",FALSE,3875.271,26,"male"
"1782",12,"ab",5,102,"lh","hh",FALSE,1702.038,26,"male"
"1783",12,"ab",5,103,"hh","hh",TRUE,5838.917,26,"male"
"1784",12,"ab",5,104,"hl","hh",FALSE,2643.362,26,"male"
"1785",12,"ab",5,105,"hh","hh",TRUE,823.283,26,"male"
"1786",12,"ab",5,106,"ll","ll",TRUE,1123.672,26,"male"
"1787",12,"ab",5,107,"hl","ll",FALSE,8100.613,26,"male"
"1788",12,"ab",5,108,"hl","ll",FALSE,6701.898,26,"male"
"1789",12,"ab",5,109,"hl","hl",TRUE,2975.384,26,"male"
"1790",12,"ab",5,110,"hl","hl",TRUE,2597.894,26,"male"
"1791",12,"ab",5,111,"hl","hh",FALSE,2474.894,26,"male"
"1792",12,"ab",5,112,"hh","hh",TRUE,773.776,26,"male"
"1793",12,"ab",5,113,"lh","lh",TRUE,6788.847,26,"male"
"1794",12,"ab",5,114,"hh","hh",TRUE,1090.273,26,"male"
"1795",12,"ab",5,115,"hl","ll",FALSE,1796.754,26,"male"
"1796",12,"ab",5,116,"lh","ll",FALSE,4009.886,26,"male"
"1797",12,"ab",5,117,"ll","ll",TRUE,983.465,26,"male"
"1798",12,"ab",5,118,"ll","lh",FALSE,5836.886,26,"male"
"1799",12,"ab",5,119,"hl","hh",FALSE,1713.439,26,"male"
"1800",12,"ab",5,120,"ll","hh",FALSE,4217.271,26,"male"
"1801",13,"bc",1,1,"lh","lh",TRUE,6402.778,19,"male"
"1802",13,"bc",1,2,"hl","ll",FALSE,5121.353,19,"male"
"1803",13,"bc",1,3,"hh","hl",FALSE,5872.668,19,"male"
"1804",13,"bc",1,4,"hh","hh",TRUE,4792.591,19,"male"
"1805",13,"bc",1,5,"hl","ll",FALSE,6942.025,19,"male"
"1806",13,"bc",1,6,"hl","hl",TRUE,6809.318,19,"male"
"1807",13,"bc",1,7,"ll","ll",TRUE,2401.931,19,"male"
"1808",13,"bc",1,8,"lh","lh",TRUE,4523.304,19,"male"
"1809",13,"bc",1,9,"lh","hh",FALSE,9252.062,19,"male"
"1810",13,"bc",1,10,"lh","hh",FALSE,7094.09,19,"male"
"1811",13,"bc",1,11,"lh","lh",TRUE,5019.288,19,"male"
"1812",13,"bc",1,12,"hl","ll",FALSE,5678.996,19,"male"
"1813",13,"bc",1,13,"ll","hl",FALSE,7118.692,19,"male"
"1814",13,"bc",1,14,"hh","lh",FALSE,4193.326,19,"male"
"1815",13,"bc",1,15,"hl","lh",FALSE,5927.772,19,"male"
"1816",13,"bc",1,16,"lh","ll",FALSE,6084.657,19,"male"
"1817",13,"bc",1,17,"hl","hl",TRUE,4917.079,19,"male"
"1818",13,"bc",1,18,"hh","lh",FALSE,9731.813,19,"male"
"1819",13,"bc",1,19,"lh","lh",TRUE,9722.327,19,"male"
"1820",13,"bc",1,20,"lh","ll",FALSE,6905.265,19,"male"
