sender,sender_type,sender_id,timestamp,meta,,age,blockNo,c1,c2,condition,control_tolerance,correct,correctResponse,duration,ended_on,f1,f1_high,f1_low,f2,f2_high,f2_low,feature_level1,feature_level2,gender,img_left,img_reveal,img_right,n_target_images,practice,range_tolerance,response,response_action,selection_duration,staircase,time_commit,time_end,time_render,time_run,time_show,time_switch,total_blocks,total_trials,trialNo,url
informed_consent,html.Screen,0,2023-11-20T15:58:12.248Z,"{""labjs_version"":""20.2.4"",""labjs_build"":{""flavor"":""development"",""commit"":""f5b4a49f956347addd546a832a3327688c2c0fef""},""location"":""https://labjs.felixhenninger.com/api/labjs_preview/index.html"",""userAgent"":""Mozilla/5.0 (Windows NT 10.0; Win64; x64) AppleWebKit/537.36 (KHTML, like Gecko) Chrome/119.0.0.0 Safari/537.36"",""platform"":""Win32"",""language"":""en-US"",""locale"":""en-US"",""timeZone"":""America/Chicago"",""timezoneOffset"":360,""screen_width"":1920,""screen_height"":1080,""scroll_width"":945,""scroll_height"":918,""window_innerWidth"":945,""window_innerHeight"":966,""devicePixelRatio"":1}",,,,,,,,,,62453.014,response,,,,,,,,,,,,,,,,consent,click button,,,63269.30000001192,63261,791.261,784.3999999761581,807.986,63270.307,,,,{}
Demography form,html.Form,1,2023-11-20T15:58:25.472Z,,,18,,,,,,,,13222.693,form submission,,,,,,,,,female,,,,,,,,,,,76493.09999996424,76493,63253.84,63269.5,63270.307,76500.285,,,,
Welcome,html.Screen,2,2023-11-20T15:58:35.288Z,,,,,,,"[""asym"",""bor""]",,,,9808.414999988076,response,,,,,,,,,,,,,,,,continue,keypress(Space),,,86309.09999996424,86308.69999998808,76483.753,76493.19999998808,76500.285,86327.596,,,,
demo_instructions,html.Screen,3,2023-11-20T15:59:04.042Z,,,,,,,,,,,28734.303999976153,response,,,,,,,,,,,,,,,,continue,keypress(Space),,,115063.09999996424,115061.89999997616,86293.36,86309.19999998808,86327.596,115071.972,,,,
trial,html.Screen,4_0_0,2023-11-20T15:59:19.711Z,,,,0,-1.185875658992962,-1.2635548590325487,,,true,hh,15658.328000011927,response,1.1653123206802332,1.2,-1.2,1.2976858999596654,1.2,-1.2,high,high,,ISIC_0011703.JPG,,ISIC_0071508.JPG,26,true,0.15000000000000002,hh,keypress(i),100,false,130730.89999997616,130730.30000001192,115054.767,115063.69999998808,115071.972,130754.303,1,16,1,
sequence,flow.Sequence,4_0,2023-11-20T15:59:19.735Z,,,,,,,,,,,15658.328000011927,completion,,,,,,,high,high,,,,,,true,,,,,false,130755.39999997616,130730.30000001192,115054.767,115063.59999996424,115071.972,130754.303,1,16,,
trial,html.Screen,4_1_0,2023-11-20T15:59:23.888Z,,,,0,-1.255256820488545,-1.1206426433062562,,,true,hh,4153.497000011921,response,1.2503149164557643,1.2,-1.2,1.0796591227570405,1.2,-1.2,high,high,,ISIC_0024652.JPG,,ISIC_2466892.JPG,26,true,0.15000000000000002,hh,keypress(i),100,false,134908.19999998808,134907.80000001192,130737.703,130755.59999996424,130754.303,134925.165,1,16,2,
sequence,flow.Sequence,4_1,2023-11-20T15:59:23.889Z,,,,,,,,,,,4153.497000011921,completion,,,,,,,high,high,,,,,,true,,,,,false,134908.89999997616,134907.80000001192,130737.703,130755.5,130754.303,134925.165,1,16,,
trial,html.Screen,4_2_0,2023-11-20T15:59:32.258Z,,,,0,-1.1164729501046406,-1.2978935747992253,,,true,hh,8353.034999988071,response,1.1598623261077452,1.2,-1.2,1.203269031614007,1.2,-1.2,high,high,,ISIC_0034166.JPG,,ISIC_0002639.JPG,26,true,0.15000000000000002,hh,keypress(i),100,false,143278.80000001192,143278.19999998808,134908.536,134909.39999997616,134925.165,143300.144,1,16,3,
sequence,flow.Sequence,4_2,2023-11-20T15:59:32.259Z,,,,,,,,,,,8353.034999988071,completion,,,,,,,high,high,,,,,,true,,,,,false,143279.69999998808,143278.19999998808,134908.536,134909.19999998808,134925.165,143300.144,1,16,,
trial,html.Screen,4_3_0,2023-11-20T15:59:34.806Z,,,,0,-1.1383813631375823,-1.1319312220332556,,,true,hh,2526.1560000119207,response,1.201100953917304,1.2,-1.2,1.1751492358160105,1.2,-1.2,high,high,,ISIC_6227397.JPG,,ISIC_0647224.JPG,26,true,0.15000000000000002,hh,keypress(i),100,false,145826.59999996424,145826.30000001192,143283.553,143280.09999996424,143300.144,145852.75,1,16,4,
sequence,flow.Sequence,4_3,2023-11-20T15:59:34.806Z,,,,,,,,,,,2526.1560000119207,completion,,,,,,,high,high,,,,,,true,,,,,false,145826.80000001192,145826.30000001192,143283.553,143280,143300.144,145852.75,1,16,,
trial,html.Screen,4_4_0,2023-11-20T15:59:39.936Z,,,,0,1.2706447584800626,1.0903308007916603,,,true,ll,5102.75,response,-1.2923059965680113,1.2,-1.2,-1.222688159093534,1.2,-1.2,low,low,,ISIC_9425937.JPG,,ISIC_0072175.JPG,30,true,0.1,ll,keypress(f),100,false,150956,150955.5,145836.177,145827,145852.75,150974.65,1,16,5,
sequence,flow.Sequence,4_4,2023-11-20T15:59:39.936Z,,,,,,,,,,,5102.75,completion,,,,,,,low,low,,,,,,true,,,,,false,150956.80000001192,150955.5,145836.177,145826.89999997616,145852.75,150974.65,1,16,,
trial,html.Screen,4_5_0,2023-11-20T15:59:43.868Z,,,,0,1.0858641668099058,1.1638942560200525,,,true,ll,3913.549999988085,response,-1.185875658992962,1.2,-1.2,-1.2635548590325487,1.2,-1.2,low,low,,ISIC_5439597.JPG,,ISIC_0011703.JPG,53,true,0.15000000000000002,ll,keypress(f),100,false,154888.69999998808,154888.19999998808,150957.884,150957.09999996424,150974.65,154911.818,1,16,6,
sequence,flow.Sequence,4_5,2023-11-20T15:59:43.869Z,,,,,,,,,,,3913.549999988085,completion,,,,,,,low,low,,,,,,true,,,,,false,154889.30000001192,154888.19999998808,150957.884,150957,150974.65,154911.818,1,16,,
trial,html.Screen,4_6_0,2023-11-20T15:59:47.807Z,,,,0,1.2024083555600384,1.149077673153018,,,true,ll,3915.081999976159,response,-1.150547408535662,1.2,-1.2,-1.3135268651968233,1.2,-1.2,low,low,,ISIC_3566243.JPG,,ISIC_0072568.JPG,53,true,0.15000000000000002,ll,keypress(f),100,false,158827,158826.89999997616,154895.107,154889.5,154911.818,158849.028,1,16,7,
sequence,flow.Sequence,4_6,2023-11-20T15:59:47.807Z,,,,,,,,,,,3915.081999976159,completion,,,,,,,low,low,,,,,,true,,,,,false,158827.19999998808,158826.89999997616,154895.107,154889.5,154911.818,158849.028,1,16,,
trial,html.Screen,4_7_0,2023-11-20T15:59:52.996Z,,,,0,1.0858641668099058,1.1638942560200525,,,true,ll,5166.972000000009,response,-1.242586748440878,1.2,-1.2,-1.1207933200172129,1.2,-1.2,low,low,,ISIC_5439597.JPG,,ISIC_0013073.JPG,53,true,0.15000000000000002,ll,keypress(f),100,false,164016.39999997616,164016,158832.428,158827.19999998808,158849.028,164054.18,1,16,8,
sequence,flow.Sequence,4_7,2023-11-20T15:59:52.997Z,,,,,,,,,,,5166.972000000009,completion,,,,,,,low,low,,,,,,true,,,,,false,164017.19999998808,164016,158832.428,158827.19999998808,158849.028,164054.18,1,16,,
trial,html.Screen,4_8_0,2023-11-20T16:00:05.281Z,,,,0,1.020990671779317,-1.0116513850520903,,,true,lh,12246.120000011928,response,-0.948927472020595,1.2,-1.2,1.0660437155921598,1.2,-1.2,low,high,,ISIC_0011995.JPG,,ISIC_5808758.JPG,27,true,0.42000000000000026,lh,keypress(e),100,false,176300.69999998808,176300.30000001192,164020.912,164017.5,164054.18,176316.42,1,16,9,
sequence,flow.Sequence,4_8,2023-11-20T16:00:05.282Z,,,,,,,,,,,12246.120000011928,completion,,,,,,,low,high,,,,,,true,,,,,false,176301.39999997616,176300.30000001192,164020.912,164017.39999997616,164054.18,176316.42,1,16,,
trial,html.Screen,4_9_0,2023-11-20T16:00:12.216Z,,,,0,1.2364994561934892,-0.9174173651516624,,,true,lh,6918.979999976145,response,-0.809764442462202,1.2,-1.2,1.005337148078696,1.2,-1.2,low,high,,ISIC_3481133.JPG,,ISIC_2379379.JPG,27,true,0.42000000000000026,lh,keypress(e),100,false,183235.69999998808,183235.39999997616,176299.88,176301.69999998808,176316.42,183256.682,1,16,10,
sequence,flow.Sequence,4_9,2023-11-20T16:00:12.217Z,,,,,,,,,,,6918.979999976145,completion,,,,,,,low,high,,,,,,true,,,,,false,183236.30000001192,183235.39999997616,176299.88,176301.69999998808,176316.42,183256.682,1,16,,
trial,html.Screen,4_10_0,2023-11-20T16:00:18.633Z,,,,0,1.2075172235545184,-0.9116724966267612,,,true,lh,6395.11800001192,response,-0.8092423703106274,1.2,-1.2,1.1870093485714288,1.2,-1.2,low,high,,ISIC_0024235.JPG,,ISIC_8592235.JPG,27,true,0.42000000000000026,lh,keypress(e),100,false,189652.19999998808,189651.80000001192,183240.093,183236.59999996424,183256.682,189680,1,16,11,
sequence,flow.Sequence,4_10,2023-11-20T16:00:18.633Z,,,,,,,,,,,6395.11800001192,completion,,,,,,,low,high,,,,,,true,,,,,false,189652.89999997616,189651.80000001192,183240.093,183236.59999996424,183256.682,189680,1,16,,
trial,html.Screen,4_11_0,2023-11-20T16:00:23.979Z,,,,0,0.8809306963311293,-0.8614910030038974,,,true,lh,5318.399999976158,response,-0.809764442462202,1.2,-1.2,1.005337148078696,1.2,-1.2,low,high,,ISIC_0013731.JPG,,ISIC_2379379.JPG,27,true,0.42000000000000026,lh,keypress(e),100,false,194998.5,194998.39999997616,189663.109,189653.19999998808,189680,195018.468,1,16,12,
sequence,flow.Sequence,4_11,2023-11-20T16:00:23.979Z,,,,,,,,,,,5318.399999976158,completion,,,,,,,low,high,,,,,,true,,,,,false,194998.59999996424,194998.39999997616,189663.109,189653.09999996424,189680,195018.468,1,16,,
trial,html.Screen,4_12_0,2023-11-20T16:00:37.420Z,,,,0,-0.7870237732709365,0.9172955251119376,,,true,hl,13421.032000000007,response,1.020990671779317,1.2,-1.2,-1.0116513850520903,1.2,-1.2,high,low,,ISIC_0057716.JPG,,ISIC_0011995.JPG,26,true,0.3600000000000002,hl,keypress(j),100,false,208440,208439.5,195001.766,194998.69999998808,195018.468,208465.178,1,16,13,
sequence,flow.Sequence,4_12,2023-11-20T16:00:37.421Z,,,,,,,,,,,13421.032000000007,completion,,,,,,,high,low,,,,,,true,,,,,false,208440.59999996424,208439.5,195001.766,194998.69999998808,195018.468,208465.178,1,16,,
trial,html.Screen,4_13_0,2023-11-20T16:01:00.723Z,,,,0,-0.8035152873995188,0.82868450251632,,,true,hl,23276.721999976144,response,1.011737552725394,1.2,-1.2,-0.8500530224490773,1.2,-1.2,high,low,,ISIC_0010671.JPG,,ISIC_2998367.JPG,33,true,0.42000000000000026,hl,keypress(j),100,false,231742.19999998808,231741.89999997616,208448.583,208441,208465.178,231771.813,1,16,14,
sequence,flow.Sequence,4_13,2023-11-20T16:01:00.724Z,,,,,,,,,,,23276.721999976144,completion,,,,,,,high,low,,,,,,true,,,,,false,231743,231741.89999997616,208448.583,208440.89999997616,208465.178,231771.813,1,16,,
trial,html.Screen,4_14_0,2023-11-20T16:01:40.701Z,,,,0,-0.7833710010171356,0.9315588090336896,,,true,hl,39947.58699997616,response,0.858338058340649,1.2,-1.2,-0.9540612223480284,1.2,-1.2,high,low,,ISIC_3826102.JPG,,ISIC_8922893.JPG,33,true,0.42000000000000026,hl,keypress(j),100,false,271719.6999999881,271719.39999997616,231755.126,231743.30000001192,231771.813,271745.009,1,16,15,
sequence,flow.Sequence,4_14,2023-11-20T16:01:40.701Z,,,,,,,,,,,39947.58699997616,completion,,,,,,,high,low,,,,,,true,,,,,false,271720.1999999881,271719.39999997616,231755.126,231743.19999998808,231771.813,271745.009,1,16,,
trial,html.Screen,4_15_0,2023-11-20T16:01:50.258Z,,,,0,-0.8092423703106274,1.1870093485714288,,,true,hl,9531.690999988059,response,1.0656673213158945,1.2,-1.2,-0.8082541692781954,1.2,-1.2,high,low,,ISIC_8592235.JPG,,ISIC_0033985.JPG,33,true,0.42000000000000026,hl,keypress(j),100,false,281277.09999996424,281276.6999999881,271728.381,271720.39999997616,271745.009,281304.528,1,16,16,
sequence,flow.Sequence,4_15,2023-11-20T16:01:50.259Z,,,,,,,,,,,9531.690999988059,completion,,,,,,,high,low,,,,,,true,,,,,false,281277.6999999881,281276.6999999881,271728.381,271720.39999997616,271745.009,281304.528,1,16,,
demonstration_loop,flow.Loop,4,2023-11-20T16:01:50.259Z,,,,,,,,,,,166204.72799998807,completion,,,,,,,,,,,,,,true,,,,,false,281278,281276.6999999881,115054.767,115063.5,115071.972,281304.528,1,16,,
practice_instructions,html.Screen,5,2023-11-20T16:02:03.925Z,,,,,,,,,,,13629.071999964246,response,,,,,,,,,,,,,,,,continue,keypress(Space),,,294944.39999997616,294933.59999996424,281287.909,281278.1999999881,281304.528,294951.5,,,,
trial,html.Screen,6_0_0,2023-11-20T16:02:11.465Z,,,,1,-1.156827121261563,-1.2544342720917778,,,true,hh,7525.099999964237,response,1.0870240111136478,1.2,-1.2,1.332340670965917,1.2,-1.2,high,high,,ISIC_0060397.JPG,,ISIC_0000660.JPG,26,true,0.15000000000000002,hh,keypress(i),0,false,302483,302476.59999996424,294934.561,294944.5,294951.5,302492.443,1,40,1,
sequence,flow.Sequence,6_0,2023-11-20T16:02:11.465Z,,,,,,,,,,,7525.099999964237,completion,,,,,,,high,high,,,,,,true,,,,,false,302483,302476.59999996424,294934.561,294944.5,294951.5,302492.443,1,40,,
trial,html.Screen,6_1_0,2023-11-20T16:02:17.676Z,,,,1,-1.101346104814838,-1.1225813067473052,,,false,hh,6201.156999964209,response,1.0858641668099058,1.2,-1.2,1.1638942560200525,1.2,-1.2,high,high,,ISIC_8175453.JPG,,ISIC_5439597.JPG,26,true,0.15000000000000002,hl,keypress(j),0,false,308693.8000000119,308693.59999996424,302475.662,302483.1999999881,302492.443,308698.635,1,40,2,
sequence,flow.Sequence,6_1,2023-11-20T16:02:17.676Z,,,,,,,,,,,6201.156999964209,completion,,,,,,,high,high,,,,,,true,,,,,false,308694.09999996424,308693.59999996424,302475.662,302483.1999999881,302492.443,308698.635,1,40,,
trial,html.Screen,6_2_0,2023-11-20T16:02:20.523Z,,,,1,-1.255256820488545,-1.1206426433062562,,,false,hh,2842.1650000119116,response,1.3411179702686655,1.2,-1.2,1.255103311449152,1.2,-1.2,high,high,,ISIC_0024652.JPG,,ISIC_5611010.JPG,26,true,0.15000000000000002,hl,keypress(j),0,false,311540.89999997616,311540.8000000119,308682.007,308694.1999999881,308698.635,311551.401,1,40,3,
sequence,flow.Sequence,6_2,2023-11-20T16:02:20.523Z,,,,,,,,,,,2842.1650000119116,completion,,,,,,,high,high,,,,,,true,,,,,false,311540.89999997616,311540.8000000119,308682.007,308694.1999999881,308698.635,311551.401,1,40,,
trial,html.Screen,6_3_0,2023-11-20T16:02:33.757Z,,,,1,-1.0213365328004047,1.088524359911891,,,true,hl,13223.298999988066,response,1.1181734135756094,1.2,-1.2,-0.944560381774994,1.2,-1.2,high,low,,ISIC_5434229.JPG,,ISIC_9688534.JPG,26,true,0.3600000000000002,hl,keypress(j),0,false,324775,324774.6999999881,311534.923,311541,311551.401,324781.267,1,40,4,
sequence,flow.Sequence,6_3,2023-11-20T16:02:33.758Z,,,,,,,,,,,13223.298999988066,completion,,,,,,,high,low,,,,,,true,,,,,false,324775.39999997616,324774.6999999881,311534.923,311541,311551.401,324781.267,1,40,,
trial,html.Screen,6_4_0,2023-11-20T16:02:40.173Z,,,,1,-1.2169050727663315,-1.1067845563421794,,,false,hh,6409.033000011928,response,0.8671772321064484,1.2,-1.2,1.0212529379514277,1.2,-1.2,high,high,,ISIC_7016261.JPG,,ISIC_0004352.JPG,253,true,0.42000000000000026,hl,keypress(j),0,false,331190.59999996424,331190.3000000119,324764.48,324775.59999996424,324781.267,331204.341,1,40,5,
sequence,flow.Sequence,6_4,2023-11-20T16:02:40.173Z,,,,,,,,,,,6409.033000011928,completion,,,,,,,high,high,,,,,,true,,,,,false,331191.09999996424,331190.3000000119,324764.48,324775.59999996424,324781.267,331204.341,1,40,,
trial,html.Screen,6_5_0,2023-11-20T16:02:49.981Z,,,,1,-1.276222161935671,0.9657780821973284,,,true,hl,9794.258999964222,response,1.0751036484083878,1.2,-1.2,-1.143906455483852,1.2,-1.2,high,low,,ISIC_6710411.JPG,,ISIC_0064406.JPG,26,true,0.3600000000000002,hl,keypress(j),0,false,340998.89999997616,340998.59999996424,331187.675,331191.39999997616,331204.341,341014.102,1,40,6,
sequence,flow.Sequence,6_5,2023-11-20T16:02:49.982Z,,,,,,,,,,,9794.258999964222,completion,,,,,,,high,low,,,,,,true,,,,,false,340999.3000000119,340998.59999996424,331187.675,331191.3000000119,331204.341,341014.102,1,40,,
trial,html.Screen,6_6_0,2023-11-20T16:02:55.595Z,,,,1,-0.809764442462202,1.005337148078696,,,false,hl,5598.698000011907,response,0.9454713230140772,1.2,-1.2,-0.9245167441969216,1.2,-1.2,high,low,,ISIC_2379379.JPG,,ISIC_9101055.JPG,33,true,0.42000000000000026,ll,keypress(f),0,false,346612.89999997616,346612.8000000119,340997.413,340999.59999996424,341014.102,346619.725,1,40,7,
sequence,flow.Sequence,6_6,2023-11-20T16:02:55.595Z,,,,,,,,,,,5598.698000011907,completion,,,,,,,high,low,,,,,,true,,,,,false,346613,346612.8000000119,340997.413,340999.5,341014.102,346619.725,1,40,,
trial,html.Screen,6_7_0,2023-11-20T16:03:00.653Z,,,,1,-0.796241477082623,0.9017449335975743,,,true,hl,5050.8749999642605,response,0.879102500583965,1.2,-1.2,-1.0933081951979773,1.2,-1.2,high,low,,ISIC_8588033.JPG,,ISIC_0046223.JPG,33,true,0.42000000000000026,hl,keypress(j),0,false,351670.89999997616,351670.59999996424,346603.147,346613.09999996424,346619.725,351674.811,1,40,8,
sequence,flow.Sequence,6_7,2023-11-20T16:03:00.654Z,,,,,,,,,,,5050.8749999642605,completion,,,,,,,high,low,,,,,,true,,,,,false,351671.39999997616,351670.59999996424,346603.147,346613.09999996424,346619.725,351674.811,1,40,,
trial,html.Screen,6_8_0,2023-11-20T16:03:05.294Z,,,,1,-1.2952503640839694,-1.107234527385344,,,true,hh,4635.388999988092,response,1.3484513254017945,1.2,-1.2,0.9900809605367444,1.2,-1.2,high,high,,ISIC_0034134.JPG,,ISIC_0033081.JPG,253,true,0.42000000000000026,hh,keypress(i),0,false,356310.5,356310.1999999881,351658.254,351671.5,351674.811,356330.002,1,40,9,
sequence,flow.Sequence,6_8,2023-11-20T16:03:05.294Z,,,,,,,,,,,4635.388999988092,completion,,,,,,,high,high,,,,,,true,,,,,false,356311.09999996424,356310.1999999881,351658.254,351671.39999997616,351674.811,356330.002,1,40,,
trial,html.Screen,6_9_0,2023-11-20T16:03:10.734Z,,,,1,1.1388430156686884,1.2700552354887775,,,true,ll,5420.498000000021,response,-1.2169050727663315,1.2,-1.2,-1.1067845563421794,1.2,-1.2,low,low,,ISIC_9939653.JPG,,ISIC_7016261.JPG,30,true,0.1,ll,keypress(f),0,false,361750.8000000119,361750.5,356296.205,356311.3000000119,356330.002,361768.396,1,40,10,
sequence,flow.Sequence,6_9,2023-11-20T16:03:10.734Z,,,,,,,,,,,5420.498000000021,completion,,,,,,,low,low,,,,,,true,,,,,false,361751.3000000119,361750.5,356296.205,356311.1999999881,356330.002,361768.396,1,40,,
trial,html.Screen,6_10_0,2023-11-20T16:03:16.110Z,,,,1,1.201100953917304,1.1751492358160105,,,true,ll,5357.803999988071,response,-1.2952503640839694,1.2,-1.2,-1.107234527385344,1.2,-1.2,low,low,,ISIC_0647224.JPG,,ISIC_0034134.JPG,53,true,0.15000000000000002,ll,keypress(f),0,false,367126.5,367126.1999999881,361751.648,361751.5,361768.396,367140.173,1,40,11,
sequence,flow.Sequence,6_10,2023-11-20T16:03:16.110Z,,,,,,,,,,,5357.803999988071,completion,,,,,,,low,low,,,,,,true,,,,,false,367127,367126.1999999881,361751.648,361751.5,361768.396,367140.173,1,40,,
trial,html.Screen,6_11_0,2023-11-20T16:03:29.342Z,,,,1,-0.8092423703106274,1.1870093485714288,,,false,hl,13218.127000011911,response,0.879102500583965,1.2,-1.2,-1.0933081951979773,1.2,-1.2,high,low,,ISIC_8592235.JPG,,ISIC_0046223.JPG,26,true,0.3600000000000002,ll,keypress(f),0,false,380358.59999996424,380358.3000000119,367123.566,367127.1999999881,367140.173,380370.124,1,40,12,
sequence,flow.Sequence,6_11,2023-11-20T16:03:29.342Z,,,,,,,,,,,13218.127000011911,completion,,,,,,,high,low,,,,,,true,,,,,false,380359,380358.3000000119,367123.566,367127.1999999881,367140.173,380370.124,1,40,,
trial,html.Screen,6_12_0,2023-11-20T16:03:38.637Z,,,,1,-1.1877026569952844,-1.1604367569896263,,,true,hh,9283.775999976147,response,1.1628852193613872,1.2,-1.2,1.5464582893942915,1.2,-1.2,high,high,,ISIC_0064589.JPG,,ISIC_0008952.JPG,253,true,0.42000000000000026,hh,keypress(i),0,false,389654.3000000119,389653.89999997616,380353.384,380359.3000000119,380370.124,389679.356,1,40,13,
sequence,flow.Sequence,6_12,2023-11-20T16:03:38.638Z,,,,,,,,,,,9283.775999976147,completion,,,,,,,high,high,,,,,,true,,,,,false,389654.8000000119,389653.89999997616,380353.384,380359.3000000119,380370.124,389679.356,1,40,,
trial,html.Screen,6_13_0,2023-11-20T16:03:44.750Z,,,,1,-0.8092423703106274,1.1870093485714288,,,true,hl,6087.043999976129,response,0.879102500583965,1.2,-1.2,-1.0933081951979773,1.2,-1.2,high,low,,ISIC_8592235.JPG,,ISIC_0046223.JPG,26,true,0.3600000000000002,hl,keypress(j),0,false,395766.8000000119,395766.39999997616,389645.961,389655.09999996424,389679.356,395785.809,1,40,14,
sequence,flow.Sequence,6_13,2023-11-20T16:03:44.750Z,,,,,,,,,,,6087.043999976129,completion,,,,,,,high,low,,,,,,true,,,,,false,395767.1999999881,395766.39999997616,389645.961,389655,389679.356,395785.809,1,40,,
trial,html.Screen,6_14_0,2023-11-20T16:03:51.116Z,,,,1,0.9579209317488,-1.0147487101263497,,,true,lh,6346.890999988071,response,-1.0264463986917702,1.2,-1.2,1.2804054832904397,1.2,-1.2,low,high,,ISIC_8124482.JPG,,ISIC_7889838.JPG,27,true,0.42000000000000026,lh,keypress(e),0,false,402132.6999999881,402132.6999999881,395752.186,395767.39999997616,395785.809,402141.835,1,40,15,
sequence,flow.Sequence,6_14,2023-11-20T16:03:51.116Z,,,,,,,,,,,6346.890999988071,completion,,,,,,,low,high,,,,,,true,,,,,false,402132.89999997616,402132.6999999881,395752.186,395767.39999997616,395785.809,402141.835,1,40,,
trial,html.Screen,6_15_0,2023-11-20T16:03:55.021Z,,,,1,1.1388430156686884,1.2700552354887775,,,true,ll,3896.164999999979,response,-0.9588812385345452,1.2,-1.2,-1.21949255303104,1.2,-1.2,low,low,,ISIC_9939653.JPG,,ISIC_0069986.JPG,245,true,0.3600000000000002,ll,keypress(f),0,false,406038.3000000119,406038,402125.182,402132.89999997616,402141.835,406045.669,1,40,16,
sequence,flow.Sequence,6_15,2023-11-20T16:03:55.022Z,,,,,,,,,,,3896.164999999979,completion,,,,,,,low,low,,,,,,true,,,,,false,406038.6999999881,406038,402125.182,402132.89999997616,402141.835,406045.669,1,40,,
trial,html.Screen,6_16_0,2023-11-20T16:03:58.638Z,,,,1,-1.2282561398079586,-1.210457198775374,,,true,hh,3608.5309999880847,response,1.057008495826831,1.2,-1.2,1.1278122585028287,1.2,-1.2,high,high,,ISIC_9141817.JPG,,ISIC_2819798.JPG,26,true,0.15000000000000002,hh,keypress(i),0,false,409654.5,409654.1999999881,406029.134,406038.89999997616,406045.669,409665.944,1,40,17,
sequence,flow.Sequence,6_16,2023-11-20T16:03:58.638Z,,,,,,,,,,,3608.5309999880847,completion,,,,,,,high,high,,,,,,true,,,,,false,409655.09999996424,409654.1999999881,406029.134,406038.89999997616,406045.669,409665.944,1,40,,
trial,html.Screen,6_17_0,2023-11-20T16:04:04.669Z,,,,1,-0.9235571765207048,1.0008081653938232,,,true,hl,6020.1559999642195,response,0.879102500583965,1.2,-1.2,-1.0933081951979773,1.2,-1.2,high,low,,ISIC_8796632.JPG,,ISIC_0046223.JPG,26,true,0.3600000000000002,hl,keypress(j),0,false,415686.3000000119,415686.09999996424,409649.483,409655.3000000119,409665.944,415706.104,1,40,18,
sequence,flow.Sequence,6_17,2023-11-20T16:04:04.670Z,,,,,,,,,,,6020.1559999642195,completion,,,,,,,high,low,,,,,,true,,,,,false,415686.8000000119,415686.09999996424,409649.483,409655.1999999881,409665.944,415706.104,1,40,,
trial,html.Screen,6_18_0,2023-11-20T16:04:16.621Z,,,,1,1.2075172235545184,-0.9116724966267612,,,true,lh,11930.595999988087,response,-0.8035152873995188,1.2,-1.2,0.82868450251632,1.2,-1.2,low,high,,ISIC_0024235.JPG,,ISIC_0010671.JPG,27,true,0.42000000000000026,lh,keypress(e),0,false,427636.6999999881,427636.6999999881,415672.108,415687,415706.104,427650.736,1,40,19,
sequence,flow.Sequence,6_18,2023-11-20T16:04:16.621Z,,,,,,,,,,,11930.595999988087,completion,,,,,,,low,high,,,,,,true,,,,,false,427636.89999997616,427636.6999999881,415672.108,415687,415706.104,427650.736,1,40,,
trial,html.Screen,6_19_0,2023-11-20T16:04:20.895Z,,,,1,1.0959058628476686,1.1684835186766898,,,true,ll,4259.463999988104,response,-0.9306454722820696,1.2,-1.2,-0.9812399591657396,1.2,-1.2,low,low,,ISIC_5920470.JPG,,ISIC_0009940.JPG,245,true,0.3600000000000002,ll,keypress(f),0,false,431910.5,431910.1999999881,427633.904,427636.89999997616,427650.736,431921.57,1,40,20,
sequence,flow.Sequence,6_19,2023-11-20T16:04:20.895Z,,,,,,,,,,,4259.463999988104,completion,,,,,,,low,low,,,,,,true,,,,,false,431911.09999996424,431910.1999999881,427633.904,427636.89999997616,427650.736,431921.57,1,40,,
trial,html.Screen,6_20_0,2023-11-20T16:04:23.230Z,,,,1,1.09666761087476,1.1072126870290426,,,true,ll,2324.629999988072,response,-1.2254187569955004,1.2,-1.2,-1.174555235109734,1.2,-1.2,low,low,,ISIC_0071754.JPG,,ISIC_0027187.JPG,53,true,0.15000000000000002,ll,keypress(f),0,false,434246.5,434246.1999999881,431905.018,431911.3000000119,431921.57,434257.132,1,40,21,
sequence,flow.Sequence,6_20,2023-11-20T16:04:23.231Z,,,,,,,,,,,2324.629999988072,completion,,,,,,,low,low,,,,,,true,,,,,false,434247,434246.1999999881,431905.018,431911.3000000119,431921.57,434257.132,1,40,,
trial,html.Screen,6_21_0,2023-11-20T16:04:31.071Z,,,,1,1.1181734135756094,-0.944560381774994,,,true,lh,7829.467999964254,response,-0.9388660854518424,1.2,-1.2,0.79533948698576,1.2,-1.2,low,high,,ISIC_9688534.JPG,,ISIC_9291926.JPG,27,true,0.42000000000000026,lh,keypress(e),0,false,442086.89999997616,442086.59999996424,434240.586,434247.1999999881,434257.132,442098.382,1,40,22,
sequence,flow.Sequence,6_21,2023-11-20T16:04:31.071Z,,,,,,,,,,,7829.467999964254,completion,,,,,,,low,high,,,,,,true,,,,,false,442087.3000000119,442086.59999996424,434240.586,434247.09999996424,434257.132,442098.382,1,40,,
trial,html.Screen,6_22_0,2023-11-20T16:04:42.735Z,,,,1,1.1388430156686884,1.2700552354887775,,,true,ll,11652.118000000017,response,-0.944471737138582,1.2,-1.2,-1.3341781670238706,1.2,-1.2,low,low,,ISIC_9939653.JPG,,ISIC_0345607.JPG,245,true,0.3600000000000002,ll,keypress(f),0,false,453750.89999997616,453750.5,442081.508,442087.59999996424,442098.382,453759.945,1,40,23,
sequence,flow.Sequence,6_22,2023-11-20T16:04:42.735Z,,,,,,,,,,,11652.118000000017,completion,,,,,,,low,low,,,,,,true,,,,,false,453751.3000000119,453750.5,442081.508,442087.5,442098.382,453759.945,1,40,,
trial,html.Screen,6_23_0,2023-11-20T16:04:54.223Z,,,,1,1.2364994561934892,-0.9174173651516624,,,false,lh,11478.454999976151,response,-1.4092385398614515,1.2,-1.2,1.3046237992197836,1.2,-1.2,low,high,,ISIC_3481133.JPG,,ISIC_7254359.JPG,27,true,0.42000000000000026,ll,keypress(f),0,false,465238.6999999881,465238.39999997616,453743.033,453751.5,453759.945,465254.783,1,40,24,
sequence,flow.Sequence,6_23,2023-11-20T16:04:54.223Z,,,,,,,,,,,11478.454999976151,completion,,,,,,,low,high,,,,,,true,,,,,false,465239.1999999881,465238.39999997616,453743.033,453751.5,453759.945,465254.783,1,40,,
trial,html.Screen,6_24_0,2023-11-20T16:04:57.646Z,,,,1,-1.152619213055059,-1.1117876838408909,,,true,hh,3407.4169999880833,response,1.0525847190618245,1.2,-1.2,0.934080360486692,1.2,-1.2,high,high,,ISIC_0061915.JPG,,ISIC_0010684.JPG,179,true,0.3600000000000002,hh,keypress(i),0,false,468662.5,468662.1999999881,465238.137,465239.39999997616,465254.783,468674.832,1,40,25,
sequence,flow.Sequence,6_24,2023-11-20T16:04:57.647Z,,,,,,,,,,,3407.4169999880833,completion,,,,,,,high,high,,,,,,true,,,,,false,468663,468662.1999999881,465238.137,465239.3000000119,465254.783,468674.832,1,40,,
trial,html.Screen,6_25_0,2023-11-20T16:05:05.439Z,,,,1,1.2364994561934892,-0.9174173651516624,,,true,lh,7779.267999964242,response,-1.4092385398614515,1.2,-1.2,1.3046237992197836,1.2,-1.2,low,high,,ISIC_3481133.JPG,,ISIC_7254359.JPG,27,true,0.42000000000000026,lh,keypress(e),0,false,476454.3000000119,476454.09999996424,468658.366,468663.3000000119,468674.832,476465.941,1,40,26,
sequence,flow.Sequence,6_25,2023-11-20T16:05:05.440Z,,,,,,,,,,,7779.267999964242,completion,,,,,,,low,high,,,,,,true,,,,,false,476454.8000000119,476454.09999996424,468658.366,468663.3000000119,468674.832,476465.941,1,40,,
trial,html.Screen,6_26_0,2023-11-20T16:05:10.607Z,,,,1,0.8534691366511764,-1.03975580494588,,,true,lh,5156.158999964246,response,-0.9388660854518424,1.2,-1.2,0.79533948698576,1.2,-1.2,low,high,,ISIC_0056788.JPG,,ISIC_9291926.JPG,27,true,0.42000000000000026,lh,keypress(e),0,false,481622.39999997616,481622.09999996424,476449.322,476455,476465.941,481637.766,1,40,27,
sequence,flow.Sequence,6_26,2023-11-20T16:05:10.608Z,,,,,,,,,,,5156.158999964246,completion,,,,,,,low,high,,,,,,true,,,,,false,481622.89999997616,481622.09999996424,476449.322,476455,476465.941,481637.766,1,40,,
trial,html.Screen,6_27_0,2023-11-20T16:05:16.688Z,,,,1,-0.8035152873995188,0.82868450251632,,,true,hl,6064.633999976155,response,0.9696118525781644,1.2,-1.2,-0.9244148283103414,1.2,-1.2,high,low,,ISIC_0010671.JPG,,ISIC_7927525.JPG,26,true,0.3600000000000002,hl,keypress(j),0,false,487702.6999999881,487702.39999997616,481621.178,481623.09999996424,481637.766,487710.509,1,40,28,
sequence,flow.Sequence,6_27,2023-11-20T16:05:16.688Z,,,,,,,,,,,6064.633999976155,completion,,,,,,,high,low,,,,,,true,,,,,false,487703.1999999881,487702.39999997616,481621.178,481623,481637.766,487710.509,1,40,,
trial,html.Screen,6_28_0,2023-11-20T16:05:21.407Z,,,,1,1.086647361897092,1.1528935990320313,,,true,ll,4711.291000011901,response,-1.247270138097585,1.2,-1.2,-1.1704704713504994,1.2,-1.2,low,low,,ISIC_3505339.JPG,,ISIC_0065774.JPG,339,true,0.42000000000000026,ll,keypress(f),0,false,492422.09999996424,492421.8000000119,487693.971,487703.3000000119,487710.509,492431.9,1,40,29,
sequence,flow.Sequence,6_28,2023-11-20T16:05:21.407Z,,,,,,,,,,,4711.291000011901,completion,,,,,,,low,low,,,,,,true,,,,,false,492422.59999996424,492421.8000000119,487693.971,487703.3000000119,487710.509,492431.9,1,40,,
trial,html.Screen,6_29_0,2023-11-20T16:05:27.822Z,,,,1,-0.9873794329144926,0.7991077882008257,,,true,hl,6405.199999964214,response,0.991282840649944,1.2,-1.2,-0.9397921099839784,1.2,-1.2,high,low,,ISIC_0013498.JPG,,ISIC_0000463.JPG,26,true,0.3600000000000002,hl,keypress(j),0,false,498837.1999999881,498837.09999996424,492415.149,492422.89999997616,492431.9,498855.339,1,40,30,
sequence,flow.Sequence,6_29,2023-11-20T16:05:27.822Z,,,,,,,,,,,6405.199999964214,completion,,,,,,,high,low,,,,,,true,,,,,false,498837.3000000119,498837.09999996424,492415.149,492422.8000000119,492431.9,498855.339,1,40,,
trial,html.Screen,6_30_0,2023-11-20T16:05:38.943Z,,,,1,1.131522954199764,1.1047184491749509,,,true,ll,11102.961000011943,response,-0.8597768256741747,1.2,-1.2,-1.1001121427563445,1.2,-1.2,low,low,,ISIC_1868816.JPG,,ISIC_5922588.JPG,339,true,0.42000000000000026,ll,keypress(f),0,false,509958.59999996424,509958.3000000119,498821.683,498837.3000000119,498855.339,509966.036,1,40,31,
sequence,flow.Sequence,6_30,2023-11-20T16:05:38.944Z,,,,,,,,,,,11102.961000011943,completion,,,,,,,low,low,,,,,,true,,,,,false,509959.09999996424,509958.3000000119,498821.683,498837.3000000119,498855.339,509966.036,1,40,,
trial,html.Screen,6_31_0,2023-11-20T16:05:41.359Z,,,,1,1.131522954199764,1.1047184491749509,,,true,ll,2408.0639999642153,response,-1.101214461533281,1.2,-1.2,-1.1849883512428183,1.2,-1.2,low,low,,ISIC_1868816.JPG,,ISIC_0064943.JPG,53,true,0.15000000000000002,ll,keypress(f),0,false,512374.39999997616,512374.09999996424,509949.406,509959.39999997616,509966.036,512385.194,1,40,32,
sequence,flow.Sequence,6_31,2023-11-20T16:05:41.360Z,,,,,,,,,,,2408.0639999642153,completion,,,,,,,low,low,,,,,,true,,,,,false,512374.89999997616,512374.09999996424,509949.406,509959.39999997616,509966.036,512385.194,1,40,,
trial,html.Screen,6_32_0,2023-11-20T16:05:45.919Z,,,,1,1.0858641668099058,1.1638942560200525,,,true,ll,4548.805999999982,response,-1.0698162624196283,1.2,-1.2,-1.219634566983089,1.2,-1.2,low,low,,ISIC_5439597.JPG,,ISIC_0030552.JPG,53,true,0.15000000000000002,ll,keypress(f),0,false,516934.39999997616,516934,512368.633,512375.09999996424,512385.194,516939.741,1,40,33,
sequence,flow.Sequence,6_32,2023-11-20T16:05:45.920Z,,,,,,,,,,,4548.805999999982,completion,,,,,,,low,low,,,,,,true,,,,,false,516935,516934,512368.633,512375,512385.194,516939.741,1,40,,
trial,html.Screen,6_33_0,2023-11-20T16:05:49.231Z,,,,1,-1.1253220985777015,-1.108725659461368,,,true,hh,3306.559000011941,response,1.131522954199764,1.2,-1.2,1.1047184491749509,1.2,-1.2,high,high,,ISIC_0054954.JPG,,ISIC_1868816.JPG,26,true,0.15000000000000002,hh,keypress(i),0,false,520246.59999996424,520246.3000000119,516923.164,516935.3000000119,516939.741,520259.644,1,40,34,
sequence,flow.Sequence,6_33,2023-11-20T16:05:49.232Z,,,,,,,,,,,3306.559000011941,completion,,,,,,,high,high,,,,,,true,,,,,false,520247,520246.3000000119,516923.164,516935.3000000119,516939.741,520259.644,1,40,,
trial,html.Screen,6_34_0,2023-11-20T16:05:54.431Z,,,,1,1.4747161152848791,-0.847048591307387,,,true,lh,5186.455999964266,response,-0.9388660854518424,1.2,-1.2,0.79533948698576,1.2,-1.2,low,high,,ISIC_0016092.JPG,,ISIC_9291926.JPG,27,true,0.42000000000000026,lh,keypress(e),0,false,525446.3999999762,525446.0999999642,520243.189,520247.3000000119,520259.644,525466.091,1,40,35,
sequence,flow.Sequence,6_34,2023-11-20T16:05:54.432Z,,,,,,,,,,,5186.455999964266,completion,,,,,,,low,high,,,,,,true,,,,,false,525446.8999999762,525446.0999999642,520243.189,520247.1999999881,520259.644,525466.091,1,40,,
trial,html.Screen,6_35_0,2023-11-20T16:06:00.016Z,,,,1,-0.7809949855371787,0.8493861117004308,,,true,hl,5564.508999964222,response,0.8579451262594331,1.2,-1.2,-0.9633172970727744,1.2,-1.2,high,low,,ISIC_7450481.JPG,,ISIC_0067172.JPG,26,true,0.3600000000000002,hl,keypress(j),0,false,531031.0999999642,531030.5999999642,525431.447,525447.0999999642,525466.091,531037.078,1,40,36,
sequence,flow.Sequence,6_35,2023-11-20T16:06:00.017Z,,,,,,,,,,,5564.508999964222,completion,,,,,,,high,low,,,,,,true,,,,,false,531032,531030.5999999642,525431.447,525447.0999999642,525466.091,531037.078,1,40,,
trial,html.Screen,6_36_0,2023-11-20T16:06:06.656Z,,,,1,1.2075172235545184,-0.9116724966267612,,,true,lh,6632.821999976179,response,-0.8816288864119318,1.2,-1.2,0.801867301188093,1.2,-1.2,low,high,,ISIC_0024235.JPG,,ISIC_9196783.JPG,27,true,0.42000000000000026,lh,keypress(e),0,false,537670.1999999881,537669.8999999762,531020.555,531032,531037.078,537677.031,1,40,37,
sequence,flow.Sequence,6_36,2023-11-20T16:06:06.656Z,,,,,,,,,,,6632.821999976179,completion,,,,,,,low,high,,,,,,true,,,,,false,537670.6999999881,537669.8999999762,531020.555,531032,531037.078,537677.031,1,40,,
trial,html.Screen,6_37_0,2023-11-20T16:06:09.712Z,,,,1,-1.272699544571422,-1.12917997553565,,,true,hh,3049.068999964278,response,0.9840050049609405,1.2,-1.2,1.160746324899676,1.2,-1.2,high,high,,ISIC_0012057.JPG,,ISIC_8651053.JPG,179,true,0.3600000000000002,hh,keypress(i),0,false,540726.3000000119,540726.0999999642,537660.484,537670.8999999762,537677.031,540746.77,1,40,38,
sequence,flow.Sequence,6_37,2023-11-20T16:06:09.713Z,,,,,,,,,,,3049.068999964278,completion,,,,,,,high,high,,,,,,true,,,,,false,540726.8999999762,540726.0999999642,537660.484,537670.8000000119,537677.031,540746.77,1,40,,
trial,html.Screen,6_38_0,2023-11-20T16:06:22.608Z,,,,1,0.858338058340649,-0.9540612223480284,,,false,lh,12875.62999997614,response,-0.8816288864119318,1.2,-1.2,0.801867301188093,1.2,-1.2,low,high,,ISIC_8922893.JPG,,ISIC_9196783.JPG,27,true,0.42000000000000026,ll,keypress(f),0,false,553622.6999999881,553622.3999999762,540713.61,540727,540746.77,553626.344,1,40,39,
sequence,flow.Sequence,6_38,2023-11-20T16:06:22.609Z,,,,,,,,,,,12875.62999997614,completion,,,,,,,low,high,,,,,,true,,,,,false,553623.1999999881,553622.3999999762,540713.61,540727,540746.77,553626.344,1,40,,
trial,html.Screen,6_39_0,2023-11-20T16:06:34.752Z,,,,1,1.011737552725394,-0.8500530224490773,,,true,lh,12140.055999976117,response,-0.7998855902596425,1.2,-1.2,1.1518579145663017,1.2,-1.2,low,high,,ISIC_2998367.JPG,,ISIC_0025061.JPG,27,true,0.42000000000000026,lh,keypress(e),0,false,565766.5999999642,565766.3999999762,553609.575,553623.3000000119,553626.344,565771.724,1,40,40,
sequence,flow.Sequence,6_39,2023-11-20T16:06:34.753Z,,,,,,,,,,,12140.055999976117,completion,,,,,,,low,high,,,,,,true,,,,,false,565767.0999999642,565766.3999999762,553609.575,553623.3000000119,553626.344,565771.724,1,40,,
practice_loop,flow.Loop,6,2023-11-20T16:06:34.753Z,,,,,,,,,,,270814.89999997616,completion,,,,,,,,,,,,,,true,,,,,false,565767.3999999762,565766.3999999762,294934.561,294944.39999997616,294951.5,565771.724,1,40,,
stair_instructions,html.Screen,7,2023-11-20T16:06:36.272Z,,,,,,,,,,,1513.3759999641916,response,,,,,,,,,,,,,,,,continue,keypress(Space),,,567285.8000000119,567285.0999999642,565755.094,565767.5,565771.724,567289.99,,,,
trial,html.Screen,8_0_0,2023-11-20T16:06:46.552Z,,,,2,0.0245376145053177,-0.0436993426328401,,0.05,true,hh,10276.709999988088,response,0.8463538475082831,1.2,-1.2,0.8806175558408877,1.2,-1.2,high,high,,ISIC_0056444.JPG,,ISIC_8916136.JPG,179,false,0.3600000000000002,hh,keypress(i),0,true,577566.8000000119,577566.6999999881,567273.459,567286.1999999881,567289.99,577583.519,1,40,1,
sequence,flow.Sequence,8_0,2023-11-20T16:06:46.553Z,,,,,,,,,,,10276.709999988088,completion,,,,,,,high,high,,,,,,false,,,,,true,577566.8000000119,577566.6999999881,567273.459,567286.1999999881,567289.99,577583.519,1,40,,
trial,html.Screen,8_1_0,2023-11-20T16:06:55.233Z,,,,2,-0.0116094682222121,0.0258434522530318,,0.05,true,lh,8663.580999964266,response,-1.4092385398614515,1.15,-1.15,1.3046237992197836,1.15,-1.15,low,high,,ISIC_9239632.JPG,,ISIC_7254359.JPG,27,false,0.3700000000000002,lh,keypress(e),0,true,586247.1999999881,586247.0999999642,577567.004,577567,577583.519,586258.882,1,40,2,
sequence,flow.Sequence,8_1,2023-11-20T16:06:55.233Z,,,,,,,,,,,8663.580999964266,completion,,,,,,,low,high,,,,,,false,,,,,true,586247.3000000119,586247.0999999642,577567.004,577566.8999999762,577583.519,586258.882,1,40,,
trial,html.Screen,8_2_0,2023-11-20T16:07:10.818Z,,,,2,0.0362376068089956,0.047825070846155,,0.05,true,lh,15572.217999964254,response,-1.0115965332688306,1.15,-1.15,0.8282633603842442,1.0999999999999999,-1.15,low,high,,ISIC_6985114.JPG,,ISIC_1069587.JPG,25,false,0.3600000000000002,lh,keypress(e),0,true,601831.0999999642,601831.0999999642,586242.271,586247.3999999762,586258.882,601841.091,1,40,3,
sequence,flow.Sequence,8_2,2023-11-20T16:07:10.818Z,,,,,,,,,,,15572.217999964254,completion,,,,,,,low,high,,,,,,false,,,,,true,601831.1999999881,601831.0999999642,586242.271,586247.3000000119,586258.882,601841.091,1,40,,
trial,html.Screen,8_3_0,2023-11-20T16:07:22.391Z,,,,2,0.0159061451859594,0.0296598845560212,,0.05,false,lh,11563.209000011906,response,-0.8655167308525522,1.15,-1.0999999999999999,0.9298580423306444,1.0999999999999999,-1.15,low,high,,ISIC_0072564.JPG,,ISIC_4603706.JPG,27,false,0.3200000000000002,hl,keypress(j),0,true,613404.3999999762,613404.3000000119,601824.111,601831.3000000119,601841.091,613419.567,1,40,4,
sequence,flow.Sequence,8_3,2023-11-20T16:07:22.391Z,,,,,,,,,,,11563.209000011906,completion,,,,,,,low,high,,,,,,false,,,,,true,613404.5,613404.3000000119,601824.111,601831.3000000119,601841.091,613419.567,1,40,,
trial,html.Screen,8_4_0,2023-11-20T16:07:25.648Z,,,,2,0.0159061451859594,0.0296598845560212,,0.05,true,hh,3241.332999976119,response,1.241406480986552,1.15,-1.15,1.081912821786771,1.15,-1.15,high,high,,ISIC_0072564.JPG,,ISIC_4223155.JPG,30,false,0.13,hh,keypress(i),0,true,616661,616660.8999999762,613402.413,613404.5999999642,613419.567,616672.728,1,40,5,
sequence,flow.Sequence,8_4,2023-11-20T16:07:25.648Z,,,,,,,,,,,3241.332999976119,completion,,,,,,,high,high,,,,,,false,,,,,true,616661.1999999881,616660.8999999762,613402.413,613404.5999999642,613419.567,616672.728,1,40,,
trial,html.Screen,8_5_0,2023-11-20T16:07:29.638Z,,,,2,-0.0329095507339554,0.0382899749693245,,0.05,true,ll,3978.8719999642344,response,-1.1253220985777015,1.1116596513866615,-1.15,-1.108725659461368,1.15,-1.15,low,low,,ISIC_8812781.JPG,,ISIC_0054954.JPG,27,false,0.1,ll,keypress(f),0,true,620651.6999999881,620651.5999999642,616656.01,616661.1999999881,616672.728,620659.809,1,40,6,
sequence,flow.Sequence,8_5,2023-11-20T16:07:29.638Z,,,,,,,,,,,3978.8719999642344,completion,,,,,,,low,low,,,,,,false,,,,,true,620651.8999999762,620651.5999999642,616656.01,616661.1999999881,616672.728,620659.809,1,40,,
trial,html.Screen,8_6_0,2023-11-20T16:07:35.991Z,,,,2,-0.007397293189458,-0.0174716772037504,,0.05,true,hl,6344.390999988071,response,1.020990671779317,1.1116596513866615,-1.15,-1.0116513850520903,1.15,-1.15,high,low,,ISIC_0056226.JPG,,ISIC_0011995.JPG,26,false,0.30000000000000016,hl,keypress(j),0,true,627004.1999999881,627004.1999999881,620643.282,620651.8999999762,620659.809,627016.161,1,40,7,
sequence,flow.Sequence,8_6,2023-11-20T16:07:35.991Z,,,,,,,,,,,6344.390999988071,completion,,,,,,,high,low,,,,,,false,,,,,true,627004.3999999762,627004.1999999881,620643.282,620651.8999999762,620659.809,627016.161,1,40,,
trial,html.Screen,8_7_0,2023-11-20T16:07:39.714Z,,,,2,0.0051189696037511,-0.0396625911332438,,0.05,true,ll,3711.4389999642735,response,-1.135372722680314,1.1116596513866615,-1.15,-1.0926414044454305,1.15,-1.0999999999999999,low,low,,ISIC_9742891.JPG,,ISIC_2355513.JPG,32,false,0.1,ll,keypress(f),0,true,630727.8000000119,630727.5999999642,626999.548,627004.3999999762,627016.161,630736.584,1,40,8,
sequence,flow.Sequence,8_7,2023-11-20T16:07:39.714Z,,,,,,,,,,,3711.4389999642735,completion,,,,,,,low,low,,,,,,false,,,,,true,630727.8999999762,630727.5999999642,626999.548,627004.3999999762,627016.161,630736.584,1,40,,
trial,html.Screen,8_8_0,2023-11-20T16:07:47.415Z,,,,2,-0.0389988030702649,-0.0143212271490256,,0.05,true,hl,7691.915999999968,response,0.9696118525781644,1.1116596513866615,-1.0640070635628722,-0.9244148283103414,1.15,-1.0999999999999999,high,low,,ISIC_0064669.JPG,,ISIC_7927525.JPG,25,false,0.27000000000000013,hl,keypress(j),0,true,638428.5999999642,638428.5,630719.865,630727.8999999762,630736.584,638444.472,1,40,9,
sequence,flow.Sequence,8_8,2023-11-20T16:07:47.415Z,,,,,,,,,,,7691.915999999968,completion,,,,,,,high,low,,,,,,false,,,,,true,638428.6999999881,638428.5,630719.865,630727.8999999762,630736.584,638444.472,1,40,,
trial,html.Screen,8_9_0,2023-11-20T16:07:53.980Z,,,,2,0.000047919190197942736,0.0462652940855003,,0.05,true,hl,6549.028000000049,response,0.8534691366511764,1.0616596513866614,-1.0640070635628722,-1.03975580494588,1.15,-0.9585281163778858,high,low,,ISIC_0011507.JPG,,ISIC_0056788.JPG,26,false,0.21000000000000008,hl,keypress(j),0,true,644993.8000000119,644993.5,638427.521,638428.6999999881,638444.472,645000.898,1,40,10,
sequence,flow.Sequence,8_9,2023-11-20T16:07:53.981Z,,,,,,,,,,,6549.028000000049,completion,,,,,,,high,low,,,,,,false,,,,,true,644994.3000000119,644993.5,638427.521,638428.6999999881,638444.472,645000.898,1,40,,
trial,html.Screen,8_10_0,2023-11-20T16:07:58.340Z,,,,2,-0.0324770283903853,-0.0249968632204382,,0.05,true,hh,4352.501999976113,response,1.057008495826831,1.0616596513866614,-1.0640070635628722,1.1278122585028287,1.15,-0.9585281163778858,high,high,,ISIC_7266462.JPG,,ISIC_2819798.JPG,29,false,0.13,hh,keypress(i),0,true,649353.5999999642,649353.3999999762,644984.251,644994.5999999642,645000.898,649355.164,1,40,11,
sequence,flow.Sequence,8_10,2023-11-20T16:07:58.340Z,,,,,,,,,,,4352.501999976113,completion,,,,,,,high,high,,,,,,false,,,,,true,649353.6999999881,649353.3999999762,644984.251,644994.5,645000.898,649355.164,1,40,,
trial,html.Screen,8_11_0,2023-11-20T16:08:03.815Z,,,,2,0.0245376145053177,-0.0436993426328401,,0.05,true,lh,5473.035999988089,response,-0.8035152873995188,1.0116596513866614,-1.0640070635628722,0.82868450251632,1.0999999999999999,-0.9585281163778858,low,high,,ISIC_0056444.JPG,,ISIC_0010671.JPG,26,false,0.31000000000000016,lh,keypress(e),0,true,654828.3000000119,654828.1999999881,649338.618,649353.8999999762,649355.164,654844.14,1,40,12,
sequence,flow.Sequence,8_11,2023-11-20T16:08:03.815Z,,,,,,,,,,,5473.035999988089,completion,,,,,,,low,high,,,,,,false,,,,,true,654828.3999999762,654828.1999999881,649338.618,649353.8000000119,649355.164,654844.14,1,40,,
trial,html.Screen,8_12_0,2023-11-20T16:08:08.456Z,,,,2,0.0102460616775615,-0.0309670599545429,,0.05,true,hh,4624.059999988065,response,1.0565911491759823,1.0116596513866614,-1.0640070635628722,1.0221582682700174,1.0999999999999999,-0.9585281163778858,high,high,,ISIC_0072041.JPG,,ISIC_6604862.JPG,29,false,0.1,hh,keypress(i),0,true,659468.3000000119,659468.1999999881,654827.418,654828.5,654844.14,659481.927,1,40,13,
sequence,flow.Sequence,8_12,2023-11-20T16:08:08.456Z,,,,,,,,,,,4624.059999988065,completion,,,,,,,high,high,,,,,,false,,,,,true,659468.3999999762,659468.1999999881,654827.418,654828.5,654844.14,659481.927,1,40,,
trial,html.Screen,8_13_0,2023-11-20T16:08:18.499Z,,,,2,0.0409338693593207,-0.0072462710499874,,0.05,false,lh,10029.672999964212,response,-0.8623414234919863,1.0116596513866614,-1.0640070635628722,0.782830143980698,0.9893747087229998,-0.9585281163778858,low,high,,ISIC_3608788.JPG,,ISIC_2727016.JPG,26,false,0.28000000000000014,ll,keypress(f),0,true,669511.6999999881,669511.5999999642,659465.254,659468.5,659481.927,669525.518,1,40,14,
sequence,flow.Sequence,8_13,2023-11-20T16:08:18.499Z,,,,,,,,,,,10029.672999964212,completion,,,,,,,low,high,,,,,,false,,,,,true,669511.8000000119,669511.5999999642,659465.254,659468.5,659481.927,669525.518,1,40,,
trial,html.Screen,8_14_0,2023-11-20T16:08:22.000Z,,,,2,0.0102460616775615,-0.0309670599545429,,0.05,true,ll,3487.381999976118,response,-1.0687084488958063,1.0116596513866614,-1.0140070635628722,-0.8837970437785844,1.0393747087229999,-0.9585281163778858,low,low,,ISIC_0072041.JPG,,ISIC_0072714.JPG,34,false,0.1,ll,keypress(f),0,true,673013,673012.8999999762,669508.632,669511.8999999762,669525.518,673029.065,1,40,15,
sequence,flow.Sequence,8_14,2023-11-20T16:08:22.001Z,,,,,,,,,,,3487.381999976118,completion,,,,,,,low,low,,,,,,false,,,,,true,673013.1999999881,673012.8999999762,669508.632,669511.8999999762,669525.518,673029.065,1,40,,
trial,html.Screen,8_15_0,2023-11-20T16:08:25.336Z,,,,2,-0.0116094682222121,0.0258434522530318,,0.05,true,hh,3319.034999964293,response,1.0017318800845572,1.0116596513866614,-1.0140070635628722,0.9394193355947452,1.0393747087229999,-0.9262527463371952,high,high,,ISIC_9239632.JPG,,ISIC_0024586.JPG,31,false,0.1,hh,keypress(i),0,true,676348.3000000119,676348.0999999642,673012.247,673013.1999999881,673029.065,676382.234,1,40,16,
sequence,flow.Sequence,8_15,2023-11-20T16:08:25.336Z,,,,,,,,,,,3319.034999964293,completion,,,,,,,high,high,,,,,,false,,,,,true,676348.3000000119,676348.0999999642,673012.247,673013.1999999881,673029.065,676382.234,1,40,,
trial,html.Screen,8_16_0,2023-11-20T16:08:35.858Z,,,,2,-0.039728379742806,0.0228701131373768,,0.05,false,lh,10488.665999976103,response,-0.7870237732709365,0.9205756078396512,-1.0140070635628722,0.9172955251119376,1.0393747087229999,-0.9262527463371952,low,high,,ISIC_0054073.JPG,,ISIC_0057716.JPG,25,false,0.2500000000000001,hl,keypress(j),0,true,686871,686870.8999999762,676365.623,676348.3999999762,676382.234,686875.934,1,40,17,
sequence,flow.Sequence,8_16,2023-11-20T16:08:35.858Z,,,,,,,,,,,10488.665999976103,completion,,,,,,,low,high,,,,,,false,,,,,true,686871.0999999642,686870.8999999762,676365.623,676348.3999999762,676382.234,686875.934,1,40,,
trial,html.Screen,8_17_0,2023-11-20T16:08:39.026Z,,,,2,-0.0450282431170921,0,,0.05,true,ll,3162.2659999880707,response,-1.0678895386758027,0.9205756078396512,-1.0640070635628722,-1.0279759018569252,1.089374708723,-0.9262527463371952,low,low,,ISIC_1805163.JPG,,ISIC_0069933.JPG,35,false,0.11,ll,keypress(f),0,true,690038.3999999762,690038.1999999881,686859.304,686871.0999999642,686875.934,690045.756,1,40,18,
sequence,flow.Sequence,8_17,2023-11-20T16:08:39.026Z,,,,,,,,,,,3162.2659999880707,completion,,,,,,,low,low,,,,,,false,,,,,true,690038.8999999762,690038.1999999881,686859.304,686871.0999999642,686875.934,690045.756,1,40,,
trial,html.Screen,8_18_0,2023-11-20T16:08:55.017Z,,,,2,-0.0107854985447517,-0.0478010417136109,,0.05,,,16016.191999999923,timeout,-0.7833710010171356,0.9205756078396512,-1.0640070635628722,0.9315588090336896,1.089374708723,-0.9262527463371952,low,high,,ISIC_0010500.JPG,,ISIC_3826102.JPG,26,false,0.30000000000000016,,,0,true,706029.8000000119,706029.5,690029.219,690039.1999999881,690045.756,706061.948,1,40,19,
sequence,flow.Sequence,8_18,2023-11-20T16:08:55.018Z,,,,,,,,,,,15983.743999999948,completion,,,,,,,low,high,,,,,,false,,,,,true,706030.3000000119,706029.5,690029.219,690039.0999999642,690045.756,706061.948,1,40,,
trial,html.Screen,8_19_0,2023-11-20T16:09:02.215Z,,,,2,0.0134764727102299,0.0033499036460912,,0.05,true,hh,7166.052000000025,response,0.9102336581208296,0.9205756078396512,-1.0640070635628722,1.0305113346799688,1.089374708723,-0.9262527463371952,high,high,,ISIC_0009998.JPG,,ISIC_0068530.JPG,33,false,0.1,hh,keypress(i),0,true,713228.0999999642,713228,706045.277,706030.5999999642,706061.948,713235.655,1,40,20,
sequence,flow.Sequence,8_19,2023-11-20T16:09:02.216Z,,,,,,,,,,,7166.052000000025,completion,,,,,,,high,high,,,,,,false,,,,,true,713228.0999999642,713228,706045.277,706030.5,706061.948,713235.655,1,40,,
trial,html.Screen,8_20_0,2023-11-20T16:09:09.928Z,,,,2,0.0348234368746005,-0.0236866303880924,,0.05,true,hh,7704.24499997613,response,0.9069195139552818,0.9205756078396512,-1.0640070635628722,1.17726864031644,1.089374708723,-0.9262527463371952,high,high,,ISIC_0011099.JPG,,ISIC_9728003.JPG,33,false,0.1,hh,keypress(i),0,true,720940,720939.8999999762,713219,713228.1999999881,713235.655,720943.255,1,40,21,
sequence,flow.Sequence,8_20,2023-11-20T16:09:09.928Z,,,,,,,,,,,7704.24499997613,completion,,,,,,,high,high,,,,,,false,,,,,true,720940.0999999642,720939.8999999762,713219,713228.1999999881,713235.655,720943.255,1,40,,
trial,html.Screen,8_21_0,2023-11-20T16:09:12.787Z,,,,2,-0.0450282431170921,0,,0.05,true,ll,2855.0450000119163,response,-1.064818044116379,1.0538899874982044,-1.0640070635628722,-1.0146741178993408,1.0538899874982044,-0.9262527463371952,low,low,,ISIC_1805163.JPG,,ISIC_0032504.JPG,35,false,0.11,ll,keypress(f),0,true,723798.6999999881,723798.3000000119,720926.695,720940.0999999642,720943.255,723812.804,1,40,22,
sequence,flow.Sequence,8_21,2023-11-20T16:09:12.787Z,,,,,,,,,,,2855.0450000119163,completion,,,,,,,low,low,,,,,,false,,,,,true,723799.1999999881,723798.3000000119,720926.695,720940.0999999642,720943.255,723812.804,1,40,,
trial,html.Screen,8_22_0,2023-11-20T16:09:28.784Z,,,,2,-0.0070725527271049,-0.0049995141077508,,0.05,,,16016.209000000032,timeout,-1.0213365328004047,1.0538899874982044,-1.0140070635628722,1.088524359911891,1.0538899874982044,-0.8762527463371952,low,high,,ISIC_6124481.JPG,,ISIC_5434229.JPG,27,false,0.27000000000000013,,,0,true,739796,739795.8000000119,723796.302,723799.3999999762,723812.804,739829.013,1,40,23,
sequence,flow.Sequence,8_22,2023-11-20T16:09:28.784Z,,,,,,,,,,,15982.996000011917,completion,,,,,,,low,high,,,,,,false,,,,,true,739796.1999999881,739795.8000000119,723796.302,723799.3000000119,723812.804,739829.013,1,40,,
trial,html.Screen,8_23_0,2023-11-20T16:09:34.073Z,,,,2,0.0245376145053177,-0.0436993426328401,,0.05,true,ll,5255.386999976123,response,-1.057567724570464,1.0538899874982044,-1.0140070635628722,-0.7906457140772123,1.0538899874982044,-0.8762527463371952,low,low,,ISIC_0056444.JPG,,ISIC_0034162.JPG,39,false,0.1,ll,keypress(f),0,true,745084.5,745084.3999999762,739812.266,739796.1999999881,739829.013,745100.952,1,40,24,
sequence,flow.Sequence,8_23,2023-11-20T16:09:34.073Z,,,,,,,,,,,5255.386999976123,completion,,,,,,,low,low,,,,,,false,,,,,true,745084.5999999642,745084.3999999762,739812.266,739796.1999999881,739829.013,745100.952,1,40,,
trial,html.Screen,8_24_0,2023-11-20T16:09:38.675Z,,,,2,0.0051189696037511,-0.0396625911332438,,0.05,true,hh,4585.747999988031,response,0.9607077625123552,1.0538899874982044,-1.0140070635628722,1.0682608339754711,1.0538899874982044,-0.8762527463371952,high,high,,ISIC_9742891.JPG,,ISIC_0064763.JPG,25,false,0.1,hh,keypress(i),0,true,749686.8999999762,749686.6999999881,745084.217,745084.6999999881,745100.952,749688.644,1,40,25,
sequence,flow.Sequence,8_24,2023-11-20T16:09:38.675Z,,,,,,,,,,,4585.747999988031,completion,,,,,,,high,high,,,,,,false,,,,,true,749687,749686.6999999881,745084.217,745084.5999999642,745100.952,749688.644,1,40,,
trial,html.Screen,8_25_0,2023-11-20T16:09:41.619Z,,,,2,0.0188047466661863,-0.0288346930436979,,0.05,true,ll,2941.65600001195,response,-0.9172533965459856,1.0538899874982044,-1.0140070635628722,-0.9108989535315742,1.0538899874982044,-0.8762527463371952,low,low,,ISIC_0014157.JPG,,ISIC_0990298.JPG,39,false,0.1,ll,keypress(f),0,true,752630.5999999642,752630.3000000119,749672.058,749687.0999999642,749688.644,752641.547,1,40,26,
sequence,flow.Sequence,8_25,2023-11-20T16:09:41.619Z,,,,,,,,,,,2941.65600001195,completion,,,,,,,low,low,,,,,,false,,,,,true,752631.0999999642,752630.3000000119,749672.058,749687,749688.644,752641.547,1,40,,
trial,html.Screen,8_26_0,2023-11-20T16:09:47.112Z,,,,2,-0.0389988030702649,-0.0143212271490256,,0.05,true,hl,5482.052999964217,response,0.9652856136432328,1.0538899874982044,-0.9640070635628721,-0.6471031362916833,1.0538899874982044,-0.8262527463371951,high,low,,ISIC_0064669.JPG,,ISIC_0008636.JPG,25,false,0.18000000000000005,hl,keypress(j),0,true,758123.6999999881,758123.5999999642,752625.086,752631.3999999762,752641.547,758130.384,1,40,27,
sequence,flow.Sequence,8_26,2023-11-20T16:09:47.112Z,,,,,,,,,,,5482.052999964217,completion,,,,,,,high,low,,,,,,false,,,,,true,758123.8000000119,758123.5999999642,752625.086,752631.3000000119,752641.547,758130.384,1,40,,
trial,html.Screen,8_27_0,2023-11-20T16:09:52.248Z,,,,2,0.0348234368746005,-0.0236866303880924,,0.05,true,hl,5129.215999964275,response,0.9454713230140772,1.0038899874982044,-0.9640070635628721,-0.9245167441969216,1.0538899874982044,-0.8262527463371951,high,low,,ISIC_0011099.JPG,,ISIC_9101055.JPG,27,false,0.17000000000000004,hl,keypress(j),0,true,763259.5999999642,763259.5999999642,758113.839,758123.8999999762,758130.384,763268.918,1,40,28,
sequence,flow.Sequence,8_27,2023-11-20T16:09:52.248Z,,,,,,,,,,,5129.215999964275,completion,,,,,,,high,low,,,,,,false,,,,,true,763259.8000000119,763259.5999999642,758113.839,758123.8000000119,758130.384,763268.918,1,40,,
trial,html.Screen,8_28_0,2023-11-20T16:09:56.344Z,,,,2,-0.0456515796420274,0.0273567130070961,,0.05,true,hl,4087.082000000053,response,1.034740231914001,1.0038899874982044,-0.9640070635628721,-0.6844507507038213,1.0538899874982044,-0.7762527463371951,high,low,,ISIC_0068610.JPG,,ISIC_8569205.JPG,28,false,0.15000000000000002,hl,keypress(j),0,true,767356.1999999881,767356,763252.29,763259.8000000119,763268.918,767373.092,1,40,29,
sequence,flow.Sequence,8_28,2023-11-20T16:09:56.344Z,,,,,,,,,,,4087.082000000053,completion,,,,,,,high,low,,,,,,false,,,,,true,767356.1999999881,767356,763252.29,763259.8000000119,763268.918,767373.092,1,40,,
trial,html.Screen,8_29_0,2023-11-20T16:10:00.494Z,,,,2,0.0102460616775615,-0.0309670599545429,,0.05,true,ll,4132.208000011975,response,-0.8909652099281345,0.9538899874982043,-0.9640070635628721,-0.7550834643357679,1.0538899874982044,-0.7762527463371951,low,low,,ISIC_0072041.JPG,,ISIC_7501061.JPG,56,false,0.1,ll,keypress(f),0,true,771505.5,771505.3000000119,767356.433,767356.3000000119,767373.092,771510.435,1,40,30,
sequence,flow.Sequence,8_29,2023-11-20T16:10:00.494Z,,,,,,,,,,,4132.208000011975,completion,,,,,,,low,low,,,,,,false,,,,,true,771506.0999999642,771505.3000000119,767356.433,767356.3000000119,767373.092,771510.435,1,40,,
trial,html.Screen,8_30_0,2023-11-20T16:10:05.881Z,,,,2,-0.0085520978188085,0.0464691161264081,,0.05,true,hl,5381.164999964181,response,1.0656673213158945,0.9538899874982043,-0.9640070635628721,-0.8082541692781954,1.0538899874982044,-0.7730243371319512,high,low,,ISIC_0758797.JPG,,ISIC_0033985.JPG,25,false,0.14,hl,keypress(j),0,true,776891.8000000119,776891.5999999642,771493.887,771506.3999999762,771510.435,776899.098,1,40,31,
sequence,flow.Sequence,8_30,2023-11-20T16:10:05.881Z,,,,,,,,,,,5381.164999964181,completion,,,,,,,high,low,,,,,,false,,,,,true,776891.8999999762,776891.5999999642,771493.887,771506.3000000119,771510.435,776899.098,1,40,,
trial,html.Screen,8_31_0,2023-11-20T16:10:08.953Z,,,,2,-0.039728379742806,0.0228701131373768,,0.05,true,hl,3065.001999964239,response,0.8413574218540547,0.9538899874982043,-0.9640070635628721,-0.6876240243121418,1.0538899874982044,-0.7730243371319512,high,low,,ISIC_0054073.JPG,,ISIC_6878417.JPG,25,false,0.14,hl,keypress(j),0,true,779964.1999999881,779964.0999999642,776882.594,776891.8999999762,776899.098,779968.838,1,40,32,
sequence,flow.Sequence,8_31,2023-11-20T16:10:08.953Z,,,,,,,,,,,3065.001999964239,completion,,,,,,,high,low,,,,,,false,,,,,true,779964.3000000119,779964.0999999642,776882.594,776891.8999999762,776899.098,779968.838,1,40,,
trial,html.Screen,8_32_0,2023-11-20T16:10:11.443Z,,,,2,0.0188047466661863,-0.0288346930436979,,0.05,true,hl,2485.162000000011,response,0.9644643328174062,0.9038899874982043,-0.9640070635628721,-0.745333984830218,1.0538899874982044,-0.6979390967951685,high,low,,ISIC_0014157.JPG,,ISIC_0058046.JPG,25,false,0.13,hl,keypress(j),0,true,782454.3000000119,782454,779952.315,779964.3999999762,779968.838,782471.62,1,40,33,
sequence,flow.Sequence,8_32,2023-11-20T16:10:11.444Z,,,,,,,,,,,2485.162000000011,completion,,,,,,,high,low,,,,,,false,,,,,true,782454.8999999762,782454,779952.315,779964.3000000119,779968.838,782471.62,1,40,,
trial,html.Screen,8_33_0,2023-11-20T16:10:17.849Z,,,,2,0.000047919190197942736,0.0462652940855003,,0.05,false,hl,6388.279999976163,response,0.8540726909609688,0.9038899874982043,-0.9640070635628721,-0.6454956793655354,1.0538899874982044,-0.6979390967951685,high,low,,ISIC_0011507.JPG,,ISIC_0067597.JPG,25,false,0.13,hh,keypress(i),0,true,788860,788859.8999999762,782454.862,782455,782471.62,788878.234,1,40,34,
sequence,flow.Sequence,8_33,2023-11-20T16:10:17.849Z,,,,,,,,,,,6388.279999976163,completion,,,,,,,high,low,,,,,,false,,,,,true,788860.0999999642,788859.8999999762,782454.862,782455,782471.62,788878.234,1,40,,
trial,html.Screen,8_34_0,2023-11-20T16:10:27.636Z,,,,2,-0.0217698886732706,0.0410870915161425,,0.05,false,lh,9768.765999999945,response,-0.948927472020595,0.8538899874982042,-0.9640070635628721,1.0660437155921598,1.0538899874982044,-0.7479390967951686,low,high,,ISIC_0072173.JPG,,ISIC_5808758.JPG,28,false,0.2600000000000001,hl,keypress(j),0,true,798647.0999999642,798647,788844.497,788860.0999999642,788878.234,798654.123,1,40,35,
sequence,flow.Sequence,8_34,2023-11-20T16:10:27.636Z,,,,,,,,,,,9768.765999999945,completion,,,,,,,low,high,,,,,,false,,,,,true,798647.0999999642,798647,788844.497,788860.0999999642,788878.234,798654.123,1,40,,
trial,html.Screen,8_35_0,2023-11-20T16:10:31.314Z,,,,2,-0.0456515796420274,0.0273567130070961,,0.05,true,ll,3670.476999964216,response,-1.0529768630659295,0.8538899874982042,-1.0140070635628722,-0.7530547977543617,1.1038899874982044,-0.7479390967951686,low,low,,ISIC_0068610.JPG,,ISIC_0067743.JPG,57,false,0.1,ll,keypress(f),0,true,802324.6999999881,802324.5999999642,798637.297,798647.1999999881,798654.123,802341.382,1,40,36,
sequence,flow.Sequence,8_35,2023-11-20T16:10:31.314Z,,,,,,,,,,,3670.476999964216,completion,,,,,,,low,low,,,,,,false,,,,,true,802324.8000000119,802324.5999999642,798637.297,798647.1999999881,798654.123,802341.382,1,40,,
trial,html.Screen,8_36_0,2023-11-20T16:10:33.473Z,,,,2,0.0102460616775615,-0.0309670599545429,,0.05,true,hh,2142.9180000119377,response,0.8755959065262388,0.8538899874982042,-1.0140070635628722,1.093284184366194,1.1038899874982044,-0.7479390967951686,high,high,,ISIC_0072041.JPG,,ISIC_8096177.JPG,33,false,0.1,hh,keypress(i),0,true,804484.5,804484.3000000119,802324.673,802324.8999999762,802341.382,804493.334,1,40,37,
sequence,flow.Sequence,8_36,2023-11-20T16:10:33.474Z,,,,,,,,,,,2142.9180000119377,completion,,,,,,,high,high,,,,,,false,,,,,true,804484.5999999642,804484.3000000119,802324.673,802324.8000000119,802341.382,804493.334,1,40,,
trial,html.Screen,8_37_0,2023-11-20T16:10:37.988Z,,,,2,0.0134764727102299,0.0033499036460912,,0.05,true,hh,4505.5659999761265,response,0.8349834005033574,0.8538899874982042,-1.0140070635628722,1.1614693609347344,1.1038899874982044,-0.7479390967951686,high,high,,ISIC_0009998.JPG,,ISIC_0005239.JPG,33,false,0.1,hh,keypress(i),0,true,808999.0999999642,808998.8999999762,804476.621,804484.6999999881,804493.334,809014.488,1,40,38,
sequence,flow.Sequence,8_37,2023-11-20T16:10:37.988Z,,,,,,,,,,,4505.5659999761265,completion,,,,,,,high,high,,,,,,false,,,,,true,808999.1999999881,808998.8999999762,804476.621,804484.6999999881,804493.334,809014.488,1,40,,
trial,html.Screen,8_38_0,2023-11-20T16:10:42.376Z,,,,2,-0.0050679133050021,0.0009714874637896,,0.05,false,lh,4372.411999976146,response,-0.7998855902596425,1.0773767726504642,-1.0140070635628722,1.1518579145663017,1.0773767726504642,-0.7479390967951686,low,high,,ISIC_9848743.JPG,,ISIC_0025061.JPG,25,false,0.28000000000000014,ll,keypress(f),0,true,813387,813386.8999999762,808997.732,808999.3000000119,809014.488,813402.397,1,40,39,
sequence,flow.Sequence,8_38,2023-11-20T16:10:42.376Z,,,,,,,,,,,4372.411999976146,completion,,,,,,,low,high,,,,,,false,,,,,true,813387.0999999642,813386.8999999762,808997.732,808999.1999999881,809014.488,813402.397,1,40,,
trial,html.Screen,8_39_0,2023-11-20T16:10:45.682Z,,,,2,-0.0027483411352856,-0.0100996915276271,,0.05,true,ll,3290.103000000003,response,-0.9819198847747947,1.0773767726504642,-0.9640070635628721,-0.7435719237873207,1.1273767726504642,-0.7479390967951686,low,low,,ISIC_7364041.JPG,,ISIC_7662910.JPG,65,false,0.1,ll,keypress(f),0,true,816692.5999999642,816692.5,813385.568,813387.0999999642,813402.397,816705.72,1,40,40,
sequence,flow.Sequence,8_39,2023-11-20T16:10:45.682Z,,,,,,,,,,,3290.103000000003,completion,,,,,,,low,low,,,,,,false,,,,,true,816692.8000000119,816692.5,813385.568,813387.0999999642,813402.397,816705.72,1,40,,
stair_loop,flow.Loop,8,2023-11-20T16:10:45.682Z,,,,,,,,,,,249402.51,completion,,,,,,,,,,,,,,false,,,,,true,816692.8999999762,816692.5,567273.459,567286.0999999642,567289.99,816705.72,1,40,,
exp_instructions,html.Screen,9,2023-11-20T16:10:47.362Z,,,,,,,,,,,1666.979999988107,response,,,,,,,,,,,,,,,,continue,keypress(Space),,,818373.5,818372.6999999881,816689.039,816692.8999999762,816705.72,818390.635,,,,
trial,html.Screen,10_0_0,2023-11-20T16:10:54.457Z,,,,1,0.0188047466661863,-0.0288346930436979,,0.05,false,ll,7077.56499998807,response,-1.0644984649911948,0.9745729470305025,-0.9940070635628722,-0.8053137102379775,1.0680129020746698,-0.79960444559986,low,low,,ISIC_0014157.JPG,9,ISIC_2007396.JPG,50,false,0.1,hl,keypress(j),0,false,825468.3000000119,825468.1999999881,818374.047,818373.8999999762,818390.635,825481.171,4,500,1,
break,html.Screen,10_0_1,2023-11-20T16:10:54.458Z,,,,,,,,,,,NaN,,,,,,,,low,low,,,,,,false,,,,,false,825468.8999999762,825468.8000000119,,825468.5,,825481.171,4,500,,
break_continue,html.Screen,10_0_2,2023-11-20T16:10:54.458Z,,,,,,,,,,,NaN,,,,,,,,low,low,,,,,,false,,,,,false,825469.1999999881,825469.0999999642,,825469,,825481.171,4,500,,
sequence,flow.Sequence,10_0,2023-11-20T16:10:54.458Z,,,,,,,,,,,7078.464999964228,completion,,,,,,,low,low,,,,,,false,,,,,false,825469.3000000119,825469.0999999642,818374.047,818373.8999999762,818390.635,825481.171,4,500,,
trial,html.Screen,10_1_0,2023-11-20T16:11:00.307Z,,,,1,-0.039728379742806,0.0228701131373768,,0.05,true,ll,5836.428999964264,response,-1.0687084488958063,0.9745729470305025,-0.9940070635628722,-0.8837970437785844,1.0680129020746698,-0.79960444559986,low,low,,ISIC_0054073.JPG,9,ISIC_0072714.JPG,50,false,0.1,ll,keypress(f),0,false,831317.8999999762,831317.5999999642,825464.31,825469.3999999762,825481.171,831320.123,4,500,2,
break,html.Screen,10_1_1,2023-11-20T16:11:00.308Z,,,,,,,,,,,NaN,,,,,,,,low,low,,,,,,false,,,,,false,831319.3999999762,831318.8000000119,,831318.3000000119,,831320.123,4,500,,
break_continue,html.Screen,10_1_2,2023-11-20T16:11:00.310Z,,,,,,,,,,,NaN,,,,,,,,low,low,,,,,,false,,,,,false,831320.5999999642,831320.1999999881,,831319.8000000119,,831320.123,4,500,,
sequence,flow.Sequence,10_1,2023-11-20T16:11:00.310Z,,,,,,,,,,,5839.028999988106,completion,,,,,,,low,low,,,,,,false,,,,,false,831320.8999999762,831320.1999999881,825464.31,825469.3999999762,825481.171,831320.123,4,500,,
trial,html.Screen,10_2_0,2023-11-20T16:11:02.835Z,,,,1,-0.0027483411352856,-0.0100996915276271,,0.05,true,hh,2525.5769999880577,response,0.9071602543711612,0.9745729470305025,-0.9940070635628722,1.073798502866343,1.0680129020746698,-0.79960444559986,high,high,,ISIC_7364041.JPG,9,ISIC_6676776.JPG,34,false,0.1,hh,keypress(i),0,false,833846.0999999642,833845.6999999881,831303.479,831321.1999999881,831320.123,833855.939,4,500,3,
break,html.Screen,10_2_1,2023-11-20T16:11:02.836Z,,,,,,,,,,,NaN,,,,,,,,high,high,,,,,,false,,,,,false,833847.3000000119,833846.8999999762,,833846.3999999762,,833855.939,4,500,,
break_continue,html.Screen,10_2_2,2023-11-20T16:11:02.837Z,,,,,,,,,,,NaN,,,,,,,,high,high,,,,,,false,,,,,false,833848,833847.6999999881,,833847.5,,833855.939,4,500,,
sequence,flow.Sequence,10_2,2023-11-20T16:11:02.837Z,,,,,,,,,,,2527.5769999880577,completion,,,,,,,high,high,,,,,,false,,,,,false,833848.3999999762,833847.6999999881,831303.479,831321.0999999642,831320.123,833855.939,4,500,,
trial,html.Screen,10_3_0,2023-11-20T16:11:06.212Z,,,,1,0.0097091270150747,-0.0417921315885292,,0.05,false,lh,3366.060999999987,response,-0.9873794329144926,0.9745729470305025,-0.9940070635628722,0.7991077882008257,1.0680129020746698,-0.79960444559986,low,high,,ISIC_3967213.JPG,9,ISIC_0013498.JPG,27,false,0.28000000000000014,hl,keypress(j),0,false,837222.3999999762,837222,833839.237,833848.5,833855.939,837226.026,4,500,4,
break,html.Screen,10_3_1,2023-11-20T16:11:06.213Z,,,,,,,,,,,NaN,,,,,,,,low,high,,,,,,false,,,,,false,837223.5999999642,837223.1999999881,,837222.8000000119,,837226.026,4,500,,
break_continue,html.Screen,10_3_2,2023-11-20T16:11:06.214Z,,,,,,,,,,,NaN,,,,,,,,low,high,,,,,,false,,,,,false,837224.3999999762,837224.0999999642,,837223.8000000119,,837226.026,4,500,,
sequence,flow.Sequence,10_3,2023-11-20T16:11:06.214Z,,,,,,,,,,,3368.160999964224,completion,,,,,,,low,high,,,,,,false,,,,,false,837224.5999999642,837224.0999999642,833839.237,833848.5,833855.939,837226.026,4,500,,
trial,html.Screen,10_4_0,2023-11-20T16:11:14.338Z,,,,1,-0.0329095507339554,0.0382899749693245,,0.05,false,hl,8122.173999988125,response,1.11969546505004,0.9745729470305025,-0.9940070635628722,-0.7169584869657797,1.0680129020746698,-0.79960444559986,high,low,,ISIC_8812781.JPG,9,ISIC_0033967.JPG,28,false,0.15000000000000002,hh,keypress(i),0,false,845348.3999999762,845348.1999999881,837209.499,837224.8000000119,837226.026,845350.725,4,500,5,
break,html.Screen,10_4_1,2023-11-20T16:11:14.339Z,,,,,,,,,,,NaN,,,,,,,,high,low,,,,,,false,,,,,false,845348.8000000119,845348.6999999881,,845348.5,,845350.725,4,500,,
break_continue,html.Screen,10_4_2,2023-11-20T16:11:14.339Z,,,,,,,,,,,NaN,,,,,,,,high,low,,,,,,false,,,,,false,845348.8999999762,845348.8999999762,,845348.8000000119,,845350.725,4,500,,
sequence,flow.Sequence,10_4,2023-11-20T16:11:14.339Z,,,,,,,,,,,8122.873999976204,completion,,,,,,,high,low,,,,,,false,,,,,false,845349,845348.8999999762,837209.499,837224.8000000119,837226.026,845350.725,4,500,,
trial,html.Screen,10_5_0,2023-11-20T16:11:22.323Z,,,,1,-0.0363437082783146,-0.0333332186217051,,0.05,false,lh,7981.8749999642605,response,-0.9873794329144926,0.9745729470305025,-0.9940070635628722,0.7991077882008257,1.0680129020746698,-0.79960444559986,low,high,,ISIC_3314555.JPG,9,ISIC_0013498.JPG,27,false,0.28000000000000014,hl,keypress(j),0,false,853332.5999999642,853332.5999999642,845334.004,845349,845350.725,853342.07,4,500,6,
break,html.Screen,10_5_1,2023-11-20T16:11:22.323Z,,,,,,,,,,,NaN,,,,,,,,low,high,,,,,,false,,,,,false,853333,853332.8999999762,,853332.6999999881,,853342.07,4,500,,
break_continue,html.Screen,10_5_2,2023-11-20T16:11:22.323Z,,,,,,,,,,,NaN,,,,,,,,low,high,,,,,,false,,,,,false,853333.1999999881,853333.0999999642,,853333.0999999642,,853342.07,4,500,,
sequence,flow.Sequence,10_5,2023-11-20T16:11:22.323Z,,,,,,,,,,,7982.3749999642605,completion,,,,,,,low,high,,,,,,false,,,,,false,853333.3000000119,853333.0999999642,845334.004,845349,845350.725,853342.07,4,500,,
trial,html.Screen,10_6_0,2023-11-20T16:11:24.612Z,,,,1,-0.0107854985447517,-0.0478010417136109,,0.05,true,hh,2279.6299999881303,response,1.0717785279820962,0.9745729470305025,-0.9940070635628722,1.1267239445830604,1.0680129020746698,-0.79960444559986,high,high,,ISIC_0010500.JPG,9,ISIC_9948815.JPG,34,false,0.1,hh,keypress(i),0,false,855621.8999999762,855621.6999999881,853325.26,853333.3000000119,853342.07,855627.732,4,500,7,
break,html.Screen,10_6_1,2023-11-20T16:11:24.613Z,,,,,,,,,,,NaN,,,,,,,,high,high,,,,,,false,,,,,false,855623.0999999642,855622.8999999762,,855622.3000000119,,855627.732,4,500,,
break_continue,html.Screen,10_6_2,2023-11-20T16:11:24.614Z,,,,,,,,,,,NaN,,,,,,,,high,high,,,,,,false,,,,,false,855623.8000000119,855623.5999999642,,855623.3000000119,,855627.732,4,500,,
sequence,flow.Sequence,10_6,2023-11-20T16:11:24.614Z,,,,,,,,,,,2281.5299999642884,completion,,,,,,,high,high,,,,,,false,,,,,false,855624.0999999642,855623.5999999642,853325.26,853333.3000000119,853342.07,855627.732,4,500,,
trial,html.Screen,10_7_0,2023-11-20T16:11:29.090Z,,,,1,-0.0217698886732706,0.0410870915161425,,0.05,true,hl,4472.667999976198,response,0.991282840649944,0.9745729470305025,-0.9940070635628722,-0.9397921099839784,1.0680129020746698,-0.79960444559986,high,low,,ISIC_0072173.JPG,8,ISIC_0000463.JPG,28,false,0.15000000000000002,hl,keypress(j),0,false,860100.5,860100.3999999762,855611.006,855624.3000000119,855627.732,860115.524,4,500,8,
break,html.Screen,10_7_1,2023-11-20T16:11:29.091Z,,,,,,,,,,,NaN,,,,,,,,high,low,,,,,,false,,,,,false,860101,860100.8999999762,,860100.5999999642,,860115.524,4,500,,
break_continue,html.Screen,10_7_2,2023-11-20T16:11:29.091Z,,,,,,,,,,,NaN,,,,,,,,high,low,,,,,,false,,,,,false,860101.1999999881,860101.0999999642,,860101.0999999642,,860115.524,4,500,,
sequence,flow.Sequence,10_7,2023-11-20T16:11:29.091Z,,,,,,,,,,,4473.367999964277,completion,,,,,,,high,low,,,,,,false,,,,,false,860101.3000000119,860101.0999999642,855611.006,855624.1999999881,855627.732,860115.524,4,500,,
trial,html.Screen,10_8_0,2023-11-20T16:11:32.722Z,,,,1,0.0051189696037511,-0.0396625911332438,,0.05,false,hl,3616.8759999761824,response,0.990489579313564,0.9745729470305025,-0.9940070635628722,-0.7747897983133127,1.0680129020746698,-0.79960444559986,high,low,,ISIC_9742891.JPG,9,ISIC_7030404.JPG,28,false,0.15000000000000002,hh,keypress(i),0,false,863732.5,863732.3999999762,860098.986,860101.3999999762,860115.524,863735.824,4,500,9,
break,html.Screen,10_8_1,2023-11-20T16:11:32.723Z,,,,,,,,,,,NaN,,,,,,,,high,low,,,,,,false,,,,,false,863733,863732.8000000119,,863732.5999999642,,863735.824,4,500,,
break_continue,html.Screen,10_8_2,2023-11-20T16:11:32.723Z,,,,,,,,,,,NaN,,,,,,,,high,low,,,,,,false,,,,,false,863733.0999999642,863733.0999999642,,863733,,863735.824,4,500,,
sequence,flow.Sequence,10_8,2023-11-20T16:11:32.723Z,,,,,,,,,,,3617.5759999642614,completion,,,,,,,high,low,,,,,,false,,,,,false,863733.1999999881,863733.0999999642,860098.986,860101.3999999762,860115.524,863735.824,4,500,,
trial,html.Screen,10_9_0,2023-11-20T16:11:36.786Z,,,,1,0.0112310719058792,-0.0469047359904117,,0.05,false,lh,4060.4760000118986,response,-1.0213365328004047,0.9745729470305025,-0.9940070635628722,1.088524359911891,1.0680129020746698,-0.79960444559986,low,high,,ISIC_0068184.JPG,10,ISIC_5434229.JPG,27,false,0.28000000000000014,ll,keypress(f),0,false,867796.3000000119,867796.3000000119,863719.096,863733.3000000119,863735.824,867806.506,4,500,10,
break,html.Screen,10_9_1,2023-11-20T16:11:36.787Z,,,,,,,,,,,NaN,,,,,,,,low,high,,,,,,false,,,,,false,867796.6999999881,867796.5999999642,,867796.3999999762,,867806.506,4,500,,
break_continue,html.Screen,10_9_2,2023-11-20T16:11:36.787Z,,,,,,,,,,,NaN,,,,,,,,low,high,,,,,,false,,,,,false,867796.8999999762,867796.8000000119,,867796.6999999881,,867806.506,4,500,,
sequence,flow.Sequence,10_9,2023-11-20T16:11:36.787Z,,,,,,,,,,,4060.9760000118986,completion,,,,,,,low,high,,,,,,false,,,,,false,867796.8999999762,867796.8000000119,863719.096,863733.3000000119,863735.824,867806.506,4,500,,
trial,html.Screen,10_10_0,2023-11-20T16:11:45.012Z,,,,1,0.013431314305098,-0.0140597582944232,,0.05,true,hl,8215.393999976106,response,1.10953285327247,0.9745729470305025,-0.9940070635628722,-0.7377773112414787,1.0680129020746698,-0.79960444559986,high,low,,ISIC_0069617.JPG,10,ISIC_1720840.JPG,28,false,0.15000000000000002,hl,keypress(j),0,false,876022.3000000119,876021.8999999762,867789.765,867797,867806.506,876031.346,4,500,11,
break,html.Screen,10_10_1,2023-11-20T16:11:45.013Z,,,,,,,,,,,NaN,,,,,,,,high,low,,,,,,false,,,,,false,876023.3000000119,876023.1999999881,,876022.5999999642,,876031.346,4,500,,
break_continue,html.Screen,10_10_2,2023-11-20T16:11:45.014Z,,,,,,,,,,,NaN,,,,,,,,high,low,,,,,,false,,,,,false,876024,876023.8000000119,,876023.5,,876031.346,4,500,,
sequence,flow.Sequence,10_10,2023-11-20T16:11:45.014Z,,,,,,,,,,,8217.294000011869,completion,,,,,,,high,low,,,,,,false,,,,,false,876024.3000000119,876023.8000000119,867789.765,867797,867806.506,876031.346,4,500,,
trial,html.Screen,10_11_0,2023-11-20T16:11:47.475Z,,,,1,-0.0116094682222121,0.0258434522530318,,0.05,true,ll,2453.3539999880595,response,-0.9152802917888962,0.9745729470305025,-0.9940070635628722,-0.8414601987949015,1.0680129020746698,-0.79960444559986,low,low,,ISIC_9239632.JPG,8,ISIC_0060341.JPG,50,false,0.1,ll,keypress(f),0,false,878485,878484.6999999881,876014.892,876024.5,876031.346,878500.758,4,500,12,
break,html.Screen,10_11_1,2023-11-20T16:11:47.475Z,,,,,,,,,,,NaN,,,,,,,,low,low,,,,,,false,,,,,false,878485.3000000119,878485.1999999881,,878485,,878500.758,4,500,,
break_continue,html.Screen,10_11_2,2023-11-20T16:11:47.475Z,,,,,,,,,,,NaN,,,,,,,,low,low,,,,,,false,,,,,false,878485.5999999642,878485.5,,878485.5,,878500.758,4,500,,
sequence,flow.Sequence,10_11,2023-11-20T16:11:47.476Z,,,,,,,,,,,2454.1539999999804,completion,,,,,,,low,low,,,,,,false,,,,,false,878485.6999999881,878485.5,876014.892,876024.5,876031.346,878500.758,4,500,,
trial,html.Screen,10_12_0,2023-11-20T16:11:51.987Z,,,,1,0.0348234368746005,-0.0236866303880924,,0.05,false,ll,4495.941999988048,response,-1.0055099980932172,0.9745729470305025,-0.9940070635628722,-0.7302547046115369,1.0680129020746698,-0.79960444559986,low,low,,ISIC_0011099.JPG,9,ISIC_0034246.JPG,50,false,0.1,hl,keypress(j),0,false,882996.8999999762,882996.6999999881,878484.042,878485.6999999881,878500.758,883004.978,4,500,13,
break,html.Screen,10_12_1,2023-11-20T16:11:51.987Z,,,,,,,,,,,NaN,,,,,,,,low,low,,,,,,false,,,,,false,882997.1999999881,882997.0999999642,,882997,,883004.978,4,500,,
break_continue,html.Screen,10_12_2,2023-11-20T16:11:51.987Z,,,,,,,,,,,NaN,,,,,,,,low,low,,,,,,false,,,,,false,882997.3999999762,882997.3000000119,,882997.1999999881,,883004.978,4,500,,
sequence,flow.Sequence,10_12,2023-11-20T16:11:51.987Z,,,,,,,,,,,4496.54200001189,completion,,,,,,,low,low,,,,,,false,,,,,false,882997.5,882997.3000000119,878484.042,878485.6999999881,878500.758,883004.978,4,500,,
trial,html.Screen,10_13_0,2023-11-20T16:11:57.940Z,,,,1,0.0362376068089956,0.047825070846155,,0.05,false,lh,5945.121999964234,response,-0.809764442462202,0.9745729470305025,-0.9940070635628722,1.005337148078696,1.0680129020746698,-0.79960444559986,low,high,,ISIC_6985114.JPG,9,ISIC_2379379.JPG,27,false,0.28000000000000014,hl,keypress(j),0,false,888950.3999999762,888950.0999999642,882988.36,882997.5,883004.978,888960.984,4,500,14,
break,html.Screen,10_13_1,2023-11-20T16:11:57.941Z,,,,,,,,,,,NaN,,,,,,,,low,high,,,,,,false,,,,,false,888951.5999999642,888951.3000000119,,888950.8999999762,,888960.984,4,500,,
break_continue,html.Screen,10_13_2,2023-11-20T16:11:57.942Z,,,,,,,,,,,NaN,,,,,,,,low,high,,,,,,false,,,,,false,888952.1999999881,888952,,888951.8000000119,,888960.984,4,500,,
sequence,flow.Sequence,10_13,2023-11-20T16:11:57.942Z,,,,,,,,,,,5947.021999999997,completion,,,,,,,low,high,,,,,,false,,,,,false,888952.5,888952,882988.36,882997.5,883004.978,888960.984,4,500,,
trial,html.Screen,10_14_0,2023-11-20T16:12:03.044Z,,,,1,-0.0027483411352856,-0.0100996915276271,,0.05,true,hh,5092.415999976103,response,0.9949403898803344,0.9745729470305025,-0.9940070635628722,1.0036806409150678,1.0680129020746698,-0.79960444559986,high,high,,ISIC_7364041.JPG,8,ISIC_0012450.JPG,34,false,0.1,hh,keypress(i),0,false,894053.8000000119,894053.3999999762,888944.474,888952.6999999881,888960.984,894066.013,4,500,15,
break,html.Screen,10_14_1,2023-11-20T16:12:03.045Z,,,,,,,,,,,NaN,,,,,,,,high,high,,,,,,false,,,,,false,894054.8999999762,894054.6999999881,,894054.1999999881,,894066.013,4,500,,
break_continue,html.Screen,10_14_2,2023-11-20T16:12:03.045Z,,,,,,,,,,,NaN,,,,,,,,high,high,,,,,,false,,,,,false,894055.5999999642,894055.3999999762,,894055.1999999881,,894066.013,4,500,,
sequence,flow.Sequence,10_14,2023-11-20T16:12:03.046Z,,,,,,,,,,,5094.415999976103,completion,,,,,,,high,high,,,,,,false,,,,,false,894056,894055.3999999762,888944.474,888952.5999999642,888960.984,894066.013,4,500,,
trial,html.Screen,10_15_0,2023-11-20T16:12:06.981Z,,,,1,0.0348234368746005,-0.0236866303880924,,0.05,true,hl,3923.7870000118855,response,0.8701680819250541,0.9745729470305025,-0.9940070635628722,-0.701391706020652,1.0680129020746698,-0.79960444559986,high,low,,ISIC_0011099.JPG,9,ISIC_5736979.JPG,28,false,0.15000000000000002,hl,keypress(j),0,false,897990.0999999642,897989.8000000119,894049.476,894056.0999999642,894066.013,898003.272,4,500,16,
break,html.Screen,10_15_1,2023-11-20T16:12:06.982Z,,,,,,,,,,,NaN,,,,,,,,high,low,,,,,,false,,,,,false,897991.3000000119,897991,,897990.5,,898003.272,4,500,,
break_continue,html.Screen,10_15_2,2023-11-20T16:12:06.983Z,,,,,,,,,,,NaN,,,,,,,,high,low,,,,,,false,,,,,false,897992.0999999642,897991.8999999762,,897991.5,,898003.272,4,500,,
sequence,flow.Sequence,10_15,2023-11-20T16:12:06.983Z,,,,,,,,,,,3925.8869999761228,completion,,,,,,,high,low,,,,,,false,,,,,false,897992.3999999762,897991.8999999762,894049.476,894056.0999999642,894066.013,898003.272,4,500,,
trial,html.Screen,10_16_0,2023-11-20T16:12:12.549Z,,,,1,-0.0217698886732706,0.0410870915161425,,0.05,false,lh,5554.728000000003,response,-0.7870237732709365,0.9745729470305025,-0.9940070635628722,0.9172955251119376,1.0680129020746698,-0.79960444559986,low,high,,ISIC_0072173.JPG,10,ISIC_0057716.JPG,27,false,0.28000000000000014,hl,keypress(j),0,false,903558.3000000119,903558,897986.8,897992.5999999642,898003.272,903575.499,4,500,17,
break,html.Screen,10_16_1,2023-11-20T16:12:12.550Z,,,,,,,,,,,NaN,,,,,,,,low,high,,,,,,false,,,,,false,903559.3999999762,903559.0999999642,,903558.5999999642,,903575.499,4,500,,
break_continue,html.Screen,10_16_2,2023-11-20T16:12:12.551Z,,,,,,,,,,,NaN,,,,,,,,low,high,,,,,,false,,,,,false,903560.0999999642,903559.8999999762,,903559.5999999642,,903575.499,4,500,,
sequence,flow.Sequence,10_16,2023-11-20T16:12:12.551Z,,,,,,,,,,,5556.627999976161,completion,,,,,,,low,high,,,,,,false,,,,,false,903560.3000000119,903559.8999999762,897986.8,897992.5,898003.272,903575.499,4,500,,
trial,html.Screen,10_17_0,2023-11-20T16:12:17.301Z,,,,1,-0.007397293189458,-0.0174716772037504,,0.05,true,lh,4734.100999964285,response,-0.9388660854518424,0.9745729470305025,-0.9940070635628722,0.79533948698576,1.0680129020746698,-0.79960444559986,low,high,,ISIC_0056226.JPG,9,ISIC_9291926.JPG,27,false,0.28000000000000014,lh,keypress(e),0,false,908310,908309.5999999642,903559.029,903560.5999999642,903575.499,908313.632,4,500,18,
break,html.Screen,10_17_1,2023-11-20T16:12:17.302Z,,,,,,,,,,,NaN,,,,,,,,low,high,,,,,,false,,,,,false,908311.1999999881,908310.8999999762,,908310.3000000119,,908313.632,4,500,,
break_continue,html.Screen,10_17_2,2023-11-20T16:12:17.303Z,,,,,,,,,,,NaN,,,,,,,,low,high,,,,,,false,,,,,false,908312.0999999642,908311.6999999881,,908311.5,,908313.632,4,500,,
sequence,flow.Sequence,10_17,2023-11-20T16:12:17.303Z,,,,,,,,,,,4736.200999988127,completion,,,,,,,low,high,,,,,,false,,,,,false,908312.1999999881,908311.6999999881,903559.029,903560.5,903575.499,908313.632,4,500,,
trial,html.Screen,10_18_0,2023-11-20T16:12:20.789Z,,,,1,0.0134764727102299,0.0033499036460912,,0.05,true,hl,3484.1680000119377,response,1.011737552725394,0.9745729470305025,-0.9940070635628722,-0.8500530224490773,1.0680129020746698,-0.79960444559986,high,low,,ISIC_0009998.JPG,9,ISIC_2998367.JPG,28,false,0.15000000000000002,hl,keypress(j),0,false,911798.0999999642,911797.8000000119,908296.999,908312.5,908313.632,911800.442,4,500,19,
break,html.Screen,10_18_1,2023-11-20T16:12:20.790Z,,,,,,,,,,,NaN,,,,,,,,high,low,,,,,,false,,,,,false,911799.1999999881,911799,,911798.5,,911800.442,4,500,,
break_continue,html.Screen,10_18_2,2023-11-20T16:12:20.790Z,,,,,,,,,,,NaN,,,,,,,,high,low,,,,,,false,,,,,false,911799.8999999762,911799.5999999642,,911799.3999999762,,911800.442,4,500,,
sequence,flow.Sequence,10_18,2023-11-20T16:12:20.791Z,,,,,,,,,,,3485.967999964254,completion,,,,,,,high,low,,,,,,false,,,,,false,911800.0999999642,911799.5999999642,908296.999,908312.3999999762,908313.632,911800.442,4,500,,
trial,html.Screen,10_19_0,2023-11-20T16:12:23.075Z,,,,1,-0.0116094682222121,0.0258434522530318,,0.05,true,hh,2283.858000011882,response,1.0650525146668357,0.9745729470305025,-0.9940070635628722,0.9852293825146712,1.0680129020746698,-0.79960444559986,high,high,,ISIC_9239632.JPG,10,ISIC_6642608.JPG,34,false,0.1,hh,keypress(i),0,false,914084.3999999762,914084.3000000119,911783.891,911800.3000000119,911800.442,914086.023,4,500,20,
break,html.Screen,10_19_1,2023-11-20T16:12:23.075Z,,,,,,,,,,,NaN,,,,,,,,high,high,,,,,,false,,,,,false,914084.6999999881,914084.6999999881,,914084.5,,914086.023,4,500,,
break_continue,html.Screen,10_19_2,2023-11-20T16:12:23.076Z,,,,,,,,,,,NaN,,,,,,,,high,high,,,,,,false,,,,,false,914085,914084.8999999762,,914084.8000000119,,914086.023,4,500,,
sequence,flow.Sequence,10_19,2023-11-20T16:12:23.076Z,,,,,,,,,,,2284.457999976119,completion,,,,,,,high,high,,,,,,false,,,,,false,914085,914084.8999999762,911783.891,911800.3000000119,911800.442,914086.023,4,500,,
trial,html.Screen,10_20_0,2023-11-20T16:12:25.301Z,,,,1,-0.0027483411352856,-0.0100996915276271,,0.05,true,hh,2223.6769999880344,response,1.0378929077920005,0.9745729470305025,-0.9940070635628722,1.012953297890337,1.0680129020746698,-0.79960444559986,high,high,,ISIC_7364041.JPG,9,ISIC_0231745.JPG,34,false,0.1,hh,keypress(i),0,false,916310,916309.6999999881,914069.449,914085.0999999642,914086.023,916321.735,4,500,21,
break,html.Screen,10_20_1,2023-11-20T16:12:25.302Z,,,,,,,,,,,NaN,,,,,,,,high,high,,,,,,false,,,,,false,916311.0999999642,916310.8999999762,,916310.3999999762,,916321.735,4,500,,
break_continue,html.Screen,10_20_2,2023-11-20T16:12:25.302Z,,,,,,,,,,,NaN,,,,,,,,high,high,,,,,,false,,,,,false,916311.8999999762,916311.5999999642,,916311.3999999762,,916321.735,4,500,,
sequence,flow.Sequence,10_20,2023-11-20T16:12:25.303Z,,,,,,,,,,,2225.5769999641925,completion,,,,,,,high,high,,,,,,false,,,,,false,916312.0999999642,916311.5999999642,914069.449,914085.0999999642,914086.023,916321.735,4,500,,
trial,html.Screen,10_21_0,2023-11-20T16:12:28.773Z,,,,1,-0.0070725527271049,-0.0049995141077508,,0.05,true,hh,3459.964999988093,response,0.936668460603038,0.9745729470305025,-0.9940070635628722,1.058142123525081,1.0680129020746698,-0.79960444559986,high,high,,ISIC_6124481.JPG,9,ISIC_5046340.JPG,34,false,0.1,hh,keypress(i),0,false,919782.0999999642,919781.6999999881,916305.11,916312.3999999762,916321.735,919791.681,4,500,22,
break,html.Screen,10_21_1,2023-11-20T16:12:28.774Z,,,,,,,,,,,NaN,,,,,,,,high,high,,,,,,false,,,,,false,919783.0999999642,919783,,919782.5,,919791.681,4,500,,
break_continue,html.Screen,10_21_2,2023-11-20T16:12:28.775Z,,,,,,,,,,,NaN,,,,,,,,high,high,,,,,,false,,,,,false,919783.8999999762,919783.5999999642,,919783.3999999762,,919791.681,4,500,,
sequence,flow.Sequence,10_21,2023-11-20T16:12:28.775Z,,,,,,,,,,,3461.864999964251,completion,,,,,,,high,high,,,,,,false,,,,,false,919784.1999999881,919783.5999999642,916305.11,916312.1999999881,916321.735,919791.681,4,500,,
trial,html.Screen,10_22_0,2023-11-20T16:12:36.789Z,,,,1,-0.0217698886732706,0.0410870915161425,,0.05,false,ll,8006.518999988097,response,-0.9585938767259125,0.9745729470305025,-0.9940070635628722,-0.8441404886756483,1.0680129020746698,-0.79960444559986,low,low,,ISIC_0072173.JPG,8,ISIC_0055003.JPG,50,false,0.1,hl,keypress(j),0,false,927798.5,927798.1999999881,919775.162,919784.3999999762,919791.681,927816.608,4,500,23,
break,html.Screen,10_22_1,2023-11-20T16:12:36.790Z,,,,,,,,,,,NaN,,,,,,,,low,low,,,,,,false,,,,,false,927799.5999999642,927799.3000000119,,927798.8999999762,,927816.608,4,500,,
break_continue,html.Screen,10_22_2,2023-11-20T16:12:36.791Z,,,,,,,,,,,NaN,,,,,,,,low,low,,,,,,false,,,,,false,927800.3000000119,927800.0999999642,,927799.8000000119,,927816.608,4,500,,
sequence,flow.Sequence,10_22,2023-11-20T16:12:36.791Z,,,,,,,,,,,8008.418999964255,completion,,,,,,,low,low,,,,,,false,,,,,false,927800.5999999642,927800.0999999642,919775.162,919784.3999999762,919791.681,927816.608,4,500,,
trial,html.Screen,10_23_0,2023-11-20T16:12:38.964Z,,,,1,-0.039728379742806,0.0228701131373768,,0.05,true,hh,2156.7919999761507,response,0.9358725198038064,0.9745729470305025,-0.9940070635628722,0.9938776615596308,1.0680129020746698,-0.79960444559986,high,high,,ISIC_0054073.JPG,9,ISIC_3365692.JPG,34,false,0.1,hh,keypress(i),0,false,929973.6999999881,929973.3999999762,927783.05,927800.8999999762,927816.608,929985.356,4,500,24,
break,html.Screen,10_23_1,2023-11-20T16:12:38.965Z,,,,,,,,,,,NaN,,,,,,,,high,high,,,,,,false,,,,,false,929974.8000000119,929974.5,,929974,,929985.356,4,500,,
break_continue,html.Screen,10_23_2,2023-11-20T16:12:38.966Z,,,,,,,,,,,NaN,,,,,,,,high,high,,,,,,false,,,,,false,929975.3999999762,929975.1999999881,,929974.8999999762,,929985.356,4,500,,
sequence,flow.Sequence,10_23,2023-11-20T16:12:38.966Z,,,,,,,,,,,2158.5919999880716,completion,,,,,,,high,high,,,,,,false,,,,,false,929975.8000000119,929975.1999999881,927783.05,927800.8000000119,927816.608,929985.356,4,500,,
trial,html.Screen,10_24_0,2023-11-20T16:12:42.164Z,,,,1,-0.0069555338059566,0.0310100918136373,,0.05,true,ll,3188.143999999971,response,-0.9819198847747947,0.9745729470305025,-0.9940070635628722,-0.7435719237873207,1.0680129020746698,-0.79960444559986,low,low,,ISIC_0011177.JPG,10,ISIC_7662910.JPG,50,false,0.1,ll,keypress(f),0,false,933173.8000000119,933173.5,929968.575,929976,929985.356,933205.077,4,500,25,
break,html.Screen,10_24_1,2023-11-20T16:12:42.166Z,,,,,,,,,,,NaN,,,,,,,,low,low,,,,,,false,,,,,false,933175,933174.6999999881,,933174.1999999881,,933205.077,4,500,,
break_continue,html.Screen,10_24_2,2023-11-20T16:12:42.166Z,,,,,,,,,,,NaN,,,,,,,,low,low,,,,,,false,,,,,false,933175.6999999881,933175.3999999762,,933175.1999999881,,933205.077,4,500,,
sequence,flow.Sequence,10_24,2023-11-20T16:12:42.167Z,,,,,,,,,,,3190.0439999761293,completion,,,,,,,low,low,,,,,,false,,,,,false,933176,933175.3999999762,929968.575,929975.8999999762,929985.356,933205.077,4,500,,
trial,html.Screen,10_25_0,2023-11-20T16:12:47.973Z,,,,1,-0.0363437082783146,-0.0333332186217051,,0.05,false,lh,5776.922999999952,response,-1.0115965332688306,0.9745729470305025,-0.9940070635628722,0.8282633603842442,1.0680129020746698,-0.79960444559986,low,high,,ISIC_3314555.JPG,10,ISIC_1069587.JPG,27,false,0.28000000000000014,ll,keypress(f),0,false,938982.3000000119,938982,933171.925,933176.1999999881,933205.077,938994.224,4,500,26,
break,html.Screen,10_25_1,2023-11-20T16:12:47.974Z,,,,,,,,,,,NaN,,,,,,,,low,high,,,,,,false,,,,,false,938983.3999999762,938983.0999999642,,938982.6999999881,,938994.224,4,500,,
break_continue,html.Screen,10_25_2,2023-11-20T16:12:47.975Z,,,,,,,,,,,NaN,,,,,,,,low,high,,,,,,false,,,,,false,938984.0999999642,938983.8999999762,,938983.6999999881,,938994.224,4,500,,
sequence,flow.Sequence,10_25,2023-11-20T16:12:47.975Z,,,,,,,,,,,5778.82299997611,completion,,,,,,,low,high,,,,,,false,,,,,false,938984.3999999762,938983.8999999762,933171.925,933176.0999999642,933205.077,938994.224,4,500,,
trial,html.Screen,10_26_0,2023-11-20T16:12:50.661Z,,,,1,-0.0450282431170921,0,,0.05,true,hh,2675.4759999880334,response,0.913084438298574,0.9745729470305025,-0.9940070635628722,1.135180301076722,1.0680129020746698,-0.79960444559986,high,high,,ISIC_1805163.JPG,8,ISIC_8637134.JPG,34,false,0.1,hh,keypress(i),0,false,941670.0999999642,941669.6999999881,938977.712,938984.5999999642,938994.224,941680.274,4,500,27,
break,html.Screen,10_26_1,2023-11-20T16:12:50.662Z,,,,,,,,,,,NaN,,,,,,,,high,high,,,,,,false,,,,,false,941671.0999999642,941670.8999999762,,941670.5,,941680.274,4,500,,
break_continue,html.Screen,10_26_2,2023-11-20T16:12:50.663Z,,,,,,,,,,,NaN,,,,,,,,high,high,,,,,,false,,,,,false,941671.8999999762,941671.5,,941671.3000000119,,941680.274,4,500,,
sequence,flow.Sequence,10_26,2023-11-20T16:12:50.663Z,,,,,,,,,,,2677.2759999999544,completion,,,,,,,high,high,,,,,,false,,,,,false,941672.1999999881,941671.5,938977.712,938984.5,938994.224,941680.274,4,500,,
trial,html.Screen,10_27_0,2023-11-20T16:12:53.173Z,,,,1,-0.0027483411352856,-0.0100996915276271,,0.05,true,hh,2501.4259999881033,response,0.913084438298574,0.9745729470305025,-0.9940070635628722,1.135180301076722,1.0680129020746698,-0.79960444559986,high,high,,ISIC_7364041.JPG,9,ISIC_8637134.JPG,34,false,0.1,hh,keypress(i),0,false,944182,944181.6999999881,941663.641,941672.3999999762,941680.274,944199.419,4,500,28,
break,html.Screen,10_27_1,2023-11-20T16:12:53.174Z,,,,,,,,,,,NaN,,,,,,,,high,high,,,,,,false,,,,,false,944183.0999999642,944182.8000000119,,944182.3999999762,,944199.419,4,500,,
break_continue,html.Screen,10_27_2,2023-11-20T16:12:53.174Z,,,,,,,,,,,NaN,,,,,,,,high,high,,,,,,false,,,,,false,944183.8000000119,944183.5999999642,,944183.3999999762,,944199.419,4,500,,
sequence,flow.Sequence,10_27,2023-11-20T16:12:53.175Z,,,,,,,,,,,2503.3259999642614,completion,,,,,,,high,high,,,,,,false,,,,,false,944184.0999999642,944183.5999999642,941663.641,941672.3000000119,941680.274,944199.419,4,500,,
trial,html.Screen,10_28_0,2023-11-20T16:13:01.252Z,,,,1,-0.0363437082783146,-0.0333332186217051,,0.05,false,lh,8061.3810000119265,response,-1.0115965332688306,0.9745729470305025,-0.9940070635628722,0.8282633603842442,1.0680129020746698,-0.79960444559986,low,high,,ISIC_3314555.JPG,10,ISIC_1069587.JPG,27,false,0.28000000000000014,ll,keypress(f),0,false,952260.8999999762,952260.8000000119,944182.867,944184.3000000119,944199.419,952274.142,4,500,29,
break,html.Screen,10_28_1,2023-11-20T16:13:01.252Z,,,,,,,,,,,NaN,,,,,,,,low,high,,,,,,false,,,,,false,952261.3999999762,952261.3000000119,,952261.0999999642,,952274.142,4,500,,
break_continue,html.Screen,10_28_2,2023-11-20T16:13:01.252Z,,,,,,,,,,,NaN,,,,,,,,low,high,,,,,,false,,,,,false,952261.6999999881,952261.5999999642,,952261.3999999762,,952274.142,4,500,,
sequence,flow.Sequence,10_28,2023-11-20T16:13:01.252Z,,,,,,,,,,,8062.180999964243,completion,,,,,,,low,high,,,,,,false,,,,,false,952261.8000000119,952261.5999999642,944182.867,944184.3000000119,944199.419,952274.142,4,500,,
trial,html.Screen,10_29_0,2023-11-20T16:13:09.029Z,,,,1,-0.0324770283903853,-0.0249968632204382,,0.05,false,lh,7763.5579999880865,response,-0.7870237732709365,0.9745729470305025,-0.9940070635628722,0.9172955251119376,1.0680129020746698,-0.79960444559986,low,high,,ISIC_7266462.JPG,9,ISIC_0057716.JPG,27,false,0.28000000000000014,hl,keypress(j),0,false,960038,960037.6999999881,952257.662,952261.8000000119,952274.142,960048.569,4,500,30,
break,html.Screen,10_29_1,2023-11-20T16:13:09.031Z,,,,,,,,,,,NaN,,,,,,,,low,high,,,,,,false,,,,,false,960039.0999999642,960038.8000000119,,960038.3999999762,,960048.569,4,500,,
break_continue,html.Screen,10_29_2,2023-11-20T16:13:09.031Z,,,,,,,,,,,NaN,,,,,,,,low,high,,,,,,false,,,,,false,960039.8000000119,960039.5999999642,,960039.3999999762,,960048.569,4,500,,
sequence,flow.Sequence,10_29,2023-11-20T16:13:09.032Z,,,,,,,,,,,7765.457999964245,completion,,,,,,,low,high,,,,,,false,,,,,false,960040.0999999642,960039.5999999642,952257.662,952261.8000000119,952274.142,960048.569,4,500,,
trial,html.Screen,10_30_0,2023-11-20T16:13:16.006Z,,,,1,0.0277178575053843,-0.0395587463147856,,0.05,true,hl,6965.430999999982,response,1.034740231914001,0.9745729470305025,-0.9940070635628722,-0.6844507507038213,1.0680129020746698,-0.79960444559986,high,low,,ISIC_0010807.JPG,10,ISIC_8569205.JPG,28,false,0.15000000000000002,hl,keypress(j),0,false,967014.5,967014,960031.998,960040.3000000119,960048.569,967022.148,4,500,31,
break,html.Screen,10_30_1,2023-11-20T16:13:16.007Z,,,,,,,,,,,NaN,,,,,,,,high,low,,,,,,false,,,,,false,967015.6999999881,967015.3999999762,,967014.8999999762,,967022.148,4,500,,
break_continue,html.Screen,10_30_2,2023-11-20T16:13:16.008Z,,,,,,,,,,,NaN,,,,,,,,high,low,,,,,,false,,,,,false,967016.5,967016.1999999881,,967016,,967022.148,4,500,,
sequence,flow.Sequence,10_30,2023-11-20T16:13:16.008Z,,,,,,,,,,,6967.630999988061,completion,,,,,,,high,low,,,,,,false,,,,,false,967016.8999999762,967016.1999999881,960031.998,960040.1999999881,960048.569,967022.148,4,500,,
trial,html.Screen,10_31_0,2023-11-20T16:13:19.028Z,,,,1,-0.0027483411352856,-0.0100996915276271,,0.05,true,hl,3014.152000011876,response,0.9454713230140772,0.9745729470305025,-0.9940070635628722,-0.9245167441969216,1.0680129020746698,-0.79960444559986,high,low,,ISIC_7364041.JPG,9,ISIC_9101055.JPG,28,false,0.15000000000000002,hl,keypress(j),0,false,970036.3999999762,970036.3000000119,967005.598,967017,967022.148,970058.657,4,500,32,
break,html.Screen,10_31_1,2023-11-20T16:13:19.028Z,,,,,,,,,,,NaN,,,,,,,,high,low,,,,,,false,,,,,false,970036.6999999881,970036.5999999642,,970036.5,,970058.657,4,500,,
break_continue,html.Screen,10_31_2,2023-11-20T16:13:19.028Z,,,,,,,,,,,NaN,,,,,,,,high,low,,,,,,false,,,,,false,970036.8999999762,970036.8999999762,,970036.6999999881,,970058.657,4,500,,
sequence,flow.Sequence,10_31,2023-11-20T16:13:19.028Z,,,,,,,,,,,3014.7519999761134,completion,,,,,,,high,low,,,,,,false,,,,,false,970036.8999999762,970036.8999999762,967005.598,967017,967022.148,970058.657,4,500,,
trial,html.Screen,10_32_0,2023-11-20T16:13:24.917Z,,,,1,0.000047919190197942736,0.0462652940855003,,0.05,true,hl,5867.042999988073,response,0.991282840649944,0.9745729470305025,-0.9940070635628722,-0.9397921099839784,1.0680129020746698,-0.79960444559986,high,low,,ISIC_0011507.JPG,9,ISIC_0000463.JPG,28,false,0.15000000000000002,hl,keypress(j),0,false,975926,975925.6999999881,970041.835,970037,970058.657,975931.035,4,500,33,
break,html.Screen,10_32_1,2023-11-20T16:13:24.919Z,,,,,,,,,,,NaN,,,,,,,,high,low,,,,,,false,,,,,false,975927.0999999642,975926.8999999762,,975926.3999999762,,975931.035,4,500,,
break_continue,html.Screen,10_32_2,2023-11-20T16:13:24.919Z,,,,,,,,,,,NaN,,,,,,,,high,low,,,,,,false,,,,,false,975927.8999999762,975927.6999999881,,975927.3999999762,,975931.035,4,500,,
sequence,flow.Sequence,10_32,2023-11-20T16:13:24.920Z,,,,,,,,,,,5869.042999988073,completion,,,,,,,high,low,,,,,,false,,,,,false,975928.1999999881,975927.6999999881,970041.835,970037,970058.657,975931.035,4,500,,
trial,html.Screen,10_33_0,2023-11-20T16:13:31.046Z,,,,1,-0.0363437082783146,-0.0333332186217051,,0.05,true,lh,6123.064999964205,response,-1.0022829373011404,0.9745729470305025,-0.9940070635628722,0.8311726972863814,1.0680129020746698,-0.79960444559986,low,high,,ISIC_3314555.JPG,9,ISIC_0033287.JPG,27,false,0.28000000000000014,lh,keypress(e),0,false,982054.3999999762,982054.0999999642,975914.466,975928.3999999762,975931.035,982070.527,4,500,34,
break,html.Screen,10_33_1,2023-11-20T16:13:31.047Z,,,,,,,,,,,NaN,,,,,,,,low,high,,,,,,false,,,,,false,982055.5,982055.1999999881,,982054.8000000119,,982070.527,4,500,,
break_continue,html.Screen,10_33_2,2023-11-20T16:13:31.048Z,,,,,,,,,,,NaN,,,,,,,,low,high,,,,,,false,,,,,false,982056.0999999642,982055.8999999762,,982055.6999999881,,982070.527,4,500,,
sequence,flow.Sequence,10_33,2023-11-20T16:13:31.048Z,,,,,,,,,,,6124.864999976126,completion,,,,,,,low,high,,,,,,false,,,,,false,982056.3999999762,982055.8999999762,975914.466,975928.3999999762,975931.035,982070.527,4,500,,
trial,html.Screen,10_34_0,2023-11-20T16:13:36.646Z,,,,1,0.0102460616775615,-0.0309670599545429,,0.05,false,ll,5583.372999976156,response,-1.0570568707560892,0.9745729470305025,-0.9940070635628722,-0.8316850702452728,1.0680129020746698,-0.79960444559986,low,low,,ISIC_0072041.JPG,8,ISIC_0059294.JPG,50,false,0.1,lh,keypress(e),0,false,987654.1999999881,987653.8999999762,982053.876,982056.5999999642,982070.527,987659.404,4,500,35,
break,html.Screen,10_34_1,2023-11-20T16:13:36.647Z,,,,,,,,,,,NaN,,,,,,,,low,low,,,,,,false,,,,,false,987655.3000000119,987655.0999999642,,987654.5999999642,,987659.404,4,500,,
break_continue,html.Screen,10_34_2,2023-11-20T16:13:36.647Z,,,,,,,,,,,NaN,,,,,,,,low,low,,,,,,false,,,,,false,987656,987655.6999999881,,987655.5,,987659.404,4,500,,
sequence,flow.Sequence,10_34,2023-11-20T16:13:36.648Z,,,,,,,,,,,5585.172999988077,completion,,,,,,,low,low,,,,,,false,,,,,false,987656.3000000119,987655.6999999881,982053.876,982056.5,982070.527,987659.404,4,500,,
trial,html.Screen,10_35_0,2023-11-20T16:13:42.374Z,,,,1,-0.0363437082783146,-0.0333332186217051,,0.05,true,ll,5722.3960000119405,response,-1.0437232404340642,0.9745729470305025,-0.9940070635628722,-0.7530783329910251,1.0680129020746698,-0.79960444559986,low,low,,ISIC_3314555.JPG,9,ISIC_0000549.JPG,50,false,0.1,ll,keypress(f),0,false,993382.1999999881,993381.8000000119,987642.801,987656.5,987659.404,993398.494,4,500,36,
break,html.Screen,10_35_1,2023-11-20T16:13:42.375Z,,,,,,,,,,,NaN,,,,,,,,low,low,,,,,,false,,,,,false,993383.3000000119,993383.0999999642,,993382.5999999642,,993398.494,4,500,,
break_continue,html.Screen,10_35_2,2023-11-20T16:13:42.376Z,,,,,,,,,,,NaN,,,,,,,,low,low,,,,,,false,,,,,false,993384,993383.8000000119,,993383.5999999642,,993398.494,4,500,,
sequence,flow.Sequence,10_35,2023-11-20T16:13:42.376Z,,,,,,,,,,,5724.3960000119405,completion,,,,,,,low,low,,,,,,false,,,,,false,993384.3000000119,993383.8000000119,987642.801,987656.5,987659.404,993398.494,4,500,,
trial,html.Screen,10_36_0,2023-11-20T16:13:47.893Z,,,,1,0.0051189696037511,-0.0396625911332438,,0.05,false,lh,5503.205999988131,response,-0.8947611078712571,0.9745729470305025,-0.9940070635628722,0.8960964505004638,1.0680129020746698,-0.79960444559986,low,high,,ISIC_9742891.JPG,9,ISIC_6441128.JPG,27,false,0.28000000000000014,hl,keypress(j),0,false,998902,998901.6999999881,993381.97,993384.5,993398.494,998921.24,4,500,37,
break,html.Screen,10_36_1,2023-11-20T16:13:47.895Z,,,,,,,,,,,NaN,,,,,,,,low,high,,,,,,false,,,,,false,998903.0999999642,998902.8000000119,,998902.3000000119,,998921.24,4,500,,
break_continue,html.Screen,10_36_2,2023-11-20T16:13:47.895Z,,,,,,,,,,,NaN,,,,,,,,low,high,,,,,,false,,,,,false,998903.6999999881,998903.5,,998903.3000000119,,998921.24,4,500,,
sequence,flow.Sequence,10_36,2023-11-20T16:13:47.895Z,,,,,,,,,,,5505.006000000052,completion,,,,,,,low,high,,,,,,false,,,,,false,998904,998903.5,993381.97,993384.5,993398.494,998921.24,4,500,,
trial,html.Screen,10_37_0,2023-11-20T16:13:50.597Z,,,,1,0.0159061451859594,0.0296598845560212,,0.05,false,hl,2683.7600000000093,response,0.8701680819250541,0.9745729470305025,-0.9940070635628722,-0.701391706020652,1.0680129020746698,-0.79960444559986,high,low,,ISIC_0072564.JPG,9,ISIC_5736979.JPG,28,false,0.15000000000000002,hh,keypress(i),0,false,1001605.3000000119,1001605,998887.4,998904.1999999881,998921.24,1001623.922,4,500,38,
break,html.Screen,10_37_1,2023-11-20T16:13:50.597Z,,,,,,,,,,,NaN,,,,,,,,high,low,,,,,,false,,,,,false,1001605.8999999762,1001605.6999999881,,1001605.5,,1001623.922,4,500,,
break_continue,html.Screen,10_37_2,2023-11-20T16:13:50.598Z,,,,,,,,,,,NaN,,,,,,,,high,low,,,,,,false,,,,,false,1001606.3000000119,1001606.1999999881,,1001606,,1001623.922,4,500,,
sequence,flow.Sequence,10_37,2023-11-20T16:13:50.598Z,,,,,,,,,,,2684.9599999880884,completion,,,,,,,high,low,,,,,,false,,,,,false,1001606.5,1001606.1999999881,998887.4,998904.1999999881,998921.24,1001623.922,4,500,,
trial,html.Screen,10_38_0,2023-11-20T16:13:55.030Z,,,,1,-0.0069555338059566,0.0310100918136373,,0.05,true,ll,4414.277999988059,response,-1.0644984649911948,0.9745729470305025,-0.9940070635628722,-0.8053137102379775,1.0680129020746698,-0.79960444559986,low,low,,ISIC_0011177.JPG,9,ISIC_2007396.JPG,50,false,0.1,ll,keypress(f),0,false,1006038.5,1006038.1999999881,1001590.14,1001606.6999999881,1001623.922,1006044.427,4,500,39,
