sender,sender_type,sender_id,timestamp,meta,,age,blockNo,c1,c2,condition,control_tolerance,correct,correctResponse,duration,ended_on,f1,f1_high,f1_low,f2,f2_high,f2_low,feature_level1,feature_level2,gender,img_left,img_reveal,img_right,n_target_images,practice,range_tolerance,response,response_action,selection_duration,staircase,time_commit,time_end,time_render,time_run,time_show,time_switch,total_blocks,total_trials,trialNo,url
informed_consent,html.Screen,0,2023-11-20T15:19:23.486Z,"{""labjs_version"":""20.2.4"",""labjs_build"":{""flavor"":""development"",""commit"":""f5b4a49f956347addd546a832a3327688c2c0fef""},""location"":""https://labjs.felixhenninger.com/api/labjs_preview/index.html"",""userAgent"":""Mozilla/5.0 (Windows NT 10.0; Win64; x64) AppleWebKit/537.36 (KHTML, like Gecko) Chrome/119.0.0.0 Safari/537.36"",""platform"":""Win32"",""language"":""en-US"",""locale"":""en-US"",""timeZone"":""America/Chicago"",""timezoneOffset"":360,""screen_width"":1680,""screen_height"":1050,""scroll_width"":825,""scroll_height"":888,""window_innerWidth"":825,""window_innerHeight"":936,""devicePixelRatio"":1}",,,,,,,,,,37235.326000023844,response,,,,,,,,,,,,,,,,consent,click button,,,37924.10000002384,37915.60000002384,663.475,872.3999999761581,680.274,37735.913,,,,{}
Demography form,html.Form,1,2023-11-20T15:19:28.999Z,,,23,,,,,,,,5700.287000047683,form submission,,,,,,,,,male,,,,,,,,,,,43436.39999997616,43436.200000047684,37719.211,37924.299999952316,37735.913,43246.614,,,,
Welcome,html.Screen,2,2023-11-20T15:19:40.086Z,,,,,,,"[""bor"",""col""]",,,,11276.885999999999,response,,,,,,,,,,,,,,,,continue,click button,,,54524.200000047684,54523.5,43229.822,43436.60000002384,43246.614,54317.929,,,,
demo_instructions,html.Screen,3,2023-11-20T15:20:13.952Z,,,,,,,,,,,34069.87099995232,response,,,,,,,,,,,,,,,,continue,click button,,,88388.5,88387.79999995232,54301.237,54524.200000047684,54317.929,88183.866,,,,
trial,html.Screen,4_0_0,2023-11-20T15:20:18.967Z,,,,0,-1.2691569063625474,-1.1264228993232308,,,false,hh,5219.834000047689,response,1.3246728710248594,1.2,-1.2,1.1527736000922424,1.2,-1.2,high,high,,ISIC_4980656.JPG,,ISIC_6876281.JPG,25,true,0.14,lh,keypress(e),100,false,93404.29999995232,93403.70000004768,88167.263,88388.70000004768,88183.866,93226.991,1,16,1,
sequence,flow.Sequence,4_0,2023-11-20T15:20:18.991Z,,,,,,,,,,,5219.834000047689,completion,,,,,,,high,high,,,,,,true,,,,,false,93427.39999997616,93403.70000004768,88167.263,88388.70000004768,88183.866,93226.991,1,16,,
trial,html.Screen,4_1_0,2023-11-20T15:20:24.844Z,,,,0,-1.0849202097813322,-1.0851127310415287,,,false,hh,6053.209000047689,response,1.1684835186766898,1.2,-1.2,1.2921331918483707,1.2,-1.2,high,high,,ISIC_0010289.JPG,,ISIC_5920470.JPG,25,true,0.14,ll,keypress(f),100,false,99280.79999995232,99280.20000004768,93193.722,93427.70000004768,93226.991,99088.44,1,16,2,
sequence,flow.Sequence,4_1,2023-11-20T15:20:24.845Z,,,,,,,,,,,6053.209000047689,completion,,,,,,,high,high,,,,,,true,,,,,false,99281.60000002384,99280.20000004768,93193.722,93427.60000002384,93226.991,99088.44,1,16,,
trial,html.Screen,4_2_0,2023-11-20T15:20:31.828Z,,,,0,-1.186629690487006,-1.3269945600040771,,,false,hh,7176.1600000238395,response,1.0659165756604234,1.2,-1.2,1.0867497316848906,1.2,-1.2,high,high,,ISIC_0015390.JPG,,ISIC_5807608.JPG,25,true,0.14,hl,keypress(j),100,false,106264.79999995232,106264.60000002384,99071.831,99282,99088.44,106068.703,1,16,3,
sequence,flow.Sequence,4_2,2023-11-20T15:20:31.828Z,,,,,,,,,,,7176.1600000238395,completion,,,,,,,high,high,,,,,,true,,,,,false,106265.10000002384,106264.60000002384,99071.831,99282,99088.44,106068.703,1,16,,
trial,html.Screen,4_3_0,2023-11-20T15:20:36.013Z,,,,0,-1.2749714218614645,-1.1578619398362149,,,true,hh,4380.596999952322,response,1.2804054832904397,1.2,-1.2,1.171271535505083,1.2,-1.2,high,high,,ISIC_0024999.JPG,,ISIC_7889838.JPG,25,true,0.14,hh,keypress(i),100,false,110450,110449.29999995232,106051.98,106265.20000004768,106068.703,110260.138,1,16,4,
sequence,flow.Sequence,4_3,2023-11-20T15:20:36.014Z,,,,,,,,,,,4380.596999952322,completion,,,,,,,high,high,,,,,,true,,,,,false,110450.70000004768,110449.29999995232,106051.98,106265.20000004768,106068.703,110260.138,1,16,,
trial,html.Screen,4_4_0,2023-11-20T15:20:41.013Z,,,,0,1.2246024683501224,1.2904526351590244,,,false,ll,5189.062000047677,response,-1.1302628852630028,1.2,-1.2,-1.288906469447243,1.2,-1.2,low,low,,ISIC_4730066.JPG,,ISIC_0071050.JPG,30,true,0.13,hl,keypress(j),100,false,115449.89999997616,115449.20000004768,110243.522,110451.20000004768,110260.138,115253.24,1,16,5,
sequence,flow.Sequence,4_4,2023-11-20T15:20:41.014Z,,,,,,,,,,,5189.062000047677,completion,,,,,,,low,low,,,,,,true,,,,,false,115450.60000002384,115449.20000004768,110243.522,110451.10000002384,110260.138,115253.24,1,16,,
trial,html.Screen,4_5_0,2023-11-20T15:20:49.209Z,,,,0,1.3246728710248594,1.1527736000922424,,,true,ll,8390.259999999995,response,-1.1392972253022884,1.2,-1.2,-1.208510423375335,1.2,-1.2,low,low,,ISIC_6876281.JPG,,ISIC_0046526.JPG,40,true,0.14,ll,keypress(f),100,false,123644.10000002384,123643.5,115236.569,115450.79999995232,115253.24,123452.544,1,16,6,
sequence,flow.Sequence,4_5,2023-11-20T15:20:49.210Z,,,,,,,,,,,8390.259999999995,completion,,,,,,,low,low,,,,,,true,,,,,false,123644.79999995232,123643.5,115236.569,115450.70000004768,115253.24,123452.544,1,16,,
trial,html.Screen,4_6_0,2023-11-20T15:20:53.809Z,,,,0,1.274417010249866,1.0725495669014795,,,true,ll,4791.255999952322,response,-1.071312313440387,1.2,-1.2,-1.0935391476164529,1.2,-1.2,low,low,,ISIC_8849004.JPG,,ISIC_0063680.JPG,40,true,0.14,ll,keypress(f),100,false,128244.29999995232,128243.79999995232,123435.9,123645.10000002384,123452.544,128061.577,1,16,7,
sequence,flow.Sequence,4_6,2023-11-20T15:20:53.810Z,,,,,,,,,,,4791.255999952322,completion,,,,,,,low,low,,,,,,true,,,,,false,128244.89999997616,128243.79999995232,123435.9,123645.10000002384,123452.544,128061.577,1,16,,
trial,html.Screen,4_7_0,2023-11-20T15:21:01.436Z,,,,0,1.2600330864275875,1.0958628838888655,,,true,ll,7808.922999999995,response,-1.0849202097813322,1.2,-1.2,-1.0851127310415287,1.2,-1.2,low,low,,ISIC_0026996.JPG,,ISIC_0010289.JPG,40,true,0.14,ll,keypress(f),100,false,135871,135870.5,128045.039,128245.20000004768,128061.577,135726.396,1,16,8,
sequence,flow.Sequence,4_7,2023-11-20T15:21:01.436Z,,,,,,,,,,,7808.922999999995,completion,,,,,,,low,low,,,,,,true,,,,,false,135871.60000002384,135870.5,128045.039,128245.10000002384,128061.577,135726.396,1,16,,
trial,html.Screen,4_8_0,2023-11-20T15:21:09.553Z,,,,0,0.7882758084023446,-0.8296405881378283,,,true,lh,8261.603999999992,response,-1.2020012168275056,1.2,-1.2,0.923753102263735,1.2,-1.2,low,high,,ISIC_0065882.JPG,,ISIC_0000022.JPG,27,true,0.40000000000000024,lh,keypress(e),100,false,143988.5,143988,135659.642,135871.89999997616,135726.396,143825.487,1,16,9,
sequence,flow.Sequence,4_8,2023-11-20T15:21:09.554Z,,,,,,,,,,,8261.603999999992,completion,,,,,,,low,high,,,,,,true,,,,,false,143989.29999995232,143988,135659.642,135871.89999997616,135726.396,143825.487,1,16,,
trial,html.Screen,4_9_0,2023-11-20T15:21:16.390Z,,,,0,1.2054195059663604,-0.7760611240296147,,,true,lh,6999.812999952323,response,-0.9198276163642348,1.2,-1.2,0.7754915110667046,1.2,-1.2,low,high,,ISIC_8712559.JPG,,ISIC_7840728.JPG,40,true,0.4500000000000003,lh,keypress(e),100,false,150825.70000004768,150825.29999995232,143775.494,143989.5,143825.487,150638.769,1,16,10,
sequence,flow.Sequence,4_9,2023-11-20T15:21:16.391Z,,,,,,,,,,,6999.812999952323,completion,,,,,,,low,high,,,,,,true,,,,,false,150826.39999997616,150825.29999995232,143775.494,143989.39999997616,143825.487,150638.769,1,16,,
trial,html.Screen,4_10_0,2023-11-20T15:21:21.997Z,,,,0,1.0369885917487718,-0.8486937878412699,,,true,lh,5793.130999976158,response,-1.0116417541846066,1.2,-1.2,1.033442916947398,1.2,-1.2,low,high,,ISIC_6917681.JPG,,ISIC_0031389.JPG,40,true,0.4500000000000003,lh,keypress(e),100,false,156432.39999997616,156431.89999997616,150622.124,150826.60000002384,150638.769,156266.368,1,16,11,
sequence,flow.Sequence,4_10,2023-11-20T15:21:21.998Z,,,,,,,,,,,5793.130999976158,completion,,,,,,,low,high,,,,,,true,,,,,false,156433,156431.89999997616,150622.124,150826.5,150638.769,156266.368,1,16,,
trial,html.Screen,4_11_0,2023-11-20T15:21:27.567Z,,,,0,1.2578167348825195,-0.8371819698254004,,,true,lh,5735.632000000012,response,-0.9617893983965208,1.2,-1.2,0.9453006131304652,1.2,-1.2,low,high,,ISIC_9613570.JPG,,ISIC_4229473.JPG,40,true,0.4500000000000003,lh,keypress(e),100,false,162002.29999995232,162002,156233.06,156433.39999997616,156266.368,161827.196,1,16,12,
sequence,flow.Sequence,4_11,2023-11-20T15:21:27.567Z,,,,,,,,,,,5735.632000000012,completion,,,,,,,low,high,,,,,,true,,,,,false,162002.79999995232,162002,156233.06,156433.29999995232,156266.368,161827.196,1,16,,
trial,html.Screen,4_12_0,2023-11-20T15:21:32.560Z,,,,0,-1.0116417541846066,1.033442916947398,,,true,hl,5167.304000000004,response,0.8472024037189965,1.2,-1.2,-0.986370061404882,1.2,-1.2,high,low,,ISIC_0031389.JPG,,ISIC_0054355.JPG,26,true,0.4500000000000003,hl,keypress(j),100,false,166994.89999997616,166994.5,161793.876,162003.10000002384,161827.196,166820.255,1,16,13,
sequence,flow.Sequence,4_12,2023-11-20T15:21:32.560Z,,,,,,,,,,,5167.304000000004,completion,,,,,,,high,low,,,,,,true,,,,,false,166995.60000002384,166994.5,161793.876,162003,161827.196,166820.255,1,16,,
trial,html.Screen,4_13_0,2023-11-20T15:21:36.242Z,,,,0,-0.9617893983965208,0.9453006131304652,,,true,hl,3857.1449999761535,response,0.8513427412482127,1.2,-1.2,-0.9295303568095064,1.2,-1.2,high,low,,ISIC_4229473.JPG,,ISIC_0034164.JPG,26,true,0.4500000000000003,hl,keypress(j),100,false,170677.79999995232,170677.39999997616,166786.927,166995.79999995232,166820.255,170510.768,1,16,14,
sequence,flow.Sequence,4_13,2023-11-20T15:21:36.243Z,,,,,,,,,,,3857.1449999761535,completion,,,,,,,high,low,,,,,,true,,,,,false,170678.29999995232,170677.39999997616,166786.927,166995.79999995232,166820.255,170510.768,1,16,,
trial,html.Screen,4_14_0,2023-11-20T15:21:39.575Z,,,,0,-1.0685314915436992,0.8203833713472237,,,true,hl,3499.432000047673,response,0.8828738626295417,1.2,-1.2,-0.8288177599439582,1.2,-1.2,high,low,,ISIC_0029374.JPG,,ISIC_0056041.JPG,26,true,0.4500000000000003,hl,keypress(j),100,false,174010.5,174010.20000004768,170477.428,170678.60000002384,170510.768,173833.898,1,16,15,
sequence,flow.Sequence,4_14,2023-11-20T15:21:39.576Z,,,,,,,,,,,3499.432000047673,completion,,,,,,,high,low,,,,,,true,,,,,false,174011.10000002384,174010.20000004768,170477.428,170678.5,170510.768,173833.898,1,16,,
trial,html.Screen,4_15_0,2023-11-20T15:21:46.345Z,,,,0,-0.8544507134472948,0.9244388608707323,,,true,hl,6945.501999976172,response,0.8034318937720549,1.2,-1.2,-1.0024917298189338,1.2,-1.2,high,low,,ISIC_3565564.JPG,,ISIC_0032766.JPG,26,true,0.4500000000000003,hl,keypress(j),100,false,180779.79999995232,180779.39999997616,173800.594,174011.29999995232,173833.898,180597.056,1,16,16,
sequence,flow.Sequence,4_15,2023-11-20T15:21:46.346Z,,,,,,,,,,,6945.501999976172,completion,,,,,,,high,low,,,,,,true,,,,,false,180780.5,180779.39999997616,173800.594,174011.20000004768,173833.898,180597.056,1,16,,
demonstration_loop,flow.Loop,4,2023-11-20T15:21:46.346Z,,,,,,,,,,,92595.53399997616,completion,,,,,,,,,,,,,,true,,,,,false,180780.79999995232,180779.39999997616,88167.263,88388.60000002384,88183.866,180597.056,1,16,,
practice_instructions,html.Screen,5,2023-11-20T15:22:02.585Z,,,,,,,,,,,16414.743999952305,response,,,,,,,,,,,,,,,,continue,click button,,,197019.89999997616,197011.79999995232,180580.444,180780.89999997616,180597.056,196811.986,,,,
trial,html.Screen,6_0_0,2023-11-20T15:22:13.013Z,,,,1,-1.1441767540243375,-1.0949087392471728,,,true,hh,10628.114000023837,response,1.2804054832904397,1.2,-1.2,1.171271535505083,1.2,-1.2,high,high,,ISIC_0054146.JPG,,ISIC_7889838.JPG,25,true,0.14,hh,keypress(i),0,false,207447.10000002384,207440.10000002384,196795.235,197020,196811.986,207282.328,1,40,1,
sequence,flow.Sequence,6_0,2023-11-20T15:22:13.013Z,,,,,,,,,,,10628.114000023837,completion,,,,,,,high,high,,,,,,true,,,,,false,207447.20000004768,207440.10000002384,196795.235,197020,196811.986,207282.328,1,40,,
trial,html.Screen,6_1_0,2023-11-20T15:22:19.747Z,,,,1,0.7518277461369444,-1.3860759020802074,,,true,lh,6898.872000047675,response,-1.2081146885025262,1.2,-1.2,1.195668832085049,1.2,-1.2,low,high,,ISIC_7967397.JPG,,ISIC_7369690.JPG,27,true,0.40000000000000024,lh,keypress(e),0,false,214181.60000002384,214181.20000004768,207232.249,207447.29999995232,207282.328,213995.41,1,40,2,
sequence,flow.Sequence,6_1,2023-11-20T15:22:19.748Z,,,,,,,,,,,6898.872000047675,completion,,,,,,,low,high,,,,,,true,,,,,false,214182,214181.20000004768,207232.249,207447.29999995232,207282.328,213995.41,1,40,,
trial,html.Screen,6_2_0,2023-11-20T15:22:30.332Z,,,,1,1.0329549150636406,-1.01584100839286,,,true,lh,10770.389999952313,response,-0.7688509750532941,1.2,-1.2,0.7699842387811451,1.2,-1.2,low,high,,ISIC_0054670.JPG,,ISIC_0014527.JPG,40,true,0.4500000000000003,lh,keypress(e),0,false,224766,224765.79999995232,213962.119,214182.39999997616,213995.41,224599.392,1,40,3,
sequence,flow.Sequence,6_2,2023-11-20T15:22:30.332Z,,,,,,,,,,,10770.389999952313,completion,,,,,,,low,high,,,,,,true,,,,,false,224766.5,224765.79999995232,213962.119,214182.20000004768,213995.41,224599.392,1,40,,
trial,html.Screen,6_3_0,2023-11-20T15:22:34.859Z,,,,1,1.199471562817528,-0.8631260534979347,,,true,lh,4694.007999976166,response,-1.0788024398087033,1.2,-1.2,0.9911875460374616,1.2,-1.2,low,high,,ISIC_0030754.JPG,,ISIC_5951430.JPG,40,true,0.4500000000000003,lh,keypress(e),0,false,229293.70000004768,229293.39999997616,224549.39,224766.79999995232,224599.392,229091.467,1,40,4,
sequence,flow.Sequence,6_3,2023-11-20T15:22:34.860Z,,,,,,,,,,,4694.007999976166,completion,,,,,,,low,high,,,,,,true,,,,,false,229294.29999995232,229293.39999997616,224549.39,224766.70000004768,224599.392,229091.467,1,40,,
trial,html.Screen,6_4_0,2023-11-20T15:22:47.244Z,,,,1,-1.2749714218614645,-1.1578619398362149,,,false,hh,12584.832999952312,response,1.1756375305897409,1.2,-1.2,0.910735965353392,1.2,-1.2,high,high,,ISIC_0024999.JPG,,ISIC_0005769.JPG,265,true,0.4500000000000003,ll,keypress(f),0,false,241676.39999997616,241676.29999995232,229074.985,229294.60000002384,229091.467,241498.938,1,40,5,
sequence,flow.Sequence,6_4,2023-11-20T15:22:47.244Z,,,,,,,,,,,12584.832999952312,completion,,,,,,,high,high,,,,,,true,,,,,false,241676.60000002384,241676.29999995232,229074.985,229294.60000002384,229091.467,241498.938,1,40,,
trial,html.Screen,6_5_0,2023-11-20T15:22:53.621Z,,,,1,-0.9544693251394116,1.0727539917203766,,,true,hl,6554.4619999761635,response,0.7991459998473059,1.2,-1.2,-1.0280788723474688,1.2,-1.2,high,low,,ISIC_0055147.JPG,,ISIC_7951202.JPG,26,true,0.4500000000000003,hl,keypress(j),0,false,248053.70000004768,248053.39999997616,241449.008,241676.60000002384,241498.938,247861.331,1,40,6,
sequence,flow.Sequence,6_5,2023-11-20T15:22:53.622Z,,,,,,,,,,,6554.4619999761635,completion,,,,,,,high,low,,,,,,true,,,,,false,248054.20000004768,248053.39999997616,241449.008,241676.60000002384,241498.938,247861.331,1,40,,
trial,html.Screen,6_6_0,2023-11-20T15:22:59.309Z,,,,1,-0.8443403196524287,0.8858525429102605,,,true,hl,5880.068999976153,response,1.3046390428588206,1.2,-1.2,-0.7942099232219556,1.2,-1.2,high,low,,ISIC_8777813.JPG,,ISIC_0013096.JPG,26,true,0.4500000000000003,hl,keypress(j),0,false,253741.79999995232,253741.39999997616,247828.034,248054.5,247861.331,253539.128,1,40,7,
sequence,flow.Sequence,6_6,2023-11-20T15:22:59.309Z,,,,,,,,,,,5880.068999976153,completion,,,,,,,high,low,,,,,,true,,,,,false,253742.20000004768,253741.39999997616,247828.034,248054.39999997616,247861.331,253539.128,1,40,,
trial,html.Screen,6_7_0,2023-11-20T15:23:05.309Z,,,,1,-1.2118207001489876,-1.3164676315545727,,,true,hh,6202.572000047687,response,1.135180301076722,1.2,-1.2,0.8279199409322678,1.2,-1.2,high,high,,ISIC_0066476.JPG,,ISIC_8637134.JPG,203,true,0.40000000000000024,hh,keypress(i),0,false,259742.10000002384,259741.70000004768,253522.337,253742.39999997616,253539.128,259567.436,1,40,8,
sequence,flow.Sequence,6_7,2023-11-20T15:23:05.310Z,,,,,,,,,,,6202.572000047687,completion,,,,,,,high,high,,,,,,true,,,,,false,259742.70000004768,259741.70000004768,253522.337,253742.29999995232,253539.128,259567.436,1,40,,
trial,html.Screen,6_8_0,2023-11-20T15:23:12.118Z,,,,1,0.8110121381849364,-0.7563142141851558,,,true,lh,6982.664000023855,response,-1.045301444872812,1.2,-1.2,1.0872560254441277,1.2,-1.2,low,high,,ISIC_0033605.JPG,,ISIC_4507700.JPG,27,true,0.40000000000000024,lh,keypress(e),0,false,266550.39999997616,266550.10000002384,259517.493,259742.89999997616,259567.436,266347.301,1,40,9,
sequence,flow.Sequence,6_8,2023-11-20T15:23:12.118Z,,,,,,,,,,,6982.664000023855,completion,,,,,,,low,high,,,,,,true,,,,,false,266551,266550.10000002384,259517.493,259742.89999997616,259567.436,266347.301,1,40,,
trial,html.Screen,6_9_0,2023-11-20T15:23:16.789Z,,,,1,1.2541318165695772,1.085289936617366,,,true,ll,4874.199000000022,response,-0.8312823923310584,1.2,-1.2,-0.9576418532667232,1.2,-1.2,low,low,,ISIC_4277207.JPG,,ISIC_3688407.JPG,359,true,0.4500000000000003,ll,keypress(f),0,false,271221.89999997616,271221.5,266330.615,266551.2000000477,266347.301,271056.472,1,40,10,
sequence,flow.Sequence,6_9,2023-11-20T15:23:16.790Z,,,,,,,,,,,4874.199000000022,completion,,,,,,,low,low,,,,,,true,,,,,false,271222.5,271221.5,266330.615,266551.10000002384,266347.301,271056.472,1,40,,
trial,html.Screen,6_10_0,2023-11-20T15:23:25.070Z,,,,1,-1.0153439398566937,0.93001438372942,,,false,hl,8445.42799997615,response,1.0887164761389951,1.2,-1.2,-1.5357518752548716,1.2,-1.2,high,low,,ISIC_8211214.JPG,,ISIC_0028127.JPG,26,true,0.4500000000000003,hh,keypress(i),0,false,279502.2000000477,279501.89999997616,271006.455,271222.7000000477,271056.472,279322.569,1,40,11,
sequence,flow.Sequence,6_10,2023-11-20T15:23:25.070Z,,,,,,,,,,,8445.42799997615,completion,,,,,,,high,low,,,,,,true,,,,,false,279502.7999999523,279501.89999997616,271006.455,271222.7000000477,271056.472,279322.569,1,40,,
trial,html.Screen,6_11_0,2023-11-20T15:23:30.421Z,,,,1,-0.90812608370647,1.2720026872926935,,,true,hl,5530.930999999982,response,0.8719231363109603,1.2,-1.2,-0.7704280220140033,1.2,-1.2,high,low,,ISIC_0450295.JPG,,ISIC_0029453.JPG,26,true,0.4500000000000003,hl,keypress(j),0,false,284853.89999997616,284853.5,279289.207,279503,279322.569,284666.299,1,40,12,
sequence,flow.Sequence,6_11,2023-11-20T15:23:30.422Z,,,,,,,,,,,5530.930999999982,completion,,,,,,,high,low,,,,,,true,,,,,false,284854.39999997616,284853.5,279289.207,279502.89999997616,279322.569,284666.299,1,40,,
trial,html.Screen,6_12_0,2023-11-20T15:23:37.380Z,,,,1,-1.0116417541846066,1.033442916947398,,,false,hl,7146.201000000001,response,0.8719231363109603,1.2,-1.2,-0.7704280220140033,1.2,-1.2,high,low,,ISIC_0031389.JPG,,ISIC_0029453.JPG,26,true,0.4500000000000003,lh,keypress(e),0,false,291812.7000000477,291812.5,284633.091,284854.7000000477,284666.299,291613.227,1,40,13,
sequence,flow.Sequence,6_12,2023-11-20T15:23:37.380Z,,,,,,,,,,,7146.201000000001,completion,,,,,,,high,low,,,,,,true,,,,,false,291812.89999997616,291812.5,284633.091,284854.7000000477,284666.299,291613.227,1,40,,
trial,html.Screen,6_13_0,2023-11-20T15:23:42.965Z,,,,1,1.1989130276493527,1.2666195460149832,,,true,ll,5784.2729999999865,response,-1.2033647433750492,1.2,-1.2,-1.0718012192341555,1.2,-1.2,low,low,,ISIC_0031705.JPG,,ISIC_0061606.JPG,288,true,0.40000000000000024,ll,keypress(f),0,false,297397.89999997616,297397.5,291596.655,291812.89999997616,291613.227,297190.669,1,40,14,
sequence,flow.Sequence,6_13,2023-11-20T15:23:42.966Z,,,,,,,,,,,5784.2729999999865,completion,,,,,,,low,low,,,,,,true,,,,,false,297398.5,297397.5,291596.655,291812.89999997616,291613.227,297190.669,1,40,,
trial,html.Screen,6_14_0,2023-11-20T15:23:49.495Z,,,,1,-1.082709423673037,-1.1184338818466155,,,true,hh,6735.130999952322,response,1.2246024683501224,1.2,-1.2,1.2904526351590244,1.2,-1.2,high,high,,ISIC_0058666.JPG,,ISIC_4730066.JPG,25,true,0.14,hh,keypress(i),0,false,303926.2999999523,303925.7999999523,297173.937,297398.7000000477,297190.669,303753.451,1,40,15,
sequence,flow.Sequence,6_14,2023-11-20T15:23:49.495Z,,,,,,,,,,,6735.130999952322,completion,,,,,,,high,high,,,,,,true,,,,,false,303926.7999999523,303925.7999999523,297173.937,297398.60000002384,297190.669,303753.451,1,40,,
trial,html.Screen,6_15_0,2023-11-20T15:23:58.718Z,,,,1,1.3046390428588206,-0.7942099232219556,,,true,lh,9396.048999999999,response,-1.168911077628813,1.2,-1.2,1.2181838235193114,1.2,-1.2,low,high,,ISIC_0013096.JPG,,ISIC_7358691.JPG,27,true,0.40000000000000024,lh,keypress(e),0,false,313149.89999997616,313149.5,303703.555,303927,303753.451,312954.852,1,40,16,
sequence,flow.Sequence,6_15,2023-11-20T15:23:58.719Z,,,,,,,,,,,9396.048999999999,completion,,,,,,,low,high,,,,,,true,,,,,false,313150.2999999523,313149.5,303703.555,303927,303753.451,312954.852,1,40,,
trial,html.Screen,6_16_0,2023-11-20T15:24:05.869Z,,,,1,-1.1392972253022884,-1.208510423375335,,,false,hh,7345.748000023828,response,0.8063086831157171,1.2,-1.2,0.7804750549895122,1.2,-1.2,high,high,,ISIC_0046526.JPG,,ISIC_0002899.JPG,265,true,0.4500000000000003,hl,keypress(j),0,false,320300.7000000477,320300.60000002384,312938.12,313150.7000000477,312954.852,320102.007,1,40,17,
sequence,flow.Sequence,6_16,2023-11-20T15:24:05.869Z,,,,,,,,,,,7345.748000023828,completion,,,,,,,high,high,,,,,,true,,,,,false,320300.89999997616,320300.60000002384,312938.12,313150.5,312954.852,320102.007,1,40,,
trial,html.Screen,6_17_0,2023-11-20T15:24:14.510Z,,,,1,-1.136677654701082,-1.2647850993872314,,,true,hh,8839.392999976175,response,1.151139267005652,1.2,-1.2,1.0838749490501327,1.2,-1.2,high,high,,ISIC_0015436.JPG,,ISIC_0002566.JPG,25,true,0.14,hh,keypress(i),0,false,328941.7999999523,328941.39999997616,320085.341,320300.89999997616,320102.007,328802.186,1,40,18,
sequence,flow.Sequence,6_17,2023-11-20T15:24:14.511Z,,,,,,,,,,,8839.392999976175,completion,,,,,,,high,high,,,,,,true,,,,,false,328942.39999997616,328941.39999997616,320085.341,320300.89999997616,320102.007,328802.186,1,40,,
trial,html.Screen,6_18_0,2023-11-20T15:24:22.479Z,,,,1,1.199471562817528,-0.8631260534979347,,,true,lh,8107.713999976171,response,-0.9633172970727744,1.2,-1.2,0.8472659344792351,1.2,-1.2,low,high,,ISIC_0030754.JPG,,ISIC_0067172.JPG,27,true,0.40000000000000024,lh,keypress(e),0,false,336910.2999999523,336909.89999997616,328718.778,328942.7000000477,328802.186,336700.991,1,40,19,
sequence,flow.Sequence,6_18,2023-11-20T15:24:22.479Z,,,,,,,,,,,8107.713999976171,completion,,,,,,,low,high,,,,,,true,,,,,false,336910.7000000477,336909.89999997616,328718.778,328942.60000002384,328802.186,336700.991,1,40,,
trial,html.Screen,6_19_0,2023-11-20T15:24:29.021Z,,,,1,1.2724293858920366,1.149360738769835,,,true,ll,6751.209000047704,response,-1.3307612087763094,1.2,-1.2,-1.075775252699004,1.2,-1.2,low,low,,ISIC_1264725.JPG,,ISIC_0063601.JPG,359,true,0.4500000000000003,ll,keypress(f),0,false,343452.2999999523,343452.2000000477,336684.412,336911,336700.991,343280.378,1,40,20,
sequence,flow.Sequence,6_19,2023-11-20T15:24:29.021Z,,,,,,,,,,,6751.209000047704,completion,,,,,,,low,low,,,,,,true,,,,,false,343452.5,343452.2000000477,336684.412,336911,336700.991,343280.378,1,40,,
trial,html.Screen,6_20_0,2023-11-20T15:24:36.589Z,,,,1,1.2362557973341337,-1.2548266183352603,,,true,lh,7739.92199995229,response,-1.0153439398566937,1.2,-1.2,0.93001438372942,1.2,-1.2,low,high,,ISIC_0033886.JPG,,ISIC_8211214.JPG,27,true,0.40000000000000024,lh,keypress(e),0,false,351020.39999997616,351020.2999999523,343230.503,343452.60000002384,343280.378,350811.703,1,40,21,
sequence,flow.Sequence,6_20,2023-11-20T15:24:36.589Z,,,,,,,,,,,7739.92199995229,completion,,,,,,,low,high,,,,,,true,,,,,false,351020.5,351020.2999999523,343230.503,343452.60000002384,343280.378,350811.703,1,40,,
trial,html.Screen,6_21_0,2023-11-20T15:24:42.950Z,,,,1,-1.1302628852630028,-1.288906469447243,,,true,hh,6569.897000023862,response,1.090663233695186,1.2,-1.2,0.832189069975425,1.2,-1.2,high,high,,ISIC_0071050.JPG,,ISIC_0057344.JPG,265,true,0.4500000000000003,hh,keypress(i),0,false,357382,357381.60000002384,350794.963,351020.60000002384,350811.703,357207.504,1,40,22,
sequence,flow.Sequence,6_21,2023-11-20T15:24:42.951Z,,,,,,,,,,,6569.897000023862,completion,,,,,,,high,high,,,,,,true,,,,,false,357382.5,357381.60000002384,350794.963,351020.60000002384,350811.703,357207.504,1,40,,
trial,html.Screen,6_22_0,2023-11-20T15:24:50.848Z,,,,1,-1.168911077628813,1.2181838235193114,,,true,hl,8070.495999999985,response,0.9754077946987664,1.2,-1.2,-1.1821868813141057,1.2,-1.2,high,low,,ISIC_7358691.JPG,,ISIC_0024317.JPG,26,true,0.4500000000000003,hl,keypress(j),0,false,365278.39999997616,365278,357157.413,357382.7999999523,357207.504,365072.817,1,40,23,
sequence,flow.Sequence,6_22,2023-11-20T15:24:50.848Z,,,,,,,,,,,8070.495999999985,completion,,,,,,,high,low,,,,,,true,,,,,false,365279,365278,357157.413,357382.7000000477,357207.504,365072.817,1,40,,
trial,html.Screen,6_23_0,2023-11-20T15:24:57.695Z,,,,1,1.1684835186766898,1.2921331918483707,,,true,ll,7052.783000023861,response,-1.0028306951898116,1.2,-1.2,-0.8421248340065566,1.2,-1.2,low,low,,ISIC_5920470.JPG,,ISIC_0026531.JPG,288,true,0.40000000000000024,ll,keypress(f),0,false,372126,372125.60000002384,365056.053,365279.2000000477,365072.817,371952.866,1,40,24,
sequence,flow.Sequence,6_23,2023-11-20T15:24:57.696Z,,,,,,,,,,,7052.783000023861,completion,,,,,,,low,low,,,,,,true,,,,,false,372126.5,372125.60000002384,365056.053,365279,365072.817,371952.866,1,40,,
trial,html.Screen,6_24_0,2023-11-20T15:25:03.144Z,,,,1,-0.8987343013179191,0.8149073454566363,,,true,hl,5621.033999976178,response,0.8719231363109603,1.2,-1.2,-0.7704280220140033,1.2,-1.2,high,low,,ISIC_0472513.JPG,,ISIC_0029453.JPG,26,true,0.4500000000000003,hl,keypress(j),0,false,377574.2000000477,377573.89999997616,371902.963,372126.7999999523,371952.866,377380.708,1,40,25,
sequence,flow.Sequence,6_24,2023-11-20T15:25:03.144Z,,,,,,,,,,,5621.033999976178,completion,,,,,,,high,low,,,,,,true,,,,,false,377574.7999999523,377573.89999997616,371902.963,372126.7000000477,371952.866,377380.708,1,40,,
trial,html.Screen,6_25_0,2023-11-20T15:25:10.350Z,,,,1,-1.0915173513546716,-1.266840220031473,,,true,hh,7399.591999952332,response,0.9964436233947676,1.2,-1.2,1.4803243069136225,1.2,-1.2,high,high,,ISIC_8241457.JPG,,ISIC_0002878.JPG,203,true,0.40000000000000024,hh,keypress(i),0,false,384780.39999997616,384780.2999999523,377346.89,377575.10000002384,377380.708,384577.439,1,40,26,
sequence,flow.Sequence,6_25,2023-11-20T15:25:10.350Z,,,,,,,,,,,7399.591999952332,completion,,,,,,,high,high,,,,,,true,,,,,false,384780.5,384780.2999999523,377346.89,377575.10000002384,377380.708,384577.439,1,40,,
trial,html.Screen,6_26_0,2023-11-20T15:25:19.744Z,,,,1,1.3379750533585932,1.1671342614509763,,,true,ll,9596.560999999987,response,-1.2014901828022857,1.2,-1.2,-1.1484096197304636,1.2,-1.2,low,low,,ISIC_0063556.JPG,,ISIC_0067808.JPG,30,true,0.13,ll,keypress(f),0,false,394174.2999999523,394174,384560.965,384780.60000002384,384577.439,394012.471,1,40,27,
sequence,flow.Sequence,6_26,2023-11-20T15:25:19.744Z,,,,,,,,,,,9596.560999999987,completion,,,,,,,low,low,,,,,,true,,,,,false,394174.7999999523,394174,384560.965,384780.60000002384,384577.439,394012.471,1,40,,
trial,html.Screen,6_27_0,2023-11-20T15:25:24.815Z,,,,1,0.7518277461369444,-1.3860759020802074,,,true,lh,5233.02899999998,response,-0.9633172970727744,1.2,-1.2,0.8472659344792351,1.2,-1.2,low,high,,ISIC_7967397.JPG,,ISIC_0067172.JPG,27,true,0.40000000000000024,lh,keypress(e),0,false,399245.7999999523,399245.5,393962.424,394175.10000002384,394012.471,399055.629,1,40,28,
sequence,flow.Sequence,6_27,2023-11-20T15:25:24.816Z,,,,,,,,,,,5233.02899999998,completion,,,,,,,low,high,,,,,,true,,,,,false,399246.39999997616,399245.5,393962.424,394175.10000002384,394012.471,399055.629,1,40,,
trial,html.Screen,6_28_0,2023-11-20T15:25:30.550Z,,,,1,-0.8307508446051526,1.1707575338936729,,,true,hl,5924.870999999985,response,1.2362557973341337,1.2,-1.2,-1.2548266183352603,1.2,-1.2,high,low,,ISIC_0028606.JPG,,ISIC_0033886.JPG,26,true,0.4500000000000003,hl,keypress(j),0,false,404980.60000002384,404980.5,399022.432,399246.7000000477,399055.629,404783.438,1,40,29,
sequence,flow.Sequence,6_28,2023-11-20T15:25:30.550Z,,,,,,,,,,,5924.870999999985,completion,,,,,,,high,low,,,,,,true,,,,,false,404980.7999999523,404980.5,399022.432,399246.60000002384,399055.629,404783.438,1,40,,
trial,html.Screen,6_29_0,2023-11-20T15:25:37.663Z,,,,1,-1.0116417541846066,1.033442916947398,,,true,hl,7310.061999999976,response,1.058275612142778,1.2,-1.2,-0.7824898568540655,1.2,-1.2,high,low,,ISIC_0031389.JPG,,ISIC_4906385.JPG,26,true,0.4500000000000003,hl,keypress(j),0,false,412093.7999999523,412093.5,404766.944,404980.7999999523,404783.438,411897.494,1,40,30,
sequence,flow.Sequence,6_29,2023-11-20T15:25:37.664Z,,,,,,,,,,,7310.061999999976,completion,,,,,,,high,low,,,,,,true,,,,,false,412094.2999999523,412093.5,404766.944,404980.7999999523,404783.438,411897.494,1,40,,
trial,html.Screen,6_30_0,2023-11-20T15:25:43.120Z,,,,1,-1.1936751736668425,-1.2584308630745344,,,true,hh,5652.505999999994,response,0.8336927721396412,1.2,-1.2,1.1363137800725187,1.2,-1.2,high,high,,ISIC_0061265.JPG,,ISIC_0553565.JPG,203,true,0.40000000000000024,hh,keypress(i),0,false,417550.2999999523,417550,411880.83,412094.60000002384,411897.494,417374.62,1,40,31,
sequence,flow.Sequence,6_30,2023-11-20T15:25:43.120Z,,,,,,,,,,,5652.505999999994,completion,,,,,,,high,high,,,,,,true,,,,,false,417550.89999997616,417550,411880.83,412094.60000002384,411897.494,417374.62,1,40,,
trial,html.Screen,6_31_0,2023-11-20T15:25:48.801Z,,,,1,-0.8544507134472948,0.9244388608707323,,,true,hl,5855.279999976163,response,0.8719231363109603,1.2,-1.2,-0.7704280220140033,1.2,-1.2,high,low,,ISIC_3565564.JPG,,ISIC_0029453.JPG,26,true,0.4500000000000003,hl,keypress(j),0,false,423230.2999999523,423229.89999997616,417324.478,417551.10000002384,417374.62,423035.791,1,40,32,
sequence,flow.Sequence,6_31,2023-11-20T15:25:48.801Z,,,,,,,,,,,5855.279999976163,completion,,,,,,,high,low,,,,,,true,,,,,false,423230.89999997616,423229.89999997616,417324.478,417551,417374.62,423035.791,1,40,,
trial,html.Screen,6_32_0,2023-11-20T15:25:55.281Z,,,,1,1.2946277435220357,1.255157480204324,,,true,ll,6674.2089999999735,response,-0.9737567085091248,1.2,-1.2,-0.9013996680304692,1.2,-1.2,low,low,,ISIC_1870309.JPG,,ISIC_2483825.JPG,288,true,0.40000000000000024,ll,keypress(f),0,false,429710.39999997616,429710,423018.928,423231.2000000477,423035.791,429515.014,1,40,33,
sequence,flow.Sequence,6_32,2023-11-20T15:25:55.282Z,,,,,,,,,,,6674.2089999999735,completion,,,,,,,low,low,,,,,,true,,,,,false,429710.89999997616,429710,423018.928,423231.10000002384,423035.791,429515.014,1,40,,
trial,html.Screen,6_33_0,2023-11-20T15:26:01.785Z,,,,1,1.2804054832904397,1.171271535505083,,,true,ll,6698.686000047659,response,-1.0605529903237636,1.2,-1.2,-1.1183115777058938,1.2,-1.2,low,low,,ISIC_7889838.JPG,,ISIC_0011365.JPG,40,true,0.14,ll,keypress(f),0,false,436214,436213.7000000477,429498.344,429711.2000000477,429515.014,436010.904,1,40,34,
sequence,flow.Sequence,6_33,2023-11-20T15:26:01.785Z,,,,,,,,,,,6698.686000047659,completion,,,,,,,low,low,,,,,,true,,,,,false,436214.60000002384,436213.7000000477,429498.344,429711.2000000477,429515.014,436010.904,1,40,,
trial,html.Screen,6_34_0,2023-11-20T15:26:06.393Z,,,,1,1.3246728710248594,1.1527736000922424,,,true,ll,4811.09600000002,response,-1.0769708994456726,1.2,-1.2,-1.2196503533725178,1.2,-1.2,low,low,,ISIC_6876281.JPG,,ISIC_0063824.JPG,40,true,0.14,ll,keypress(f),0,false,440822.39999997616,440822,435994.372,436214.89999997616,436010.904,440619.877,1,40,35,
sequence,flow.Sequence,6_34,2023-11-20T15:26:06.393Z,,,,,,,,,,,4811.09600000002,completion,,,,,,,low,low,,,,,,true,,,,,false,440822.89999997616,440822,435994.372,436214.7999999523,436010.904,440619.877,1,40,,
trial,html.Screen,6_35_0,2023-11-20T15:26:10.984Z,,,,1,1.1684835186766898,1.2921331918483707,,,true,ll,4793.52299997618,response,-1.071085024260525,1.2,-1.2,-1.3393124611420348,1.2,-1.2,low,low,,ISIC_5920470.JPG,,ISIC_0072496.JPG,40,true,0.14,ll,keypress(f),0,false,445413.7999999523,445413.39999997616,440603.349,440823.2000000477,440619.877,445212.227,1,40,36,
sequence,flow.Sequence,6_35,2023-11-20T15:26:10.985Z,,,,,,,,,,,4793.52299997618,completion,,,,,,,low,low,,,,,,true,,,,,false,445414.2999999523,445413.39999997616,440603.349,440823.10000002384,440619.877,445212.227,1,40,,
trial,html.Screen,6_36_0,2023-11-20T15:26:16.112Z,,,,1,-1.0769708994456726,-1.2196503533725178,,,true,hh,5328.572999952303,response,1.077278111180185,1.2,-1.2,1.1530533996184025,1.2,-1.2,high,high,,ISIC_0063824.JPG,,ISIC_9525136.JPG,25,true,0.14,hh,keypress(i),0,false,450541,450540.7999999523,445195.402,445414.60000002384,445212.227,450372.141,1,40,37,
sequence,flow.Sequence,6_36,2023-11-20T15:26:16.112Z,,,,,,,,,,,5328.572999952303,completion,,,,,,,high,high,,,,,,true,,,,,false,450541.2000000477,450540.7999999523,445195.402,445414.5,445212.227,450372.141,1,40,,
trial,html.Screen,6_37_0,2023-11-20T15:26:22.305Z,,,,1,1.2362557973341337,-1.2548266183352603,,,true,lh,6361.758999976155,response,-0.8500530224490773,1.2,-1.2,1.0893360711742854,1.2,-1.2,low,high,,ISIC_0033886.JPG,,ISIC_2998367.JPG,27,true,0.40000000000000024,lh,keypress(e),0,false,456734.2000000477,456733.89999997616,450322.218,450541.2999999523,450372.141,456550.881,1,40,38,
sequence,flow.Sequence,6_37,2023-11-20T15:26:22.305Z,,,,,,,,,,,6361.758999976155,completion,,,,,,,low,high,,,,,,true,,,,,false,456734.7000000477,456733.89999997616,450322.218,450541.2000000477,450372.141,456550.881,1,40,,
trial,html.Screen,6_38_0,2023-11-20T15:26:26.449Z,,,,1,0.8926515927689261,-0.7935960767768927,,,true,lh,4327.119000000006,response,-1.0116417541846066,1.2,-1.2,1.033442916947398,1.2,-1.2,low,high,,ISIC_8901371.JPG,,ISIC_0031389.JPG,40,true,0.4500000000000003,lh,keypress(e),0,false,460878.2999999523,460878,456517.65,456734.89999997616,456550.881,460675.574,1,40,39,
sequence,flow.Sequence,6_38,2023-11-20T15:26:26.449Z,,,,,,,,,,,4327.119000000006,completion,,,,,,,low,high,,,,,,true,,,,,false,460878.7999999523,460878,456517.65,456734.89999997616,456550.881,460675.574,1,40,,
trial,html.Screen,6_39_0,2023-11-20T15:26:31.457Z,,,,1,1.3379750533585932,1.1671342614509763,,,true,ll,5210.225999952294,response,-1.3876053446140826,1.2,-1.2,-1.003456017014458,1.2,-1.2,low,low,,ISIC_0063556.JPG,,ISIC_0031795.JPG,359,true,0.4500000000000003,ll,keypress(f),0,false,465886.10000002384,465885.7999999523,460659.082,460879,460675.574,465685.326,1,40,40,
sequence,flow.Sequence,6_39,2023-11-20T15:26:31.457Z,,,,,,,,,,,5210.225999952294,completion,,,,,,,low,low,,,,,,true,,,,,false,465886.60000002384,465885.7999999523,460659.082,460878.89999997616,460675.574,465685.326,1,40,,
practice_loop,flow.Loop,6,2023-11-20T15:26:31.458Z,,,,,,,,,,,269073.8139999523,completion,,,,,,,,,,,,,,true,,,,,false,465886.89999997616,465885.7999999523,196795.235,197020,196811.986,465685.326,1,40,,
stair_instructions,html.Screen,7,2023-11-20T15:26:37.215Z,,,,,,,,,,,5958.673999999999,response,,,,,,,,,,,,,,,,continue,click button,,,471644.5,471644,465668.582,465887.10000002384,465685.326,471463.242,,,,
trial,html.Screen,8_0_0,2023-11-20T15:26:46.706Z,,,,2,0.0118382036798625,0.0300588245877227,,0.04,true,lh,9670.65799997613,response,-0.8350129142228142,1.2,-1.2,0.8172547818270586,1.2,-1.2,low,high,,ISIC_4748605.JPG,,ISIC_0301568.JPG,27,false,0.40000000000000024,lh,keypress(e),0,true,481134,481133.89999997616,471430.037,471644.7000000477,471463.242,480931.735,1,40,1,
sequence,flow.Sequence,8_0,2023-11-20T15:26:46.706Z,,,,,,,,,,,9670.65799997613,completion,,,,,,,low,high,,,,,,false,,,,,true,481134.2000000477,481133.89999997616,471430.037,471644.7000000477,471463.242,480931.735,1,40,,
trial,html.Screen,8_1_0,2023-11-20T15:26:52.856Z,,,,2,-0.0198696495649504,0.0387952353063878,,0.04,true,ll,6352.265000000014,response,-1.0679712388489528,1.15,-1.15,-1.0509600192807842,1.15,-1.15,low,low,,ISIC_6735970.JPG,,ISIC_0015180.JPG,27,false,0.1,ll,keypress(f),0,true,487284.10000002384,487284,480915.018,481134.2000000477,480931.735,487093.684,1,40,2,
sequence,flow.Sequence,8_1,2023-11-20T15:26:52.856Z,,,,,,,,,,,6352.265000000014,completion,,,,,,,low,low,,,,,,false,,,,,true,487284.2000000477,487284,480915.018,481134.2000000477,480931.735,487093.684,1,40,,
trial,html.Screen,8_2_0,2023-11-20T15:27:01.341Z,,,,2,0.0258224118104549,-0.0029364553353019,,0.04,true,lh,8675.416000023833,response,-0.8867328775712738,1.15,-1.0094656290648685,1.0063426986460375,1.15,-1.15,low,high,,ISIC_8325226.JPG,,ISIC_0055759.JPG,25,false,0.30000000000000016,lh,keypress(e),0,true,495769.2000000477,495769.10000002384,487060.228,487284.2999999523,487093.684,495560.15,1,40,3,
sequence,flow.Sequence,8_2,2023-11-20T15:27:01.341Z,,,,,,,,,,,8675.416000023833,completion,,,,,,,low,high,,,,,,false,,,,,true,495769.39999997616,495769.10000002384,487060.228,487284.2999999523,487093.684,495560.15,1,40,,
trial,html.Screen,8_3_0,2023-11-20T15:27:05.520Z,,,,2,0.0119001144851157,-0.0063430114540141,,0.04,true,hh,4387.849999999977,response,1.1072126870290426,1.15,-1.0094656290648685,0.9917482735105084,1.0999999999999999,-1.15,high,high,,ISIC_0003822.JPG,,ISIC_0071754.JPG,27,false,0.13,hh,keypress(i),0,true,499948.2000000477,499948,495543.357,495769.39999997616,495560.15,499751.724,1,40,4,
sequence,flow.Sequence,8_3,2023-11-20T15:27:05.520Z,,,,,,,,,,,4387.849999999977,completion,,,,,,,high,high,,,,,,false,,,,,true,499948.39999997616,499948,495543.357,495769.39999997616,495560.15,499751.724,1,40,,
trial,html.Screen,8_4_0,2023-11-20T15:27:11.131Z,,,,2,0.0308384937406319,-0.0038396364323947,,0.04,true,hh,5807.276000000013,response,1.274417010249866,1.15,-1.0094656290648685,1.0725495669014795,1.0999999999999999,-1.15,high,high,,ISIC_0029825.JPG,,ISIC_8849004.JPG,27,false,0.13,hh,keypress(i),0,true,505559.10000002384,505559,499735.158,499948.39999997616,499751.724,505362.569,1,40,5,
sequence,flow.Sequence,8_4,2023-11-20T15:27:11.131Z,,,,,,,,,,,5807.276000000013,completion,,,,,,,high,high,,,,,,false,,,,,true,505559.2000000477,505559,499735.158,499948.39999997616,499751.724,505362.569,1,40,,
trial,html.Screen,8_5_0,2023-11-20T15:27:15.768Z,,,,2,-0.0164027439304477,0.0082910758715273,,0.04,true,lh,4833.730999952299,response,-0.9089402323867112,0.9821489202059939,-1.0094656290648685,0.8034544077281132,0.9821489202059939,-1.15,low,high,,ISIC_7381224.JPG,,ISIC_3585381.JPG,25,false,0.22000000000000008,lh,keypress(e),0,true,510196.5,510196.2999999523,505346.078,505559.2999999523,505362.569,509988.232,1,40,6,
sequence,flow.Sequence,8_5,2023-11-20T15:27:15.768Z,,,,,,,,,,,4833.730999952299,completion,,,,,,,low,high,,,,,,false,,,,,true,510196.60000002384,510196.2999999523,505346.078,505559.2999999523,505362.569,509988.232,1,40,,
trial,html.Screen,8_6_0,2023-11-20T15:27:20.696Z,,,,2,0.0367744112927588,0.0324865661712824,,0.04,true,hl,5135.968000047666,response,0.9653573371180936,0.9821489202059939,-0.9594656290648684,-0.854766800381037,0.9821489202059939,-1.15,high,low,,ISIC_4523565.JPG,,ISIC_9640145.JPG,26,false,0.3200000000000002,hl,keypress(j),0,true,515124.2000000477,515124.2000000477,509971.745,510196.7000000477,509988.232,514914.486,1,40,7,
sequence,flow.Sequence,8_6,2023-11-20T15:27:20.696Z,,,,,,,,,,,5135.968000047666,completion,,,,,,,high,low,,,,,,false,,,,,true,515124.39999997616,515124.2000000477,509971.745,510196.7000000477,509988.232,514914.486,1,40,,
trial,html.Screen,8_7_0,2023-11-20T15:27:25.296Z,,,,2,-0.0241900387072296,0.0339955304424736,,0.04,true,ll,4809.913999976183,response,-0.9912923619519602,0.9821489202059939,-0.9594656290648684,-1.1419452407123123,0.9821489202059939,-1.0999999999999999,low,low,,ISIC_0010789.JPG,,ISIC_0064863.JPG,36,false,0.1,ll,keypress(f),0,true,519724.5,519724.39999997616,514897.939,515124.5,514914.486,519523.641,1,40,8,
sequence,flow.Sequence,8_7,2023-11-20T15:27:25.296Z,,,,,,,,,,,4809.913999976183,completion,,,,,,,low,low,,,,,,false,,,,,true,519724.60000002384,519724.39999997616,514897.939,515124.5,514914.486,519523.641,1,40,,
trial,html.Screen,8_8_0,2023-11-20T15:27:33.648Z,,,,2,0,-0.0102871556606504,,0.04,true,hh,8552.959000023839,response,1.0040510013663018,0.9821489202059939,-0.9594656290648684,0.9707475308236284,0.9821489202059939,-1.0999999999999999,high,high,,ISIC_1805163.JPG,,ISIC_0026911.JPG,34,false,0.11,hh,keypress(i),0,true,528076.7000000477,528076.6000000238,519506.848,519724.7000000477,519523.641,527873.041,1,40,9,
sequence,flow.Sequence,8_8,2023-11-20T15:27:33.649Z,,,,,,,,,,,8552.959000023839,completion,,,,,,,high,high,,,,,,false,,,,,true,528076.7999999523,528076.6000000238,519506.848,519724.7000000477,519523.641,527873.041,1,40,,
trial,html.Screen,8_9_0,2023-11-20T15:27:40.936Z,,,,2,-0.0388334549081915,0.0303399972963369,,0.04,true,hh,7490.959000000032,response,0.8764429645297487,0.9321489202059938,-0.9594656290648684,0.9319282086996942,0.9321489202059938,-1.0999999999999999,high,high,,ISIC_4961708.JPG,,ISIC_9538004.JPG,37,false,0.1,hh,keypress(i),0,true,535364,535364,527856.493,528076.8999999762,527873.041,535153.884,1,40,10,
sequence,flow.Sequence,8_9,2023-11-20T15:27:40.936Z,,,,,,,,,,,7490.959000000032,completion,,,,,,,high,high,,,,,,false,,,,,true,535364.2000000477,535364,527856.493,528076.7999999523,527873.041,535153.884,1,40,,
trial,html.Screen,8_10_0,2023-11-20T15:27:45.408Z,,,,2,0.0044063257337227,0.0172548282859886,,0.04,true,ll,4681.616000000038,response,-0.9077872390456172,0.9321489202059938,-0.9594656290648684,-1.1960893075698802,0.9321489202059938,-1.0999999999999999,low,low,,ISIC_7413786.JPG,,ISIC_0072393.JPG,36,false,0.1,ll,keypress(f),0,true,539835.6000000238,539835.5,535137.371,535364.2999999523,535153.884,539629.237,1,40,11,
sequence,flow.Sequence,8_10,2023-11-20T15:27:45.409Z,,,,,,,,,,,4681.616000000038,completion,,,,,,,low,low,,,,,,false,,,,,true,539835.7000000477,539835.5,535137.371,535364.2999999523,535153.884,539629.237,1,40,,
trial,html.Screen,8_11_0,2023-11-20T15:27:51.980Z,,,,2,0.0119001144851157,-0.0063430114540141,,0.04,true,hl,6777.763000000035,response,0.8034318937720549,0.9321489202059938,-0.9094656290648684,-1.0024917298189338,0.9321489202059938,-1.0499999999999998,high,low,,ISIC_0003822.JPG,,ISIC_0032766.JPG,26,false,0.2600000000000001,hl,keypress(j),0,true,546407.1000000238,546407,539612.782,539835.7999999523,539629.237,546208.853,1,40,12,
sequence,flow.Sequence,8_11,2023-11-20T15:27:51.980Z,,,,,,,,,,,6777.763000000035,completion,,,,,,,high,low,,,,,,false,,,,,true,546407.2999999523,546407,539612.782,539835.7999999523,539629.237,546208.853,1,40,,
trial,html.Screen,8_12_0,2023-11-20T15:27:56.473Z,,,,2,0.0283578106329894,-0.0088840758711548,,0.04,true,hh,4691.347000047681,response,0.8583713655302294,0.8821489202059938,-0.9094656290648684,0.865522810053245,0.9321489202059938,-1.0499999999999998,high,high,,ISIC_0060707.JPG,,ISIC_4320200.JPG,41,false,0.1,hh,keypress(i),0,true,550900.2999999523,550900.2000000477,546192.178,546407.2999999523,546208.853,550700.789,1,40,13,
sequence,flow.Sequence,8_12,2023-11-20T15:27:56.473Z,,,,,,,,,,,4691.347000047681,completion,,,,,,,high,high,,,,,,false,,,,,true,550900.3999999762,550900.2000000477,546192.178,546407.2999999523,546208.853,550700.789,1,40,,
trial,html.Screen,8_13_0,2023-11-20T15:28:03.672Z,,,,2,-0.001445457736793,-0.0165307427449982,,0.04,true,hl,7398.5109999523265,response,0.8034318937720549,0.8821489202059938,-0.9094656290648684,-1.0024917298189338,0.8119470877917372,-1.0499999999999998,high,low,,ISIC_0027350.JPG,,ISIC_0032766.JPG,25,false,0.2300000000000001,hl,keypress(j),0,true,558099.3999999762,558099.2999999523,550684.244,550900.5,550700.789,557898.22,1,40,14,
sequence,flow.Sequence,8_13,2023-11-20T15:28:03.672Z,,,,,,,,,,,7398.5109999523265,completion,,,,,,,high,low,,,,,,false,,,,,true,558099.5,558099.2999999523,550684.244,550900.3999999762,550700.789,557898.22,1,40,,
trial,html.Screen,8_14_0,2023-11-20T15:28:07.273Z,,,,2,0,-0.0102871556606504,,0.04,true,ll,3801.4800000477117,response,-0.9766645409582418,0.8321489202059937,-0.9094656290648684,-1.086167902767275,0.8119470877917372,-0.9999999999999998,low,low,,ISIC_1805163.JPG,,ISIC_0011526.JPG,40,false,0.1,ll,keypress(f),0,true,561699.7999999523,561699.7000000477,557881.616,558099.6000000238,557898.22,561505.682,1,40,15,
sequence,flow.Sequence,8_14,2023-11-20T15:28:07.273Z,,,,,,,,,,,3801.4800000477117,completion,,,,,,,low,low,,,,,,false,,,,,true,561699.8999999762,561699.7000000477,557881.616,558099.5,557898.22,561505.682,1,40,,
trial,html.Screen,8_15_0,2023-11-20T15:28:11.313Z,,,,2,-0.039520186367207,-0.0377961575607372,,0.04,true,lh,4234.217999976128,response,-0.8140398867745896,0.8321489202059937,-0.9094656290648684,0.6934224282808171,0.8119470877917372,-0.9999999999999998,low,high,,ISIC_6356149.JPG,,ISIC_7196249.JPG,27,false,0.15000000000000002,lh,keypress(e),0,true,565740,565739.8999999762,561471.808,561699.8999999762,561505.682,565529.672,1,40,16,
sequence,flow.Sequence,8_15,2023-11-20T15:28:11.313Z,,,,,,,,,,,4234.217999976128,completion,,,,,,,low,high,,,,,,false,,,,,true,565740.2000000477,565739.8999999762,561471.808,561699.8999999762,561505.682,565529.672,1,40,,
trial,html.Screen,8_16_0,2023-11-20T15:28:14.278Z,,,,2,0,-0.0102871556606504,,0.04,true,lh,3175.4280000238214,response,-0.7629099401226335,0.8321489202059937,-0.8594656290648683,0.8515956627075536,0.8119470877917372,-0.9999999999999998,low,high,,ISIC_1805163.JPG,,ISIC_0028718.JPG,25,false,0.12,lh,keypress(e),0,true,568705.2999999523,568705.1000000238,565513.124,565740.2000000477,565529.672,568502.14,1,40,17,
sequence,flow.Sequence,8_16,2023-11-20T15:28:14.278Z,,,,,,,,,,,3175.4280000238214,completion,,,,,,,low,high,,,,,,false,,,,,true,568705.3999999762,568705.1000000238,565513.124,565740.2000000477,565529.672,568502.14,1,40,,
trial,html.Screen,8_17_0,2023-11-20T15:28:18.897Z,,,,2,0.0257631352671967,0.0202837002774028,,0.04,true,ll,4822.159999952302,response,-0.7662862143930451,0.8321489202059937,-0.8594656290648683,-1.019400538053967,0.7619470877917371,-0.9999999999999998,low,low,,ISIC_0032797.JPG,,ISIC_5602826.JPG,37,false,0.1,ll,keypress(f),0,true,573324.3999999762,573324.2999999523,568485.62,568705.3999999762,568502.14,573127.989,1,40,18,
sequence,flow.Sequence,8_17,2023-11-20T15:28:18.897Z,,,,,,,,,,,4822.159999952302,completion,,,,,,,low,low,,,,,,false,,,,,true,573324.5,573324.2999999523,568485.62,568705.3999999762,568502.14,573127.989,1,40,,
trial,html.Screen,8_18_0,2023-11-20T15:28:24.329Z,,,,2,0.0283578106329894,-0.0088840758711548,,0.04,true,hl,5628.011000000057,response,0.930804711032185,0.8321489202059937,-0.8411552390883001,-0.7294067991476295,0.7619470877917371,-0.8411552390883001,high,low,,ISIC_0060707.JPG,,ISIC_5067317.JPG,25,false,0.15000000000000002,hl,keypress(j),0,true,578756.1000000238,578756,573111.328,573324.6000000238,573127.989,578554.983,1,40,19,
sequence,flow.Sequence,8_18,2023-11-20T15:28:24.329Z,,,,,,,,,,,5628.011000000057,completion,,,,,,,high,low,,,,,,false,,,,,true,578756.2999999523,578756,573111.328,573324.6000000238,573127.989,578554.983,1,40,,
trial,html.Screen,8_19_0,2023-11-20T15:28:30.302Z,,,,2,0.0367744112927588,0.0324865661712824,,0.04,true,hl,6174.117000023834,response,0.9237241143561707,0.8321489202059937,-0.8411552390883001,-0.7102087839245512,0.7619470877917371,-0.8411552390883001,high,low,,ISIC_4523565.JPG,,ISIC_0058661.JPG,25,false,0.15000000000000002,hl,keypress(j),0,true,584729.2000000477,584729.1000000238,578538.404,578756.2999999523,578554.983,584533.521,1,40,20,
sequence,flow.Sequence,8_19,2023-11-20T15:28:30.302Z,,,,,,,,,,,6174.117000023834,completion,,,,,,,high,low,,,,,,false,,,,,true,584729.2999999523,584729.1000000238,578538.404,578756.2999999523,578554.983,584533.521,1,40,,
trial,html.Screen,8_20_0,2023-11-20T15:28:34.513Z,,,,2,0.0283578106329894,-0.0088840758711548,,0.04,true,lh,4406.278999952367,response,-0.7723423895392068,0.7821489202059937,-0.8411552390883001,0.7630051745722757,0.7619470877917371,-0.6698077915360903,low,high,,ISIC_0060707.JPG,,ISIC_9694911.JPG,27,false,0.12,lh,keypress(e),0,true,588939.8999999762,588939.7999999523,584516.785,584729.2999999523,584533.521,588741.615,1,40,21,
sequence,flow.Sequence,8_20,2023-11-20T15:28:34.513Z,,,,,,,,,,,4406.278999952367,completion,,,,,,,low,high,,,,,,false,,,,,true,588940,588939.7999999523,584516.785,584729.2999999523,584533.521,588741.615,1,40,,
trial,html.Screen,8_21_0,2023-11-20T15:28:37.539Z,,,,2,-0.0388181790775959,0.0049623405709465,,0.04,true,ll,3224.485000023851,response,-0.8391777575366977,0.7821489202059937,-0.8411552390883001,-0.7621432835508051,0.7619470877917371,-0.6698077915360903,low,low,,ISIC_0061880.JPG,,ISIC_0001138.JPG,57,false,0.1,ll,keypress(f),0,true,591966.5,591966.1000000238,588724.908,588940.1000000238,588741.615,591764.135,1,40,22,
sequence,flow.Sequence,8_21,2023-11-20T15:28:37.540Z,,,,,,,,,,,3224.485000023851,completion,,,,,,,low,low,,,,,,false,,,,,true,591967,591966.1000000238,588724.908,588940.1000000238,588741.615,591764.135,1,40,,
trial,html.Screen,8_22_0,2023-11-20T15:28:41.449Z,,,,2,-0.039520186367207,-0.0377961575607372,,0.04,true,hh,4112.164999952307,response,0.743526318836828,0.7821489202059937,-0.7506605205437513,0.8301584799838516,0.7619470877917371,-0.6698077915360903,high,high,,ISIC_6356149.JPG,,ISIC_0063745.JPG,62,false,0.1,hh,keypress(i),0,true,595876.3999999762,595876.2999999523,591747.582,591967.2999999523,591764.135,595671.714,1,40,23,
sequence,flow.Sequence,8_22,2023-11-20T15:28:41.449Z,,,,,,,,,,,4112.164999952307,completion,,,,,,,high,high,,,,,,false,,,,,true,595876.5,595876.2999999523,591747.582,591967.2000000477,591764.135,595671.714,1,40,,
trial,html.Screen,8_23_0,2023-11-20T15:28:44.340Z,,,,2,-0.0065172941585523,0.0118857043117315,,0.04,true,lh,3095.2859999999637,response,-0.8140398867745896,0.7821489202059937,-0.7506605205437513,0.6934224282808171,0.7368423994103397,-0.6698077915360903,low,high,,ISIC_6119202.JPG,,ISIC_7196249.JPG,29,false,0.11,lh,keypress(e),0,true,598767.1000000238,598767,595655.085,595876.6000000238,595671.714,598560.634,1,40,24,
sequence,flow.Sequence,8_23,2023-11-20T15:28:44.340Z,,,,,,,,,,,3095.2859999999637,completion,,,,,,,low,high,,,,,,false,,,,,true,598767.2999999523,598767,595655.085,595876.6000000238,595671.714,598560.634,1,40,,
trial,html.Screen,8_24_0,2023-11-20T15:28:47.204Z,,,,2,0.0367744112927588,0.0324865661712824,,0.04,true,hl,3069.566000047722,response,0.8493817247965978,0.7821489202059937,-0.7506605205437513,-0.6545324227286122,0.7368423994103397,-0.6698077915360903,high,low,,ISIC_4523565.JPG,,ISIC_0030219.JPG,27,false,0.11,hl,keypress(j),0,true,601630.5,601630.2000000477,598544.148,598767.3999999762,598560.634,601432.968,1,40,25,
sequence,flow.Sequence,8_24,2023-11-20T15:28:47.205Z,,,,,,,,,,,3069.566000047722,completion,,,,,,,high,low,,,,,,false,,,,,true,601631,601630.2000000477,598544.148,598767.2999999523,598560.634,601432.968,1,40,,
trial,html.Screen,8_25_0,2023-11-20T15:28:49.820Z,,,,2,0,-0.0102871556606504,,0.04,true,lh,2813.2320000476902,response,-0.7552468233268477,0.7321489202059936,-0.7506605205437513,0.71846037114465,0.7368423994103397,-0.6198077915360902,low,high,,ISIC_1805163.JPG,,ISIC_2354070.JPG,29,false,0.11,lh,keypress(e),0,true,604246.5,604246.2000000477,601416.36,601631.3999999762,601432.968,604038.016,1,40,26,
sequence,flow.Sequence,8_25,2023-11-20T15:28:49.821Z,,,,,,,,,,,2813.2320000476902,completion,,,,,,,low,high,,,,,,false,,,,,true,604247,604246.2000000477,601416.36,601631.2999999523,601432.968,604038.016,1,40,,
trial,html.Screen,8_26_0,2023-11-20T15:28:52.282Z,,,,2,0.0220026381002083,-0.0170756452911772,,0.04,true,ll,2669.7839999523712,response,-0.7435719237873207,0.7321489202059936,-0.7006605205437513,-0.5307162649471893,0.6559413997127335,-0.6198077915360902,low,low,,ISIC_5347806.JPG,,ISIC_7662910.JPG,82,false,0.1,ll,keypress(f),0,true,606707.8999999762,606707.7999999523,604021.366,604247.2999999523,604038.016,606509.485,1,40,27,
sequence,flow.Sequence,8_26,2023-11-20T15:28:52.282Z,,,,,,,,,,,2669.7839999523712,completion,,,,,,,low,low,,,,,,false,,,,,true,606708,606707.7999999523,604021.366,604247.2999999523,604038.016,606509.485,1,40,,
trial,html.Screen,8_27_0,2023-11-20T15:28:56.744Z,,,,2,0.0283578106329894,-0.0088840758711548,,0.04,true,hl,4660.414999976172,response,0.7562386247229099,0.7321489202059936,-0.7006605205437513,-0.563245524660834,0.6559413997127335,-0.6198077915360902,high,low,,ISIC_0060707.JPG,,ISIC_6990973.JPG,32,false,0.1,hl,keypress(j),0,true,611170.1000000238,611169.8999999762,606492.894,606708.1000000238,606509.485,610968.13,1,40,28,
sequence,flow.Sequence,8_27,2023-11-20T15:28:56.744Z,,,,,,,,,,,4660.414999976172,completion,,,,,,,high,low,,,,,,false,,,,,true,611170.5,611169.8999999762,606492.894,606708.1000000238,606509.485,610968.13,1,40,,
trial,html.Screen,8_28_0,2023-11-20T15:28:59.635Z,,,,2,0.0258224118104549,-0.0029364553353019,,0.04,true,hh,3092.3699999999953,response,0.8171240459591881,0.7321489202059936,-0.7006605205437513,0.5751386678428082,0.6559413997127335,-0.5698077915360902,high,high,,ISIC_8325226.JPG,,ISIC_0183290.JPG,83,false,0.1,hh,keypress(i),0,true,614060.6000000238,614060.5,610951.484,611170.6000000238,610968.13,613857.049,1,40,29,
sequence,flow.Sequence,8_28,2023-11-20T15:28:59.635Z,,,,,,,,,,,3092.3699999999953,completion,,,,,,,high,high,,,,,,false,,,,,true,614060.7000000477,614060.5,610951.484,611170.6000000238,610968.13,613857.049,1,40,,
trial,html.Screen,8_29_0,2023-11-20T15:29:03.022Z,,,,2,0.0283578106329894,-0.0088840758711548,,0.04,true,hl,3590.551000023843,response,0.688327585680165,0.6461313569009981,-0.7006605205437513,-0.5182616366465241,0.6559413997127335,-0.5698077915360902,high,low,,ISIC_0060707.JPG,,ISIC_7824688.JPG,40,false,0.1,hl,keypress(j),0,true,617447.7000000477,617447.6000000238,613840.584,614060.7999999523,613857.049,617247.084,1,40,30,
sequence,flow.Sequence,8_29,2023-11-20T15:29:03.022Z,,,,,,,,,,,3590.551000023843,completion,,,,,,,high,low,,,,,,false,,,,,true,617447.7999999523,617447.6000000238,613840.584,614060.7999999523,613857.049,617247.084,1,40,,
trial,html.Screen,8_30_0,2023-11-20T15:29:06.979Z,,,,2,0.0283578106329894,-0.0088840758711548,,0.04,true,hl,4157.415999999968,response,0.5588979658648439,0.6461313569009981,-0.7006605205437513,-0.6427302891118192,0.6559413997127335,-0.5698077915360902,high,low,,ISIC_0060707.JPG,,ISIC_3597812.JPG,40,false,0.1,hl,keypress(j),0,true,621404.6000000238,621404.5,617230.389,617447.8999999762,617247.084,621204.892,1,40,31,
sequence,flow.Sequence,8_30,2023-11-20T15:29:06.979Z,,,,,,,,,,,4157.415999999968,completion,,,,,,,high,low,,,,,,false,,,,,true,621404.7000000477,621404.5,617230.389,617447.8999999762,617247.084,621204.892,1,40,,
trial,html.Screen,8_31_0,2023-11-20T15:29:09.452Z,,,,2,-0.0164027439304477,0.0082910758715273,,0.04,true,hh,2673.2080000238493,response,0.6190748068479168,0.596131356900998,-0.7006605205437513,0.7094898545347617,0.6559413997127335,-0.5304959628791717,high,high,,ISIC_7381224.JPG,,ISIC_7059794.JPG,95,false,0.1,hh,keypress(i),0,true,623878.3999999762,623878.1000000238,621188.136,621404.7999999523,621204.892,623676.251,1,40,32,
sequence,flow.Sequence,8_31,2023-11-20T15:29:09.453Z,,,,,,,,,,,2673.2080000238493,completion,,,,,,,high,high,,,,,,false,,,,,true,623878.8999999762,623878.1000000238,621188.136,621404.7999999523,621204.892,623676.251,1,40,,
trial,html.Screen,8_32_0,2023-11-20T15:29:14.373Z,,,,2,0,-0.0102871556606504,,0.04,true,hh,5122.648999976111,response,0.5554090679294729,0.596131356900998,-0.7006605205437513,0.5850321630354913,0.6142823306913392,-0.5304959628791717,high,high,,ISIC_1805163.JPG,,ISIC_9354965.JPG,100,false,0.1,hh,keypress(i),0,true,628799.1000000238,628798.8999999762,623659.738,623879.2000000477,623676.251,628602.707,1,40,33,
sequence,flow.Sequence,8_32,2023-11-20T15:29:14.373Z,,,,,,,,,,,5122.648999976111,completion,,,,,,,high,high,,,,,,false,,,,,true,628799.2000000477,628798.8999999762,623659.738,623879.2000000477,623676.251,628602.707,1,40,,
trial,html.Screen,8_33_0,2023-11-20T15:29:17.090Z,,,,2,-0.001445457736793,-0.0165307427449982,,0.04,true,hl,2913.4930000476306,response,0.5460578891507757,0.520220615482482,-0.7006605205437513,-0.4715636553853115,0.6142823306913392,-0.5304959628791717,high,low,,ISIC_0027350.JPG,,ISIC_0062235.JPG,61,false,0.1,hl,keypress(j),0,true,631516.2999999523,631516.2000000477,628585.696,628799.2999999523,628602.707,631307.711,1,40,34,
sequence,flow.Sequence,8_33,2023-11-20T15:29:17.090Z,,,,,,,,,,,2913.4930000476306,completion,,,,,,,high,low,,,,,,false,,,,,true,631516.3999999762,631516.2000000477,628585.696,628799.2999999523,628602.707,631307.711,1,40,,
trial,html.Screen,8_34_0,2023-11-20T15:29:19.612Z,,,,2,0.0076984477620101,0.0069458408496562,,0.04,true,ll,2730.2889999999898,response,-0.6522987796648678,0.520220615482482,-0.7006605205437513,-0.6198420380860269,0.6142823306913392,-0.5304959628791717,low,low,,ISIC_0000434.JPG,,ISIC_0000002.JPG,91,false,0.1,ll,keypress(f),0,true,634038.2999999523,634038,631291.23,631516.5,631307.711,633829.313,1,40,35,
sequence,flow.Sequence,8_34,2023-11-20T15:29:19.613Z,,,,,,,,,,,2730.2889999999898,completion,,,,,,,low,low,,,,,,false,,,,,true,634038.8999999762,634038,631291.23,631516.5,631307.711,633829.313,1,40,,
trial,html.Screen,8_35_0,2023-11-20T15:29:22.890Z,,,,2,-0.0109416414475118,-0.005246498750811,,0.04,true,ll,3486.6870000000345,response,-0.4762504176133338,0.520220615482482,-0.49570284673566917,-0.5215334386689573,0.6142823306913392,-0.49570284673566917,low,low,,ISIC_0064279.JPG,,ISIC_0054963.JPG,90,false,0.1,ll,keypress(f),0,true,637316.1000000238,637316,633812.834,634039.2000000477,633829.313,637119.175,1,40,36,
sequence,flow.Sequence,8_35,2023-11-20T15:29:22.890Z,,,,,,,,,,,3486.6870000000345,completion,,,,,,,low,low,,,,,,false,,,,,true,637316.2000000477,637316,633812.834,634039.1000000238,633829.313,637119.175,1,40,,
trial,html.Screen,8_36_0,2023-11-20T15:29:27.264Z,,,,2,0.0367706518941078,-0.0161069838272154,,0.04,true,lh,4570.62499995227,response,-0.40565424846634,0.520220615482482,-0.49570284673566917,0.6664286239819797,0.6142823306913392,-0.49570284673566917,low,high,,ISIC_0033419.JPG,,ISIC_6285076.JPG,47,false,0.1,lh,keypress(e),0,true,641690,641689.7999999523,637102.45,637316.3999999762,637119.175,641494.44,1,40,37,
sequence,flow.Sequence,8_36,2023-11-20T15:29:27.264Z,,,,,,,,,,,4570.62499995227,completion,,,,,,,low,high,,,,,,false,,,,,true,641690.2000000477,641689.7999999523,637102.45,637316.3999999762,637119.175,641494.44,1,40,,
trial,html.Screen,8_37_0,2023-11-20T15:29:29.668Z,,,,2,0,-0.0102871556606504,,0.04,true,hh,2599.6600000238977,response,0.4866952046365917,0.520220615482482,-0.49570284673566917,0.6247964122460256,0.5642823306913392,-0.49570284673566917,high,high,,ISIC_1805163.JPG,,ISIC_8348712.JPG,112,false,0.1,hh,keypress(i),0,true,644094.3999999762,644094.1000000238,641477.744,641690.2999999523,641494.44,643898.945,1,40,38,
sequence,flow.Sequence,8_37,2023-11-20T15:29:29.669Z,,,,,,,,,,,2599.6600000238977,completion,,,,,,,high,high,,,,,,false,,,,,true,644095,644094.1000000238,641477.744,641690.2999999523,641494.44,643898.945,1,40,,
trial,html.Screen,8_38_0,2023-11-20T15:29:32.138Z,,,,2,-0.0388334549081915,0.0303399972963369,,0.04,true,ll,2665.4549999762094,response,-0.4397710499425179,0.5057458084413086,-0.49570284673566917,-0.3968945945491988,0.5642823306913392,-0.49570284673566917,low,low,,ISIC_4961708.JPG,,ISIC_0062639.JPG,90,false,0.1,ll,keypress(f),0,true,646564.5,646564.3999999762,643882.208,644095.2999999523,643898.945,646353.664,1,40,39,
sequence,flow.Sequence,8_38,2023-11-20T15:29:32.139Z,,,,,,,,,,,2665.4549999762094,completion,,,,,,,low,low,,,,,,false,,,,,true,646564.7000000477,646564.3999999762,643882.208,644095.2000000477,643898.945,646353.664,1,40,,
trial,html.Screen,8_39_0,2023-11-20T15:29:34.970Z,,,,2,0.0286056110007553,0.036125199756515,,0.04,true,lh,3041.8360000000102,response,-0.4161004533807185,0.5057458084413086,-0.49570284673566917,0.5095449637528707,0.5642823306913392,-0.49570284673566917,low,high,,ISIC_6535558.JPG,,ISIC_0012065.JPG,52,false,0.1,lh,keypress(e),0,true,649395.6000000238,649395.5,646337.219,646564.7999999523,646353.664,649192.621,1,40,40,
sequence,flow.Sequence,8_39,2023-11-20T15:29:34.970Z,,,,,,,,,,,3041.8360000000102,completion,,,,,,,low,high,,,,,,false,,,,,true,649395.7999999523,649395.5,646337.219,646564.7000000477,646353.664,649192.621,1,40,,
stair_loop,flow.Loop,8,2023-11-20T15:29:34.970Z,,,,,,,,,,,177932.25799999997,completion,,,,,,,,,,,,,,false,,,,,true,649395.7999999523,649395.5,471430.037,471644.7000000477,471463.242,649192.621,1,40,,
exp_instructions,html.Screen,9,2023-11-20T15:30:05.085Z,,,,,,,,,,,30316.4790000238,response,,,,,,,,,,,,,,,,continue,keypress(Space),,,679510,679509.1000000238,649176.034,649395.7999999523,649192.621,679301.129,,,,
trial,html.Screen,10_0_0,2023-11-20T15:30:10.542Z,,,,1,0.0220026381002083,-0.0170756452911772,,0.04,true,ll,5665.770999976201,response,-0.5873960005341371,0.6468230201876481,-0.6734705739461858,-0.5990019802734335,0.6598137752706672,-0.5759191896046014,low,low,,ISIC_5347806.JPG,9,ISIC_0066588.JPG,95,false,0.1,ll,keypress(f),0,false,684967,684966.8999999762,679284.533,679510.3999999762,679301.129,684761.747,4,500,1,
break,html.Screen,10_0_1,2023-11-20T15:30:10.543Z,,,,,,,,,,,NaN,,,,,,,,low,low,,,,,,false,,,,,false,684967.5,684967.3999999762,,684967.1000000238,,684761.747,4,500,,
break_continue,html.Screen,10_0_2,2023-11-20T15:30:10.543Z,,,,,,,,,,,NaN,,,,,,,,low,low,,,,,,false,,,,,false,684967.7999999523,684967.7000000477,,684967.6000000238,,684761.747,4,500,,
sequence,flow.Sequence,10_0,2023-11-20T15:30:10.543Z,,,,,,,,,,,5666.571000047727,completion,,,,,,,low,low,,,,,,false,,,,,false,684967.8999999762,684967.7000000477,679284.533,679510.3999999762,679301.129,684761.747,4,500,,
trial,html.Screen,10_1_0,2023-11-20T15:30:14.902Z,,,,1,0.0220026381002083,-0.0170756452911772,,0.04,true,ll,4564.152999976184,response,-0.6223633625109564,0.6468230201876481,-0.6734705739461858,-0.5516009736524652,0.6598137752706672,-0.5759191896046014,low,low,,ISIC_5347806.JPG,8,ISIC_0060148.JPG,95,false,0.1,ll,keypress(f),0,false,689326.2999999523,689325.8999999762,684745.202,684968,684761.747,689120.245,4,500,2,
break,html.Screen,10_1_1,2023-11-20T15:30:14.903Z,,,,,,,,,,,NaN,,,,,,,,low,low,,,,,,false,,,,,false,689327.7999999523,689327.2999999523,,689326.7000000477,,689120.245,4,500,,
break_continue,html.Screen,10_1_2,2023-11-20T15:30:14.904Z,,,,,,,,,,,NaN,,,,,,,,low,low,,,,,,false,,,,,false,689328.7999999523,689328.3999999762,,689328.1000000238,,689120.245,4,500,,
sequence,flow.Sequence,10_1,2023-11-20T15:30:14.904Z,,,,,,,,,,,4566.652999976184,completion,,,,,,,low,low,,,,,,false,,,,,false,689329.2000000477,689328.3999999762,684745.202,684968,684761.747,689120.245,4,500,,
trial,html.Screen,10_2_0,2023-11-20T15:30:20.564Z,,,,1,0.0009714874637896,-0.0174815595031679,,0.04,true,lh,5868.3550000238465,response,-0.5935406865478525,0.6468230201876481,-0.6734705739461858,0.6173559107471093,0.6598137752706672,-0.5759191896046014,low,high,,ISIC_9848743.JPG,9,ISIC_1806179.JPG,35,false,0.1,lh,keypress(e),0,false,694988.7000000477,694988.6000000238,689103.686,689329.3999999762,689120.245,694781.247,4,500,3,
break,html.Screen,10_2_1,2023-11-20T15:30:20.564Z,,,,,,,,,,,NaN,,,,,,,,low,high,,,,,,false,,,,,false,694989.1000000238,694988.8999999762,,694988.7999999523,,694781.247,4,500,,
break_continue,html.Screen,10_2_2,2023-11-20T15:30:20.565Z,,,,,,,,,,,NaN,,,,,,,,low,high,,,,,,false,,,,,false,694989.3999999762,694989.2000000477,,694989.2000000477,,694781.247,4,500,,
sequence,flow.Sequence,10_2,2023-11-20T15:30:20.565Z,,,,,,,,,,,5868.955000047688,completion,,,,,,,low,high,,,,,,false,,,,,false,694989.3999999762,694989.2000000477,689103.686,689329.2999999523,689120.245,694781.247,4,500,,
trial,html.Screen,10_3_0,2023-11-20T15:30:25.709Z,,,,1,-0.0388181790775959,0.0049623405709465,,0.04,true,hl,5352.552999952342,response,0.5543649807043584,0.6468230201876481,-0.6734705739461858,-0.6606206439667185,0.6598137752706672,-0.5759191896046014,high,low,,ISIC_0061880.JPG,9,ISIC_0055240.JPG,41,false,0.1,hl,keypress(j),0,false,700134.1000000238,700133.7999999523,694764.741,694989.3999999762,694781.247,699924.702,4,500,4,
break,html.Screen,10_3_1,2023-11-20T15:30:25.711Z,,,,,,,,,,,NaN,,,,,,,,high,low,,,,,,false,,,,,false,700135.3999999762,700135.1000000238,,700134.6000000238,,699924.702,4,500,,
break_continue,html.Screen,10_3_2,2023-11-20T15:30:25.712Z,,,,,,,,,,,NaN,,,,,,,,high,low,,,,,,false,,,,,false,700136.3999999762,700135.8999999762,,700135.7000000477,,699924.702,4,500,,
sequence,flow.Sequence,10_3,2023-11-20T15:30:25.712Z,,,,,,,,,,,5354.652999976184,completion,,,,,,,high,low,,,,,,false,,,,,false,700136.7000000477,700135.8999999762,694764.741,694989.3999999762,694781.247,699924.702,4,500,,
trial,html.Screen,10_4_0,2023-11-20T15:30:30.564Z,,,,1,-0.0198696495649504,0.0387952353063878,,0.04,true,hl,5063.69799997611,response,0.7014395589246024,0.6468230201876481,-0.6734705739461858,-0.606334597519943,0.6598137752706672,-0.5759191896046014,high,low,,ISIC_6735970.JPG,9,ISIC_0033336.JPG,41,false,0.1,hl,keypress(j),0,false,704988.6000000238,704988.3999999762,699908.165,700137,699924.702,704784.101,4,500,5,
break,html.Screen,10_4_1,2023-11-20T15:30:30.564Z,,,,,,,,,,,NaN,,,,,,,,high,low,,,,,,false,,,,,false,704989,704988.8999999762,,704988.7000000477,,704784.101,4,500,,
break_continue,html.Screen,10_4_2,2023-11-20T15:30:30.564Z,,,,,,,,,,,NaN,,,,,,,,high,low,,,,,,false,,,,,false,704989.2000000477,704989.1000000238,,704989,,704784.101,4,500,,
sequence,flow.Sequence,10_4,2023-11-20T15:30:30.564Z,,,,,,,,,,,5064.398000023793,completion,,,,,,,high,low,,,,,,false,,,,,false,704989.2999999523,704989.1000000238,699908.165,700136.8999999762,699924.702,704784.101,4,500,,
trial,html.Screen,10_5_0,2023-11-20T15:30:34.534Z,,,,1,0.0257631352671967,0.0202837002774028,,0.04,true,ll,4174.198999952292,response,-0.661103230391728,0.6468230201876481,-0.6734705739461858,-0.5949590719462826,0.6598137752706672,-0.5759191896046014,low,low,,ISIC_0032797.JPG,10,ISIC_0070313.JPG,95,false,0.1,ll,keypress(f),0,false,708958.5,708958.2999999523,704767.623,704989.2999999523,704784.101,708758.532,4,500,6,
break,html.Screen,10_5_1,2023-11-20T15:30:34.535Z,,,,,,,,,,,NaN,,,,,,,,low,low,,,,,,false,,,,,false,708959.8999999762,708959.5,,708959,,708758.532,4,500,,
break_continue,html.Screen,10_5_2,2023-11-20T15:30:34.536Z,,,,,,,,,,,NaN,,,,,,,,low,low,,,,,,false,,,,,false,708960.7999999523,708960.3999999762,,708960.2000000477,,708758.532,4,500,,
sequence,flow.Sequence,10_5,2023-11-20T15:30:34.536Z,,,,,,,,,,,4176.298999976134,completion,,,,,,,low,low,,,,,,false,,,,,false,708961.2000000477,708960.3999999762,704767.623,704989.2999999523,704784.101,708758.532,4,500,,
trial,html.Screen,10_6_0,2023-11-20T15:30:38.726Z,,,,1,0.0367744112927588,0.0324865661712824,,0.04,true,lh,4391.4679999999935,response,-0.705607603067069,0.6468230201876481,-0.6734705739461858,0.6095249162824369,0.6598137752706672,-0.5759191896046014,low,high,,ISIC_4523565.JPG,8,ISIC_0014219.JPG,35,false,0.1,lh,keypress(e),0,false,713150.3999999762,713150,708741.769,708961.3999999762,708758.532,712949.968,4,500,7,
break,html.Screen,10_6_1,2023-11-20T15:30:38.727Z,,,,,,,,,,,NaN,,,,,,,,low,high,,,,,,false,,,,,false,713151.7000000477,713151.2999999523,,713150.7999999523,,712949.968,4,500,,
break_continue,html.Screen,10_6_2,2023-11-20T15:30:38.728Z,,,,,,,,,,,NaN,,,,,,,,low,high,,,,,,false,,,,,false,713152.7000000477,713152.2999999523,,713152,,712949.968,4,500,,
sequence,flow.Sequence,10_6,2023-11-20T15:30:38.728Z,,,,,,,,,,,4393.76799995231,completion,,,,,,,low,high,,,,,,false,,,,,false,713153,713152.2999999523,708741.769,708961.3999999762,708758.532,712949.968,4,500,,
trial,html.Screen,10_7_0,2023-11-20T15:30:42.341Z,,,,1,0.0076984477620101,0.0069458408496562,,0.04,true,ll,3815.831999952323,response,-0.5962322188491738,0.6468230201876481,-0.6734705739461858,-0.5545977128088403,0.6598137752706672,-0.5759191896046014,low,low,,ISIC_0000434.JPG,9,ISIC_0069087.JPG,95,false,0.1,ll,keypress(f),0,false,716766.2000000477,716765.7999999523,712933.489,713153.2999999523,712949.968,716573.724,4,500,8,
break,html.Screen,10_7_1,2023-11-20T15:30:42.343Z,,,,,,,,,,,NaN,,,,,,,,low,low,,,,,,false,,,,,false,716767.5,716767.1000000238,,716766.5,,716573.724,4,500,,
break_continue,html.Screen,10_7_2,2023-11-20T15:30:42.344Z,,,,,,,,,,,NaN,,,,,,,,low,low,,,,,,false,,,,,false,716768.5,716768,,716767.7000000477,,716573.724,4,500,,
sequence,flow.Sequence,10_7,2023-11-20T15:30:42.344Z,,,,,,,,,,,3818.0320000000065,completion,,,,,,,low,low,,,,,,false,,,,,false,716768.7999999523,716768,712933.489,713153.2000000477,712949.968,716573.724,4,500,,
trial,html.Screen,10_8_0,2023-11-20T15:30:48.180Z,,,,1,-0.0198696495649504,0.0387952353063878,,0.04,true,hl,6031.075999952271,response,0.5588979658648439,0.6468230201876481,-0.6734705739461858,-0.6427302891118192,0.6598137752706672,-0.5759191896046014,high,low,,ISIC_6735970.JPG,8,ISIC_3597812.JPG,41,false,0.1,hl,keypress(j),0,false,722605,722604.7999999523,716540.511,716769,716573.724,722401.697,4,500,9,
break,html.Screen,10_8_1,2023-11-20T15:30:48.181Z,,,,,,,,,,,NaN,,,,,,,,high,low,,,,,,false,,,,,false,722605.3999999762,722605.2999999523,,722605.1000000238,,722401.697,4,500,,
break_continue,html.Screen,10_8_2,2023-11-20T15:30:48.181Z,,,,,,,,,,,NaN,,,,,,,,high,low,,,,,,false,,,,,false,722605.6000000238,722605.5,,722605.3999999762,,722401.697,4,500,,
sequence,flow.Sequence,10_8,2023-11-20T15:30:48.181Z,,,,,,,,,,,6031.775999999954,completion,,,,,,,high,low,,,,,,false,,,,,false,722605.7000000477,722605.5,716540.511,716769,716573.724,722401.697,4,500,,
trial,html.Screen,10_9_0,2023-11-20T15:30:52.382Z,,,,1,0.0257631352671967,0.0202837002774028,,0.04,true,lh,4404.00300004764,response,-0.731373003471174,0.6468230201876481,-0.6734705739461858,0.6240446333345846,0.6598137752706672,-0.5759191896046014,low,high,,ISIC_0032797.JPG,8,ISIC_5282642.JPG,35,false,0.1,lh,keypress(e),0,false,726806.1000000238,726805.7000000477,722385.115,722605.7999999523,722401.697,726610.042,4,500,10,
break,html.Screen,10_9_1,2023-11-20T15:30:52.384Z,,,,,,,,,,,NaN,,,,,,,,low,high,,,,,,false,,,,,false,726807.5,726807.1000000238,,726806.6000000238,,726610.042,4,500,,
break_continue,html.Screen,10_9_2,2023-11-20T15:30:52.385Z,,,,,,,,,,,NaN,,,,,,,,low,high,,,,,,false,,,,,false,726808.5,726808,,726807.7000000477,,726610.042,4,500,,
sequence,flow.Sequence,10_9,2023-11-20T15:30:52.385Z,,,,,,,,,,,4406.302999999956,completion,,,,,,,low,high,,,,,,false,,,,,false,726808.7999999523,726808,722385.115,722605.7000000477,722401.697,726610.042,4,500,,
trial,html.Screen,10_10_0,2023-11-20T15:30:57.431Z,,,,1,0.0258224118104549,-0.0029364553353019,,0.04,true,ll,5244.058000023826,response,-0.5975393447428211,0.6468230201876481,-0.6734705739461858,-0.5316419133577462,0.6598137752706672,-0.5759191896046014,low,low,,ISIC_8325226.JPG,9,ISIC_0069705.JPG,95,false,0.1,ll,keypress(f),0,false,731854.3999999762,731854.1000000238,726593.429,726809.1000000238,726610.042,731653.011,4,500,11,
break,html.Screen,10_10_1,2023-11-20T15:30:57.432Z,,,,,,,,,,,NaN,,,,,,,,low,low,,,,,,false,,,,,false,731855.6000000238,731855.2999999523,,731854.7999999523,,731653.011,4,500,,
break_continue,html.Screen,10_10_2,2023-11-20T15:30:57.433Z,,,,,,,,,,,NaN,,,,,,,,low,low,,,,,,false,,,,,false,731856.6000000238,731856.2000000477,,731855.8999999762,,731653.011,4,500,,
sequence,flow.Sequence,10_10,2023-11-20T15:30:57.433Z,,,,,,,,,,,5246.158000047668,completion,,,,,,,low,low,,,,,,false,,,,,false,731856.8999999762,731856.2000000477,726593.429,726808.8999999762,726610.042,731653.011,4,500,,
trial,html.Screen,10_11_0,2023-11-20T15:31:05.815Z,,,,1,-0.0199950873045219,-0.0172506388509166,,0.04,true,hl,8585.28899995226,response,0.7317677376594389,0.6468230201876481,-0.6734705739461858,-0.5562828006875083,0.6598137752706672,-0.5759191896046014,high,low,,ISIC_0029906.JPG,10,ISIC_4482610.JPG,41,false,0.1,hl,keypress(j),0,false,740238.6000000238,740238.2999999523,731636.478,731857.2000000477,731653.011,740036.005,4,500,12,
break,html.Screen,10_11_1,2023-11-20T15:31:05.816Z,,,,,,,,,,,NaN,,,,,,,,high,low,,,,,,false,,,,,false,740239.8999999762,740239.6000000238,,740239.1000000238,,740036.005,4,500,,
break_continue,html.Screen,10_11_2,2023-11-20T15:31:05.817Z,,,,,,,,,,,NaN,,,,,,,,high,low,,,,,,false,,,,,false,740240.8999999762,740240.5,,740240.2000000477,,740036.005,4,500,,
sequence,flow.Sequence,10_11,2023-11-20T15:31:05.817Z,,,,,,,,,,,8587.488999999943,completion,,,,,,,high,low,,,,,,false,,,,,false,740241.2000000477,740240.5,731636.478,731857.1000000238,731653.011,740036.005,4,500,,
trial,html.Screen,10_12_0,2023-11-20T15:31:10.431Z,,,,1,0.0076984477620101,0.0069458408496562,,0.04,true,ll,4818.3949999761535,response,-0.7018163700682714,0.6468230201876481,-0.6734705739461858,-0.5470418981908097,0.6598137752706672,-0.5759191896046014,low,low,,ISIC_0000434.JPG,9,ISIC_0030360.JPG,95,false,0.1,ll,keypress(f),0,false,744854.7000000477,744854.3999999762,740019.371,740241.5,740036.005,744661.739,4,500,13,
break,html.Screen,10_12_1,2023-11-20T15:31:10.432Z,,,,,,,,,,,NaN,,,,,,,,low,low,,,,,,false,,,,,false,744855.8999999762,744855.7000000477,,744855.1000000238,,744661.739,4,500,,
break_continue,html.Screen,10_12_2,2023-11-20T15:31:10.433Z,,,,,,,,,,,NaN,,,,,,,,low,low,,,,,,false,,,,,false,744856.8999999762,744856.5,,744856.2000000477,,744661.739,4,500,,
sequence,flow.Sequence,10_12,2023-11-20T15:31:10.433Z,,,,,,,,,,,4820.494999999995,completion,,,,,,,low,low,,,,,,false,,,,,false,744857.2000000477,744856.5,740019.371,740241.3999999762,740036.005,744661.739,4,500,,
trial,html.Screen,10_13_0,2023-11-20T15:31:14.767Z,,,,1,-0.0074667911845194,0.018500200317654,,0.04,true,hh,4528.261000000057,response,0.673407740791809,0.6468230201876481,-0.6734705739461858,0.6413224584837697,0.6598137752706672,-0.5759191896046014,high,high,,ISIC_0058723.JPG,9,ISIC_0422299.JPG,96,false,0.1,hh,keypress(i),0,false,749190.3999999762,749190,744628.528,744857.5,744661.739,748986.777,4,500,14,
break,html.Screen,10_13_1,2023-11-20T15:31:14.768Z,,,,,,,,,,,NaN,,,,,,,,high,high,,,,,,false,,,,,false,749191.6000000238,749191.2999999523,,749190.7999999523,,748986.777,4,500,,
break_continue,html.Screen,10_13_2,2023-11-20T15:31:14.769Z,,,,,,,,,,,NaN,,,,,,,,high,high,,,,,,false,,,,,false,749192.5,749192.1000000238,,749191.7999999523,,748986.777,4,500,,
sequence,flow.Sequence,10_13,2023-11-20T15:31:14.769Z,,,,,,,,,,,4530.361000023899,completion,,,,,,,high,high,,,,,,false,,,,,false,749192.8999999762,749192.1000000238,744628.528,744857.3999999762,744661.739,748986.777,4,500,,
trial,html.Screen,10_14_0,2023-11-20T15:31:17.559Z,,,,1,-0.0074667911845194,0.018500200317654,,0.04,true,hl,2995.5229999523144,response,0.5891070234033371,0.6468230201876481,-0.6734705739461858,-0.5317620145053265,0.6598137752706672,-0.5759191896046014,high,low,,ISIC_0058723.JPG,9,ISIC_7935462.JPG,41,false,0.1,hl,keypress(j),0,false,751982.6000000238,751982.2999999523,748970.32,749193.2000000477,748986.777,751775.534,4,500,15,
break,html.Screen,10_14_1,2023-11-20T15:31:17.560Z,,,,,,,,,,,NaN,,,,,,,,high,low,,,,,,false,,,,,false,751983.7999999523,751983.5,,751983,,751775.534,4,500,,
break_continue,html.Screen,10_14_2,2023-11-20T15:31:17.561Z,,,,,,,,,,,NaN,,,,,,,,high,low,,,,,,false,,,,,false,751984.7999999523,751984.3999999762,,751984.1000000238,,751775.534,4,500,,
sequence,flow.Sequence,10_14,2023-11-20T15:31:17.561Z,,,,,,,,,,,2997.6229999761563,completion,,,,,,,high,low,,,,,,false,,,,,false,751985.2000000477,751984.3999999762,748970.32,749193.1000000238,748986.777,751775.534,4,500,,
trial,html.Screen,10_15_0,2023-11-20T15:31:20.479Z,,,,1,-0.0088741920055285,-0.0058246074740588,,0.04,true,hh,3126.5660000238568,response,0.5972744472718117,0.6468230201876481,-0.6734705739461858,0.6025147518960567,0.6598137752706672,-0.5759191896046014,high,high,,ISIC_4136663.JPG,9,ISIC_4728167.JPG,96,false,0.1,hh,keypress(i),0,false,754902.5,754902.1000000238,751758.975,751985.3999999762,751775.534,754697.904,4,500,16,
break,html.Screen,10_15_1,2023-11-20T15:31:20.480Z,,,,,,,,,,,NaN,,,,,,,,high,high,,,,,,false,,,,,false,754903.7999999523,754903.6000000238,,754902.8999999762,,754697.904,4,500,,
break_continue,html.Screen,10_15_2,2023-11-20T15:31:20.481Z,,,,,,,,,,,NaN,,,,,,,,high,high,,,,,,false,,,,,false,754904.7000000477,754904.2999999523,,754904.1000000238,,754697.904,4,500,,
sequence,flow.Sequence,10_15,2023-11-20T15:31:20.481Z,,,,,,,,,,,3128.765999952331,completion,,,,,,,high,high,,,,,,false,,,,,false,754905.1000000238,754904.2999999523,751758.975,751985.3999999762,751775.534,754697.904,4,500,,
trial,html.Screen,10_16_0,2023-11-20T15:31:25.383Z,,,,1,0.0367706518941078,-0.0161069838272154,,0.04,true,hh,5108.09600000002,response,0.6180792242530523,0.6468230201876481,-0.6734705739461858,0.5714214878766735,0.6598137752706672,-0.5759191896046014,high,high,,ISIC_0033419.JPG,9,ISIC_6913272.JPG,96,false,0.1,hh,keypress(i),0,false,759806.2999999523,759806,754681.47,754905.2999999523,754697.904,759607.533,4,500,17,
break,html.Screen,10_16_1,2023-11-20T15:31:25.384Z,,,,,,,,,,,NaN,,,,,,,,high,high,,,,,,false,,,,,false,759807.6000000238,759807.2999999523,,759806.7000000477,,759607.533,4,500,,
break_continue,html.Screen,10_16_2,2023-11-20T15:31:25.385Z,,,,,,,,,,,NaN,,,,,,,,high,high,,,,,,false,,,,,false,759808.5,759808,,759807.7999999523,,759607.533,4,500,,
sequence,flow.Sequence,10_16,2023-11-20T15:31:25.385Z,,,,,,,,,,,5110.09600000002,completion,,,,,,,high,high,,,,,,false,,,,,false,759808.7999999523,759808,754681.47,754905.2999999523,754697.904,759607.533,4,500,,
trial,html.Screen,10_17_0,2023-11-20T15:31:30.071Z,,,,1,-0.0199950873045219,-0.0172506388509166,,0.04,true,hl,4886.567000023788,response,0.6620849170131392,0.6468230201876481,-0.6734705739461858,-0.5000117622556115,0.6598137752706672,-0.5759191896046014,high,low,,ISIC_0029906.JPG,9,ISIC_5787517.JPG,41,false,0.1,hl,keypress(j),0,false,764494.3999999762,764494.1000000238,759591,759809.1000000238,759607.533,764300.523,4,500,18,
break,html.Screen,10_17_1,2023-11-20T15:31:30.072Z,,,,,,,,,,,NaN,,,,,,,,high,low,,,,,,false,,,,,false,764495.5,764495.2999999523,,764494.7999999523,,764300.523,4,500,,
break_continue,html.Screen,10_17_2,2023-11-20T15:31:30.073Z,,,,,,,,,,,NaN,,,,,,,,high,low,,,,,,false,,,,,false,764496.3999999762,764495.8999999762,,764495.7999999523,,764300.523,4,500,,
sequence,flow.Sequence,10_17,2023-11-20T15:31:30.073Z,,,,,,,,,,,4888.366999976104,completion,,,,,,,high,low,,,,,,false,,,,,false,764496.7000000477,764495.8999999762,759591,759809,759607.533,764300.523,4,500,,
trial,html.Screen,10_18_0,2023-11-20T15:31:34.359Z,,,,1,0.0367706518941078,-0.0161069838272154,,0.04,true,hh,4481.476999999955,response,0.5533842235314387,0.6468230201876481,-0.6734705739461858,0.6233662851874338,0.6598137752706672,-0.5759191896046014,high,high,,ISIC_0033419.JPG,9,ISIC_9017110.JPG,96,false,0.1,hh,keypress(i),0,false,768782.5,768782,764266.709,764496.8999999762,764300.523,768574.902,4,500,19,
break,html.Screen,10_18_1,2023-11-20T15:31:34.360Z,,,,,,,,,,,NaN,,,,,,,,high,high,,,,,,false,,,,,false,768783.7999999523,768783.5,,768782.8999999762,,768574.902,4,500,,
break_continue,html.Screen,10_18_2,2023-11-20T15:31:34.361Z,,,,,,,,,,,NaN,,,,,,,,high,high,,,,,,false,,,,,false,768784.7999999523,768784.3999999762,,768784.1000000238,,768574.902,4,500,,
sequence,flow.Sequence,10_18,2023-11-20T15:31:34.361Z,,,,,,,,,,,4483.876999976113,completion,,,,,,,high,high,,,,,,false,,,,,false,768785.2000000477,768784.3999999762,764266.709,764496.7999999523,764300.523,768574.902,4,500,,
trial,html.Screen,10_19_0,2023-11-20T15:31:38.175Z,,,,1,-0.0388181790775959,0.0049623405709465,,0.04,true,ll,4023.19800002384,response,-0.5921223308620618,0.6468230201876481,-0.6734705739461858,-0.4775783243207303,0.6598137752706672,-0.5759191896046014,low,low,,ISIC_0061880.JPG,8,ISIC_4243283.JPG,95,false,0.1,ll,keypress(f),0,false,772598.5,772598.1000000238,768558.401,768785.5,768574.902,772399.085,4,500,20,
break,html.Screen,10_19_1,2023-11-20T15:31:38.176Z,,,,,,,,,,,NaN,,,,,,,,low,low,,,,,,false,,,,,false,772599.8999999762,772599.5,,772599,,772399.085,4,500,,
break_continue,html.Screen,10_19_2,2023-11-20T15:31:38.177Z,,,,,,,,,,,NaN,,,,,,,,low,low,,,,,,false,,,,,false,772600.7999999523,772600.3999999762,,772600.1000000238,,772399.085,4,500,,
sequence,flow.Sequence,10_19,2023-11-20T15:31:38.177Z,,,,,,,,,,,4025.4979999761563,completion,,,,,,,low,low,,,,,,false,,,,,false,772601.2000000477,772600.3999999762,768558.401,768785.3999999762,768574.902,772399.085,4,500,,
trial,html.Screen,10_20_0,2023-11-20T15:31:43.095Z,,,,1,-0.0198696495649504,0.0387952353063878,,0.04,true,hl,5119.115000047721,response,0.6664690496468445,0.6468230201876481,-0.6734705739461858,-0.6382277528190516,0.6598137752706672,-0.5759191896046014,high,low,,ISIC_6735970.JPG,8,ISIC_0024675.JPG,41,false,0.1,hl,keypress(j),0,false,777518.5,777518.2000000477,772382.552,772601.5,772399.085,777308.61,4,500,21,
break,html.Screen,10_20_1,2023-11-20T15:31:43.096Z,,,,,,,,,,,NaN,,,,,,,,high,low,,,,,,false,,,,,false,777519.7000000477,777519.2999999523,,777518.8999999762,,777308.61,4,500,,
break_continue,html.Screen,10_20_2,2023-11-20T15:31:43.097Z,,,,,,,,,,,NaN,,,,,,,,high,low,,,,,,false,,,,,false,777520.6000000238,777520.2000000477,,777520,,777308.61,4,500,,
sequence,flow.Sequence,10_20,2023-11-20T15:31:43.097Z,,,,,,,,,,,5121.115000047721,completion,,,,,,,high,low,,,,,,false,,,,,false,777520.8999999762,777520.2000000477,772382.552,772601.2999999523,772399.085,777308.61,4,500,,
trial,html.Screen,10_21_0,2023-11-20T15:31:48.390Z,,,,1,0.0200295718112167,0.0155559071275806,,0.04,true,ll,5505.18999995233,response,-0.7525280650246937,0.6468230201876481,-0.6734705739461858,-0.5871566151554108,0.6598137752706672,-0.5759191896046014,low,low,,ISIC_0061343.JPG,8,ISIC_0031397.JPG,95,false,0.1,ll,keypress(f),0,false,782814.2000000477,782813.7999999523,777292.101,777521.1000000238,777308.61,782619.157,4,500,22,
break,html.Screen,10_21_1,2023-11-20T15:31:48.392Z,,,,,,,,,,,NaN,,,,,,,,low,low,,,,,,false,,,,,false,782815.5,782815.2000000477,,782814.6000000238,,782619.157,4,500,,
break_continue,html.Screen,10_21_2,2023-11-20T15:31:48.393Z,,,,,,,,,,,NaN,,,,,,,,low,low,,,,,,false,,,,,false,782816.2999999523,782816,,782815.7000000477,,782619.157,4,500,,
sequence,flow.Sequence,10_21,2023-11-20T15:31:48.393Z,,,,,,,,,,,5507.390000000014,completion,,,,,,,low,low,,,,,,false,,,,,false,782816.7000000477,782816,777292.101,777521.1000000238,777308.61,782619.157,4,500,,
trial,html.Screen,10_22_0,2023-11-20T15:31:54.128Z,,,,1,0.0257631352671967,0.0202837002774028,,0.04,true,hl,5931.242999976152,response,0.5853354799445075,0.6468230201876481,-0.6734705739461858,-0.5604480108036678,0.6598137752706672,-0.5759191896046014,high,low,,ISIC_0032797.JPG,9,ISIC_6126554.JPG,41,false,0.1,hl,keypress(j),0,false,788550.7000000477,788550.3999999762,782602.411,782817,782619.157,788346.723,4,500,23,
break,html.Screen,10_22_1,2023-11-20T15:31:54.129Z,,,,,,,,,,,NaN,,,,,,,,high,low,,,,,,false,,,,,false,788552,788551.7000000477,,788551.2000000477,,788346.723,4,500,,
break_continue,html.Screen,10_22_2,2023-11-20T15:31:54.130Z,,,,,,,,,,,NaN,,,,,,,,high,low,,,,,,false,,,,,false,788553,788552.5,,788552.2000000477,,788346.723,4,500,,
sequence,flow.Sequence,10_22,2023-11-20T15:31:54.131Z,,,,,,,,,,,5933.3429999999935,completion,,,,,,,high,low,,,,,,false,,,,,false,788553.2999999523,788552.5,782602.411,782816.8999999762,782619.157,788346.723,4,500,,
trial,html.Screen,10_23_0,2023-11-20T15:31:59.120Z,,,,1,-0.039520186367207,-0.0377961575607372,,0.04,true,hl,5195.377000023844,response,0.5891070234033371,0.6468230201876481,-0.6734705739461858,-0.5317620145053265,0.6598137752706672,-0.5759191896046014,high,low,,ISIC_6356149.JPG,9,ISIC_7935462.JPG,41,false,0.1,hl,keypress(j),0,false,793542.5,793542.1000000238,788330.191,788553.6000000238,788346.723,793339.756,4,500,24,
break,html.Screen,10_23_1,2023-11-20T15:31:59.121Z,,,,,,,,,,,NaN,,,,,,,,high,low,,,,,,false,,,,,false,793543.8999999762,793543.5,,793542.8999999762,,793339.756,4,500,,
break_continue,html.Screen,10_23_2,2023-11-20T15:31:59.122Z,,,,,,,,,,,NaN,,,,,,,,high,low,,,,,,false,,,,,false,793544.7000000477,793544.2999999523,,793544.1000000238,,793339.756,4,500,,
sequence,flow.Sequence,10_23,2023-11-20T15:31:59.122Z,,,,,,,,,,,5197.576999952318,completion,,,,,,,high,low,,,,,,false,,,,,false,793545.1000000238,793544.2999999523,788330.191,788553.5,788346.723,793339.756,4,500,,
trial,html.Screen,10_24_0,2023-11-20T15:32:04.592Z,,,,1,0.0119001144851157,-0.0063430114540141,,0.04,true,lh,5674.543999952264,response,-0.691415026399502,0.6468230201876481,-0.6734705739461858,0.7239470583170381,0.6598137752706672,-0.5759191896046014,low,high,,ISIC_0003822.JPG,9,ISIC_0011051.JPG,35,false,0.1,lh,keypress(e),0,false,799014.6000000238,799014.2999999523,793323.301,793545.2999999523,793339.756,798817.332,4,500,25,
break,html.Screen,10_24_1,2023-11-20T15:32:04.593Z,,,,,,,,,,,NaN,,,,,,,,low,high,,,,,,false,,,,,false,799016.1000000238,799015.5,,799015,,798817.332,4,500,,
break_continue,html.Screen,10_24_2,2023-11-20T15:32:04.594Z,,,,,,,,,,,NaN,,,,,,,,low,high,,,,,,false,,,,,false,799017.1000000238,799016.5,,799016.2999999523,,798817.332,4,500,,
sequence,flow.Sequence,10_24,2023-11-20T15:32:04.595Z,,,,,,,,,,,5676.743999999948,completion,,,,,,,low,high,,,,,,false,,,,,false,799017.2999999523,799016.5,793323.301,793545.2999999523,793339.756,798817.332,4,500,,
trial,html.Screen,10_25_0,2023-11-20T15:32:07.792Z,,,,1,0.0009714874637896,-0.0174815595031679,,0.04,true,ll,3396.667999999947,response,-0.6696312995737665,0.6468230201876481,-0.6734705739461858,-0.5137692243982748,0.6598137752706672,-0.5759191896046014,low,low,,ISIC_9848743.JPG,9,ISIC_0066430.JPG,95,false,0.1,ll,keypress(f),0,false,802214.3999999762,802214,798800.432,799017.6000000238,798817.332,802006.643,4,500,26,
break,html.Screen,10_25_1,2023-11-20T15:32:07.793Z,,,,,,,,,,,NaN,,,,,,,,low,low,,,,,,false,,,,,false,802215.6000000238,802215.2999999523,,802214.7999999523,,802006.643,4,500,,
break_continue,html.Screen,10_25_2,2023-11-20T15:32:07.794Z,,,,,,,,,,,NaN,,,,,,,,low,low,,,,,,false,,,,,false,802216.5,802216.1000000238,,802215.7999999523,,802006.643,4,500,,
sequence,flow.Sequence,10_25,2023-11-20T15:32:07.794Z,,,,,,,,,,,3398.7680000237888,completion,,,,,,,low,low,,,,,,false,,,,,false,802216.7999999523,802216.1000000238,798800.432,799017.5,798817.332,802006.643,4,500,,
trial,html.Screen,10_26_0,2023-11-20T15:32:12.256Z,,,,1,0.0076984477620101,0.0069458408496562,,0.04,true,hl,4671.457000023802,response,0.6367870634823293,0.6468230201876481,-0.6734705739461858,-0.6027111215093001,0.6598137752706672,-0.5759191896046014,high,low,,ISIC_0000434.JPG,9,ISIC_0010597.JPG,41,false,0.1,hl,keypress(j),0,false,806678.5,806678.1000000238,801990.095,802217.1000000238,802006.643,806482.168,4,500,27,
break,html.Screen,10_26_1,2023-11-20T15:32:12.257Z,,,,,,,,,,,NaN,,,,,,,,high,low,,,,,,false,,,,,false,806679.7999999523,806679.3999999762,,806678.8999999762,,806482.168,4,500,,
break_continue,html.Screen,10_26_2,2023-11-20T15:32:12.258Z,,,,,,,,,,,NaN,,,,,,,,high,low,,,,,,false,,,,,false,806680.7000000477,806680.2999999523,,806680,,806482.168,4,500,,
sequence,flow.Sequence,10_26,2023-11-20T15:32:12.258Z,,,,,,,,,,,4673.656999952276,completion,,,,,,,high,low,,,,,,false,,,,,false,806681,806680.2999999523,801990.095,802217,802006.643,806482.168,4,500,,
trial,html.Screen,10_27_0,2023-11-20T15:32:16.024Z,,,,1,-0.0199950873045219,-0.0172506388509166,,0.04,true,lh,3964.2319999762112,response,-0.7196614185662707,0.6468230201876481,-0.6734705739461858,0.5647096255721987,0.6598137752706672,-0.5759191896046014,low,high,,ISIC_0029906.JPG,9,ISIC_3049506.JPG,35,false,0.1,lh,keypress(e),0,false,810446.7000000477,810446.3999999762,806465.538,806681.2999999523,806482.168,810239.43,4,500,28,
break,html.Screen,10_27_1,2023-11-20T15:32:16.025Z,,,,,,,,,,,NaN,,,,,,,,low,high,,,,,,false,,,,,false,810448.1000000238,810447.6000000238,,810447.2000000477,,810239.43,4,500,,
break_continue,html.Screen,10_27_2,2023-11-20T15:32:16.026Z,,,,,,,,,,,NaN,,,,,,,,low,high,,,,,,false,,,,,false,810449.1000000238,810448.7000000477,,810448.3999999762,,810239.43,4,500,,
sequence,flow.Sequence,10_27,2023-11-20T15:32:16.027Z,,,,,,,,,,,3966.532000047737,completion,,,,,,,low,high,,,,,,false,,,,,false,810449.3999999762,810448.7000000477,806465.538,806681.2000000477,806482.168,810239.43,4,500,,
trial,html.Screen,10_28_0,2023-11-20T15:32:23.192Z,,,,1,0.0286056110007553,0.036125199756515,,0.04,true,hh,7374.869999952265,response,0.7255234996477065,0.6468230201876481,-0.6734705739461858,0.5691830318722699,0.6598137752706672,-0.5759191896046014,high,high,,ISIC_6535558.JPG,8,ISIC_0247197.JPG,96,false,0.1,hh,keypress(i),0,false,817614.6000000238,817614.2999999523,810222.786,810449.7000000477,810239.43,817420.508,4,500,29,
break,html.Screen,10_28_1,2023-11-20T15:32:23.193Z,,,,,,,,,,,NaN,,,,,,,,high,high,,,,,,false,,,,,false,817615.8999999762,817615.5,,817615,,817420.508,4,500,,
break_continue,html.Screen,10_28_2,2023-11-20T15:32:23.194Z,,,,,,,,,,,NaN,,,,,,,,high,high,,,,,,false,,,,,false,817616.7999999523,817616.2999999523,,817616.1000000238,,817420.508,4,500,,
sequence,flow.Sequence,10_28,2023-11-20T15:32:23.194Z,,,,,,,,,,,7376.869999952265,completion,,,,,,,high,high,,,,,,false,,,,,false,817617.1000000238,817616.2999999523,810222.786,810449.6000000238,810239.43,817420.508,4,500,,
trial,html.Screen,10_29_0,2023-11-20T15:32:30.392Z,,,,1,-0.0199950873045219,-0.0172506388509166,,0.04,true,lh,7393.991999999969,response,-0.6181436781814378,0.6468230201876481,-0.6734705739461858,0.621332215027405,0.6598137752706672,-0.5759191896046014,low,high,,ISIC_0029906.JPG,9,ISIC_6446779.JPG,35,false,0.1,lh,keypress(e),0,false,824814.8999999762,824814.5,817386.782,817617.2999999523,817420.508,824617.324,4,500,30,
break,html.Screen,10_29_1,2023-11-20T15:32:30.393Z,,,,,,,,,,,NaN,,,,,,,,low,high,,,,,,false,,,,,false,824816.1000000238,824815.7999999523,,824815.2000000477,,824617.324,4,500,,
break_continue,html.Screen,10_29_2,2023-11-20T15:32:30.394Z,,,,,,,,,,,NaN,,,,,,,,low,high,,,,,,false,,,,,false,824817.1000000238,824816.7000000477,,824816.3999999762,,824617.324,4,500,,
sequence,flow.Sequence,10_29,2023-11-20T15:32:30.395Z,,,,,,,,,,,7396.192000047653,completion,,,,,,,low,high,,,,,,false,,,,,false,824817.3999999762,824816.7000000477,817386.782,817617.2000000477,817420.508,824617.324,4,500,,
trial,html.Screen,10_30_0,2023-11-20T15:32:34.768Z,,,,1,0.0220026381002083,-0.0170756452911772,,0.04,true,hh,4572.876000047661,response,0.6332892167534746,0.6468230201876481,-0.6734705739461858,0.7449399816504685,0.6598137752706672,-0.5759191896046014,high,high,,ISIC_5347806.JPG,9,ISIC_1947833.JPG,96,false,0.1,hh,keypress(i),0,false,829190.6000000238,829190.2000000477,824600.824,824817.6000000238,824617.324,828992.588,4,500,31,
break,html.Screen,10_30_1,2023-11-20T15:32:34.769Z,,,,,,,,,,,NaN,,,,,,,,high,high,,,,,,false,,,,,false,829191.7999999523,829191.5,,829191,,828992.588,4,500,,
break_continue,html.Screen,10_30_2,2023-11-20T15:32:34.770Z,,,,,,,,,,,NaN,,,,,,,,high,high,,,,,,false,,,,,false,829192.7999999523,829192.2999999523,,829192,,828992.588,4,500,,
sequence,flow.Sequence,10_30,2023-11-20T15:32:34.770Z,,,,,,,,,,,4574.975999952294,completion,,,,,,,high,high,,,,,,false,,,,,false,829193.1000000238,829192.2999999523,824600.824,824817.6000000238,824617.324,828992.588,4,500,,
trial,html.Screen,10_31_0,2023-11-20T15:32:39.040Z,,,,1,0.0283578106329894,-0.0088840758711548,,0.04,true,ll,4469.612000047695,response,-0.6587877790606119,0.6468230201876481,-0.6734705739461858,-0.5136176597311,0.6598137752706672,-0.5759191896046014,low,low,,ISIC_0060707.JPG,9,ISIC_0067318.JPG,95,false,0.1,ll,keypress(f),0,false,833462.5,833462.2000000477,828976.045,829193.3999999762,828992.588,833284.404,4,500,32,
break,html.Screen,10_31_1,2023-11-20T15:32:39.041Z,,,,,,,,,,,NaN,,,,,,,,low,low,,,,,,false,,,,,false,833463.7000000477,833463.5,,833463,,833284.404,4,500,,
break_continue,html.Screen,10_31_2,2023-11-20T15:32:39.042Z,,,,,,,,,,,NaN,,,,,,,,low,low,,,,,,false,,,,,false,833464.7000000477,833464.2999999523,,833464,,833284.404,4,500,,
sequence,flow.Sequence,10_31,2023-11-20T15:32:39.042Z,,,,,,,,,,,4471.7119999523275,completion,,,,,,,low,low,,,,,,false,,,,,false,833465,833464.2999999523,828976.045,829193.3999999762,828992.588,833284.404,4,500,,
trial,html.Screen,10_32_0,2023-11-20T15:32:42.384Z,,,,1,-0.0388334549081915,0.0303399972963369,,0.04,true,lh,3521.9959999761777,response,-0.6247480605482788,0.6468230201876481,-0.6734705739461858,0.7543386176997238,0.6598137752706672,-0.5759191896046014,low,high,,ISIC_4961708.JPG,10,ISIC_5776158.JPG,35,false,0.1,lh,keypress(e),0,false,836806.7000000477,836806.3999999762,833267.749,833465.2999999523,833284.404,836607.527,4,500,33,
break,html.Screen,10_32_1,2023-11-20T15:32:42.385Z,,,,,,,,,,,NaN,,,,,,,,low,high,,,,,,false,,,,,false,836807.8999999762,836807.7000000477,,836807.2000000477,,836607.527,4,500,,
break_continue,html.Screen,10_32_2,2023-11-20T15:32:42.386Z,,,,,,,,,,,NaN,,,,,,,,low,high,,,,,,false,,,,,false,836808.8999999762,836808.5,,836808.2999999523,,836607.527,4,500,,
sequence,flow.Sequence,10_32,2023-11-20T15:32:42.386Z,,,,,,,,,,,3524.0960000000196,completion,,,,,,,low,high,,,,,,false,,,,,false,836809.2000000477,836808.5,833267.749,833465.2999999523,833284.404,836607.527,4,500,,
trial,html.Screen,10_33_0,2023-11-20T15:32:46.776Z,,,,1,-0.0109416414475118,-0.005246498750811,,0.04,true,lh,4590.772999952314,response,-0.5935406865478525,0.6468230201876481,-0.6734705739461858,0.6173559107471093,0.6598137752706672,-0.5759191896046014,low,high,,ISIC_0064279.JPG,9,ISIC_1806179.JPG,35,false,0.1,lh,keypress(e),0,false,841198.7000000477,841198.2999999523,836590.845,836809.3999999762,836607.527,840999.309,4,500,34,
break,html.Screen,10_33_1,2023-11-20T15:32:46.777Z,,,,,,,,,,,NaN,,,,,,,,low,high,,,,,,false,,,,,false,841200,841199.6000000238,,841199.1000000238,,840999.309,4,500,,
break_continue,html.Screen,10_33_2,2023-11-20T15:32:46.778Z,,,,,,,,,,,NaN,,,,,,,,low,high,,,,,,false,,,,,false,841200.8999999762,841200.6000000238,,841200.2999999523,,840999.309,4,500,,
sequence,flow.Sequence,10_33,2023-11-20T15:32:46.779Z,,,,,,,,,,,4593.07300002384,completion,,,,,,,low,high,,,,,,false,,,,,false,841201.2999999523,841200.6000000238,836590.845,836809.3999999762,836607.527,840999.309,4,500,,
trial,html.Screen,10_34_0,2023-11-20T15:32:51.921Z,,,,1,0.0286056110007553,0.036125199756515,,0.04,true,lh,5342.990999952308,response,-0.7305475296009624,0.6468230201876481,-0.6734705739461858,0.7442779237098178,0.6598137752706672,-0.5759191896046014,low,high,,ISIC_6535558.JPG,8,ISIC_7266604.JPG,35,false,0.1,lh,keypress(e),0,false,846342.6000000238,846342.2999999523,840982.64,841201.6000000238,840999.309,846142.541,4,500,35,
break,html.Screen,10_34_1,2023-11-20T15:32:51.922Z,,,,,,,,,,,NaN,,,,,,,,low,high,,,,,,false,,,,,false,846343.8999999762,846343.6000000238,,846343.1000000238,,846142.541,4,500,,
break_continue,html.Screen,10_34_2,2023-11-20T15:32:51.923Z,,,,,,,,,,,NaN,,,,,,,,low,high,,,,,,false,,,,,false,846344.7999999523,846344.3999999762,,846344.1000000238,,846142.541,4,500,,
sequence,flow.Sequence,10_34,2023-11-20T15:32:51.924Z,,,,,,,,,,,5345.09099997615,completion,,,,,,,low,high,,,,,,false,,,,,false,846345.1000000238,846344.3999999762,840982.64,841201.5,840999.309,846142.541,4,500,,
trial,html.Screen,10_35_0,2023-11-20T15:32:55.207Z,,,,1,0.0308384937406319,-0.0038396364323947,,0.04,true,ll,3486.35899997619,response,-0.7102636076886534,0.6468230201876481,-0.6734705739461858,-0.6355372377297291,0.6598137752706672,-0.5759191896046014,low,low,,ISIC_0029825.JPG,8,ISIC_0030110.JPG,95,false,0.1,ll,keypress(f),0,false,849629.1000000238,849628.8999999762,846126.098,846345.3999999762,846142.541,849432.295,4,500,36,
break,html.Screen,10_35_1,2023-11-20T15:32:55.208Z,,,,,,,,,,,NaN,,,,,,,,low,low,,,,,,false,,,,,false,849629.6000000238,849629.5,,849629.2000000477,,849432.295,4,500,,
break_continue,html.Screen,10_35_2,2023-11-20T15:32:55.208Z,,,,,,,,,,,NaN,,,,,,,,low,low,,,,,,false,,,,,false,849629.8999999762,849629.7000000477,,849629.7000000477,,849432.295,4,500,,
sequence,flow.Sequence,10_35,2023-11-20T15:32:55.208Z,,,,,,,,,,,3487.1590000477154,completion,,,,,,,low,low,,,,,,false,,,,,false,849630.1000000238,849629.7000000477,846126.098,846345.3999999762,846142.541,849432.295,4,500,,
trial,html.Screen,10_36_0,2023-11-20T15:32:58.071Z,,,,1,0.0119001144851157,-0.0063430114540141,,0.04,true,hh,3060.3050000238,response,0.6635309210210453,0.6468230201876481,-0.6734705739461858,0.7075466560260553,0.6598137752706672,-0.5759191896046014,high,high,,ISIC_0003822.JPG,8,ISIC_4695051.JPG,96,false,0.1,hh,keypress(i),0,false,852492.6000000238,852492.6000000238,849415.802,849630.2000000477,849432.295,852287.851,4,500,37,
break,html.Screen,10_36_1,2023-11-20T15:32:58.071Z,,,,,,,,,,,NaN,,,,,,,,high,high,,,,,,false,,,,,false,852493,852492.8999999762,,852492.7999999523,,852287.851,4,500,,
break_continue,html.Screen,10_36_2,2023-11-20T15:32:58.072Z,,,,,,,,,,,NaN,,,,,,,,high,high,,,,,,false,,,,,false,852493.2999999523,852493.1000000238,,852493.1000000238,,852287.851,4,500,,
sequence,flow.Sequence,10_36,2023-11-20T15:32:58.072Z,,,,,,,,,,,3060.8050000238,completion,,,,,,,high,high,,,,,,false,,,,,false,852493.2999999523,852493.1000000238,849415.802,849630.1000000238,849432.295,852287.851,4,500,,
trial,html.Screen,10_37_0,2023-11-20T15:33:01.129Z,,,,1,-0.039520186367207,-0.0377961575607372,,0.04,true,lh,3262.3490000476595,response,-0.6977425554159972,0.6468230201876481,-0.6734705739461858,0.7551140009008973,0.6598137752706672,-0.5759191896046014,low,high,,ISIC_6356149.JPG,9,ISIC_8523143.JPG,35,false,0.1,lh,keypress(e),0,false,855550.5,855550.2000000477,852271.234,852493.3999999762,852287.851,855343.798,4,500,38,
break,html.Screen,10_37_1,2023-11-20T15:33:01.130Z,,,,,,,,,,,NaN,,,,,,,,low,high,,,,,,false,,,,,false,855551.6000000238,855551.3999999762,,855550.7999999523,,855343.798,4,500,,
break_continue,html.Screen,10_37_2,2023-11-20T15:33:01.131Z,,,,,,,,,,,NaN,,,,,,,,low,high,,,,,,false,,,,,false,855552.5,855552.1000000238,,855551.8999999762,,855343.798,4,500,,
sequence,flow.Sequence,10_37,2023-11-20T15:33:01.131Z,,,,,,,,,,,3264.2490000238176,completion,,,,,,,low,high,,,,,,false,,,,,false,855552.7999999523,855552.1000000238,852271.234,852493.3999999762,852287.851,855343.798,4,500,,
trial,html.Screen,10_38_0,2023-11-20T15:33:04.928Z,,,,1,0.0283578106329894,-0.0088840758711548,,0.04,true,lh,4005.402000047732,response,-0.6700895381759688,0.6468230201876481,-0.6734705739461858,0.6413536102571755,0.6598137752706672,-0.5759191896046014,low,high,,ISIC_0060707.JPG,10,ISIC_0066149.JPG,35,false,0.1,lh,keypress(e),0,false,859349.2999999523,859349.2000000477,855327.338,855553.1000000238,855343.798,859151.426,4,500,39,
break,html.Screen,10_38_1,2023-11-20T15:33:04.928Z,,,,,,,,,,,NaN,,,,,,,,low,high,,,,,,false,,,,,false,859349.8999999762,859349.7999999523,,859349.5,,859151.426,4,500,,
break_continue,html.Screen,10_38_2,2023-11-20T15:33:04.929Z,,,,,,,,,,,NaN,,,,,,,,low,high,,,,,,false,,,,,false,859350.2999999523,859350.2000000477,,859350,,859151.426,4,500,,
sequence,flow.Sequence,10_38,2023-11-20T15:33:04.929Z,,,,,,,,,,,4006.402000047732,completion,,,,,,,low,high,,,,,,false,,,,,false,859350.3999999762,859350.2000000477,855327.338,855553,855343.798,859151.426,4,500,,
