sender,sender_type,sender_id,timestamp,meta,,age,blockNo,c1,c2,condition,control_tolerance,correct,correctResponse,duration,ended_on,f1,f1_high,f1_low,f2,f2_high,f2_low,feature_level1,feature_level2,gender,img_left,img_reveal,img_right,n_target_images,practice,range_tolerance,response,response_action,selection_duration,staircase,time_commit,time_end,time_render,time_run,time_show,time_switch,total_blocks,total_trials,trialNo,url
informed_consent,html.Screen,0,2023-11-20T15:28:08.498Z,"{""labjs_version"":""20.2.4"",""labjs_build"":{""flavor"":""development"",""commit"":""f5b4a49f956347addd546a832a3327688c2c0fef""},""location"":""https://labjs.felixhenninger.com/api/labjs_preview/index.html"",""userAgent"":""Mozilla/5.0 (Windows NT 10.0; Win64; x64) AppleWebKit/537.36 (KHTML, like Gecko) Chrome/119.0.0.0 Safari/537.36"",""platform"":""Win32"",""language"":""en-US"",""locale"":""en-US"",""timeZone"":""America/Chicago"",""timezoneOffset"":360,""screen_width"":1920,""screen_height"":1080,""scroll_width"":945,""scroll_height"":918,""window_innerWidth"":945,""window_innerHeight"":966,""devicePixelRatio"":1}",,,,,,,,,,13554.956,response,,,,,,,,,,,,,,,,consent,click button,,,14252.699999988079,14243.5,671.883,888.3000000119209,688.544,14038.582,,,,{}
Demography form,html.Form,1,2023-11-20T15:28:16.441Z,,,20,,,,,,,,8157.117999988079,form submission,,,,,,,,,male,,,,,,,,,,,22196,22195.69999998808,14021.935,14252.899999976158,14038.582,21988.595,,,,
Welcome,html.Screen,2,2023-11-20T15:28:17.969Z,,,,,,,"[""asym"",""bor""]",,,,1734.9049999999988,response,,,,,,,,,,,,,,,,continue,click button,,,23724,23723.5,21971.885,22196.100000023842,21988.595,23521.89,,,,
demo_instructions,html.Screen,3,2023-11-20T15:28:29.809Z,,,,,,,,,,,12041.509999976159,response,,,,,,,,,,,,,,,,continue,click button,,,35564,35563.39999997616,23505.202,23724.100000023842,23521.89,35372.052,,,,
trial,html.Screen,4_0_0,2023-11-20T15:28:34.678Z,,,,0,-1.152619213055059,-1.1117876838408909,,,true,hh,5059.947999999997,response,1.09666761087476,1.2,-1.2,1.1072126870290426,1.2,-1.2,high,high,,ISIC_0061915.JPG,,ISIC_0071754.JPG,26,true,0.15000000000000002,hh,keypress(i),100,false,40432.60000002384,40432,35355.153,35564.10000002384,35372.052,40238.625,1,16,1,
sequence,flow.Sequence,4_0,2023-11-20T15:28:34.691Z,,,,,,,,,,,5059.947999999997,completion,,,,,,,high,high,,,,,,true,,,,,false,40445.30000001192,40432,35355.153,35564.10000002384,35372.052,40238.625,1,16,,
trial,html.Screen,4_1_0,2023-11-20T15:28:36.523Z,,,,0,-1.2071341803968807,-1.235960269089932,,,true,hh,2038.4750000238419,response,1.2724584600905462,1.2,-1.2,1.1411016103695344,1.2,-1.2,high,high,,ISIC_0058174.JPG,,ISIC_0059625.JPG,26,true,0.15000000000000002,hh,keypress(i),100,false,42277.5,42277.10000002384,40221.783,40445.39999997616,40238.625,42088.634,1,16,2,
sequence,flow.Sequence,4_1,2023-11-20T15:28:36.523Z,,,,,,,,,,,2038.4750000238419,completion,,,,,,,high,high,,,,,,true,,,,,false,42278,42277.10000002384,40221.783,40445.30000001192,40238.625,42088.634,1,16,,
trial,html.Screen,4_2_0,2023-11-20T15:28:38.699Z,,,,0,-1.101214461533281,-1.1849883512428183,,,true,hh,2364.4660000238437,response,1.09666761087476,1.2,-1.2,1.1072126870290426,1.2,-1.2,high,high,,ISIC_0064943.JPG,,ISIC_0071754.JPG,26,true,0.15000000000000002,hh,keypress(i),100,false,44453.5,44453.10000002384,42071.875,42278.39999997616,42088.634,44255.362,1,16,3,
sequence,flow.Sequence,4_2,2023-11-20T15:28:38.700Z,,,,,,,,,,,2364.4660000238437,completion,,,,,,,high,high,,,,,,true,,,,,false,44454.19999998808,44453.10000002384,42071.875,42278.30000001192,42088.634,44255.362,1,16,,
trial,html.Screen,4_3_0,2023-11-20T15:28:40.617Z,,,,0,-1.1346217981791904,-1.1555132168806113,,,true,hh,2115.738000023841,response,1.09666761087476,1.2,-1.2,1.1072126870290426,1.2,-1.2,high,high,,ISIC_0032771.JPG,,ISIC_0071754.JPG,26,true,0.15000000000000002,hh,keypress(i),100,false,46371.60000002384,46371.10000002384,44238.563,44454.5,44255.362,46171.864,1,16,4,
sequence,flow.Sequence,4_3,2023-11-20T15:28:40.618Z,,,,,,,,,,,2115.738000023841,completion,,,,,,,high,high,,,,,,true,,,,,false,46372.19999998808,46371.10000002384,44238.563,44454.39999997616,44255.362,46171.864,1,16,,
trial,html.Screen,4_4_0,2023-11-20T15:28:45.929Z,,,,0,1.1137763092539212,1.1599906701455132,,,true,ll,5511.9360000119195,response,-1.1346217981791904,1.2,-1.2,-1.1555132168806113,1.2,-1.2,low,low,,ISIC_5413788.JPG,,ISIC_0032771.JPG,30,true,0.1,ll,keypress(f),100,false,51683.89999997616,51683.80000001192,46155.206,46372.5,46171.864,51488.437,1,16,5,
sequence,flow.Sequence,4_4,2023-11-20T15:28:45.929Z,,,,,,,,,,,5511.9360000119195,completion,,,,,,,low,low,,,,,,true,,,,,false,51684.10000002384,51683.80000001192,46155.206,46372.30000001192,46171.864,51488.437,1,16,,
trial,html.Screen,4_5_0,2023-11-20T15:28:49.438Z,,,,0,1.2503149164557643,1.0796591227570405,,,true,ll,3703.96299997616,response,-1.2493792664822851,1.2,-1.2,-1.1336008561684745,1.2,-1.2,low,low,,ISIC_2466892.JPG,,ISIC_0061475.JPG,53,true,0.15000000000000002,ll,keypress(f),100,false,55192.5,55192.39999997616,51471.794,51684.10000002384,51488.437,55005.1,1,16,6,
sequence,flow.Sequence,4_5,2023-11-20T15:28:49.438Z,,,,,,,,,,,3703.96299997616,completion,,,,,,,low,low,,,,,,true,,,,,false,55192.69999998808,55192.39999997616,51471.794,51684.10000002384,51488.437,55005.1,1,16,,
trial,html.Screen,4_6_0,2023-11-20T15:28:51.125Z,,,,0,1.2024083555600384,1.149077673153018,,,true,ll,1873.0000000238433,response,-1.1721505400949757,1.2,-1.2,-1.3324676785261087,1.2,-1.2,low,low,,ISIC_3566243.JPG,,ISIC_0000167.JPG,53,true,0.15000000000000002,ll,keypress(f),100,false,56878.39999997616,56878.10000002384,54988.427,55192.80000001192,55005.1,56688.611,1,16,7,
sequence,flow.Sequence,4_6,2023-11-20T15:28:51.125Z,,,,,,,,,,,1873.0000000238433,completion,,,,,,,low,low,,,,,,true,,,,,false,56878.80000001192,56878.10000002384,54988.427,55192.80000001192,55005.1,56688.611,1,16,,
trial,html.Screen,4_7_0,2023-11-20T15:28:55.188Z,,,,0,1.2012395086389958,1.0618985767073823,,,true,ll,4252.788999976161,response,-1.0525532302758762,1.2,-1.2,-1.1628982512509805,1.2,-1.2,low,low,,ISIC_9876004.JPG,,ISIC_0033428.JPG,53,true,0.15000000000000002,ll,keypress(f),100,false,60941.60000002384,60941.39999997616,56671.823,56879.10000002384,56688.611,60755.053,1,16,8,
sequence,flow.Sequence,4_7,2023-11-20T15:28:55.188Z,,,,,,,,,,,4252.788999976161,completion,,,,,,,low,low,,,,,,true,,,,,false,60942,60941.39999997616,56671.823,56879,56688.611,60755.053,1,16,,
trial,html.Screen,4_8_0,2023-11-20T15:28:59.327Z,,,,0,1.020990671779317,-1.0116513850520903,,,true,lh,4325.047000023842,response,-0.7911024675435955,1.2,-1.2,0.7975977016137676,1.2,-1.2,low,high,,ISIC_0011995.JPG,,ISIC_5813642.JPG,27,true,0.42000000000000026,lh,keypress(e),100,false,65080.30000001192,65080.10000002384,60721.799,60942.19999998808,60755.053,64888.678,1,16,9,
sequence,flow.Sequence,4_8,2023-11-20T15:28:59.327Z,,,,,,,,,,,4325.047000023842,completion,,,,,,,low,high,,,,,,true,,,,,false,65080.39999997616,65080.10000002384,60721.799,60942.19999998808,60755.053,64888.678,1,16,,
trial,html.Screen,4_9_0,2023-11-20T15:29:01.820Z,,,,0,0.8809306963311293,-0.8614910030038974,,,true,lh,2684.422000023842,response,-1.4092385398614515,1.2,-1.2,1.3046237992197836,1.2,-1.2,low,high,,ISIC_0013731.JPG,,ISIC_7254359.JPG,27,true,0.42000000000000026,lh,keypress(e),100,false,67573.5,67573.10000002384,64871.762,65080.5,64888.678,67371.757,1,16,10,
sequence,flow.Sequence,4_9,2023-11-20T15:29:01.820Z,,,,,,,,,,,2684.422000023842,completion,,,,,,,low,high,,,,,,true,,,,,false,67573.89999997616,67573.10000002384,64871.762,65080.39999997616,64888.678,67371.757,1,16,,
trial,html.Screen,4_10_0,2023-11-20T15:29:03.818Z,,,,0,0.8534691366511764,-1.03975580494588,,,true,lh,2199.343000023844,response,-0.7870237732709365,1.2,-1.2,0.9172955251119376,1.2,-1.2,low,high,,ISIC_0056788.JPG,,ISIC_0057716.JPG,27,true,0.42000000000000026,lh,keypress(e),100,false,69571.39999997616,69571.10000002384,67355.153,67574,67371.757,69371.746,1,16,11,
sequence,flow.Sequence,4_10,2023-11-20T15:29:03.818Z,,,,,,,,,,,2199.343000023844,completion,,,,,,,low,high,,,,,,true,,,,,false,69571.80000001192,69571.10000002384,67355.153,67574,67371.757,69371.746,1,16,,
trial,html.Screen,4_11_0,2023-11-20T15:29:08.103Z,,,,0,1.0026266089287914,-1.0913275913920335,,,true,lh,4484.554000011922,response,-0.9235571765207048,1.2,-1.2,1.0008081653938232,1.2,-1.2,low,high,,ISIC_0033520.JPG,,ISIC_8796632.JPG,27,true,0.42000000000000026,lh,keypress(e),100,false,73856.69999998808,73856.30000001192,69355.154,69572,69371.746,73655.041,1,16,12,
sequence,flow.Sequence,4_11,2023-11-20T15:29:08.104Z,,,,,,,,,,,4484.554000011922,completion,,,,,,,low,high,,,,,,true,,,,,false,73857.10000002384,73856.30000001192,69355.154,69572,69371.746,73655.041,1,16,,
trial,html.Screen,4_12_0,2023-11-20T15:29:09.891Z,,,,0,-1.0213365328004047,1.088524359911891,,,true,hl,1988.9590000000026,response,1.0865333402803938,1.2,-1.2,-1.0542635307358266,1.2,-1.2,high,low,,ISIC_5434229.JPG,,ISIC_0034006.JPG,26,true,0.3600000000000002,hl,keypress(j),100,false,75644.19999998808,75644,73638.436,73857.30000001192,73655.041,75455.058,1,16,13,
sequence,flow.Sequence,4_12,2023-11-20T15:29:09.891Z,,,,,,,,,,,1988.9590000000026,completion,,,,,,,high,low,,,,,,true,,,,,false,75644.69999998808,75644,73638.436,73857.19999998808,73655.041,75455.058,1,16,,
trial,html.Screen,4_13_0,2023-11-20T15:29:12.499Z,,,,0,-1.276222161935671,0.9657780821973284,,,true,hl,2797.1419999880745,response,0.8579451262594331,1.2,-1.2,-0.9633172970727744,1.2,-1.2,high,low,,ISIC_6710411.JPG,,ISIC_0067172.JPG,33,true,0.42000000000000026,hl,keypress(j),100,false,78252.5,78252.19999998808,75438.423,75645,75455.058,78055.042,1,16,14,
sequence,flow.Sequence,4_13,2023-11-20T15:29:12.499Z,,,,,,,,,,,2797.1419999880745,completion,,,,,,,high,low,,,,,,true,,,,,false,78253,78252.19999998808,75438.423,75645,75455.058,78055.042,1,16,,
trial,html.Screen,4_14_0,2023-11-20T15:29:13.733Z,,,,0,-0.796241477082623,0.9017449335975743,,,true,hl,1431.1579999880778,response,0.991282840649944,1.2,-1.2,-0.9397921099839784,1.2,-1.2,high,low,,ISIC_8588033.JPG,,ISIC_0000463.JPG,33,true,0.42000000000000026,hl,keypress(j),100,false,79486.39999997616,79486.19999998808,78038.463,78253.10000002384,78055.042,79288.389,1,16,15,
sequence,flow.Sequence,4_14,2023-11-20T15:29:13.733Z,,,,,,,,,,,1431.1579999880778,completion,,,,,,,high,low,,,,,,true,,,,,false,79486.89999997616,79486.19999998808,78038.463,78253.10000002384,78055.042,79288.389,1,16,,
trial,html.Screen,4_15_0,2023-11-20T15:29:15.463Z,,,,0,-0.9235571765207048,1.0008081653938232,,,true,hl,1927.7110000238463,response,1.0865333402803938,1.2,-1.2,-1.0542635307358266,1.2,-1.2,high,low,,ISIC_8796632.JPG,,ISIC_0034006.JPG,33,true,0.42000000000000026,hl,keypress(j),100,false,81216.39999997616,81216.10000002384,79271.753,79487.10000002384,79288.389,81021.69,1,16,16,
sequence,flow.Sequence,4_15,2023-11-20T15:29:15.463Z,,,,,,,,,,,1927.7110000238463,completion,,,,,,,high,low,,,,,,true,,,,,false,81217,81216.10000002384,79271.753,79487,79288.389,81021.69,1,16,,
demonstration_loop,flow.Loop,4,2023-11-20T15:29:15.464Z,,,,,,,,,,,45844.04800002384,completion,,,,,,,,,,,,,,true,,,,,false,81217.10000002384,81216.10000002384,35355.153,35564.10000002384,35372.052,81021.69,1,16,,
practice_instructions,html.Screen,5,2023-11-20T15:29:23.146Z,,,,,,,,,,,7877.509999988077,response,,,,,,,,,,,,,,,,continue,click button,,,88899.69999998808,88899.19999998808,81005.113,81217.30000001192,81021.69,88705.274,,,,
trial,html.Screen,6_0_0,2023-11-20T15:29:27.602Z,,,,1,-1.2254187569955004,-1.174555235109734,,,true,hh,4643.225999999995,response,1.0858641668099058,1.2,-1.2,1.1638942560200525,1.2,-1.2,high,high,,ISIC_0027187.JPG,,ISIC_5439597.JPG,26,true,0.15000000000000002,hh,keypress(i),0,false,93355.19999998808,93348.5,88688.374,88899.80000001192,88705.274,93154.957,1,40,1,
sequence,flow.Sequence,6_0,2023-11-20T15:29:27.602Z,,,,,,,,,,,4643.225999999995,completion,,,,,,,high,high,,,,,,true,,,,,false,93355.39999997616,93348.5,88688.374,88899.80000001192,88705.274,93154.957,1,40,,
trial,html.Screen,6_1_0,2023-11-20T15:29:36.419Z,,,,1,-1.0022829373011404,0.8311726972863814,,,true,hl,9017.543000000005,response,1.020990671779317,1.2,-1.2,-1.0116513850520903,1.2,-1.2,high,low,,ISIC_0033287.JPG,,ISIC_0011995.JPG,26,true,0.3600000000000002,hl,keypress(j),0,false,102172.60000002384,102172.5,93138.324,93355.39999997616,93154.957,101954.91,1,40,2,
sequence,flow.Sequence,6_1,2023-11-20T15:29:36.419Z,,,,,,,,,,,9017.543000000005,completion,,,,,,,high,low,,,,,,true,,,,,false,102172.69999998808,102172.5,93138.324,93355.39999997616,93154.957,101954.91,1,40,,
trial,html.Screen,6_2_0,2023-11-20T15:29:37.907Z,,,,1,-1.1383813631375823,-1.1319312220332556,,,true,hh,1705.4899999761546,response,1.2318069697449794,1.2,-1.2,1.1703576816778267,1.2,-1.2,high,high,,ISIC_6227397.JPG,,ISIC_2732573.JPG,253,true,0.42000000000000026,hh,keypress(i),0,false,103660.39999997616,103660.39999997616,101938.233,102172.69999998808,101954.91,103455.245,1,40,3,
sequence,flow.Sequence,6_2,2023-11-20T15:29:37.907Z,,,,,,,,,,,1705.4899999761546,completion,,,,,,,high,high,,,,,,true,,,,,false,103660.60000002384,103660.39999997616,101938.233,102172.69999998808,101954.91,103455.245,1,40,,
trial,html.Screen,6_3_0,2023-11-20T15:29:39.388Z,,,,1,-1.2282561398079586,-1.210457198775374,,,true,hh,1686.0550000119256,response,1.0959058628476686,1.2,-1.2,1.1684835186766898,1.2,-1.2,high,high,,ISIC_9141817.JPG,,ISIC_5920470.JPG,26,true,0.15000000000000002,hh,keypress(i),0,false,105141.60000002384,105141.30000001192,103438.557,103660.69999998808,103455.245,104938.59,1,40,4,
sequence,flow.Sequence,6_3,2023-11-20T15:29:39.388Z,,,,,,,,,,,1686.0550000119256,completion,,,,,,,high,high,,,,,,true,,,,,false,105142,105141.30000001192,103438.557,103660.69999998808,103455.245,104938.59,1,40,,
trial,html.Screen,6_4_0,2023-11-20T15:29:41.540Z,,,,1,-1.2181031651370575,-1.2158573487067317,,,true,hh,2354.7100000119244,response,1.0717785279820962,1.2,-1.2,1.1267239445830604,1.2,-1.2,high,high,,ISIC_7242312.JPG,,ISIC_9948815.JPG,26,true,0.15000000000000002,hh,keypress(i),0,false,107293.60000002384,107293.30000001192,104921.816,105142.10000002384,104938.59,107088.538,1,40,5,
sequence,flow.Sequence,6_4,2023-11-20T15:29:41.540Z,,,,,,,,,,,2354.7100000119244,completion,,,,,,,high,high,,,,,,true,,,,,false,107294,107293.30000001192,104921.816,105142.10000002384,104938.59,107088.538,1,40,,
trial,html.Screen,6_5_0,2023-11-20T15:29:42.947Z,,,,1,1.1388430156686884,1.2700552354887775,,,false,ll,1611.8619999761577,response,-1.255256820488545,1.2,-1.2,-1.1206426433062562,1.2,-1.2,low,low,,ISIC_9939653.JPG,,ISIC_0024652.JPG,30,true,0.1,lh,keypress(e),0,false,108700.5,108700.39999997616,107071.817,107294.10000002384,107088.538,108488.279,1,40,6,
sequence,flow.Sequence,6_5,2023-11-20T15:29:42.947Z,,,,,,,,,,,1611.8619999761577,completion,,,,,,,low,low,,,,,,true,,,,,false,108700.69999998808,108700.39999997616,107071.817,107294.10000002384,107088.538,108488.279,1,40,,
trial,html.Screen,6_6_0,2023-11-20T15:29:45.053Z,,,,1,-0.796241477082623,0.9017449335975743,,,true,hl,2317.521000011926,response,1.2364994561934892,1.2,-1.2,-0.9174173651516624,1.2,-1.2,high,low,,ISIC_8588033.JPG,,ISIC_3481133.JPG,26,true,0.3600000000000002,hl,keypress(j),0,false,110806.10000002384,110805.80000001192,108471.779,108700.69999998808,108488.279,110605.442,1,40,7,
sequence,flow.Sequence,6_6,2023-11-20T15:29:45.053Z,,,,,,,,,,,2317.521000011926,completion,,,,,,,high,low,,,,,,true,,,,,false,110806.30000001192,110805.80000001192,108471.779,108700.69999998808,108488.279,110605.442,1,40,,
trial,html.Screen,6_7_0,2023-11-20T15:29:47.244Z,,,,1,0.991282840649944,-0.9397921099839784,,,false,lh,2391.7579999880836,response,-0.7911024675435955,1.2,-1.2,0.7975977016137676,1.2,-1.2,low,high,,ISIC_0000463.JPG,,ISIC_5813642.JPG,27,true,0.42000000000000026,ll,keypress(f),0,false,112997.60000002384,112997.19999998808,110571.83,110806.5,110605.442,112788.34,1,40,8,
sequence,flow.Sequence,6_7,2023-11-20T15:29:47.245Z,,,,,,,,,,,2391.7579999880836,completion,,,,,,,low,high,,,,,,true,,,,,false,112998,112997.19999998808,110571.83,110806.5,110605.442,112788.34,1,40,,
trial,html.Screen,6_8_0,2023-11-20T15:29:48.427Z,,,,1,-1.152619213055059,-1.1117876838408909,,,true,hh,1392.0599999761616,response,0.8529242055711017,1.2,-1.2,0.9691635021928308,1.2,-1.2,high,high,,ISIC_0061915.JPG,,ISIC_8169564.JPG,179,true,0.3600000000000002,hh,keypress(i),0,false,114180.5,114180.39999997616,112771.826,112998.30000001192,112788.34,113971.671,1,40,9,
sequence,flow.Sequence,6_8,2023-11-20T15:29:48.427Z,,,,,,,,,,,1392.0599999761616,completion,,,,,,,high,high,,,,,,true,,,,,false,114180.69999998808,114180.39999997616,112771.826,112998.30000001192,112788.34,113971.671,1,40,,
trial,html.Screen,6_9_0,2023-11-20T15:29:49.547Z,,,,1,1.1598623261077452,1.203269031614007,,,false,ll,1328.4290000238398,response,-1.1474466950560966,1.2,-1.2,-1.268445326285509,1.2,-1.2,low,low,,ISIC_0002639.JPG,,ISIC_5216586.JPG,30,true,0.1,hl,keypress(j),0,false,115300.19999998808,115300.10000002384,113955.156,114180.69999998808,113971.671,115088.229,1,40,10,
sequence,flow.Sequence,6_9,2023-11-20T15:29:49.547Z,,,,,,,,,,,1328.4290000238398,completion,,,,,,,low,low,,,,,,true,,,,,false,115300.30000001192,115300.10000002384,113955.156,114180.69999998808,113971.671,115088.229,1,40,,
trial,html.Screen,6_10_0,2023-11-20T15:29:51.254Z,,,,1,-0.8947611078712571,0.8960964505004638,,,true,hl,1917.6709999761515,response,0.9433720631499012,1.2,-1.2,-1.0582071940347648,1.2,-1.2,high,low,,ISIC_6441128.JPG,,ISIC_4890201.JPG,26,true,0.3600000000000002,hl,keypress(j),0,false,117006.10000002384,117005.89999997616,115071.591,115300.39999997616,115088.229,116805.855,1,40,11,
sequence,flow.Sequence,6_10,2023-11-20T15:29:51.254Z,,,,,,,,,,,1917.6709999761515,completion,,,,,,,high,low,,,,,,true,,,,,false,117006.39999997616,117005.89999997616,115071.591,115300.39999997616,115088.229,116805.855,1,40,,
trial,html.Screen,6_11_0,2023-11-20T15:29:53.486Z,,,,1,-1.272699544571422,-1.12917997553565,,,true,hh,2431.445000011925,response,1.008381128411934,1.2,-1.2,1.0088020117106191,1.2,-1.2,high,high,,ISIC_0012057.JPG,,ISIC_6546903.JPG,253,true,0.42000000000000026,hh,keypress(i),0,false,119237.60000002384,119237.30000001192,116771.819,117006.60000002384,116805.855,119038.24,1,40,12,
sequence,flow.Sequence,6_11,2023-11-20T15:29:53.486Z,,,,,,,,,,,2431.445000011925,completion,,,,,,,high,high,,,,,,true,,,,,false,119237.89999997616,119237.30000001192,116771.819,117006.60000002384,116805.855,119038.24,1,40,,
trial,html.Screen,6_12_0,2023-11-20T15:29:56.229Z,,,,1,1.0751036484083878,-1.143906455483852,,,true,lh,2942.8600000238366,response,-0.8623414234919863,1.2,-1.2,0.782830143980698,1.2,-1.2,low,high,,ISIC_0064406.JPG,,ISIC_2727016.JPG,27,true,0.42000000000000026,lh,keypress(e),0,false,121981.39999997616,121981.10000002384,119005.106,119238.19999998808,119038.24,121771.549,1,40,13,
sequence,flow.Sequence,6_12,2023-11-20T15:29:56.230Z,,,,,,,,,,,2942.8600000238366,completion,,,,,,,low,high,,,,,,true,,,,,false,121981.80000001192,121981.10000002384,119005.106,119238.19999998808,119038.24,121771.549,1,40,,
trial,html.Screen,6_13_0,2023-11-20T15:29:59.070Z,,,,1,1.4747161152848791,-0.847048591307387,,,true,lh,3049.850999976159,response,-0.8655167308525522,1.2,-1.2,0.9298580423306444,1.2,-1.2,low,high,,ISIC_0016092.JPG,,ISIC_4603706.JPG,27,true,0.42000000000000026,lh,keypress(e),0,false,124821.69999998808,124821.39999997616,121755.117,121981.89999997616,121771.549,124604.964,1,40,14,
sequence,flow.Sequence,6_13,2023-11-20T15:29:59.070Z,,,,,,,,,,,3049.850999976159,completion,,,,,,,low,high,,,,,,true,,,,,false,124822.10000002384,124821.39999997616,121755.117,121981.89999997616,121771.549,124604.964,1,40,,
trial,html.Screen,6_14_0,2023-11-20T15:30:01.422Z,,,,1,0.8809306963311293,-0.8614910030038974,,,true,lh,2568.3360000119137,response,-0.8816288864119318,1.2,-1.2,0.801867301188093,1.2,-1.2,low,high,,ISIC_0013731.JPG,,ISIC_9196783.JPG,27,true,0.42000000000000026,lh,keypress(e),0,false,127173.5,127173.30000001192,124588.348,124822.30000001192,124604.964,126971.811,1,40,15,
sequence,flow.Sequence,6_14,2023-11-20T15:30:01.422Z,,,,,,,,,,,2568.3360000119137,completion,,,,,,,low,high,,,,,,true,,,,,false,127173.80000001192,127173.30000001192,124588.348,124822.10000002384,124604.964,126971.811,1,40,,
trial,html.Screen,6_15_0,2023-11-20T15:30:02.846Z,,,,1,1.2012395086389958,1.0618985767073823,,,true,ll,1625.4890000119194,response,-0.8701282307001015,1.2,-1.2,-1.379652405947298,1.2,-1.2,low,low,,ISIC_9876004.JPG,,ISIC_0000174.JPG,245,true,0.3600000000000002,ll,keypress(f),0,false,128597.5,128597.30000001192,126955.124,127174,126971.811,128388.299,1,40,16,
sequence,flow.Sequence,6_15,2023-11-20T15:30:02.846Z,,,,,,,,,,,1625.4890000119194,completion,,,,,,,low,low,,,,,,true,,,,,false,128598,128597.30000001192,126955.124,127174,126971.811,128388.299,1,40,,
trial,html.Screen,6_16_0,2023-11-20T15:30:04.038Z,,,,1,-1.2071341803968807,-1.235960269089932,,,false,hh,1401.0010000119219,response,1.1388430156686884,1.2,-1.2,1.2700552354887775,1.2,-1.2,high,high,,ISIC_0058174.JPG,,ISIC_9939653.JPG,26,true,0.15000000000000002,hl,keypress(j),0,false,129789.5,129789.30000001192,128371.774,128598.10000002384,128388.299,129588.659,1,40,17,
sequence,flow.Sequence,6_16,2023-11-20T15:30:04.038Z,,,,,,,,,,,1401.0010000119219,completion,,,,,,,high,high,,,,,,true,,,,,false,129789.89999997616,129789.30000001192,128371.774,128598.10000002384,128388.299,129588.659,1,40,,
trial,html.Screen,6_17_0,2023-11-20T15:30:07.958Z,,,,1,1.2724584600905462,1.1411016103695344,,,true,ll,4120.7409999761585,response,-1.1474466950560966,1.2,-1.2,-1.268445326285509,1.2,-1.2,low,low,,ISIC_0059625.JPG,,ISIC_5216586.JPG,30,true,0.1,ll,keypress(f),0,false,133709.69999998808,133709.39999997616,129555.078,129790.10000002384,129588.659,133505.043,1,40,18,
sequence,flow.Sequence,6_17,2023-11-20T15:30:07.958Z,,,,,,,,,,,4120.7409999761585,completion,,,,,,,low,low,,,,,,true,,,,,false,133710.10000002384,133709.39999997616,129555.078,129790,129588.659,133505.043,1,40,,
trial,html.Screen,6_18_0,2023-11-20T15:30:09.350Z,,,,1,1.131522954199764,1.1047184491749509,,,true,ll,1597.156999988074,response,-1.2169050727663315,1.2,-1.2,-1.1067845563421794,1.2,-1.2,low,low,,ISIC_1868816.JPG,,ISIC_7016261.JPG,53,true,0.15000000000000002,ll,keypress(f),0,false,135102.5,135102.19999998808,133488.375,133710.30000001192,133505.043,134888.214,1,40,19,
sequence,flow.Sequence,6_18,2023-11-20T15:30:09.351Z,,,,,,,,,,,1597.156999988074,completion,,,,,,,low,low,,,,,,true,,,,,false,135102.80000001192,135102.19999998808,133488.375,133710.30000001192,133505.043,134888.214,1,40,,
trial,html.Screen,6_19_0,2023-11-20T15:30:10.598Z,,,,1,1.1653123206802332,1.2976858999596654,,,true,ll,1461.0860000119137,response,-1.247270138097585,1.2,-1.2,-1.1704704713504994,1.2,-1.2,low,low,,ISIC_0071508.JPG,,ISIC_0065774.JPG,53,true,0.15000000000000002,ll,keypress(f),0,false,136349.60000002384,136349.30000001192,134871.687,135103,134888.214,136138.199,1,40,20,
sequence,flow.Sequence,6_19,2023-11-20T15:30:10.598Z,,,,,,,,,,,1461.0860000119137,completion,,,,,,,low,low,,,,,,true,,,,,false,136350,136349.30000001192,134871.687,135103,134888.214,136138.199,1,40,,
trial,html.Screen,6_20_0,2023-11-20T15:30:12.015Z,,,,1,-0.7870237732709365,0.9172955251119376,,,true,hl,1628.1010000119277,response,0.9454713230140772,1.2,-1.2,-0.9245167441969216,1.2,-1.2,high,low,,ISIC_0057716.JPG,,ISIC_9101055.JPG,26,true,0.3600000000000002,hl,keypress(j),0,false,137766.60000002384,137766.30000001192,136121.686,136350.19999998808,136138.199,137554.924,1,40,21,
sequence,flow.Sequence,6_20,2023-11-20T15:30:12.015Z,,,,,,,,,,,1628.1010000119277,completion,,,,,,,high,low,,,,,,true,,,,,false,137767,137766.30000001192,136121.686,136350.10000002384,136138.199,137554.924,1,40,,
trial,html.Screen,6_21_0,2023-11-20T15:30:13.358Z,,,,1,-1.2750452296609045,-1.1682369131232675,,,true,hh,1554.6760000238428,response,1.435795807813916,1.2,-1.2,1.2137719707563364,1.2,-1.2,high,high,,ISIC_0066399.JPG,,ISIC_0025579.JPG,253,true,0.42000000000000026,hh,keypress(i),0,false,139109.80000001192,139109.60000002384,137538.238,137767.10000002384,137554.924,138905.119,1,40,22,
sequence,flow.Sequence,6_21,2023-11-20T15:30:13.358Z,,,,,,,,,,,1554.6760000238428,completion,,,,,,,high,high,,,,,,true,,,,,false,139110.19999998808,139109.60000002384,137538.238,137767.10000002384,137554.924,138905.119,1,40,,
trial,html.Screen,6_22_0,2023-11-20T15:30:14.566Z,,,,1,1.0858641668099058,1.1638942560200525,,,false,ll,1412.9810000238358,response,-1.126264390089724,1.2,-1.2,-1.271896565050952,1.2,-1.2,low,low,,ISIC_5439597.JPG,,ISIC_1520897.JPG,30,true,0.1,hl,keypress(j),0,false,140318.30000001192,140318.10000002384,138888.412,139110.39999997616,138905.119,140121.519,1,40,23,
sequence,flow.Sequence,6_22,2023-11-20T15:30:14.567Z,,,,,,,,,,,1412.9810000238358,completion,,,,,,,low,low,,,,,,true,,,,,false,140318.69999998808,140318.10000002384,138888.412,139110.30000001192,138905.119,140121.519,1,40,,
trial,html.Screen,6_23_0,2023-11-20T15:30:16.532Z,,,,1,-0.8947611078712571,0.8960964505004638,,,false,hl,2162.4809999999998,response,1.1181734135756094,1.2,-1.2,-0.944560381774994,1.2,-1.2,high,low,,ISIC_6441128.JPG,,ISIC_9688534.JPG,26,true,0.3600000000000002,ll,keypress(f),0,false,142284,142284,140088.207,140318.89999997616,140121.519,142071.525,1,40,24,
sequence,flow.Sequence,6_23,2023-11-20T15:30:16.532Z,,,,,,,,,,,2162.4809999999998,completion,,,,,,,high,low,,,,,,true,,,,,false,142284.19999998808,142284,140088.207,140318.89999997616,140121.519,142071.525,1,40,,
trial,html.Screen,6_24_0,2023-11-20T15:30:17.630Z,,,,1,0.8979276789594874,-0.925374811016654,,,true,lh,1310.174999988085,response,-0.796241477082623,1.2,-1.2,0.9017449335975743,1.2,-1.2,low,high,,ISIC_4208361.JPG,,ISIC_8588033.JPG,27,true,0.42000000000000026,lh,keypress(e),0,false,143382,143381.69999998808,142054.984,142284.19999998808,142071.525,143171.515,1,40,25,
sequence,flow.Sequence,6_24,2023-11-20T15:30:17.630Z,,,,,,,,,,,1310.174999988085,completion,,,,,,,low,high,,,,,,true,,,,,false,143382.30000001192,143381.69999998808,142054.984,142284.19999998808,142071.525,143171.515,1,40,,
trial,html.Screen,6_25_0,2023-11-20T15:30:18.885Z,,,,1,-0.8035152873995188,0.82868450251632,,,false,hl,1464.984999999986,response,0.879102500583965,1.2,-1.2,-1.0933081951979773,1.2,-1.2,high,low,,ISIC_0010671.JPG,,ISIC_0046223.JPG,26,true,0.3600000000000002,ll,keypress(f),0,false,144636.60000002384,144636.5,143155.116,143382.5,143171.515,144421.495,1,40,26,
sequence,flow.Sequence,6_25,2023-11-20T15:30:18.885Z,,,,,,,,,,,1464.984999999986,completion,,,,,,,high,low,,,,,,true,,,,,false,144636.80000001192,144636.5,143155.116,143382.5,143171.515,144421.495,1,40,,
trial,html.Screen,6_26_0,2023-11-20T15:30:20.157Z,,,,1,1.0858641668099058,1.1638942560200525,,,false,ll,1487.6050000238465,response,-0.9225524349657857,1.2,-1.2,-0.9662688541319592,1.2,-1.2,low,low,,ISIC_5439597.JPG,,ISIC_0011077.JPG,339,true,0.42000000000000026,hl,keypress(j),0,false,145909.30000001192,145909.10000002384,144404.973,144636.80000001192,144421.495,145705.021,1,40,27,
sequence,flow.Sequence,6_26,2023-11-20T15:30:20.158Z,,,,,,,,,,,1487.6050000238465,completion,,,,,,,low,low,,,,,,true,,,,,false,145909.69999998808,145909.10000002384,144404.973,144636.80000001192,144421.495,145705.021,1,40,,
trial,html.Screen,6_27_0,2023-11-20T15:30:21.589Z,,,,1,1.3411179702686655,1.255103311449152,,,false,ll,1636.1789999880712,response,-1.2631894117279046,1.2,-1.2,-1.0916958871221865,1.2,-1.2,low,low,,ISIC_5611010.JPG,,ISIC_0065748.JPG,53,true,0.15000000000000002,hh,keypress(i),0,false,147341.39999997616,147341.19999998808,145688.336,145909.80000001192,145705.021,147138.171,1,40,28,
sequence,flow.Sequence,6_27,2023-11-20T15:30:21.590Z,,,,,,,,,,,1636.1789999880712,completion,,,,,,,low,low,,,,,,true,,,,,false,147341.80000001192,147341.19999998808,145688.336,145909.80000001192,145705.021,147138.171,1,40,,
trial,html.Screen,6_28_0,2023-11-20T15:30:27.710Z,,,,1,-1.0264463986917702,1.2804054832904397,,,true,hl,6323.228999976156,response,1.011737552725394,1.2,-1.2,-0.8500530224490773,1.2,-1.2,high,low,,ISIC_7889838.JPG,,ISIC_2998367.JPG,26,true,0.3600000000000002,hl,keypress(j),0,false,153461.69999998808,153461.39999997616,147121.505,147342,147138.171,153271.465,1,40,29,
sequence,flow.Sequence,6_28,2023-11-20T15:30:27.710Z,,,,,,,,,,,6323.228999976156,completion,,,,,,,high,low,,,,,,true,,,,,false,153462.30000001192,153461.39999997616,147121.505,147341.89999997616,147138.171,153271.465,1,40,,
trial,html.Screen,6_29_0,2023-11-20T15:30:28.845Z,,,,1,-1.4092385398614515,1.3046237992197836,,,true,hl,1325.6350000238454,response,0.7951166058716005,1.2,-1.2,-1.477327500998078,1.2,-1.2,high,low,,ISIC_7254359.JPG,,ISIC_0033925.JPG,33,true,0.42000000000000026,hl,keypress(j),0,false,154597.19999998808,154597.10000002384,153238.188,153462.5,153271.465,154388.241,1,40,30,
sequence,flow.Sequence,6_29,2023-11-20T15:30:28.845Z,,,,,,,,,,,1325.6350000238454,completion,,,,,,,high,low,,,,,,true,,,,,false,154597.30000001192,154597.10000002384,153238.188,153462.39999997616,153271.465,154388.241,1,40,,
trial,html.Screen,6_30_0,2023-11-20T15:30:30.013Z,,,,1,-1.2915523362516486,-1.1264977790562936,,,true,hh,1376.3590000238328,response,0.8003549678836777,1.2,-1.2,0.7922238790731763,1.2,-1.2,high,high,,ISIC_0502582.JPG,,ISIC_0028780.JPG,253,true,0.42000000000000026,hh,keypress(i),0,false,155764.69999998808,155764.60000002384,154371.655,154597.30000001192,154388.241,155554.942,1,40,31,
sequence,flow.Sequence,6_30,2023-11-20T15:30:30.013Z,,,,,,,,,,,1376.3590000238328,completion,,,,,,,high,high,,,,,,true,,,,,false,155764.80000001192,155764.60000002384,154371.655,154597.30000001192,154388.241,155554.942,1,40,,
trial,html.Screen,6_31_0,2023-11-20T15:30:31.277Z,,,,1,-1.242586748440878,-1.1207933200172129,,,true,hh,1474.1580000238318,response,1.0789197754694622,1.2,-1.2,1.1654690806750023,1.2,-1.2,high,high,,ISIC_0013073.JPG,,ISIC_1576437.JPG,26,true,0.15000000000000002,hh,keypress(i),0,false,157029.30000001192,157029.10000002384,155538.297,155764.89999997616,155554.942,156821.478,1,40,32,
sequence,flow.Sequence,6_31,2023-11-20T15:30:31.278Z,,,,,,,,,,,1474.1580000238318,completion,,,,,,,high,high,,,,,,true,,,,,false,157029.69999998808,157029.10000002384,155538.297,155764.89999997616,155554.942,156821.478,1,40,,
trial,html.Screen,6_32_0,2023-11-20T15:30:32.830Z,,,,1,-1.0264463986917702,1.2804054832904397,,,true,hl,1760.4219999761553,response,1.0751036484083878,1.2,-1.2,-1.143906455483852,1.2,-1.2,high,low,,ISIC_7889838.JPG,,ISIC_0064406.JPG,26,true,0.3600000000000002,hl,keypress(j),0,false,158582.19999998808,158581.89999997616,156805.076,157029.89999997616,156821.478,158371.462,1,40,33,
sequence,flow.Sequence,6_32,2023-11-20T15:30:32.831Z,,,,,,,,,,,1760.4219999761553,completion,,,,,,,high,low,,,,,,true,,,,,false,158582.5,158581.89999997616,156805.076,157029.89999997616,156821.478,158371.462,1,40,,
trial,html.Screen,6_33_0,2023-11-20T15:30:34.853Z,,,,1,1.1137763092539212,1.1599906701455132,,,true,ll,2233.6380000238423,response,-0.829909234884455,1.2,-1.2,-1.0304874376319082,1.2,-1.2,low,low,,ISIC_5413788.JPG,,ISIC_9211072.JPG,339,true,0.42000000000000026,ll,keypress(f),0,false,160605.30000001192,160605.10000002384,158354.881,158582.69999998808,158371.462,160404.796,1,40,34,
sequence,flow.Sequence,6_33,2023-11-20T15:30:34.854Z,,,,,,,,,,,2233.6380000238423,completion,,,,,,,low,low,,,,,,true,,,,,false,160605.69999998808,160605.10000002384,158354.881,158582.60000002384,158371.462,160404.796,1,40,,
trial,html.Screen,6_34_0,2023-11-20T15:30:36.286Z,,,,1,0.991282840649944,-0.9397921099839784,,,true,lh,1633.3040000238398,response,-0.8035152873995188,1.2,-1.2,0.82868450251632,1.2,-1.2,low,high,,ISIC_0000463.JPG,,ISIC_0010671.JPG,27,true,0.42000000000000026,lh,keypress(e),0,false,162038.30000001192,162038.10000002384,160371.705,160605.89999997616,160404.796,161821.533,1,40,35,
sequence,flow.Sequence,6_34,2023-11-20T15:30:36.287Z,,,,,,,,,,,1633.3040000238398,completion,,,,,,,low,high,,,,,,true,,,,,false,162038.69999998808,162038.10000002384,160371.705,160605.80000001192,160404.796,161821.533,1,40,,
trial,html.Screen,6_35_0,2023-11-20T15:30:37.350Z,,,,1,1.2075172235545184,-0.9116724966267612,,,true,lh,1280.1669999880833,response,-0.8816288864119318,1.2,-1.2,0.801867301188093,1.2,-1.2,low,high,,ISIC_0024235.JPG,,ISIC_9196783.JPG,27,true,0.42000000000000026,lh,keypress(e),0,false,163101.89999997616,163101.69999998808,161804.965,162038.80000001192,161821.533,162904.815,1,40,36,
sequence,flow.Sequence,6_35,2023-11-20T15:30:37.350Z,,,,,,,,,,,1280.1669999880833,completion,,,,,,,low,high,,,,,,true,,,,,false,163102.30000001192,163101.69999998808,161804.965,162038.80000001192,161821.533,162904.815,1,40,,
trial,html.Screen,6_36_0,2023-11-20T15:30:39.061Z,,,,1,-0.796241477082623,0.9017449335975743,,,true,hl,1907.9850000119186,response,0.879102500583965,1.2,-1.2,-1.0933081951979773,1.2,-1.2,high,low,,ISIC_8588033.JPG,,ISIC_0046223.JPG,26,true,0.3600000000000002,hl,keypress(j),0,false,164812.89999997616,164812.80000001192,162888.209,163102.5,162904.815,164604.776,1,40,37,
sequence,flow.Sequence,6_36,2023-11-20T15:30:39.061Z,,,,,,,,,,,1907.9850000119186,completion,,,,,,,high,low,,,,,,true,,,,,false,164813.10000002384,164812.80000001192,162888.209,163102.39999997616,162904.815,164604.776,1,40,,
trial,html.Screen,6_37_0,2023-11-20T15:30:40.543Z,,,,1,1.011737552725394,-0.8500530224490773,,,true,lh,1689.6239999761456,response,-0.8092423703106274,1.2,-1.2,1.1870093485714288,1.2,-1.2,low,high,,ISIC_2998367.JPG,,ISIC_8592235.JPG,27,true,0.42000000000000026,lh,keypress(e),0,false,166294.69999998808,166294.39999997616,164588.148,164813.10000002384,164604.776,166088.103,1,40,38,
sequence,flow.Sequence,6_37,2023-11-20T15:30:40.543Z,,,,,,,,,,,1689.6239999761456,completion,,,,,,,low,high,,,,,,true,,,,,false,166295,166294.39999997616,164588.148,164813.10000002384,164604.776,166088.103,1,40,,
trial,html.Screen,6_38_0,2023-11-20T15:30:41.726Z,,,,1,0.8487429103619056,-0.9778257804233036,,,true,lh,1390.0969999880763,response,-1.0022829373011404,1.2,-1.2,0.8311726972863814,1.2,-1.2,low,high,,ISIC_4554863.JPG,,ISIC_0033287.JPG,27,true,0.42000000000000026,lh,keypress(e),0,false,167478.39999997616,167478.19999998808,166071.644,166295.19999998808,166088.103,167271.456,1,40,39,
sequence,flow.Sequence,6_38,2023-11-20T15:30:41.727Z,,,,,,,,,,,1390.0969999880763,completion,,,,,,,low,high,,,,,,true,,,,,false,167478.80000001192,167478.19999998808,166071.644,166295.10000002384,166088.103,167271.456,1,40,,
trial,html.Screen,6_39_0,2023-11-20T15:30:43.558Z,,,,1,1.4747161152848791,-0.847048591307387,,,true,lh,2037.7439999880735,response,-0.8200962008791046,1.2,-1.2,0.7936051642828523,1.2,-1.2,low,high,,ISIC_0016092.JPG,,ISIC_0027031.JPG,27,true,0.42000000000000026,lh,keypress(e),0,false,169309.60000002384,169309.19999998808,167255.009,167478.89999997616,167271.456,169105.038,1,40,40,
sequence,flow.Sequence,6_39,2023-11-20T15:30:43.558Z,,,,,,,,,,,2037.7439999880735,completion,,,,,,,low,high,,,,,,true,,,,,false,169309.89999997616,169309.19999998808,167255.009,167478.89999997616,167271.456,169105.038,1,40,,
practice_loop,flow.Loop,6,2023-11-20T15:30:43.558Z,,,,,,,,,,,80603.92599998807,completion,,,,,,,,,,,,,,true,,,,,false,169310.19999998808,169309.19999998808,88688.374,88899.80000001192,88705.274,169105.038,1,40,,
stair_instructions,html.Screen,7,2023-11-20T15:30:47.660Z,,,,,,,,,,,4306.062000023841,response,,,,,,,,,,,,,,,,continue,click button,,,173411.5,173411.10000002384,169088.357,169310.30000001192,169105.038,173204.829,,,,
trial,html.Screen,8_0_0,2023-11-20T15:30:52.711Z,,,,2,-0.0456515796420274,0.0273567130070961,,0.05,false,hh,5257.07099997616,response,1.0270718265914571,1.2,-1.2,0.9536353804316964,1.2,-1.2,high,high,,ISIC_0068610.JPG,,ISIC_3431915.JPG,179,false,0.3600000000000002,ll,keypress(f),0,true,178462,178461.89999997616,173188.202,173411.60000002384,173204.829,178254.757,1,40,1,
sequence,flow.Sequence,8_0,2023-11-20T15:30:52.711Z,,,,,,,,,,,5257.07099997616,completion,,,,,,,high,high,,,,,,false,,,,,true,178462.10000002384,178461.89999997616,173188.202,173411.60000002384,173204.829,178254.757,1,40,,
trial,html.Screen,8_1_0,2023-11-20T15:31:05.565Z,,,,2,-0.0107854985447517,-0.0478010417136109,,0.05,false,hl,13060.942999988067,response,1.020990671779317,1.2,-1.15,-1.0116513850520903,1.2,-1.15,high,low,,ISIC_0010500.JPG,,ISIC_0011995.JPG,28,false,0.3500000000000002,hh,keypress(i),0,true,191315.80000001192,191315.69999998808,178238.137,178462.10000002384,178254.757,191104.712,1,40,2,
sequence,flow.Sequence,8_1,2023-11-20T15:31:05.565Z,,,,,,,,,,,13060.942999988067,completion,,,,,,,high,low,,,,,,false,,,,,true,191315.80000001192,191315.69999998808,178238.137,178462.10000002384,178254.757,191104.712,1,40,,
trial,html.Screen,8_2_0,2023-11-20T15:31:08.799Z,,,,2,0.0097091270150747,-0.0417921315885292,,0.05,true,ll,3444.9879999880795,response,-1.101214461533281,1.15,-1.15,-1.1849883512428183,1.15,-1.15,low,low,,ISIC_3967213.JPG,,ISIC_0064943.JPG,27,false,0.1,ll,keypress(f),0,true,194550,194549.69999998808,191087.878,191315.89999997616,191104.712,194338.049,1,40,3,
sequence,flow.Sequence,8_2,2023-11-20T15:31:08.800Z,,,,,,,,,,,3444.9879999880795,completion,,,,,,,low,low,,,,,,false,,,,,true,194550.39999997616,194549.69999998808,191087.878,191315.80000001192,191104.712,194338.049,1,40,,
trial,html.Screen,8_3_0,2023-11-20T15:31:11.981Z,,,,2,0.013431314305098,-0.0140597582944232,,0.05,false,ll,3393.251000011922,response,-1.101214461533281,1.15,-1.15,-1.1849883512428183,1.15,-1.15,low,low,,ISIC_0069617.JPG,,ISIC_0064943.JPG,27,false,0.1,hh,keypress(i),0,true,197731.39999997616,197731.30000001192,194321.58,194550.60000002384,194338.049,197521.366,1,40,4,
sequence,flow.Sequence,8_3,2023-11-20T15:31:11.981Z,,,,,,,,,,,3393.251000011922,completion,,,,,,,low,low,,,,,,false,,,,,true,197731.5,197731.30000001192,194321.58,194550.60000002384,194338.049,197521.366,1,40,,
trial,html.Screen,8_4_0,2023-11-20T15:31:15.390Z,,,,2,0.0277178575053843,-0.0395587463147856,,0.05,true,hl,3619.434000011912,response,0.8979276789594874,1.15,-1.15,-0.925374811016654,1.15,-1.15,high,low,,ISIC_0010807.JPG,,ISIC_4208361.JPG,25,false,0.31000000000000016,hl,keypress(j),0,true,201140.80000001192,201140.80000001192,197504.703,197731.60000002384,197521.366,200938.288,1,40,5,
sequence,flow.Sequence,8_4,2023-11-20T15:31:15.390Z,,,,,,,,,,,3619.434000011912,completion,,,,,,,high,low,,,,,,false,,,,,true,201141,201140.80000001192,197504.703,197731.60000002384,197521.366,200938.288,1,40,,
trial,html.Screen,8_5_0,2023-11-20T15:31:17.848Z,,,,2,0.0409338693593207,-0.0072462710499874,,0.05,false,hh,2660.2119999999995,response,1.1598623261077452,1.0999999999999999,-1.15,1.203269031614007,1.15,-1.15,high,high,,ISIC_3608788.JPG,,ISIC_0002639.JPG,30,false,0.13,lh,keypress(e),0,true,203598.60000002384,203598.5,200921.452,201141.10000002384,200938.288,203388.041,1,40,6,
sequence,flow.Sequence,8_5,2023-11-20T15:31:17.848Z,,,,,,,,,,,2660.2119999999995,completion,,,,,,,high,high,,,,,,false,,,,,true,203598.69999998808,203598.5,200921.452,201141.10000002384,200938.288,203388.041,1,40,,
trial,html.Screen,8_6_0,2023-11-20T15:31:20.215Z,,,,2,0,0.0264544974620926,,0.05,false,lh,2577.0590000238444,response,-0.809764442462202,1.15,-1.15,1.005337148078696,1.15,-1.15,low,high,,ISIC_0056991.JPG,,ISIC_2379379.JPG,27,false,0.3700000000000002,hh,keypress(i),0,true,205965.39999997616,205965.10000002384,203371.462,203598.80000001192,203388.041,205754.671,1,40,7,
sequence,flow.Sequence,8_6,2023-11-20T15:31:20.215Z,,,,,,,,,,,2577.0590000238444,completion,,,,,,,low,high,,,,,,false,,,,,true,205965.80000001192,205965.10000002384,203371.462,203598.69999998808,203388.041,205754.671,1,40,,
trial,html.Screen,8_7_0,2023-11-20T15:31:23.039Z,,,,2,-0.0116094682222121,0.0258434522530318,,0.05,false,ll,3034.828999999998,response,-1.1383813631375823,1.15,-1.15,-1.1319312220332556,1.0543030898463515,-1.15,low,low,,ISIC_9239632.JPG,,ISIC_6227397.JPG,27,false,0.1,hl,keypress(j),0,true,208789.80000001192,208789.5,205738.137,205966,205754.671,208604.699,1,40,8,
sequence,flow.Sequence,8_7,2023-11-20T15:31:23.039Z,,,,,,,,,,,3034.828999999998,completion,,,,,,,low,low,,,,,,false,,,,,true,208790.10000002384,208789.5,205738.137,205965.89999997616,205754.671,208604.699,1,40,,
trial,html.Screen,8_8_0,2023-11-20T15:31:24.295Z,,,,2,0.0409338693593207,-0.0072462710499874,,0.05,false,lh,1440.700999976165,response,-1.0645919307156395,1.15,-1.15,0.7087706688259032,1.0543030898463515,-1.0999999999999999,low,high,,ISIC_3608788.JPG,,ISIC_0031575.JPG,26,false,0.3500000000000002,hl,keypress(j),0,true,210045.69999998808,210045.39999997616,208588.176,208790.30000001192,208604.699,209837.997,1,40,9,
sequence,flow.Sequence,8_8,2023-11-20T15:31:24.295Z,,,,,,,,,,,1440.700999976165,completion,,,,,,,low,high,,,,,,false,,,,,true,210046.10000002384,210045.39999997616,208588.176,208790.30000001192,208604.699,209837.997,1,40,,
trial,html.Screen,8_9_0,2023-11-20T15:31:25.399Z,,,,2,-0.0217698886732706,0.0410870915161425,,0.05,false,lh,1311.502999999997,response,-0.809764442462202,1.15,-1.15,1.005337148078696,1.1043030898463515,-1.0999999999999999,low,high,,ISIC_0072173.JPG,,ISIC_2379379.JPG,25,false,0.3600000000000002,hh,keypress(i),0,true,211149.69999998808,211149.5,209821.426,210046.19999998808,209837.997,210938.001,1,40,10,
sequence,flow.Sequence,8_9,2023-11-20T15:31:25.399Z,,,,,,,,,,,1311.502999999997,completion,,,,,,,low,high,,,,,,false,,,,,true,211150.19999998808,211149.5,209821.426,210046.19999998808,209837.997,210938.001,1,40,,
trial,html.Screen,8_10_0,2023-11-20T15:31:32.505Z,,,,2,0.0134764727102299,0.0033499036460912,,0.05,false,hh,7317.599000023853,response,1.227935316040483,1.15,-1.15,1.0211808747755002,1.1043030898463515,-1.0999999999999999,high,high,,ISIC_0009998.JPG,,ISIC_1211506.JPG,25,false,0.1,lh,keypress(e),0,true,218255.69999998808,218255.60000002384,210921.479,211150.39999997616,210938.001,218037.936,1,40,11,
sequence,flow.Sequence,8_10,2023-11-20T15:31:32.505Z,,,,,,,,,,,7317.599000023853,completion,,,,,,,high,high,,,,,,false,,,,,true,218255.89999997616,218255.60000002384,210921.479,211150.30000001192,210938.001,218037.936,1,40,,
trial,html.Screen,8_11_0,2023-11-20T15:31:35.245Z,,,,2,-0.0363437082783146,-0.0333332186217051,,0.05,true,hh,2957.664000023855,response,1.056824784611021,1.15,-1.15,0.8736902702135552,0.963259011427098,-1.0999999999999999,high,high,,ISIC_3314555.JPG,,ISIC_0014026.JPG,29,false,0.1,hh,keypress(i),0,true,220995.69999998808,220995.60000002384,218021.31,218256,218037.936,220787.949,1,40,12,
sequence,flow.Sequence,8_11,2023-11-20T15:31:35.245Z,,,,,,,,,,,2957.664000023855,completion,,,,,,,high,high,,,,,,false,,,,,true,220995.80000001192,220995.60000002384,218021.31,218256,218037.936,220787.949,1,40,,
trial,html.Screen,8_12_0,2023-11-20T15:31:41.069Z,,,,2,0.0112310719058792,-0.0469047359904117,,0.05,true,hh,6031.651000023849,response,1.0878102877901663,1.15,-1.15,0.9483364581769096,0.963259011427098,-1.0999999999999999,high,high,,ISIC_0068184.JPG,,ISIC_1413242.JPG,29,false,0.1,hh,keypress(i),0,true,226819.69999998808,226819.60000002384,220771.221,220995.80000001192,220787.949,226604.586,1,40,13,
sequence,flow.Sequence,8_12,2023-11-20T15:31:41.069Z,,,,,,,,,,,6031.651000023849,completion,,,,,,,high,high,,,,,,false,,,,,true,226819.80000001192,226819.60000002384,220771.221,220995.80000001192,220787.949,226604.586,1,40,,
trial,html.Screen,8_13_0,2023-11-20T15:31:45.276Z,,,,2,-0.0027483411352856,-0.0100996915276271,,0.05,true,lh,4422.313999976148,response,-0.991146183030456,0.8610133641952323,-1.15,0.9949639823722534,0.8610133641952323,-1.0999999999999999,low,high,,ISIC_7364041.JPG,,ISIC_6342224.JPG,27,false,0.2500000000000001,lh,keypress(e),0,true,231027.10000002384,231026.89999997616,226587.857,226819.80000001192,226604.586,230821.522,1,40,14,
sequence,flow.Sequence,8_13,2023-11-20T15:31:45.276Z,,,,,,,,,,,4422.313999976148,completion,,,,,,,low,high,,,,,,false,,,,,true,231027.10000002384,231026.89999997616,226587.857,226819.80000001192,226604.586,230821.522,1,40,,
trial,html.Screen,8_14_0,2023-11-20T15:31:48.464Z,,,,2,-0.0070725527271049,-0.0049995141077508,,0.05,false,ll,3392.877999976161,response,-1.1253220985777015,0.8610133641952323,-1.15,-1.108725659461368,0.8610133641952323,-1.0999999999999999,low,low,,ISIC_6124481.JPG,,ISIC_0054954.JPG,32,false,0.1,hl,keypress(j),0,true,234214.60000002384,234214.39999997616,230804.727,231027.19999998808,230821.522,234004.602,1,40,15,
sequence,flow.Sequence,8_14,2023-11-20T15:31:48.464Z,,,,,,,,,,,3392.877999976161,completion,,,,,,,low,low,,,,,,false,,,,,true,234215.10000002384,234214.39999997616,230804.727,231027.10000002384,230821.522,234004.602,1,40,,
trial,html.Screen,8_15_0,2023-11-20T15:31:50.745Z,,,,2,-0.0116094682222121,0.0258434522530318,,0.05,false,lh,2490.2979999761446,response,-1.073191619565092,0.8610133641952323,-1.15,0.6195550709150465,0.8610133641952323,-1.0999999999999999,low,high,,ISIC_9239632.JPG,,ISIC_9386509.JPG,27,false,0.2500000000000001,hh,keypress(i),0,true,236495,236494.89999997616,233987.982,234215.30000001192,234004.602,236287.914,1,40,16,
sequence,flow.Sequence,8_15,2023-11-20T15:31:50.746Z,,,,,,,,,,,2490.2979999761446,completion,,,,,,,low,high,,,,,,false,,,,,true,236495.10000002384,236494.89999997616,233987.982,234215.19999998808,234004.602,236287.914,1,40,,
trial,html.Screen,8_16_0,2023-11-20T15:31:54.392Z,,,,2,0.000047919190197942736,0.0462652940855003,,0.05,true,hl,3853.0860000000102,response,0.7836356408583546,0.8610133641952323,-1.15,-1.1197925594706428,0.8110133641952323,-1.0999999999999999,high,low,,ISIC_0011507.JPG,,ISIC_0024961.JPG,26,false,0.18000000000000005,hl,keypress(j),0,true,240141.19999998808,240141,236271.198,236495.19999998808,236287.914,239938.176,1,40,17,
sequence,flow.Sequence,8_16,2023-11-20T15:31:54.392Z,,,,,,,,,,,3853.0860000000102,completion,,,,,,,high,low,,,,,,false,,,,,true,240141.60000002384,240141,236271.198,236495.10000002384,236287.914,239938.176,1,40,,
trial,html.Screen,8_17_0,2023-11-20T15:31:56.849Z,,,,2,0.0102460616775615,-0.0309670599545429,,0.05,false,hl,2660.7239999761514,response,0.869932994914832,0.8610133641952323,-1.15,-0.8880533324432531,0.8110133641952323,-1.0499999999999998,high,low,,ISIC_0072041.JPG,,ISIC_8617084.JPG,25,false,0.17000000000000004,hh,keypress(i),0,true,242599,242598.89999997616,239921.123,240141.80000001192,239938.176,242388.104,1,40,18,
sequence,flow.Sequence,8_17,2023-11-20T15:31:56.850Z,,,,,,,,,,,2660.7239999761514,completion,,,,,,,high,low,,,,,,false,,,,,true,242599.10000002384,242598.89999997616,239921.123,240141.69999998808,239938.176,242388.104,1,40,,
trial,html.Screen,8_18_0,2023-11-20T15:31:58.310Z,,,,2,-0.0450282431170921,0,,0.05,false,hh,1671.396000000008,response,0.7488189907128915,0.7767843178865932,-1.15,0.9002829757503055,0.8110133641952323,-1.0999999999999999,high,high,,ISIC_1805163.JPG,,ISIC_8586909.JPG,58,false,0.1,hl,keypress(j),0,true,244059.69999998808,244059.5,242371.323,242599.19999998808,242388.104,243854.827,1,40,19,
sequence,flow.Sequence,8_18,2023-11-20T15:31:58.310Z,,,,,,,,,,,1671.396000000008,completion,,,,,,,high,high,,,,,,false,,,,,true,244059.80000001192,244059.5,242371.323,242599.19999998808,242388.104,243854.827,1,40,,
trial,html.Screen,8_19_0,2023-11-20T15:31:59.969Z,,,,2,-0.0069555338059566,0.0310100918136373,,0.05,false,ll,1863.1730000000098,response,-1.1253220985777015,0.7767843178865932,-1.15,-1.108725659461368,0.8610133641952323,-1.0999999999999999,low,low,,ISIC_0011177.JPG,,ISIC_0054954.JPG,32,false,0.1,hl,keypress(j),0,true,245718.30000001192,245718,243838.123,244059.89999997616,243854.827,245504.568,1,40,20,
sequence,flow.Sequence,8_19,2023-11-20T15:31:59.969Z,,,,,,,,,,,1863.1730000000098,completion,,,,,,,low,low,,,,,,false,,,,,true,245718.69999998808,245718,243838.123,244059.80000001192,243854.827,245504.568,1,40,,
trial,html.Screen,8_20_0,2023-11-20T15:32:01.073Z,,,,2,0.0348234368746005,-0.0236866303880924,,0.05,false,ll,1317.4320000000007,response,-1.0774704182387804,0.7767843178865932,-1.15,-1.0186619444121927,0.8610133641952323,-1.0999999999999999,low,low,,ISIC_0011099.JPG,,ISIC_0066564.JPG,32,false,0.1,hh,keypress(i),0,true,246822.30000001192,246822,245488.1,245718.80000001192,245504.568,246621.803,1,40,21,
sequence,flow.Sequence,8_20,2023-11-20T15:32:01.073Z,,,,,,,,,,,1317.4320000000007,completion,,,,,,,low,low,,,,,,false,,,,,true,246822.69999998808,246822,245488.1,245718.80000001192,245504.568,246621.803,1,40,,
trial,html.Screen,8_21_0,2023-11-20T15:32:02.728Z,,,,2,-0.0027483411352856,-0.0100996915276271,,0.05,false,ll,1855.5969999761437,response,-1.247270138097585,0.7767843178865932,-1.15,-1.1704704713504994,0.8610133641952323,-1.15,low,low,,ISIC_7364041.JPG,,ISIC_0065774.JPG,27,false,0.1,hl,keypress(j),0,true,248477.69999998808,248477.39999997616,246588.188,246822.89999997616,246621.803,248271.495,1,40,22,
sequence,flow.Sequence,8_21,2023-11-20T15:32:02.729Z,,,,,,,,,,,1855.5969999761437,completion,,,,,,,low,low,,,,,,false,,,,,true,248478.19999998808,248477.39999997616,246588.188,246822.80000001192,246621.803,248271.495,1,40,,
trial,html.Screen,8_22_0,2023-11-20T15:32:10.646Z,,,,2,-0.0116094682222121,0.0258434522530318,,0.05,false,ll,8123.805000011926,response,-1.0525532302758762,0.7767843178865932,-1.15,-1.1628982512509805,0.8610133641952323,-1.15,low,low,,ISIC_9239632.JPG,,ISIC_0033428.JPG,27,false,0.1,lh,keypress(e),0,true,256395.39999997616,256395.30000001192,248254.646,248478.30000001192,248271.495,256187.838,1,40,23,
sequence,flow.Sequence,8_22,2023-11-20T15:32:10.646Z,,,,,,,,,,,8123.805000011926,completion,,,,,,,low,low,,,,,,false,,,,,true,256395.5,256395.30000001192,248254.646,248478.19999998808,248271.495,256187.838,1,40,,
trial,html.Screen,8_23_0,2023-11-20T15:32:12.376Z,,,,2,0.0362376068089956,0.047825070846155,,0.05,true,hl,1937.5619999761693,response,0.7784583866003763,0.7767843178865932,-1.15,-0.9641514808986528,0.8610133641952323,-1.15,high,low,,ISIC_6985114.JPG,,ISIC_0011924.JPG,27,false,0.19000000000000006,hl,keypress(j),0,true,258125.69999998808,258125.39999997616,256171.214,256395.60000002384,256187.838,257921.205,1,40,24,
sequence,flow.Sequence,8_23,2023-11-20T15:32:12.377Z,,,,,,,,,,,1937.5619999761693,completion,,,,,,,high,low,,,,,,false,,,,,true,258126.10000002384,258125.39999997616,256171.214,256395.60000002384,256187.838,257921.205,1,40,,
trial,html.Screen,8_24_0,2023-11-20T15:32:13.912Z,,,,2,-0.0329095507339554,0.0382899749693245,,0.05,false,lh,1739.8950000238547,response,-1.0645919307156395,0.7267843178865931,-1.15,0.7087706688259032,0.8610133641952323,-1.15,low,high,,ISIC_8812781.JPG,,ISIC_0031575.JPG,27,false,0.2500000000000001,hh,keypress(i),0,true,259661.30000001192,259661.10000002384,257904.746,258126.39999997616,257921.205,259454.668,1,40,25,
sequence,flow.Sequence,8_24,2023-11-20T15:32:13.912Z,,,,,,,,,,,1739.8950000238547,completion,,,,,,,low,high,,,,,,false,,,,,true,259661.69999998808,259661.10000002384,257904.746,258126.30000001192,257921.205,259454.668,1,40,,
trial,html.Screen,8_25_0,2023-11-20T15:32:16.657Z,,,,2,-0.0107854985447517,-0.0478010417136109,,0.05,false,hl,2951.331999999995,response,0.6165328649965072,0.7267843178865931,-1.15,-1.1866551763856117,0.8610133641952323,-1.15,high,low,,ISIC_0010500.JPG,,ISIC_0046626.JPG,25,false,0.18000000000000005,hh,keypress(i),0,true,262406.1999999881,262406,259438.084,259661.89999997616,259454.668,262221.42,1,40,26,
sequence,flow.Sequence,8_25,2023-11-20T15:32:16.657Z,,,,,,,,,,,2951.331999999995,completion,,,,,,,high,low,,,,,,false,,,,,true,262406.60000002384,262406,259438.084,259661.80000001192,259454.668,262221.42,1,40,,
trial,html.Screen,8_26_0,2023-11-20T15:32:18.933Z,,,,2,-0.0107854985447517,-0.0478010417136109,,0.05,false,hh,2460.5800000000163,response,0.7977113275495125,0.7267843178865931,-1.15,0.923711824877252,0.8610133641952323,-1.15,high,high,,ISIC_0010500.JPG,,ISIC_1023354.JPG,55,false,0.1,ll,keypress(f),0,true,264682.10000002384,264682,262204.732,262406.8000000119,262221.42,264471.25,1,40,27,
sequence,flow.Sequence,8_26,2023-11-20T15:32:18.933Z,,,,,,,,,,,2460.5800000000163,completion,,,,,,,high,high,,,,,,false,,,,,true,264682.1999999881,264682,262204.732,262406.8000000119,262221.42,264471.25,1,40,,
trial,html.Screen,8_27_0,2023-11-20T15:32:21.193Z,,,,2,-0.0217698886732706,0.0410870915161425,,0.05,true,hh,2470.949999988079,response,0.8329154010765664,0.7767843178865932,-1.15,0.9000661178885296,0.9110133641952324,-1.15,high,high,,ISIC_0072173.JPG,,ISIC_7407847.JPG,46,false,0.1,hh,keypress(i),0,true,266942.39999997616,266942.1999999881,264454.738,264682.1999999881,264471.25,266738.005,1,40,28,
sequence,flow.Sequence,8_27,2023-11-20T15:32:21.193Z,,,,,,,,,,,2470.949999988079,completion,,,,,,,high,high,,,,,,false,,,,,true,266942.8000000119,266942.1999999881,264454.738,264682.1999999881,264471.25,266738.005,1,40,,
trial,html.Screen,8_28_0,2023-11-20T15:32:22.937Z,,,,2,0.0113873532168551,0.0054999201556291,,0.05,false,hh,1948.1949999880744,response,0.7848333827448511,0.7767843178865932,-1.15,0.9249180304825352,0.9110133641952324,-1.15,high,high,,ISIC_8812621.JPG,,ISIC_6778515.JPG,46,false,0.1,ll,keypress(f),0,true,268686.5,268686.1999999881,266721.369,266942.89999997616,266738.005,268471.175,1,40,29,
sequence,flow.Sequence,8_28,2023-11-20T15:32:22.937Z,,,,,,,,,,,1948.1949999880744,completion,,,,,,,high,high,,,,,,false,,,,,true,268686.89999997616,268686.1999999881,266721.369,266942.89999997616,266738.005,268471.175,1,40,,
trial,html.Screen,8_29_0,2023-11-20T15:32:24.552Z,,,,2,-0.0329095507339554,0.0382899749693245,,0.05,false,lh,1830.0249999880907,response,-0.887838744955182,0.8267843178865932,-1.15,0.7545096650863988,0.9610133641952324,-1.15,low,high,,ISIC_8812781.JPG,,ISIC_1488727.JPG,25,false,0.31000000000000016,hl,keypress(j),0,true,270301.39999997616,270301.1999999881,268454.695,268687.10000002384,268471.175,270087.83,1,40,30,
sequence,flow.Sequence,8_29,2023-11-20T15:32:24.552Z,,,,,,,,,,,1830.0249999880907,completion,,,,,,,low,high,,,,,,false,,,,,true,270301.8000000119,270301.1999999881,268454.695,268687.10000002384,268471.175,270087.83,1,40,,
trial,html.Screen,8_30_0,2023-11-20T15:32:26.232Z,,,,2,-0.0027483411352856,-0.0100996915276271,,0.05,false,hl,1893.4700000119046,response,0.7265003924540593,0.8267843178865932,-1.15,-1.3016394336708117,1.0110133641952324,-1.15,high,low,,ISIC_7364041.JPG,,ISIC_0027684.JPG,27,false,0.20000000000000007,hh,keypress(i),0,true,271981.5,271981.3000000119,270071.328,270302,270087.83,271771.139,1,40,31,
sequence,flow.Sequence,8_30,2023-11-20T15:32:26.232Z,,,,,,,,,,,1893.4700000119046,completion,,,,,,,high,low,,,,,,false,,,,,true,271981.89999997616,271981.3000000119,270071.328,270301.89999997616,270087.83,271771.139,1,40,,
trial,html.Screen,8_31_0,2023-11-20T15:32:30.910Z,,,,2,0.0113873532168551,0.0054999201556291,,0.05,false,lh,4887.961000023817,response,-1.0264463986917702,0.8267843178865932,-1.15,1.2804054832904397,1.0110133641952324,-1.15,low,high,,ISIC_8812621.JPG,,ISIC_7889838.JPG,27,false,0.3300000000000002,hl,keypress(j),0,true,276659.1999999881,276659.10000002384,271754.746,271982.10000002384,271771.139,276454.448,1,40,32,
sequence,flow.Sequence,8_31,2023-11-20T15:32:30.910Z,,,,,,,,,,,4887.961000023817,completion,,,,,,,low,high,,,,,,false,,,,,true,276659.1999999881,276659.10000002384,271754.746,271982.10000002384,271771.139,276454.448,1,40,,
trial,html.Screen,8_32_0,2023-11-20T15:32:33.112Z,,,,2,-0.0027483411352856,-0.0100996915276271,,0.05,false,lh,2406.652000023867,response,-0.8816288864119318,0.8267843178865932,-1.15,0.801867301188093,1.0610133641952324,-1.15,low,high,,ISIC_7364041.JPG,,ISIC_9196783.JPG,30,false,0.3600000000000002,hl,keypress(j),0,true,278861.3000000119,278861.10000002384,276437.897,276659.3000000119,276454.448,278654.559,1,40,33,
sequence,flow.Sequence,8_32,2023-11-20T15:32:33.112Z,,,,,,,,,,,2406.652000023867,completion,,,,,,,low,high,,,,,,false,,,,,true,278861.6999999881,278861.10000002384,276437.897,276659.3000000119,276454.448,278654.559,1,40,,
trial,html.Screen,8_33_0,2023-11-20T15:32:35.208Z,,,,2,-0.0329095507339554,0.0382899749693245,,0.05,false,ll,2302.6409999880707,response,-1.1346217981791904,0.8267843178865932,-1.15,-1.1555132168806113,1.1110133641952324,-1.15,low,low,,ISIC_8812781.JPG,,ISIC_0032771.JPG,27,false,0.1,hl,keypress(j),0,true,280957.60000002384,280957.1999999881,278638.048,278861.89999997616,278654.559,280754.618,1,40,34,
sequence,flow.Sequence,8_33,2023-11-20T15:32:35.208Z,,,,,,,,,,,2302.6409999880707,completion,,,,,,,low,low,,,,,,false,,,,,true,280958,280957.1999999881,278638.048,278861.89999997616,278654.559,280754.618,1,40,,
trial,html.Screen,8_34_0,2023-11-20T15:32:37.169Z,,,,2,0.0134764727102299,0.0033499036460912,,0.05,false,hl,2163.482000023825,response,0.8487429103619056,0.8267843178865932,-1.15,-0.9778257804233036,1.1110133641952324,-1.15,high,low,,ISIC_0009998.JPG,,ISIC_4554863.JPG,27,false,0.20000000000000007,hh,keypress(i),0,true,282918.3000000119,282918.10000002384,280738.051,280958.10000002384,280754.618,282704.464,1,40,35,
sequence,flow.Sequence,8_34,2023-11-20T15:32:37.169Z,,,,,,,,,,,2163.482000023825,completion,,,,,,,high,low,,,,,,false,,,,,true,282918.6999999881,282918.10000002384,280738.051,280958,280754.618,282704.464,1,40,,
trial,html.Screen,8_35_0,2023-11-20T15:32:40.471Z,,,,2,-0.0070725527271049,-0.0049995141077508,,0.05,false,hh,3516.1360000238637,response,0.831295474746028,0.7767843178865932,-1.15,1.2101243893950622,1.1110133641952324,-1.15,high,high,,ISIC_6124481.JPG,,ISIC_0760740.JPG,33,false,0.1,ll,keypress(f),0,true,286220.89999997616,286220.60000002384,282687.834,282918.8000000119,282704.464,286021.16,1,40,36,
sequence,flow.Sequence,8_35,2023-11-20T15:32:40.472Z,,,,,,,,,,,3516.1360000238637,completion,,,,,,,high,high,,,,,,false,,,,,true,286221.3000000119,286220.60000002384,282687.834,282918.8000000119,282704.464,286021.16,1,40,,
trial,html.Screen,8_36_0,2023-11-20T15:32:42.697Z,,,,2,0.0188047466661863,-0.0288346930436979,,0.05,false,hl,2424.7399999761838,response,0.6762618798182235,0.8267843178865932,-1.15,-1.067875773627714,1.1610133641952325,-1.15,high,low,,ISIC_0014157.JPG,,ISIC_0000135.JPG,27,false,0.20000000000000007,hh,keypress(i),0,true,288446.10000002384,288445.89999997616,285987.943,286221.5,286021.16,288237.816,1,40,37,
sequence,flow.Sequence,8_36,2023-11-20T15:32:42.697Z,,,,,,,,,,,2424.7399999761838,completion,,,,,,,high,low,,,,,,false,,,,,true,288446.5,288445.89999997616,285987.943,286221.39999997616,286021.16,288237.816,1,40,,
trial,html.Screen,8_37_0,2023-11-20T15:32:45.942Z,,,,2,0.013431314305098,-0.0140597582944232,,0.05,false,ll,3453.7840000238502,response,-1.0910404089869363,0.8267843178865932,-1.15,-1.119702461098404,1.1610133641952325,-1.15,low,low,,ISIC_0069617.JPG,,ISIC_0067097.JPG,27,false,0.1,hl,keypress(j),0,true,291691.6999999881,291691.60000002384,288221.291,288446.6999999881,288237.816,291488.026,1,40,38,
sequence,flow.Sequence,8_37,2023-11-20T15:32:45.942Z,,,,,,,,,,,3453.7840000238502,completion,,,,,,,low,low,,,,,,false,,,,,true,291691.8000000119,291691.60000002384,288221.291,288446.60000002384,288237.816,291488.026,1,40,,
trial,html.Screen,8_38_0,2023-11-20T15:32:52.191Z,,,,2,-0.0389988030702649,-0.0143212271490256,,0.05,false,hl,6451.373999976146,response,0.8487429103619056,0.8267843178865932,-1.15,-0.9778257804233036,1.1610133641952325,-1.15,high,low,,ISIC_0064669.JPG,,ISIC_4554863.JPG,27,false,0.20000000000000007,hh,keypress(i),0,true,297939.5,297939.39999997616,291471.236,291691.89999997616,291488.026,297738.325,1,40,39,
sequence,flow.Sequence,8_38,2023-11-20T15:32:52.191Z,,,,,,,,,,,6451.373999976146,completion,,,,,,,high,low,,,,,,false,,,,,true,297939.5,297939.39999997616,291471.236,291691.8000000119,291488.026,297738.325,1,40,,
trial,html.Screen,8_39_0,2023-11-20T15:32:53.809Z,,,,2,-0.0329095507339554,0.0382899749693245,,0.05,false,lh,1818.8749999880674,response,-1.0115965332688306,0.7767843178865932,-1.15,0.8282633603842442,1.1610133641952325,-1.15,low,high,,ISIC_8812781.JPG,,ISIC_1069587.JPG,26,false,0.3700000000000002,hl,keypress(j),0,true,299557.60000002384,299557.1999999881,297704.289,297939.60000002384,297738.325,299354.693,1,40,40,
sequence,flow.Sequence,8_39,2023-11-20T15:32:53.810Z,,,,,,,,,,,1818.8749999880674,completion,,,,,,,low,high,,,,,,false,,,,,true,299557.89999997616,299557.1999999881,297704.289,297939.60000002384,297738.325,299354.693,1,40,,
stair_loop,flow.Loop,8,2023-11-20T15:32:53.810Z,,,,,,,,,,,126352.37099998808,completion,,,,,,,,,,,,,,false,,,,,true,299558.10000002384,299557.1999999881,173188.202,173411.60000002384,173204.829,299354.693,1,40,,
exp_instructions,html.Screen,9,2023-11-20T15:32:56.136Z,,,,,,,,,,,2529.0069999880507,response,,,,,,,,,,,,,,,,continue,keypress(Space),,,301884.1999999881,301883.6999999881,299337.96,299558.1999999881,299354.693,301671.091,,,,
trial,html.Screen,10_0_0,2023-11-20T15:33:01.015Z,,,,1,0.0112310719058792,-0.0469047359904117,,0.05,true,hh,5092.509000023827,response,0.7044626395896347,0.7917843178865932,-1.1499999999999997,0.9754077946987664,0.9935133641952321,-1.1474999999999995,high,high,,ISIC_0068184.JPG,9,ISIC_0024317.JPG,44,false,0.1,hh,keypress(i),0,false,306763.6999999881,306763.60000002384,301654.355,301884.39999997616,301671.091,306554.414,4,500,1,
break,html.Screen,10_0_1,2023-11-20T15:33:01.016Z,,,,,,,,,,,NaN,,,,,,,,high,high,,,,,,false,,,,,false,306764,306763.89999997616,,306763.6999999881,,306554.414,4,500,,
break_continue,html.Screen,10_0_2,2023-11-20T15:33:01.016Z,,,,,,,,,,,NaN,,,,,,,,high,high,,,,,,false,,,,,false,306764.3000000119,306764.1999999881,,306764,,306554.414,4,500,,
sequence,flow.Sequence,10_0,2023-11-20T15:33:01.016Z,,,,,,,,,,,5093.108999988064,completion,,,,,,,high,high,,,,,,false,,,,,false,306764.3000000119,306764.1999999881,301654.355,301884.39999997616,301671.091,306554.414,4,500,,
trial,html.Screen,10_1_0,2023-11-20T15:33:04.194Z,,,,1,0.0362376068089956,0.047825070846155,,0.05,false,lh,3387.2859999880893,response,-0.9388029871780448,0.7917843178865932,-1.1499999999999997,0.6990723246540984,0.9935133641952321,-1.1474999999999995,low,high,,ISIC_6985114.JPG,9,ISIC_0014190.JPG,27,false,0.3200000000000002,hh,keypress(i),0,false,309942,309941.6999999881,306537.801,306764.39999997616,306554.414,309737.731,4,500,2,
break,html.Screen,10_1_1,2023-11-20T15:33:04.195Z,,,,,,,,,,,NaN,,,,,,,,low,high,,,,,,false,,,,,false,309942.89999997616,309942.6999999881,,309942.3000000119,,309737.731,4,500,,
break_continue,html.Screen,10_1_2,2023-11-20T15:33:04.195Z,,,,,,,,,,,NaN,,,,,,,,low,high,,,,,,false,,,,,false,309943.60000002384,309943.39999997616,,309943.1999999881,,309737.731,4,500,,
sequence,flow.Sequence,10_1,2023-11-20T15:33:04.195Z,,,,,,,,,,,3388.9859999761684,completion,,,,,,,low,high,,,,,,false,,,,,false,309943.8000000119,309943.39999997616,306537.801,306764.3000000119,306554.414,309737.731,4,500,,
trial,html.Screen,10_2_0,2023-11-20T15:33:06.641Z,,,,1,0.0245376145053177,-0.0436993426328401,,0.05,true,lh,2651.768999999971,response,-1.276222161935671,0.7917843178865932,-1.1499999999999997,0.9657780821973284,0.9935133641952321,-1.1474999999999995,low,high,,ISIC_0056444.JPG,9,ISIC_6710411.JPG,27,false,0.3200000000000002,lh,keypress(e),0,false,312389.60000002384,312389.5,309721.251,309944,309737.731,312204.483,4,500,3,
break,html.Screen,10_2_1,2023-11-20T15:33:06.642Z,,,,,,,,,,,NaN,,,,,,,,low,high,,,,,,false,,,,,false,312390.60000002384,312390.3000000119,,312390,,312204.483,4,500,,
break_continue,html.Screen,10_2_2,2023-11-20T15:33:06.643Z,,,,,,,,,,,NaN,,,,,,,,low,high,,,,,,false,,,,,false,312391.1999999881,312391.10000002384,,312390.8000000119,,312204.483,4,500,,
sequence,flow.Sequence,10_2,2023-11-20T15:33:06.643Z,,,,,,,,,,,2653.369000023813,completion,,,,,,,low,high,,,,,,false,,,,,false,312391.39999997616,312391.10000002384,309721.251,309943.89999997616,309737.731,312204.483,4,500,,
trial,html.Screen,10_3_0,2023-11-20T15:33:09.250Z,,,,1,-0.0057914759495055,-0.0074667911845194,,0.05,false,hl,2793.3170000119135,response,0.7133243033950115,0.7917843178865932,-1.1499999999999997,-0.9575090175925351,0.9935133641952321,-1.1474999999999995,high,low,,ISIC_0058723.JPG,9,ISIC_1369273.JPG,25,false,0.19000000000000006,hh,keypress(i),0,false,314998.10000002384,314997.8000000119,312187.991,312391.60000002384,312204.483,314787.71,4,500,4,
break,html.Screen,10_3_1,2023-11-20T15:33:09.251Z,,,,,,,,,,,NaN,,,,,,,,high,low,,,,,,false,,,,,false,314999.10000002384,314998.8000000119,,314998.39999997616,,314787.71,4,500,,
break_continue,html.Screen,10_3_2,2023-11-20T15:33:09.251Z,,,,,,,,,,,NaN,,,,,,,,high,low,,,,,,false,,,,,false,314999.6999999881,314999.39999997616,,314999.1999999881,,314787.71,4,500,,
sequence,flow.Sequence,10_3,2023-11-20T15:33:09.252Z,,,,,,,,,,,2794.9169999761507,completion,,,,,,,high,low,,,,,,false,,,,,false,314999.89999997616,314999.39999997616,312187.991,312391.5,312204.483,314787.71,4,500,,
trial,html.Screen,10_4_0,2023-11-20T15:33:13.266Z,,,,1,0.000047919190197942736,0.0462652940855003,,0.05,true,ll,4226.0900000119,response,-1.101346104814838,0.7917843178865932,-1.1499999999999997,-1.1225813067473052,0.9935133641952321,-1.1474999999999995,low,low,,ISIC_0011507.JPG,8,ISIC_8175453.JPG,27,false,0.1,ll,keypress(f),0,false,319014,319013.8000000119,314771.241,315000,314787.71,318804.337,4,500,5,
break,html.Screen,10_4_1,2023-11-20T15:33:13.267Z,,,,,,,,,,,NaN,,,,,,,,low,low,,,,,,false,,,,,false,319015.10000002384,319014.6999999881,,319014.3000000119,,318804.337,4,500,,
break_continue,html.Screen,10_4_2,2023-11-20T15:33:13.267Z,,,,,,,,,,,NaN,,,,,,,,low,low,,,,,,false,,,,,false,319015.60000002384,319015.39999997616,,319015.1999999881,,318804.337,4,500,,
sequence,flow.Sequence,10_4,2023-11-20T15:33:13.267Z,,,,,,,,,,,4227.689999976137,completion,,,,,,,low,low,,,,,,false,,,,,false,319015.8000000119,319015.39999997616,314771.241,315000,314787.71,318804.337,4,500,,
trial,html.Screen,10_5_0,2023-11-20T15:33:15.521Z,,,,1,0.0051189696037511,-0.0396625911332438,,0.05,false,hl,2464.5629999761586,response,0.8534691366511764,0.7917843178865932,-1.1499999999999997,-1.03975580494588,0.9935133641952321,-1.1474999999999995,high,low,,ISIC_9742891.JPG,9,ISIC_0056788.JPG,25,false,0.19000000000000006,hh,keypress(i),0,false,321269.10000002384,321268.89999997616,318787.878,319015.89999997616,318804.337,321054.36,4,500,6,
break,html.Screen,10_5_1,2023-11-20T15:33:15.522Z,,,,,,,,,,,NaN,,,,,,,,high,low,,,,,,false,,,,,false,321270.10000002384,321269.89999997616,,321269.5,,321054.36,4,500,,
break_continue,html.Screen,10_5_2,2023-11-20T15:33:15.522Z,,,,,,,,,,,NaN,,,,,,,,high,low,,,,,,false,,,,,false,321270.6999999881,321270.5,,321270.3000000119,,321054.36,4,500,,
sequence,flow.Sequence,10_5,2023-11-20T15:33:15.523Z,,,,,,,,,,,2466.1630000000005,completion,,,,,,,high,low,,,,,,false,,,,,false,321271,321270.5,318787.878,319015.89999997616,318804.337,321054.36,4,500,,
trial,html.Screen,10_6_0,2023-11-20T15:33:18.425Z,,,,1,0.0245376145053177,-0.0436993426328401,,0.05,true,ll,3118.740000023856,response,-1.1877026569952844,0.7917843178865932,-1.1499999999999997,-1.1604367569896263,0.9935133641952321,-1.1474999999999995,low,low,,ISIC_0056444.JPG,9,ISIC_0064589.JPG,27,false,0.1,ll,keypress(f),0,false,324173.3000000119,324173.10000002384,321037.736,321271.10000002384,321054.36,323971.266,4,500,7,
break,html.Screen,10_6_1,2023-11-20T15:33:18.426Z,,,,,,,,,,,NaN,,,,,,,,low,low,,,,,,false,,,,,false,324174.1999999881,324173.89999997616,,324173.60000002384,,323971.266,4,500,,
break_continue,html.Screen,10_6_2,2023-11-20T15:33:18.426Z,,,,,,,,,,,NaN,,,,,,,,low,low,,,,,,false,,,,,false,324174.6999999881,324174.5,,324174.3000000119,,323971.266,4,500,,
sequence,flow.Sequence,10_6,2023-11-20T15:33:18.427Z,,,,,,,,,,,3120.140000000014,completion,,,,,,,low,low,,,,,,false,,,,,false,324174.89999997616,324174.5,321037.736,321271,321054.36,323971.266,4,500,,
trial,html.Screen,10_7_0,2023-11-20T15:33:20.777Z,,,,1,-0.0027483411352856,-0.0100996915276271,,0.05,false,hh,2554.2339999999967,response,0.8728834820669534,0.7917843178865932,-1.1499999999999997,0.9788202580034188,0.9935133641952321,-1.1474999999999995,high,high,,ISIC_7364041.JPG,10,ISIC_7519627.JPG,44,false,0.1,ll,keypress(f),0,false,326525.8000000119,326525.5,323954.551,324175.10000002384,323971.266,326321.163,4,500,8,
break,html.Screen,10_7_1,2023-11-20T15:33:20.778Z,,,,,,,,,,,NaN,,,,,,,,high,high,,,,,,false,,,,,false,326526.6999999881,326526.5,,326526.10000002384,,326321.163,4,500,,
break_continue,html.Screen,10_7_2,2023-11-20T15:33:20.779Z,,,,,,,,,,,NaN,,,,,,,,high,high,,,,,,false,,,,,false,326527.3000000119,326527,,326526.89999997616,,326321.163,4,500,,
sequence,flow.Sequence,10_7,2023-11-20T15:33:20.779Z,,,,,,,,,,,2555.7339999999967,completion,,,,,,,high,high,,,,,,false,,,,,false,326527.5,326527,323954.551,324175,323971.266,326321.163,4,500,,
trial,html.Screen,10_8_0,2023-11-20T15:33:22.601Z,,,,1,0.0102460616775615,-0.0309670599545429,,0.05,false,ll,2027.9370000238414,response,-1.1253220985777015,0.7917843178865932,-1.1499999999999997,-1.108725659461368,0.9935133641952321,-1.1474999999999995,low,low,,ISIC_0072041.JPG,9,ISIC_0054954.JPG,27,false,0.1,hh,keypress(i),0,false,328349.5,328349.10000002384,326304.284,326527.6999999881,326321.163,328137.675,4,500,9,
break,html.Screen,10_8_1,2023-11-20T15:33:22.602Z,,,,,,,,,,,NaN,,,,,,,,low,low,,,,,,false,,,,,false,328350.5,328350.10000002384,,328349.6999999881,,328137.675,4,500,,
break_continue,html.Screen,10_8_2,2023-11-20T15:33:22.603Z,,,,,,,,,,,NaN,,,,,,,,low,low,,,,,,false,,,,,false,328351.1999999881,328351,,328350.6999999881,,328137.675,4,500,,
sequence,flow.Sequence,10_8,2023-11-20T15:33:22.603Z,,,,,,,,,,,2029.8369999999995,completion,,,,,,,low,low,,,,,,false,,,,,false,328351.60000002384,328351,326304.284,326527.60000002384,326321.163,328137.675,4,500,,
trial,html.Screen,10_9_0,2023-11-20T15:33:24.129Z,,,,1,-0.0085520978188085,0.0464691161264081,,0.05,false,lh,1739.5249999880907,response,-1.0264463986917702,0.7917843178865932,-1.1499999999999997,1.2804054832904397,0.9935133641952321,-1.1474999999999995,low,high,,ISIC_0758797.JPG,8,ISIC_7889838.JPG,27,false,0.3200000000000002,ll,keypress(f),0,false,329877.5,329877.1999999881,328121.245,328351.6999999881,328137.675,329671.005,4,500,10,
break,html.Screen,10_9_1,2023-11-20T15:33:24.130Z,,,,,,,,,,,NaN,,,,,,,,low,high,,,,,,false,,,,,false,329878.5,329878.3000000119,,329877.8000000119,,329671.005,4,500,,
break_continue,html.Screen,10_9_2,2023-11-20T15:33:24.131Z,,,,,,,,,,,NaN,,,,,,,,low,high,,,,,,false,,,,,false,329879.10000002384,329878.89999997616,,329878.6999999881,,329671.005,4,500,,
sequence,flow.Sequence,10_9,2023-11-20T15:33:24.131Z,,,,,,,,,,,1741.2249999761698,completion,,,,,,,low,high,,,,,,false,,,,,false,329879.3000000119,329878.89999997616,328121.245,328351.6999999881,328137.675,329671.005,4,500,,
trial,html.Screen,10_10_0,2023-11-20T15:33:25.185Z,,,,1,0.013431314305098,-0.0140597582944232,,0.05,false,lh,1262.0950000238372,response,-1.0115965332688306,0.7917843178865932,-1.1499999999999997,0.8282633603842442,0.9935133641952321,-1.1474999999999995,low,high,,ISIC_0069617.JPG,9,ISIC_1069587.JPG,27,false,0.3200000000000002,hh,keypress(i),0,false,330933.3000000119,330933.10000002384,329654.478,329879.5,329671.005,330737.673,4,500,11,
break,html.Screen,10_10_1,2023-11-20T15:33:25.186Z,,,,,,,,,,,NaN,,,,,,,,low,high,,,,,,false,,,,,false,330934.3000000119,330934.10000002384,,330933.60000002384,,330737.673,4,500,,
break_continue,html.Screen,10_10_2,2023-11-20T15:33:25.186Z,,,,,,,,,,,NaN,,,,,,,,low,high,,,,,,false,,,,,false,330934.8000000119,330934.60000002384,,330934.39999997616,,330737.673,4,500,,
sequence,flow.Sequence,10_10,2023-11-20T15:33:25.187Z,,,,,,,,,,,1263.5950000238372,completion,,,,,,,low,high,,,,,,false,,,,,false,330935,330934.60000002384,329654.478,329879.5,329671.005,330737.673,4,500,,
trial,html.Screen,10_11_0,2023-11-20T15:33:26.823Z,,,,1,-0.0085520978188085,0.0464691161264081,,0.05,false,hh,1833.927000023832,response,0.8093178584833343,0.7917843178865932,-1.1499999999999997,1.0777929856705222,0.9935133641952321,-1.1474999999999995,high,high,,ISIC_0758797.JPG,9,ISIC_6171084.JPG,44,false,0.1,ll,keypress(f),0,false,332571.6999999881,332571.60000002384,330721.011,330935.1999999881,330737.673,332354.302,4,500,12,
break,html.Screen,10_11_1,2023-11-20T15:33:26.824Z,,,,,,,,,,,NaN,,,,,,,,high,high,,,,,,false,,,,,false,332572.10000002384,332572,,332571.8000000119,,332354.302,4,500,,
break_continue,html.Screen,10_11_2,2023-11-20T15:33:26.824Z,,,,,,,,,,,NaN,,,,,,,,high,high,,,,,,false,,,,,false,332572.3000000119,332572.1999999881,,332572.1999999881,,332354.302,4,500,,
sequence,flow.Sequence,10_11,2023-11-20T15:33:26.824Z,,,,,,,,,,,1834.5269999880693,completion,,,,,,,high,high,,,,,,false,,,,,false,332572.3000000119,332572.1999999881,330721.011,330935.10000002384,330737.673,332354.302,4,500,,
trial,html.Screen,10_12_0,2023-11-20T15:33:28.615Z,,,,1,0.0102460616775615,-0.0309670599545429,,0.05,false,hl,2009.4980000118958,response,0.6762618798182235,0.7917843178865932,-1.1499999999999997,-1.067875773627714,0.9935133641952321,-1.1474999999999995,high,low,,ISIC_0072041.JPG,9,ISIC_0000135.JPG,25,false,0.19000000000000006,hh,keypress(i),0,false,334363.8000000119,334363.8000000119,332337.885,332572.39999997616,332354.302,334154.391,4,500,13,
break,html.Screen,10_12_1,2023-11-20T15:33:28.616Z,,,,,,,,,,,NaN,,,,,,,,high,low,,,,,,false,,,,,false,334364.10000002384,334364,,334363.89999997616,,334154.391,4,500,,
break_continue,html.Screen,10_12_2,2023-11-20T15:33:28.616Z,,,,,,,,,,,NaN,,,,,,,,high,low,,,,,,false,,,,,false,334364.3000000119,334364.3000000119,,334364.1999999881,,334154.391,4,500,,
sequence,flow.Sequence,10_12,2023-11-20T15:33:28.616Z,,,,,,,,,,,2009.9980000118958,completion,,,,,,,high,low,,,,,,false,,,,,false,334364.39999997616,334364.3000000119,332337.885,332572.39999997616,332354.302,334154.391,4,500,,
trial,html.Screen,10_13_0,2023-11-20T15:33:30.297Z,,,,1,0.0051189696037511,-0.0396625911332438,,0.05,false,ll,1890.2090000238386,response,-1.152619213055059,0.7917843178865932,-1.1499999999999997,-1.1117876838408909,0.9935133641952321,-1.1474999999999995,low,low,,ISIC_9742891.JPG,9,ISIC_0061915.JPG,27,false,0.1,hh,keypress(i),0,false,336044.8000000119,336044.60000002384,334137.744,334364.5,334154.391,335854.335,4,500,14,
break,html.Screen,10_13_1,2023-11-20T15:33:30.297Z,,,,,,,,,,,NaN,,,,,,,,low,low,,,,,,false,,,,,false,336045.8000000119,336045.60000002384,,336045.10000002384,,335854.335,4,500,,
break_continue,html.Screen,10_13_2,2023-11-20T15:33:30.298Z,,,,,,,,,,,NaN,,,,,,,,low,low,,,,,,false,,,,,false,336046.39999997616,336046.10000002384,,336045.89999997616,,335854.335,4,500,,
sequence,flow.Sequence,10_13,2023-11-20T15:33:30.298Z,,,,,,,,,,,1891.7090000238386,completion,,,,,,,low,low,,,,,,false,,,,,false,336046.5,336046.10000002384,334137.744,334364.39999997616,334154.391,335854.335,4,500,,
trial,html.Screen,10_14_0,2023-11-20T15:33:32.681Z,,,,1,-0.0329095507339554,0.0382899749693245,,0.05,false,lh,2574.664999999979,response,-1.0645919307156395,0.7917843178865932,-1.1499999999999997,0.7087706688259032,0.9935133641952321,-1.1474999999999995,low,high,,ISIC_8812781.JPG,9,ISIC_0031575.JPG,27,false,0.3200000000000002,hh,keypress(i),0,false,338429.3000000119,338429,335820.972,336046.6999999881,335854.335,338221.145,4,500,15,
break,html.Screen,10_14_1,2023-11-20T15:33:32.682Z,,,,,,,,,,,NaN,,,,,,,,low,high,,,,,,false,,,,,false,338430.10000002384,338430,,338429.5,,338221.145,4,500,,
break_continue,html.Screen,10_14_2,2023-11-20T15:33:32.682Z,,,,,,,,,,,NaN,,,,,,,,low,high,,,,,,false,,,,,false,338430.8000000119,338430.60000002384,,338430.3000000119,,338221.145,4,500,,
sequence,flow.Sequence,10_14,2023-11-20T15:33:32.683Z,,,,,,,,,,,2576.265000023821,completion,,,,,,,low,high,,,,,,false,,,,,false,338431,338430.60000002384,335820.972,336046.60000002384,335854.335,338221.145,4,500,,
trial,html.Screen,10_15_0,2023-11-20T15:33:34.353Z,,,,1,0.0051189696037511,-0.0396625911332438,,0.05,true,hh,1880.0549999880604,response,0.6937605548587606,0.7917843178865932,-1.1499999999999997,0.9854871691490024,0.9935133641952321,-1.1474999999999995,high,high,,ISIC_9742891.JPG,9,ISIC_6828892.JPG,44,false,0.1,hh,keypress(i),0,false,340101.5,340101.1999999881,338204.559,338431.1999999881,338221.145,339887.619,4,500,16,
break,html.Screen,10_15_1,2023-11-20T15:33:34.354Z,,,,,,,,,,,NaN,,,,,,,,high,high,,,,,,false,,,,,false,340102.39999997616,340102.1999999881,,340101.8000000119,,339887.619,4,500,,
break_continue,html.Screen,10_15_2,2023-11-20T15:33:34.355Z,,,,,,,,,,,NaN,,,,,,,,high,high,,,,,,false,,,,,false,340102.89999997616,340102.8000000119,,340102.5,,339887.619,4,500,,
sequence,flow.Sequence,10_15,2023-11-20T15:33:34.355Z,,,,,,,,,,,1881.6550000119023,completion,,,,,,,high,high,,,,,,false,,,,,false,340103.10000002384,340102.8000000119,338204.559,338431.10000002384,338221.145,339887.619,4,500,,
trial,html.Screen,10_16_0,2023-11-20T15:33:36.545Z,,,,1,0.000047919190197942736,0.0462652940855003,,0.05,true,hh,2405.181000011915,response,0.8318514901182542,0.7917843178865932,-1.1499999999999997,0.9538458994523976,0.9935133641952321,-1.1474999999999995,high,high,,ISIC_0011507.JPG,8,ISIC_3161477.JPG,44,false,0.1,hh,keypress(i),0,false,342293.10000002384,342292.8000000119,339871.058,340103.3000000119,339887.619,342087.903,4,500,17,
break,html.Screen,10_16_1,2023-11-20T15:33:36.546Z,,,,,,,,,,,NaN,,,,,,,,high,high,,,,,,false,,,,,false,342294,342293.8000000119,,342293.39999997616,,342087.903,4,500,,
break_continue,html.Screen,10_16_2,2023-11-20T15:33:36.546Z,,,,,,,,,,,NaN,,,,,,,,high,high,,,,,,false,,,,,false,342294.5,342294.1999999881,,342294.10000002384,,342087.903,4,500,,
sequence,flow.Sequence,10_16,2023-11-20T15:33:36.546Z,,,,,,,,,,,2406.580999988073,completion,,,,,,,high,high,,,,,,false,,,,,false,342294.60000002384,342294.1999999881,339871.058,340103.3000000119,339887.619,342087.903,4,500,,
trial,html.Screen,10_17_0,2023-11-20T15:33:37.801Z,,,,1,-0.0057914759495055,-0.0074667911845194,,0.05,true,hh,1460.8970000119298,response,0.8842396282744274,0.7917843178865932,-1.1499999999999997,1.0676592823752966,0.9935133641952321,-1.1474999999999995,high,high,,ISIC_0058723.JPG,8,ISIC_0029182.JPG,44,false,0.1,hh,keypress(i),0,false,343549,343548.8000000119,342071.251,342294.8000000119,342087.903,343354.326,4,500,18,
break,html.Screen,10_17_1,2023-11-20T15:33:37.802Z,,,,,,,,,,,NaN,,,,,,,,high,high,,,,,,false,,,,,false,343550,343549.6999999881,,343549.39999997616,,343354.326,4,500,,
break_continue,html.Screen,10_17_2,2023-11-20T15:33:37.802Z,,,,,,,,,,,NaN,,,,,,,,high,high,,,,,,false,,,,,false,343550.5,343550.39999997616,,343550.1999999881,,343354.326,4,500,,
sequence,flow.Sequence,10_17,2023-11-20T15:33:37.802Z,,,,,,,,,,,1462.496999976167,completion,,,,,,,high,high,,,,,,false,,,,,false,343550.6999999881,343550.39999997616,342071.251,342294.8000000119,342087.903,343354.326,4,500,,
trial,html.Screen,10_18_0,2023-11-20T15:33:39.441Z,,,,1,-0.0057914759495055,-0.0074667911845194,,0.05,false,lh,1834.673999999999,response,-1.2429840165564423,0.7917843178865932,-1.1499999999999997,0.7308963943423881,0.9935133641952321,-1.1474999999999995,low,high,,ISIC_0058723.JPG,10,ISIC_1264576.JPG,27,false,0.3200000000000002,hl,keypress(j),0,false,345189.1999999881,345189,343321.092,343550.89999997616,343354.326,344988.207,4,500,19,
break,html.Screen,10_18_1,2023-11-20T15:33:39.442Z,,,,,,,,,,,NaN,,,,,,,,low,high,,,,,,false,,,,,false,345190.10000002384,345189.89999997616,,345189.5,,344988.207,4,500,,
break_continue,html.Screen,10_18_2,2023-11-20T15:33:39.442Z,,,,,,,,,,,NaN,,,,,,,,low,high,,,,,,false,,,,,false,345190.60000002384,345190.5,,345190.3000000119,,344988.207,4,500,,
sequence,flow.Sequence,10_18,2023-11-20T15:33:39.442Z,,,,,,,,,,,1836.173999999999,completion,,,,,,,low,high,,,,,,false,,,,,false,345190.8000000119,345190.5,343321.092,343550.8000000119,343354.326,344988.207,4,500,,
trial,html.Screen,10_19_0,2023-11-20T15:33:40.496Z,,,,1,-0.0456515796420274,0.0273567130070961,,0.05,false,hh,1255.6929999761633,response,0.7543493127539531,0.7917843178865932,-1.1499999999999997,0.9452304370934528,0.9935133641952321,-1.1474999999999995,high,high,,ISIC_0068610.JPG,9,ISIC_0029017.JPG,44,false,0.1,hl,keypress(j),0,false,346244.10000002384,346243.89999997616,344954.27,345191.10000002384,344988.207,346054.391,4,500,20,
break,html.Screen,10_19_1,2023-11-20T15:33:40.496Z,,,,,,,,,,,NaN,,,,,,,,high,high,,,,,,false,,,,,false,346244.3000000119,346244.1999999881,,346244.10000002384,,346054.391,4,500,,
break_continue,html.Screen,10_19_2,2023-11-20T15:33:40.496Z,,,,,,,,,,,NaN,,,,,,,,high,high,,,,,,false,,,,,false,346244.5,346244.39999997616,,346244.3000000119,,346054.391,4,500,,
sequence,flow.Sequence,10_19,2023-11-20T15:33:40.496Z,,,,,,,,,,,1256.1929999761633,completion,,,,,,,high,high,,,,,,false,,,,,false,346244.5,346244.39999997616,344954.27,345190.89999997616,344988.207,346054.391,4,500,,
trial,html.Screen,10_20_0,2023-11-20T15:33:42.001Z,,,,1,-0.0069555338059566,0.0310100918136373,,0.05,false,hh,1694.6089999999967,response,0.6974153979310105,0.7917843178865932,-1.1499999999999997,1.0803819511715569,0.9935133641952321,-1.1474999999999995,high,high,,ISIC_0011177.JPG,8,ISIC_0012865.JPG,44,false,0.1,hl,keypress(j),0,false,347749.3000000119,347749,346037.699,346244.60000002384,346054.391,347537.628,4,500,21,
break,html.Screen,10_20_1,2023-11-20T15:33:42.002Z,,,,,,,,,,,NaN,,,,,,,,high,high,,,,,,false,,,,,false,347750.39999997616,347750.10000002384,,347749.6999999881,,347537.628,4,500,,
break_continue,html.Screen,10_20_2,2023-11-20T15:33:42.003Z,,,,,,,,,,,NaN,,,,,,,,high,high,,,,,,false,,,,,false,347751,347750.8000000119,,347750.60000002384,,347537.628,4,500,,
sequence,flow.Sequence,10_20,2023-11-20T15:33:42.003Z,,,,,,,,,,,1696.4090000119177,completion,,,,,,,high,high,,,,,,false,,,,,false,347751.3000000119,347750.8000000119,346037.699,346244.5,346054.391,347537.628,4,500,,
trial,html.Screen,10_21_0,2023-11-20T15:33:43.361Z,,,,1,-0.0450282431170921,0,,0.05,false,ll,1571.371999999974,response,-1.152619213055059,0.7917843178865932,-1.1499999999999997,-1.1117876838408909,0.9935133641952321,-1.1474999999999995,low,low,,ISIC_1805163.JPG,8,ISIC_0061915.JPG,27,false,0.1,lh,keypress(e),0,false,349109.1999999881,349109,347520.984,347751.5,347537.628,348904.261,4,500,22,
break,html.Screen,10_21_1,2023-11-20T15:33:43.362Z,,,,,,,,,,,NaN,,,,,,,,low,low,,,,,,false,,,,,false,349110.10000002384,349109.8000000119,,349109.5,,348904.261,4,500,,
break_continue,html.Screen,10_21_2,2023-11-20T15:33:43.362Z,,,,,,,,,,,NaN,,,,,,,,low,low,,,,,,false,,,,,false,349110.5,349110.39999997616,,349110.1999999881,,348904.261,4,500,,
sequence,flow.Sequence,10_21,2023-11-20T15:33:43.362Z,,,,,,,,,,,1572.771999976132,completion,,,,,,,low,low,,,,,,false,,,,,false,349110.6999999881,349110.39999997616,347520.984,347751.39999997616,347537.628,348904.261,4,500,,
trial,html.Screen,10_22_0,2023-11-20T15:33:44.592Z,,,,1,0.0409338693593207,-0.0072462710499874,,0.05,false,lh,1436.2390000000014,response,-0.887838744955182,0.7917843178865932,-1.1499999999999997,0.7545096650863988,0.9935133641952321,-1.1474999999999995,low,high,,ISIC_3608788.JPG,9,ISIC_1488727.JPG,27,false,0.3200000000000002,ll,keypress(f),0,false,350340.8000000119,350340.5,348887.797,349111,348904.261,350137.777,4,500,23,
break,html.Screen,10_22_1,2023-11-20T15:33:44.593Z,,,,,,,,,,,NaN,,,,,,,,low,high,,,,,,false,,,,,false,350341.6999999881,350341.39999997616,,350341,,350137.777,4,500,,
break_continue,html.Screen,10_22_2,2023-11-20T15:33:44.594Z,,,,,,,,,,,NaN,,,,,,,,low,high,,,,,,false,,,,,false,350342.1999999881,350342,,350341.8000000119,,350137.777,4,500,,
sequence,flow.Sequence,10_22,2023-11-20T15:33:44.594Z,,,,,,,,,,,1437.7390000000014,completion,,,,,,,low,high,,,,,,false,,,,,false,350342.39999997616,350342,348887.797,349110.8000000119,348904.261,350137.777,4,500,,
trial,html.Screen,10_23_0,2023-11-20T15:33:46.489Z,,,,1,0.0362376068089956,0.047825070846155,,0.05,false,ll,2099.222999999998,response,-1.1877026569952844,0.7917843178865932,-1.1499999999999997,-1.1604367569896263,0.9935133641952321,-1.1474999999999995,low,low,,ISIC_6985114.JPG,9,ISIC_0064589.JPG,27,false,0.1,hl,keypress(j),0,false,352237.1999999881,352237,350121.022,350342.5,350137.777,352020.971,4,500,24,
break,html.Screen,10_23_1,2023-11-20T15:33:46.490Z,,,,,,,,,,,NaN,,,,,,,,low,low,,,,,,false,,,,,false,352238.10000002384,352237.89999997616,,352237.60000002384,,352020.971,4,500,,
break_continue,html.Screen,10_23_2,2023-11-20T15:33:46.490Z,,,,,,,,,,,NaN,,,,,,,,low,low,,,,,,false,,,,,false,352238.60000002384,352238.5,,352238.1999999881,,352020.971,4,500,,
sequence,flow.Sequence,10_23,2023-11-20T15:33:46.490Z,,,,,,,,,,,2100.722999999998,completion,,,,,,,low,low,,,,,,false,,,,,false,352238.89999997616,352238.5,350121.022,350342.5,350137.777,352020.971,4,500,,
trial,html.Screen,10_24_0,2023-11-20T15:33:47.929Z,,,,1,0.0362376068089956,0.047825070846155,,0.05,false,ll,1655.7289999880595,response,-1.2493792664822851,0.7917843178865932,-1.1499999999999997,-1.1336008561684745,0.9935133641952321,-1.1474999999999995,low,low,,ISIC_6985114.JPG,10,ISIC_0061475.JPG,27,false,0.1,hl,keypress(j),0,false,353676.89999997616,353676.6999999881,352004.536,352239,352020.971,353471.171,4,500,25,
break,html.Screen,10_24_1,2023-11-20T15:33:47.929Z,,,,,,,,,,,NaN,,,,,,,,low,low,,,,,,false,,,,,false,353677.8000000119,353677.60000002384,,353677.3000000119,,353471.171,4,500,,
break_continue,html.Screen,10_24_2,2023-11-20T15:33:47.930Z,,,,,,,,,,,NaN,,,,,,,,low,low,,,,,,false,,,,,false,353678.39999997616,353678.1999999881,,353678,,353471.171,4,500,,
sequence,flow.Sequence,10_24,2023-11-20T15:33:47.930Z,,,,,,,,,,,1657.2289999880595,completion,,,,,,,low,low,,,,,,false,,,,,false,353678.60000002384,353678.1999999881,352004.536,352239,352020.971,353471.171,4,500,,
trial,html.Screen,10_25_0,2023-11-20T15:33:49.847Z,,,,1,-0.0107854985447517,-0.0478010417136109,,0.05,false,ll,2124.228999976185,response,-1.135372722680314,0.7917843178865932,-1.1499999999999997,-1.0926414044454305,0.9935133641952321,-1.1474999999999995,low,low,,ISIC_0010500.JPG,8,ISIC_2355513.JPG,27,false,0.1,lh,keypress(e),0,false,355595.60000002384,355595.39999997616,353454.464,353678.8000000119,353471.171,355387.614,4,500,26,
break,html.Screen,10_25_1,2023-11-20T15:33:49.848Z,,,,,,,,,,,NaN,,,,,,,,low,low,,,,,,false,,,,,false,355596.10000002384,355595.89999997616,,355595.6999999881,,355387.614,4,500,,
break_continue,html.Screen,10_25_2,2023-11-20T15:33:49.848Z,,,,,,,,,,,NaN,,,,,,,,low,low,,,,,,false,,,,,false,355596.1999999881,355596.1999999881,,355596.10000002384,,355387.614,4,500,,
sequence,flow.Sequence,10_25,2023-11-20T15:33:49.848Z,,,,,,,,,,,2125.028999988106,completion,,,,,,,low,low,,,,,,false,,,,,false,355596.3000000119,355596.1999999881,353454.464,353678.6999999881,353471.171,355387.614,4,500,,
trial,html.Screen,10_26_0,2023-11-20T15:33:51.184Z,,,,1,-0.007397293189458,-0.0174716772037504,,0.05,true,hl,1543.7859999761567,response,0.7836356408583546,0.7917843178865932,-1.1499999999999997,-1.1197925594706428,0.9935133641952321,-1.1474999999999995,high,low,,ISIC_0056226.JPG,11,ISIC_0024961.JPG,25,false,0.19000000000000006,hl,keypress(j),0,false,356931.5,356931.39999997616,355370.911,355596.3000000119,355387.614,356720.93,4,500,27,
break,html.Screen,10_26_1,2023-11-20T15:33:51.185Z,,,,,,,,,,,NaN,,,,,,,,high,low,,,,,,false,,,,,false,356931.8000000119,356931.6999999881,,356931.60000002384,,356720.93,4,500,,
break_continue,html.Screen,10_26_2,2023-11-20T15:33:51.185Z,,,,,,,,,,,NaN,,,,,,,,high,low,,,,,,false,,,,,false,356932,356931.89999997616,,356931.89999997616,,356720.93,4,500,,
sequence,flow.Sequence,10_26,2023-11-20T15:33:51.185Z,,,,,,,,,,,1544.2859999761567,completion,,,,,,,high,low,,,,,,false,,,,,false,356932,356931.89999997616,355370.911,355596.3000000119,355387.614,356720.93,4,500,,
trial,html.Screen,10_27_0,2023-11-20T15:33:52.538Z,,,,1,0.0362376068089956,0.047825070846155,,0.05,true,hh,1563.870000011928,response,0.7483736986316007,0.7917843178865932,-1.1499999999999997,0.9623853708853938,0.9935133641952321,-1.1474999999999995,high,high,,ISIC_6985114.JPG,8,ISIC_2844085.JPG,44,false,0.1,hh,keypress(i),0,false,358285,358284.8000000119,356704.267,356932.10000002384,356720.93,358070.897,4,500,28,
break,html.Screen,10_27_1,2023-11-20T15:33:52.539Z,,,,,,,,,,,NaN,,,,,,,,high,high,,,,,,false,,,,,false,358285.89999997616,358285.6999999881,,358285.39999997616,,358070.897,4,500,,
break_continue,html.Screen,10_27_2,2023-11-20T15:33:52.539Z,,,,,,,,,,,NaN,,,,,,,,high,high,,,,,,false,,,,,false,358286.5,358286.3000000119,,358286.10000002384,,358070.897,4,500,,
sequence,flow.Sequence,10_27,2023-11-20T15:33:52.540Z,,,,,,,,,,,1565.370000011928,completion,,,,,,,high,high,,,,,,false,,,,,false,358286.6999999881,358286.3000000119,356704.267,356932.10000002384,356720.93,358070.897,4,500,,
trial,html.Screen,10_28_0,2023-11-20T15:33:53.811Z,,,,1,-0.0027483411352856,-0.0100996915276271,,0.05,true,hl,1487.1030000000028,response,0.7083588209645494,0.7917843178865932,-1.1499999999999997,-1.1496804492673935,0.9935133641952321,-1.1474999999999995,high,low,,ISIC_7364041.JPG,9,ISIC_0047004.JPG,25,false,0.19000000000000006,hl,keypress(j),0,false,359558.1999999881,359558,358054.254,358286.89999997616,358070.897,359354.236,4,500,29,
break,html.Screen,10_28_1,2023-11-20T15:33:53.812Z,,,,,,,,,,,NaN,,,,,,,,high,low,,,,,,false,,,,,false,359559.3000000119,359558.89999997616,,359558.5,,359354.236,4,500,,
break_continue,html.Screen,10_28_2,2023-11-20T15:33:53.813Z,,,,,,,,,,,NaN,,,,,,,,high,low,,,,,,false,,,,,false,359559.89999997616,359559.60000002384,,359559.5,,359354.236,4,500,,
sequence,flow.Sequence,10_28,2023-11-20T15:33:53.813Z,,,,,,,,,,,1488.7030000238447,completion,,,,,,,high,low,,,,,,false,,,,,false,359560.10000002384,359559.60000002384,358054.254,358286.8000000119,358070.897,359354.236,4,500,,
trial,html.Screen,10_29_0,2023-11-20T15:33:54.962Z,,,,1,0.0188047466661863,-0.0288346930436979,,0.05,false,lh,1354.5640000119456,response,-0.9235571765207048,0.7917843178865932,-1.1499999999999997,1.0008081653938232,0.9935133641952321,-1.1474999999999995,low,high,,ISIC_0014157.JPG,8,ISIC_8796632.JPG,27,false,0.3200000000000002,hh,keypress(i),0,false,360709.10000002384,360708.8000000119,359337.666,359560.1999999881,359354.236,360504.319,4,500,30,
break,html.Screen,10_29_1,2023-11-20T15:33:54.963Z,,,,,,,,,,,NaN,,,,,,,,low,high,,,,,,false,,,,,false,360710,360709.8000000119,,360709.39999997616,,360504.319,4,500,,
break_continue,html.Screen,10_29_2,2023-11-20T15:33:54.963Z,,,,,,,,,,,NaN,,,,,,,,low,high,,,,,,false,,,,,false,360710.60000002384,360710.39999997616,,360710.1999999881,,360504.319,4,500,,
sequence,flow.Sequence,10_29,2023-11-20T15:33:54.964Z,,,,,,,,,,,1356.1639999761828,completion,,,,,,,low,high,,,,,,false,,,,,false,360710.8000000119,360710.39999997616,359337.666,359560.1999999881,359354.236,360504.319,4,500,,
trial,html.Screen,10_30_0,2023-11-20T15:33:56.034Z,,,,1,-0.0389988030702649,-0.0143212271490256,,0.05,true,hl,1276.1809999999823,response,0.6970565704787165,0.7917843178865932,-1.1499999999999997,-1.189673590156875,0.9935133641952321,-1.1474999999999995,high,low,,ISIC_0064669.JPG,9,ISIC_0032522.JPG,25,false,0.19000000000000006,hl,keypress(j),0,false,361780.8000000119,361780.5,360487.783,360711,360504.319,361587.607,4,500,31,
break,html.Screen,10_30_1,2023-11-20T15:33:56.035Z,,,,,,,,,,,NaN,,,,,,,,high,low,,,,,,false,,,,,false,361781.8000000119,361781.60000002384,,361781.10000002384,,361587.607,4,500,,
break_continue,html.Screen,10_30_2,2023-11-20T15:33:56.035Z,,,,,,,,,,,NaN,,,,,,,,high,low,,,,,,false,,,,,false,361782.3000000119,361782.1999999881,,361782,,361587.607,4,500,,
sequence,flow.Sequence,10_30,2023-11-20T15:33:56.035Z,,,,,,,,,,,1277.8809999880614,completion,,,,,,,high,low,,,,,,false,,,,,false,361782.60000002384,361782.1999999881,360487.783,360710.89999997616,360504.319,361587.607,4,500,,
trial,html.Screen,10_31_0,2023-11-20T15:33:57.578Z,,,,1,-0.0050679133050021,0.0009714874637896,,0.05,false,lh,1737.092999988061,response,-1.276222161935671,0.7917843178865932,-1.1499999999999997,0.9657780821973284,0.9935133641952321,-1.1474999999999995,low,high,,ISIC_9848743.JPG,9,ISIC_6710411.JPG,27,false,0.3200000000000002,hl,keypress(j),0,false,363324.89999997616,363324.6999999881,361570.925,361782.6999999881,361587.607,363121.145,4,500,32,
break,html.Screen,10_31_1,2023-11-20T15:33:57.579Z,,,,,,,,,,,NaN,,,,,,,,low,high,,,,,,false,,,,,false,363325.8000000119,363325.60000002384,,363325.10000002384,,363121.145,4,500,,
break_continue,html.Screen,10_31_2,2023-11-20T15:33:57.579Z,,,,,,,,,,,NaN,,,,,,,,low,high,,,,,,false,,,,,false,363326.1999999881,363326.10000002384,,363325.8000000119,,363121.145,4,500,,
sequence,flow.Sequence,10_31,2023-11-20T15:33:57.580Z,,,,,,,,,,,1738.4930000238237,completion,,,,,,,low,high,,,,,,false,,,,,false,363326.6999999881,363326.10000002384,361570.925,361782.6999999881,361587.607,363121.145,4,500,,
trial,html.Screen,10_32_0,2023-11-20T15:33:58.955Z,,,,1,-0.0324770283903853,-0.0249968632204382,,0.05,false,hl,1580.5549999880604,response,0.6970565704787165,0.7917843178865932,-1.1499999999999997,-1.189673590156875,0.9935133641952321,-1.1474999999999995,high,low,,ISIC_7266462.JPG,9,ISIC_0032522.JPG,25,false,0.19000000000000006,hh,keypress(i),0,false,364702,364701.6999999881,363104.317,363326.89999997616,363121.145,364487.572,4,500,33,
break,html.Screen,10_32_1,2023-11-20T15:33:58.956Z,,,,,,,,,,,NaN,,,,,,,,high,low,,,,,,false,,,,,false,364702.8000000119,364702.60000002384,,364702.3000000119,,364487.572,4,500,,
break_continue,html.Screen,10_32_2,2023-11-20T15:33:58.956Z,,,,,,,,,,,NaN,,,,,,,,high,low,,,,,,false,,,,,false,364703.39999997616,364703.10000002384,,364702.89999997616,,364487.572,4,500,,
sequence,flow.Sequence,10_32,2023-11-20T15:33:58.956Z,,,,,,,,,,,1581.9550000238232,completion,,,,,,,high,low,,,,,,false,,,,,false,364703.60000002384,364703.10000002384,363104.317,363326.8000000119,363121.145,364487.572,4,500,,
trial,html.Screen,10_33_0,2023-11-20T15:34:00.426Z,,,,1,-0.0057914759495055,-0.0074667911845194,,0.05,false,hh,1685.4280000000144,response,0.7090675113742605,0.7917843178865932,-1.1499999999999997,0.9672217489045032,0.9935133641952321,-1.1474999999999995,high,high,,ISIC_0058723.JPG,9,ISIC_0010358.JPG,44,false,0.1,hl,keypress(j),0,false,366173.3000000119,366173,364471.132,364703.6999999881,364487.572,365971.059,4,500,34,
break,html.Screen,10_33_1,2023-11-20T15:34:00.427Z,,,,,,,,,,,NaN,,,,,,,,high,high,,,,,,false,,,,,false,366174.10000002384,366173.89999997616,,366173.5,,365971.059,4,500,,
break_continue,html.Screen,10_33_2,2023-11-20T15:34:00.427Z,,,,,,,,,,,NaN,,,,,,,,high,high,,,,,,false,,,,,false,366174.60000002384,366174.39999997616,,366174.1999999881,,365971.059,4,500,,
sequence,flow.Sequence,10_33,2023-11-20T15:34:00.428Z,,,,,,,,,,,1686.8279999761726,completion,,,,,,,high,high,,,,,,false,,,,,false,366174.8000000119,366174.39999997616,364471.132,364703.6999999881,364487.572,365971.059,4,500,,
trial,html.Screen,10_34_0,2023-11-20T15:34:02.290Z,,,,1,0,0.0264544974620926,,0.05,false,hh,2065.9409999999916,response,0.8166030890360636,0.7917843178865932,-1.1499999999999997,0.9078453750437048,0.9935133641952321,-1.1474999999999995,high,high,,ISIC_0056991.JPG,9,ISIC_0028919.JPG,44,false,0.1,hl,keypress(j),0,false,368037.1999999881,368037,365954.451,366175,365971.059,367837.605,4,500,35,
break,html.Screen,10_34_1,2023-11-20T15:34:02.291Z,,,,,,,,,,,NaN,,,,,,,,high,high,,,,,,false,,,,,false,368038.10000002384,368037.89999997616,,368037.5,,367837.605,4,500,,
break_continue,html.Screen,10_34_2,2023-11-20T15:34:02.292Z,,,,,,,,,,,NaN,,,,,,,,high,high,,,,,,false,,,,,false,368038.6999999881,368038.5,,368038.3000000119,,367837.605,4,500,,
sequence,flow.Sequence,10_34,2023-11-20T15:34:02.292Z,,,,,,,,,,,2067.4409999999916,completion,,,,,,,high,high,,,,,,false,,,,,false,368038.89999997616,368038.5,365954.451,366174.89999997616,365971.059,367837.605,4,500,,
trial,html.Screen,10_35_0,2023-11-20T15:34:03.602Z,,,,1,0.0134764727102299,0.0033499036460912,,0.05,false,lh,1511.4950000238605,response,-1.0115965332688306,0.7917843178865932,-1.1499999999999997,0.8282633603842442,0.9935133641952321,-1.1474999999999995,low,high,,ISIC_0009998.JPG,8,ISIC_1069587.JPG,27,false,0.3200000000000002,hh,keypress(i),0,false,369349.3000000119,369349.10000002384,367804.316,368039.10000002384,367837.605,369137.549,4,500,36,
break,html.Screen,10_35_1,2023-11-20T15:34:03.603Z,,,,,,,,,,,NaN,,,,,,,,low,high,,,,,,false,,,,,false,369350.1999999881,369350,,369349.60000002384,,369137.549,4,500,,
break_continue,html.Screen,10_35_2,2023-11-20T15:34:03.604Z,,,,,,,,,,,NaN,,,,,,,,low,high,,,,,,false,,,,,false,369350.6999999881,369350.60000002384,,369350.3000000119,,369137.549,4,500,,
sequence,flow.Sequence,10_35,2023-11-20T15:34:03.604Z,,,,,,,,,,,1512.9950000238605,completion,,,,,,,low,high,,,,,,false,,,,,false,369350.89999997616,369350.60000002384,367804.316,368039,367837.605,369137.549,4,500,,
trial,html.Screen,10_36_0,2023-11-20T15:34:05.059Z,,,,1,-0.007397293189458,-0.0174716772037504,,0.05,false,ll,1668.2510000119219,response,-1.101214461533281,0.7917843178865932,-1.1499999999999997,-1.1849883512428183,0.9935133641952321,-1.1474999999999995,low,low,,ISIC_0056226.JPG,9,ISIC_0064943.JPG,27,false,0.1,hl,keypress(j),0,false,370806,370805.8000000119,369121.041,369351,369137.549,370604.424,4,500,37,
break,html.Screen,10_36_1,2023-11-20T15:34:05.060Z,,,,,,,,,,,NaN,,,,,,,,low,low,,,,,,false,,,,,false,370806.89999997616,370806.6999999881,,370806.3000000119,,370604.424,4,500,,
break_continue,html.Screen,10_36_2,2023-11-20T15:34:05.060Z,,,,,,,,,,,NaN,,,,,,,,low,low,,,,,,false,,,,,false,370807.5,370807.3000000119,,370807.10000002384,,370604.424,4,500,,
sequence,flow.Sequence,10_36,2023-11-20T15:34:05.061Z,,,,,,,,,,,1669.7510000119219,completion,,,,,,,low,low,,,,,,false,,,,,false,370807.6999999881,370807.3000000119,369121.041,369351,369137.549,370604.424,4,500,,
trial,html.Screen,10_37_0,2023-11-20T15:34:06.930Z,,,,1,0.0362376068089956,0.047825070846155,,0.05,false,lh,2072.475999976159,response,-0.8816288864119318,0.7917843178865932,-1.1499999999999997,0.801867301188093,0.9935133641952321,-1.1474999999999995,low,high,,ISIC_6985114.JPG,8,ISIC_9196783.JPG,27,false,0.3200000000000002,hl,keypress(j),0,false,372677.10000002384,372676.89999997616,370571.094,370807.89999997616,370604.424,372470.939,4,500,38,
break,html.Screen,10_37_1,2023-11-20T15:34:06.931Z,,,,,,,,,,,NaN,,,,,,,,low,high,,,,,,false,,,,,false,372678,372677.6999999881,,372677.39999997616,,372470.939,4,500,,
break_continue,html.Screen,10_37_2,2023-11-20T15:34:06.931Z,,,,,,,,,,,NaN,,,,,,,,low,high,,,,,,false,,,,,false,372678.60000002384,372678.39999997616,,372678.1999999881,,372470.939,4,500,,
sequence,flow.Sequence,10_37,2023-11-20T15:34:06.932Z,,,,,,,,,,,2073.975999976159,completion,,,,,,,low,high,,,,,,false,,,,,false,372678.8000000119,372678.39999997616,370571.094,370807.8000000119,370604.424,372470.939,4,500,,
trial,html.Screen,10_38_0,2023-11-20T15:34:08.425Z,,,,1,0.0112310719058792,-0.0469047359904117,,0.05,false,ll,1700.760999988066,response,-1.1346217981791904,0.7917843178865932,-1.1499999999999997,-1.1555132168806113,0.9935133641952321,-1.1474999999999995,low,low,,ISIC_0068184.JPG,10,ISIC_0032771.JPG,27,false,0.1,hl,keypress(j),0,false,374171.8000000119,374171.6999999881,372454.454,372678.89999997616,372470.939,373954.186,4,500,39,
break,html.Screen,10_38_1,2023-11-20T15:34:08.425Z,,,,,,,,,,,NaN,,,,,,,,low,low,,,,,,false,,,,,false,374172.10000002384,374172.10000002384,,374171.89999997616,,373954.186,4,500,,
break_continue,html.Screen,10_38_2,2023-11-20T15:34:08.425Z,,,,,,,,,,,NaN,,,,,,,,low,low,,,,,,false,,,,,false,374172.39999997616,374172.1999999881,,374172.1999999881,,373954.186,4,500,,
