sender,sender_type,sender_id,timestamp,meta,,age,blockNo,c1,c2,condition,correct,correctResponse,duration,ended_on,f1,f1_high,f1_low,f2,f2_high,f2_low,feature_level1,feature_level2,gender,img_left,img_reveal,img_right,n_target_images,practice,response,response_action,selection_duration,staircase,time_commit,time_end,time_render,time_run,time_show,time_switch,total_blocks,total_trials,trialNo,url
informed_consent,html.Screen,0,2023-11-14T21:34:58.708Z,"{""labjs_version"":""20.2.4"",""labjs_build"":{""flavor"":""development"",""commit"":""f5b4a49f956347addd546a832a3327688c2c0fef""},""location"":""https://labjs.felixhenninger.com/api/labjs_preview/index.html"",""userAgent"":""Mozilla/5.0 (Windows NT 10.0; Win64; x64) AppleWebKit/537.36 (KHTML, like Gecko) Chrome/119.0.0.0 Safari/537.36"",""platform"":""Win32"",""language"":""en-US"",""locale"":""en-US"",""timeZone"":""America/Chicago"",""timezoneOffset"":360,""screen_width"":1680,""screen_height"":1050,""scroll_width"":825,""scroll_height"":888,""window_innerWidth"":825,""window_innerHeight"":936,""devicePixelRatio"":1}",,,,,,,,,48197.823,response,,,,,,,,,,,,,,,consent,click button,,,48821.30000001192,48812,597.367,807.3000000119209,614.177,48607.407,,,,{}
Demography form,html.Form,1,2023-11-14T21:35:05.092Z,,,19,,,,,,,6597.29299998808,form submission,,,,,,,,,female,,,,,,,,,,55204.89999997616,55204.69999998808,48590.99,48821.59999996424,48607.407,55003.193,,,,
Welcome,html.Screen,2,2023-11-14T21:35:34.659Z,,,,,,,"[""asym"",""bor""]",,,29768.807,response,,,,,,,,,,,,,,,continue,click button,,,84772.59999996424,84772,54986.748,55204.89999997616,55003.193,84577.439,,,,
demo_instructions,html.Screen,3,2023-11-14T21:36:00.659Z,,,,,,,,,,26194.66099996424,response,,,,,,,,,,,,,,,continue,click button,,,110772.69999998808,110772.09999996424,84560.892,84772.69999998808,84577.439,110577.939,,,,
trial,html.Screen,4_0_0,2023-11-14T21:36:14.981Z,,,,0,0.948927472020595,-1.0660437155921598,,true,lh,14515.76099998808,response,-0.991282840649944,1.0499999999999998,-1.0499999999999998,0.9397921099839784,1.0499999999999998,-1.0499999999999998,low,high,,ISIC_5808758.JPG,,ISIC_0000463.JPG,21,true,lh,keypress(e),100,false,125093.89999997616,125093.69999998808,110561.348,110772.80000001192,110577.939,124906.033,1,16,1,
sequence,flow.Sequence,4_0,2023-11-14T21:36:14.981Z,,,,,,,,,,14515.76099998808,completion,,,,,,,low,high,,,,,,true,,,,false,125094.19999998808,125093.69999998808,110561.348,110772.80000001192,110577.939,124906.033,1,16,,
trial,html.Screen,4_1_0,2023-11-14T21:36:35.049Z,,,,0,1.0213365328004047,-1.088524359911891,,true,lh,20255.267000011925,response,-0.9696118525781644,1.0499999999999998,-1.0499999999999998,0.9244148283103414,1.0499999999999998,-1.0499999999999998,low,high,,ISIC_5434229.JPG,,ISIC_7927525.JPG,21,true,lh,keypress(e),100,false,145162,145161.30000001192,124889.111,125094.19999998808,124906.033,144978.308,1,16,2,
sequence,flow.Sequence,4_1,2023-11-14T21:36:35.050Z,,,,,,,,,,20255.267000011925,completion,,,,,,,low,high,,,,,,true,,,,false,145162.69999998808,145161.30000001192,124889.111,125094.19999998808,124906.033,144978.308,1,16,,
trial,html.Screen,4_2_0,2023-11-14T21:36:55.815Z,,,,0,0.8947611078712571,-0.8960964505004638,,true,lh,20948.791999964247,response,-1.2331439637486756,1.0499999999999998,-1.0499999999999998,0.9691143900156988,1.0499999999999998,-1.0499999999999998,low,high,,ISIC_6441128.JPG,,ISIC_7877488.JPG,21,true,lh,keypress(e),100,false,165927.69999998808,165927.09999996424,144961.576,145163.19999998808,144978.308,165752.091,1,16,3,
sequence,flow.Sequence,4_2,2023-11-14T21:36:55.816Z,,,,,,,,,,20948.791999964247,completion,,,,,,,low,high,,,,,,true,,,,false,165928.69999998808,165927.09999996424,144961.576,145163.09999996424,144978.308,165752.091,1,16,,
trial,html.Screen,4_3_0,2023-11-14T21:37:19.110Z,,,,0,1.0213365328004047,-1.088524359911891,,true,lh,23469.909000000014,response,-0.9696118525781644,1.0499999999999998,-1.0499999999999998,0.9244148283103414,1.0499999999999998,-1.0499999999999998,low,high,,ISIC_5434229.JPG,,ISIC_7927525.JPG,21,true,lh,keypress(e),100,false,189222.59999996424,189222,165735.269,165929.09999996424,165752.091,189047.209,1,16,4,
sequence,flow.Sequence,4_3,2023-11-14T21:37:19.111Z,,,,,,,,,,23469.909000000014,completion,,,,,,,low,high,,,,,,true,,,,false,189223.39999997616,189222,165735.269,165929,165752.091,189047.209,1,16,,
trial,html.Screen,4_4_0,2023-11-14T21:37:31.955Z,,,,0,1.2282561398079586,1.210457198775374,,true,ll,13019.890999964235,response,-1.0565911491759823,1.0499999999999998,-1.0499999999999998,-1.0221582682700174,1.0499999999999998,-1.0499999999999998,low,low,,ISIC_9141817.JPG,,ISIC_6604862.JPG,111,true,ll,keypress(f),100,false,202067.59999996424,202067.09999996424,189030.594,189224,189047.209,201889.091,1,16,5,
sequence,flow.Sequence,4_4,2023-11-14T21:37:31.956Z,,,,,,,,,,13019.890999964235,completion,,,,,,,low,low,,,,,,true,,,,false,202068.5,202067.09999996424,189030.594,189223.69999998808,189047.209,201889.091,1,16,,
trial,html.Screen,4_5_0,2023-11-14T21:37:42.192Z,,,,0,0.934130994804294,1.0454436589399478,,true,ll,10414.909000000014,response,-1.0017318800845572,1.0499999999999998,-1.0499999999999998,-0.9394193355947452,1.0499999999999998,-1.0499999999999998,low,low,,ISIC_0053916.JPG,,ISIC_0024586.JPG,111,true,ll,keypress(f),100,false,212304.09999996424,212304,201872.171,202068.69999998808,201889.091,212125.424,1,16,6,
sequence,flow.Sequence,4_5,2023-11-14T21:37:42.192Z,,,,,,,,,,10414.909000000014,completion,,,,,,,low,low,,,,,,true,,,,false,212304.39999997616,212304,201872.171,202068.59999996424,201889.091,212125.424,1,16,,
trial,html.Screen,4_6_0,2023-11-14T21:38:04.820Z,,,,0,1.189469386514313,0.8968175956070027,,true,ll,22806.175999964238,response,-0.8849616197102024,1.0499999999999998,-1.0499999999999998,-0.8708774591990956,1.0499999999999998,-1.0499999999999998,low,low,,ISIC_0010644.JPG,,ISIC_2872107.JPG,111,true,ll,keypress(f),100,false,234932,234931.59999996424,212108.732,212304.39999997616,212125.424,234752.962,1,16,7,
sequence,flow.Sequence,4_6,2023-11-14T21:38:04.820Z,,,,,,,,,,22806.175999964238,completion,,,,,,,low,low,,,,,,true,,,,false,234932.69999998808,234931.59999996424,212108.732,212304.39999997616,212125.424,234752.962,1,16,,
trial,html.Screen,4_7_0,2023-11-14T21:38:15.987Z,,,,0,1.1762578943048685,1.0434857167145009,,true,ll,11346.137999964238,response,-0.8626849314423831,1.0499999999999998,-1.0499999999999998,-0.8919402924145458,1.0499999999999998,-1.0499999999999998,low,low,,ISIC_0032544.JPG,,ISIC_0026371.JPG,111,true,ll,keypress(f),100,false,246099.5,246099.09999996424,234736.132,234933,234752.962,245924.651,1,16,8,
sequence,flow.Sequence,4_7,2023-11-14T21:38:15.988Z,,,,,,,,,,11346.137999964238,completion,,,,,,,low,low,,,,,,true,,,,false,246100.19999998808,246099.09999996424,234736.132,234932.89999997616,234752.962,245924.651,1,16,,
trial,html.Screen,4_8_0,2023-11-14T21:38:35.653Z,,,,0,-0.869932994914832,0.8880533324432531,,true,hl,19840.548999988066,response,0.796241477082623,0.9499999999999997,-0.9499999999999997,-0.9017449335975743,0.9499999999999997,-0.9499999999999997,high,low,,ISIC_8617084.JPG,,ISIC_8588033.JPG,26,true,hl,keypress(j),100,false,265765.6999999881,265765.1999999881,245907.855,246100.5,245924.651,265579.418,1,16,9,
sequence,flow.Sequence,4_8,2023-11-14T21:38:35.654Z,,,,,,,,,,19840.548999988066,completion,,,,,,,high,low,,,,,,true,,,,false,265766.39999997616,265765.1999999881,245907.855,246100.39999997616,245924.651,265579.418,1,16,,
trial,html.Screen,4_9_0,2023-11-14T21:38:46.724Z,,,,0,-0.879102500583965,1.0933081951979773,,true,hl,11256.681999964232,response,0.9388660854518424,0.9499999999999997,-0.9499999999999997,-0.79533948698576,0.9499999999999997,-0.9499999999999997,high,low,,ISIC_0046223.JPG,,ISIC_9291926.JPG,26,true,hl,keypress(j),100,false,276836.5,276836.09999996424,265562.791,265766.6999999881,265579.418,276651.006,1,16,10,
sequence,flow.Sequence,4_9,2023-11-14T21:38:46.725Z,,,,,,,,,,11256.681999964232,completion,,,,,,,high,low,,,,,,true,,,,false,276837.09999996424,276836.09999996424,265562.791,265766.59999996424,265579.418,276651.006,1,16,,
trial,html.Screen,4_10_0,2023-11-14T21:39:02.757Z,,,,0,-0.9454713230140772,0.9245167441969216,,true,hl,16214.393999976164,response,0.8947611078712571,0.9499999999999997,-0.9499999999999997,-0.8960964505004638,0.9499999999999997,-0.9499999999999997,high,low,,ISIC_9101055.JPG,,ISIC_6441128.JPG,26,true,hl,keypress(j),100,false,292865.6999999881,292865.39999997616,276634.313,276837.3000000119,276651.006,292682.131,1,16,11,
sequence,flow.Sequence,4_10,2023-11-14T21:39:02.758Z,,,,,,,,,,16214.393999976164,completion,,,,,,,high,low,,,,,,true,,,,false,292865.8000000119,292865.39999997616,276634.313,276837.3000000119,276651.006,292682.131,1,16,,
trial,html.Screen,4_11_0,2023-11-14T21:39:15.881Z,,,,0,-0.9433720631499012,1.0582071940347648,,true,hl,13307.169000011927,response,1.0213365328004047,0.9499999999999997,-0.9499999999999997,-1.088524359911891,0.9499999999999997,-0.9499999999999997,high,low,,ISIC_4890201.JPG,,ISIC_5434229.JPG,26,true,hl,keypress(j),100,false,305989.6999999881,305989.3000000119,292665.6,292865.89999997616,292682.131,305807.846,1,16,12,
sequence,flow.Sequence,4_11,2023-11-14T21:39:15.882Z,,,,,,,,,,13307.169000011927,completion,,,,,,,high,low,,,,,,true,,,,false,305990.5,305989.3000000119,292665.6,292865.89999997616,292682.131,305807.846,1,16,,
trial,html.Screen,4_12_0,2023-11-14T21:39:34.759Z,,,,0,-0.8671772321064484,-1.0212529379514277,,true,hh,19059.35399998806,response,1.135372722680314,0.9499999999999997,-0.9499999999999997,1.0926414044454305,0.9499999999999997,-0.9499999999999997,high,high,,ISIC_0004352.JPG,,ISIC_2355513.JPG,167,true,hh,keypress(i),100,false,324867.3000000119,324867.1999999881,305790.981,305990.6999999881,305807.846,324694.515,1,16,13,
sequence,flow.Sequence,4_12,2023-11-14T21:39:34.759Z,,,,,,,,,,19059.35399998806,completion,,,,,,,high,high,,,,,,true,,,,false,324867.5,324867.1999999881,305790.981,305990.6999999881,305807.846,324694.515,1,16,,
trial,html.Screen,4_13_0,2023-11-14T21:40:06.911Z,,,,0,-1.0366777133497644,-0.8674472391512381,,true,hh,32320.384999976144,response,0.8888187899385174,0.9499999999999997,-0.9499999999999997,0.8162579333127866,0.9499999999999997,-0.9499999999999997,high,high,,ISIC_0014431.JPG,,ISIC_0070285.JPG,167,true,hh,keypress(i),100,false,357015.3000000119,357014.89999997616,324677.686,324867.5,324694.515,356840.238,1,16,14,
sequence,flow.Sequence,4_13,2023-11-14T21:40:06.911Z,,,,,,,,,,32320.384999976144,completion,,,,,,,high,high,,,,,,true,,,,false,357016,357014.89999997616,324677.686,324867.5,324694.515,356840.238,1,16,,
trial,html.Screen,4_14_0,2023-11-14T21:40:15.852Z,,,,0,-0.9487751044258608,-0.875032819970805,,true,hh,9116.562000011909,response,0.8524156155750909,0.9499999999999997,-0.9499999999999997,0.7696684673096165,0.9499999999999997,-0.9499999999999997,high,high,,ISIC_4568084.JPG,,ISIC_0001141.JPG,167,true,hh,keypress(i),100,false,365957.1999999881,365956.8000000119,356823.593,357016.3000000119,356840.238,365774.313,1,16,15,
sequence,flow.Sequence,4_14,2023-11-14T21:40:15.853Z,,,,,,,,,,9116.562000011909,completion,,,,,,,high,high,,,,,,true,,,,false,365957.89999997616,365956.8000000119,356823.593,357016.3000000119,356840.238,365774.313,1,16,,
trial,html.Screen,4_15_0,2023-11-14T21:40:31.723Z,,,,0,-1.1204797335739165,-0.9035622700206098,,true,hh,16053.286999964213,response,0.8426401499140178,0.9499999999999997,-0.9499999999999997,0.9561650569523902,0.9499999999999997,-0.9499999999999997,high,high,,ISIC_5688950.JPG,,ISIC_0060380.JPG,167,true,hh,keypress(i),100,false,381827.6999999881,381827.59999996424,365757.642,365958.3000000119,365774.313,381655.166,1,16,16,
sequence,flow.Sequence,4_15,2023-11-14T21:40:31.723Z,,,,,,,,,,16053.286999964213,completion,,,,,,,high,high,,,,,,true,,,,false,381827.89999997616,381827.59999996424,365757.642,365958.09999996424,365774.313,381655.166,1,16,,
demonstration_loop,flow.Loop,4,2023-11-14T21:40:31.723Z,,,,,,,,,,271249.6609999642,completion,,,,,,,,,,,,,,true,,,,false,381827.89999997616,381827.59999996424,110561.348,110772.69999998808,110577.939,381655.166,1,16,,
practice_instructions,html.Screen,5,2023-11-14T21:41:16.512Z,,,,,,,,,,44948.53399998805,response,,,,,,,,,,,,,,,continue,click button,,,426612.09999996424,426603.6999999881,381638.412,381828,381655.166,426425.751,,,,
trial,html.Screen,6_0_0,2023-11-14T21:41:27.326Z,,,,1,0.887838744955182,-0.7545096650863988,,,,10804.14400000003,timeout,-0.8541581294181414,0.9499999999999997,-0.9499999999999997,0.7637475587255248,0.9499999999999997,-0.9499999999999997,low,high,,ISIC_1488727.JPG,,ISIC_0014782.JPG,28,true,,,0,false,437426.09999996424,437425.8000000119,426408.832,426612.3000000119,426425.751,437229.895,1,20,1,
sequence,flow.Sequence,6_0,2023-11-14T21:41:27.327Z,,,,,,,,,,11000.049000011932,completion,,,,,,,low,high,,,,,,true,,,,false,437426.39999997616,437425.8000000119,426408.832,426612.1999999881,426425.751,437229.895,1,20,,
trial,html.Screen,6_1_0,2023-11-14T21:41:31.534Z,,,,1,0.81509786035888,1.0175391164174852,,true,ll,4403.604999999981,response,-0.7848009721557384,0.9499999999999997,-0.9499999999999997,-0.750809298734252,0.9499999999999997,-0.9499999999999997,low,low,,ISIC_0033713.JPG,,ISIC_9648812.JPG,142,true,ll,keypress(f),0,false,441633.59999996424,441633.5,437213.155,437426.5,437229.895,441454.927,1,20,2,
sequence,flow.Sequence,6_1,2023-11-14T21:41:31.534Z,,,,,,,,,,4403.604999999981,completion,,,,,,,low,low,,,,,,true,,,,false,441633.6999999881,441633.5,437213.155,437426.39999997616,437229.895,441454.927,1,20,,
trial,html.Screen,6_2_0,2023-11-14T21:41:36.217Z,,,,1,-0.9433720631499012,1.0582071940347648,,true,hl,4861.373000011896,response,0.8200962008791046,0.9499999999999997,-0.9499999999999997,-0.7936051642828523,0.9499999999999997,-0.9499999999999997,high,low,,ISIC_4890201.JPG,,ISIC_0027031.JPG,26,true,hl,keypress(j),0,false,446316.39999997616,446316.3000000119,441438.238,441633.8000000119,441454.927,446113.819,1,20,3,
sequence,flow.Sequence,6_2,2023-11-14T21:41:36.217Z,,,,,,,,,,4861.373000011896,completion,,,,,,,high,low,,,,,,true,,,,false,446316.59999996424,446316.3000000119,441438.238,441633.8000000119,441454.927,446113.819,1,20,,
trial,html.Screen,6_3_0,2023-11-14T21:41:41.458Z,,,,1,-0.9149803805834588,-0.7596912841144952,,true,hh,5443.58099997614,response,0.9562051868665176,0.9499999999999997,-0.9499999999999997,1.110797661774712,0.9499999999999997,-0.9499999999999997,high,high,,ISIC_4879187.JPG,,ISIC_0061199.JPG,167,true,hh,keypress(i),0,false,451557.6999999881,451557.39999997616,446097.312,446316.6999999881,446113.819,451357.332,1,20,4,
sequence,flow.Sequence,6_3,2023-11-14T21:41:41.458Z,,,,,,,,,,5443.58099997614,completion,,,,,,,high,high,,,,,,true,,,,false,451558.1999999881,451557.39999997616,446097.312,446316.59999996424,446113.819,451357.332,1,20,,
trial,html.Screen,6_4_0,2023-11-14T21:41:45.978Z,,,,1,-0.8689515664606163,-1.0538817435713148,,false,hh,4720.267999964242,response,0.9306454722820696,0.9499999999999997,-0.9499999999999997,0.9812399591657396,0.9499999999999997,-0.9499999999999997,high,high,,ISIC_7333928.JPG,,ISIC_0009940.JPG,167,true,hl,keypress(j),0,false,456077.89999997616,456077.59999996424,451340.616,451558.5,451357.332,455882.932,1,20,5,
sequence,flow.Sequence,6_4,2023-11-14T21:41:45.979Z,,,,,,,,,,4720.267999964242,completion,,,,,,,high,high,,,,,,true,,,,false,456078.39999997616,456077.59999996424,451340.616,451558.39999997616,451357.332,455882.932,1,20,,
trial,html.Screen,6_5_0,2023-11-14T21:41:53.666Z,,,,1,0.943978570218156,0.9420387258741144,,true,ll,7882.167999964266,response,-0.8728834820669534,0.9499999999999997,-0.9499999999999997,-0.9788202580034188,0.9499999999999997,-0.9499999999999997,low,low,,ISIC_0011642.JPG,,ISIC_7519627.JPG,142,true,ll,keypress(f),0,false,463765.3000000119,463765.09999996424,455866.338,456078.6999999881,455882.932,463564.434,1,20,6,
sequence,flow.Sequence,6_5,2023-11-14T21:41:53.666Z,,,,,,,,,,7882.167999964266,completion,,,,,,,low,low,,,,,,true,,,,false,463765.89999997616,463765.09999996424,455866.338,456078.59999996424,455882.932,463564.434,1,20,,
trial,html.Screen,6_6_0,2023-11-14T21:42:01.705Z,,,,1,0.8019171574297028,1.0925160607978373,,true,ll,8239.665999964229,response,-0.9859190680307316,0.9499999999999997,-0.9499999999999997,-1.0904756837966545,0.9499999999999997,-0.9499999999999997,low,low,,ISIC_0010925.JPG,,ISIC_0063151.JPG,142,true,ll,keypress(f),0,false,471804.1999999881,471804.09999996424,463547.813,463766.09999996424,463564.434,471613.725,1,20,7,
sequence,flow.Sequence,6_6,2023-11-14T21:42:01.705Z,,,,,,,,,,8239.665999964229,completion,,,,,,,low,low,,,,,,true,,,,false,471804.39999997616,471804.09999996424,463547.813,463766,463564.434,471613.725,1,20,,
trial,html.Screen,6_7_0,2023-11-14T21:42:09.810Z,,,,1,-1.0751036484083878,1.143906455483852,,true,hl,8295.575000011944,response,0.7638895244791114,0.9499999999999997,-0.9499999999999997,-0.7780412100090998,0.9499999999999997,-0.9499999999999997,high,low,,ISIC_0064406.JPG,,ISIC_0026516.JPG,26,true,hl,keypress(j),0,false,479909.59999996424,479909.3000000119,471596.677,471804.5,471613.725,479712.498,1,20,8,
sequence,flow.Sequence,6_7,2023-11-14T21:42:09.810Z,,,,,,,,,,8295.575000011944,completion,,,,,,,high,low,,,,,,true,,,,false,479910,479909.3000000119,471596.677,471804.5,471613.725,479712.498,1,20,,
trial,html.Screen,6_8_0,2023-11-14T21:42:16.797Z,,,,1,1.0474638406367112,0.821358930964015,,true,ll,7179.701999988058,response,-0.9449111496440944,0.9499999999999997,-0.9499999999999997,-1.0105459531634893,0.9499999999999997,-0.9499999999999997,low,low,,ISIC_0025277.JPG,,ISIC_0679494.JPG,142,true,ll,keypress(f),0,false,486892.39999997616,486892.1999999881,479696.001,479910.3000000119,479712.498,486692.71,1,20,9,
sequence,flow.Sequence,6_8,2023-11-14T21:42:16.797Z,,,,,,,,,,7179.701999988058,completion,,,,,,,low,low,,,,,,true,,,,false,486892.5,486892.1999999881,479696.001,479910.3000000119,479712.498,486692.71,1,20,,
trial,html.Screen,6_9_0,2023-11-14T21:42:24.182Z,,,,1,-0.9433720631499012,1.0582071940347648,,true,hl,7584.489999988058,response,0.7870237732709365,0.9499999999999997,-0.9499999999999997,-0.9172955251119376,0.9499999999999997,-0.9499999999999997,high,low,,ISIC_4890201.JPG,,ISIC_0057716.JPG,26,true,hl,keypress(j),0,false,494277.5,494277.1999999881,486676.233,486892.5,486692.71,494090.742,1,20,10,
sequence,flow.Sequence,6_9,2023-11-14T21:42:24.182Z,,,,,,,,,,7584.489999988058,completion,,,,,,,high,low,,,,,,true,,,,false,494278.09999996424,494277.1999999881,486676.233,486892.5,486692.71,494090.742,1,20,,
trial,html.Screen,6_10_0,2023-11-14T21:42:31.917Z,,,,1,-0.964746248973834,-0.9069353065857808,,true,hh,7921.5580000118935,response,0.8068224817535752,0.9499999999999997,-0.9499999999999997,0.8996141262602615,0.9499999999999997,-0.9499999999999997,high,high,,ISIC_9896801.JPG,,ISIC_0059601.JPG,167,true,hh,keypress(i),0,false,502012.39999997616,502012.3000000119,494073.939,494278.39999997616,494090.742,501822.446,1,20,11,
sequence,flow.Sequence,6_10,2023-11-14T21:42:31.917Z,,,,,,,,,,7921.5580000118935,completion,,,,,,,high,high,,,,,,true,,,,false,502012.59999996424,502012.3000000119,494073.939,494278.3000000119,494090.742,501822.446,1,20,,
trial,html.Screen,6_11_0,2023-11-14T21:42:38.318Z,,,,1,-0.9684792294535484,-0.9741930282015964,,true,hh,6590.653999964241,response,0.8345422969075986,0.9499999999999997,-0.9499999999999997,1.01309388434443,0.9499999999999997,-0.9499999999999997,high,high,,ISIC_3372750.JPG,,ISIC_1241817.JPG,167,true,hh,keypress(i),0,false,508413.3000000119,508413.09999996424,501805.603,502012.6999999881,501822.446,508218.018,1,20,12,
sequence,flow.Sequence,6_11,2023-11-14T21:42:38.318Z,,,,,,,,,,6590.653999964241,completion,,,,,,,high,high,,,,,,true,,,,false,508413.8000000119,508413.09999996424,501805.603,502012.6999999881,501822.446,508218.018,1,20,,
trial,html.Screen,6_12_0,2023-11-14T21:42:45.630Z,,,,1,1.0115965332688306,-0.8282633603842442,,true,lh,7507.482000000018,response,-0.879102500583965,0.9499999999999997,-0.9499999999999997,1.0933081951979773,0.9499999999999997,-0.9499999999999997,low,high,,ISIC_1069587.JPG,,ISIC_0046223.JPG,28,true,lh,keypress(e),0,false,515725.89999997616,515725.5,508201.467,508414,508218.018,515532.197,1,20,13,
sequence,flow.Sequence,6_12,2023-11-14T21:42:45.631Z,,,,,,,,,,7507.482000000018,completion,,,,,,,low,high,,,,,,true,,,,false,515726.3000000119,515725.5,508201.467,508414,508218.018,515532.197,1,20,,
trial,html.Screen,6_13_0,2023-11-14T21:42:56.487Z,,,,1,0.7911024675435955,-0.7975977016137676,,,,10854.453000000038,timeout,-0.7877939497981142,0.9499999999999997,-0.9499999999999997,0.8415032780288271,0.9499999999999997,-0.9499999999999997,low,high,,ISIC_5813642.JPG,,ISIC_0067308.JPG,28,true,,,0,false,526583.1999999881,526583,515515.597,515726.59999996424,515532.197,526386.65,1,20,14,
sequence,flow.Sequence,6_13,2023-11-14T21:42:56.488Z,,,,,,,,,,11050.803000000014,completion,,,,,,,low,high,,,,,,true,,,,false,526583.5,526583,515515.597,515726.5,515532.197,526386.65,1,20,,
trial,html.Screen,6_14_0,2023-11-14T21:43:03.748Z,,,,1,-0.9579209317488,1.0147487101263497,,true,hl,7457.449999964214,response,0.948927472020595,0.9499999999999997,-0.9499999999999997,-1.0660437155921598,0.9499999999999997,-0.9499999999999997,high,low,,ISIC_8124482.JPG,,ISIC_5808758.JPG,26,true,hl,keypress(j),0,false,533844.1999999881,533844.0999999642,526370.158,526583.6999999881,526386.65,533650.985,1,20,15,
sequence,flow.Sequence,6_14,2023-11-14T21:43:03.749Z,,,,,,,,,,7457.449999964214,completion,,,,,,,high,low,,,,,,true,,,,false,533844.3999999762,533844.0999999642,526370.158,526583.6999999881,526386.65,533650.985,1,20,,
trial,html.Screen,6_15_0,2023-11-14T21:43:11.766Z,,,,1,-0.8979276789594874,0.925374811016654,,true,hl,8210.414999976172,response,0.9235571765207048,0.9499999999999997,-0.9499999999999997,-1.0008081653938232,0.9499999999999997,-0.9499999999999997,high,low,,ISIC_4208361.JPG,,ISIC_8796632.JPG,26,true,hl,keypress(j),0,false,541861.6999999881,541861.3999999762,533634.288,533844.3999999762,533650.985,541666.404,1,20,16,
sequence,flow.Sequence,6_15,2023-11-14T21:43:11.766Z,,,,,,,,,,8210.414999976172,completion,,,,,,,high,low,,,,,,true,,,,false,541862.1999999881,541861.3999999762,533634.288,533844.3999999762,533650.985,541666.404,1,20,,
trial,html.Screen,6_16_0,2023-11-14T21:43:17.033Z,,,,1,-0.9612329482175124,-0.8723650867900061,,true,hh,5458.795999988099,response,1.057567724570464,0.9499999999999997,-0.9499999999999997,0.7906457140772123,0.9499999999999997,-0.9499999999999997,high,high,,ISIC_4563766.JPG,,ISIC_0034162.JPG,167,true,hh,keypress(i),0,false,547125.5999999642,547125.1999999881,541649.811,541862.3999999762,541666.404,546926.516,1,20,17,
sequence,flow.Sequence,6_16,2023-11-14T21:43:17.034Z,,,,,,,,,,5458.795999988099,completion,,,,,,,high,high,,,,,,true,,,,false,547126.0999999642,547125.1999999881,541649.811,541862.3000000119,541666.404,546926.516,1,20,,
trial,html.Screen,6_17_0,2023-11-14T21:43:20.425Z,,,,1,1.0122398223568725,-0.7505228537454216,,true,lh,3590.583999964292,response,-0.9433720631499012,0.9499999999999997,-0.9499999999999997,1.0582071940347648,0.9499999999999997,-0.9499999999999997,low,high,,ISIC_0033802.JPG,,ISIC_4890201.JPG,28,true,lh,keypress(e),0,false,550517.3999999762,550517.0999999642,546910.101,547126.3000000119,546926.516,550316.533,1,20,18,
sequence,flow.Sequence,6_17,2023-11-14T21:43:20.425Z,,,,,,,,,,3590.583999964292,completion,,,,,,,low,high,,,,,,true,,,,false,550517.8999999762,550517.0999999642,546910.101,547126.3000000119,546926.516,550316.533,1,20,,
trial,html.Screen,6_18_0,2023-11-14T21:43:25.321Z,,,,1,0.887838744955182,-0.7545096650863988,,true,lh,5096.767000011867,response,-1.0865333402803938,0.9499999999999997,-0.9499999999999997,1.0542635307358266,0.9499999999999997,-0.9499999999999997,low,high,,ISIC_1488727.JPG,,ISIC_0034006.JPG,28,true,lh,keypress(e),0,false,555413.5999999642,555413.3000000119,550300.009,550518.0999999642,550316.533,555226.263,1,20,19,
sequence,flow.Sequence,6_18,2023-11-14T21:43:25.322Z,,,,,,,,,,5096.767000011867,completion,,,,,,,low,high,,,,,,true,,,,false,555414.0999999642,555413.3000000119,550300.009,550518,550316.533,555226.263,1,20,,
trial,html.Screen,6_19_0,2023-11-14T21:43:29.840Z,,,,1,1.0657476601009717,0.970732112511705,,true,ll,4705.636999976123,response,-1.0859458972647518,0.9499999999999997,-0.9499999999999997,-0.9241823104580792,0.9499999999999997,-0.9499999999999997,low,low,,ISIC_0010778.JPG,,ISIC_0011721.JPG,142,true,ll,keypress(f),0,false,559932,559931.8999999762,555209.499,555414.3999999762,555226.263,559734.822,1,20,20,
sequence,flow.Sequence,6_19,2023-11-14T21:43:29.840Z,,,,,,,,,,4705.636999976123,completion,,,,,,,low,low,,,,,,true,,,,false,559932.1999999881,559931.8999999762,555209.499,555414.3000000119,555226.263,559734.822,1,20,,
practice_loop,flow.Loop,6,2023-11-14T21:43:29.840Z,,,,,,,,,,133506.14899997617,completion,,,,,,,,,,,,,,true,,,,false,559932.3000000119,559931.8999999762,426408.832,426612.1999999881,426425.751,559734.822,1,20,,
stair_instructions,html.Screen,7,2023-11-14T21:44:07.719Z,,,,,,,,,,38076.677999999956,response,,,,,,,,,,,,,,,continue,click button,,,597812,597811.5,559718.265,559932.3000000119,559734.822,597608.448,,,,
trial,html.Screen,8_0_0,2023-11-14T21:44:18.503Z,,,,2,-0.0546386976779619,0.0448724759283131,,,,10787.729999999981,timeout,0.948927472020595,0.9499999999999997,-0.9499999999999997,-1.0660437155921598,0.9499999999999997,-0.9499999999999997,high,low,,ISIC_6722934.JPG,,ISIC_5808758.JPG,26,false,,,0,true,608592.8000000119,608592.5999999642,597591.785,597812.0999999642,597608.448,608396.178,1,40,1,
sequence,flow.Sequence,8_0,2023-11-14T21:44:18.503Z,,,,,,,,,,10984.151999964262,completion,,,,,,,high,low,,,,,,false,,,,true,608592.8999999762,608592.5999999642,597591.785,597812.0999999642,597608.448,608396.178,1,40,,
trial,html.Screen,8_1_0,2023-11-14T21:44:23.330Z,,,,2,-0.013431314305098,0.0140597582944232,,true,lh,5023.322000000044,response,-0.858338058340649,0.9499999999999997,-0.9499999999999997,0.9540612223480284,0.9499999999999997,-0.9499999999999997,low,high,,ISIC_0069617.JPG,,ISIC_8922893.JPG,28,false,lh,keypress(e),0,true,613419.5999999642,613419.5,608379.685,608592.8999999762,608396.178,613222.254,1,40,2,
sequence,flow.Sequence,8_1,2023-11-14T21:44:23.330Z,,,,,,,,,,5023.322000000044,completion,,,,,,,low,high,,,,,,false,,,,true,613419.6999999881,613419.5,608379.685,608592.8999999762,608396.178,613222.254,1,40,,
trial,html.Screen,8_2_0,2023-11-14T21:44:29.626Z,,,,2,0.007397293189458,0.0174716772037504,,true,ll,6493.145999976201,response,-0.7041255260117695,0.8999999999999997,-0.8999999999999997,-0.7945270488878992,0.8999999999999997,-0.8999999999999997,low,low,,ISIC_0056226.JPG,,ISIC_5820693.JPG,175,false,ll,keypress(f),0,true,619715.5,619715.3999999762,613205.557,613419.6999999881,613222.254,619517.812,1,40,3,
sequence,flow.Sequence,8_2,2023-11-14T21:44:29.626Z,,,,,,,,,,6493.145999976201,completion,,,,,,,low,low,,,,,,false,,,,true,619715.5999999642,619715.3999999762,613205.557,613419.6999999881,613222.254,619517.812,1,40,,
trial,html.Screen,8_3_0,2023-11-14T21:44:34.028Z,,,,2,0.0107854985447517,0.0478010417136109,,false,hl,4599.787999964203,response,0.8816288864119318,0.8499999999999996,-0.6812317921762092,-0.801867301188093,0.8499999999999996,-0.8499999999999996,high,low,,ISIC_0010500.JPG,,ISIC_9196783.JPG,49,false,hh,keypress(i),0,true,624117.8999999762,624117.5999999642,619501.174,619715.6999999881,619517.812,623926.535,1,40,4,
sequence,flow.Sequence,8_3,2023-11-14T21:44:34.028Z,,,,,,,,,,4599.787999964203,completion,,,,,,,high,low,,,,,,false,,,,true,624118.3999999762,624117.5999999642,619501.174,619715.6999999881,619517.812,623926.535,1,40,,
trial,html.Screen,8_4_0,2023-11-14T21:44:39.450Z,,,,2,0.0450282431170921,,,false,lh,5613.1649999880465,response,-0.4386679834091443,0.8499999999999996,-0.6312317921762092,0.6783367631816245,0.7999999999999996,-0.8499999999999996,low,high,,ISIC_1805163.JPG,,ISIC_0063950.JPG,97,false,hl,keypress(j),0,true,629539.8999999762,629539.6999999881,623909.856,624118.6999999881,623926.535,629336.845,1,40,5,
sequence,flow.Sequence,8_4,2023-11-14T21:44:39.450Z,,,,,,,,,,5613.1649999880465,completion,,,,,,,low,high,,,,,,false,,,,true,629540,629539.6999999881,623909.856,624118.5,623926.535,629336.845,1,40,,
trial,html.Screen,8_5_0,2023-11-14T21:44:47.276Z,,,,2,-0.0112310719058792,0.0469047359904117,,false,ll,8028.554999976186,response,-0.7090675113742605,0.7999999999999996,-0.6312317921762092,-0.9672217489045032,0.7999999999999996,-0.7999999999999996,low,low,,ISIC_0068184.JPG,,ISIC_0010358.JPG,295,false,hl,keypress(j),0,true,637365.5999999642,637365.3999999762,629320.338,629540.0999999642,629336.845,637168.738,1,40,6,
sequence,flow.Sequence,8_5,2023-11-14T21:44:47.276Z,,,,,,,,,,8028.554999976186,completion,,,,,,,low,low,,,,,,false,,,,true,637366.0999999642,637365.3999999762,629320.338,629540.0999999642,629336.845,637168.738,1,40,,
trial,html.Screen,8_6_0,2023-11-14T21:44:51.563Z,,,,2,,-0.0264544974620926,,false,hl,4484.361999964225,response,0.949907353050839,0.7499999999999996,-0.6312317921762092,-0.6190748068479168,0.7499999999999996,-0.7999999999999996,high,low,,ISIC_0056991.JPG,,ISIC_7059794.JPG,71,false,lh,keypress(e),0,true,641653.5,641653.0999999642,637152.012,637366.3999999762,637168.738,641460.66,1,40,7,
sequence,flow.Sequence,8_6,2023-11-14T21:44:51.564Z,,,,,,,,,,4484.361999964225,completion,,,,,,,high,low,,,,,,false,,,,true,641653.8999999762,641653.0999999642,637152.012,637366.3999999762,637168.738,641460.66,1,40,,
trial,html.Screen,8_7_0,2023-11-14T21:44:59.234Z,,,,2,0.0217698886732706,-0.0410870915161425,,true,hl,7863.439999964205,response,0.5660083991309471,0.7499999999999996,-0.5812317921762091,-0.7540027036440304,0.6999999999999995,-0.7999999999999996,high,low,,ISIC_0072173.JPG,,ISIC_8555379.JPG,71,false,hl,keypress(j),0,true,649324.0999999642,649324.0999999642,641443.936,641654.1999999881,641460.66,649125.369,1,40,8,
sequence,flow.Sequence,8_7,2023-11-14T21:44:59.234Z,,,,,,,,,,7863.439999964205,completion,,,,,,,high,low,,,,,,false,,,,true,649324.3000000119,649324.0999999642,641443.936,641654.0999999642,641460.66,649125.369,1,40,,
trial,html.Screen,8_8_0,2023-11-14T21:45:06.020Z,,,,2,-0.0188047466661863,0.0288346930436979,,false,lh,6983.931000011973,response,-0.3923678185842216,0.6999999999999995,-0.5312317921762091,0.5960160746908962,0.6499999999999995,-0.7499999999999996,low,high,,ISIC_0014157.JPG,,ISIC_7284399.JPG,161,false,ll,keypress(f),0,true,656109.5999999642,656109.3000000119,649108.731,649324.3999999762,649125.369,655922.144,1,40,9,
sequence,flow.Sequence,8_8,2023-11-14T21:45:06.020Z,,,,,,,,,,6983.931000011973,completion,,,,,,,low,high,,,,,,false,,,,true,656110.1999999881,656109.3000000119,649108.731,649324.3999999762,649125.369,655922.144,1,40,,
trial,html.Screen,8_9_0,2023-11-14T21:45:13.218Z,,,,2,-0.0021038737988857,0.0570427519488725,,false,hh,7386.055999988108,response,0.8085595413214888,0.6499999999999995,-0.5312317921762091,0.5868505854673866,0.6499999999999995,-0.6999999999999995,high,high,,ISIC_3596927.JPG,,ISIC_0011728.JPG,342,false,lh,keypress(e),0,true,663308.3000000119,663308.1999999881,655905.352,656110.3999999762,655922.144,663119.475,1,40,10,
sequence,flow.Sequence,8_9,2023-11-14T21:45:13.219Z,,,,,,,,,,7386.055999988108,completion,,,,,,,high,high,,,,,,false,,,,true,663308.5,663308.1999999881,655905.352,656110.3999999762,655922.144,663119.475,1,40,,
trial,html.Screen,8_10_0,2023-11-14T21:45:19.300Z,,,,2,-0.0362376068089956,-0.047825070846155,,false,hh,6268.025000000023,response,0.6779791463466724,0.6499999999999995,-0.4812317921762091,0.4696951441023113,0.6499999999999995,-0.6499999999999995,high,high,,ISIC_6985114.JPG,,ISIC_0032140.JPG,342,false,hl,keypress(j),0,true,669387.6999999881,669387.5,663102.739,663308.5,663119.475,669197.989,1,40,11,
sequence,flow.Sequence,8_10,2023-11-14T21:45:19.300Z,,,,,,,,,,6268.025000000023,completion,,,,,,,high,high,,,,,,false,,,,true,669387.6999999881,669387.5,663102.739,663308.5,663119.475,669197.989,1,40,,
trial,html.Screen,8_11_0,2023-11-14T21:45:30.088Z,,,,2,0.0363437082783146,0.0333332186217051,,,,10787.571000000113,timeout,0.6036819883109986,0.6499999999999995,-0.4812317921762091,0.4511640595223636,0.6499999999999995,-0.5999999999999994,high,high,,ISIC_3314555.JPG,,ISIC_4568425.JPG,342,false,,,0,true,680175.1999999881,680174.8999999762,669181.231,669387.8000000119,669197.989,679985.56,1,40,12,
sequence,flow.Sequence,8_11,2023-11-14T21:45:30.088Z,,,,,,,,,,10976.910999976215,completion,,,,,,,high,high,,,,,,false,,,,true,680175.6999999881,680174.8999999762,669181.231,669387.8000000119,669197.989,679985.56,1,40,,
trial,html.Screen,8_12_0,2023-11-14T21:45:35.686Z,,,,2,0.0057914759495055,0.0074667911845194,,false,hl,5787.939999999944,response,0.5548316165445162,0.6499999999999995,-0.4812317921762091,-0.635613752484264,0.6499999999999995,-0.5999999999999994,high,low,,ISIC_0058723.JPG,,ISIC_9005623.JPG,153,false,hh,keypress(i),0,true,685773.8000000119,685773.5,679968.836,680176,679985.56,685579.748,1,40,13,
sequence,flow.Sequence,8_12,2023-11-14T21:45:35.687Z,,,,,,,,,,5787.939999999944,completion,,,,,,,high,low,,,,,,false,,,,true,685774.3000000119,685773.5,679968.836,680175.8999999762,679985.56,685579.748,1,40,,
trial,html.Screen,8_13_0,2023-11-14T21:45:41.270Z,,,,2,0.0640778296621707,0.0387686079545705,,false,hl,5777.351999964216,response,0.8087127179888679,0.6499999999999995,-0.4812317921762091,-0.6577744279636221,0.5999999999999994,-0.5999999999999994,high,low,,ISIC_0010124.JPG,,ISIC_3941147.JPG,153,false,hh,keypress(i),0,true,691357.3999999762,691357.0999999642,685562.879,685774.5999999642,685579.748,691157.069,1,40,14,
sequence,flow.Sequence,8_13,2023-11-14T21:45:41.271Z,,,,,,,,,,5777.351999964216,completion,,,,,,,high,low,,,,,,false,,,,true,691357.8999999762,691357.0999999642,685562.879,685774.5,685579.748,691157.069,1,40,,
trial,html.Screen,8_14_0,2023-11-14T21:45:47.974Z,,,,2,-0.0134764727102299,-0.0033499036460912,,true,hh,6904.231000011903,response,0.6077361298541321,0.6499999999999995,-0.4812317921762091,0.6008438634644336,0.5499999999999994,-0.5999999999999994,high,high,,ISIC_0009998.JPG,,ISIC_9462979.JPG,390,false,hh,keypress(i),0,true,698061.5999999642,698061.3000000119,691140.539,691358.1999999881,691157.069,697870.329,1,40,15,
sequence,flow.Sequence,8_14,2023-11-14T21:45:47.975Z,,,,,,,,,,6904.231000011903,completion,,,,,,,high,high,,,,,,false,,,,true,698062.1999999881,698061.3000000119,691140.539,691358.0999999642,691157.069,697870.329,1,40,,
trial,html.Screen,8_15_0,2023-11-14T21:45:53.942Z,,,,2,-0.0533723079251252,-0.0299718727255261,,false,hl,6158.670999999973,response,0.4685582073401164,0.6082244239214999,-0.4812317921762091,-0.4504649769975533,0.4999999999999994,-0.5499999999999994,high,low,,ISIC_6562871.JPG,,ISIC_8666446.JPG,190,false,lh,keypress(e),0,true,704029.3000000119,704029,697853.63,698062.3999999762,697870.329,703831.723,1,40,16,
sequence,flow.Sequence,8_15,2023-11-14T21:45:53.942Z,,,,,,,,,,6158.670999999973,completion,,,,,,,high,low,,,,,,false,,,,true,704029.8000000119,704029,697853.63,698062.3999999762,697870.329,703831.723,1,40,,
trial,html.Screen,8_16_0,2023-11-14T21:45:57.477Z,,,,2,0.0544808612748248,-0.0240487075377862,,false,lh,3732.077000011923,response,-0.4854860758109091,0.6082244239214999,-0.4812317921762091,0.4650067595566893,0.4999999999999994,-0.5499999999999994,low,high,,ISIC_4606646.JPG,,ISIC_8773478.JPG,237,false,ll,keypress(f),0,true,707563.8999999762,707563.8000000119,703815.167,704030,703831.723,707372.206,1,40,17,
sequence,flow.Sequence,8_16,2023-11-14T21:45:57.477Z,,,,,,,,,,3732.077000011923,completion,,,,,,,low,high,,,,,,false,,,,true,707564,707563.8000000119,703815.167,704030,703831.723,707372.206,1,40,,
trial,html.Screen,8_17_0,2023-11-14T21:46:02.559Z,,,,2,0.0538169356437535,-0.0113486191005169,,false,lh,5273.293999999994,response,-0.3344871246072751,0.5582244239214998,-0.4812317921762091,0.5213568853233712,0.4999999999999994,-0.4999999999999994,low,high,,ISIC_0009939.JPG,,ISIC_0034106.JPG,237,false,ll,keypress(f),0,true,712645.8999999762,712645.5,707355.432,707564.0999999642,707372.206,712448.461,1,40,18,
sequence,flow.Sequence,8_17,2023-11-14T21:46:02.559Z,,,,,,,,,,5273.293999999994,completion,,,,,,,low,high,,,,,,false,,,,true,712646.3000000119,712645.5,707355.432,707564.0999999642,707372.206,712448.461,1,40,,
trial,html.Screen,8_18_0,2023-11-14T21:46:10.238Z,,,,2,-0.059471106306043,0.0678292174694111,,false,hl,7876.339000011911,response,0.3786416977838607,0.5082244239214998,-0.4812317921762091,-0.3087266675994847,0.4999999999999994,-0.4999999999999994,high,low,,ISIC_0015631.JPG,,ISIC_8167374.JPG,263,false,hh,keypress(i),0,true,720325.0999999642,720324.8000000119,712431.962,712646.5,712448.461,720130.153,1,40,19,
sequence,flow.Sequence,8_18,2023-11-14T21:46:10.238Z,,,,,,,,,,7876.339000011911,completion,,,,,,,high,low,,,,,,false,,,,true,720325.5999999642,720324.8000000119,712431.962,712646.5,712448.461,720130.153,1,40,,
trial,html.Screen,8_19_0,2023-11-14T21:46:16.190Z,,,,2,0.0608867680161491,0.0206384042070211,,false,hl,6147.147000011872,response,0.4713224272042806,0.5082244239214998,-0.4812317921762091,-0.6682369637857237,0.4999999999999994,-0.4999999999999994,high,low,,ISIC_0640806.JPG,,ISIC_6569060.JPG,263,false,hh,keypress(i),0,true,726277.5999999642,726277.3000000119,720113.621,720325.8000000119,720130.153,726092.778,1,40,20,
sequence,flow.Sequence,8_19,2023-11-14T21:46:16.191Z,,,,,,,,,,6147.147000011872,completion,,,,,,,high,low,,,,,,false,,,,true,726278.0999999642,726277.3000000119,720113.621,720325.6999999881,720130.153,726092.778,1,40,,
trial,html.Screen,8_20_0,2023-11-14T21:46:26.129Z,,,,2,0.0116094682222121,-0.0258434522530318,,false,ll,10120.42199998803,response,-0.6502708456331212,0.5082244239214998,-0.4812317921762091,-0.4539121124293258,0.4999999999999994,-0.4999999999999994,low,low,,ISIC_9239632.JPG,,ISIC_3746471.JPG,490,false,hl,keypress(j),0,true,736213.5,736213.1999999881,726058.42,726278.3000000119,726092.778,736011.067,1,40,21,
sequence,flow.Sequence,8_20,2023-11-14T21:46:26.129Z,,,,,,,,,,10120.42199998803,completion,,,,,,,low,low,,,,,,false,,,,true,736214,736213.1999999881,726058.42,726278.3000000119,726092.778,736011.067,1,40,,
trial,html.Screen,8_21_0,2023-11-14T21:46:35.161Z,,,,2,,-0.0264544974620926,,false,ll,9234.13299998804,response,-0.559510994874841,0.4582244239214998,-0.4812317921762091,-0.6946720817449136,0.4999999999999994,-0.4999999999999994,low,low,,ISIC_0056991.JPG,,ISIC_0693902.JPG,490,false,lh,keypress(e),0,true,745245.5,745245.1999999881,735994.412,736214.3000000119,736011.067,745045.212,1,40,22,
sequence,flow.Sequence,8_21,2023-11-14T21:46:35.161Z,,,,,,,,,,9234.13299998804,completion,,,,,,,low,low,,,,,,false,,,,true,745246,745245.1999999881,735994.412,736214.1999999881,736011.067,745045.212,1,40,,
trial,html.Screen,8_22_0,2023-11-14T21:46:42.961Z,,,,2,-0.0292059717970335,-0.0718256867525069,,true,hh,7999.987999988021,response,0.2964979722729373,0.4582244239214998,-0.4812317921762091,0.345223679313918,0.4999999999999994,-0.4999999999999994,high,high,,ISIC_1114966.JPG,,ISIC_0063081.JPG,413,false,hh,keypress(i),0,true,753045.5,753045.1999999881,745028.618,745246.1999999881,745045.212,752843.791,1,40,23,
sequence,flow.Sequence,8_22,2023-11-14T21:46:42.961Z,,,,,,,,,,7999.987999988021,completion,,,,,,,high,high,,,,,,false,,,,true,753045.8999999762,753045.1999999881,745028.618,745246.1999999881,745045.212,752843.791,1,40,,
trial,html.Screen,8_23_0,2023-11-14T21:46:53.740Z,,,,2,0.0608867680161491,0.0206384042070211,,,,10787.63300000003,timeout,-0.3372359047447863,0.4082244239214998,-0.4812317921762091,0.4729926497371357,0.4999999999999994,-0.4999999999999994,low,high,,ISIC_0640806.JPG,,ISIC_7070020.JPG,237,false,,,0,true,763825.1999999881,763824.8000000119,752827.173,753046.1999999881,752843.791,763631.424,1,40,24,
sequence,flow.Sequence,8_23,2023-11-14T21:46:53.741Z,,,,,,,,,,10981.009000011953,completion,,,,,,,low,high,,,,,,false,,,,true,763825.6999999881,763824.8000000119,752827.173,753046.0999999642,752843.791,763631.424,1,40,,
trial,html.Screen,8_24_0,2023-11-14T21:46:57.753Z,,,,2,-0.0691769743257167,0.0638501824668941,,false,ll,4205.77599998808,response,-0.343260854583605,0.4082244239214998,-0.4812317921762091,-0.5886145185466116,0.4999999999999994,-0.4999999999999994,low,low,,ISIC_0031914.JPG,,ISIC_6710082.JPG,490,false,hh,keypress(i),0,true,767837.5,767837.1999999881,763614.751,763825.8999999762,763631.424,767639.391,1,40,25,
sequence,flow.Sequence,8_24,2023-11-14T21:46:57.753Z,,,,,,,,,,4205.77599998808,completion,,,,,,,low,low,,,,,,false,,,,true,767837.8999999762,767837.1999999881,763614.751,763825.8999999762,763631.424,767639.391,1,40,,
trial,html.Screen,8_25_0,2023-11-14T21:47:01.591Z,,,,2,0.0116094682222121,-0.0258434522530318,,true,ll,4036.308999988134,response,-0.4463585996550201,0.4082244239214998,-0.4812317921762091,-0.525634371971047,0.4999999999999994,-0.4999999999999994,low,low,,ISIC_9239632.JPG,,ISIC_0070351.JPG,490,false,ll,keypress(f),0,true,771675.8999999762,771675.6999999881,767622.569,767838.1999999881,767639.391,771479.945,1,40,26,
sequence,flow.Sequence,8_25,2023-11-14T21:47:01.591Z,,,,,,,,,,4036.308999988134,completion,,,,,,,low,low,,,,,,false,,,,true,771676,771675.6999999881,767622.569,767838.0999999642,767639.391,771479.945,1,40,,
trial,html.Screen,8_26_0,2023-11-14T21:47:07.616Z,,,,2,-0.0565575423757561,-0.0394300226801425,,false,hh,6220.355000011972,response,0.2524361403388281,0.4082244239214998,-0.4812317921762091,0.6362841221281917,0.4999999999999994,-0.4999999999999994,high,high,,ISIC_0046983.JPG,,ISIC_0026438.JPG,411,false,hl,keypress(j),0,true,777700.5,777700.3000000119,771463.317,771676.1999999881,771479.945,777508.406,1,40,27,
sequence,flow.Sequence,8_26,2023-11-14T21:47:07.616Z,,,,,,,,,,6220.355000011972,completion,,,,,,,high,high,,,,,,false,,,,true,777700.8000000119,777700.3000000119,771463.317,771676.0999999642,771479.945,777508.406,1,40,,
trial,html.Screen,8_27_0,2023-11-14T21:47:14.489Z,,,,2,0.0450282431170921,,,false,hl,7064.493999976199,response,0.2981295084148321,0.4582244239214998,-0.4812317921762091,-0.6053594235836648,0.4999999999999994,-0.4999999999999994,high,low,,ISIC_1805163.JPG,,ISIC_0068314.JPG,292,false,ll,keypress(f),0,true,784573.1999999881,784572.8999999762,777491.613,777700.8999999762,777508.406,784371.769,1,40,28,
sequence,flow.Sequence,8_27,2023-11-14T21:47:14.489Z,,,,,,,,,,7064.493999976199,completion,,,,,,,high,low,,,,,,false,,,,true,784573.6999999881,784572.8999999762,777491.613,777700.8999999762,777508.406,784371.769,1,40,,
trial,html.Screen,8_28_0,2023-11-14T21:47:18.162Z,,,,2,-0.0735635316240061,0.0537805418091709,,true,hh,3872.231000000029,response,0.3935665671688059,0.4582244239214998,-0.4812317921762091,0.5227281111697483,0.4999999999999994,-0.4999999999999994,high,high,,ISIC_1761799.JPG,,ISIC_4131697.JPG,413,false,hh,keypress(i),0,true,788244.0999999642,788244,784355.127,784574,784371.769,788045.486,1,40,29,
sequence,flow.Sequence,8_28,2023-11-14T21:47:18.162Z,,,,,,,,,,3872.231000000029,completion,,,,,,,high,high,,,,,,false,,,,true,788244.1999999881,788244,784355.127,784573.8999999762,784371.769,788045.486,1,40,,
trial,html.Screen,8_29_0,2023-11-14T21:47:26.763Z,,,,2,0.0640778296621707,0.0387686079545705,,false,lh,8799.713999988046,response,-0.463544778513821,0.4582244239214998,-0.4812317921762091,0.5949493964492855,0.4999999999999994,-0.4999999999999994,low,high,,ISIC_0010124.JPG,,ISIC_5623844.JPG,237,false,hh,keypress(i),0,true,796845.3999999762,796845.1999999881,788028.794,788244.3000000119,788045.486,796645.536,1,40,30,
sequence,flow.Sequence,8_29,2023-11-14T21:47:26.764Z,,,,,,,,,,8799.713999988046,completion,,,,,,,low,high,,,,,,false,,,,true,796845.8999999762,796845.1999999881,788028.794,788244.3000000119,788045.486,796645.536,1,40,,
trial,html.Screen,8_30_0,2023-11-14T21:47:35.372Z,,,,2,0.0336891949856763,0.060314732178219,,true,ll,8807.764000011957,response,-0.460172643611944,0.4582244239214998,-0.4812317921762091,-0.5332567661828925,0.4999999999999994,-0.4999999999999994,low,low,,ISIC_6192289.JPG,,ISIC_5039895.JPG,490,false,ll,keypress(f),0,true,805453.5999999642,805453.3000000119,796629.021,796846.3000000119,796645.536,805262.339,1,40,31,
sequence,flow.Sequence,8_30,2023-11-14T21:47:35.372Z,,,,,,,,,,8807.764000011957,completion,,,,,,,low,low,,,,,,false,,,,true,805454.0999999642,805453.3000000119,796629.021,796846.0999999642,796645.536,805262.339,1,40,,
trial,html.Screen,8_31_0,2023-11-14T21:47:41.602Z,,,,2,-0.059471106306043,0.0678292174694111,,true,lh,6421.461000011885,response,-0.2902705737871529,0.4582244239214998,-0.4812317921762091,0.6247480605482788,0.4999999999999994,-0.4693080948832787,low,high,,ISIC_0015631.JPG,,ISIC_5776158.JPG,237,false,lh,keypress(e),0,true,811684,811683.8000000119,805245.813,805454.3000000119,805262.339,811491.284,1,40,32,
sequence,flow.Sequence,8_31,2023-11-14T21:47:41.602Z,,,,,,,,,,6421.461000011885,completion,,,,,,,low,high,,,,,,false,,,,true,811684.0999999642,811683.8000000119,805245.813,805454.3000000119,805262.339,811491.284,1,40,,
trial,html.Screen,8_32_0,2023-11-14T21:47:51.906Z,,,,2,-0.0113873532168551,-0.0054999201556291,,true,hh,10496.315999964252,response,0.3469569286967288,0.4582244239214998,-0.4312317921762091,0.3990091809003062,0.509848728498782,-0.4693080948832787,high,high,,ISIC_8812621.JPG,,ISIC_0028969.JPG,414,false,hh,keypress(i),0,true,821987.5999999642,821987.5999999642,811474.602,811684.3000000119,811491.284,821794.485,1,40,33,
sequence,flow.Sequence,8_32,2023-11-14T21:47:51.906Z,,,,,,,,,,10496.315999964252,completion,,,,,,,high,high,,,,,,false,,,,true,821987.6999999881,821987.5999999642,811474.602,811684.1999999881,811491.284,821794.485,1,40,,
trial,html.Screen,8_33_0,2023-11-14T21:48:02.693Z,,,,2,-0.0292059717970335,-0.0718256867525069,,,,10787.736000000034,timeout,-0.6210028341580528,0.4082244239214998,-0.4312317921762091,0.287587004988541,0.45984872849878206,-0.4693080948832787,low,high,,ISIC_1114966.JPG,,ISIC_0014110.JPG,285,false,,,0,true,832775,832774.6999999881,821777.915,821987.6999999881,821794.485,832582.221,1,40,34,
sequence,flow.Sequence,8_33,2023-11-14T21:48:02.694Z,,,,,,,,,,10980.214999988093,completion,,,,,,,low,high,,,,,,false,,,,true,832775.5999999642,832774.6999999881,821777.915,821987.6999999881,821794.485,832582.221,1,40,,
trial,html.Screen,8_34_0,2023-11-14T21:48:07.658Z,,,,2,0.039728379742806,-0.0228701131373768,,false,ll,5158.079000011901,response,-0.3600027852736367,0.4082244239214998,-0.4312317921762091,-0.4805563128797317,0.45984872849878206,-0.4693080948832787,low,low,,ISIC_0054073.JPG,,ISIC_1871890.JPG,517,false,hh,keypress(i),0,true,837740.5,837740.3000000119,832565.683,832775.8000000119,832582.221,837541.791,1,40,35,
sequence,flow.Sequence,8_34,2023-11-14T21:48:07.659Z,,,,,,,,,,5158.079000011901,completion,,,,,,,low,low,,,,,,false,,,,true,837740.8000000119,837740.3000000119,832565.683,832775.6999999881,832582.221,837541.791,1,40,,
trial,html.Screen,8_35_0,2023-11-14T21:48:15.163Z,,,,2,0.0336891949856763,0.060314732178219,,false,hh,7703.009000011953,response,0.267648711016113,0.4082244239214998,-0.4812317921762091,0.4208686130518568,0.45984872849878206,-0.4693080948832787,high,high,,ISIC_6192289.JPG,,ISIC_0027030.JPG,413,false,hl,keypress(j),0,true,845245,845244.8000000119,837525.025,837740.8999999762,837541.791,845056.506,1,40,36,
sequence,flow.Sequence,8_35,2023-11-14T21:48:15.164Z,,,,,,,,,,7703.009000011953,completion,,,,,,,high,high,,,,,,false,,,,true,845245.5,845244.8000000119,837525.025,837740.8999999762,837541.791,845056.506,1,40,,
trial,html.Screen,8_36_0,2023-11-14T21:48:20.982Z,,,,2,0.063045324701596,-0.0064789751878758,,false,lh,6004.693999988027,response,-0.4881993713464916,0.4582244239214998,-0.4812317921762091,0.3268592159890386,0.45984872849878206,-0.4693080948832787,low,high,,ISIC_5805349.JPG,,ISIC_0026655.JPG,255,false,hh,keypress(i),0,true,851061.3999999762,851061.1999999881,845039.872,845245.8999999762,845056.506,850867.823,1,40,37,
sequence,flow.Sequence,8_36,2023-11-14T21:48:20.982Z,,,,,,,,,,6004.693999988027,completion,,,,,,,low,high,,,,,,false,,,,true,851062,851061.1999999881,845039.872,845245.8000000119,845056.506,850867.823,1,40,,
trial,html.Screen,8_37_0,2023-11-14T21:48:29.517Z,,,,2,0.0651705891246238,-0.0394586219902573,,false,ll,8729.076999976183,response,-0.5894754576454694,0.4582244239214998,-0.4812317921762091,-0.6581226837387076,0.45984872849878206,-0.4693080948832787,low,low,,ISIC_0013491.JPG,,ISIC_0024952.JPG,502,false,hl,keypress(j),0,true,859597.0999999642,859596.8999999762,850851.046,851062.1999999881,850867.823,859400.919,1,40,38,
sequence,flow.Sequence,8_37,2023-11-14T21:48:29.518Z,,,,,,,,,,8729.076999976183,completion,,,,,,,low,low,,,,,,false,,,,true,859597.5999999642,859596.8999999762,850851.046,851062.1999999881,850867.823,859400.919,1,40,,
trial,html.Screen,8_38_0,2023-11-14T21:48:34.878Z,,,,2,0.0651705891246238,-0.0394586219902573,,false,ll,5556.180999964243,response,-0.4017349625356131,0.4582244239214998,-0.4812317921762091,-0.4504979298877285,0.45984872849878206,-0.4693080948832787,low,low,,ISIC_0013491.JPG,,ISIC_8143286.JPG,502,false,hh,keypress(i),0,true,864957.5,864957.0999999642,859384.291,859597.8000000119,859400.919,864761.435,1,40,39,
sequence,flow.Sequence,8_38,2023-11-14T21:48:34.878Z,,,,,,,,,,5556.180999964243,completion,,,,,,,low,low,,,,,,false,,,,true,864957.8999999762,864957.0999999642,859384.291,859597.8000000119,859400.919,864761.435,1,40,,
trial,html.Screen,8_39_0,2023-11-14T21:48:38.821Z,,,,2,-0.0277178575053843,0.0395587463147856,,false,hh,4139.264999988023,response,0.2690343056504751,0.4582244239214998,-0.4812317921762091,0.3872606088702001,0.45984872849878206,-0.4693080948832787,high,high,,ISIC_0010807.JPG,,ISIC_2394780.JPG,412,false,ll,keypress(f),0,true,868901,868900.6999999881,864744.836,864958.1999999881,864761.435,868702.363,1,40,40,
sequence,flow.Sequence,8_39,2023-11-14T21:48:38.822Z,,,,,,,,,,4139.264999988023,completion,,,,,,,high,high,,,,,,false,,,,true,868901.5999999642,868900.6999999881,864744.836,864958.0999999642,864761.435,868702.363,1,40,,
stair_loop,flow.Loop,8,2023-11-14T21:48:38.822Z,,,,,,,,,,271292.2519999881,completion,,,,,,,,,,,,,,false,,,,true,868901.8999999762,868900.6999999881,597591.785,597812.0999999642,597608.448,868702.363,1,40,,
exp_instructions,html.Screen,9,2023-11-14T21:49:25.191Z,,,,,,,,,,46565.83699998807,response,,,,,,,,,,,,,,,continue,keypress(Space),,,915269,915268.1999999881,868685.86,868902,868702.363,915075.873,,,,
trial,html.Screen,10_0_0,2023-11-14T21:49:28.871Z,,,,1,0.0329095507339554,-0.0382899749693245,,true,hl,3873.0269999761367,response,0.5521522953755817,0.44322442392149985,-0.4737317921762091,-0.4653879592952802,0.4864394913995125,-0.48618864269747497,high,low,,ISIC_8812781.JPG,9,ISIC_0060700.JPG,307,false,hl,keypress(j),0,false,918949.1999999881,918948.8999999762,915059.004,915269.5,915075.873,918749.755,4,500,1,
break,html.Screen,10_0_1,2023-11-14T21:49:28.873Z,,,,,,,,,,NaN,,,,,,,,high,low,,,,,,false,,,,false,918950.6999999881,918950.3999999762,,918949.6999999881,,918749.755,4,500,,
break_continue,html.Screen,10_0_2,2023-11-14T21:49:28.874Z,,,,,,,,,,NaN,,,,,,,,high,low,,,,,,false,,,,false,918952,918951.5,,918951.0999999642,,918749.755,4,500,,
sequence,flow.Sequence,10_0,2023-11-14T21:49:28.874Z,,,,,,,,,,3875.6269999999786,completion,,,,,,,high,low,,,,,,false,,,,false,918952.3000000119,918951.5,915059.004,915269.3999999762,915075.873,918749.755,4,500,,
trial,html.Screen,10_1_0,2023-11-14T21:49:33.447Z,,,,1,0.0107854985447517,0.0478010417136109,,false,lh,4775.1449999761535,response,-0.5914500585287871,0.44322442392149985,-0.4737317921762091,0.6687523964261248,0.4864394913995125,-0.48618864269747497,low,high,,ISIC_0010500.JPG,8,ISIC_0032790.JPG,254,false,ll,keypress(f),0,false,923525.1999999881,923524.8999999762,918733.237,918952.5,918749.755,923325.269,4,500,2,
break,html.Screen,10_1_1,2023-11-14T21:49:33.449Z,,,,,,,,,,NaN,,,,,,,,low,high,,,,,,false,,,,false,923526.3999999762,923526,,923525.5999999642,,923325.269,4,500,,
break_continue,html.Screen,10_1_2,2023-11-14T21:49:33.449Z,,,,,,,,,,NaN,,,,,,,,low,high,,,,,,false,,,,false,923527.0999999642,923526.8999999762,,923526.5999999642,,923325.269,4,500,,
sequence,flow.Sequence,10_1,2023-11-14T21:49:33.450Z,,,,,,,,,,4777.1449999761535,completion,,,,,,,low,high,,,,,,false,,,,false,923527.5,923526.8999999762,918733.237,918952.5,918749.755,923325.269,4,500,,
trial,html.Screen,10_2_0,2023-11-14T21:49:38.432Z,,,,1,0.0456515796420274,-0.0273567130070961,,false,hh,5183.930999988108,response,0.434702175755649,0.44322442392149985,-0.4737317921762091,0.6696312995737665,0.4864394913995125,-0.48618864269747497,high,high,,ISIC_0068610.JPG,9,ISIC_0066430.JPG,416,false,lh,keypress(e),0,false,928509.5,928509.1999999881,923308.773,923527.6999999881,923325.269,928318.296,4,500,3,
break,html.Screen,10_2_1,2023-11-14T21:49:38.433Z,,,,,,,,,,NaN,,,,,,,,high,high,,,,,,false,,,,false,928510.8000000119,928510.3999999762,,928510,,928318.296,4,500,,
break_continue,html.Screen,10_2_2,2023-11-14T21:49:38.434Z,,,,,,,,,,NaN,,,,,,,,high,high,,,,,,false,,,,false,928511.5,928511.3000000119,,928511,,928318.296,4,500,,
sequence,flow.Sequence,10_2,2023-11-14T21:49:38.434Z,,,,,,,,,,5186.03100001195,completion,,,,,,,high,high,,,,,,false,,,,false,928511.8999999762,928511.3000000119,923308.773,923527.5999999642,923325.269,928318.296,4,500,,
trial,html.Screen,10_3_0,2023-11-14T21:49:43.759Z,,,,1,-0.0367218428225813,-0.0700576547090477,,false,lh,5518.704000000027,response,-0.3486301484489932,0.44322442392149985,-0.4737317921762091,0.4247883968703142,0.4864394913995125,-0.48618864269747497,low,high,,ISIC_7212271.JPG,8,ISIC_7672106.JPG,254,false,hl,keypress(j),0,false,933837.3000000119,933837,928301.802,928512,928318.296,933645.502,4,500,4,
break,html.Screen,10_3_1,2023-11-14T21:49:43.761Z,,,,,,,,,,NaN,,,,,,,,low,high,,,,,,false,,,,false,933838.5999999642,933838.1999999881,,933837.8000000119,,933645.502,4,500,,
break_continue,html.Screen,10_3_2,2023-11-14T21:49:43.762Z,,,,,,,,,,NaN,,,,,,,,low,high,,,,,,false,,,,false,933839.3000000119,933839.0999999642,,933838.8999999762,,933645.502,4,500,,
sequence,flow.Sequence,10_3,2023-11-14T21:49:43.762Z,,,,,,,,,,5520.803999964264,completion,,,,,,,low,high,,,,,,false,,,,false,933839.5999999642,933839.0999999642,928301.802,928511.8999999762,928318.296,933645.502,4,500,,
trial,html.Screen,10_4_0,2023-11-14T21:49:50.840Z,,,,1,-0.0516762988734011,0.0130195499281172,,true,hh,7271.6979999881005,response,0.4750769241525879,0.44322442392149985,-0.4737317921762091,0.5945063535704285,0.4864394913995125,-0.48618864269747497,high,high,,ISIC_9978498.JPG,9,ISIC_0013626.JPG,416,false,hh,keypress(i),0,false,940917.5999999642,940917.1999999881,933628.736,933840,933645.502,940725.962,4,500,5,
break,html.Screen,10_4_1,2023-11-14T21:49:50.841Z,,,,,,,,,,NaN,,,,,,,,high,high,,,,,,false,,,,false,940918.5999999642,940918.3999999762,,940917.8999999762,,940725.962,4,500,,
break_continue,html.Screen,10_4_2,2023-11-14T21:49:50.842Z,,,,,,,,,,NaN,,,,,,,,high,high,,,,,,false,,,,false,940919.3999999762,940919.0999999642,,940918.8999999762,,940725.962,4,500,,
sequence,flow.Sequence,10_4,2023-11-14T21:49:50.842Z,,,,,,,,,,7273.597999964259,completion,,,,,,,high,high,,,,,,false,,,,false,940919.6999999881,940919.0999999642,933628.736,933839.8999999762,933645.502,940725.962,4,500,,
trial,html.Screen,10_5_0,2023-11-14T21:49:59.278Z,,,,1,0.0085520978188085,-0.0464691161264081,,false,ll,8629.4379999761,response,-0.4059919104002392,0.44322442392149985,-0.4737317921762091,-0.6620849170131392,0.4864394913995125,-0.48618864269747497,low,low,,ISIC_0758797.JPG,8,ISIC_5787517.JPG,487,false,hh,keypress(i),0,false,949355.5,949355.3999999762,940709.294,940919.8999999762,940725.962,949158.848,4,500,6,
break,html.Screen,10_5_1,2023-11-14T21:49:59.278Z,,,,,,,,,,NaN,,,,,,,,low,low,,,,,,false,,,,false,949355.8000000119,949355.6999999881,,949355.5999999642,,949158.848,4,500,,
break_continue,html.Screen,10_5_2,2023-11-14T21:49:59.278Z,,,,,,,,,,NaN,,,,,,,,low,low,,,,,,false,,,,false,949356,949356,,949355.8999999762,,949158.848,4,500,,
sequence,flow.Sequence,10_5,2023-11-14T21:49:59.278Z,,,,,,,,,,8630.037999999942,completion,,,,,,,low,low,,,,,,false,,,,false,949356.1999999881,949356,940709.294,940919.8000000119,940725.962,949158.848,4,500,,
trial,html.Screen,10_6_0,2023-11-14T21:50:07.047Z,,,,1,-0.0565575423757561,-0.0394300226801425,,false,hh,7965.952000011923,response,0.584475572955044,0.44322442392149985,-0.4737317921762091,0.6454661685242253,0.4864394913995125,-0.48618864269747497,high,high,,ISIC_0046983.JPG,9,ISIC_0029562.JPG,416,false,hl,keypress(j),0,false,957125.0999999642,957124.8000000119,949142.199,949356.1999999881,949158.848,956924.03,4,500,7,
break,html.Screen,10_6_1,2023-11-14T21:50:07.048Z,,,,,,,,,,NaN,,,,,,,,high,high,,,,,,false,,,,false,957126.3000000119,957126,,957125.5,,956924.03,4,500,,
break_continue,html.Screen,10_6_2,2023-11-14T21:50:07.049Z,,,,,,,,,,NaN,,,,,,,,high,high,,,,,,false,,,,false,957127,957126.8000000119,,957126.5,,956924.03,4,500,,
sequence,flow.Sequence,10_6,2023-11-14T21:50:07.049Z,,,,,,,,,,7967.952000011923,completion,,,,,,,high,high,,,,,,false,,,,false,957127.3000000119,957126.8000000119,949142.199,949356.1999999881,949158.848,956924.03,4,500,,
trial,html.Screen,10_7_0,2023-11-14T21:50:10.774Z,,,,1,0.0456515796420274,-0.0273567130070961,,false,hl,3927.669999988051,response,0.5111765304425138,0.44322442392149985,-0.4737317921762091,-0.3090666470217277,0.4864394913995125,-0.48618864269747497,high,low,,ISIC_0068610.JPG,10,ISIC_0000358.JPG,307,false,ll,keypress(f),0,false,960851.8000000119,960851.6999999881,956907.299,957127.5999999642,956924.03,960665.032,4,500,8,
break,html.Screen,10_7_1,2023-11-14T21:50:10.775Z,,,,,,,,,,NaN,,,,,,,,high,low,,,,,,false,,,,false,960852.5,960852.3999999762,,960852,,960665.032,4,500,,
break_continue,html.Screen,10_7_2,2023-11-14T21:50:10.775Z,,,,,,,,,,NaN,,,,,,,,high,low,,,,,,false,,,,false,960852.8999999762,960852.6999999881,,960852.5999999642,,960665.032,4,500,,
sequence,flow.Sequence,10_7,2023-11-14T21:50:10.775Z,,,,,,,,,,3928.669999988051,completion,,,,,,,high,low,,,,,,false,,,,false,960853,960852.6999999881,956907.299,957127.5,956924.03,960665.032,4,500,,
trial,html.Screen,10_8_0,2023-11-14T21:50:16.175Z,,,,1,-0.0113873532168551,-0.0054999201556291,,false,lh,5587.768000011914,response,-0.4407523365364463,0.44322442392149985,-0.4737317921762091,0.4041950533031531,0.4864394913995125,-0.48618864269747497,low,high,,ISIC_8812621.JPG,9,ISIC_0029550.JPG,254,false,hh,keypress(i),0,false,966253.0999999642,966252.8000000119,960631.118,960853.0999999642,960665.032,966058.377,4,500,9,
break,html.Screen,10_8_1,2023-11-14T21:50:16.177Z,,,,,,,,,,NaN,,,,,,,,low,high,,,,,,false,,,,false,966254.3999999762,966254.0999999642,,966253.5,,966058.377,4,500,,
break_continue,html.Screen,10_8_2,2023-11-14T21:50:16.177Z,,,,,,,,,,NaN,,,,,,,,low,high,,,,,,false,,,,false,966255.1999999881,966255,,966254.5999999642,,966058.377,4,500,,
sequence,flow.Sequence,10_8,2023-11-14T21:50:16.178Z,,,,,,,,,,5589.9679999999935,completion,,,,,,,low,high,,,,,,false,,,,false,966255.5,966255,960631.118,960853.0999999642,960665.032,966058.377,4,500,,
trial,html.Screen,10_9_0,2023-11-14T21:50:23.192Z,,,,1,0.0363437082783146,0.0333332186217051,,true,lh,7210.722999964259,response,-0.5502347817346832,0.44322442392149985,-0.4737317921762091,0.4622648412655316,0.4864394913995125,-0.48618864269747497,low,high,,ISIC_3314555.JPG,9,ISIC_2577938.JPG,254,false,lh,keypress(e),0,false,973269.3999999762,973269.0999999642,966041.869,966255.8000000119,966058.377,973072.026,4,500,10,
break,html.Screen,10_9_1,2023-11-14T21:50:23.193Z,,,,,,,,,,NaN,,,,,,,,low,high,,,,,,false,,,,false,973270.6999999881,973270.3000000119,,973269.8999999762,,973072.026,4,500,,
break_continue,html.Screen,10_9_2,2023-11-14T21:50:23.194Z,,,,,,,,,,NaN,,,,,,,,low,high,,,,,,false,,,,false,973271.3000000119,973271,,973270.8000000119,,973072.026,4,500,,
sequence,flow.Sequence,10_9,2023-11-14T21:50:23.194Z,,,,,,,,,,7212.623000000021,completion,,,,,,,low,high,,,,,,false,,,,false,973271.5999999642,973271,966041.869,966255.6999999881,966058.377,973072.026,4,500,,
trial,html.Screen,10_10_0,2023-11-14T21:50:34.049Z,,,,1,0.0401045651353626,0.053461375824197,,,,10854.420000000042,timeout,0.5330548358724723,0.44322442392149985,-0.4737317921762091,0.6153699602053757,0.4864394913995125,-0.48618864269747497,high,high,,ISIC_6483504.JPG,9,ISIC_0011126.JPG,416,false,,,0,false,984124.5999999642,984124.1999999881,973055.507,973271.8000000119,973072.026,983926.446,4,500,11,
break,html.Screen,10_10_1,2023-11-14T21:50:34.050Z,,,,,,,,,,NaN,,,,,,,,high,high,,,,,,false,,,,false,984125.6999999881,984125.5,,984124.8999999762,,983926.446,4,500,,
break_continue,html.Screen,10_10_2,2023-11-14T21:50:34.051Z,,,,,,,,,,NaN,,,,,,,,high,high,,,,,,false,,,,false,984126.5999999642,984126.3000000119,,984126,,983926.446,4,500,,
sequence,flow.Sequence,10_10,2023-11-14T21:50:34.051Z,,,,,,,,,,11054.274000011967,completion,,,,,,,high,high,,,,,,false,,,,false,984126.8999999762,984126.3000000119,973055.507,973271.8000000119,973072.026,983926.446,4,500,,
trial,html.Screen,10_11_0,2023-11-14T21:50:36.688Z,,,,1,-0.0097091270150747,0.0417921315885292,,false,hh,2837.5540000000037,response,0.5229810314393588,0.44322442392149985,-0.4737317921762091,0.3070144830155926,0.4864394913995125,-0.48618864269747497,high,high,,ISIC_3967213.JPG,9,ISIC_0058432.JPG,416,false,hl,keypress(j),0,false,986764.1999999881,986764,983910.022,984127.1999999881,983926.446,986564.946,4,500,12,
break,html.Screen,10_11_1,2023-11-14T21:50:36.689Z,,,,,,,,,,NaN,,,,,,,,high,high,,,,,,false,,,,false,986764.8000000119,986764.6999999881,,986764.3999999762,,986564.946,4,500,,
break_continue,html.Screen,10_11_2,2023-11-14T21:50:36.690Z,,,,,,,,,,NaN,,,,,,,,high,high,,,,,,false,,,,false,986765.3000000119,986765.0999999642,,986765,,986564.946,4,500,,
sequence,flow.Sequence,10_11,2023-11-14T21:50:36.690Z,,,,,,,,,,2838.653999964241,completion,,,,,,,high,high,,,,,,false,,,,false,986765.5,986765.0999999642,983910.022,984127.0999999642,983926.446,986564.946,4,500,,
trial,html.Screen,10_12_0,2023-11-14T21:50:40.538Z,,,,1,0.063045324701596,-0.0064789751878758,,false,hl,4047.953999976162,response,0.3815666504501964,0.44322442392149985,-0.4737317921762091,-0.2915803816033255,0.4864394913995125,-0.48618864269747497,high,low,,ISIC_5805349.JPG,9,ISIC_4371210.JPG,307,false,ll,keypress(f),0,false,990613.3000000119,990612.8999999762,986548.48,986765.6999999881,986564.946,990422.478,4,500,13,
break,html.Screen,10_12_1,2023-11-14T21:50:40.539Z,,,,,,,,,,NaN,,,,,,,,high,low,,,,,,false,,,,false,990614.3999999762,990614.1999999881,,990613.6999999881,,990422.478,4,500,,
break_continue,html.Screen,10_12_2,2023-11-14T21:50:40.539Z,,,,,,,,,,NaN,,,,,,,,high,low,,,,,,false,,,,false,990615.1999999881,990614.8999999762,,990614.5999999642,,990422.478,4,500,,
sequence,flow.Sequence,10_12,2023-11-14T21:50:40.540Z,,,,,,,,,,4049.953999976162,completion,,,,,,,high,low,,,,,,false,,,,false,990615.3999999762,990614.8999999762,986548.48,986765.5999999642,986564.946,990422.478,4,500,,
trial,html.Screen,10_13_0,2023-11-14T21:50:44.257Z,,,,1,0.0363437082783146,0.0333332186217051,,true,ll,3910.322000011918,response,-0.2902250735668009,0.44322442392149985,-0.4737317921762091,-0.4534798156965715,0.4864394913995125,-0.48618864269747497,low,low,,ISIC_3314555.JPG,9,ISIC_9944671.JPG,487,false,ll,keypress(f),0,false,994333.0999999642,994332.8000000119,990405.733,990615.6999999881,990422.478,994147.679,4,500,14,
break,html.Screen,10_13_1,2023-11-14T21:50:44.259Z,,,,,,,,,,NaN,,,,,,,,low,low,,,,,,false,,,,false,994334.3000000119,994334,,994333.5,,994147.679,4,500,,
break_continue,html.Screen,10_13_2,2023-11-14T21:50:44.259Z,,,,,,,,,,NaN,,,,,,,,low,low,,,,,,false,,,,false,994335.0999999642,994334.8000000119,,994334.5,,994147.679,4,500,,
sequence,flow.Sequence,10_13,2023-11-14T21:50:44.260Z,,,,,,,,,,3912.322000011918,completion,,,,,,,low,low,,,,,,false,,,,false,994335.3999999762,994334.8000000119,990405.733,990615.5,990422.478,994147.679,4,500,,
trial,html.Screen,10_14_0,2023-11-14T21:50:49.058Z,,,,1,-0.0362376068089956,-0.047825070846155,,false,hh,4985.520999988075,response,0.4953415657132066,0.44322442392149985,-0.4737317921762091,0.4877537342810614,0.4864394913995125,-0.48618864269747497,high,high,,ISIC_6985114.JPG,9,ISIC_0032017.JPG,416,false,hl,keypress(j),0,false,999133.5,999133.1999999881,994113.111,994335.5999999642,994147.679,998939.084,4,500,15,
break,html.Screen,10_14_1,2023-11-14T21:50:49.059Z,,,,,,,,,,NaN,,,,,,,,high,high,,,,,,false,,,,false,999134.8000000119,999134.3999999762,,999133.8999999762,,998939.084,4,500,,
break_continue,html.Screen,10_14_2,2023-11-14T21:50:49.060Z,,,,,,,,,,NaN,,,,,,,,high,high,,,,,,false,,,,false,999135.5,999135.1999999881,,999135,,998939.084,4,500,,
sequence,flow.Sequence,10_14,2023-11-14T21:50:49.060Z,,,,,,,,,,4987.520999988075,completion,,,,,,,high,high,,,,,,false,,,,false,999135.8000000119,999135.1999999881,994113.111,994335.5,994147.679,998939.084,4,500,,
trial,html.Screen,10_15_0,2023-11-14T21:50:54.776Z,,,,1,0.0640778296621707,0.0387686079545705,,false,ll,5912.3159999761265,response,-0.5452811634660165,0.44322442392149985,-0.4737317921762091,-0.5792569301289315,0.4864394913995125,-0.48618864269747497,low,low,,ISIC_0010124.JPG,9,ISIC_0066203.JPG,487,false,hl,keypress(j),0,false,1004851.5999999642,1004851.3999999762,998922.517,999136.0999999642,998939.084,1004650.077,4,500,16,
break,html.Screen,10_15_1,2023-11-14T21:50:54.776Z,,,,,,,,,,NaN,,,,,,,,low,low,,,,,,false,,,,false,1004851.8999999762,1004851.8000000119,,1004851.6999999881,,1004650.077,4,500,,
break_continue,html.Screen,10_15_2,2023-11-14T21:50:54.776Z,,,,,,,,,,NaN,,,,,,,,low,low,,,,,,false,,,,false,1004852.1999999881,1004852,,1004852,,1004650.077,4,500,,
sequence,flow.Sequence,10_15,2023-11-14T21:50:54.777Z,,,,,,,,,,5912.915999999968,completion,,,,,,,low,low,,,,,,false,,,,false,1004852.1999999881,1004852,998922.517,999136,998939.084,1004650.077,4,500,,
trial,html.Screen,10_16_0,2023-11-14T21:50:58.337Z,,,,1,0.0456515796420274,-0.0273567130070961,,false,lh,3762.7230000118725,response,-0.4480089481054571,0.44322442392149985,-0.4737317921762091,0.4129446940634226,0.4864394913995125,-0.48618864269747497,low,high,,ISIC_0068610.JPG,9,ISIC_7755096.JPG,254,false,ll,keypress(f),0,false,1008413.0999999642,1008412.8000000119,1004633.57,1004852.3000000119,1004650.077,1008223.925,4,500,17,
break,html.Screen,10_16_1,2023-11-14T21:50:58.339Z,,,,,,,,,,NaN,,,,,,,,low,high,,,,,,false,,,,false,1008414.1999999881,1008414,,1008413.5,,1008223.925,4,500,,
break_continue,html.Screen,10_16_2,2023-11-14T21:50:58.339Z,,,,,,,,,,NaN,,,,,,,,low,high,,,,,,false,,,,false,1008415,1008414.8000000119,,1008414.3999999762,,1008223.925,4,500,,
sequence,flow.Sequence,10_16,2023-11-14T21:50:58.340Z,,,,,,,,,,3764.7230000118725,completion,,,,,,,low,high,,,,,,false,,,,false,1008415.1999999881,1008414.8000000119,1004633.57,1004852.3000000119,1004650.077,1008223.925,4,500,,
trial,html.Screen,10_17_0,2023-11-14T21:51:02.642Z,,,,1,-0.0245376145053177,0.0436993426328401,,true,ll,4493.574999999953,response,-0.44265205769678,0.44322442392149985,-0.4737317921762091,-0.3325784724594224,0.4864394913995125,-0.48618864269747497,low,low,,ISIC_0056444.JPG,9,ISIC_0030391.JPG,487,false,ll,keypress(f),0,false,1012717.8000000119,1012717.5,1008207.154,1008415.5,1008223.925,1012515.478,4,500,18,
break,html.Screen,10_17_1,2023-11-14T21:51:02.643Z,,,,,,,,,,NaN,,,,,,,,low,low,,,,,,false,,,,false,1012719.0999999642,1012718.8000000119,,1012718.3000000119,,1012515.478,4,500,,
break_continue,html.Screen,10_17_2,2023-11-14T21:51:02.644Z,,,,,,,,,,NaN,,,,,,,,low,low,,,,,,false,,,,false,1012720,1012719.6999999881,,1012719.3999999762,,1012515.478,4,500,,
sequence,flow.Sequence,10_17,2023-11-14T21:51:02.645Z,,,,,,,,,,4495.7749999880325,completion,,,,,,,low,low,,,,,,false,,,,false,1012720.1999999881,1012719.6999999881,1008207.154,1008415.3999999762,1008223.925,1012515.478,4,500,,
trial,html.Screen,10_18_0,2023-11-14T21:51:06.992Z,,,,1,0.0329095507339554,-0.0382899749693245,,false,ll,4552.421999976155,response,-0.456784462065923,0.44322442392149985,-0.4737317921762091,-0.6642026728715517,0.4864394913995125,-0.48618864269747497,low,low,,ISIC_8812781.JPG,8,ISIC_0046693.JPG,487,false,hl,keypress(j),0,false,1017068.0999999642,1017067.8999999762,1012498.891,1012720.5,1012515.478,1016873.872,4,500,19,
break,html.Screen,10_18_1,2023-11-14T21:51:06.993Z,,,,,,,,,,NaN,,,,,,,,low,low,,,,,,false,,,,false,1017068.5999999642,1017068.3999999762,,1017068.1999999881,,1016873.872,4,500,,
break_continue,html.Screen,10_18_2,2023-11-14T21:51:06.993Z,,,,,,,,,,NaN,,,,,,,,low,low,,,,,,false,,,,false,1017068.8999999762,1017068.8000000119,,1017068.6999999881,,1016873.872,4,500,,
sequence,flow.Sequence,10_18,2023-11-14T21:51:06.993Z,,,,,,,,,,4553.322000011918,completion,,,,,,,low,low,,,,,,false,,,,false,1017069,1017068.8000000119,1012498.891,1012720.3999999762,1012515.478,1016873.872,4,500,,
trial,html.Screen,10_19_0,2023-11-14T21:51:14.274Z,,,,1,0.0329095507339554,-0.0382899749693245,,false,hl,7475.428000011947,response,0.5884693953987199,0.44322442392149985,-0.4737317921762091,-0.463516962961075,0.4864394913995125,-0.48618864269747497,high,low,,ISIC_8812781.JPG,9,ISIC_0027305.JPG,307,false,hh,keypress(i),0,false,1024349.5999999642,1024349.3000000119,1016857.339,1017069.1999999881,1016873.872,1024154.768,4,500,20,
break,html.Screen,10_19_1,2023-11-14T21:51:14.275Z,,,,,,,,,,NaN,,,,,,,,high,low,,,,,,false,,,,false,1024350.6999999881,1024350.5,,1024350.0999999642,,1024154.768,4,500,,
break_continue,html.Screen,10_19_2,2023-11-14T21:51:14.276Z,,,,,,,,,,NaN,,,,,,,,high,low,,,,,,false,,,,false,1024351.5,1024351.1999999881,,1024351,,1024154.768,4,500,,
sequence,flow.Sequence,10_19,2023-11-14T21:51:14.276Z,,,,,,,,,,7477.327999988105,completion,,,,,,,high,low,,,,,,false,,,,false,1024351.6999999881,1024351.1999999881,1016857.339,1017069.0999999642,1016873.872,1024154.768,4,500,,
trial,html.Screen,10_20_0,2023-11-14T21:51:18.280Z,,,,1,0.0329095507339554,-0.0382899749693245,,false,lh,4201.131999976118,response,-0.5222931300392293,0.44322442392149985,-0.4737317921762091,0.5931406610556914,0.4864394913995125,-0.48618864269747497,low,high,,ISIC_8812781.JPG,8,ISIC_0011448.JPG,254,false,ll,keypress(f),0,false,1028356,1028355.8999999762,1024138.208,1024352,1024154.768,1028162.517,4,500,21,
break,html.Screen,10_20_1,2023-11-14T21:51:18.281Z,,,,,,,,,,NaN,,,,,,,,low,high,,,,,,false,,,,false,1028356.3999999762,1028356.3999999762,,1028356.1999999881,,1028162.517,4,500,,
break_continue,html.Screen,10_20_2,2023-11-14T21:51:18.281Z,,,,,,,,,,NaN,,,,,,,,low,high,,,,,,false,,,,false,1028356.8000000119,1028356.6999999881,,1028356.5999999642,,1028162.517,4,500,,
sequence,flow.Sequence,10_20,2023-11-14T21:51:18.281Z,,,,,,,,,,4201.931999988039,completion,,,,,,,low,high,,,,,,false,,,,false,1028356.8999999762,1028356.6999999881,1024138.208,1024352,1024154.768,1028162.517,4,500,,
trial,html.Screen,10_21_0,2023-11-14T21:51:25.772Z,,,,1,-0.0693466529227737,-0.044703434393184,,false,ll,7682.582999964245,response,-0.3885293436491676,0.44322442392149985,-0.4737317921762091,-0.3886864742220238,0.4864394913995125,-0.48618864269747497,low,low,,ISIC_0004217.JPG,10,ISIC_7251402.JPG,487,false,lh,keypress(e),0,false,1035845.5,1035845.0999999642,1028146.056,1028357,1028162.517,1035643.778,4,500,22,
break,html.Screen,10_21_1,2023-11-14T21:51:25.773Z,,,,,,,,,,NaN,,,,,,,,low,low,,,,,,false,,,,false,1035846.5999999642,1035846.3999999762,,1035845.8999999762,,1035643.778,4,500,,
break_continue,html.Screen,10_21_2,2023-11-14T21:51:25.773Z,,,,,,,,,,NaN,,,,,,,,low,low,,,,,,false,,,,false,1035847.3000000119,1035847,,1035846.8000000119,,1035643.778,4,500,,
sequence,flow.Sequence,10_21,2023-11-14T21:51:25.774Z,,,,,,,,,,7684.483000000007,completion,,,,,,,low,low,,,,,,false,,,,false,1035847.5999999642,1035847,1028146.056,1028356.8999999762,1028162.517,1035643.778,4,500,,
trial,html.Screen,10_22_0,2023-11-14T21:51:32.611Z,,,,1,-0.0102460616775615,0.0309670599545429,,false,hl,7041.022000011872,response,0.2620514388744141,0.44322442392149985,-0.4737317921762091,-0.4653126876173916,0.4864394913995125,-0.48618864269747497,high,low,,ISIC_0072041.JPG,9,ISIC_0674746.JPG,307,false,ll,keypress(f),0,false,1042685.1999999881,1042684.8000000119,1035627.244,1035847.8000000119,1035643.778,1042490.392,4,500,23,
break,html.Screen,10_22_1,2023-11-14T21:51:32.612Z,,,,,,,,,,NaN,,,,,,,,high,low,,,,,,false,,,,false,1042686.3000000119,1042686,,1042685.5,,1042490.392,4,500,,
break_continue,html.Screen,10_22_2,2023-11-14T21:51:32.613Z,,,,,,,,,,NaN,,,,,,,,high,low,,,,,,false,,,,false,1042686.8999999762,1042686.6999999881,,1042686.3999999762,,1042490.392,4,500,,
sequence,flow.Sequence,10_22,2023-11-14T21:51:32.613Z,,,,,,,,,,7042.92199998803,completion,,,,,,,high,low,,,,,,false,,,,false,1042687.1999999881,1042686.6999999881,1035627.244,1035847.8000000119,1035643.778,1042490.392,4,500,,
trial,html.Screen,10_23_0,2023-11-14T21:51:37.852Z,,,,1,-0.0159061451859594,-0.0296598845560212,,false,lh,5434.608000000007,response,-0.5347918130934454,0.44322442392149985,-0.4737317921762091,0.3047032912173344,0.4864394913995125,-0.48618864269747497,low,high,,ISIC_0072564.JPG,9,ISIC_0066200.JPG,254,false,ll,keypress(f),0,false,1047925.3999999762,1047925,1042473.876,1042687.5,1042490.392,1047733.934,4,500,24,
break,html.Screen,10_23_1,2023-11-14T21:51:37.853Z,,,,,,,,,,NaN,,,,,,,,low,high,,,,,,false,,,,false,1047926.5,1047926.1999999881,,1047925.6999999881,,1047733.934,4,500,,
break_continue,html.Screen,10_23_2,2023-11-14T21:51:37.853Z,,,,,,,,,,NaN,,,,,,,,low,high,,,,,,false,,,,false,1047927.3000000119,1047927,,1047926.8000000119,,1047733.934,4,500,,
sequence,flow.Sequence,10_23,2023-11-14T21:51:37.854Z,,,,,,,,,,5436.608000000007,completion,,,,,,,low,high,,,,,,false,,,,false,1047927.5999999642,1047927,1042473.876,1042687.3999999762,1042490.392,1047733.934,4,500,,
trial,html.Screen,10_24_0,2023-11-14T21:51:43.331Z,,,,1,-0.0102460616775615,0.0309670599545429,,true,hl,5670.96599997615,response,0.5149384868945606,0.44322442392149985,-0.4737317921762091,-0.3671409261443313,0.4864394913995125,-0.48618864269747497,high,low,,ISIC_0072041.JPG,9,ISIC_0032425.JPG,307,false,hl,keypress(j),0,false,1053405.199999988,1053404.8999999762,1047717.443,1047927.8000000119,1047733.934,1053211.349,4,500,25,
break,html.Screen,10_24_1,2023-11-14T21:51:43.333Z,,,,,,,,,,NaN,,,,,,,,high,low,,,,,,false,,,,false,1053406.300000012,1053406.0999999642,,1053405.5999999642,,1053211.349,4,500,,
break_continue,html.Screen,10_24_2,2023-11-14T21:51:43.333Z,,,,,,,,,,NaN,,,,,,,,high,low,,,,,,false,,,,false,1053407,1053406.800000012,,1053406.5999999642,,1053211.349,4,500,,
sequence,flow.Sequence,10_24,2023-11-14T21:51:43.333Z,,,,,,,,,,5672.866000011913,completion,,,,,,,high,low,,,,,,false,,,,false,1053407.300000012,1053406.800000012,1047717.443,1047927.8000000119,1047733.934,1053211.349,4,500,,
trial,html.Screen,10_25_0,2023-11-14T21:51:48.572Z,,,,1,0.063045324701596,-0.0064789751878758,,false,lh,5433.651000000071,response,-0.3506720101283755,0.44322442392149985,-0.4737317921762091,0.6307150972508926,0.4864394913995125,-0.48618864269747497,low,high,,ISIC_5805349.JPG,9,ISIC_0026112.JPG,254,false,hh,keypress(i),0,false,1058645.3999999762,1058645,1053194.66,1053407.5,1053211.349,1058454.926,4,500,26,
break,html.Screen,10_25_1,2023-11-14T21:51:48.573Z,,,,,,,,,,NaN,,,,,,,,low,high,,,,,,false,,,,false,1058646.5,1058646.300000012,,1058645.800000012,,1058454.926,4,500,,
break_continue,html.Screen,10_25_2,2023-11-14T21:51:48.573Z,,,,,,,,,,NaN,,,,,,,,low,high,,,,,,false,,,,false,1058647.0999999642,1058646.8999999762,,1058646.699999988,,1058454.926,4,500,,
sequence,flow.Sequence,10_25,2023-11-14T21:51:48.574Z,,,,,,,,,,5435.550999976229,completion,,,,,,,low,high,,,,,,false,,,,false,1058647.5,1058646.8999999762,1053194.66,1053407.3999999762,1053211.349,1058454.926,4,500,,
trial,html.Screen,10_26_0,2023-11-14T21:51:54.403Z,,,,1,-0.0552031398781121,-0.0652612426529481,,true,lh,6021.9739999761805,response,-0.3078112588565296,0.44322442392149985,-0.4737317921762091,0.5466187803915553,0.4864394913995125,-0.48618864269747497,low,high,,ISIC_0024226.JPG,9,ISIC_5877410.JPG,254,false,lh,keypress(e),0,false,1064477.199999988,1064476.8999999762,1058438.266,1058647.699999988,1058454.926,1064282.747,4,500,27,
break,html.Screen,10_26_1,2023-11-14T21:51:54.404Z,,,,,,,,,,NaN,,,,,,,,low,high,,,,,,false,,,,false,1064478.300000012,1064478.0999999642,,1064477.5,,1064282.747,4,500,,
break_continue,html.Screen,10_26_2,2023-11-14T21:51:54.405Z,,,,,,,,,,NaN,,,,,,,,low,high,,,,,,false,,,,false,1064479,1064478.800000012,,1064478.5,,1064282.747,4,500,,
sequence,flow.Sequence,10_26,2023-11-14T21:51:54.405Z,,,,,,,,,,6023.874000011943,completion,,,,,,,low,high,,,,,,false,,,,false,1064479.300000012,1064478.800000012,1058438.266,1058647.5999999642,1058454.926,1064282.747,4,500,,
trial,html.Screen,10_27_0,2023-11-14T21:52:02.028Z,,,,1,-0.0087912446525382,-0.0619041869188676,,false,ll,7818.352999964263,response,-0.3158759898350971,0.44322442392149985,-0.4737317921762091,-0.3239650527926809,0.4864394913995125,-0.48618864269747497,low,low,,ISIC_7185913.JPG,8,ISIC_0031627.JPG,487,false,lh,keypress(e),0,false,1072101.3999999762,1072101.0999999642,1064266.209,1064479.5,1064282.747,1071914.263,4,500,28,
break,html.Screen,10_27_1,2023-11-14T21:52:02.029Z,,,,,,,,,,NaN,,,,,,,,low,low,,,,,,false,,,,false,1072102.5999999642,1072102.300000012,,1072101.800000012,,1071914.263,4,500,,
break_continue,html.Screen,10_27_2,2023-11-14T21:52:02.029Z,,,,,,,,,,NaN,,,,,,,,low,low,,,,,,false,,,,false,1072103.300000012,1072103.0999999642,,1072102.800000012,,1071914.263,4,500,,
sequence,flow.Sequence,10_27,2023-11-14T21:52:02.030Z,,,,,,,,,,7820.352999964263,completion,,,,,,,low,low,,,,,,false,,,,false,1072103.5999999642,1072103.0999999642,1064266.209,1064479.3999999762,1064282.747,1071914.263,4,500,,
trial,html.Screen,10_28_0,2023-11-14T21:52:10.411Z,,,,1,-0.0112310719058792,0.0469047359904117,,false,hl,8570.537000011886,response,0.4217355304775023,0.44322442392149985,-0.4737317921762091,-0.6248269525968525,0.4864394913995125,-0.48618864269747497,high,low,,ISIC_0068184.JPG,9,ISIC_3378691.JPG,307,false,ll,keypress(f),0,false,1080485.0999999642,1080484.800000012,1071881.063,1072103.800000012,1071914.263,1080297.473,4,500,29,
break,html.Screen,10_28_1,2023-11-14T21:52:10.412Z,,,,,,,,,,NaN,,,,,,,,high,low,,,,,,false,,,,false,1080486.199999988,1080485.8999999762,,1080485.3999999762,,1080297.473,4,500,,
break_continue,html.Screen,10_28_2,2023-11-14T21:52:10.413Z,,,,,,,,,,NaN,,,,,,,,high,low,,,,,,false,,,,false,1080486.8999999762,1080486.699999988,,1080486.3999999762,,1080297.473,4,500,,
sequence,flow.Sequence,10_28,2023-11-14T21:52:10.413Z,,,,,,,,,,8572.436999988044,completion,,,,,,,high,low,,,,,,false,,,,false,1080487.199999988,1080486.699999988,1071881.063,1072103.699999988,1071914.263,1080297.473,4,500,,
trial,html.Screen,10_29_0,2023-11-14T21:52:21.202Z,,,,1,-0.0188047466661863,0.0288346930436979,,,,10787.446999999927,timeout,0.5696108638427752,0.44322442392149985,-0.4737317921762091,-0.4755504912882455,0.4864394913995125,-0.48618864269747497,high,low,,ISIC_0014157.JPG,9,ISIC_0653633.JPG,307,false,,,0,false,1091275.8999999762,1091275.5,1080280.639,1080487.3999999762,1080297.473,1091084.92,4,500,30,
break,html.Screen,10_29_1,2023-11-14T21:52:21.203Z,,,,,,,,,,NaN,,,,,,,,high,low,,,,,,false,,,,false,1091277,1091276.699999988,,1091276.199999988,,1091084.92,4,500,,
break_continue,html.Screen,10_29_2,2023-11-14T21:52:21.204Z,,,,,,,,,,NaN,,,,,,,,high,low,,,,,,false,,,,false,1091277.699999988,1091277.3999999762,,1091277.199999988,,1091084.92,4,500,,
sequence,flow.Sequence,10_29,2023-11-14T21:52:21.204Z,,,,,,,,,,10979.92699997616,completion,,,,,,,high,low,,,,,,false,,,,false,1091277.8999999762,1091277.3999999762,1080280.639,1080487.3999999762,1080297.473,1091084.92,4,500,,
trial,html.Screen,10_30_0,2023-11-14T21:52:24.356Z,,,,1,0.0401045651353626,0.053461375824197,,false,hl,3344.0800000000745,response,0.2567852865992376,0.44322442392149985,-0.4737317921762091,-0.3544687158851577,0.4864394913995125,-0.48618864269747497,high,low,,ISIC_6483504.JPG,9,ISIC_0011798.JPG,307,false,ll,keypress(f),0,false,1094429.300000012,1094429,1091068.455,1091278.199999988,1091084.92,1094241.21,4,500,31,
break,html.Screen,10_30_1,2023-11-14T21:52:24.357Z,,,,,,,,,,NaN,,,,,,,,high,low,,,,,,false,,,,false,1094430.5,1094430.199999988,,1094429.800000012,,1094241.21,4,500,,
break_continue,html.Screen,10_30_2,2023-11-14T21:52:24.357Z,,,,,,,,,,NaN,,,,,,,,high,low,,,,,,false,,,,false,1094431.199999988,1094430.8999999762,,1094430.699999988,,1094241.21,4,500,,
sequence,flow.Sequence,10_30,2023-11-14T21:52:24.358Z,,,,,,,,,,3345.9799999762326,completion,,,,,,,high,low,,,,,,false,,,,false,1094431.5,1094430.8999999762,1091068.455,1091278.0999999642,1091084.92,1094241.21,4,500,,
trial,html.Screen,10_31_0,2023-11-14T21:52:30.597Z,,,,1,0.0107854985447517,0.0478010417136109,,false,hh,6427.590000011958,response,0.6188615843960755,0.44322442392149985,-0.4737317921762091,0.4920513776493272,0.4864394913995125,-0.48618864269747497,high,high,,ISIC_0010500.JPG,11,ISIC_6839272.JPG,416,false,lh,keypress(e),0,false,1100669.0999999642,1100668.800000012,1094224.539,1094431.699999988,1094241.21,1100469.786,4,500,32,
break,html.Screen,10_31_1,2023-11-14T21:52:30.598Z,,,,,,,,,,NaN,,,,,,,,high,high,,,,,,false,,,,false,1100670.300000012,1100669.8999999762,,1100669.5,,1100469.786,4,500,,
break_continue,html.Screen,10_31_2,2023-11-14T21:52:30.599Z,,,,,,,,,,NaN,,,,,,,,high,high,,,,,,false,,,,false,1100670.8999999762,1100670.699999988,,1100670.5,,1100469.786,4,500,,
sequence,flow.Sequence,10_31,2023-11-14T21:52:30.599Z,,,,,,,,,,6429.489999988116,completion,,,,,,,high,high,,,,,,false,,,,false,1100671.199999988,1100670.699999988,1094224.539,1094431.5999999642,1094241.21,1100469.786,4,500,,
trial,html.Screen,10_32_0,2023-11-14T21:52:37.358Z,,,,1,0.0401045651353626,0.053461375824197,,false,ll,6959.413999987999,response,-0.3111075130842252,0.44322442392149985,-0.4737317921762091,-0.6162599511497906,0.4864394913995125,-0.48618864269747497,low,low,,ISIC_6483504.JPG,9,ISIC_8822331.JPG,487,false,lh,keypress(e),0,false,1107429.5,1107429.199999988,1100453.258,1100671.5,1100469.786,1107232.919,4,500,33,
break,html.Screen,10_32_1,2023-11-14T21:52:37.359Z,,,,,,,,,,NaN,,,,,,,,low,low,,,,,,false,,,,false,1107430.5999999642,1107430.3999999762,,1107429.8999999762,,1107232.919,4,500,,
break_continue,html.Screen,10_32_2,2023-11-14T21:52:37.359Z,,,,,,,,,,NaN,,,,,,,,low,low,,,,,,false,,,,false,1107431.300000012,1107431.0999999642,,1107430.800000012,,1107232.919,4,500,,
sequence,flow.Sequence,10_32,2023-11-14T21:52:37.360Z,,,,,,,,,,6961.313999964157,completion,,,,,,,low,low,,,,,,false,,,,false,1107431.5,1107431.0999999642,1100453.258,1100671.3999999762,1100469.786,1107232.919,4,500,,
trial,html.Screen,10_33_0,2023-11-14T21:52:43.365Z,,,,1,-0.0021038737988857,0.0570427519488725,,false,ll,6203.980999976164,response,-0.6250234693297021,0.44322442392149985,-0.4737317921762091,-0.447994107487242,0.4864394913995125,-0.48618864269747497,low,low,,ISIC_3596927.JPG,9,ISIC_1912589.JPG,487,false,hh,keypress(i),0,false,1113437.199999988,1113436.8999999762,1107216.211,1107431.800000012,1107232.919,1113244.707,4,500,34,
break,html.Screen,10_33_1,2023-11-14T21:52:43.366Z,,,,,,,,,,NaN,,,,,,,,low,low,,,,,,false,,,,false,1113438.3999999762,1113438.0999999642,,1113437.5999999642,,1113244.707,4,500,,
break_continue,html.Screen,10_33_2,2023-11-14T21:52:43.367Z,,,,,,,,,,NaN,,,,,,,,low,low,,,,,,false,,,,false,1113439.199999988,1113438.8999999762,,1113438.699999988,,1113244.707,4,500,,
sequence,flow.Sequence,10_33,2023-11-14T21:52:43.368Z,,,,,,,,,,6205.980999976164,completion,,,,,,,low,low,,,,,,false,,,,false,1113439.5,1113438.8999999762,1107216.211,1107431.800000012,1107232.919,1113244.707,4,500,,
trial,html.Screen,10_34_0,2023-11-14T21:52:46.267Z,,,,1,-0.0021038737988857,0.0570427519488725,,true,hh,3094.5930000119843,response,0.5949316080093173,0.44322442392149985,-0.4737317921762091,0.3592862658909759,0.4864394913995125,-0.48618864269747497,high,high,,ISIC_3596927.JPG,9,ISIC_0025138.JPG,416,false,hh,keypress(i),0,false,1116339.3999999762,1116339.300000012,1113228.169,1113439.699999988,1113244.707,1116150.547,4,500,35,
break,html.Screen,10_34_1,2023-11-14T21:52:46.268Z,,,,,,,,,,NaN,,,,,,,,high,high,,,,,,false,,,,false,1116339.699999988,1116339.699999988,,1116339.5,,1116150.547,4,500,,
break_continue,html.Screen,10_34_2,2023-11-14T21:52:46.268Z,,,,,,,,,,NaN,,,,,,,,high,high,,,,,,false,,,,false,1116339.8999999762,1116339.800000012,,1116339.800000012,,1116150.547,4,500,,
sequence,flow.Sequence,10_34,2023-11-14T21:52:46.268Z,,,,,,,,,,3095.0930000119843,completion,,,,,,,high,high,,,,,,false,,,,false,1116340,1116339.800000012,1113228.169,1113439.699999988,1113244.707,1116150.547,4,500,,
trial,html.Screen,10_35_0,2023-11-14T21:52:52.470Z,,,,1,0.0640778296621707,0.0387686079545705,,false,lh,6390.652999988059,response,-0.5580542460628488,0.44322442392149985,-0.4737317921762091,0.534539778828974,0.4864394913995125,-0.48618864269747497,low,high,,ISIC_0010124.JPG,8,ISIC_8521610.JPG,254,false,hl,keypress(j),0,false,1122541.5,1122541.199999988,1116133.778,1116340,1116150.547,1122345.71,4,500,36,
break,html.Screen,10_35_1,2023-11-14T21:52:52.471Z,,,,,,,,,,NaN,,,,,,,,low,high,,,,,,false,,,,false,1122542.5999999642,1122542.3999999762,,1122541.8999999762,,1122345.71,4,500,,
break_continue,html.Screen,10_35_2,2023-11-14T21:52:52.471Z,,,,,,,,,,NaN,,,,,,,,low,high,,,,,,false,,,,false,1122543.3999999762,1122543.0999999642,,1122542.8999999762,,1122345.71,4,500,,
sequence,flow.Sequence,10_35,2023-11-14T21:52:52.472Z,,,,,,,,,,6392.552999964217,completion,,,,,,,low,high,,,,,,false,,,,false,1122543.699999988,1122543.0999999642,1116133.778,1116340,1116150.547,1122345.71,4,500,,
trial,html.Screen,10_36_0,2023-11-14T21:53:01.388Z,,,,1,0.0538169356437535,-0.0113486191005169,,false,lh,9114.090000011958,response,-0.5347918130934454,0.44322442392149985,-0.4737317921762091,0.3047032912173344,0.4864394913995125,-0.48618864269747497,low,high,,ISIC_0009939.JPG,8,ISIC_0066200.JPG,254,false,hl,keypress(j),0,false,1131459.8999999762,1131459.800000012,1122329.052,1122543.8999999762,1122345.71,1131263.013,4,500,37,
break,html.Screen,10_36_1,2023-11-14T21:53:01.388Z,,,,,,,,,,NaN,,,,,,,,low,high,,,,,,false,,,,false,1131460.5,1131460.300000012,,1131460.0999999642,,1131263.013,4,500,,
break_continue,html.Screen,10_36_2,2023-11-14T21:53:01.389Z,,,,,,,,,,NaN,,,,,,,,low,high,,,,,,false,,,,false,1131460.800000012,1131460.699999988,,1131460.5,,1131263.013,4,500,,
sequence,flow.Sequence,10_36,2023-11-14T21:53:01.389Z,,,,,,,,,,9114.989999988116,completion,,,,,,,low,high,,,,,,false,,,,false,1131460.8999999762,1131460.699999988,1122329.052,1122543.699999988,1122345.71,1131263.013,4,500,,
trial,html.Screen,10_37_0,2023-11-14T21:53:06.870Z,,,,1,-0.0688801591312476,-0.0185462113313342,,false,hh,5678.086999964202,response,0.6212114922487976,0.44322442392149985,-0.4737317921762091,0.5880690684428328,0.4864394913995125,-0.48618864269747497,high,high,,ISIC_0067723.JPG,8,ISIC_0033533.JPG,416,false,ll,keypress(f),0,false,1136941.5,1136941.0999999642,1131246.366,1131461,1131263.013,1136740.409,4,500,38,
break,html.Screen,10_37_1,2023-11-14T21:53:06.871Z,,,,,,,,,,NaN,,,,,,,,high,high,,,,,,false,,,,false,1136942.5999999642,1136942.300000012,,1136941.8999999762,,1136740.409,4,500,,
break_continue,html.Screen,10_37_2,2023-11-14T21:53:06.871Z,,,,,,,,,,NaN,,,,,,,,high,high,,,,,,false,,,,false,1136943.300000012,1136943,,1136942.800000012,,1136740.409,4,500,,
sequence,flow.Sequence,10_37,2023-11-14T21:53:06.872Z,,,,,,,,,,5679.986999999965,completion,,,,,,,high,high,,,,,,false,,,,false,1136943.5999999642,1136943,1131246.366,1131460.8999999762,1131263.013,1136740.409,4,500,,
trial,html.Screen,10_38_0,2023-11-14T21:53:14.989Z,,,,1,0.0329095507339554,-0.0382899749693245,,false,hh,8320.391000011936,response,0.6213382125257125,0.44322442392149985,-0.4737317921762091,0.4357709192316478,0.4864394913995125,-0.48618864269747497,high,high,,ISIC_8812781.JPG,9,ISIC_6668197.JPG,416,false,lh,keypress(e),0,false,1145061.199999988,1145060.800000012,1136723.816,1136943.800000012,1136740.409,1144873.048,4,500,39,
break,html.Screen,10_38_1,2023-11-14T21:53:14.990Z,,,,,,,,,,NaN,,,,,,,,high,high,,,,,,false,,,,false,1145062.300000012,1145062.0999999642,,1145061.5,,1144873.048,4,500,,
break_continue,html.Screen,10_38_2,2023-11-14T21:53:14.991Z,,,,,,,,,,NaN,,,,,,,,high,high,,,,,,false,,,,false,1145063,1145062.800000012,,1145062.5,,1144873.048,4,500,,
sequence,flow.Sequence,10_38,2023-11-14T21:53:14.991Z,,,,,,,,,,8322.391000011936,completion,,,,,,,high,high,,,,,,false,,,,false,1145063.300000012,1145062.800000012,1136723.816,1136943.699999988,1136740.409,1144873.048,4,500,,
trial,html.Screen,10_39_0,2023-11-14T21:53:19.324Z,,,,1,0.0660839342637046,-0.0657899819532072,,true,ll,4522.452000000048,response,-0.6032934184291074,0.44322442392149985,-0.4737317921762091,-0.4449580866352662,0.4864394913995125,-0.48618864269747497,low,low,,ISIC_0065477.JPG,8,ISIC_0032001.JPG,487,false,ll,keypress(f),0,false,1149395.5999999642,1149395.5,1144856.163,1145063.5,1144873.048,1149197.968,4,500,40,
break,html.Screen,10_39_1,2023-11-14T21:53:19.324Z,,,,,,,,,,NaN,,,,,,,,low,low,,,,,,false,,,,false,1149395.8999999762,1149395.8999999762,,1149395.699999988,,1149197.968,4,500,,
break_continue,html.Screen,10_39_2,2023-11-14T21:53:19.324Z,,,,,,,,,,NaN,,,,,,,,low,low,,,,,,false,,,,false,1149396.0999999642,1149396.0999999642,,1149396,,1149197.968,4,500,,
sequence,flow.Sequence,10_39,2023-11-14T21:53:19.324Z,,,,,,,,,,4523.051999964286,completion,,,,,,,low,low,,,,,,false,,,,false,1149396.199999988,1149396.0999999642,1144856.163,1145063.5,1144873.048,1149197.968,4,500,,
trial,html.Screen,10_40_0,2023-11-14T21:53:26.623Z,,,,1,0.0247880219471745,-0.0687761754603142,,false,ll,7494.731999987969,response,-0.4222155877313155,0.44322442392149985,-0.4737317921762091,-0.3283523180846844,0.4864394913995125,-0.48618864269747497,low,low,,ISIC_0031745.JPG,9,ISIC_5504286.JPG,487,false,lh,keypress(e),0,false,1156693.0999999642,1156692.699999988,1149181.155,1149396.199999988,1149197.968,1156495.396,4,500,41,
break,html.Screen,10_40_1,2023-11-14T21:53:26.624Z,,,,,,,,,,NaN,,,,,,,,low,low,,,,,,false,,,,false,1156694.199999988,1156694,,1156693.5,,1156495.396,4,500,,
break_continue,html.Screen,10_40_2,2023-11-14T21:53:26.625Z,,,,,,,,,,NaN,,,,,,,,low,low,,,,,,false,,,,false,1156694.8999999762,1156694.5999999642,,1156694.3999999762,,1156495.396,4,500,,
sequence,flow.Sequence,10_40,2023-11-14T21:53:26.625Z,,,,,,,,,,7496.631999964127,completion,,,,,,,low,low,,,,,,false,,,,false,1156695.199999988,1156694.5999999642,1149181.155,1149396.199999988,1149197.968,1156495.396,4,500,,
trial,html.Screen,10_41_0,2023-11-14T21:53:36.039Z,,,,1,0.0050679133050021,-0.0009714874637896,,true,lh,9613.904000011971,response,-0.2777092563115632,0.44322442392149985,-0.4737317921762091,0.4499349173515071,0.4864394913995125,-0.48618864269747497,low,high,,ISIC_9848743.JPG,9,ISIC_4141898.JPG,254,false,lh,keypress(e),0,false,1166109.5999999642,1166109.300000012,1156478.808,1156695.5,1156495.396,1165913.704,4,500,42,
break,html.Screen,10_41_1,2023-11-14T21:53:36.040Z,,,,,,,,,,NaN,,,,,,,,low,high,,,,,,false,,,,false,1166110.699999988,1166110.5,,1166110,,1165913.704,4,500,,
break_continue,html.Screen,10_41_2,2023-11-14T21:53:36.041Z,,,,,,,,,,NaN,,,,,,,,low,high,,,,,,false,,,,false,1166111.3999999762,1166111.199999988,,1166111,,1165913.704,4,500,,
sequence,flow.Sequence,10_41,2023-11-14T21:53:36.041Z,,,,,,,,,,9615.80399998813,completion,,,,,,,low,high,,,,,,false,,,,false,1166111.699999988,1166111.199999988,1156478.808,1156695.3999999762,1156495.396,1165913.704,4,500,,
trial,html.Screen,10_42_0,2023-11-14T21:53:44.567Z,,,,1,-0.0533723079251252,-0.0299718727255261,,false,ll,8723.395999964327,response,-0.3285326149200756,0.44322442392149985,-0.4737317921762091,-0.5243386399103869,0.4864394913995125,-0.48618864269747497,low,low,,ISIC_6562871.JPG,9,ISIC_0032272.JPG,487,false,hh,keypress(i),0,false,1174637.3999999762,1174637.0999999642,1165897.239,1166111.8999999762,1165913.704,1174447.079,4,500,43,
break,html.Screen,10_42_1,2023-11-14T21:53:44.568Z,,,,,,,,,,NaN,,,,,,,,low,low,,,,,,false,,,,false,1174638.5,1174638.300000012,,1174637.800000012,,1174447.079,4,500,,
break_continue,html.Screen,10_42_2,2023-11-14T21:53:44.569Z,,,,,,,,,,NaN,,,,,,,,low,low,,,,,,false,,,,false,1174639.300000012,1174639,,1174638.800000012,,1174447.079,4,500,,
sequence,flow.Sequence,10_42,2023-11-14T21:53:44.569Z,,,,,,,,,,8725.29600000009,completion,,,,,,,low,low,,,,,,false,,,,false,1174639.5999999642,1174639,1165897.239,1166111.8999999762,1165913.704,1174447.079,4,500,,
trial,html.Screen,10_43_0,2023-11-14T21:53:53.238Z,,,,1,0.0651705891246238,-0.0394586219902573,,true,lh,8860.820999976248,response,-0.4316732249704774,0.44322442392149985,-0.4737317921762091,0.3442355626423644,0.4864394913995125,-0.48618864269747497,low,high,,ISIC_0013491.JPG,8,ISIC_2768150.JPG,254,false,lh,keypress(e),0,false,1183308.0999999642,1183307.8999999762,1174430.195,1174639.8999999762,1174447.079,1183113.965,4,500,44,
break,html.Screen,10_43_1,2023-11-14T21:53:53.238Z,,,,,,,,,,NaN,,,,,,,,low,high,,,,,,false,,,,false,1183308.5999999642,1183308.3999999762,,1183308.199999988,,1183113.965,4,500,,
break_continue,html.Screen,10_43_2,2023-11-14T21:53:53.238Z,,,,,,,,,,NaN,,,,,,,,low,high,,,,,,false,,,,false,1183308.800000012,1183308.699999988,,1183308.699999988,,1183113.965,4,500,,
sequence,flow.Sequence,10_43,2023-11-14T21:53:53.239Z,,,,,,,,,,8861.620999988168,completion,,,,,,,low,high,,,,,,false,,,,false,1183308.8999999762,1183308.699999988,1174430.195,1174639.800000012,1174447.079,1183113.965,4,500,,
trial,html.Screen,10_44_0,2023-11-14T21:53:59.389Z,,,,1,0.0401045651353626,0.053461375824197,,true,lh,6345.335000011837,response,-0.6222166524938626,0.44322442392149985,-0.4737317921762091,0.3937305675530943,0.4864394913995125,-0.48618864269747497,low,high,,ISIC_6483504.JPG,10,ISIC_3704157.JPG,254,false,lh,keypress(e),0,false,1189459.5,1189459.300000012,1183097.376,1183309.0999999642,1183113.965,1189259.137,4,500,45,
break,html.Screen,10_44_1,2023-11-14T21:53:59.389Z,,,,,,,,,,NaN,,,,,,,,low,high,,,,,,false,,,,false,1189459.800000012,1189459.699999988,,1189459.5999999642,,1189259.137,4,500,,
break_continue,html.Screen,10_44_2,2023-11-14T21:53:59.390Z,,,,,,,,,,NaN,,,,,,,,low,high,,,,,,false,,,,false,1189459.8999999762,1189459.8999999762,,1189459.800000012,,1189259.137,4,500,,
sequence,flow.Sequence,10_44,2023-11-14T21:53:59.390Z,,,,,,,,,,6345.934999976074,completion,,,,,,,low,high,,,,,,false,,,,false,1189460,1189459.8999999762,1183097.376,1183309,1183113.965,1189259.137,4,500,,
trial,html.Screen,10_45_0,2023-11-14T21:54:03.183Z,,,,1,-0.0735635316240061,0.0537805418091709,,true,hh,3993.5629999879748,response,0.3467539475776516,0.44322442392149985,-0.4737317921762091,0.4275459124955588,0.4864394913995125,-0.48618864269747497,high,high,,ISIC_1761799.JPG,8,ISIC_0055081.JPG,416,false,hh,keypress(i),0,false,1193253.0999999642,1193252.699999988,1189242.554,1189460.0999999642,1189259.137,1193067.123,4,500,46,
break,html.Screen,10_45_1,2023-11-14T21:54:03.184Z,,,,,,,,,,NaN,,,,,,,,high,high,,,,,,false,,,,false,1193254.199999988,1193253.8999999762,,1193253.3999999762,,1193067.123,4,500,,
break_continue,html.Screen,10_45_2,2023-11-14T21:54:03.184Z,,,,,,,,,,NaN,,,,,,,,high,high,,,,,,false,,,,false,1193254.8999999762,1193254.5999999642,,1193254.3999999762,,1193067.123,4,500,,
sequence,flow.Sequence,10_45,2023-11-14T21:54:03.185Z,,,,,,,,,,3995.462999964133,completion,,,,,,,high,high,,,,,,false,,,,false,1193255.0999999642,1193254.5999999642,1189242.554,1189460.0999999642,1189259.137,1193067.123,4,500,,
trial,html.Screen,10_46_0,2023-11-14T21:54:10.415Z,,,,1,-0.0245376145053177,0.0436993426328401,,false,ll,7417.976999964332,response,-0.5696539931149143,0.44322442392149985,-0.4737317921762091,-0.6541100664141384,0.4864394913995125,-0.48618864269747497,low,low,,ISIC_0056444.JPG,8,ISIC_8791729.JPG,487,false,hl,keypress(j),0,false,1200485.3999999762,1200485.0999999642,1193033.365,1193255.3999999762,1193067.123,1200297.529,4,500,47,
break,html.Screen,10_46_1,2023-11-14T21:54:10.416Z,,,,,,,,,,NaN,,,,,,,,low,low,,,,,,false,,,,false,1200486.5999999642,1200486.300000012,,1200485.800000012,,1200297.529,4,500,,
break_continue,html.Screen,10_46_2,2023-11-14T21:54:10.417Z,,,,,,,,,,NaN,,,,,,,,low,low,,,,,,false,,,,false,1200487.300000012,1200487,,1200486.800000012,,1200297.529,4,500,,
sequence,flow.Sequence,10_46,2023-11-14T21:54:10.417Z,,,,,,,,,,7419.877000000095,completion,,,,,,,low,low,,,,,,false,,,,false,1200487.5999999642,1200487,1193033.365,1193255.3999999762,1193067.123,1200297.529,4,500,,
trial,html.Screen,10_47_0,2023-11-14T21:54:18.775Z,,,,1,-0.0693466529227737,-0.044703434393184,,true,hh,8547.170999987982,response,0.5960775696936983,0.44322442392149985,-0.4737317921762091,0.3305726796425927,0.4864394913995125,-0.48618864269747497,high,high,,ISIC_0004217.JPG,9,ISIC_8127394.JPG,416,false,hh,keypress(i),0,false,1208845,1208844.699999988,1200280.795,1200487.8999999762,1200297.529,1208646.82,4,500,48,
break,html.Screen,10_47_1,2023-11-14T21:54:18.776Z,,,,,,,,,,NaN,,,,,,,,high,high,,,,,,false,,,,false,1208846.199999988,1208845.8999999762,,1208845.3999999762,,1208646.82,4,500,,
break_continue,html.Screen,10_47_2,2023-11-14T21:54:18.776Z,,,,,,,,,,NaN,,,,,,,,high,high,,,,,,false,,,,false,1208846.8999999762,1208846.5999999642,,1208846.3999999762,,1208646.82,4,500,,
sequence,flow.Sequence,10_47,2023-11-14T21:54:18.777Z,,,,,,,,,,8549.07099996414,completion,,,,,,,high,high,,,,,,false,,,,false,1208847.0999999642,1208846.5999999642,1200280.795,1200487.800000012,1200297.529,1208646.82,4,500,,
trial,html.Screen,10_48_0,2023-11-14T21:54:24.805Z,,,,1,0.0194167651857046,0.0726253809408601,,false,hh,6228.779999964172,response,0.4750769241525879,0.44322442392149985,-0.4737317921762091,0.5945063535704285,0.4864394913995125,-0.48618864269747497,high,high,,ISIC_0056692.JPG,9,ISIC_0013626.JPG,416,false,ll,keypress(f),0,false,1214875.699999988,1214875.5999999642,1208630.286,1208847.3999999762,1208646.82,1214675.216,4,500,49,
break,html.Screen,10_48_1,2023-11-14T21:54:24.806Z,,,,,,,,,,NaN,,,,,,,,high,high,,,,,,false,,,,false,1214876.0999999642,1214876,,1214875.8999999762,,1214675.216,4,500,,
break_continue,html.Screen,10_48_2,2023-11-14T21:54:24.806Z,,,,,,,,,,NaN,,,,,,,,high,high,,,,,,false,,,,false,1214876.300000012,1214876.199999988,,1214876.0999999642,,1214675.216,4,500,,
sequence,flow.Sequence,10_48,2023-11-14T21:54:24.806Z,,,,,,,,,,6229.379999988014,completion,,,,,,,high,high,,,,,,false,,,,false,1214876.300000012,1214876.199999988,1208630.286,1208847.3999999762,1208646.82,1214675.216,4,500,,
trial,html.Screen,10_49_0,2023-11-14T21:54:32.664Z,,,,1,-0.0644357632656846,-0.0501167370292348,,false,hl,8057.783999999985,response,0.4713224272042806,0.44322442392149985,-0.4737317921762091,-0.6682369637857237,0.4864394913995125,-0.48618864269747497,high,low,,ISIC_5207050.JPG,10,ISIC_6569060.JPG,307,false,hh,keypress(i),0,false,1222733.300000012,1222733,1214658.707,1214876.3999999762,1214675.216,1222540.583,4,500,50,
break,html.Screen,10_49_1,2023-11-14T21:54:32.665Z,,,,,,,,,,NaN,,,,,,,,high,low,,,,,,false,,,,false,1222734.5,1222734.0999999642,,1222733.699999988,,1222540.583,4,500,,
break_continue,html.Screen,10_49_2,2023-11-14T21:54:32.666Z,,,,,,,,,,NaN,,,,,,,,high,low,,,,,,false,,,,false,1222735.0999999642,1222734.8999999762,,1222734.699999988,,1222540.583,4,500,,
