sender,sender_type,sender_id,timestamp,meta,,age,blockNo,c1,c2,condition,correct,correctResponse,duration,ended_on,f1,f1_high,f1_low,f2,f2_high,f2_low,feature_level1,feature_level2,gender,img_left,img_reveal,img_right,n_target_images,practice,response,response_action,selection_duration,staircase,time_commit,time_end,time_render,time_run,time_show,time_switch,total_blocks,total_trials,trialNo,url
informed_consent,html.Screen,0,2023-11-14T19:36:19.021Z,"{""labjs_version"":""20.2.4"",""labjs_build"":{""flavor"":""development"",""commit"":""f5b4a49f956347addd546a832a3327688c2c0fef""},""location"":""https://labjs.felixhenninger.com/api/labjs_preview/index.html"",""userAgent"":""Mozilla/5.0 (Windows NT 10.0; Win64; x64) AppleWebKit/537.36 (KHTML, like Gecko) Chrome/119.0.0.0 Safari/537.36"",""platform"":""Win32"",""language"":""en-US"",""locale"":""en-US"",""timeZone"":""America/Chicago"",""timezoneOffset"":360,""screen_width"":1920,""screen_height"":1080,""scroll_width"":945,""scroll_height"":918,""window_innerWidth"":945,""window_innerHeight"":966,""devicePixelRatio"":1}",,,,,,,,,21145.511000000744,response,,,,,,,,,,,,,,,consent,click button,,,21808,21798.800000000745,636.624,634.8000000007451,653.289,21803.318,,,,{}
Demography form,html.Form,1,2023-11-14T19:36:29.597Z,,,18,,,,,,,10580.582000000373,form submission,,,,,,,,,female,,,,,,,,,,32384.099999999627,32383.900000000373,21786.729,21808.200000001118,21803.318,32403.485,,,,
Welcome,html.Screen,2,2023-11-14T19:36:53.068Z,,,,,,,"[""asym"",""bor""]",,,23451.215000001117,response,,,,,,,,,,,,,,,continue,click button,,,55855.300000000745,55854.70000000112,32386.697,32384.099999999627,32403.485,55870.052,,,,
demo_instructions,html.Screen,3,2023-11-14T19:37:16.324Z,,,,,,,,,,23240.947999999997,response,,,,,,,,,,,,,,,continue,click button,,,79111.59999999963,79111,55853.378,55855.40000000037,55870.052,79120.086,,,,
trial,html.Screen,4_0_0,2023-11-14T19:37:31.863Z,,,,0,1.0213365328004047,-1.088524359911891,,true,lh,15530.114000001122,response,-1.020990671779317,1.0499999999999998,-1.0499999999999998,1.0116513850520903,1.0499999999999998,-1.0499999999999998,low,high,,ISIC_5434229.JPG,,ISIC_0011995.JPG,21,true,lh,keypress(e),100,false,94650.40000000037,94650.20000000112,79103.639,79111.80000000075,79120.086,94670.235,1,16,1,
sequence,flow.Sequence,4_0,2023-11-14T19:37:31.863Z,,,,,,,,,,15530.114000001122,completion,,,,,,,low,high,,,,,,true,,,,false,94650.59999999963,94650.20000000112,79103.639,79111.80000000075,79120.086,94670.235,1,16,,
trial,html.Screen,4_1_0,2023-11-14T19:37:41.579Z,,,,0,0.8655167308525522,-0.9298580423306444,,true,lh,9695.864999999627,response,-0.8979276789594874,1.0499999999999998,-1.0499999999999998,0.925374811016654,1.0499999999999998,-1.0499999999999998,low,high,,ISIC_4603706.JPG,,ISIC_4208361.JPG,21,true,lh,keypress(e),100,false,104366.30000000075,104366.09999999963,94653.465,94650.80000000075,94670.235,104386.8,1,16,2,
sequence,flow.Sequence,4_1,2023-11-14T19:37:41.579Z,,,,,,,,,,9695.864999999627,completion,,,,,,,low,high,,,,,,true,,,,false,104366.5,104366.09999999963,94653.465,94650.80000000075,94670.235,104386.8,1,16,,
trial,html.Screen,4_2_0,2023-11-14T19:37:46.975Z,,,,0,0.9235571765207048,-1.0008081653938232,,true,lh,5375.10000000037,response,-0.991282840649944,1.0499999999999998,-1.0499999999999998,0.9397921099839784,1.0499999999999998,-1.0499999999999998,low,high,,ISIC_8796632.JPG,,ISIC_0000463.JPG,21,true,lh,keypress(e),100,false,109762.20000000112,109761.90000000037,104370.113,104366.59999999963,104386.8,109786.824,1,16,3,
sequence,flow.Sequence,4_2,2023-11-14T19:37:46.975Z,,,,,,,,,,5375.10000000037,completion,,,,,,,low,high,,,,,,true,,,,false,109762.40000000037,109761.90000000037,104370.113,104366.59999999963,104386.8,109786.824,1,16,,
trial,html.Screen,4_3_0,2023-11-14T19:37:54.466Z,,,,0,0.8947611078712571,-0.8960964505004638,,true,lh,7466.676000000007,response,-0.879102500583965,1.0499999999999998,-1.0499999999999998,1.0933081951979773,1.0499999999999998,-1.0499999999999998,low,high,,ISIC_6441128.JPG,,ISIC_0046223.JPG,21,true,lh,keypress(e),100,false,117253.70000000112,117253.5,109770.252,109762.5,109786.824,117270.262,1,16,4,
sequence,flow.Sequence,4_3,2023-11-14T19:37:54.467Z,,,,,,,,,,7466.676000000007,completion,,,,,,,low,high,,,,,,true,,,,false,117254,117253.5,109770.252,109762.5,109786.824,117270.262,1,16,,
trial,html.Screen,4_4_0,2023-11-14T19:38:02.408Z,,,,0,0.9262674596267249,1.0275767908572495,,true,ll,7924.938000001115,response,-1.1513656623516493,1.0499999999999998,-1.0499999999999998,-0.9961674882214306,1.0499999999999998,-1.0499999999999998,low,low,,ISIC_5415749.JPG,,ISIC_0624779.JPG,111,true,ll,keypress(f),100,false,125195.40000000037,125195.20000000112,117253.445,117254,117270.262,125220.147,1,16,5,
sequence,flow.Sequence,4_4,2023-11-14T19:38:02.408Z,,,,,,,,,,7924.938000001115,completion,,,,,,,low,low,,,,,,true,,,,false,125195.90000000037,125195.20000000112,117253.445,117254,117270.262,125220.147,1,16,,
trial,html.Screen,4_5_0,2023-11-14T19:38:05.919Z,,,,0,0.8826164980777871,1.0773466327271526,,true,ll,3485.5530000011204,response,-0.924867075003666,1.0499999999999998,-1.0499999999999998,-0.9114881908569834,1.0499999999999998,-1.0499999999999998,low,low,,ISIC_0055169.JPG,,ISIC_7499769.JPG,111,true,ll,keypress(f),100,false,128705.90000000037,128705.70000000112,125203.613,125196,125220.147,128737.057,1,16,6,
sequence,flow.Sequence,4_5,2023-11-14T19:38:05.919Z,,,,,,,,,,3485.5530000011204,completion,,,,,,,low,low,,,,,,true,,,,false,128706.20000000112,128705.70000000112,125203.613,125195.90000000037,125220.147,128737.057,1,16,,
trial,html.Screen,4_6_0,2023-11-14T19:38:08.818Z,,,,0,0.8658216082775305,0.9788979939580964,,true,ll,2868.2430000007444,response,-0.9031332540970408,1.0499999999999998,-1.0499999999999998,-0.853200189915778,1.0499999999999998,-1.0499999999999998,low,low,,ISIC_0331389.JPG,,ISIC_4679971.JPG,111,true,ll,keypress(f),100,false,131605.5,131605.30000000075,128720.38,128706.30000000075,128737.057,131636.958,1,16,7,
sequence,flow.Sequence,4_6,2023-11-14T19:38:08.818Z,,,,,,,,,,2868.2430000007444,completion,,,,,,,low,low,,,,,,true,,,,false,131605.80000000075,131605.30000000075,128720.38,128706.30000000075,128737.057,131636.958,1,16,,
trial,html.Screen,4_7_0,2023-11-14T19:38:11.242Z,,,,0,1.0774704182387804,1.0186619444121927,,true,ll,2391.842000000732,response,-0.9684792294535484,1.0499999999999998,-1.0499999999999998,-0.9741930282015964,1.0499999999999998,-1.0499999999999998,low,low,,ISIC_0066564.JPG,,ISIC_3372750.JPG,111,true,ll,keypress(f),100,false,134029.09999999963,134028.80000000075,131620.274,131606,131636.958,134053.547,1,16,8,
sequence,flow.Sequence,4_7,2023-11-14T19:38:11.242Z,,,,,,,,,,2391.842000000732,completion,,,,,,,low,low,,,,,,true,,,,false,134029.30000000075,134028.80000000075,131620.274,131605.90000000037,131636.958,134053.547,1,16,,
trial,html.Screen,4_8_0,2023-11-14T19:38:18.084Z,,,,0,-0.7836356408583546,1.1197925594706428,,true,hl,6816.552999999636,response,0.8200962008791046,0.9499999999999997,-0.9499999999999997,-0.7936051642828523,0.9499999999999997,-0.9499999999999997,high,low,,ISIC_0024961.JPG,,ISIC_0027031.JPG,26,true,hl,keypress(j),100,false,140870.5,140870.09999999963,134036.875,134029.5,134053.547,140886.949,1,16,9,
sequence,flow.Sequence,4_8,2023-11-14T19:38:18.085Z,,,,,,,,,,6816.552999999636,completion,,,,,,,high,low,,,,,,true,,,,false,140870.90000000037,140870.09999999963,134036.875,134029.40000000037,134053.547,140886.949,1,16,,
trial,html.Screen,4_9_0,2023-11-14T19:38:24.428Z,,,,0,-0.8809306963311293,0.8614910030038974,,true,hl,6326.951000000379,response,1.0122398223568725,0.9499999999999997,-0.9499999999999997,-0.7505228537454216,0.9499999999999997,-0.9499999999999997,high,low,,ISIC_0013731.JPG,,ISIC_0033802.JPG,26,true,hl,keypress(j),100,false,147214.40000000037,147213.90000000037,140870.231,140871.09999999963,140886.949,147236.915,1,16,10,
sequence,flow.Sequence,4_9,2023-11-14T19:38:24.429Z,,,,,,,,,,6326.951000000379,completion,,,,,,,high,low,,,,,,true,,,,false,147215,147213.90000000037,140870.231,140871,140886.949,147236.915,1,16,,
trial,html.Screen,4_10_0,2023-11-14T19:38:32.600Z,,,,0,-0.8809306963311293,0.8614910030038974,,true,hl,8149.385000000737,response,0.887838744955182,0.9499999999999997,-0.9499999999999997,-0.7545096650863988,0.9499999999999997,-0.9499999999999997,high,low,,ISIC_0013731.JPG,,ISIC_1488727.JPG,26,true,hl,keypress(j),100,false,155386.59999999963,155386.30000000075,147220.23,147215.20000000112,147236.915,155403.548,1,16,11,
sequence,flow.Sequence,4_10,2023-11-14T19:38:32.601Z,,,,,,,,,,8149.385000000737,completion,,,,,,,high,low,,,,,,true,,,,false,155386.80000000075,155386.30000000075,147220.23,147215.20000000112,147236.915,155403.548,1,16,,
trial,html.Screen,4_11_0,2023-11-14T19:38:37.997Z,,,,0,-1.0751036484083878,1.143906455483852,,true,hl,5379.051999999618,response,0.8035152873995188,0.9499999999999997,-0.9499999999999997,-0.82868450251632,0.9499999999999997,-0.9499999999999997,high,low,,ISIC_0064406.JPG,,ISIC_0010671.JPG,26,true,hl,keypress(j),100,false,160782.80000000075,160782.59999999963,155386.873,155387,155403.548,160803.565,1,16,12,
sequence,flow.Sequence,4_11,2023-11-14T19:38:37.997Z,,,,,,,,,,5379.051999999618,completion,,,,,,,high,low,,,,,,true,,,,false,160783.20000000112,160782.59999999963,155386.873,155387,155403.548,160803.565,1,16,,
trial,html.Screen,4_12_0,2023-11-14T19:38:40.772Z,,,,0,-0.878837306607763,-0.9806817794837708,,true,hh,2754.534999999625,response,0.8597768256741747,0.9499999999999997,-0.9499999999999997,1.1001121427563445,0.9499999999999997,-0.9499999999999997,high,high,,ISIC_6250970.JPG,,ISIC_5922588.JPG,167,true,hh,keypress(i),100,false,163558.20000000112,163558.09999999963,160786.874,160783.30000000075,160803.565,163586.896,1,16,13,
sequence,flow.Sequence,4_12,2023-11-14T19:38:40.772Z,,,,,,,,,,2754.534999999625,completion,,,,,,,high,high,,,,,,true,,,,false,163558.40000000037,163558.09999999963,160786.874,160783.20000000112,160803.565,163586.896,1,16,,
trial,html.Screen,4_13_0,2023-11-14T19:38:51.544Z,,,,0,-0.7870373375006504,-1.0385104284303668,,true,hh,10742.70399999962,response,0.9307420457704906,0.9499999999999997,-0.9499999999999997,1.0040662939937806,0.9499999999999997,-0.9499999999999997,high,high,,ISIC_0002162.JPG,,ISIC_4508878.JPG,167,true,hh,keypress(i),100,false,174329.80000000075,174329.59999999963,163570.311,163558.40000000037,163586.896,174353.547,1,16,14,
sequence,flow.Sequence,4_13,2023-11-14T19:38:51.544Z,,,,,,,,,,10742.70399999962,completion,,,,,,,high,high,,,,,,true,,,,false,174330.09999999963,174329.59999999963,163570.311,163558.40000000037,163586.896,174353.547,1,16,,
trial,html.Screen,4_14_0,2023-11-14T19:38:57.565Z,,,,0,-0.8003549678836777,-0.7922238790731763,,true,hh,5997.453000000009,response,0.9306454722820696,0.9499999999999997,-0.9499999999999997,0.9812399591657396,0.9499999999999997,-0.9499999999999997,high,high,,ISIC_0028780.JPG,,ISIC_0009940.JPG,167,true,hh,keypress(i),100,false,180351.09999999963,180351,174337.041,174330.30000000075,174353.547,180370.307,1,16,15,
sequence,flow.Sequence,4_14,2023-11-14T19:38:57.565Z,,,,,,,,,,5997.453000000009,completion,,,,,,,high,high,,,,,,true,,,,false,180351.30000000075,180351,174337.041,174330.20000000112,174353.547,180370.307,1,16,,
trial,html.Screen,4_15_0,2023-11-14T19:39:09.441Z,,,,0,-0.9786457729523576,-1.1189056385517386,,true,hh,11856.292999999627,response,0.9441762364280936,0.9499999999999997,-0.9499999999999997,0.7652061050527971,0.9499999999999997,-0.9499999999999997,high,high,,ISIC_3926019.JPG,,ISIC_0065521.JPG,167,true,hh,keypress(i),100,false,192226.80000000075,192226.59999999963,180353.58,180351.30000000075,180370.307,192253.722,1,16,16,
sequence,flow.Sequence,4_15,2023-11-14T19:39:09.441Z,,,,,,,,,,11856.292999999627,completion,,,,,,,high,high,,,,,,true,,,,false,192227.09999999963,192226.59999999963,180353.58,180351.30000000075,180370.307,192253.722,1,16,,
demonstration_loop,flow.Loop,4,2023-11-14T19:39:09.441Z,,,,,,,,,,113106.51399999963,completion,,,,,,,,,,,,,,true,,,,false,192227.20000000112,192226.59999999963,79103.639,79111.80000000075,79120.086,192253.722,1,16,,
practice_instructions,html.Screen,5,2023-11-14T19:39:30.260Z,,,,,,,,,,20784.87799999962,response,,,,,,,,,,,,,,,continue,click button,,,213046.30000000075,213038.59999999963,192236.93,192227.30000000075,192253.722,213053.582,,,,
trial,html.Screen,6_0_0,2023-11-14T19:39:41.258Z,,,,1,0.9079289924001074,0.7922971602123134,,,,11016.670000000013,timeout,-0.9525123994269484,0.9499999999999997,-0.9499999999999997,-1.0779941204178511,0.9499999999999997,-0.9499999999999997,low,low,,ISIC_6644659.JPG,,ISIC_0009642.JPG,142,true,,,0,false,224044.40000000037,224044.20000000112,213037.058,213046.40000000037,213053.582,224070.252,1,20,1,
sequence,flow.Sequence,6_0,2023-11-14T19:39:41.258Z,,,,,,,,,,10990.618000001123,completion,,,,,,,low,low,,,,,,true,,,,false,224044.70000000112,224044.20000000112,213037.058,213046.40000000037,213053.582,224070.252,1,20,,
trial,html.Screen,6_1_0,2023-11-14T19:39:45.508Z,,,,1,-0.869932994914832,0.8880533324432531,,true,hl,4223.747999999992,response,1.0122398223568725,0.9499999999999997,-0.9499999999999997,-0.7505228537454216,0.9499999999999997,-0.9499999999999997,high,low,,ISIC_8617084.JPG,,ISIC_0033802.JPG,26,true,hl,keypress(j),0,false,228294.09999999963,228294,224053.623,224044.80000000075,224070.252,228320.28,1,20,2,
sequence,flow.Sequence,6_1,2023-11-14T19:39:45.508Z,,,,,,,,,,4223.747999999992,completion,,,,,,,high,low,,,,,,true,,,,false,228294.30000000075,228294,224053.623,224044.80000000075,224070.252,228320.28,1,20,,
trial,html.Screen,6_2_0,2023-11-14T19:39:47.206Z,,,,1,0.8655167308525522,-0.9298580423306444,,true,lh,1672.4200000011188,response,-0.9696118525781644,0.9499999999999997,-0.9499999999999997,0.9244148283103414,0.9499999999999997,-0.9499999999999997,low,high,,ISIC_4603706.JPG,,ISIC_7927525.JPG,28,true,lh,keypress(e),0,false,229992.80000000075,229992.70000000112,228303.595,228294.40000000037,228320.28,230003.797,1,20,3,
sequence,flow.Sequence,6_2,2023-11-14T19:39:47.207Z,,,,,,,,,,1672.4200000011188,completion,,,,,,,low,high,,,,,,true,,,,false,229993,229992.70000000112,228303.595,228294.40000000037,228320.28,230003.797,1,20,,
trial,html.Screen,6_3_0,2023-11-14T19:39:50.717Z,,,,1,-1.0865333402803938,1.0542635307358266,,true,hl,3499.802999999636,response,0.7833710010171356,0.9499999999999997,-0.9499999999999997,-0.9315588090336896,0.9499999999999997,-0.9499999999999997,high,low,,ISIC_0034006.JPG,,ISIC_3826102.JPG,26,true,hl,keypress(j),0,false,233503.80000000075,233503.59999999963,229987.074,229993.09999999963,230003.797,233520.383,1,20,4,
sequence,flow.Sequence,6_3,2023-11-14T19:39:50.718Z,,,,,,,,,,3499.802999999636,completion,,,,,,,high,low,,,,,,true,,,,false,233504,233503.59999999963,229987.074,229993.09999999963,230003.797,233520.383,1,20,,
trial,html.Screen,6_4_0,2023-11-14T19:39:54.381Z,,,,1,0.991146183030456,-0.9949639823722534,,true,lh,3647.216999999626,response,-0.7784583866003763,0.9499999999999997,-0.9499999999999997,0.9641514808986528,0.9499999999999997,-0.9499999999999997,low,high,,ISIC_6342224.JPG,,ISIC_0011924.JPG,28,true,lh,keypress(e),0,false,237167.70000000112,237167.59999999963,233503.503,233504.09999999963,233520.383,237170.271,1,20,5,
sequence,flow.Sequence,6_4,2023-11-14T19:39:54.381Z,,,,,,,,,,3647.216999999626,completion,,,,,,,low,high,,,,,,true,,,,false,237167.90000000037,237167.59999999963,233503.503,233504.09999999963,233520.383,237170.271,1,20,,
trial,html.Screen,6_5_0,2023-11-14T19:39:57.710Z,,,,1,-0.964746248973834,-0.9069353065857808,,true,hh,3325.728999999992,response,1.018568530854085,0.9499999999999997,-0.9499999999999997,0.830218316692649,0.9499999999999997,-0.9499999999999997,high,high,,ISIC_9896801.JPG,,ISIC_0057180.JPG,167,true,hh,keypress(i),0,false,240496.09999999963,240496,237153.641,237168,237170.271,240503.679,1,20,6,
sequence,flow.Sequence,6_5,2023-11-14T19:39:57.710Z,,,,,,,,,,3325.728999999992,completion,,,,,,,high,high,,,,,,true,,,,false,240496.5,240496,237153.641,237168,237170.271,240503.679,1,20,,
trial,html.Screen,6_6_0,2023-11-14T19:40:00.501Z,,,,1,0.8816288864119318,-0.801867301188093,,true,lh,2783.9209999996237,response,-1.0026266089287914,0.9499999999999997,-0.9499999999999997,1.0913275913920335,0.9499999999999997,-0.9499999999999997,low,high,,ISIC_9196783.JPG,,ISIC_0033520.JPG,28,true,lh,keypress(e),0,false,243287.70000000112,243287.59999999963,240486.865,240496.59999999963,240503.679,243303.808,1,20,7,
sequence,flow.Sequence,6_6,2023-11-14T19:40:00.501Z,,,,,,,,,,2783.9209999996237,completion,,,,,,,low,high,,,,,,true,,,,false,243287.90000000037,243287.59999999963,240486.865,240496.5,240503.679,243303.808,1,20,,
trial,html.Screen,6_7_0,2023-11-14T19:40:03.229Z,,,,1,0.7667223565323059,0.7525280650246937,,true,ll,2711.992000000755,response,-0.7504722488504932,0.9499999999999997,-0.9499999999999997,-1.117673118196769,0.9499999999999997,-0.9499999999999997,low,low,,ISIC_0031397.JPG,,ISIC_0028027.JPG,142,true,ll,keypress(f),0,false,246016,246015.80000000075,243287.05,243288.09999999963,243303.808,246020.324,1,20,8,
sequence,flow.Sequence,6_7,2023-11-14T19:40:03.230Z,,,,,,,,,,2711.992000000755,completion,,,,,,,low,low,,,,,,true,,,,false,246016.30000000075,246015.80000000075,243287.05,243288.09999999963,243303.808,246020.324,1,20,,
trial,html.Screen,6_8_0,2023-11-14T19:40:06.141Z,,,,1,-0.8166030890360636,-0.9078453750437048,,true,hh,2906.976000000752,response,1.0644984649911948,0.9499999999999997,-0.9499999999999997,0.8053137102379775,0.9499999999999997,-0.9499999999999997,high,high,,ISIC_0028919.JPG,,ISIC_2007396.JPG,167,true,hh,keypress(i),0,false,248927.5,248927.30000000075,246003.706,246016.30000000075,246020.324,248937.047,1,20,9,
sequence,flow.Sequence,6_8,2023-11-14T19:40:06.141Z,,,,,,,,,,2906.976000000752,completion,,,,,,,high,high,,,,,,true,,,,false,248927.59999999963,248927.30000000075,246003.706,246016.30000000075,246020.324,248937.047,1,20,,
trial,html.Screen,6_9_0,2023-11-14T19:40:10.653Z,,,,1,-0.9433720631499012,1.0582071940347648,,true,hl,4502.453000000009,response,0.9388660854518424,0.9499999999999997,-0.9499999999999997,-0.79533948698576,0.9499999999999997,-0.9499999999999997,high,low,,ISIC_4890201.JPG,,ISIC_9291926.JPG,26,true,hl,keypress(j),0,false,253439.59999999963,253439.5,248920.411,248927.70000000112,248937.047,253453.708,1,20,10,
sequence,flow.Sequence,6_9,2023-11-14T19:40:10.653Z,,,,,,,,,,4502.453000000009,completion,,,,,,,high,low,,,,,,true,,,,false,253439.80000000075,253439.5,248920.411,248927.70000000112,248937.047,253453.708,1,20,,
trial,html.Screen,6_10_0,2023-11-14T19:40:14.413Z,,,,1,0.8035152873995188,-0.82868450251632,,true,lh,3745.7919999999867,response,-0.9696118525781644,0.9499999999999997,-0.9499999999999997,0.9244148283103414,0.9499999999999997,-0.9499999999999997,low,high,,ISIC_0010671.JPG,,ISIC_7927525.JPG,28,true,lh,keypress(e),0,false,257199.59999999963,257199.5,253436.922,253439.90000000037,253453.708,257203.635,1,20,11,
sequence,flow.Sequence,6_10,2023-11-14T19:40:14.413Z,,,,,,,,,,3745.7919999999867,completion,,,,,,,low,high,,,,,,true,,,,false,257199.80000000075,257199.5,253436.922,253439.90000000037,253453.708,257203.635,1,20,,
trial,html.Screen,6_11_0,2023-11-14T19:40:15.942Z,,,,1,-0.9102336581208296,-1.0305113346799688,,true,hh,1524.3649999999907,response,0.9307420457704906,0.9499999999999997,-0.9499999999999997,1.0040662939937806,0.9499999999999997,-0.9499999999999997,high,high,,ISIC_0068530.JPG,,ISIC_4508878.JPG,167,true,hh,keypress(i),0,false,258728.30000000075,258728,257187.083,257199.90000000037,257203.635,258736.976,1,20,12,
sequence,flow.Sequence,6_11,2023-11-14T19:40:15.942Z,,,,,,,,,,1524.3649999999907,completion,,,,,,,high,high,,,,,,true,,,,false,258728.80000000075,258728,257187.083,257199.90000000037,257203.635,258736.976,1,20,,
trial,html.Screen,6_12_0,2023-11-14T19:40:20.734Z,,,,1,1.0005520482328611,1.0694936015783003,,true,ll,4782.524000000005,response,-1.13791006772072,0.9499999999999997,-0.9499999999999997,-0.8618956235878876,0.9499999999999997,-0.9499999999999997,low,low,,ISIC_0059891.JPG,,ISIC_6635699.JPG,142,true,ll,keypress(f),0,false,263519.7000000011,263519.5,258720.322,258728.90000000037,258736.976,263553.771,1,20,13,
sequence,flow.Sequence,6_12,2023-11-14T19:40:20.734Z,,,,,,,,,,4782.524000000005,completion,,,,,,,low,low,,,,,,true,,,,false,263519.80000000075,263519.5,258720.322,258728.90000000037,258736.976,263553.771,1,20,,
trial,html.Screen,6_13_0,2023-11-14T19:40:24.046Z,,,,1,0.7646541361813586,0.7897684269039633,,true,ll,3277.6290000003646,response,-0.924867075003666,0.9499999999999997,-0.9499999999999997,-0.9114881908569834,0.9499999999999997,-0.9499999999999997,low,low,,ISIC_0057978.JPG,,ISIC_7499769.JPG,142,true,ll,keypress(f),0,false,266831.4000000004,266831.4000000004,263537.382,263519.9000000004,263553.771,266837.071,1,20,14,
sequence,flow.Sequence,6_13,2023-11-14T19:40:24.046Z,,,,,,,,,,3277.6290000003646,completion,,,,,,,low,low,,,,,,true,,,,false,266831.5999999996,266831.4000000004,263537.382,263519.9000000004,263553.771,266837.071,1,20,,
trial,html.Screen,6_14_0,2023-11-14T19:40:28.230Z,,,,1,0.7833710010171356,-0.9315588090336896,,true,lh,4178.429000000004,response,-0.9579209317488,0.9499999999999997,-0.9499999999999997,1.0147487101263497,0.9499999999999997,-0.9499999999999997,low,high,,ISIC_3826102.JPG,,ISIC_8124482.JPG,28,true,lh,keypress(e),0,false,271015.5999999996,271015.5,266820.256,266831.7000000011,266837.071,271020.34,1,20,15,
sequence,flow.Sequence,6_14,2023-11-14T19:40:28.230Z,,,,,,,,,,4178.429000000004,completion,,,,,,,low,high,,,,,,true,,,,false,271015.80000000075,271015.5,266820.256,266831.7000000011,266837.071,271020.34,1,20,,
trial,html.Screen,6_15_0,2023-11-14T19:40:30.614Z,,,,1,-0.9579209317488,1.0147487101263497,,true,hl,2378.860000001092,response,0.887838744955182,0.9499999999999997,-0.9499999999999997,-0.7545096650863988,0.9499999999999997,-0.9499999999999997,high,low,,ISIC_8124482.JPG,,ISIC_1488727.JPG,26,true,hl,keypress(j),0,false,273399.4000000004,273399.2000000011,271003.634,271015.80000000075,271020.34,273403.651,1,20,16,
sequence,flow.Sequence,6_15,2023-11-14T19:40:30.614Z,,,,,,,,,,2378.860000001092,completion,,,,,,,high,low,,,,,,true,,,,false,273399.5999999996,273399.2000000011,271003.634,271015.80000000075,271020.34,273403.651,1,20,,
trial,html.Screen,6_16_0,2023-11-14T19:40:32.679Z,,,,1,-1.0751036484083878,1.143906455483852,,true,hl,2060.549000001105,response,0.9873794329144926,0.9499999999999997,-0.9499999999999997,-0.7991077882008257,0.9499999999999997,-0.9499999999999997,high,low,,ISIC_0064406.JPG,,ISIC_0013498.JPG,26,true,hl,keypress(j),0,false,275464.5,275464.2000000011,273386.997,273399.5999999996,273403.651,275470.322,1,20,17,
sequence,flow.Sequence,6_16,2023-11-14T19:40:32.679Z,,,,,,,,,,2060.549000001105,completion,,,,,,,high,low,,,,,,true,,,,false,275464.80000000075,275464.2000000011,273386.997,273399.5999999996,273403.651,275470.322,1,20,,
trial,html.Screen,6_17_0,2023-11-14T19:40:34.678Z,,,,1,-0.9029354290897352,-1.1346860677105404,,true,hh,1992.777999999642,response,1.1135119625680223,0.9499999999999997,-0.9499999999999997,0.8824045702297937,0.9499999999999997,-0.9499999999999997,high,high,,ISIC_4153687.JPG,,ISIC_6899527.JPG,167,true,hh,keypress(i),0,false,277463.2000000011,277463.0999999996,275453.619,275464.9000000004,275470.322,277470.361,1,20,18,
sequence,flow.Sequence,6_17,2023-11-14T19:40:34.678Z,,,,,,,,,,1992.777999999642,completion,,,,,,,high,high,,,,,,true,,,,false,277463.4000000004,277463.0999999996,275453.619,275464.9000000004,275470.322,277470.361,1,20,,
trial,html.Screen,6_18_0,2023-11-14T19:40:38.118Z,,,,1,0.8909652099281345,0.7550834643357679,,true,ll,3432.738999999652,response,-1.13791006772072,0.9499999999999997,-0.9499999999999997,-0.8618956235878876,0.9499999999999997,-0.9499999999999997,low,low,,ISIC_7501061.JPG,,ISIC_6635699.JPG,142,true,ll,keypress(f),0,false,280903.30000000075,280903.0999999996,277453.648,277463.5,277470.361,280920.38,1,20,19,
sequence,flow.Sequence,6_18,2023-11-14T19:40:38.118Z,,,,,,,,,,3432.738999999652,completion,,,,,,,low,low,,,,,,true,,,,false,280903.4000000004,280903.0999999996,277453.648,277463.5,277470.361,280920.38,1,20,,
trial,html.Screen,6_19_0,2023-11-14T19:40:40.246Z,,,,1,-0.8689515664606163,-1.0538817435713148,,true,hh,2111.219999999623,response,0.7667223565323059,0.9499999999999997,-0.9499999999999997,0.7525280650246937,0.9499999999999997,-0.9499999999999997,high,high,,ISIC_7333928.JPG,,ISIC_0031397.JPG,167,true,hh,keypress(i),0,false,283031.80000000075,283031.5999999996,280903.623,280903.4000000004,280920.38,283037.012,1,20,20,
sequence,flow.Sequence,6_19,2023-11-14T19:40:40.246Z,,,,,,,,,,2111.219999999623,completion,,,,,,,high,high,,,,,,true,,,,false,283032,283031.5999999996,280903.623,280903.4000000004,280920.38,283037.012,1,20,,
practice_loop,flow.Loop,6,2023-11-14T19:40:40.246Z,,,,,,,,,,69978.01799999963,completion,,,,,,,,,,,,,,true,,,,false,283032.0999999996,283031.5999999996,213037.058,213046.40000000037,213053.582,283037.012,1,20,,
stair_instructions,html.Screen,7,2023-11-14T19:40:44.494Z,,,,,,,,,,4241.888000000385,response,,,,,,,,,,,,,,,continue,click button,,,287279.4000000004,287278.9000000004,283020.384,283032.30000000075,283037.012,287287.037,,,,
trial,html.Screen,8_0_0,2023-11-14T19:40:55.492Z,,,,2,-0.0735635316240061,0.0537805418091709,,,,11016.652999999991,timeout,-0.9449111496440944,0.9499999999999997,-0.9499999999999997,-1.0105459531634893,0.9499999999999997,-0.9499999999999997,low,low,,ISIC_1761799.JPG,,ISIC_0679494.JPG,142,false,,,0,true,298277.80000000075,298277.5999999996,287270.361,287279.5999999996,287287.037,298303.69,1,40,1,
sequence,flow.Sequence,8_0,2023-11-14T19:40:55.492Z,,,,,,,,,,10990.562999999616,completion,,,,,,,low,low,,,,,,false,,,,true,298278.0999999996,298277.5999999996,287270.361,287279.5999999996,287287.037,298303.69,1,40,,
trial,html.Screen,8_1_0,2023-11-14T19:40:59.118Z,,,,2,0.0450282431170921,,,false,hh,3599.909999999625,response,0.7846840640804751,0.9499999999999997,-0.9499999999999997,1.0912590313299513,0.9499999999999997,-0.9499999999999997,high,high,,ISIC_1805163.JPG,,ISIC_0026352.JPG,167,false,hl,keypress(j),0,true,301903.7000000011,301903.5999999996,298287.056,298278.30000000075,298303.69,301937.184,1,40,2,
sequence,flow.Sequence,8_1,2023-11-14T19:40:59.118Z,,,,,,,,,,3599.909999999625,completion,,,,,,,high,high,,,,,,false,,,,true,301903.80000000075,301903.5999999996,298287.056,298278.2000000011,298303.69,301937.184,1,40,,
trial,html.Screen,8_2_0,2023-11-14T19:41:04.806Z,,,,2,0.0415913596725838,-0.0543422987007948,,false,lh,5654.415999999619,response,-1.0656673213158945,0.9499999999999997,-0.8999999999999997,0.8082541692781954,0.9499999999999997,-0.8999999999999997,low,high,,ISIC_0027956.JPG,,ISIC_0033985.JPG,34,false,hl,keypress(j),0,true,307591.80000000075,307591.5999999996,301920.907,301903.9000000004,301937.184,307603.842,1,40,3,
sequence,flow.Sequence,8_2,2023-11-14T19:41:04.806Z,,,,,,,,,,5654.415999999619,completion,,,,,,,low,high,,,,,,false,,,,true,307591.9000000004,307591.5999999996,301920.907,301903.80000000075,301937.184,307603.842,1,40,,
trial,html.Screen,8_3_0,2023-11-14T19:41:09.086Z,,,,2,-0.0735635316240061,0.0537805418091709,,false,ll,4267.757999999623,response,-0.8357863649703072,0.8999999999999997,-0.8999999999999997,-0.7360109695211967,0.9499999999999997,-0.8499999999999996,low,low,,ISIC_1761799.JPG,,ISIC_8357415.JPG,193,false,hh,keypress(i),0,true,311871.80000000075,311871.5999999996,307587.073,307592,307603.842,311887.25,1,40,4,
sequence,flow.Sequence,8_3,2023-11-14T19:41:09.086Z,,,,,,,,,,4267.757999999623,completion,,,,,,,low,low,,,,,,false,,,,true,311872,311871.5999999996,307587.073,307592,307603.842,311887.25,1,40,,
trial,html.Screen,8_4_0,2023-11-14T19:41:15.559Z,,,,2,-0.0531672914703651,0.0074883925434357,,false,hh,6457.25,response,1.00170887975541,0.8499999999999996,-0.8999999999999997,0.8949188450526304,0.8999999999999997,-0.8499999999999996,high,high,,ISIC_4177043.JPG,,ISIC_0057067.JPG,207,false,hl,keypress(j),0,true,318344.80000000075,318344.5,311870.383,311872.0999999996,311887.25,318353.774,1,40,5,
sequence,flow.Sequence,8_4,2023-11-14T19:41:15.559Z,,,,,,,,,,6457.25,completion,,,,,,,high,high,,,,,,false,,,,true,318345.2000000011,318344.5,311870.383,311872.0999999996,311887.25,318353.774,1,40,,
trial,html.Screen,8_5_0,2023-11-14T19:41:18.025Z,,,,2,0.0116094682222121,-0.0258434522530318,,true,hh,2457.1260000003967,response,0.832159339500865,0.8499999999999996,-0.8499999999999996,1.0220452236621858,0.8999999999999997,-0.7999999999999996,high,high,,ISIC_9239632.JPG,,ISIC_0011848.JPG,207,false,hh,keypress(i),0,true,320810.9000000004,320810.9000000004,318336.802,318345.30000000075,318353.774,320820.558,1,40,6,
sequence,flow.Sequence,8_5,2023-11-14T19:41:18.026Z,,,,,,,,,,2457.1260000003967,completion,,,,,,,high,high,,,,,,false,,,,true,320811.0999999996,320810.9000000004,318336.802,318345.30000000075,318353.774,320820.558,1,40,,
trial,html.Screen,8_6_0,2023-11-14T19:41:19.847Z,,,,2,0.0336891949856763,0.060314732178219,,true,hh,1811.5419999996084,response,0.964474443901612,0.8169341096281373,-0.7999999999999996,0.7951271207785265,0.8499999999999996,-0.7499999999999996,high,high,,ISIC_6192289.JPG,,ISIC_8325260.JPG,227,false,hh,keypress(i),0,true,322632.30000000075,322632.0999999996,320803.697,320811.2000000011,320820.558,322637.05,1,40,7,
sequence,flow.Sequence,8_6,2023-11-14T19:41:19.847Z,,,,,,,,,,1811.5419999996084,completion,,,,,,,high,high,,,,,,false,,,,true,322632.7000000011,322632.0999999996,320803.697,320811.2000000011,320820.558,322637.05,1,40,,
trial,html.Screen,8_7_0,2023-11-14T19:41:23.926Z,,,,2,0.0111354529246037,-0.0585810480909377,,true,ll,4074.350000000384,response,-0.931876071706936,0.7669341096281372,-0.7499999999999996,-0.6641506985901614,0.808586172220356,-0.6999999999999995,low,low,,ISIC_7858034.JPG,,ISIC_0032426.JPG,314,false,ll,keypress(f),0,true,326711.5,326711.4000000004,322620.521,322632.9000000004,322637.05,326720.479,1,40,8,
sequence,flow.Sequence,8_7,2023-11-14T19:41:23.926Z,,,,,,,,,,4074.350000000384,completion,,,,,,,low,low,,,,,,false,,,,true,326711.7000000011,326711.4000000004,322620.521,322632.9000000004,322637.05,326720.479,1,40,,
trial,html.Screen,8_8_0,2023-11-14T19:41:26.214Z,,,,2,-0.0552031398781121,-0.0652612426529481,,true,hh,2278.9210000003804,response,0.6937690206286673,0.7169341096281372,-0.6999999999999995,0.8954798455174807,0.758586172220356,-0.6499999999999995,high,high,,ISIC_0024226.JPG,,ISIC_0033024.JPG,264,false,hh,keypress(i),0,true,328999.5,328999.4000000004,326703.725,326711.80000000075,326720.479,329003.749,1,40,9,
sequence,flow.Sequence,8_8,2023-11-14T19:41:26.214Z,,,,,,,,,,2278.9210000003804,completion,,,,,,,high,high,,,,,,false,,,,true,328999.7000000011,328999.4000000004,326703.725,326711.80000000075,326720.479,329003.749,1,40,,
trial,html.Screen,8_9_0,2023-11-14T19:41:28.079Z,,,,2,0.0085520978188085,-0.0464691161264081,,false,ll,1860.4510000011069,response,-0.4866857255913764,0.7291217322651395,-0.6499999999999995,-0.498109375296929,0.7085861722203559,-0.5999999999999994,low,low,,ISIC_0758797.JPG,,ISIC_0055013.JPG,393,false,hh,keypress(i),0,true,330864.5,330864.2000000011,328987.189,328999.80000000075,329003.749,330870.427,1,40,10,
sequence,flow.Sequence,8_9,2023-11-14T19:41:28.079Z,,,,,,,,,,1860.4510000011069,completion,,,,,,,low,low,,,,,,false,,,,true,330864.9000000004,330864.2000000011,328987.189,328999.80000000075,329003.749,330870.427,1,40,,
trial,html.Screen,8_10_0,2023-11-14T19:41:34.118Z,,,,2,-0.0565575423757561,-0.0394300226801425,,false,ll,6033.072999999975,response,-0.5421465231726751,0.6791217322651395,-0.6499999999999995,-0.782454251254058,0.6585861722203559,-0.5999999999999994,low,low,,ISIC_0046983.JPG,,ISIC_5852396.JPG,393,false,lh,keypress(e),0,true,336903.5999999996,336903.5,330853.821,330865,330870.427,336920.482,1,40,11,
sequence,flow.Sequence,8_10,2023-11-14T19:41:34.118Z,,,,,,,,,,6033.072999999975,completion,,,,,,,low,low,,,,,,false,,,,true,336903.9000000004,336903.5,330853.821,330865,330870.427,336920.482,1,40,,
trial,html.Screen,8_11_0,2023-11-14T19:41:38.558Z,,,,2,-0.009234249673026,-0.0627190878028592,,true,ll,4423.117999999609,response,-0.8366685137064496,0.6291217322651395,-0.6499999999999995,-0.598782657709637,0.6085861722203558,-0.5999999999999994,low,low,,ISIC_0053760.JPG,,ISIC_2056104.JPG,393,false,ll,keypress(f),0,true,341343.7000000011,341343.5999999996,336903.606,336903.9000000004,336920.482,341353.799,1,40,12,
sequence,flow.Sequence,8_11,2023-11-14T19:41:38.558Z,,,,,,,,,,4423.117999999609,completion,,,,,,,low,low,,,,,,false,,,,true,341343.80000000075,341343.5999999996,336903.606,336903.9000000004,336920.482,341353.799,1,40,,
trial,html.Screen,8_12_0,2023-11-14T19:41:40.759Z,,,,2,-0.0188047466661863,0.0288346930436979,,false,lh,2190.201000000001,response,-0.4407523365364463,0.5791217322651394,-0.5894075184395622,0.4041950533031531,0.5585861722203558,-0.5499999999999994,low,high,,ISIC_0014157.JPG,,ISIC_0029550.JPG,176,false,hl,keypress(j),0,true,343544.2000000011,343544,341337.098,341343.9000000004,341353.799,343553.851,1,40,13,
sequence,flow.Sequence,8_12,2023-11-14T19:41:40.759Z,,,,,,,,,,2190.201000000001,completion,,,,,,,low,high,,,,,,false,,,,true,343544.5999999996,343544,341337.098,341343.9000000004,341353.799,343553.851,1,40,,
trial,html.Screen,8_13_0,2023-11-14T19:41:43.886Z,,,,2,-0.0409338693593207,0.0072462710499874,,false,hl,3117.449000000721,response,0.401120606473682,0.5291217322651394,-0.5894075184395622,-0.3705569995898494,0.5585861722203558,-0.4999999999999994,high,low,,ISIC_3608788.JPG,,ISIC_9630931.JPG,254,false,hh,keypress(i),0,true,346671.4000000004,346671.30000000075,343537.18,343544.5999999996,343553.851,346687.215,1,40,14,
sequence,flow.Sequence,8_13,2023-11-14T19:41:43.886Z,,,,,,,,,,3117.449000000721,completion,,,,,,,high,low,,,,,,false,,,,true,346671.5999999996,346671.30000000075,343537.18,343544.5999999996,343553.851,346687.215,1,40,,
trial,html.Screen,8_14_0,2023-11-14T19:41:49.190Z,,,,2,-0.013431314305098,0.0140597582944232,,false,hl,5288.284999999974,response,0.469115446240594,0.5291217322651394,-0.5394075184395621,-0.3243837926084816,0.5085861722203557,-0.4999999999999994,high,low,,ISIC_0069617.JPG,,ISIC_9906378.JPG,254,false,hh,keypress(i),0,true,351975.5,351975.5,346670.589,346671.5999999996,346687.215,351987.142,1,40,15,
sequence,flow.Sequence,8_14,2023-11-14T19:41:49.190Z,,,,,,,,,,5288.284999999974,completion,,,,,,,high,low,,,,,,false,,,,true,351975.7000000011,351975.5,346670.589,346671.5999999996,346687.215,351987.142,1,40,,
trial,html.Screen,8_15_0,2023-11-14T19:41:51.654Z,,,,2,-0.000047919190197942736,-0.0462652940855003,,true,hh,2452.457999999635,response,0.475529054131071,0.5291217322651394,-0.48940751843956215,0.3677874493415189,0.45858617222035575,-0.4999999999999994,high,high,,ISIC_0011507.JPG,,ISIC_0028755.JPG,420,false,hh,keypress(i),0,true,354439.7000000011,354439.5999999996,351970.285,351975.80000000075,351987.142,354453.755,1,40,16,
sequence,flow.Sequence,8_15,2023-11-14T19:41:51.654Z,,,,,,,,,,2452.457999999635,completion,,,,,,,high,high,,,,,,false,,,,true,354439.9000000004,354439.5999999996,351970.285,351975.7000000011,351987.142,354453.755,1,40,,
trial,html.Screen,8_16_0,2023-11-14T19:41:55.806Z,,,,2,0.0544808612748248,-0.0240487075377862,,false,ll,4137.945000001113,response,-0.4875928598877057,0.4791217322651394,-0.48940751843956215,-0.4093534243149874,0.45858617222035575,-0.4999999999999994,low,low,,ISIC_4606646.JPG,,ISIC_7581199.JPG,483,false,hl,keypress(j),0,true,358591.80000000075,358591.7000000011,354437.082,354440,354453.755,358603.849,1,40,17,
sequence,flow.Sequence,8_16,2023-11-14T19:41:55.807Z,,,,,,,,,,4137.945000001113,completion,,,,,,,low,low,,,,,,false,,,,true,358592.0999999996,358591.7000000011,354437.082,354439.9000000004,354453.755,358603.849,1,40,,
trial,html.Screen,8_17_0,2023-11-14T19:41:58.439Z,,,,2,0.0651705891246238,-0.0394586219902573,,true,hh,2620.1510000000126,response,0.4682749518478651,0.4791217322651394,-0.48940751843956215,0.3816614564639412,0.45858617222035575,-0.4999999999999994,high,high,,ISIC_0013491.JPG,,ISIC_0010784.JPG,411,false,hh,keypress(i),0,true,361224.30000000075,361224,358587.004,358592.2000000011,358603.849,361237.289,1,40,18,
sequence,flow.Sequence,8_17,2023-11-14T19:41:58.439Z,,,,,,,,,,2620.1510000000126,completion,,,,,,,high,high,,,,,,false,,,,true,361224.5,361224,358587.004,358592.2000000011,358603.849,361237.289,1,40,,
trial,html.Screen,8_18_0,2023-11-14T19:42:01.190Z,,,,2,-0.0552031398781121,-0.0652612426529481,,false,hl,2737.911000001128,response,0.6380648251387023,0.4791217322651394,-0.48940751843956215,-0.4482806663722404,0.40858617222035576,-0.4999999999999994,high,low,,ISIC_0024226.JPG,,ISIC_8463871.JPG,275,false,ll,keypress(f),0,true,363975.30000000075,363975.2000000011,361220.47,361224.7000000011,361237.289,363987.247,1,40,19,
sequence,flow.Sequence,8_18,2023-11-14T19:42:01.190Z,,,,,,,,,,2737.911000001128,completion,,,,,,,high,low,,,,,,false,,,,true,363975.5,363975.2000000011,361220.47,361224.7000000011,361237.289,363987.247,1,40,,
trial,html.Screen,8_19_0,2023-11-14T19:42:06.807Z,,,,2,0.039728379742806,-0.0228701131373768,,true,ll,5605.453000001144,response,-0.438965184635081,0.4791217322651394,-0.48940751843956215,-0.4112621992652138,0.40858617222035576,-0.4999999999999994,low,low,,ISIC_0054073.JPG,,ISIC_0007760.JPG,483,false,ll,keypress(f),0,true,369593,369592.7000000011,363970.627,363975.5,363987.247,369603.972,1,40,20,
sequence,flow.Sequence,8_19,2023-11-14T19:42:06.808Z,,,,,,,,,,5605.453000001144,completion,,,,,,,low,low,,,,,,false,,,,true,369593.30000000075,369592.7000000011,363970.627,363975.5,363987.247,369603.972,1,40,,
trial,html.Screen,8_20_0,2023-11-14T19:42:09.959Z,,,,2,0.0538169356437535,-0.0113486191005169,,false,hl,3139.828000000736,response,0.5696108638427752,0.4791217322651394,-0.48940751843956215,-0.4755504912882455,0.40858617222035576,-0.4499999999999994,high,low,,ISIC_0009939.JPG,,ISIC_0653633.JPG,298,false,lh,keypress(e),0,true,372744,372743.80000000075,369587.068,369593.4000000004,369603.972,372753.849,1,40,21,
sequence,flow.Sequence,8_20,2023-11-14T19:42:09.959Z,,,,,,,,,,3139.828000000736,completion,,,,,,,high,low,,,,,,false,,,,true,372744.30000000075,372743.80000000075,369587.068,369593.30000000075,369603.972,372753.849,1,40,,
trial,html.Screen,8_21_0,2023-11-14T19:42:13.686Z,,,,2,-0.0149482827359613,0.0661630859332833,,false,lh,3717.6510000000126,response,-0.6861622325603302,0.4791217322651394,-0.48940751843956215,0.3514440089680511,0.40858617222035576,-0.4999999999999994,low,high,,ISIC_6815524.JPG,,ISIC_0259179.JPG,266,false,ll,keypress(f),0,true,376471.5999999996,376471.5,372737.055,372744.5,372753.849,376487.395,1,40,22,
sequence,flow.Sequence,8_21,2023-11-14T19:42:13.686Z,,,,,,,,,,3717.6510000000126,completion,,,,,,,low,high,,,,,,false,,,,true,376471.7000000011,376471.5,372737.055,372744.4000000004,372753.849,376487.395,1,40,,
trial,html.Screen,8_22_0,2023-11-14T19:42:17.510Z,,,,2,-0.0292059717970335,-0.0718256867525069,,false,hl,3808.1049999999814,response,0.6608001776235638,0.4791217322651394,-0.48940751843956215,-0.3313884773098788,0.45858617222035575,-0.4999999999999994,high,low,,ISIC_1114966.JPG,,ISIC_0000291.JPG,275,false,hh,keypress(i),0,true,380295.5999999996,380295.5,376470.587,376471.9000000004,376487.395,380303.892,1,40,23,
sequence,flow.Sequence,8_22,2023-11-14T19:42:17.510Z,,,,,,,,,,3808.1049999999814,completion,,,,,,,high,low,,,,,,false,,,,true,380295.7000000011,380295.5,376470.587,376471.9000000004,376487.395,380303.892,1,40,,
trial,html.Screen,8_23_0,2023-11-14T19:42:21.942Z,,,,2,0.0389988030702649,0.0143212271490256,,true,hl,4423.9080000007525,response,0.3719565130878325,0.4791217322651394,-0.48940751843956215,-0.3383643859083203,0.45858617222035575,-0.4999999999999994,high,low,,ISIC_0064669.JPG,,ISIC_2241755.JPG,275,false,hl,keypress(j),0,true,384727.9000000004,384727.80000000075,380287.263,380295.9000000004,380303.892,384737.169,1,40,24,
sequence,flow.Sequence,8_23,2023-11-14T19:42:21.943Z,,,,,,,,,,4423.9080000007525,completion,,,,,,,high,low,,,,,,false,,,,true,384728.0999999996,384727.80000000075,380287.263,380295.9000000004,380303.892,384737.169,1,40,,
trial,html.Screen,8_24_0,2023-11-14T19:42:28.086Z,,,,2,-0.0693466529227737,-0.044703434393184,,false,hh,6134.531000001123,response,0.4319630061490295,0.46637834535569817,-0.48940751843956215,0.5102888118331591,0.45858617222035575,-0.4999999999999994,high,high,,ISIC_0004217.JPG,,ISIC_6694724.JPG,416,false,ll,keypress(f),0,true,390871.7000000011,390871.7000000011,384720.364,384728.2000000011,384737.169,390887.238,1,40,25,
sequence,flow.Sequence,8_24,2023-11-14T19:42:28.086Z,,,,,,,,,,6134.531000001123,completion,,,,,,,high,high,,,,,,false,,,,true,390871.9000000004,390871.7000000011,384720.364,384728.2000000011,384737.169,390887.238,1,40,,
trial,html.Screen,8_25_0,2023-11-14T19:42:32.582Z,,,,2,0.0415913596725838,-0.0543422987007948,,false,lh,4479.861999999615,response,-0.5613356546228796,0.46637834535569817,-0.48940751843956215,0.4445774666175496,0.45858617222035575,-0.4999999999999994,low,high,,ISIC_0027956.JPG,,ISIC_4969996.JPG,253,false,hh,keypress(i),0,true,395367.0999999996,395367.0999999996,390870.408,390871.9000000004,390887.238,395370.519,1,40,26,
sequence,flow.Sequence,8_25,2023-11-14T19:42:32.582Z,,,,,,,,,,4479.861999999615,completion,,,,,,,low,high,,,,,,false,,,,true,395367.30000000075,395367.0999999996,390870.408,390871.9000000004,390887.238,395370.519,1,40,,
trial,html.Screen,8_26_0,2023-11-14T19:42:34.527Z,,,,2,0.0544808612748248,-0.0240487075377862,,true,hh,1941.3810000004014,response,0.5727269620558624,0.46637834535569817,-0.48940751843956215,0.5721024689832612,0.45858617222035575,-0.4999999999999994,high,high,,ISIC_4606646.JPG,,ISIC_0010797.JPG,416,false,hh,keypress(i),0,true,397312.0999999996,397311.9000000004,395353.89,395367.30000000075,395370.519,397320.508,1,40,27,
sequence,flow.Sequence,8_26,2023-11-14T19:42:34.527Z,,,,,,,,,,1941.3810000004014,completion,,,,,,,high,high,,,,,,false,,,,true,397312.2000000011,397311.9000000004,395353.89,395367.30000000075,395370.519,397320.508,1,40,,
trial,html.Screen,8_27_0,2023-11-14T19:42:36.470Z,,,,2,0.0538169356437535,-0.0113486191005169,,false,hl,1934.7920000007725,response,0.5346840559717632,0.46637834535569817,-0.48940751843956215,-0.4935823459098433,0.4583399678004055,-0.4999999999999994,high,low,,ISIC_0009939.JPG,,ISIC_6754835.JPG,284,false,hh,keypress(i),0,true,399255.4000000004,399255.30000000075,397303.941,397312.30000000075,397320.508,399270.647,1,40,28,
sequence,flow.Sequence,8_27,2023-11-14T19:42:36.470Z,,,,,,,,,,1934.7920000007725,completion,,,,,,,high,low,,,,,,false,,,,true,399255.5,399255.30000000075,397303.941,397312.30000000075,397320.508,399270.647,1,40,,
trial,html.Screen,8_28_0,2023-11-14T19:42:40.679Z,,,,2,0.0107854985447517,0.0478010417136109,,true,lh,4193.753000000375,response,-0.3666493834544435,0.46637834535569817,-0.48940751843956215,0.417550755057085,0.4583399678004055,-0.4999999999999994,low,high,,ISIC_0010500.JPG,,ISIC_3105136.JPG,253,false,lh,keypress(e),0,true,403464.7000000011,403464.4000000004,399253.938,399255.7000000011,399270.647,403470.516,1,40,29,
sequence,flow.Sequence,8_28,2023-11-14T19:42:40.680Z,,,,,,,,,,4193.753000000375,completion,,,,,,,low,high,,,,,,false,,,,true,403465,403464.4000000004,399253.938,399255.7000000011,399270.647,403470.516,1,40,,
trial,html.Screen,8_29_0,2023-11-14T19:42:45.959Z,,,,2,-0.0737104822171846,0.0725320314728604,,false,ll,5273.284000000742,response,-0.3957180132339982,0.46637834535569817,-0.48940751843956215,-0.3236266048389242,0.4583399678004055,-0.4999999999999994,low,low,,ISIC_0002862.JPG,,ISIC_7797853.JPG,483,false,hl,keypress(j),0,true,408743.9000000004,408743.80000000075,403453.84,403465.2000000011,403470.516,408753.927,1,40,30,
sequence,flow.Sequence,8_29,2023-11-14T19:42:45.959Z,,,,,,,,,,5273.284000000742,completion,,,,,,,low,low,,,,,,false,,,,true,408744,408743.80000000075,403453.84,403465.2000000011,403470.516,408753.927,1,40,,
trial,html.Screen,8_30_0,2023-11-14T19:42:48.343Z,,,,2,-0.0516762988734011,0.0130195499281172,,false,lh,2374.072999999975,response,-0.6435522997599046,0.46637834535569817,-0.48940751843956215,0.3454514630605319,0.4583399678004055,-0.4999999999999994,low,high,,ISIC_9978498.JPG,,ISIC_0054874.JPG,253,false,hh,keypress(i),0,true,411128.30000000075,411128,408737.05,408744.2000000011,408753.927,411137.182,1,40,31,
sequence,flow.Sequence,8_30,2023-11-14T19:42:48.343Z,,,,,,,,,,2374.072999999975,completion,,,,,,,low,high,,,,,,false,,,,true,411128.5999999996,411128,408737.05,408744.0999999996,408753.927,411137.182,1,40,,
trial,html.Screen,8_31_0,2023-11-14T19:42:52.391Z,,,,2,-0.0367218428225813,-0.0700576547090477,,false,hl,4039.218000000401,response,0.3283713070154033,0.46637834535569817,-0.48940751843956215,-0.3590438481765787,0.4583399678004055,-0.4999999999999994,high,low,,ISIC_7212271.JPG,,ISIC_1089617.JPG,284,false,hh,keypress(i),0,true,415176.7000000011,415176.4000000004,411120.691,411128.7000000011,411137.182,415187.184,1,40,32,
sequence,flow.Sequence,8_31,2023-11-14T19:42:52.392Z,,,,,,,,,,4039.218000000401,completion,,,,,,,high,low,,,,,,false,,,,true,415177,415176.4000000004,411120.691,411128.7000000011,411137.182,415187.184,1,40,,
trial,html.Screen,8_32_0,2023-11-14T19:42:55.191Z,,,,2,0.0194167651857046,0.0726253809408601,,false,ll,2788.6160000007367,response,-0.3066800614467266,0.46637834535569817,-0.48940751843956215,-0.6956948838405177,0.4583399678004055,-0.4999999999999994,low,low,,ISIC_0056692.JPG,,ISIC_4644299.JPG,483,false,hh,keypress(i),0,true,417976,417975.80000000075,415170.448,415177.2000000011,415187.184,417987.205,1,40,33,
sequence,flow.Sequence,8_32,2023-11-14T19:42:55.191Z,,,,,,,,,,2788.6160000007367,completion,,,,,,,low,low,,,,,,false,,,,true,417976.30000000075,417975.80000000075,415170.448,415177.2000000011,415187.184,417987.205,1,40,,
trial,html.Screen,8_33_0,2023-11-14T19:42:59.279Z,,,,2,-0.013431314305098,0.0140597582944232,,true,lh,4076.4950000011013,response,-0.3387892578897794,0.46637834535569817,-0.48940751843956215,0.5499289654780111,0.4583399678004055,-0.4999999999999994,low,high,,ISIC_0069617.JPG,,ISIC_1026382.JPG,253,false,lh,keypress(e),0,true,422063.9000000004,422063.7000000011,417970.476,417976.4000000004,417987.205,422070.523,1,40,34,
sequence,flow.Sequence,8_33,2023-11-14T19:42:59.279Z,,,,,,,,,,4076.4950000011013,completion,,,,,,,low,high,,,,,,false,,,,true,422064.2000000011,422063.7000000011,417970.476,417976.30000000075,417987.205,422070.523,1,40,,
trial,html.Screen,8_34_0,2023-11-14T19:43:02.927Z,,,,2,-0.0552031398781121,-0.0652612426529481,,false,hh,3641.677000001131,response,0.3493538992474897,0.46637834535569817,-0.48940751843956215,0.5284951492886306,0.4083399678004055,-0.4999999999999994,high,high,,ISIC_0024226.JPG,,ISIC_0057531.JPG,416,false,hl,keypress(j),0,true,425712.4000000004,425712.2000000011,422053.775,422064.30000000075,422070.523,425720.589,1,40,35,
sequence,flow.Sequence,8_34,2023-11-14T19:43:02.927Z,,,,,,,,,,3641.677000001131,completion,,,,,,,high,high,,,,,,false,,,,true,425712.5999999996,425712.2000000011,422053.775,422064.2000000011,422070.523,425720.589,1,40,,
trial,html.Screen,8_35_0,2023-11-14T19:43:06.079Z,,,,2,0.0651705891246238,-0.0394586219902573,,true,lh,3143.5109999996494,response,-0.5843143744679815,0.46637834535569817,-0.48940751843956215,0.3217189044130589,0.4583399678004055,-0.4999999999999994,low,high,,ISIC_0013491.JPG,,ISIC_3760796.JPG,253,false,lh,keypress(e),0,true,428864.30000000075,428864.0999999996,425703.921,425712.7000000011,425720.589,428870.575,1,40,36,
sequence,flow.Sequence,8_35,2023-11-14T19:43:06.079Z,,,,,,,,,,3143.5109999996494,completion,,,,,,,low,high,,,,,,false,,,,true,428864.5999999996,428864.0999999996,425703.921,425712.7000000011,425720.589,428870.575,1,40,,
trial,html.Screen,8_36_0,2023-11-14T19:43:08.822Z,,,,2,-0.0531672914703651,0.0074883925434357,,false,lh,2736.9249999999884,response,-0.3214501354169133,0.46637834535569817,-0.43940751843956216,0.3169347691821055,0.4583399678004055,-0.4999999999999994,low,high,,ISIC_4177043.JPG,,ISIC_0031553.JPG,274,false,ll,keypress(f),0,true,431607.5999999996,431607.5,428853.99,428864.7000000011,428870.575,431620.7,1,40,37,
sequence,flow.Sequence,8_36,2023-11-14T19:43:08.822Z,,,,,,,,,,2736.9249999999884,completion,,,,,,,low,high,,,,,,false,,,,true,431607.7000000011,431607.5,428853.99,428864.7000000011,428870.575,431620.7,1,40,,
trial,html.Screen,8_37_0,2023-11-14T19:43:10.942Z,,,,2,-0.000047919190197942736,-0.0462652940855003,,false,hl,2106.500000001106,response,0.3420215377420402,0.46637834535569817,-0.48940751843956215,-0.5477359592060433,0.4583399678004055,-0.4999999999999994,high,low,,ISIC_0011507.JPG,,ISIC_2177748.JPG,284,false,hh,keypress(i),0,true,433727.30000000075,433727.2000000011,431603.808,431607.9000000004,431620.7,433737.262,1,40,38,
sequence,flow.Sequence,8_37,2023-11-14T19:43:10.942Z,,,,,,,,,,2106.500000001106,completion,,,,,,,high,low,,,,,,false,,,,true,433727.5,433727.2000000011,431603.808,431607.9000000004,431620.7,433737.262,1,40,,
trial,html.Screen,8_38_0,2023-11-14T19:43:14.047Z,,,,2,0.0538169356437535,-0.0113486191005169,,false,lh,3094.6380000003846,response,-0.6447697707496328,0.46637834535569817,-0.48940751843956215,0.3432992822003991,0.4583399678004055,-0.4999999999999994,low,high,,ISIC_0009939.JPG,,ISIC_0056900.JPG,253,false,hh,keypress(i),0,true,436832.0999999996,436831.9000000004,433720.65,433727.5999999996,433737.262,436837.225,1,40,39,
sequence,flow.Sequence,8_38,2023-11-14T19:43:14.047Z,,,,,,,,,,3094.6380000003846,completion,,,,,,,low,high,,,,,,false,,,,true,436832.4000000004,436831.9000000004,433720.65,433727.5,433737.262,436837.225,1,40,,
trial,html.Screen,8_39_0,2023-11-14T19:43:18.790Z,,,,2,-0.0409338693593207,0.0072462710499874,,false,hl,4738.175000000396,response,0.3550744334004575,0.46637834535569817,-0.48940751843956215,-0.4410396946000404,0.4583399678004055,-0.4999999999999994,high,low,,ISIC_3608788.JPG,,ISIC_1501483.JPG,284,false,lh,keypress(e),0,true,441575.5999999996,441575.4000000004,436820.553,436832.5,436837.225,441587.263,1,40,40,
sequence,flow.Sequence,8_39,2023-11-14T19:43:18.791Z,,,,,,,,,,4738.175000000396,completion,,,,,,,high,low,,,,,,false,,,,true,441575.7000000011,441575.4000000004,436820.553,436832.4000000004,436837.225,441587.263,1,40,,
stair_loop,flow.Loop,8,2023-11-14T19:43:18.791Z,,,,,,,,,,154288.36300000036,completion,,,,,,,,,,,,,,false,,,,true,441575.7000000011,441575.4000000004,287270.361,287279.5,287287.037,441587.263,1,40,,
exp_instructions,html.Screen,9,2023-11-14T19:43:40.327Z,,,,,,,,,,21524.33699999965,response,,,,,,,,,,,,,,,continue,keypress(Space),,,463112.0999999996,463111.5999999996,441570.479,441575.80000000075,441587.263,463120.591,,,,
trial,html.Screen,10_0_0,2023-11-14T19:43:45.396Z,,,,1,0.0456515796420274,-0.0273567130070961,,false,ll,5060.508999999613,response,-0.4268582681934417,0.4689270227375865,-0.4869075184395621,-0.6914260443121328,0.4509261393473881,-0.49749999999999944,low,low,,ISIC_0068610.JPG,9,ISIC_0476606.JPG,488,false,lh,keypress(e),0,false,468181.30000000075,468181.0999999996,463103.271,463112.30000000075,463120.591,468187.294,4,500,1,
break,html.Screen,10_0_1,2023-11-14T19:43:45.397Z,,,,,,,,,,NaN,,,,,,,,low,low,,,,,,false,,,,false,468182,468181.9000000004,,468181.5,,468187.294,4,500,,
break_continue,html.Screen,10_0_2,2023-11-14T19:43:45.397Z,,,,,,,,,,NaN,,,,,,,,low,low,,,,,,false,,,,false,468182.5999999996,468182.4000000004,,468182.2000000011,,468187.294,4,500,,
sequence,flow.Sequence,10_0,2023-11-14T19:43:45.398Z,,,,,,,,,,5061.809000000358,completion,,,,,,,low,low,,,,,,false,,,,false,468182.7000000011,468182.4000000004,463103.271,463112.30000000075,463120.591,468187.294,4,500,,
trial,html.Screen,10_1_0,2023-11-14T19:43:48.047Z,,,,1,0.0329095507339554,-0.0382899749693245,,false,hl,2645.0060000007506,response,0.3554401104076091,0.4689270227375865,-0.4869075184395621,-0.3046846825948075,0.4509261393473881,-0.49749999999999944,high,low,,ISIC_8812781.JPG,9,ISIC_5942564.JPG,286,false,hh,keypress(i),0,false,470832.7000000011,470832.30000000075,468170.55,468182.80000000075,468187.294,470837.258,4,500,2,
break,html.Screen,10_1_1,2023-11-14T19:43:48.049Z,,,,,,,,,,NaN,,,,,,,,high,low,,,,,,false,,,,false,470833.9000000004,470833.5,,470833,,470837.258,4,500,,
break_continue,html.Screen,10_1_2,2023-11-14T19:43:48.049Z,,,,,,,,,,NaN,,,,,,,,high,low,,,,,,false,,,,false,470834.5,470834.30000000075,,470834.0999999996,,470837.258,4,500,,
sequence,flow.Sequence,10_1,2023-11-14T19:43:48.050Z,,,,,,,,,,2647.0060000007506,completion,,,,,,,high,low,,,,,,false,,,,false,470834.80000000075,470834.30000000075,468170.55,468182.80000000075,468187.294,470837.258,4,500,,
trial,html.Screen,10_2_0,2023-11-14T19:43:50.078Z,,,,1,0.0509970506474296,0.0744820958440291,,false,lh,2025.942000001145,response,-0.3288014773590529,0.4689270227375865,-0.4869075184395621,0.4639658102422376,0.4509261393473881,-0.49749999999999944,low,high,,ISIC_0009975.JPG,9,ISIC_8255784.JPG,256,false,hh,keypress(i),0,false,472863.30000000075,472863.2000000011,470820.777,470834.9000000004,470837.258,472870.585,4,500,3,
break,html.Screen,10_2_1,2023-11-14T19:43:50.079Z,,,,,,,,,,NaN,,,,,,,,low,high,,,,,,false,,,,false,472863.7000000011,472863.5999999996,,472863.4000000004,,472870.585,4,500,,
break_continue,html.Screen,10_2_2,2023-11-14T19:43:50.079Z,,,,,,,,,,NaN,,,,,,,,low,high,,,,,,false,,,,false,472863.80000000075,472863.7000000011,,472863.7000000011,,472870.585,4,500,,
sequence,flow.Sequence,10_2,2023-11-14T19:43:50.079Z,,,,,,,,,,2026.442000001145,completion,,,,,,,low,high,,,,,,false,,,,false,472863.80000000075,472863.7000000011,470820.777,470834.80000000075,470837.258,472870.585,4,500,,
trial,html.Screen,10_3_0,2023-11-14T19:43:54.087Z,,,,1,-0.059471106306043,0.0678292174694111,,true,ll,4001.215000000724,response,-0.4963835057909475,0.4689270227375865,-0.4869075184395621,-0.3052779265225965,0.4509261393473881,-0.49749999999999944,low,low,,ISIC_0015631.JPG,8,ISIC_0004955.JPG,488,false,ll,keypress(f),0,false,476871.9000000004,476871.80000000075,472854.04,472863.9000000004,472870.585,476887.27,4,500,4,
break,html.Screen,10_3_1,2023-11-14T19:43:54.087Z,,,,,,,,,,NaN,,,,,,,,low,low,,,,,,false,,,,false,476872.30000000075,476872.2000000011,,476872.0999999996,,476887.27,4,500,,
break_continue,html.Screen,10_3_2,2023-11-14T19:43:54.087Z,,,,,,,,,,NaN,,,,,,,,low,low,,,,,,false,,,,false,476872.5999999996,476872.5,,476872.4000000004,,476887.27,4,500,,
sequence,flow.Sequence,10_3,2023-11-14T19:43:54.088Z,,,,,,,,,,4001.914999999979,completion,,,,,,,low,low,,,,,,false,,,,false,476872.7000000011,476872.5,472854.04,472863.9000000004,472870.585,476887.27,4,500,,
trial,html.Screen,10_4_0,2023-11-14T19:43:57.678Z,,,,1,-0.040191644178716,0.0622582668671422,,true,hl,3575.930000001099,response,0.4649625786729262,0.4689270227375865,-0.4869075184395621,-0.353824668609059,0.4509261393473881,-0.49749999999999944,high,low,,ISIC_6207688.JPG,9,ISIC_4653503.JPG,286,false,hl,keypress(j),0,false,480463.30000000075,480463.2000000011,476870.514,476872.80000000075,476887.27,480470.789,4,500,5,
break,html.Screen,10_4_1,2023-11-14T19:43:57.678Z,,,,,,,,,,NaN,,,,,,,,high,low,,,,,,false,,,,false,480463.5999999996,480463.5,,480463.4000000004,,480470.789,4,500,,
break_continue,html.Screen,10_4_2,2023-11-14T19:43:57.679Z,,,,,,,,,,NaN,,,,,,,,high,low,,,,,,false,,,,false,480463.80000000075,480463.7000000011,,480463.5999999996,,480470.789,4,500,,
sequence,flow.Sequence,10_4,2023-11-14T19:43:57.679Z,,,,,,,,,,3576.430000001099,completion,,,,,,,high,low,,,,,,false,,,,false,480463.80000000075,480463.7000000011,476870.514,476872.80000000075,476887.27,480470.789,4,500,,
trial,html.Screen,10_5_0,2023-11-14T19:44:01.607Z,,,,1,0.007397293189458,0.0174716772037504,,false,ll,3920.911000001128,response,-0.4253765410036875,0.4689270227375865,-0.4869075184395621,-0.310385391853471,0.4509261393473881,-0.49749999999999944,low,low,,ISIC_0056226.JPG,9,ISIC_5922931.JPG,488,false,lh,keypress(e),0,false,484391.9000000004,484391.7000000011,480453.886,480463.9000000004,480470.789,484404.14,4,500,6,
break,html.Screen,10_5_1,2023-11-14T19:44:01.607Z,,,,,,,,,,NaN,,,,,,,,low,low,,,,,,false,,,,false,484392.4000000004,484392.30000000075,,484392.0999999996,,484404.14,4,500,,
break_continue,html.Screen,10_5_2,2023-11-14T19:44:01.608Z,,,,,,,,,,NaN,,,,,,,,low,low,,,,,,false,,,,false,484392.9000000004,484392.80000000075,,484392.5999999996,,484404.14,4,500,,
sequence,flow.Sequence,10_5,2023-11-14T19:44:01.608Z,,,,,,,,,,3922.0110000007553,completion,,,,,,,low,low,,,,,,false,,,,false,484393,484392.80000000075,480453.886,480463.9000000004,480470.789,484404.14,4,500,,
trial,html.Screen,10_6_0,2023-11-14T19:44:06.143Z,,,,1,0.0389988030702649,0.0143212271490256,,false,lh,4523.9599999996135,response,-0.4014483759338945,0.4689270227375865,-0.4869075184395621,0.3461023041069047,0.4509261393473881,-0.49749999999999944,low,high,,ISIC_0064669.JPG,8,ISIC_6507792.JPG,256,false,hl,keypress(j),0,false,488928.2000000011,488928.0999999996,484387.459,484393.0999999996,484404.14,488937.445,4,500,7,
break,html.Screen,10_6_1,2023-11-14T19:44:06.143Z,,,,,,,,,,NaN,,,,,,,,low,high,,,,,,false,,,,false,488928.5,488928.4000000004,,488928.30000000075,,488937.445,4,500,,
break_continue,html.Screen,10_6_2,2023-11-14T19:44:06.144Z,,,,,,,,,,NaN,,,,,,,,low,high,,,,,,false,,,,false,488928.5999999996,488928.5999999996,,488928.5,,488937.445,4,500,,
sequence,flow.Sequence,10_6,2023-11-14T19:44:06.144Z,,,,,,,,,,4524.4599999996135,completion,,,,,,,low,high,,,,,,false,,,,false,488928.7000000011,488928.5999999996,484387.459,484393.0999999996,484404.14,488937.445,4,500,,
trial,html.Screen,10_7_0,2023-11-14T19:44:09.735Z,,,,1,-0.0688801591312476,-0.0185462113313342,,true,lh,3582.6549999996205,response,-0.3186868422072115,0.4689270227375865,-0.4869075184395621,0.4977759988520296,0.4509261393473881,-0.49749999999999944,low,high,,ISIC_0067723.JPG,8,ISIC_0015179.JPG,256,false,lh,keypress(e),0,false,492520.2000000011,492520.0999999996,488920.785,488928.80000000075,488937.445,492537.347,4,500,8,
break,html.Screen,10_7_1,2023-11-14T19:44:09.736Z,,,,,,,,,,NaN,,,,,,,,low,high,,,,,,false,,,,false,492520.9000000004,492520.80000000075,,492520.5,,492537.347,4,500,,
break_continue,html.Screen,10_7_2,2023-11-14T19:44:09.736Z,,,,,,,,,,NaN,,,,,,,,low,high,,,,,,false,,,,false,492521.5,492521.2000000011,,492521.0999999996,,492537.347,4,500,,
sequence,flow.Sequence,10_7,2023-11-14T19:44:09.736Z,,,,,,,,,,3583.7550000011106,completion,,,,,,,low,high,,,,,,false,,,,false,492521.5999999996,492521.2000000011,488920.785,488928.80000000075,488937.445,492537.347,4,500,,
trial,html.Screen,10_8_0,2023-11-14T19:44:14.367Z,,,,1,0.0651705891246238,-0.0394586219902573,,true,hl,4614.453000000736,response,0.335919404675279,0.4689270227375865,-0.4869075184395621,-0.5177907807707952,0.4509261393473881,-0.49749999999999944,high,low,,ISIC_0013491.JPG,9,ISIC_3193774.JPG,286,false,hl,keypress(j),0,false,497151.9000000004,497151.80000000075,492520.774,492521.7000000011,492537.347,497153.962,4,500,9,
break,html.Screen,10_8_1,2023-11-14T19:44:14.367Z,,,,,,,,,,NaN,,,,,,,,high,low,,,,,,false,,,,false,497152.30000000075,497152.2000000011,,497152.0999999996,,497153.962,4,500,,
break_continue,html.Screen,10_8_2,2023-11-14T19:44:14.367Z,,,,,,,,,,NaN,,,,,,,,high,low,,,,,,false,,,,false,497152.5,497152.4000000004,,497152.4000000004,,497153.962,4,500,,
sequence,flow.Sequence,10_8,2023-11-14T19:44:14.367Z,,,,,,,,,,4615.053000000364,completion,,,,,,,high,low,,,,,,false,,,,false,497152.5,497152.4000000004,492520.774,492521.5999999996,492537.347,497153.962,4,500,,
trial,html.Screen,10_9_0,2023-11-14T19:44:16.678Z,,,,1,-0.0134764727102299,-0.0033499036460912,,false,lh,2309.3380000007455,response,-0.3585423916304752,0.4689270227375865,-0.4869075184395621,0.4010349626644393,0.4509261393473881,-0.49749999999999944,low,high,,ISIC_0009998.JPG,9,ISIC_7477006.JPG,256,false,ll,keypress(f),0,false,499463.4000000004,499463.30000000075,497137.185,497152.5999999996,497153.962,499470.649,4,500,10,
break,html.Screen,10_9_1,2023-11-14T19:44:16.679Z,,,,,,,,,,NaN,,,,,,,,low,high,,,,,,false,,,,false,499463.7000000011,499463.7000000011,,499463.5,,499470.649,4,500,,
break_continue,html.Screen,10_9_2,2023-11-14T19:44:16.679Z,,,,,,,,,,NaN,,,,,,,,low,high,,,,,,false,,,,false,499463.9000000004,499463.80000000075,,499463.7000000011,,499470.649,4,500,,
sequence,flow.Sequence,10_9,2023-11-14T19:44:16.679Z,,,,,,,,,,2309.8380000007455,completion,,,,,,,low,high,,,,,,false,,,,false,499463.9000000004,499463.80000000075,497137.185,497152.5999999996,497153.962,499470.649,4,500,,
trial,html.Screen,10_10_0,2023-11-14T19:44:20.304Z,,,,1,0.0069555338059566,-0.0310100918136373,,false,lh,3617.6510000007693,response,-0.5560562808016722,0.4689270227375865,-0.4869075184395621,0.6305041581083397,0.4509261393473881,-0.49749999999999944,low,high,,ISIC_0011177.JPG,9,ISIC_0064080.JPG,256,false,hh,keypress(i),0,false,503088.5,503088.30000000075,499454.129,499464,499470.649,503104.101,4,500,11,
break,html.Screen,10_10_1,2023-11-14T19:44:20.304Z,,,,,,,,,,NaN,,,,,,,,low,high,,,,,,false,,,,false,503089.5,503089.2000000011,,503088.9000000004,,503104.101,4,500,,
break_continue,html.Screen,10_10_2,2023-11-14T19:44:20.305Z,,,,,,,,,,NaN,,,,,,,,low,high,,,,,,false,,,,false,503090.0999999996,503089.9000000004,,503089.5999999996,,503104.101,4,500,,
sequence,flow.Sequence,10_10,2023-11-14T19:44:20.305Z,,,,,,,,,,3619.2510000003967,completion,,,,,,,low,high,,,,,,false,,,,false,503090.30000000075,503089.9000000004,499454.129,499464,499470.649,503104.101,4,500,,
trial,html.Screen,10_11_0,2023-11-14T19:44:23.143Z,,,,1,0.0389988030702649,0.0143212271490256,,true,hh,2823.699000000721,response,0.4831116950912628,0.4689270227375865,-0.4869075184395621,0.4846610151752519,0.4509261393473881,-0.49749999999999944,high,high,,ISIC_0064669.JPG,10,ISIC_0066150.JPG,415,false,hh,keypress(i),0,false,505928,505927.80000000075,503087.367,503090.5,503104.101,505937.323,4,500,12,
break,html.Screen,10_11_1,2023-11-14T19:44:23.144Z,,,,,,,,,,NaN,,,,,,,,high,high,,,,,,false,,,,false,505928.5999999996,505928.5999999996,,505928.2000000011,,505937.323,4,500,,
break_continue,html.Screen,10_11_2,2023-11-14T19:44:23.144Z,,,,,,,,,,NaN,,,,,,,,high,high,,,,,,false,,,,false,505929.0999999996,505929,,505928.9000000004,,505937.323,4,500,,
sequence,flow.Sequence,10_11,2023-11-14T19:44:23.144Z,,,,,,,,,,2824.898999999976,completion,,,,,,,high,high,,,,,,false,,,,false,505929.30000000075,505929,503087.367,503090.5,503104.101,505937.323,4,500,,
trial,html.Screen,10_12_0,2023-11-14T19:44:25.863Z,,,,1,-0.009234249673026,-0.0627190878028592,,false,ll,2710.5770000003977,response,-0.6596879145559833,0.4689270227375865,-0.4869075184395621,-0.3150156798322924,0.4509261393473881,-0.49749999999999944,low,low,,ISIC_0053760.JPG,9,ISIC_0062298.JPG,488,false,lh,keypress(e),0,false,508648.0999999996,508647.9000000004,505920.728,505929.4000000004,505937.323,508653.994,4,500,13,
break,html.Screen,10_12_1,2023-11-14T19:44:25.864Z,,,,,,,,,,NaN,,,,,,,,low,low,,,,,,false,,,,false,508648.7000000011,508648.5999999996,,508648.30000000075,,508653.994,4,500,,
break_continue,html.Screen,10_12_2,2023-11-14T19:44:25.864Z,,,,,,,,,,NaN,,,,,,,,low,low,,,,,,false,,,,false,508649.2000000011,508649.0999999996,,508648.9000000004,,508653.994,4,500,,
sequence,flow.Sequence,10_12,2023-11-14T19:44:25.864Z,,,,,,,,,,2711.7769999996526,completion,,,,,,,low,low,,,,,,false,,,,false,508649.30000000075,508649.0999999996,505920.728,505929.4000000004,505937.323,508653.994,4,500,,
trial,html.Screen,10_13_0,2023-11-14T19:44:28.103Z,,,,1,0.0057914759495055,0.0074667911845194,,true,lh,2233.806000000739,response,-0.6867907924436967,0.4689270227375865,-0.4869075184395621,0.3174924227005949,0.4509261393473881,-0.49749999999999944,low,high,,ISIC_0058723.JPG,9,ISIC_6448654.JPG,256,false,lh,keypress(e),0,false,510887.9000000004,510887.80000000075,508637.488,508649.5,508653.994,510904.076,4,500,14,
break,html.Screen,10_13_1,2023-11-14T19:44:28.104Z,,,,,,,,,,NaN,,,,,,,,low,high,,,,,,false,,,,false,510888.5,510888.4000000004,,510888.0999999996,,510904.076,4,500,,
break_continue,html.Screen,10_13_2,2023-11-14T19:44:28.104Z,,,,,,,,,,NaN,,,,,,,,low,high,,,,,,false,,,,false,510888.80000000075,510888.80000000075,,510888.7000000011,,510904.076,4,500,,
sequence,flow.Sequence,10_13,2023-11-14T19:44:28.104Z,,,,,,,,,,2234.806000000739,completion,,,,,,,low,high,,,,,,false,,,,false,510889,510888.80000000075,508637.488,508649.4000000004,508653.994,510904.076,4,500,,
trial,html.Screen,10_14_0,2023-11-14T19:44:30.542Z,,,,1,-0.0188047466661863,0.0288346930436979,,false,hh,2423.224000000744,response,0.3839269158000007,0.4689270227375865,-0.4869075184395621,0.2574036779581228,0.4509261393473881,-0.49749999999999944,high,high,,ISIC_0014157.JPG,8,ISIC_9355535.JPG,415,false,ll,keypress(f),0,false,513327.4000000004,513327.30000000075,510887.288,510889.2000000011,510904.076,513337.474,4,500,15,
break,html.Screen,10_14_1,2023-11-14T19:44:30.543Z,,,,,,,,,,NaN,,,,,,,,high,high,,,,,,false,,,,false,513327.7000000011,513327.7000000011,,513327.5,,513337.474,4,500,,
break_continue,html.Screen,10_14_2,2023-11-14T19:44:30.543Z,,,,,,,,,,NaN,,,,,,,,high,high,,,,,,false,,,,false,513328,513327.9000000004,,513327.80000000075,,513337.474,4,500,,
sequence,flow.Sequence,10_14,2023-11-14T19:44:30.543Z,,,,,,,,,,2423.8240000003716,completion,,,,,,,high,high,,,,,,false,,,,false,513328.0999999996,513327.9000000004,510887.288,510889.2000000011,510904.076,513337.474,4,500,,
trial,html.Screen,10_15_0,2023-11-14T19:44:33.303Z,,,,1,-0.059471106306043,0.0678292174694111,,false,hh,2750.3260000007576,response,0.626144952297645,0.4689270227375865,-0.4869075184395621,0.5440882514664583,0.4509261393473881,-0.49749999999999944,high,high,,ISIC_0015631.JPG,8,ISIC_0011374.JPG,415,false,hl,keypress(j),0,false,516088,516087.80000000075,513320.669,513328.0999999996,513337.474,516104.102,4,500,16,
break,html.Screen,10_15_1,2023-11-14T19:44:33.304Z,,,,,,,,,,NaN,,,,,,,,high,high,,,,,,false,,,,false,516088.7000000011,516088.4000000004,,516088.0999999996,,516104.102,4,500,,
break_continue,html.Screen,10_15_2,2023-11-14T19:44:33.304Z,,,,,,,,,,NaN,,,,,,,,high,high,,,,,,false,,,,false,516089.0999999996,516089,,516088.80000000075,,516104.102,4,500,,
sequence,flow.Sequence,10_15,2023-11-14T19:44:33.304Z,,,,,,,,,,2751.5260000000126,completion,,,,,,,high,high,,,,,,false,,,,false,516089.4000000004,516089,513320.669,513328.0999999996,513337.474,516104.102,4,500,,
trial,html.Screen,10_16_0,2023-11-14T19:44:37.071Z,,,,1,-0.0021038737988857,0.0570427519488725,,true,hl,3751.798000000359,response,0.363784354844004,0.4689270227375865,-0.4869075184395621,-0.3571176069492273,0.4509261393473881,-0.49749999999999944,high,low,,ISIC_3596927.JPG,9,ISIC_0000035.JPG,286,false,hl,keypress(j),0,false,519856.2000000011,519855.9000000004,516087.408,516089.5,516104.102,519870.816,4,500,17,
break,html.Screen,10_16_1,2023-11-14T19:44:37.072Z,,,,,,,,,,NaN,,,,,,,,high,low,,,,,,false,,,,false,519857,519856.7000000011,,519856.4000000004,,519870.816,4,500,,
break_continue,html.Screen,10_16_2,2023-11-14T19:44:37.072Z,,,,,,,,,,NaN,,,,,,,,high,low,,,,,,false,,,,false,519857.4000000004,519857.30000000075,,519857.0999999996,,519870.816,4,500,,
sequence,flow.Sequence,10_16,2023-11-14T19:44:37.073Z,,,,,,,,,,3753.1980000007316,completion,,,,,,,high,low,,,,,,false,,,,false,519857.7000000011,519857.30000000075,516087.408,516089.5,516104.102,519870.816,4,500,,
trial,html.Screen,10_17_0,2023-11-14T19:44:38.951Z,,,,1,-0.0737104822171846,0.0725320314728604,,true,hh,1864.584000000381,response,0.6525393844009885,0.4689270227375865,-0.4869075184395621,0.5682519043686043,0.4509261393473881,-0.49749999999999944,high,high,,ISIC_0002862.JPG,9,ISIC_0057556.JPG,415,false,hh,keypress(i),0,false,521735.5,521735.4000000004,519853.976,519857.80000000075,519870.816,521737.34,4,500,18,
break,html.Screen,10_17_1,2023-11-14T19:44:38.951Z,,,,,,,,,,NaN,,,,,,,,high,high,,,,,,false,,,,false,521735.80000000075,521735.80000000075,,521735.5999999996,,521737.34,4,500,,
break_continue,html.Screen,10_17_2,2023-11-14T19:44:38.951Z,,,,,,,,,,NaN,,,,,,,,high,high,,,,,,false,,,,false,521736,521735.9000000004,,521735.80000000075,,521737.34,4,500,,
sequence,flow.Sequence,10_17,2023-11-14T19:44:38.951Z,,,,,,,,,,1865.084000000381,completion,,,,,,,high,high,,,,,,false,,,,false,521736,521735.9000000004,519853.976,519857.80000000075,519870.816,521737.34,4,500,,
trial,html.Screen,10_18_0,2023-11-14T19:44:41.104Z,,,,1,-0.0149482827359613,0.0661630859332833,,false,hl,2151.060000000347,response,0.448528739338651,0.4689270227375865,-0.4869075184395621,-0.3380908168403562,0.4509261393473881,-0.49749999999999944,high,low,,ISIC_6815524.JPG,8,ISIC_0024214.JPG,286,false,lh,keypress(e),0,false,523888.5999999996,523888.4000000004,521720.872,521736.0999999996,521737.34,523904.081,4,500,19,
break,html.Screen,10_18_1,2023-11-14T19:44:41.105Z,,,,,,,,,,NaN,,,,,,,,high,low,,,,,,false,,,,false,523889.9000000004,523889.5999999996,,523889.0999999996,,523904.081,4,500,,
break_continue,html.Screen,10_18_2,2023-11-14T19:44:41.106Z,,,,,,,,,,NaN,,,,,,,,high,low,,,,,,false,,,,false,523890.5,523890.30000000075,,523890.2000000011,,523904.081,4,500,,
sequence,flow.Sequence,10_18,2023-11-14T19:44:41.106Z,,,,,,,,,,2152.9600000007194,completion,,,,,,,high,low,,,,,,false,,,,false,523890.7000000011,523890.30000000075,521720.872,521736.0999999996,521737.34,523904.081,4,500,,
trial,html.Screen,10_19_0,2023-11-14T19:44:47.535Z,,,,1,-0.0735635316240061,0.0537805418091709,,false,hh,6415.918999999994,response,0.5080890472725531,0.4689270227375865,-0.4869075184395621,0.4613202517826211,0.4509261393473881,-0.49749999999999944,high,high,,ISIC_1761799.JPG,9,ISIC_0054599.JPG,415,false,ll,keypress(f),0,false,530320.2000000011,530320,523887.471,523890.9000000004,523904.081,530354.185,4,500,20,
break,html.Screen,10_19_1,2023-11-14T19:44:47.536Z,,,,,,,,,,NaN,,,,,,,,high,high,,,,,,false,,,,false,530320.8000000007,530320.5999999996,,530320.3000000007,,530354.185,4,500,,
break_continue,html.Screen,10_19_2,2023-11-14T19:44:47.536Z,,,,,,,,,,NaN,,,,,,,,high,high,,,,,,false,,,,false,530321.0999999996,530321,,530320.9000000004,,530354.185,4,500,,
sequence,flow.Sequence,10_19,2023-11-14T19:44:47.536Z,,,,,,,,,,6416.918999999994,completion,,,,,,,high,high,,,,,,false,,,,false,530321.3000000007,530321,523887.471,523890.80000000075,523904.081,530354.185,4,500,,
trial,html.Screen,10_20_0,2023-11-14T19:44:49.559Z,,,,1,0.0057914759495055,0.0074667911845194,,false,hh,1989.8149999999441,response,0.571844038132215,0.4689270227375865,-0.4869075184395621,0.4227164613518121,0.4509261393473881,-0.49749999999999944,high,high,,ISIC_0058723.JPG,9,ISIC_0015015.JPG,415,false,lh,keypress(e),0,false,532344.0999999996,532344,530337.478,530321.4000000004,530354.185,532354.076,4,500,21,
break,html.Screen,10_20_1,2023-11-14T19:44:49.560Z,,,,,,,,,,NaN,,,,,,,,high,high,,,,,,false,,,,false,532344.8000000007,532344.5999999996,,532344.4000000004,,532354.076,4,500,,
break_continue,html.Screen,10_20_2,2023-11-14T19:44:49.560Z,,,,,,,,,,NaN,,,,,,,,high,high,,,,,,false,,,,false,532345.0999999996,532344.9000000004,,532344.8000000007,,532354.076,4,500,,
sequence,flow.Sequence,10_20,2023-11-14T19:44:49.560Z,,,,,,,,,,1990.7150000003166,completion,,,,,,,high,high,,,,,,false,,,,false,532345.2000000011,532344.9000000004,530337.478,530321.3000000007,530354.185,532354.076,4,500,,
trial,html.Screen,10_21_0,2023-11-14T19:44:52.343Z,,,,1,0.0544808612748248,-0.0240487075377862,,false,ll,2773.724000000744,response,-0.404609657346472,0.4689270227375865,-0.4869075184395621,-0.3333374943928823,0.4509261393473881,-0.49749999999999944,low,low,,ISIC_4606646.JPG,9,ISIC_8168598.JPG,488,false,hh,keypress(i),0,false,535128,535127.8000000007,532337.528,532345.3000000007,532354.076,535137.366,4,500,22,
break,html.Screen,10_21_1,2023-11-14T19:44:52.343Z,,,,,,,,,,NaN,,,,,,,,low,low,,,,,,false,,,,false,535128.3000000007,535128.3000000007,,535128.0999999996,,535137.366,4,500,,
break_continue,html.Screen,10_21_2,2023-11-14T19:44:52.344Z,,,,,,,,,,NaN,,,,,,,,low,low,,,,,,false,,,,false,535128.5,535128.4000000004,,535128.3000000007,,535137.366,4,500,,
sequence,flow.Sequence,10_21,2023-11-14T19:44:52.344Z,,,,,,,,,,2774.3240000003716,completion,,,,,,,low,low,,,,,,false,,,,false,535128.5,535128.4000000004,532337.528,532345.3000000007,532354.076,535137.366,4,500,,
trial,html.Screen,10_22_0,2023-11-14T19:44:54.552Z,,,,1,0.0217698886732706,-0.0410870915161425,,false,hl,2198.8340000010794,response,0.4326601161670867,0.4689270227375865,-0.4869075184395621,-0.6068412604494672,0.4509261393473881,-0.49749999999999944,high,low,,ISIC_0072173.JPG,9,ISIC_2266715.JPG,286,false,hh,keypress(i),0,false,537336.5,537336.2000000011,535120.87,535128.5999999996,535137.366,537354.036,4,500,23,
break,html.Screen,10_22_1,2023-11-14T19:44:54.552Z,,,,,,,,,,NaN,,,,,,,,high,low,,,,,,false,,,,false,537337.3000000007,537337.0999999996,,537336.7000000011,,537354.036,4,500,,
break_continue,html.Screen,10_22_2,2023-11-14T19:44:54.553Z,,,,,,,,,,NaN,,,,,,,,high,low,,,,,,false,,,,false,537337.9000000004,537337.8000000007,,537337.5,,537354.036,4,500,,
sequence,flow.Sequence,10_22,2023-11-14T19:44:54.553Z,,,,,,,,,,2200.434000000707,completion,,,,,,,high,low,,,,,,false,,,,false,537338.0999999996,537337.8000000007,535120.87,535128.5999999996,535137.366,537354.036,4,500,,
trial,html.Screen,10_23_0,2023-11-14T19:44:57.848Z,,,,1,-0.0409338693593207,0.0072462710499874,,false,ll,3278.364000000409,response,-0.456784462065923,0.4689270227375865,-0.4869075184395621,-0.6642026728715517,0.4509261393473881,-0.49749999999999944,low,low,,ISIC_3608788.JPG,9,ISIC_0046693.JPG,488,false,hl,keypress(j),0,false,540632.7000000011,540632.4000000004,537320.856,537338.3000000007,537354.036,540637.367,4,500,24,
break,html.Screen,10_23_1,2023-11-14T19:44:57.849Z,,,,,,,,,,NaN,,,,,,,,low,low,,,,,,false,,,,false,540633.7000000011,540633.4000000004,,540633,,540637.367,4,500,,
break_continue,html.Screen,10_23_2,2023-11-14T19:44:57.849Z,,,,,,,,,,NaN,,,,,,,,low,low,,,,,,false,,,,false,540634.4000000004,540634.0999999996,,540633.9000000004,,540637.367,4,500,,
sequence,flow.Sequence,10_23,2023-11-14T19:44:57.850Z,,,,,,,,,,3280.063999999664,completion,,,,,,,low,low,,,,,,false,,,,false,540634.5999999996,540634.0999999996,537320.856,537338.3000000007,537354.036,540637.367,4,500,,
trial,html.Screen,10_24_0,2023-11-14T19:45:00.111Z,,,,1,0.0027483411352856,0.0100996915276271,,true,hh,2258.232999999658,response,0.4419169442820043,0.4689270227375865,-0.4869075184395621,0.5005209004373625,0.4509261393473881,-0.49749999999999944,high,high,,ISIC_7364041.JPG,10,ISIC_0014079.JPG,415,false,hh,keypress(i),0,false,542895.5999999996,542895.5999999996,540620.95,540634.8000000007,540637.367,542904.229,4,500,25,
break,html.Screen,10_24_1,2023-11-14T19:45:00.111Z,,,,,,,,,,NaN,,,,,,,,high,high,,,,,,false,,,,false,542896,542895.9000000004,,542895.7000000011,,542904.229,4,500,,
break_continue,html.Screen,10_24_2,2023-11-14T19:45:00.111Z,,,,,,,,,,NaN,,,,,,,,high,high,,,,,,false,,,,false,542896.0999999996,542896,,542896,,542904.229,4,500,,
sequence,flow.Sequence,10_24,2023-11-14T19:45:00.111Z,,,,,,,,,,2258.6330000000307,completion,,,,,,,high,high,,,,,,false,,,,false,542896.2000000011,542896,540620.95,540634.7000000011,540637.367,542904.229,4,500,,
trial,html.Screen,10_25_0,2023-11-14T19:45:05.983Z,,,,1,0.0324770283903853,0.0249968632204382,,false,hh,5863.471000001067,response,0.2836445355973738,0.4689270227375865,-0.4869075184395621,0.427898364274163,0.4509261393473881,-0.49749999999999944,high,high,,ISIC_7266462.JPG,10,ISIC_0028488.JPG,415,false,hl,keypress(j),0,false,548767.9000000004,548767.7000000011,542887.453,542896.3000000007,542904.229,548770.739,4,500,26,
break,html.Screen,10_25_1,2023-11-14T19:45:05.984Z,,,,,,,,,,NaN,,,,,,,,high,high,,,,,,false,,,,false,548768.4000000004,548768.4000000004,,548768.0999999996,,548770.739,4,500,,
break_continue,html.Screen,10_25_2,2023-11-14T19:45:05.984Z,,,,,,,,,,NaN,,,,,,,,high,high,,,,,,false,,,,false,548769,548768.8000000007,,548768.5999999996,,548770.739,4,500,,
sequence,flow.Sequence,10_25,2023-11-14T19:45:05.984Z,,,,,,,,,,5864.571000000695,completion,,,,,,,high,high,,,,,,false,,,,false,548769.0999999996,548768.8000000007,542887.453,542896.2000000011,542904.229,548770.739,4,500,,
trial,html.Screen,10_26_0,2023-11-14T19:45:08.807Z,,,,1,-0.0691769743257167,0.0638501824668941,,false,hl,2820.9610000011744,response,0.5644084663222959,0.4689270227375865,-0.4869075184395621,-0.4262401618994175,0.4509261393473881,-0.49749999999999944,high,low,,ISIC_0031914.JPG,9,ISIC_2376758.JPG,286,false,lh,keypress(e),0,false,551591.9000000004,551591.7000000011,548754.034,548769.2000000011,548770.739,551604.132,4,500,27,
break,html.Screen,10_26_1,2023-11-14T19:45:08.808Z,,,,,,,,,,NaN,,,,,,,,high,low,,,,,,false,,,,false,551592.5,551592.4000000004,,551592,,551604.132,4,500,,
break_continue,html.Screen,10_26_2,2023-11-14T19:45:08.808Z,,,,,,,,,,NaN,,,,,,,,high,low,,,,,,false,,,,false,551592.9000000004,551592.8000000007,,551592.5999999996,,551604.132,4,500,,
sequence,flow.Sequence,10_26,2023-11-14T19:45:08.808Z,,,,,,,,,,2822.061000000802,completion,,,,,,,high,low,,,,,,false,,,,false,551593,551592.8000000007,548754.034,548769.2000000011,548770.739,551604.132,4,500,,
trial,html.Screen,10_27_0,2023-11-14T19:45:11.559Z,,,,1,0.0324770283903853,0.0249968632204382,,false,hl,2739.3680000000168,response,0.2703689099873939,0.4689270227375865,-0.4869075184395621,-0.3441371567439598,0.4509261393473881,-0.49749999999999944,high,low,,ISIC_7266462.JPG,9,ISIC_0000483.JPG,286,false,lh,keypress(e),0,false,554343.5999999996,554343.5,551587.503,551593.2000000011,551604.132,554354.241,4,500,28,
break,html.Screen,10_27_1,2023-11-14T19:45:11.559Z,,,,,,,,,,NaN,,,,,,,,high,low,,,,,,false,,,,false,554344,554343.9000000004,,554343.7000000011,,554354.241,4,500,,
break_continue,html.Screen,10_27_2,2023-11-14T19:45:11.559Z,,,,,,,,,,NaN,,,,,,,,high,low,,,,,,false,,,,false,554344.0999999996,554344.0999999996,,554344,,554354.241,4,500,,
sequence,flow.Sequence,10_27,2023-11-14T19:45:11.559Z,,,,,,,,,,2739.9679999996442,completion,,,,,,,high,low,,,,,,false,,,,false,554344.2000000011,554344.0999999996,551587.503,551593.0999999996,551604.132,554354.241,4,500,,
trial,html.Screen,10_28_0,2023-11-14T19:45:14.343Z,,,,1,-0.0188047466661863,0.0288346930436979,,false,hl,2773.258999999962,response,0.544516654509254,0.4689270227375865,-0.4869075184395621,-0.4133000950476122,0.4509261393473881,-0.49749999999999944,high,low,,ISIC_0014157.JPG,8,ISIC_0069488.JPG,286,false,hh,keypress(i),0,false,557127.5,557127.5,554337.485,554344.3000000007,554354.241,557137.581,4,500,29,
break,html.Screen,10_28_1,2023-11-14T19:45:14.343Z,,,,,,,,,,NaN,,,,,,,,high,low,,,,,,false,,,,false,557127.9000000004,557127.8000000007,,557127.5999999996,,557137.581,4,500,,
break_continue,html.Screen,10_28_2,2023-11-14T19:45:14.343Z,,,,,,,,,,NaN,,,,,,,,high,low,,,,,,false,,,,false,557128.0999999996,557128,,557128,,557137.581,4,500,,
sequence,flow.Sequence,10_28,2023-11-14T19:45:14.343Z,,,,,,,,,,2773.758999999962,completion,,,,,,,high,low,,,,,,false,,,,false,557128.2000000011,557128,554337.485,554344.3000000007,554354.241,557137.581,4,500,,
trial,html.Screen,10_29_0,2023-11-14T19:45:15.959Z,,,,1,-0.0245376145053177,0.0436993426328401,,true,hh,1606.119000001112,response,0.498404132646133,0.4689270227375865,-0.4869075184395621,0.4134545895272695,0.4509261393473881,-0.49749999999999944,high,high,,ISIC_0056444.JPG,9,ISIC_0029250.JPG,415,false,hh,keypress(i),0,false,558743.8000000007,558743.7000000011,557120.812,557128.2000000011,557137.581,558770.808,4,500,30,
break,html.Screen,10_29_1,2023-11-14T19:45:15.959Z,,,,,,,,,,NaN,,,,,,,,high,high,,,,,,false,,,,false,558744.4000000004,558744.2000000011,,558744,,558770.808,4,500,,
break_continue,html.Screen,10_29_2,2023-11-14T19:45:15.960Z,,,,,,,,,,NaN,,,,,,,,high,high,,,,,,false,,,,false,558744.7000000011,558744.5999999996,,558744.5,,558770.808,4,500,,
sequence,flow.Sequence,10_29,2023-11-14T19:45:15.960Z,,,,,,,,,,1607.0189999996219,completion,,,,,,,high,high,,,,,,false,,,,false,558744.8000000007,558744.5999999996,557120.812,557128.2000000011,557137.581,558770.808,4,500,,
trial,html.Screen,10_30_0,2023-11-14T19:45:18.935Z,,,,1,0.0608867680161491,0.0206384042070211,,true,hh,2948.7919999996666,response,0.3347603907518162,0.4689270227375865,-0.4869075184395621,0.3450275592453693,0.4509261393473881,-0.49749999999999944,high,high,,ISIC_0640806.JPG,9,ISIC_0034089.JPG,415,false,hh,keypress(i),0,false,561719.7000000011,561719.5999999996,558754.203,558744.9000000004,558770.808,561737.915,4,500,31,
break,html.Screen,10_30_1,2023-11-14T19:45:18.935Z,,,,,,,,,,NaN,,,,,,,,high,high,,,,,,false,,,,false,561720.0999999996,561720,,561719.8000000007,,561737.915,4,500,,
break_continue,html.Screen,10_30_2,2023-11-14T19:45:18.936Z,,,,,,,,,,NaN,,,,,,,,high,high,,,,,,false,,,,false,561720.3000000007,561720.2000000011,,561720.0999999996,,561737.915,4,500,,
sequence,flow.Sequence,10_30,2023-11-14T19:45:18.936Z,,,,,,,,,,2949.3920000011567,completion,,,,,,,high,high,,,,,,false,,,,false,561720.3000000007,561720.2000000011,558754.203,558744.9000000004,558770.808,561737.915,4,500,,
trial,html.Screen,10_31_0,2023-11-14T19:45:21.159Z,,,,1,0.0027483411352856,0.0100996915276271,,false,hl,2205.5849999999627,response,0.6608001776235638,0.4689270227375865,-0.4869075184395621,-0.3313884773098788,0.4509261393473881,-0.49749999999999944,high,low,,ISIC_7364041.JPG,9,ISIC_0000291.JPG,286,false,hh,keypress(i),0,false,563943.7000000011,563943.5,561704.274,561720.4000000004,561737.915,563954.245,4,500,32,
break,html.Screen,10_31_1,2023-11-14T19:45:21.159Z,,,,,,,,,,NaN,,,,,,,,high,low,,,,,,false,,,,false,563944,563943.9000000004,,563943.7000000011,,563954.245,4,500,,
break_continue,html.Screen,10_31_2,2023-11-14T19:45:21.159Z,,,,,,,,,,NaN,,,,,,,,high,low,,,,,,false,,,,false,563944.0999999996,563944.0999999996,,563944.0999999996,,563954.245,4,500,,
sequence,flow.Sequence,10_31,2023-11-14T19:45:21.159Z,,,,,,,,,,2206.18499999959,completion,,,,,,,high,low,,,,,,false,,,,false,563944.2000000011,563944.0999999996,561704.274,561720.4000000004,561737.915,563954.245,4,500,,
trial,html.Screen,10_32_0,2023-11-14T19:45:23.967Z,,,,1,-0.0348234368746005,0.0236866303880924,,true,lh,2797.5550000007497,response,-0.3154581373529916,0.4689270227375865,-0.4869075184395621,0.427374452701529,0.4509261393473881,-0.49749999999999944,low,high,,ISIC_0011099.JPG,9,ISIC_0054280.JPG,256,false,lh,keypress(e),0,false,566751.9000000004,566751.8000000007,563937.5,563944.2000000011,563954.245,566754.05,4,500,33,
break,html.Screen,10_32_1,2023-11-14T19:45:23.968Z,,,,,,,,,,NaN,,,,,,,,low,high,,,,,,false,,,,false,566752.3000000007,566752.2000000011,,566752,,566754.05,4,500,,
break_continue,html.Screen,10_32_2,2023-11-14T19:45:23.968Z,,,,,,,,,,NaN,,,,,,,,low,high,,,,,,false,,,,false,566752.5,566752.4000000004,,566752.4000000004,,566754.05,4,500,,
sequence,flow.Sequence,10_32,2023-11-14T19:45:23.968Z,,,,,,,,,,2798.155000000377,completion,,,,,,,low,high,,,,,,false,,,,false,566752.5999999996,566752.4000000004,563937.5,563944.2000000011,563954.245,566754.05,4,500,,
trial,html.Screen,10_33_0,2023-11-14T19:45:28.455Z,,,,1,-0.0265457942157377,-0.0704357137706731,,true,lh,4485.350000000326,response,-0.537949197559726,0.4689270227375865,-0.4869075184395621,0.266898007997037,0.4509261393473881,-0.49749999999999944,low,high,,ISIC_3123377.JPG,10,ISIC_0025759.JPG,256,false,lh,keypress(e),0,false,571239.5999999996,571239.4000000004,566737.44,566752.5999999996,566754.05,571254.262,4,500,34,
break,html.Screen,10_33_1,2023-11-14T19:45:28.455Z,,,,,,,,,,NaN,,,,,,,,low,high,,,,,,false,,,,false,571239.9000000004,571239.8000000007,,571239.7000000011,,571254.262,4,500,,
break_continue,html.Screen,10_33_2,2023-11-14T19:45:28.455Z,,,,,,,,,,NaN,,,,,,,,low,high,,,,,,false,,,,false,571240.0999999996,571240,,571239.9000000004,,571254.262,4,500,,
sequence,flow.Sequence,10_33,2023-11-14T19:45:28.455Z,,,,,,,,,,4485.949999999953,completion,,,,,,,low,high,,,,,,false,,,,false,571240.0999999996,571240,566737.44,566752.5999999996,566754.05,571254.262,4,500,,
trial,html.Screen,10_34_0,2023-11-14T19:45:31.583Z,,,,1,0.007397293189458,0.0174716772037504,,false,hl,3113.238000000012,response,0.56455440688264,0.4689270227375865,-0.4869075184395621,-0.5097890718794723,0.4509261393473881,-0.49749999999999944,high,low,,ISIC_0056226.JPG,9,ISIC_8108870.JPG,286,false,ll,keypress(f),0,false,574367.7000000011,574367.5,571237.571,571240.2000000011,571254.262,574370.723,4,500,35,
break,html.Screen,10_34_1,2023-11-14T19:45:31.583Z,,,,,,,,,,NaN,,,,,,,,high,low,,,,,,false,,,,false,574368,574367.9000000004,,574367.8000000007,,574370.723,4,500,,
break_continue,html.Screen,10_34_2,2023-11-14T19:45:31.584Z,,,,,,,,,,NaN,,,,,,,,high,low,,,,,,false,,,,false,574368.3000000007,574368.2000000011,,574368.0999999996,,574370.723,4,500,,
sequence,flow.Sequence,10_34,2023-11-14T19:45:31.584Z,,,,,,,,,,3113.9380000011297,completion,,,,,,,high,low,,,,,,false,,,,false,574368.3000000007,574368.2000000011,571237.571,571240.0999999996,571254.262,574370.723,4,500,,
trial,html.Screen,10_35_0,2023-11-14T19:45:34.631Z,,,,1,-0.0134764727102299,-0.0033499036460912,,true,hh,3045.077000000747,response,0.634363621268349,0.4689270227375865,-0.4869075184395621,0.3479697203186571,0.4509261393473881,-0.49749999999999944,high,high,,ISIC_0009998.JPG,10,ISIC_8887039.JPG,415,false,hh,keypress(i),0,false,577415.9000000004,577415.8000000007,574354.258,574368.4000000004,574370.723,577420.765,4,500,36,
break,html.Screen,10_35_1,2023-11-14T19:45:34.632Z,,,,,,,,,,NaN,,,,,,,,high,high,,,,,,false,,,,false,577416.3000000007,577416.2000000011,,577416,,577420.765,4,500,,
break_continue,html.Screen,10_35_2,2023-11-14T19:45:34.632Z,,,,,,,,,,NaN,,,,,,,,high,high,,,,,,false,,,,false,577416.5999999996,577416.5,,577416.4000000004,,577420.765,4,500,,
sequence,flow.Sequence,10_35,2023-11-14T19:45:34.632Z,,,,,,,,,,3045.777000000002,completion,,,,,,,high,high,,,,,,false,,,,false,577416.8000000007,577416.5,574354.258,574368.4000000004,574370.723,577420.765,4,500,,
trial,html.Screen,10_36_0,2023-11-14T19:45:36.656Z,,,,1,0.0538169356437535,-0.0113486191005169,,false,lh,2019.535000000731,response,-0.4562699700906099,0.4689270227375865,-0.4869075184395621,0.4625468562589988,0.4509261393473881,-0.49749999999999944,low,high,,ISIC_0009939.JPG,8,ISIC_0024455.JPG,256,false,hh,keypress(i),0,false,579440.5,579440.3000000007,577404.067,577416.9000000004,577420.765,579454.114,4,500,37,
break,html.Screen,10_36_1,2023-11-14T19:45:36.657Z,,,,,,,,,,NaN,,,,,,,,low,high,,,,,,false,,,,false,579441.3000000007,579441.2000000011,,579440.8000000007,,579454.114,4,500,,
break_continue,html.Screen,10_36_2,2023-11-14T19:45:36.657Z,,,,,,,,,,NaN,,,,,,,,low,high,,,,,,false,,,,false,579441.9000000004,579441.5999999996,,579441.4000000004,,579454.114,4,500,,
sequence,flow.Sequence,10_36,2023-11-14T19:45:36.657Z,,,,,,,,,,2020.8349999996135,completion,,,,,,,low,high,,,,,,false,,,,false,579442.0999999996,579441.5999999996,577404.067,577416.9000000004,577420.765,579454.114,4,500,,
trial,html.Screen,10_37_0,2023-11-14T19:45:39.407Z,,,,1,-0.0531672914703651,0.0074883925434357,,false,hl,2737.686000000802,response,0.5791732386268582,0.4689270227375865,-0.4869075184395621,-0.5871963906675944,0.4509261393473881,-0.49749999999999944,high,low,,ISIC_4177043.JPG,10,ISIC_0066338.JPG,286,false,ll,keypress(f),0,false,582192.0999999996,582191.8000000007,579437.526,579442.2000000011,579454.114,582204.142,4,500,38,
break,html.Screen,10_37_1,2023-11-14T19:45:39.408Z,,,,,,,,,,NaN,,,,,,,,high,low,,,,,,false,,,,false,582192.7000000011,582192.5999999996,,582192.2000000011,,582204.142,4,500,,
break_continue,html.Screen,10_37_2,2023-11-14T19:45:39.408Z,,,,,,,,,,NaN,,,,,,,,high,low,,,,,,false,,,,false,582193.0999999996,582193,,582192.8000000007,,582204.142,4,500,,
sequence,flow.Sequence,10_37,2023-11-14T19:45:39.408Z,,,,,,,,,,2738.886000000057,completion,,,,,,,high,low,,,,,,false,,,,false,582193.2000000011,582193,579437.526,579442.2000000011,579454.114,582204.142,4,500,,
trial,html.Screen,10_38_0,2023-11-14T19:45:41.880Z,,,,1,-0.0149482827359613,0.0661630859332833,,false,ll,2460.558000001125,response,-0.5210361726732141,0.4689270227375865,-0.4869075184395621,-0.402559995868641,0.4509261393473881,-0.49749999999999944,low,low,,ISIC_6815524.JPG,9,ISIC_4680417.JPG,488,false,lh,keypress(e),0,false,584665.0999999996,584664.7000000011,582187.557,582193.3000000007,582204.142,584670.846,4,500,39,
break,html.Screen,10_38_1,2023-11-14T19:45:41.882Z,,,,,,,,,,NaN,,,,,,,,low,low,,,,,,false,,,,false,584666.3000000007,584665.9000000004,,584665.5,,584670.846,4,500,,
break_continue,html.Screen,10_38_2,2023-11-14T19:45:41.882Z,,,,,,,,,,NaN,,,,,,,,low,low,,,,,,false,,,,false,584667,584666.7000000011,,584666.5,,584670.846,4,500,,
sequence,flow.Sequence,10_38,2023-11-14T19:45:41.883Z,,,,,,,,,,2462.558000001125,completion,,,,,,,low,low,,,,,,false,,,,false,584667.2000000011,584666.7000000011,582187.557,582193.3000000007,582204.142,584670.846,4,500,,
trial,html.Screen,10_39_0,2023-11-14T19:45:45.232Z,,,,1,0.0247880219471745,-0.0687761754603142,,false,hh,3345.9540000007255,response,0.4586309277487821,0.4689270227375865,-0.4869075184395621,0.4868473399961375,0.4509261393473881,-0.49749999999999944,high,high,,ISIC_0031745.JPG,9,ISIC_0031711.JPG,415,false,hl,keypress(j),0,false,588017,588016.8000000007,584654.34,584667.5,584670.846,588020.789,4,500,40,
break,html.Screen,10_39_1,2023-11-14T19:45:45.233Z,,,,,,,,,,NaN,,,,,,,,high,high,,,,,,false,,,,false,588017.8000000007,588017.5999999996,,588017.3000000007,,588020.789,4,500,,
break_continue,html.Screen,10_39_2,2023-11-14T19:45:45.234Z,,,,,,,,,,NaN,,,,,,,,high,high,,,,,,false,,,,false,588018.3000000007,588018.2000000011,,588017.9000000004,,588020.789,4,500,,
sequence,flow.Sequence,10_39,2023-11-14T19:45:45.234Z,,,,,,,,,,3347.354000001098,completion,,,,,,,high,high,,,,,,false,,,,false,588018.5999999996,588018.2000000011,584654.34,584667.5,584670.846,588020.789,4,500,,
trial,html.Screen,10_40_0,2023-11-14T19:45:47.432Z,,,,1,0.0401045651353626,0.053461375824197,,false,ll,2195.411000001128,response,-0.5942518314420117,0.4689270227375865,-0.4869075184395621,-0.4364230567720126,0.4509261393473881,-0.49749999999999944,low,low,,ISIC_6483504.JPG,10,ISIC_4093484.JPG,488,false,hh,keypress(i),0,false,590216.4000000004,590216.2000000011,588004.15,588018.7000000011,588020.789,590220.791,4,500,41,
break,html.Screen,10_40_1,2023-11-14T19:45:47.433Z,,,,,,,,,,NaN,,,,,,,,low,low,,,,,,false,,,,false,590217.3000000007,590217.0999999996,,590216.8000000007,,590220.791,4,500,,
break_continue,html.Screen,10_40_2,2023-11-14T19:45:47.433Z,,,,,,,,,,NaN,,,,,,,,low,low,,,,,,false,,,,false,590217.8000000007,590217.7000000011,,590217.4000000004,,590220.791,4,500,,
sequence,flow.Sequence,10_40,2023-11-14T19:45:47.433Z,,,,,,,,,,2196.911000001128,completion,,,,,,,low,low,,,,,,false,,,,false,590218.0999999996,590217.7000000011,588004.15,588018.7000000011,588020.789,590220.791,4,500,,
trial,html.Screen,10_41_0,2023-11-14T19:45:53.359Z,,,,1,0.0640778296621707,0.0387686079545705,,false,ll,5922.909000001149,response,-0.322873115723325,0.4689270227375865,-0.4869075184395621,-0.5397456980195916,0.4509261393473881,-0.49749999999999944,low,low,,ISIC_0010124.JPG,9,ISIC_0061558.JPG,488,false,lh,keypress(e),0,false,596143.9000000004,596143.7000000011,590204.225,590218.2000000011,590220.791,596154.147,4,500,42,
break,html.Screen,10_41_1,2023-11-14T19:45:53.360Z,,,,,,,,,,NaN,,,,,,,,low,low,,,,,,false,,,,false,596144.4000000004,596144.2000000011,,596144.0999999996,,596154.147,4,500,,
break_continue,html.Screen,10_41_2,2023-11-14T19:45:53.360Z,,,,,,,,,,NaN,,,,,,,,low,low,,,,,,false,,,,false,596144.5999999996,596144.5999999996,,596144.5,,596154.147,4,500,,
sequence,flow.Sequence,10_41,2023-11-14T19:45:53.360Z,,,,,,,,,,5923.808999999659,completion,,,,,,,low,low,,,,,,false,,,,false,596144.7000000011,596144.5999999996,590204.225,590218.2000000011,590220.791,596154.147,4,500,,
trial,html.Screen,10_42_0,2023-11-14T19:45:55.679Z,,,,1,-0.059471106306043,0.0678292174694111,,false,hl,2309.4529999996303,response,0.3957100248012226,0.4689270227375865,-0.4869075184395621,-0.4288920451182242,0.4509261393473881,-0.49749999999999944,high,low,,ISIC_0015631.JPG,9,ISIC_0062713.JPG,286,false,hh,keypress(i),0,false,598463.7000000011,598463.5999999996,596137.606,596144.8000000007,596154.147,598470.851,4,500,43,
break,html.Screen,10_42_1,2023-11-14T19:45:55.679Z,,,,,,,,,,NaN,,,,,,,,high,low,,,,,,false,,,,false,598464,598464,,598463.8000000007,,598470.851,4,500,,
break_continue,html.Screen,10_42_2,2023-11-14T19:45:55.679Z,,,,,,,,,,NaN,,,,,,,,high,low,,,,,,false,,,,false,598464.2000000011,598464.0999999996,,598464,,598470.851,4,500,,
sequence,flow.Sequence,10_42,2023-11-14T19:45:55.679Z,,,,,,,,,,2309.9529999996303,completion,,,,,,,high,low,,,,,,false,,,,false,598464.2000000011,598464.0999999996,596137.606,596144.8000000007,596154.147,598470.851,4,500,,
trial,html.Screen,10_43_0,2023-11-14T19:45:57.591Z,,,,1,-0.0565575423757561,-0.0394300226801425,,false,hl,1904.6489999999758,response,0.4326601161670867,0.4689270227375865,-0.4869075184395621,-0.6068412604494672,0.4509261393473881,-0.49749999999999944,high,low,,ISIC_0046983.JPG,9,ISIC_2266715.JPG,286,false,hh,keypress(i),0,false,600375.5999999996,600375.5,598454.11,598464.3000000007,598470.851,600387.469,4,500,44,
break,html.Screen,10_43_1,2023-11-14T19:45:57.591Z,,,,,,,,,,NaN,,,,,,,,high,low,,,,,,false,,,,false,600376,600375.9000000004,,600375.8000000007,,600387.469,4,500,,
break_continue,html.Screen,10_43_2,2023-11-14T19:45:57.591Z,,,,,,,,,,NaN,,,,,,,,high,low,,,,,,false,,,,false,600376.0999999996,600376.0999999996,,600376.0999999996,,600387.469,4,500,,
sequence,flow.Sequence,10_43,2023-11-14T19:45:57.591Z,,,,,,,,,,1905.2489999996033,completion,,,,,,,high,low,,,,,,false,,,,false,600376.2000000011,600376.0999999996,598454.11,598464.3000000007,598470.851,600387.469,4,500,,
trial,html.Screen,10_44_0,2023-11-14T19:45:59.375Z,,,,1,-0.0220322185490382,-0.0740918837949419,,false,ll,1772.1309999995865,response,-0.4326504647952779,0.4689270227375865,-0.4869075184395621,-0.3835710346185001,0.4509261393473881,-0.49749999999999944,low,low,,ISIC_8105020.JPG,9,ISIC_4695396.JPG,488,false,hh,keypress(i),0,false,602159.7000000011,602159.5999999996,600370.833,600376.3000000007,600387.469,602170.969,4,500,45,
break,html.Screen,10_44_1,2023-11-14T19:45:59.375Z,,,,,,,,,,NaN,,,,,,,,low,low,,,,,,false,,,,false,602160.2000000011,602160.0999999996,,602159.9000000004,,602170.969,4,500,,
break_continue,html.Screen,10_44_2,2023-11-14T19:45:59.376Z,,,,,,,,,,NaN,,,,,,,,low,low,,,,,,false,,,,false,602160.4000000004,602160.4000000004,,602160.3000000007,,602170.969,4,500,,
sequence,flow.Sequence,10_44,2023-11-14T19:45:59.376Z,,,,,,,,,,1772.9310000003316,completion,,,,,,,low,low,,,,,,false,,,,false,602160.5,602160.4000000004,600370.833,600376.2000000011,600387.469,602170.969,4,500,,
trial,html.Screen,10_45_0,2023-11-14T19:46:02.023Z,,,,1,-0.0265457942157377,-0.0704357137706731,,false,ll,2636.6309999995865,response,-0.556618655322828,0.4689270227375865,-0.4869075184395621,-0.4465634799309011,0.4509261393473881,-0.49749999999999944,low,low,,ISIC_3123377.JPG,9,ISIC_0054391.JPG,488,false,lh,keypress(e),0,false,604807.7000000011,604807.5999999996,602154.263,602160.7000000011,602170.969,604820.966,4,500,46,
break,html.Screen,10_45_1,2023-11-14T19:46:02.023Z,,,,,,,,,,NaN,,,,,,,,low,low,,,,,,false,,,,false,604808.0999999996,604808,,604807.9000000004,,604820.966,4,500,,
break_continue,html.Screen,10_45_2,2023-11-14T19:46:02.023Z,,,,,,,,,,NaN,,,,,,,,low,low,,,,,,false,,,,false,604808.2000000011,604808.2000000011,,604808.0999999996,,604820.966,4,500,,
sequence,flow.Sequence,10_45,2023-11-14T19:46:02.024Z,,,,,,,,,,2637.2310000010766,completion,,,,,,,low,low,,,,,,false,,,,false,604808.3000000007,604808.2000000011,602154.263,602160.7000000011,602170.969,604820.966,4,500,,
trial,html.Screen,10_46_0,2023-11-14T19:46:05.392Z,,,,1,0.063045324701596,-0.0064789751878758,,false,lh,3355.33400000073,response,-0.5466486654706088,0.4689270227375865,-0.4869075184395621,0.2879820677419532,0.4509261393473881,-0.49749999999999944,low,high,,ISIC_5805349.JPG,9,ISIC_9788545.JPG,256,false,hl,keypress(j),0,false,608176.5,608176.3000000007,604804.063,604808.3000000007,604820.966,608187.498,4,500,47,
break,html.Screen,10_46_1,2023-11-14T19:46:05.392Z,,,,,,,,,,NaN,,,,,,,,low,high,,,,,,false,,,,false,608177.0999999996,608177,,608176.7000000011,,608187.498,4,500,,
break_continue,html.Screen,10_46_2,2023-11-14T19:46:05.393Z,,,,,,,,,,NaN,,,,,,,,low,high,,,,,,false,,,,false,608177.5,608177.3000000007,,608177.2000000011,,608187.498,4,500,,
sequence,flow.Sequence,10_46,2023-11-14T19:46:05.393Z,,,,,,,,,,3356.33400000073,completion,,,,,,,low,high,,,,,,false,,,,false,608177.5999999996,608177.3000000007,604804.063,604808.3000000007,604820.966,608187.498,4,500,,
trial,html.Screen,10_47_0,2023-11-14T19:46:08.999Z,,,,1,0.0027483411352856,0.0100996915276271,,false,ll,3595.8020000007236,response,-0.5452811634660165,0.4689270227375865,-0.4869075184395621,-0.5792569301289315,0.4509261393473881,-0.49749999999999944,low,low,,ISIC_7364041.JPG,9,ISIC_0066203.JPG,488,false,lh,keypress(e),0,false,611783.4000000004,611783.3000000007,608170.832,608177.8000000007,608187.498,611787.45,4,500,48,
break,html.Screen,10_47_1,2023-11-14T19:46:08.999Z,,,,,,,,,,NaN,,,,,,,,low,low,,,,,,false,,,,false,611783.7000000011,611783.5999999996,,611783.5,,611787.45,4,500,,
break_continue,html.Screen,10_47_2,2023-11-14T19:46:08.999Z,,,,,,,,,,NaN,,,,,,,,low,low,,,,,,false,,,,false,611783.9000000004,611783.8000000007,,611783.8000000007,,611787.45,4,500,,
sequence,flow.Sequence,10_47,2023-11-14T19:46:08.999Z,,,,,,,,,,3596.3020000007236,completion,,,,,,,low,low,,,,,,false,,,,false,611784,611783.8000000007,608170.832,608177.7000000011,608187.498,611787.45,4,500,,
trial,html.Screen,10_48_0,2023-11-14T19:46:12.791Z,,,,1,-0.0021038737988857,0.0570427519488725,,false,hl,3788.0500000000466,response,0.385946165722195,0.4689270227375865,-0.4869075184395621,-0.3541056918173632,0.4509261393473881,-0.49749999999999944,high,low,,ISIC_3596927.JPG,9,ISIC_9918523.JPG,286,false,lh,keypress(e),0,false,615575.7000000011,615575.5,611770.92,611784,611787.45,615587.719,4,500,49,
break,html.Screen,10_48_1,2023-11-14T19:46:12.791Z,,,,,,,,,,NaN,,,,,,,,high,low,,,,,,false,,,,false,615576,615576,,615575.8000000007,,615587.719,4,500,,
break_continue,html.Screen,10_48_2,2023-11-14T19:46:12.791Z,,,,,,,,,,NaN,,,,,,,,high,low,,,,,,false,,,,false,615576.2000000011,615576.0999999996,,615576.0999999996,,615587.719,4,500,,
sequence,flow.Sequence,10_48,2023-11-14T19:46:12.792Z,,,,,,,,,,3788.649999999674,completion,,,,,,,high,low,,,,,,false,,,,false,615576.2000000011,615576.0999999996,611770.92,611784,611787.45,615587.719,4,500,,
trial,html.Screen,10_49_0,2023-11-14T19:46:14.695Z,,,,1,0.0336891949856763,0.060314732178219,,true,hh,1891.6810000003316,response,0.4765175266639079,0.4689270227375865,-0.4869075184395621,0.5636163500527319,0.4509261393473881,-0.49749999999999944,high,high,,ISIC_6192289.JPG,9,ISIC_1957685.JPG,415,false,hh,keypress(i),0,false,617479.5,617479.4000000004,615570.891,615576.3000000007,615587.719,617487.418,4,500,50,
break,html.Screen,10_49_1,2023-11-14T19:46:14.695Z,,,,,,,,,,NaN,,,,,,,,high,high,,,,,,false,,,,false,617480,617479.9000000004,,617479.7000000011,,617487.418,4,500,,
break_continue,html.Screen,10_49_2,2023-11-14T19:46:14.696Z,,,,,,,,,,NaN,,,,,,,,high,high,,,,,,false,,,,false,617480.4000000004,617480.2000000011,,617480.0999999996,,617487.418,4,500,,
