sender,sender_type,sender_id,timestamp,meta,,age,blockNo,c1,c2,condition,correct,correctResponse,duration,ended_on,f1,f1_high,f1_low,f2,f2_high,f2_low,feature_level1,feature_level2,gender,img_left,img_reveal,img_right,n_target_images,practice,response,response_action,selection_duration,staircase,time_commit,time_end,time_render,time_run,time_show,time_switch,total_blocks,total_trials,trialNo,url
informed_consent,html.Screen,0,2023-11-14T18:38:33.134Z,"{""labjs_version"":""20.2.4"",""labjs_build"":{""flavor"":""development"",""commit"":""f5b4a49f956347addd546a832a3327688c2c0fef""},""location"":""https://labjs.felixhenninger.com/api/labjs_preview/index.html"",""userAgent"":""Mozilla/5.0 (Windows NT 10.0; Win64; x64) AppleWebKit/537.36 (KHTML, like Gecko) Chrome/119.0.0.0 Safari/537.36"",""platform"":""Win32"",""language"":""en-US"",""locale"":""en-US"",""timeZone"":""America/Chicago"",""timezoneOffset"":360,""screen_width"":1920,""screen_height"":1080,""scroll_width"":945,""scroll_height"":918,""window_innerWidth"":945,""window_innerHeight"":966,""devicePixelRatio"":1}",,,,,,,,,9864.65,response,,,,,,,,,,,,,,,consent,click button,,,13997.399999976158,13996,4114.688,4541.399999976158,4131.35,13598.07,,,,{}
Demography form,html.Form,1,2023-11-14T18:38:56.358Z,,,34,,,,,,,23622.43,form submission,,,,,,,,,female,,,,,,,,,,37220.699999928474,37220.5,13581.428,13997.799999952316,13598.07,36814.777,,,,
Welcome,html.Screen,2,2023-11-14T18:38:59.749Z,,,,,,,"[""asym"",""col""]",,,3796.9229999284726,response,,,,,,,,,,,,,,,continue,click button,,,40612.39999997616,40611.699999928474,36781.463,37220.799999952316,36814.777,40198.132,,,,
demo_instructions,html.Screen,3,2023-11-14T18:39:08.598Z,,,,,,,,,,9261.76799997616,response,,,,,,,,,,,,,,,continue,click button,,,49460.799999952316,49459.89999997616,40181.502,40612.5,40198.132,49048.128,,,,
trial,html.Screen,4_0_0,2023-11-14T18:39:24.846Z,,,,0,0.8561946552009824,-0.9282171889213044,,true,lh,16660.972000023845,response,-0.8129823105338526,0.9999999999999998,-0.9999999999999998,0.9655386457143784,0.9999999999999998,-0.9999999999999998,low,high,,ISIC_3065032.JPG,,ISIC_8268025.JPG,24,true,lh,keypress(e),100,false,65709.29999995232,65709.10000002384,49031.564,49460.89999997616,49048.128,65314.825,1,16,1,
sequence,flow.Sequence,4_0,2023-11-14T18:39:24.846Z,,,,,,,,,,16660.972000023845,completion,,,,,,,low,high,,,,,,true,,,,false,65709.60000002384,65709.10000002384,49031.564,49460.89999997616,49048.128,65314.825,1,16,,
trial,html.Screen,4_1_0,2023-11-14T18:39:46.002Z,,,,0,1.1592423187534993,-1.067128884093211,,true,lh,21550.374999928477,response,-1.00615481805876,0.9999999999999998,-0.9999999999999998,0.8428903771195875,0.9999999999999998,-0.9999999999999998,low,high,,ISIC_6854940.JPG,,ISIC_0069970.JPG,24,true,lh,keypress(e),100,false,86865.5,86865.19999992847,65298.167,65709.69999992847,65314.825,86464.848,1,16,2,
sequence,flow.Sequence,4_1,2023-11-14T18:39:46.002Z,,,,,,,,,,21550.374999928477,completion,,,,,,,low,high,,,,,,true,,,,false,86865.69999992847,86865.19999992847,65298.167,65709.60000002384,65314.825,86464.848,1,16,,
trial,html.Screen,4_2_0,2023-11-14T18:39:53.271Z,,,,0,0.8620516892494489,-1.1108509340502866,,true,lh,7669.05199997616,response,-1.00615481805876,0.9999999999999998,-0.9999999999999998,0.8428903771195875,0.9999999999999998,-0.9999999999999998,low,high,,ISIC_5557806.JPG,,ISIC_0069970.JPG,24,true,lh,keypress(e),100,false,94134.10000002384,94133.89999997616,86448.18,86865.79999995232,86464.848,93731.528,1,16,3,
sequence,flow.Sequence,4_2,2023-11-14T18:39:53.271Z,,,,,,,,,,7669.05199997616,completion,,,,,,,low,high,,,,,,true,,,,false,94134.39999997616,94133.89999997616,86448.18,86865.79999995232,86464.848,93731.528,1,16,,
trial,html.Screen,4_3_0,2023-11-14T18:39:56.154Z,,,,0,0.8561946552009824,-0.9282171889213044,,true,lh,3286.2719999523106,response,-0.8923602890201078,0.9999999999999998,-0.9999999999999998,0.8351700666074688,0.9999999999999998,-0.9999999999999998,low,high,,ISIC_3065032.JPG,,ISIC_0033103.JPG,24,true,lh,keypress(e),100,false,97017.89999997616,97017.79999995232,93715.221,94134.5,93731.528,96614.844,1,16,4,
sequence,flow.Sequence,4_3,2023-11-14T18:39:56.155Z,,,,,,,,,,3286.2719999523106,completion,,,,,,,low,high,,,,,,true,,,,false,97018.10000002384,97017.79999995232,93715.221,94134.39999997616,93731.528,96614.844,1,16,,
trial,html.Screen,4_4_0,2023-11-14T18:40:06.382Z,,,,0,0.9464457672695302,0.8245045690591577,,true,ll,10630.455999952319,response,-0.894033318100927,0.9999999999999998,-0.9999999999999998,-0.9842451068179496,0.9999999999999998,-0.9999999999999998,low,low,,ISIC_0027021.JPG,,ISIC_0015298.JPG,111,true,ll,keypress(f),100,false,107245.39999997616,107245.29999995232,96598.176,97018.10000002384,96614.844,106848.239,1,16,5,
sequence,flow.Sequence,4_4,2023-11-14T18:40:06.382Z,,,,,,,,,,10630.455999952319,completion,,,,,,,low,low,,,,,,true,,,,false,107245.69999992847,107245.29999995232,96598.176,97018.10000002384,96614.844,106848.239,1,16,,
trial,html.Screen,4_5_0,2023-11-14T18:40:12.914Z,,,,0,0.9478344010828824,1.1218541416084558,,true,ll,6929.3610000238405,response,-1.0372661581632368,0.9999999999999998,-0.9999999999999998,-0.8527176805053108,0.9999999999999998,-0.9999999999999998,low,low,,ISIC_8252406.JPG,,ISIC_6340792.JPG,111,true,ll,keypress(f),100,false,113777.79999995232,113777.60000002384,106831.844,107245.89999997616,106848.239,113381.549,1,16,6,
sequence,flow.Sequence,4_5,2023-11-14T18:40:12.914Z,,,,,,,,,,6929.3610000238405,completion,,,,,,,low,low,,,,,,true,,,,false,113777.89999997616,113777.60000002384,106831.844,107245.79999995232,106848.239,113381.549,1,16,,
trial,html.Screen,4_6_0,2023-11-14T18:40:16.822Z,,,,0,1.185875658992962,0.9985976786538492,,true,ll,4304.051000023843,response,-0.8299201784919694,0.9999999999999998,-0.9999999999999998,-0.9555257680008306,0.9999999999999998,-0.9999999999999998,low,low,,ISIC_0011703.JPG,,ISIC_6937199.JPG,111,true,ll,keypress(f),100,false,117685.69999992847,117685.60000002384,113364.878,113777.89999997616,113381.549,117281.534,1,16,7,
sequence,flow.Sequence,4_6,2023-11-14T18:40:16.822Z,,,,,,,,,,4304.051000023843,completion,,,,,,,low,low,,,,,,true,,,,false,117685.89999997616,117685.60000002384,113364.878,113777.89999997616,113381.549,117281.534,1,16,,
trial,html.Screen,4_7_0,2023-11-14T18:40:23.867Z,,,,0,1.0762260610050776,1.1184338818466155,,true,ll,7448.765999952317,response,-0.9696118525781644,0.9999999999999998,-0.9999999999999998,-0.9712966348713286,0.9999999999999998,-0.9999999999999998,low,low,,ISIC_0058666.JPG,,ISIC_7927525.JPG,111,true,ll,keypress(f),100,false,124730.5,124730.29999995232,117264.874,117685.89999997616,117281.534,124331.556,1,16,8,
sequence,flow.Sequence,4_7,2023-11-14T18:40:23.867Z,,,,,,,,,,7448.765999952317,completion,,,,,,,low,low,,,,,,true,,,,false,124730.79999995232,124730.29999995232,117264.874,117685.89999997616,117281.534,124331.556,1,16,,
trial,html.Screen,4_8_0,2023-11-14T18:40:32.497Z,,,,0,-1.1890109863264902,0.8867825318561365,,true,hl,9028.843999976161,response,1.1547137855907486,0.9999999999999998,-0.9999999999999998,-1.0185275168641534,0.9999999999999998,-0.9999999999999998,high,low,,ISIC_0072576.JPG,,ISIC_7604870.JPG,24,true,hl,keypress(j),100,false,133360.60000002384,133360.39999997616,124314.893,124730.79999995232,124331.556,132965.069,1,16,9,
sequence,flow.Sequence,4_8,2023-11-14T18:40:32.497Z,,,,,,,,,,9028.843999976161,completion,,,,,,,high,low,,,,,,true,,,,false,133360.79999995232,133360.39999997616,124314.893,124730.79999995232,124331.556,132965.069,1,16,,
trial,html.Screen,4_9_0,2023-11-14T18:40:34.998Z,,,,0,-1.1501717278509027,0.8228936373136835,,true,hl,2895.8309999761696,response,0.9670240379618178,0.9999999999999998,-0.9999999999999998,-1.1806404773220665,0.9999999999999998,-0.9999999999999998,high,low,,ISIC_8398000.JPG,,ISIC_0002288.JPG,24,true,hl,keypress(j),100,false,135861,135860.89999997616,132948.509,133360.89999997616,132965.069,135465.104,1,16,10,
sequence,flow.Sequence,4_9,2023-11-14T18:40:34.998Z,,,,,,,,,,2895.8309999761696,completion,,,,,,,high,low,,,,,,true,,,,false,135861.19999992847,135860.89999997616,132948.509,133360.89999997616,132965.069,135465.104,1,16,,
trial,html.Screen,4_10_0,2023-11-14T18:40:37.627Z,,,,0,-1.00615481805876,0.8428903771195875,,true,hl,3024.396000000008,response,1.0088376543442317,0.9999999999999998,-0.9999999999999998,-0.8023075994977575,0.9999999999999998,-0.9999999999999998,high,low,,ISIC_0069970.JPG,,ISIC_7619234.JPG,24,true,hl,keypress(j),100,false,138489.79999995232,138489.5,135448.321,135861.29999995232,135465.104,138081.809,1,16,11,
sequence,flow.Sequence,4_10,2023-11-14T18:40:37.627Z,,,,,,,,,,3024.396000000008,completion,,,,,,,high,low,,,,,,true,,,,false,138490.10000002384,138489.5,135448.321,135861.19999992847,135465.104,138081.809,1,16,,
trial,html.Screen,4_11_0,2023-11-14T18:40:41.632Z,,,,0,-0.8923602890201078,0.8351700666074688,,true,hl,4413.390999928466,response,1.155796217969438,0.9999999999999998,-0.9999999999999998,-1.1646564121743912,0.9999999999999998,-0.9999999999999998,high,low,,ISIC_0033103.JPG,,ISIC_2685523.JPG,24,true,hl,keypress(j),100,false,142495.5,142495.19999992847,138064.932,138490.19999992847,138081.809,142098.238,1,16,12,
sequence,flow.Sequence,4_11,2023-11-14T18:40:41.632Z,,,,,,,,,,4413.390999928466,completion,,,,,,,high,low,,,,,,true,,,,false,142495.69999992847,142495.19999992847,138064.932,138490.19999992847,138081.809,142098.238,1,16,,
trial,html.Screen,4_12_0,2023-11-14T18:40:46.837Z,,,,0,-1.004164099430695,-1.0674669038247562,,true,hh,5602.36200002383,response,0.9588812385345452,0.9999999999999998,-0.9999999999999998,0.9060043635318688,0.9999999999999998,-0.9999999999999998,high,high,,ISIC_0541345.JPG,,ISIC_0069986.JPG,154,true,hh,keypress(i),100,false,147700.69999992847,147700.60000002384,142081.561,142495.69999992847,142098.238,147298.231,1,16,13,
sequence,flow.Sequence,4_12,2023-11-14T18:40:46.838Z,,,,,,,,,,5602.36200002383,completion,,,,,,,high,high,,,,,,true,,,,false,147700.89999997616,147700.60000002384,142081.561,142495.69999992847,142098.238,147298.231,1,16,,
trial,html.Screen,4_13_0,2023-11-14T18:40:55.819Z,,,,0,-0.8317161304163111,-1.1627560037277045,,true,hh,9383.769,response,0.9464457672695302,0.9999999999999998,-0.9999999999999998,0.8245045690591577,0.9999999999999998,-0.9999999999999998,high,high,,ISIC_5909403.JPG,,ISIC_0027021.JPG,154,true,hh,keypress(i),100,false,156682.10000002384,156682,147281.58,147701,147298.231,156281.576,1,16,14,
sequence,flow.Sequence,4_13,2023-11-14T18:40:55.819Z,,,,,,,,,,9383.769,completion,,,,,,,high,high,,,,,,true,,,,false,156682.19999992847,156682,147281.58,147701,147298.231,156281.576,1,16,,
trial,html.Screen,4_14_0,2023-11-14T18:40:57.807Z,,,,0,-0.8683575372693808,-1.1767706219911918,,true,hh,2388.823999976157,response,1.0698162624196283,0.9999999999999998,-0.9999999999999998,1.0648460966097275,0.9999999999999998,-0.9999999999999998,high,high,,ISIC_0006332.JPG,,ISIC_0030552.JPG,154,true,hh,keypress(i),100,false,158670.5,158670.39999997616,156264.924,156682.29999995232,156281.576,158264.926,1,16,15,
sequence,flow.Sequence,4_14,2023-11-14T18:40:57.807Z,,,,,,,,,,2388.823999976157,completion,,,,,,,high,high,,,,,,true,,,,false,158670.69999992847,158670.39999997616,156264.924,156682.19999992847,156281.576,158264.926,1,16,,
trial,html.Screen,4_15_0,2023-11-14T18:41:00.770Z,,,,0,-0.8150954316817084,-0.9747349048723576,,true,hh,3368.4739999761514,response,0.9926496793263212,0.9999999999999998,-0.9999999999999998,1.0520809837712837,0.9999999999999998,-0.9999999999999998,high,high,,ISIC_0026552.JPG,,ISIC_0062686.JPG,154,true,hh,keypress(i),100,false,161633.60000002384,161633.39999997616,158248.261,158670.79999995232,158264.926,161231.583,1,16,16,
sequence,flow.Sequence,4_15,2023-11-14T18:41:00.770Z,,,,,,,,,,3368.4739999761514,completion,,,,,,,high,high,,,,,,true,,,,false,161633.79999995232,161633.39999997616,158248.261,158670.79999995232,158264.926,161231.583,1,16,,
demonstration_loop,flow.Loop,4,2023-11-14T18:41:00.771Z,,,,,,,,,,112585.27199997616,completion,,,,,,,,,,,,,,true,,,,false,161633.79999995232,161633.39999997616,49031.564,49460.89999997616,49048.128,161231.583,1,16,,
practice_instructions,html.Screen,5,2023-11-14T18:41:55.206Z,,,,,,,,,,54828.316999976145,response,,,,,,,,,,,,,,,continue,click button,,,216069.69999992847,216059.89999997616,161214.972,161633.79999995232,161231.583,215648.303,,,,
trial,html.Screen,6_0_0,2023-11-14T18:42:05.890Z,,,,1,1.1592423187534993,-1.067128884093211,,,,10683.319999999978,timeout,-0.8479396253253069,0.9999999999999998,-0.9999999999999998,1.011054319516718,0.9999999999999998,-0.9999999999999998,low,high,,ISIC_6854940.JPG,,ISIC_0063521.JPG,24,true,,,0,false,226753.60000002384,226753.39999997616,215631.754,216069.79999995232,215648.303,226331.623,1,20,1,
sequence,flow.Sequence,6_0,2023-11-14T18:42:05.890Z,,,,,,,,,,11105.096999976144,completion,,,,,,,low,high,,,,,,true,,,,false,226753.69999992847,226753.39999997616,215631.754,216069.79999995232,215648.303,226331.623,1,20,,
trial,html.Screen,6_1_0,2023-11-14T18:42:07.927Z,,,,1,1.033120591224746,0.9169816067930722,,false,ll,2458.276999976166,response,-1.1638334638021437,0.9999999999999998,-0.9999999999999998,-1.0846635401396965,0.9999999999999998,-0.9999999999999998,low,low,,ISIC_0033027.JPG,,ISIC_4718313.JPG,111,true,lh,keypress(e),0,false,228790.10000002384,228789.89999997616,226315.035,226753.79999995232,226331.623,228398.639,1,20,2,
sequence,flow.Sequence,6_1,2023-11-14T18:42:07.927Z,,,,,,,,,,2458.276999976166,completion,,,,,,,low,low,,,,,,true,,,,false,228790.39999997616,228789.89999997616,226315.035,226753.79999995232,226331.623,228398.639,1,20,,
trial,html.Screen,6_2_0,2023-11-14T18:42:11.430Z,,,,1,1.042408629210669,0.868184396474685,,true,ll,3894.1609999523207,response,-0.913084438298574,0.9999999999999998,-0.9999999999999998,-0.8279199409322678,0.9999999999999998,-0.9999999999999998,low,low,,ISIC_0026738.JPG,,ISIC_8637134.JPG,111,true,ll,keypress(f),0,false,232293,232292.79999995232,228381.918,228790.5,228398.639,231881.834,1,20,3,
sequence,flow.Sequence,6_2,2023-11-14T18:42:11.430Z,,,,,,,,,,3894.1609999523207,completion,,,,,,,low,low,,,,,,true,,,,false,232293.10000002384,232292.79999995232,228381.918,228790.39999997616,228398.639,231881.834,1,20,,
trial,html.Screen,6_3_0,2023-11-14T18:42:15.941Z,,,,1,-0.9445114955578736,1.0054210059625863,,true,hl,4922.665999999997,response,0.9566823908868002,0.9999999999999998,-0.9999999999999998,-0.9602125665128364,0.9999999999999998,-0.9999999999999998,high,low,,ISIC_0033807.JPG,,ISIC_0056784.JPG,24,true,hl,keypress(j),0,false,236804.60000002384,236804.5,231864.967,232293.10000002384,231881.834,236381.658,1,20,4,
sequence,flow.Sequence,6_3,2023-11-14T18:42:15.941Z,,,,,,,,,,4922.665999999997,completion,,,,,,,high,low,,,,,,true,,,,false,236804.60000002384,236804.5,231864.967,232293.10000002384,231881.834,236381.658,1,20,,
trial,html.Screen,6_4_0,2023-11-14T18:42:18.502Z,,,,1,1.1592423187534993,-1.067128884093211,,true,lh,2983.442000023846,response,-1.0003671514840182,0.9999999999999998,-0.9999999999999998,0.8992716557663581,0.9999999999999998,-0.9999999999999998,low,high,,ISIC_6854940.JPG,,ISIC_0061749.JPG,24,true,lh,keypress(e),0,false,239365.19999992847,239365.10000002384,236365.153,236804.69999992847,236381.658,238948.401,1,20,5,
sequence,flow.Sequence,6_4,2023-11-14T18:42:18.502Z,,,,,,,,,,2983.442000023846,completion,,,,,,,low,high,,,,,,true,,,,false,239365.5,239365.10000002384,236365.153,236804.69999992847,236381.658,238948.401,1,20,,
trial,html.Screen,6_5_0,2023-11-14T18:42:21.575Z,,,,1,1.0822170028935367,-1.1654796154432183,,true,lh,3489.298999928462,response,-0.9039158082670506,0.9999999999999998,-0.9999999999999998,1.0517562064343149,0.9999999999999998,-0.9999999999999998,low,high,,ISIC_7288818.JPG,,ISIC_0015411.JPG,24,true,lh,keypress(e),0,false,242438,242437.69999992847,238931.688,239365.5,238948.401,242031.773,1,20,6,
sequence,flow.Sequence,6_5,2023-11-14T18:42:21.575Z,,,,,,,,,,3489.298999928462,completion,,,,,,,low,high,,,,,,true,,,,false,242438.5,242437.69999992847,238931.688,239365.5,238948.401,242031.773,1,20,,
trial,html.Screen,6_6_0,2023-11-14T18:42:23.893Z,,,,1,0.8330105500669435,1.0795444519180726,,true,ll,2724.7270000000135,response,-0.9949679201447648,0.9999999999999998,-0.9999999999999998,-1.0468574143792184,0.9999999999999998,-0.9999999999999998,low,low,,ISIC_0030921.JPG,,ISIC_6640753.JPG,111,true,ll,keypress(f),0,false,244756.60000002384,244756.5,241998.574,242438.79999995232,242031.773,244348.315,1,20,7,
sequence,flow.Sequence,6_6,2023-11-14T18:42:23.894Z,,,,,,,,,,2724.7270000000135,completion,,,,,,,low,low,,,,,,true,,,,false,244756.79999995232,244756.5,241998.574,242438.69999992847,242031.773,244348.315,1,20,,
trial,html.Screen,6_7_0,2023-11-14T18:42:25.766Z,,,,1,-1.1569583426015195,-1.02258614327008,,true,hh,2280.584999976156,response,0.838053327796249,0.9999999999999998,-0.9999999999999998,0.9376491160549733,0.9999999999999998,-0.9999999999999998,high,high,,ISIC_5705973.JPG,,ISIC_4834687.JPG,154,true,hh,keypress(i),0,false,246629.10000002384,246628.89999997616,244331.65,244756.79999995232,244348.315,246215.129,1,20,8,
sequence,flow.Sequence,6_7,2023-11-14T18:42:25.766Z,,,,,,,,,,2280.584999976156,completion,,,,,,,high,high,,,,,,true,,,,false,246629.19999992847,246628.89999997616,244331.65,244756.79999995232,244348.315,246215.129,1,20,,
trial,html.Screen,6_8_0,2023-11-14T18:42:27.302Z,,,,1,0.8161955089001555,0.8163157349016503,,true,ll,1949.4710000238556,response,-0.881950258866775,0.9999999999999998,-0.9999999999999998,-1.1045276933275867,0.9999999999999998,-0.9999999999999998,low,low,,ISIC_0030139.JPG,,ISIC_4718237.JPG,111,true,ll,keypress(f),0,false,248164.79999995232,248164.60000002384,246198.321,246629.29999995232,246215.129,247748.351,1,20,9,
sequence,flow.Sequence,6_8,2023-11-14T18:42:27.302Z,,,,,,,,,,1949.4710000238556,completion,,,,,,,low,low,,,,,,true,,,,false,248164.89999997616,248164.60000002384,246198.321,246629.29999995232,246215.129,247748.351,1,20,,
trial,html.Screen,6_9_0,2023-11-14T18:42:28.869Z,,,,1,-0.8093178584833343,-1.0139833925057518,,true,hh,1984.048999976163,response,0.9926496793263212,0.9999999999999998,-0.9999999999999998,1.0520809837712837,0.9999999999999998,-0.9999999999999998,high,high,,ISIC_6171084.JPG,,ISIC_0062686.JPG,154,true,hh,keypress(i),0,false,249732.5,249732.39999997616,247731.725,248164.89999997616,247748.351,249314.992,1,20,10,
sequence,flow.Sequence,6_9,2023-11-14T18:42:28.869Z,,,,,,,,,,1984.048999976163,completion,,,,,,,high,high,,,,,,true,,,,false,249732.60000002384,249732.39999997616,247731.725,248164.89999997616,247748.351,249314.992,1,20,,
trial,html.Screen,6_10_0,2023-11-14T18:42:30.309Z,,,,1,-1.1224745971429997,0.8423270217438888,,true,hl,1857.6080000238435,response,0.8015753713975186,0.9999999999999998,-0.9999999999999998,-1.0067065355978264,0.9999999999999998,-0.9999999999999998,high,low,,ISIC_0057032.JPG,,ISIC_0002119.JPG,24,true,hl,keypress(j),0,false,251172.60000002384,251172.60000002384,249298.34,249732.69999992847,249314.992,250764.993,1,20,11,
sequence,flow.Sequence,6_10,2023-11-14T18:42:30.310Z,,,,,,,,,,1857.6080000238435,completion,,,,,,,high,low,,,,,,true,,,,false,251172.79999995232,251172.60000002384,249298.34,249732.69999992847,249314.992,250764.993,1,20,,
trial,html.Screen,6_11_0,2023-11-14T18:42:32.359Z,,,,1,-0.8070820195894357,0.8958120092147633,,true,hl,2456.607000023854,response,0.9225524349657857,0.9999999999999998,-0.9999999999999998,-0.929746784178986,0.9999999999999998,-0.9999999999999998,high,low,,ISIC_0060585.JPG,,ISIC_0011077.JPG,24,true,hl,keypress(j),0,false,253221.89999997616,253221.60000002384,250748.342,251172.79999995232,250764.993,252815.083,1,20,12,
sequence,flow.Sequence,6_11,2023-11-14T18:42:32.359Z,,,,,,,,,,2456.607000023854,completion,,,,,,,high,low,,,,,,true,,,,false,253222.39999997616,253221.60000002384,250748.342,251172.79999995232,250764.993,252815.083,1,20,,
trial,html.Screen,6_12_0,2023-11-14T18:42:33.734Z,,,,1,-1.084404366274825,-0.8428187899450872,,true,hh,1782.0170000238286,response,0.9263931440503964,0.9999999999999998,-0.9999999999999998,0.96519839238634,0.9999999999999998,-0.9999999999999998,high,high,,ISIC_3530422.JPG,,ISIC_0053617.JPG,154,true,hh,keypress(i),0,false,254597.39999997616,254597.10000002384,252798.298,253222.69999992847,252815.083,254181.634,1,20,13,
sequence,flow.Sequence,6_12,2023-11-14T18:42:33.734Z,,,,,,,,,,1782.0170000238286,completion,,,,,,,high,high,,,,,,true,,,,false,254597.60000002384,254597.10000002384,252798.298,253222.60000002384,252815.083,254181.634,1,20,,
trial,html.Screen,6_13_0,2023-11-14T18:42:35.174Z,,,,1,-1.064425982109969,0.958564243697126,,true,hl,1855.2659999761672,response,0.9046170303418553,0.9999999999999998,-0.9999999999999998,-1.0063426986460375,0.9999999999999998,-0.9999999999999998,high,low,,ISIC_3203344.JPG,,ISIC_0055759.JPG,24,true,hl,keypress(j),0,false,256037.10000002384,256036.89999997616,254165.038,254597.79999995232,254181.634,255615.019,1,20,14,
sequence,flow.Sequence,6_13,2023-11-14T18:42:35.174Z,,,,,,,,,,1855.2659999761672,completion,,,,,,,high,low,,,,,,true,,,,false,256037.29999995232,256036.89999997616,254165.038,254597.79999995232,254181.634,255615.019,1,20,,
trial,html.Screen,6_14_0,2023-11-14T18:42:36.309Z,,,,1,-0.9840050049609405,-1.1927876559115576,,true,hh,1557.5810000238416,response,1.1048442481887897,0.9999999999999998,-0.9999999999999998,0.8090139128440115,0.9999999999999998,-0.9999999999999998,high,high,,ISIC_8651053.JPG,,ISIC_0057539.JPG,154,true,hh,keypress(i),0,false,257172.69999992847,257172.60000002384,255598.534,256037.39999997616,255615.019,256765.018,1,20,15,
sequence,flow.Sequence,6_14,2023-11-14T18:42:36.310Z,,,,,,,,,,1557.5810000238416,completion,,,,,,,high,high,,,,,,true,,,,false,257172.79999995232,257172.60000002384,255598.534,256037.29999995232,255615.019,256765.018,1,20,,
trial,html.Screen,6_15_0,2023-11-14T18:42:37.686Z,,,,1,0.9566823908868002,-0.9602125665128364,,true,lh,1783.6819999284635,response,-1.1224745971429997,0.9999999999999998,-0.9999999999999998,0.8423270217438888,0.9999999999999998,-0.9999999999999998,low,high,,ISIC_0056784.JPG,,ISIC_0057032.JPG,24,true,lh,keypress(e),0,false,258548.79999995232,258548.69999992847,256748.442,257172.89999997616,256765.018,258131.667,1,20,16,
sequence,flow.Sequence,6_15,2023-11-14T18:42:37.686Z,,,,,,,,,,1783.6819999284635,completion,,,,,,,low,high,,,,,,true,,,,false,258548.89999997616,258548.69999992847,256748.442,257172.79999995232,256765.018,258131.667,1,20,,
trial,html.Screen,6_16_0,2023-11-14T18:42:38.709Z,,,,1,0.8542403401067127,0.8471646801526567,,true,ll,1440.6329999523296,response,-0.913084438298574,0.9999999999999998,-0.9999999999999998,-0.8279199409322678,0.9999999999999998,-0.9999999999999998,low,low,,ISIC_0010140.JPG,,ISIC_8637134.JPG,111,true,ll,keypress(f),0,false,259572.39999997616,259572.29999995232,258115.392,258549,258131.667,259165.051,1,20,17,
sequence,flow.Sequence,6_16,2023-11-14T18:42:38.709Z,,,,,,,,,,1440.6329999523296,completion,,,,,,,low,low,,,,,,true,,,,false,259572.60000002384,259572.29999995232,258115.392,258548.89999997616,258131.667,259165.051,1,20,,
trial,html.Screen,6_17_0,2023-11-14T18:42:40.037Z,,,,1,-1.1224745971429997,0.8423270217438888,,true,hl,1735.549000023835,response,0.8087127179888679,0.9999999999999998,-0.9999999999999998,-0.8480635840272462,0.9999999999999998,-0.9999999999999998,high,low,,ISIC_0057032.JPG,,ISIC_3941147.JPG,24,true,hl,keypress(j),0,false,260900.69999992847,260900.60000002384,259148.321,259572.60000002384,259165.051,260481.674,1,20,18,
sequence,flow.Sequence,6_17,2023-11-14T18:42:40.038Z,,,,,,,,,,1735.549000023835,completion,,,,,,,high,low,,,,,,true,,,,false,260900.89999997616,260900.60000002384,259148.321,259572.60000002384,259165.051,260481.674,1,20,,
trial,html.Screen,6_18_0,2023-11-14T18:42:42.422Z,,,,1,-1.084404366274825,-0.8428187899450872,,true,hh,2803.426000023843,response,0.8627799752848101,0.9999999999999998,-0.9999999999999998,0.9479141048747124,0.9999999999999998,-0.9999999999999998,high,high,,ISIC_3530422.JPG,,ISIC_9615486.JPG,154,true,hh,keypress(i),0,false,263285.2999999523,263285.10000002384,260465.349,260900.89999997616,260481.674,262865.037,1,20,19,
sequence,flow.Sequence,6_18,2023-11-14T18:42:42.422Z,,,,,,,,,,2803.426000023843,completion,,,,,,,high,high,,,,,,true,,,,false,263285.5,263285.10000002384,260465.349,260900.89999997616,260481.674,262865.037,1,20,,
trial,html.Screen,6_19_0,2023-11-14T18:42:43.925Z,,,,1,1.0700930503975157,-0.923753102263735,,true,lh,1923.362999976147,response,-0.9039158082670506,0.9999999999999998,-0.9999999999999998,1.0517562064343149,0.9999999999999998,-0.9999999999999998,low,high,,ISIC_0000022.JPG,,ISIC_0015411.JPG,24,true,lh,keypress(e),0,false,264788.5,264788.39999997616,262848.554,263285.60000002384,262865.037,264382.963,1,20,20,
sequence,flow.Sequence,6_19,2023-11-14T18:42:43.925Z,,,,,,,,,,1923.362999976147,completion,,,,,,,low,high,,,,,,true,,,,false,264788.6999999285,264788.39999997616,262848.554,263285.5,262865.037,264382.963,1,20,,
practice_loop,flow.Loop,6,2023-11-14T18:42:43.925Z,,,,,,,,,,49140.096999976144,completion,,,,,,,,,,,,,,true,,,,false,264788.6999999285,264788.39999997616,215631.754,216069.79999995232,215648.303,264382.963,1,20,,
stair_instructions,html.Screen,7,2023-11-14T18:42:45.917Z,,,,,,,,,,2396.7369999284856,response,,,,,,,,,,,,,,,continue,click button,,,266780.1999999285,266779.6999999285,264348.364,264788.7999999523,264382.963,266365.01,,,,
trial,html.Screen,8_0_0,2023-11-14T18:42:56.599Z,,,,2,-0.0199897690678184,-0.0312486875504497,,,,10683.383999999962,timeout,0.9225524349657857,0.9999999999999998,-0.9999999999999998,-0.929746784178986,0.9999999999999998,-0.9999999999999998,high,low,,ISIC_5482426.JPG,,ISIC_0011077.JPG,24,false,,,0,true,277462.60000002384,277462.39999997616,266348.578,266780.39999997616,266365.01,277048.394,1,40,1,
sequence,flow.Sequence,8_0,2023-11-14T18:42:56.600Z,,,,,,,,,,11097.389999976149,completion,,,,,,,high,low,,,,,,false,,,,true,277462.7999999523,277462.39999997616,266348.578,266780.39999997616,266365.01,277048.394,1,40,,
trial,html.Screen,8_1_0,2023-11-14T18:43:04.601Z,,,,2,0.0700745968706567,0.013891147856594,,true,lh,8416.005999976187,response,-1.0003671514840182,0.9999999999999998,-0.9999999999999998,0.8992716557663581,0.9999999999999998,-0.9999999999999998,low,high,,ISIC_0054663.JPG,,ISIC_0061749.JPG,24,false,lh,keypress(e),0,true,285464.5,285464.39999997616,277031.687,277462.7999999523,277048.394,285065.25,1,40,2,
sequence,flow.Sequence,8_1,2023-11-14T18:43:04.601Z,,,,,,,,,,8416.005999976187,completion,,,,,,,low,high,,,,,,false,,,,true,285464.60000002384,285464.39999997616,277031.687,277462.7999999523,277048.394,285065.25,1,40,,
trial,html.Screen,8_2_0,2023-11-14T18:43:09.910Z,,,,2,0.00126575685933,0.0325046559638838,,false,lh,5707.449999928474,response,-0.8479396253253069,0.9499999999999997,-0.9499999999999997,1.011054319516718,0.9499999999999997,-0.9499999999999997,low,high,,ISIC_5682259.JPG,,ISIC_0063521.JPG,30,false,hh,keypress(i),0,true,290772.7999999523,290772.6999999285,285048.415,285464.60000002384,285065.25,290365.258,1,40,3,
sequence,flow.Sequence,8_2,2023-11-14T18:43:09.910Z,,,,,,,,,,5707.449999928474,completion,,,,,,,low,high,,,,,,false,,,,true,290773,290772.6999999285,285048.415,285464.60000002384,285065.25,290365.258,1,40,,
trial,html.Screen,8_3_0,2023-11-14T18:43:16.550Z,,,,2,-0.0191999585302269,0.0745789212985316,,false,ll,7047.641999976186,response,-0.8529242055711017,0.8999999999999997,-0.9499999999999997,-1.0761216763182415,0.9499999999999997,-0.8999999999999997,low,low,,ISIC_4024062.JPG,,ISIC_8169564.JPG,150,false,hh,keypress(i),0,true,297413,297412.89999997616,290348.371,290773,290365.258,296998.416,1,40,4,
sequence,flow.Sequence,8_3,2023-11-14T18:43:16.550Z,,,,,,,,,,7047.641999976186,completion,,,,,,,low,low,,,,,,false,,,,true,297413.1999999285,297412.89999997616,290348.371,290773,290365.258,296998.416,1,40,,
trial,html.Screen,8_4_0,2023-11-14T18:43:20.261Z,,,,2,0.0310298232022856,0.0697438859399019,,false,lh,4125.783999928448,response,-1.1162273456306029,0.8499999999999996,-0.9499999999999997,0.7890271955816722,0.8999999999999997,-0.8999999999999997,low,high,,ISIC_0027669.JPG,,ISIC_0011564.JPG,38,false,hh,keypress(i),0,true,301124.39999997616,301124.1999999285,296981.767,297413.1999999285,296998.416,300715.039,1,40,5,
sequence,flow.Sequence,8_4,2023-11-14T18:43:20.261Z,,,,,,,,,,4125.783999928448,completion,,,,,,,low,high,,,,,,false,,,,true,301124.60000002384,301124.1999999285,296981.767,297413.1999999285,296998.416,300715.039,1,40,,
trial,html.Screen,8_5_0,2023-11-14T18:43:23.960Z,,,,2,-0.0051046740562181,0.0178832721027728,,true,lh,4108.360999976168,response,-1.064425982109969,0.7999999999999996,-0.9499999999999997,0.958564243697126,0.8999999999999997,-0.8499999999999996,low,high,,ISIC_9545819.JPG,,ISIC_3203344.JPG,38,false,lh,keypress(e),0,true,304823.39999997616,304823.39999997616,300698.351,301124.60000002384,300715.039,304415.066,1,40,6,
sequence,flow.Sequence,8_5,2023-11-14T18:43:23.960Z,,,,,,,,,,4108.360999976168,completion,,,,,,,low,high,,,,,,false,,,,true,304823.5,304823.39999997616,300698.351,301124.60000002384,300715.039,304415.066,1,40,,
trial,html.Screen,8_6_0,2023-11-14T18:43:26.102Z,,,,2,-0.0245246789155119,0.0615355901813596,,true,lh,2549.9340000000084,response,-0.8177771921122365,0.7499999999999996,-0.8999999999999997,0.6668515442923276,0.773795719639399,-0.7999999999999996,low,high,,ISIC_0034144.JPG,,ISIC_0031018.JPG,60,false,lh,keypress(e),0,true,306965.10000002384,306965,304398.317,304823.6999999285,304415.066,306548.393,1,40,7,
sequence,flow.Sequence,8_6,2023-11-14T18:43:26.102Z,,,,,,,,,,2549.9340000000084,completion,,,,,,,low,high,,,,,,false,,,,true,306965.2999999523,306965,304398.317,304823.6999999285,304415.066,306548.393,1,40,,
trial,html.Screen,8_7_0,2023-11-14T18:43:30.182Z,,,,2,-0.0365381185115645,0.0498888424276865,,false,hh,4496.406999952334,response,0.5651986530326082,0.6999999999999995,-0.8411015871111027,0.708327734553696,0.7237957196393989,-0.7499999999999996,high,high,,ISIC_0682543.JPG,,ISIC_0010174.JPG,278,false,hl,keypress(j),0,true,311044.89999997616,311044.7999999523,306531.712,306965.39999997616,306548.393,310632.036,1,40,8,
sequence,flow.Sequence,8_7,2023-11-14T18:43:30.182Z,,,,,,,,,,4496.406999952334,completion,,,,,,,high,high,,,,,,false,,,,true,311045.10000002384,311044.7999999523,306531.712,306965.2999999523,306548.393,310632.036,1,40,,
trial,html.Screen,8_8_0,2023-11-14T18:43:35.030Z,,,,2,-0.0086413421586899,-0.0360184993500958,,true,ll,5261.06400002382,response,-0.9336076953300873,0.6999999999999995,-0.7911015871111027,-0.673100990723688,0.7237957196393989,-0.6999999999999995,low,low,,ISIC_0010767.JPG,,ISIC_9079361.JPG,269,false,ll,keypress(f),0,true,315893.39999997616,315893.10000002384,310615,311045.10000002384,310632.036,315481.975,1,40,9,
sequence,flow.Sequence,8_8,2023-11-14T18:43:35.030Z,,,,,,,,,,5261.06400002382,completion,,,,,,,low,low,,,,,,false,,,,true,315893.60000002384,315893.10000002384,310615,311045.10000002384,310632.036,315481.975,1,40,,
trial,html.Screen,8_9_0,2023-11-14T18:43:37.478Z,,,,2,0.0166849894750452,-0.0371614812368835,,false,hh,2858.7249999284977,response,0.6066507471217834,0.6499999999999995,-0.7411015871111026,0.546332029272941,0.6737957196393989,-0.6499999999999995,high,high,,ISIC_6231450.JPG,,ISIC_0068215.JPG,298,false,ll,keypress(f),0,true,318340.89999997616,318340.6999999285,315464.985,315893.6999999285,315481.975,317931.742,1,40,10,
sequence,flow.Sequence,8_9,2023-11-14T18:43:37.478Z,,,,,,,,,,2858.7249999284977,completion,,,,,,,high,high,,,,,,false,,,,true,318341,318340.6999999285,315464.985,315893.6999999285,315481.975,317931.742,1,40,,
trial,html.Screen,8_10_0,2023-11-14T18:43:40.309Z,,,,2,0.0629926578251803,-0.0626296407938785,,true,hl,3240.957999928447,response,0.4957937618748061,0.6499999999999995,-0.6911015871111026,-0.4435302504546982,0.6737957196393989,-0.5999999999999994,high,low,,ISIC_0027043.JPG,,ISIC_0068382.JPG,180,false,hl,keypress(j),0,true,321172.6999999285,321172.6999999285,317915.105,318341.10000002384,317931.742,320765.156,1,40,11,
sequence,flow.Sequence,8_10,2023-11-14T18:43:40.310Z,,,,,,,,,,3240.957999928447,completion,,,,,,,high,low,,,,,,false,,,,true,321172.89999997616,321172.6999999285,317915.105,318341.10000002384,317931.742,320765.156,1,40,,
trial,html.Screen,8_11_0,2023-11-14T18:43:43.317Z,,,,2,0.0539169177295974,-0.039571352787207,,false,hl,3415.3439999999828,response,0.4653721166166787,0.5999999999999994,-0.6411015871111025,-0.3394101060324473,0.6237957196393988,-0.458315620589193,high,low,,ISIC_1076091.JPG,,ISIC_5476277.JPG,251,false,ll,keypress(f),0,true,324180.5,324180.5,320748.724,321172.89999997616,320765.156,323765.306,1,40,12,
sequence,flow.Sequence,8_11,2023-11-14T18:43:43.317Z,,,,,,,,,,3415.3439999999828,completion,,,,,,,high,low,,,,,,false,,,,true,324180.6999999285,324180.5,320748.724,321172.89999997616,320765.156,323765.306,1,40,,
trial,html.Screen,8_12_0,2023-11-14T18:43:47.045Z,,,,2,-0.0207120852539861,-0.0589023744433183,,false,ll,4143.29400002386,response,-0.5086323311343484,0.5999999999999994,-0.5911015871111025,-0.6098018156457494,0.5737957196393988,-0.458315620589193,low,low,,ISIC_7973601.JPG,,ISIC_1251639.JPG,434,false,hh,keypress(i),0,true,327908.60000002384,327908.60000002384,323748.676,324180.7999999523,323765.306,327498.769,1,40,13,
sequence,flow.Sequence,8_12,2023-11-14T18:43:47.046Z,,,,,,,,,,4143.29400002386,completion,,,,,,,low,low,,,,,,false,,,,true,327908.6999999285,327908.60000002384,323748.676,324180.6999999285,323765.306,327498.769,1,40,,
trial,html.Screen,8_13_0,2023-11-14T18:43:50.038Z,,,,2,-0.010035581303589,0.0100711721396864,,false,hh,3401.9309999285033,response,0.5761048106635854,0.5499999999999994,-0.5911015871111025,0.6731232186734267,0.5237957196393987,-0.458315620589193,high,high,,ISIC_0030592.JPG,,ISIC_6666329.JPG,341,false,hl,keypress(j),0,true,330900.7999999523,330900.6999999285,327481.66,327908.7999999523,327498.769,330481.752,1,40,14,
sequence,flow.Sequence,8_13,2023-11-14T18:43:50.038Z,,,,,,,,,,3401.9309999285033,completion,,,,,,,high,high,,,,,,false,,,,true,330901,330900.6999999285,327481.66,327908.7999999523,327498.769,330481.752,1,40,,
trial,html.Screen,8_14_0,2023-11-14T18:43:52.598Z,,,,2,-0.0597592587797575,,,false,hh,2979.447999928496,response,0.3822597566154304,0.5499999999999994,-0.5411015871111025,0.3850148405126631,0.5237957196393987,-0.458315620589193,high,high,,ISIC_0071367.JPG,,ISIC_1344537.JPG,341,false,hl,keypress(j),0,true,333461.39999997616,333461.1999999285,330465.034,330901.10000002384,330481.752,333048.711,1,40,15,
sequence,flow.Sequence,8_14,2023-11-14T18:43:52.598Z,,,,,,,,,,2979.447999928496,completion,,,,,,,high,high,,,,,,false,,,,true,333461.60000002384,333461.1999999285,330465.034,330901.10000002384,330481.752,333048.711,1,40,,
trial,html.Screen,8_15_0,2023-11-14T18:43:54.341Z,,,,2,-0.004212480280886,-0.0518491070608022,,true,hl,2155.7889999999898,response,0.72202146737383,0.5499999999999994,-0.49110158711110247,-0.5901348732973258,0.5237957196393987,-0.458315620589193,high,low,,ISIC_2945324.JPG,,ISIC_0013618.JPG,265,false,hl,keypress(j),0,true,335204.60000002384,335204.5,333031.788,333461.6999999285,333048.711,334781.753,1,40,16,
sequence,flow.Sequence,8_15,2023-11-14T18:43:54.342Z,,,,,,,,,,2155.7889999999898,completion,,,,,,,high,low,,,,,,false,,,,true,335204.7999999523,335204.5,333031.788,333461.6999999285,333048.711,334781.753,1,40,,
trial,html.Screen,8_16_0,2023-11-14T18:43:57.061Z,,,,2,-0.0296179945324451,-0.074433472160252,,true,ll,3142.847000023816,response,-0.4045699691169919,0.4521406119946301,-0.49110158711110247,-0.316837050279489,0.47379571963939876,-0.458315620589193,low,low,,ISIC_0026982.JPG,,ISIC_9271800.JPG,460,false,ll,keypress(f),0,true,337924.7999999523,337924.60000002384,334765.144,335204.7999999523,334781.753,337515.105,1,40,17,
sequence,flow.Sequence,8_16,2023-11-14T18:43:57.062Z,,,,,,,,,,3142.847000023816,completion,,,,,,,low,low,,,,,,false,,,,true,337925,337924.60000002384,334765.144,335204.7999999523,334781.753,337515.105,1,40,,
trial,html.Screen,8_17_0,2023-11-14T18:43:59.798Z,,,,2,-0.0189295602385628,-0.0128812415435153,,false,ll,3145.694999952335,response,-0.667502352446966,0.4521406119946301,-0.49110158711110247,-0.4377641192178103,0.47379571963939876,-0.408315620589193,low,low,,ISIC_0010372.JPG,,ISIC_0011064.JPG,453,false,lh,keypress(e),0,true,340660.89999997616,340660.7999999523,337498.393,337925,337515.105,340248.746,1,40,18,
sequence,flow.Sequence,8_17,2023-11-14T18:43:59.798Z,,,,,,,,,,3145.694999952335,completion,,,,,,,low,low,,,,,,false,,,,true,340661,340660.7999999523,337498.393,337925,337515.105,340248.746,1,40,,
trial,html.Screen,8_18_0,2023-11-14T18:44:02.518Z,,,,2,0.0060918352854008,-0.029032683404407,,false,hh,3131.95399992849,response,0.617649478377407,0.4521406119946301,-0.49110158711110247,0.4907994921336002,0.47379571963939876,-0.458315620589193,high,high,,ISIC_8436194.JPG,,ISIC_0000462.JPG,380,false,hl,keypress(j),0,true,343380.6999999285,343380.6999999285,340232.013,340661.10000002384,340248.746,342965.141,1,40,19,
sequence,flow.Sequence,8_18,2023-11-14T18:44:02.518Z,,,,,,,,,,3131.95399992849,completion,,,,,,,high,high,,,,,,false,,,,true,343381,343380.6999999285,340232.013,340661.10000002384,340248.746,342965.141,1,40,,
trial,html.Screen,8_19_0,2023-11-14T18:44:04.374Z,,,,2,0.0658785165472318,0.0638000940494709,,false,ll,2271.4590000238386,response,-0.5529459673424489,0.4521406119946301,-0.49110158711110247,-0.6320080891400831,0.47379571963939876,-0.458315620589193,low,low,,ISIC_0626501.JPG,,ISIC_9161898.JPG,460,false,hl,keypress(j),0,true,345236.7999999523,345236.60000002384,342948.625,343381,342965.141,344815.097,1,40,20,
sequence,flow.Sequence,8_19,2023-11-14T18:44:04.374Z,,,,,,,,,,2271.4590000238386,completion,,,,,,,low,low,,,,,,false,,,,true,345236.89999997616,345236.60000002384,342948.625,343381,342965.141,344815.097,1,40,,
trial,html.Screen,8_20_0,2023-11-14T18:44:06.405Z,,,,2,0.0700745968706567,0.013891147856594,,false,ll,2453.3029999761493,response,-0.540530612952448,0.4521406119946301,-0.49110158711110247,-0.3071499183040381,0.47379571963939876,-0.458315620589193,low,low,,ISIC_0054663.JPG,,ISIC_7404937.JPG,460,false,hl,keypress(j),0,true,347268.5,347268.39999997616,344798.736,345237,344815.097,346848.444,1,40,21,
sequence,flow.Sequence,8_20,2023-11-14T18:44:06.405Z,,,,,,,,,,2453.3029999761493,completion,,,,,,,low,low,,,,,,false,,,,true,347268.60000002384,347268.39999997616,344798.736,345237,344815.097,346848.444,1,40,,
trial,html.Screen,8_21_0,2023-11-14T18:44:10.117Z,,,,2,-0.0658524437333868,0.0334357178485904,,false,lh,4132.156000023824,response,-0.5237899915465983,0.4521406119946301,-0.49110158711110247,0.5740914378306814,0.47379571963939876,-0.458315620589193,low,high,,ISIC_8015541.JPG,,ISIC_0029571.JPG,288,false,ll,keypress(f),0,true,350980.6999999285,350980.60000002384,346831.83,347268.6999999285,346848.444,350565.107,1,40,22,
sequence,flow.Sequence,8_21,2023-11-14T18:44:10.118Z,,,,,,,,,,4132.156000023824,completion,,,,,,,low,high,,,,,,false,,,,true,350980.7999999523,350980.60000002384,346831.83,347268.60000002384,346848.444,350565.107,1,40,,
trial,html.Screen,8_22_0,2023-11-14T18:44:12.870Z,,,,2,0.0077673378094614,0.0021810768579373,,true,lh,3167.692999952298,response,-0.6336062987816888,0.4521406119946301,-0.49110158711110247,0.621065204876642,0.47379571963939876,-0.458315620589193,low,high,,ISIC_0067621.JPG,,ISIC_8184471.JPG,288,false,lh,keypress(e),0,true,353732.89999997616,353732.7999999523,350548.394,350980.89999997616,350565.107,353315.129,1,40,23,
sequence,flow.Sequence,8_22,2023-11-14T18:44:12.870Z,,,,,,,,,,3167.692999952298,completion,,,,,,,low,high,,,,,,false,,,,true,353733.1999999285,353732.7999999523,350548.394,350980.89999997616,350565.107,353315.129,1,40,,
trial,html.Screen,8_23_0,2023-11-14T18:44:14.869Z,,,,2,0.040352316356354,0.0039626669358928,,true,lh,2417.270999976143,response,-0.3105550485868843,0.4521406119946301,-0.4786981451641435,0.5382931203359828,0.47379571963939876,-0.458315620589193,low,high,,ISIC_3018550.JPG,,ISIC_4699066.JPG,294,false,lh,keypress(e),0,true,355732.5,355732.39999997616,353298.661,353733.1999999285,353315.129,355315.209,1,40,24,
sequence,flow.Sequence,8_23,2023-11-14T18:44:14.869Z,,,,,,,,,,2417.270999976143,completion,,,,,,,low,high,,,,,,false,,,,true,355732.60000002384,355732.39999997616,353298.661,353733.1999999285,353315.129,355315.209,1,40,,
trial,html.Screen,8_24_0,2023-11-14T18:44:16.693Z,,,,2,0.0339906816361373,0.0603913124071272,,false,ll,2241.2910000000265,response,-0.6276554717013706,0.4521406119946301,-0.4786981451641435,-0.6296911147255358,0.4796791626063123,-0.458315620589193,low,low,,ISIC_1258763.JPG,,ISIC_4692567.JPG,469,false,lh,keypress(e),0,true,357556.5,357556.5,355298.51,355732.6999999285,355315.209,357148.804,1,40,25,
sequence,flow.Sequence,8_24,2023-11-14T18:44:16.693Z,,,,,,,,,,2241.2910000000265,completion,,,,,,,low,low,,,,,,false,,,,true,357556.60000002384,357556.5,355298.51,355732.6999999285,355315.209,357148.804,1,40,,
trial,html.Screen,8_25_0,2023-11-14T18:44:21.189Z,,,,2,0.0742149355137113,0.0423516069066019,,false,lh,4903.695999999996,response,-0.3927013357633684,0.4521406119946301,-0.4786981451641435,0.3037556686402411,0.4796791626063123,-0.458315620589193,low,high,,ISIC_0011483.JPG,,ISIC_1083681.JPG,289,false,hl,keypress(j),0,true,362052.60000002384,362052.5,357131.792,357556.6999999285,357148.804,361631.791,1,40,26,
sequence,flow.Sequence,8_25,2023-11-14T18:44:21.189Z,,,,,,,,,,4903.695999999996,completion,,,,,,,low,high,,,,,,false,,,,true,362052.6999999285,362052.5,357131.792,357556.60000002384,357148.804,361631.791,1,40,,
trial,html.Screen,8_26_0,2023-11-14T18:44:25.350Z,,,,2,0.0362472736315994,0.0492979048777824,,false,hl,4580.908999928448,response,0.2547688327599783,0.4521406119946301,-0.4786981451641435,-0.4401604318562518,0.4796791626063123,-0.458315620589193,high,low,,ISIC_5312584.JPG,,ISIC_6774326.JPG,316,false,ll,keypress(f),0,true,366212.7999999523,366212.6999999285,361615.069,362052.6999999285,361631.791,365798.752,1,40,27,
sequence,flow.Sequence,8_26,2023-11-14T18:44:25.350Z,,,,,,,,,,4580.908999928448,completion,,,,,,,high,low,,,,,,false,,,,true,366213,366212.6999999285,361615.069,362052.6999999285,361631.791,365798.752,1,40,,
trial,html.Screen,8_27_0,2023-11-14T18:44:29.318Z,,,,2,0.0480684603309257,-0.0620119776873313,,false,hh,4381.947999928496,response,0.4545462287523354,0.4521406119946301,-0.4786981451641435,0.3896165303126859,0.4796791626063123,-0.458315620589193,high,high,,ISIC_0645834.JPG,,ISIC_0026348.JPG,376,false,hl,keypress(j),0,true,370180.89999997616,370180.6999999285,365781.696,366213,365798.752,369765.167,1,40,28,
sequence,flow.Sequence,8_27,2023-11-14T18:44:29.318Z,,,,,,,,,,4381.947999928496,completion,,,,,,,high,high,,,,,,false,,,,true,370181.10000002384,370180.6999999285,365781.696,366213,365798.752,369765.167,1,40,,
trial,html.Screen,8_28_0,2023-11-14T18:44:31.781Z,,,,2,0.0203374006918297,-0.0594475300019112,,false,hh,2879.2329999761423,response,0.3214945866963032,0.4521406119946301,-0.4786981451641435,0.6197574551927956,0.4796791626063123,-0.458315620589193,high,high,,ISIC_0028579.JPG,,ISIC_6297317.JPG,376,false,hl,keypress(j),0,true,372644.5,372644.39999997616,369748.405,370181.1999999285,369765.167,372231.803,1,40,29,
sequence,flow.Sequence,8_28,2023-11-14T18:44:31.781Z,,,,,,,,,,2879.2329999761423,completion,,,,,,,high,high,,,,,,false,,,,true,372644.60000002384,372644.39999997616,369748.405,370181.10000002384,369765.167,372231.803,1,40,,
trial,html.Screen,8_29_0,2023-11-14T18:44:37.334Z,,,,2,-0.0729466326865927,0.0055109446314237,,false,hl,5965.596999976144,response,0.2926900478165043,0.4521406119946301,-0.4786981451641435,-0.5988366660005694,0.4796791626063123,-0.458315620589193,high,low,,ISIC_0032597.JPG,,ISIC_0033953.JPG,316,false,hh,keypress(i),0,true,378197.5,378197.39999997616,372215.187,372644.60000002384,372231.803,377781.775,1,40,30,
sequence,flow.Sequence,8_29,2023-11-14T18:44:37.334Z,,,,,,,,,,5965.596999976144,completion,,,,,,,high,low,,,,,,false,,,,true,378197.6999999285,378197.39999997616,372215.187,372644.60000002384,372231.803,377781.775,1,40,,
trial,html.Screen,8_30_0,2023-11-14T18:44:42.486Z,,,,2,0.0060934073440827,0.0279108145883031,,true,ll,5566.924999928451,response,-0.4103541896709057,0.4521406119946301,-0.4786981451641435,-0.5074417836279057,0.4796791626063123,-0.458315620589193,low,low,,ISIC_0032604.JPG,,ISIC_2927673.JPG,469,false,ll,keypress(f),0,true,383348.7999999523,383348.6999999285,377765.051,378197.6999999285,377781.775,382931.83,1,40,31,
sequence,flow.Sequence,8_30,2023-11-14T18:44:42.486Z,,,,,,,,,,5566.924999928451,completion,,,,,,,low,low,,,,,,false,,,,true,383349,383348.6999999285,377765.051,378197.6999999285,377781.775,382931.83,1,40,,
trial,html.Screen,8_31_0,2023-11-14T18:44:45.637Z,,,,2,0.0060918352854008,-0.029032683404407,,true,hl,3568.7700000238256,response,0.3786695373513488,0.4521406119946301,-0.4786981451641435,-0.3935242879093232,0.4796791626063123,-0.458315620589193,high,low,,ISIC_8436194.JPG,,ISIC_0226072.JPG,316,false,hl,keypress(j),0,true,386500.6999999285,386500.60000002384,382915.121,383349.10000002384,382931.83,386081.833,1,40,32,
sequence,flow.Sequence,8_31,2023-11-14T18:44:45.638Z,,,,,,,,,,3568.7700000238256,completion,,,,,,,high,low,,,,,,false,,,,true,386500.89999997616,386500.60000002384,382915.121,383349,382931.83,386081.833,1,40,,
trial,html.Screen,8_32_0,2023-11-14T18:44:48.741Z,,,,2,0.0040788697657958,0.0696367106527537,,false,hh,3522.566999976174,response,0.3505244271003459,0.40214061199463014,-0.4786981451641435,0.3942787282976969,0.4796791626063123,-0.408315620589193,high,high,,ISIC_0066882.JPG,,ISIC_0024958.JPG,380,false,hl,keypress(j),0,true,389604.39999997616,389604.39999997616,386065.078,386501,386081.833,389181.811,1,40,33,
sequence,flow.Sequence,8_32,2023-11-14T18:44:48.741Z,,,,,,,,,,3522.566999976174,completion,,,,,,,high,high,,,,,,false,,,,true,389604.60000002384,389604.39999997616,386065.078,386501,386081.833,389181.811,1,40,,
trial,html.Screen,8_33_0,2023-11-14T18:44:54.453Z,,,,2,-0.0733425953790377,0.0558194585272655,,true,hh,6134.689000000013,response,0.5614968464329894,0.4521406119946301,-0.4786981451641435,0.4237521884592832,0.4796791626063123,-0.408315620589193,high,high,,ISIC_0026756.JPG,,ISIC_1108204.JPG,376,false,hh,keypress(i),0,true,395316.60000002384,395316.5,389165.096,389604.60000002384,389181.811,394898.498,1,40,34,
sequence,flow.Sequence,8_33,2023-11-14T18:44:54.453Z,,,,,,,,,,6134.689000000013,completion,,,,,,,high,high,,,,,,false,,,,true,395316.6999999285,395316.5,389165.096,389604.60000002384,389181.811,394898.498,1,40,,
trial,html.Screen,8_34_0,2023-11-14T18:44:58.950Z,,,,2,0.00126575685933,0.0325046559638838,,false,ll,4914.301999952295,response,-0.3388895912470893,0.40214061199463014,-0.4786981451641435,-0.3429860013810572,0.4796791626063123,-0.408315620589193,low,low,,ISIC_5682259.JPG,,ISIC_0004509.JPG,465,false,lh,keypress(e),0,true,399812.89999997616,399812.7999999523,394881.774,395316.6999999285,394898.498,399398.788,1,40,35,
sequence,flow.Sequence,8_34,2023-11-14T18:44:58.950Z,,,,,,,,,,4914.301999952295,completion,,,,,,,low,low,,,,,,false,,,,true,399813,399812.7999999523,394881.774,395316.6999999285,394898.498,399398.788,1,40,,
trial,html.Screen,8_35_0,2023-11-14T18:45:02.102Z,,,,2,-0.0029978997915594,0.0736178673732526,,false,lh,3566.511999952316,response,-0.2938324900439256,0.40214061199463014,-0.4786981451641435,0.4641066968753065,0.4796791626063123,-0.458315620589193,low,high,,ISIC_9745038.JPG,,ISIC_0029389.JPG,289,false,hl,keypress(j),0,true,402965.39999997616,402965.2999999523,399381.711,399813.10000002384,399398.788,402548.477,1,40,36,
sequence,flow.Sequence,8_35,2023-11-14T18:45:02.103Z,,,,,,,,,,3566.511999952316,completion,,,,,,,low,high,,,,,,false,,,,true,402965.7999999523,402965.2999999523,399381.711,399813.10000002384,399398.788,402548.477,1,40,,
trial,html.Screen,8_36_0,2023-11-14T18:45:04.118Z,,,,2,-0.004212480280886,-0.0518491070608022,,true,hl,2432.222999928461,response,0.3122388535644661,0.40214061199463014,-0.4786981451641435,-0.5754260355974157,0.4796791626063123,-0.458315620589193,high,low,,ISIC_2945324.JPG,,ISIC_4044751.JPG,334,false,hl,keypress(j),0,true,404980.89999997616,404980.6999999285,402531.815,402965.89999997616,402548.477,404565.189,1,40,37,
sequence,flow.Sequence,8_36,2023-11-14T18:45:04.118Z,,,,,,,,,,2432.222999928461,completion,,,,,,,high,low,,,,,,false,,,,true,404981.10000002384,404980.6999999285,402531.815,402965.89999997616,402548.477,404565.189,1,40,,
trial,html.Screen,8_37_0,2023-11-14T18:45:05.845Z,,,,2,0.012810673904807,-0.00400964452501,,true,hl,2143.1109999523032,response,0.2681888208838375,0.40214061199463014,-0.4786981451641435,-0.4899573023950594,0.4796791626063123,-0.458315620589193,high,low,,ISIC_0064656.JPG,,ISIC_7260977.JPG,334,false,hl,keypress(j),0,true,406708.39999997616,406708.2999999523,404548.538,404981.2999999523,404565.189,406298.792,1,40,38,
sequence,flow.Sequence,8_37,2023-11-14T18:45:05.845Z,,,,,,,,,,2143.1109999523032,completion,,,,,,,high,low,,,,,,false,,,,true,406708.5,406708.2999999523,404548.538,404981.1999999285,404565.189,406298.792,1,40,,
trial,html.Screen,8_38_0,2023-11-14T18:45:08.725Z,,,,2,-0.0744767864787991,0.0482768027208112,,false,hh,3289.707999999984,response,0.2852188788388517,0.35214061199463015,-0.4786981451641435,0.6291138622774204,0.4796791626063123,-0.48269166899623756,high,high,,ISIC_0011482.JPG,,ISIC_0000469.JPG,388,false,ll,keypress(f),0,true,409588.60000002384,409588.5,406282.111,406708.60000002384,406298.792,409182.875,1,40,39,
sequence,flow.Sequence,8_38,2023-11-14T18:45:08.725Z,,,,,,,,,,3289.707999999984,completion,,,,,,,high,high,,,,,,false,,,,true,409588.6999999285,409588.5,406282.111,406708.5,406298.792,409182.875,1,40,,
trial,html.Screen,8_39_0,2023-11-14T18:45:12.437Z,,,,2,0.0395849059583371,-0.049996355475379,,false,hl,4117.824999928474,response,0.2375472979206879,0.40214061199463014,-0.4786981451641435,-0.3515193132719332,0.4796791626063123,-0.48269166899623756,high,low,,ISIC_4042619.JPG,,ISIC_4629662.JPG,318,false,lh,keypress(e),0,true,413300.7999999523,413300.6999999285,409148.47,409588.7999999523,409182.875,412881.823,1,40,40,
sequence,flow.Sequence,8_39,2023-11-14T18:45:12.438Z,,,,,,,,,,4117.824999928474,completion,,,,,,,high,low,,,,,,false,,,,true,413300.89999997616,413300.6999999285,409148.47,409588.6999999285,409182.875,412881.823,1,40,,
stair_loop,flow.Loop,8,2023-11-14T18:45:12.438Z,,,,,,,,,,146935.68999992847,completion,,,,,,,,,,,,,,false,,,,true,413301.10000002384,413300.6999999285,266348.578,266780.39999997616,266365.01,412881.823,1,40,,
exp_instructions,html.Screen,9,2023-11-14T18:45:15.879Z,,,,,,,,,,3859.0769999761833,response,,,,,,,,,,,,,,,continue,keypress(Space),,,416741.7999999523,416740.89999997616,412865.088,413301.10000002384,412881.823,416331.81,,,,
trial,html.Screen,10_0_0,2023-11-14T18:45:21.672Z,,,,1,-0.0191999585302269,0.0745789212985316,,false,hh,6203.5899999761605,response,0.2809840414535254,0.43214061199463016,-0.4805586614561873,0.5432301146958912,0.47850247401292945,-0.45325322542989754,high,high,,ISIC_4024062.JPG,10,ISIC_9860895.JPG,378,false,ll,keypress(f),0,false,422535.5,422535.39999997616,416315.089,416742.1999999285,416331.81,422115.242,4,500,1,
break,html.Screen,10_0_1,2023-11-14T18:45:21.673Z,,,,,,,,,,NaN,,,,,,,,high,high,,,,,,false,,,,false,422536,422535.7999999523,,422535.60000002384,,422115.242,4,500,,
break_continue,html.Screen,10_0_2,2023-11-14T18:45:21.673Z,,,,,,,,,,NaN,,,,,,,,high,high,,,,,,false,,,,false,422536.1999999285,422536.10000002384,,422536.10000002384,,422115.242,4,500,,
sequence,flow.Sequence,10_0,2023-11-14T18:45:21.673Z,,,,,,,,,,6204.290000023844,completion,,,,,,,high,high,,,,,,false,,,,false,422536.1999999285,422536.10000002384,416315.089,416742.10000002384,416331.81,422115.242,4,500,,
trial,html.Screen,10_1_0,2023-11-14T18:45:24.326Z,,,,1,-0.0127364719403411,-0.0549103570808099,,true,ll,3073.8580000238144,response,-0.3732055314509846,0.43214061199463016,-0.4805586614561873,-0.5623720911728469,0.47850247401292945,-0.45325322542989754,low,low,,ISIC_0054705.JPG,9,ISIC_3923443.JPG,472,false,ll,keypress(f),0,false,425189.1999999285,425189.10000002384,422098.329,422536.39999997616,422115.242,424782.161,4,500,2,
break,html.Screen,10_1_1,2023-11-14T18:45:24.327Z,,,,,,,,,,NaN,,,,,,,,low,low,,,,,,false,,,,false,425189.7999999523,425189.6999999285,,425189.5,,424782.161,4,500,,
break_continue,html.Screen,10_1_2,2023-11-14T18:45:24.327Z,,,,,,,,,,NaN,,,,,,,,low,low,,,,,,false,,,,false,425190.1999999285,425190,,425189.89999997616,,424782.161,4,500,,
sequence,flow.Sequence,10_1,2023-11-14T18:45:24.327Z,,,,,,,,,,3074.7579999999725,completion,,,,,,,low,low,,,,,,false,,,,false,425190.2999999523,425190,422098.329,422536.39999997616,422115.242,424782.161,4,500,,
trial,html.Screen,10_2_0,2023-11-14T18:45:28.149Z,,,,1,-0.0474755744799381,-0.0692210794081785,,false,lh,4230.238999976136,response,-0.3903909914654219,0.43214061199463016,-0.4805586614561873,0.6242269780938998,0.47850247401292945,-0.45325322542989754,low,high,,ISIC_8794567.JPG,9,ISIC_0068299.JPG,291,false,hh,keypress(i),0,false,429012.5,429012.39999997616,424765.148,425190.39999997616,424782.161,428598.522,4,500,3,
break,html.Screen,10_2_1,2023-11-14T18:45:28.150Z,,,,,,,,,,NaN,,,,,,,,low,high,,,,,,false,,,,false,429012.89999997616,429012.7999999523,,429012.60000002384,,428598.522,4,500,,
break_continue,html.Screen,10_2_2,2023-11-14T18:45:28.150Z,,,,,,,,,,NaN,,,,,,,,low,high,,,,,,false,,,,false,429013,429012.89999997616,,429012.89999997616,,428598.522,4,500,,
sequence,flow.Sequence,10_2,2023-11-14T18:45:28.150Z,,,,,,,,,,4230.738999976136,completion,,,,,,,low,high,,,,,,false,,,,false,429013.10000002384,429012.89999997616,424765.148,425190.39999997616,424782.161,428598.522,4,500,,
trial,html.Screen,10_3_0,2023-11-14T18:45:30.917Z,,,,1,0.0060918352854008,-0.029032683404407,,true,hl,3181.777999952319,response,0.3884562346270899,0.43214061199463016,-0.4805586614561873,-0.4459249826233204,0.47850247401292945,-0.45325322542989754,high,low,,ISIC_8436194.JPG,9,ISIC_6761269.JPG,319,false,hl,keypress(j),0,false,431780.5,431780.2999999523,428582.003,429013.10000002384,428598.522,431365.281,4,500,4,
break,html.Screen,10_3_1,2023-11-14T18:45:30.917Z,,,,,,,,,,NaN,,,,,,,,high,low,,,,,,false,,,,false,431780.7999999523,431780.6999999285,,431780.5,,431365.281,4,500,,
break_continue,html.Screen,10_3_2,2023-11-14T18:45:30.918Z,,,,,,,,,,NaN,,,,,,,,high,low,,,,,,false,,,,false,431781,431781,,431780.7999999523,,431365.281,4,500,,
sequence,flow.Sequence,10_3,2023-11-14T18:45:30.918Z,,,,,,,,,,3182.478000000003,completion,,,,,,,high,low,,,,,,false,,,,false,431781.10000002384,431781,428582.003,429013.10000002384,428598.522,431365.281,4,500,,
trial,html.Screen,10_4_0,2023-11-14T18:45:33.909Z,,,,1,0.0060934073440827,0.0279108145883031,,false,lh,3407.2189999999828,response,-0.3344242135665088,0.43214061199463016,-0.4805586614561873,0.4853139037825953,0.47850247401292945,-0.45325322542989754,low,high,,ISIC_0032604.JPG,9,ISIC_0030342.JPG,291,false,ll,keypress(f),0,false,434772.6999999285,434772.5,431348.689,431781.10000002384,431365.281,434365.208,4,500,5,
break,html.Screen,10_4_1,2023-11-14T18:45:33.910Z,,,,,,,,,,NaN,,,,,,,,low,high,,,,,,false,,,,false,434773,434772.89999997616,,434772.7999999523,,434365.208,4,500,,
break_continue,html.Screen,10_4_2,2023-11-14T18:45:33.910Z,,,,,,,,,,NaN,,,,,,,,low,high,,,,,,false,,,,false,434773.2999999523,434773.1999999285,,434773.10000002384,,434365.208,4,500,,
sequence,flow.Sequence,10_4,2023-11-14T18:45:33.910Z,,,,,,,,,,3407.918999928457,completion,,,,,,,low,high,,,,,,false,,,,false,434773.39999997616,434773.1999999285,431348.689,431781.10000002384,431365.281,434365.208,4,500,,
trial,html.Screen,10_5_0,2023-11-14T18:45:36.342Z,,,,1,0.0402606077562393,-0.0233871780024155,,false,hh,2839.591999952332,response,0.3505244271003459,0.43214061199463016,-0.4805586614561873,0.3942787282976969,0.47850247401292945,-0.45325322542989754,high,high,,ISIC_0024401.JPG,9,ISIC_0024958.JPG,378,false,ll,keypress(f),0,false,437204.89999997616,437204.7999999523,434348.483,434773.39999997616,434365.208,436799.175,4,500,6,
break,html.Screen,10_5_1,2023-11-14T18:45:36.342Z,,,,,,,,,,NaN,,,,,,,,high,high,,,,,,false,,,,false,437205.1999999285,437205.10000002384,,437205,,436799.175,4,500,,
break_continue,html.Screen,10_5_2,2023-11-14T18:45:36.342Z,,,,,,,,,,NaN,,,,,,,,high,high,,,,,,false,,,,false,437205.5,437205.39999997616,,437205.2999999523,,436799.175,4,500,,
sequence,flow.Sequence,10_5,2023-11-14T18:45:36.342Z,,,,,,,,,,2840.191999976174,completion,,,,,,,high,high,,,,,,false,,,,false,437205.5,437205.39999997616,434348.483,434773.39999997616,434365.208,436799.175,4,500,,
trial,html.Screen,10_6_0,2023-11-14T18:45:39.189Z,,,,1,0.0158987717472563,0.0292472192292015,,false,lh,3253.22499997617,response,-0.3409067398924444,0.43214061199463016,-0.4805586614561873,0.3228554406584927,0.47850247401292945,-0.45325322542989754,low,high,,ISIC_1366765.JPG,8,ISIC_1874480.JPG,291,false,hh,keypress(i),0,false,440052.39999997616,440052.39999997616,436765.151,437205.60000002384,436799.175,439631.877,4,500,7,
break,html.Screen,10_6_1,2023-11-14T18:45:39.190Z,,,,,,,,,,NaN,,,,,,,,low,high,,,,,,false,,,,false,440052.89999997616,440052.6999999285,,440052.60000002384,,439631.877,4,500,,
break_continue,html.Screen,10_6_2,2023-11-14T18:45:39.190Z,,,,,,,,,,NaN,,,,,,,,low,high,,,,,,false,,,,false,440053,440053,,440052.89999997616,,439631.877,4,500,,
sequence,flow.Sequence,10_6,2023-11-14T18:45:39.190Z,,,,,,,,,,3253.8250000000116,completion,,,,,,,low,high,,,,,,false,,,,false,440053.1999999285,440053,436765.151,437205.5,436799.175,439631.877,4,500,,
trial,html.Screen,10_7_0,2023-11-14T18:45:41.557Z,,,,1,-0.0514357258480358,-0.006520984995476,,true,hh,2788.7230000238633,response,0.2653236263211747,0.43214061199463016,-0.4805586614561873,0.2918628098478505,0.47850247401292945,-0.45325322542989754,high,high,,ISIC_0031386.JPG,9,ISIC_2445765.JPG,378,false,hh,keypress(i),0,false,442420.7999999523,442420.60000002384,439615.169,440053.1999999285,439631.877,441998.545,4,500,8,
break,html.Screen,10_7_1,2023-11-14T18:45:41.558Z,,,,,,,,,,NaN,,,,,,,,high,high,,,,,,false,,,,false,442421.1999999285,442421.10000002384,,442420.89999997616,,441998.545,4,500,,
break_continue,html.Screen,10_7_2,2023-11-14T18:45:41.558Z,,,,,,,,,,NaN,,,,,,,,high,high,,,,,,false,,,,false,442421.39999997616,442421.2999999523,,442421.1999999285,,441998.545,4,500,,
sequence,flow.Sequence,10_7,2023-11-14T18:45:41.558Z,,,,,,,,,,2789.4229999523377,completion,,,,,,,high,high,,,,,,false,,,,false,442421.5,442421.2999999523,439615.169,440053.1999999285,439631.877,441998.545,4,500,,
trial,html.Screen,10_8_0,2023-11-14T18:45:45.573Z,,,,1,-0.0372699196710335,0.0646614895271859,,false,hl,4437.854999976174,response,0.3379430572995314,0.43214061199463016,-0.4805586614561873,-0.4968238336170335,0.47850247401292945,-0.45325322542989754,high,low,,ISIC_1175170.JPG,8,ISIC_8344345.JPG,319,false,hh,keypress(i),0,false,446436.39999997616,446436.39999997616,441982.127,442421.60000002384,441998.545,446015.209,4,500,9,
break,html.Screen,10_8_1,2023-11-14T18:45:45.574Z,,,,,,,,,,NaN,,,,,,,,high,low,,,,,,false,,,,false,446436.7999999523,446436.6999999285,,446436.60000002384,,446015.209,4,500,,
break_continue,html.Screen,10_8_2,2023-11-14T18:45:45.574Z,,,,,,,,,,NaN,,,,,,,,high,low,,,,,,false,,,,false,446437.10000002384,446437,,446436.89999997616,,446015.209,4,500,,
sequence,flow.Sequence,10_8,2023-11-14T18:45:45.574Z,,,,,,,,,,4438.455000000016,completion,,,,,,,high,low,,,,,,false,,,,false,446437.1999999285,446437,441982.127,442421.5,441998.545,446015.209,4,500,,
trial,html.Screen,10_9_0,2023-11-14T18:45:48.854Z,,,,1,0.012020985739544,-0.0126097407389903,,false,ll,3701.6909999761847,response,-0.4887592518869768,0.43214061199463016,-0.4805586614561873,-0.4511679771673929,0.47850247401292945,-0.45325322542989754,low,low,,ISIC_0069379.JPG,10,ISIC_0013492.JPG,472,false,hh,keypress(i),0,false,449717.10000002384,449716.89999997616,445998.556,446437.1999999285,446015.209,449298.568,4,500,10,
break,html.Screen,10_9_1,2023-11-14T18:45:48.854Z,,,,,,,,,,NaN,,,,,,,,low,low,,,,,,false,,,,false,449717.60000002384,449717.5,,449717.1999999285,,449298.568,4,500,,
break_continue,html.Screen,10_9_2,2023-11-14T18:45:48.855Z,,,,,,,,,,NaN,,,,,,,,low,low,,,,,,false,,,,false,449717.89999997616,449717.7999999523,,449717.6999999285,,449298.568,4,500,,
sequence,flow.Sequence,10_9,2023-11-14T18:45:48.855Z,,,,,,,,,,3702.590999952343,completion,,,,,,,low,low,,,,,,false,,,,false,449718.10000002384,449717.7999999523,445998.556,446437.1999999285,446015.209,449298.568,4,500,,
trial,html.Screen,10_10_0,2023-11-14T18:45:51.222Z,,,,1,-0.0597592587797575,,,false,lh,2786.3319999761297,response,-0.4287470682479313,0.43214061199463016,-0.4805586614561873,0.4941919819794998,0.47850247401292945,-0.45325322542989754,low,high,,ISIC_0071367.JPG,9,ISIC_8684147.JPG,291,false,hl,keypress(j),0,false,452085.10000002384,452084.89999997616,449281.913,449718.10000002384,449298.568,451665.222,4,500,11,
break,html.Screen,10_10_1,2023-11-14T18:45:51.222Z,,,,,,,,,,NaN,,,,,,,,low,high,,,,,,false,,,,false,452085.60000002384,452085.5,,452085.1999999285,,451665.222,4,500,,
break_continue,html.Screen,10_10_2,2023-11-14T18:45:51.223Z,,,,,,,,,,NaN,,,,,,,,low,high,,,,,,false,,,,false,452085.89999997616,452085.7999999523,,452085.6999999285,,451665.222,4,500,,
sequence,flow.Sequence,10_10,2023-11-14T18:45:51.223Z,,,,,,,,,,2787.231999952288,completion,,,,,,,low,high,,,,,,false,,,,false,452086,452085.7999999523,449281.913,449718.10000002384,449298.568,451665.222,4,500,,
trial,html.Screen,10_11_0,2023-11-14T18:45:54.038Z,,,,1,0.0560021488981517,-0.0058131881595011,,false,ll,3235.777999999991,response,-0.6801663546175047,0.43214061199463016,-0.4805586614561873,-0.3145260353754016,0.47850247401292945,-0.45325322542989754,low,low,,ISIC_0000077.JPG,10,ISIC_4076162.JPG,472,false,lh,keypress(e),0,false,454901.1999999285,454901,451648.548,452086.10000002384,451665.222,454481.911,4,500,12,
break,html.Screen,10_11_1,2023-11-14T18:45:54.039Z,,,,,,,,,,NaN,,,,,,,,low,low,,,,,,false,,,,false,454901.89999997616,454901.7999999523,,454901.39999997616,,454481.911,4,500,,
break_continue,html.Screen,10_11_2,2023-11-14T18:45:54.039Z,,,,,,,,,,NaN,,,,,,,,low,low,,,,,,false,,,,false,454902.2999999523,454902.10000002384,,454902,,454481.911,4,500,,
sequence,flow.Sequence,10_11,2023-11-14T18:45:54.039Z,,,,,,,,,,3236.878000023833,completion,,,,,,,low,low,,,,,,false,,,,false,454902.39999997616,454902.10000002384,451648.548,452086.10000002384,451665.222,454481.911,4,500,,
trial,html.Screen,10_12_0,2023-11-14T18:45:59.621Z,,,,1,0.0496743860812164,0.0010487105450318,,false,hl,6002.488999976136,response,0.2769373414312472,0.43214061199463016,-0.4805586614561873,-0.5432700236434715,0.47850247401292945,-0.45325322542989754,high,low,,ISIC_9312264.JPG,8,ISIC_8207162.JPG,319,false,ll,keypress(f),0,false,460484.5,460484.39999997616,454465.479,454902.60000002384,454481.911,460065.23,4,500,13,
break,html.Screen,10_12_1,2023-11-14T18:45:59.622Z,,,,,,,,,,NaN,,,,,,,,high,low,,,,,,false,,,,false,460484.89999997616,460484.89999997616,,460484.60000002384,,460065.23,4,500,,
break_continue,html.Screen,10_12_2,2023-11-14T18:45:59.622Z,,,,,,,,,,NaN,,,,,,,,high,low,,,,,,false,,,,false,460485.10000002384,460485,,460484.89999997616,,460065.23,4,500,,
sequence,flow.Sequence,10_12,2023-11-14T18:45:59.622Z,,,,,,,,,,6003.088999999978,completion,,,,,,,high,low,,,,,,false,,,,false,460485.10000002384,460485,454465.479,454902.5,454481.911,460065.23,4,500,,
trial,html.Screen,10_13_0,2023-11-14T18:46:02.998Z,,,,1,-0.0199897690678184,-0.0312486875504497,,false,lh,3795.7700000000186,response,-0.6232298470141507,0.43214061199463016,-0.4805586614561873,0.3168458393898508,0.47850247401292945,-0.45325322542989754,low,high,,ISIC_5482426.JPG,9,ISIC_0430837.JPG,291,false,ll,keypress(f),0,false,463861.10000002384,463861,460048.748,460485.10000002384,460065.23,463448.819,4,500,14,
break,html.Screen,10_13_1,2023-11-14T18:46:02.998Z,,,,,,,,,,NaN,,,,,,,,low,high,,,,,,false,,,,false,463861.60000002384,463861.5,,463861.2999999523,,463448.819,4,500,,
break_continue,html.Screen,10_13_2,2023-11-14T18:46:02.999Z,,,,,,,,,,NaN,,,,,,,,low,high,,,,,,false,,,,false,463861.89999997616,463861.7999999523,,463861.6999999285,,463448.819,4,500,,
sequence,flow.Sequence,10_13,2023-11-14T18:46:02.999Z,,,,,,,,,,3796.569999952335,completion,,,,,,,low,high,,,,,,false,,,,false,463862,463861.7999999523,460048.748,460485.10000002384,460065.23,463448.819,4,500,,
trial,html.Screen,10_14_0,2023-11-14T18:46:08.199Z,,,,1,-0.0327772618698018,0.0056908372048728,,false,ll,5612.880999928457,response,-0.4434786937853472,0.43214061199463016,-0.4805586614561873,-0.6123701283376085,0.47850247401292945,-0.45325322542989754,low,low,,ISIC_7897925.JPG,9,ISIC_0062389.JPG,472,false,lh,keypress(e),0,false,469062,469061.6999999285,463432.138,463862.10000002384,463448.819,468648.675,4,500,15,
break,html.Screen,10_14_1,2023-11-14T18:46:08.200Z,,,,,,,,,,NaN,,,,,,,,low,low,,,,,,false,,,,false,469063,469062.6999999285,,469062.2999999523,,468648.675,4,500,,
break_continue,html.Screen,10_14_2,2023-11-14T18:46:08.200Z,,,,,,,,,,NaN,,,,,,,,low,low,,,,,,false,,,,false,469063.60000002384,469063.5,,469063.2999999523,,468648.675,4,500,,
sequence,flow.Sequence,10_14,2023-11-14T18:46:08.201Z,,,,,,,,,,5614.680999999982,completion,,,,,,,low,low,,,,,,false,,,,false,469064,469063.5,463432.138,463862.10000002384,463448.819,468648.675,4,500,,
trial,html.Screen,10_15_0,2023-11-14T18:46:13.270Z,,,,1,0.021811393859175,-0.0534678805668419,,true,hl,5484.124999952328,response,0.3406742870614351,0.43214061199463016,-0.4805586614561873,-0.5811052050391725,0.47850247401292945,-0.45325322542989754,high,low,,ISIC_0058054.JPG,10,ISIC_2126035.JPG,319,false,hl,keypress(j),0,false,474132.89999997616,474132.7999999523,468631.822,469064.2999999523,468648.675,473715.24,4,500,16,
break,html.Screen,10_15_1,2023-11-14T18:46:13.270Z,,,,,,,,,,NaN,,,,,,,,high,low,,,,,,false,,,,false,474133.2999999523,474133.10000002384,,474133.10000002384,,473715.24,4,500,,
break_continue,html.Screen,10_15_2,2023-11-14T18:46:13.270Z,,,,,,,,,,NaN,,,,,,,,high,low,,,,,,false,,,,false,474133.5,474133.5,,474133.39999997616,,473715.24,4,500,,
sequence,flow.Sequence,10_15,2023-11-14T18:46:13.270Z,,,,,,,,,,5484.825000000012,completion,,,,,,,high,low,,,,,,false,,,,false,474133.60000002384,474133.5,468631.822,469064.1999999285,468648.675,473715.24,4,500,,
trial,html.Screen,10_16_0,2023-11-14T18:46:17.077Z,,,,1,0.012020985739544,-0.0126097407389903,,false,hl,4225.260000000009,response,0.3363886472526128,0.43214061199463016,-0.4805586614561873,-0.6229241593281163,0.47850247401292945,-0.45325322542989754,high,low,,ISIC_0069379.JPG,10,ISIC_0005261.JPG,319,false,lh,keypress(e),0,false,477940.6999999285,477940.5,473698.635,474133.6999999285,473715.24,477531.978,4,500,17,
break,html.Screen,10_16_1,2023-11-14T18:46:17.078Z,,,,,,,,,,NaN,,,,,,,,high,low,,,,,,false,,,,false,477941,477940.7999999523,,477940.6999999285,,477531.978,4,500,,
break_continue,html.Screen,10_16_2,2023-11-14T18:46:17.078Z,,,,,,,,,,NaN,,,,,,,,high,low,,,,,,false,,,,false,477941.1999999285,477941.10000002384,,477941,,477531.978,4,500,,
sequence,flow.Sequence,10_16,2023-11-14T18:46:17.078Z,,,,,,,,,,4225.860000023851,completion,,,,,,,high,low,,,,,,false,,,,false,477941.1999999285,477941.10000002384,473698.635,474133.6999999285,473715.24,477531.978,4,500,,
trial,html.Screen,10_17_0,2023-11-14T18:46:19.030Z,,,,1,0.0310298232022856,0.0697438859399019,,false,ll,2361.2219999284716,response,-0.486914988913423,0.43214061199463016,-0.4805586614561873,-0.6388350538626341,0.47850247401292945,-0.45325322542989754,low,low,,ISIC_0027669.JPG,9,ISIC_0001572.JPG,472,false,lh,keypress(e),0,false,479893.39999997616,479893.1999999285,477515.236,477941.2999999523,477531.978,479482.214,4,500,18,
break,html.Screen,10_17_1,2023-11-14T18:46:19.031Z,,,,,,,,,,NaN,,,,,,,,low,low,,,,,,false,,,,false,479894.10000002384,479893.89999997616,,479893.6999999285,,479482.214,4,500,,
break_continue,html.Screen,10_17_2,2023-11-14T18:46:19.031Z,,,,,,,,,,NaN,,,,,,,,low,low,,,,,,false,,,,false,479894.5,479894.2999999523,,479894.1999999285,,479482.214,4,500,,
sequence,flow.Sequence,10_17,2023-11-14T18:46:19.031Z,,,,,,,,,,2362.3219999523135,completion,,,,,,,low,low,,,,,,false,,,,false,479894.60000002384,479894.2999999523,477515.236,477941.2999999523,477531.978,479482.214,4,500,,
trial,html.Screen,10_18_0,2023-11-14T18:46:23.334Z,,,,1,-0.0029978997915594,0.0736178673732526,,false,lh,4714.585999952338,response,-0.5279970592438469,0.43214061199463016,-0.4805586614561873,0.6652993008206773,0.47850247401292945,-0.45325322542989754,low,high,,ISIC_9745038.JPG,10,ISIC_0034304.JPG,291,false,ll,keypress(f),0,false,484197,484196.7999999523,479465.217,479894.6999999285,479482.214,483781.986,4,500,19,
break,html.Screen,10_18_1,2023-11-14T18:46:23.334Z,,,,,,,,,,NaN,,,,,,,,low,high,,,,,,false,,,,false,484197.39999997616,484197.2999999523,,484197.1999999285,,483781.986,4,500,,
break_continue,html.Screen,10_18_2,2023-11-14T18:46:23.334Z,,,,,,,,,,NaN,,,,,,,,low,high,,,,,,false,,,,false,484197.60000002384,484197.60000002384,,484197.5,,483781.986,4,500,,
sequence,flow.Sequence,10_18,2023-11-14T18:46:23.334Z,,,,,,,,,,4715.386000023864,completion,,,,,,,low,high,,,,,,false,,,,false,484197.6999999285,484197.60000002384,479465.217,479894.6999999285,479482.214,483781.986,4,500,,
trial,html.Screen,10_19_0,2023-11-14T18:46:26.710Z,,,,1,-0.0001106800768269,0.0404747734408496,,true,hh,3791.1140000238665,response,0.5569965787291464,0.43214061199463016,-0.4805586614561873,0.6288486945809364,0.47850247401292945,-0.45325322542989754,high,high,,ISIC_5706192.JPG,9,ISIC_0061418.JPG,378,false,hh,keypress(i),0,false,487573.39999997616,487573.10000002384,483765.311,484197.6999999285,483781.986,487165.483,4,500,20,
break,html.Screen,10_19_1,2023-11-14T18:46:26.711Z,,,,,,,,,,NaN,,,,,,,,high,high,,,,,,false,,,,false,487574.1999999285,487574,,487573.6999999285,,487165.483,4,500,,
break_continue,html.Screen,10_19_2,2023-11-14T18:46:26.711Z,,,,,,,,,,NaN,,,,,,,,high,high,,,,,,false,,,,false,487574.60000002384,487574.39999997616,,487574.2999999523,,487165.483,4,500,,
sequence,flow.Sequence,10_19,2023-11-14T18:46:26.711Z,,,,,,,,,,3792.413999976183,completion,,,,,,,high,high,,,,,,false,,,,false,487574.7999999523,487574.39999997616,483765.311,484197.6999999285,483781.986,487165.483,4,500,,
trial,html.Screen,10_20_0,2023-11-14T18:46:29.877Z,,,,1,-0.0514357258480358,-0.006520984995476,,false,ll,3574.9169999761507,response,-0.4988726906431264,0.43214061199463016,-0.4805586614561873,-0.4300047993462372,0.47850247401292945,-0.45325322542989754,low,low,,ISIC_0031386.JPG,8,ISIC_0234248.JPG,472,false,hh,keypress(i),0,false,490740.5,490740.39999997616,487148.845,487574.89999997616,487165.483,490331.898,4,500,21,
break,html.Screen,10_20_1,2023-11-14T18:46:29.878Z,,,,,,,,,,NaN,,,,,,,,low,low,,,,,,false,,,,false,490740.89999997616,490740.6999999285,,490740.5,,490331.898,4,500,,
break_continue,html.Screen,10_20_2,2023-11-14T18:46:29.878Z,,,,,,,,,,NaN,,,,,,,,low,low,,,,,,false,,,,false,490741.10000002384,490741.10000002384,,490740.89999997616,,490331.898,4,500,,
sequence,flow.Sequence,10_20,2023-11-14T18:46:29.878Z,,,,,,,,,,3575.6170000238344,completion,,,,,,,low,low,,,,,,false,,,,false,490741.1999999285,490741.10000002384,487148.845,487574.89999997616,487165.483,490331.898,4,500,,
trial,html.Screen,10_21_0,2023-11-14T18:46:32.853Z,,,,1,-0.0658524437333868,0.0334357178485904,,false,lh,3384.801999928488,response,-0.5798981976981935,0.43214061199463016,-0.4805586614561873,0.5602427146397341,0.47850247401292945,-0.45325322542989754,low,high,,ISIC_8015541.JPG,9,ISIC_6983970.JPG,291,false,hl,keypress(j),0,false,493716.6999999285,493716.6999999285,490315.242,490741.1999999285,490331.898,493298.585,4,500,22,
break,html.Screen,10_21_1,2023-11-14T18:46:32.854Z,,,,,,,,,,NaN,,,,,,,,low,high,,,,,,false,,,,false,493717.10000002384,493717.10000002384,,493716.89999997616,,493298.585,4,500,,
break_continue,html.Screen,10_21_2,2023-11-14T18:46:32.854Z,,,,,,,,,,NaN,,,,,,,,low,high,,,,,,false,,,,false,493717.2999999523,493717.1999999285,,493717.1999999285,,493298.585,4,500,,
sequence,flow.Sequence,10_21,2023-11-14T18:46:32.854Z,,,,,,,,,,3385.301999928488,completion,,,,,,,low,high,,,,,,false,,,,false,493717.39999997616,493717.1999999285,490315.242,490741.1999999285,490331.898,493298.585,4,500,,
trial,html.Screen,10_22_0,2023-11-14T18:46:39.126Z,,,,1,0.040352316356354,0.0039626669358928,,false,ll,6690.714999952295,response,-0.3488947564731158,0.43214061199463016,-0.4805586614561873,-0.3903206231881379,0.47850247401292945,-0.45325322542989754,low,low,,ISIC_3018550.JPG,9,ISIC_0030437.JPG,472,false,hh,keypress(i),0,false,499989.5,499989.2999999523,493281.959,493717.39999997616,493298.585,499582.181,4,500,23,
break,html.Screen,10_22_1,2023-11-14T18:46:39.127Z,,,,,,,,,,NaN,,,,,,,,low,low,,,,,,false,,,,false,499990,499989.89999997616,,499989.6999999285,,499582.181,4,500,,
break_continue,html.Screen,10_22_2,2023-11-14T18:46:39.127Z,,,,,,,,,,NaN,,,,,,,,low,low,,,,,,false,,,,false,499990.39999997616,499990.2999999523,,499990.1999999285,,499582.181,4,500,,
sequence,flow.Sequence,10_22,2023-11-14T18:46:39.127Z,,,,,,,,,,6691.714999952295,completion,,,,,,,low,low,,,,,,false,,,,false,499990.5,499990.2999999523,493281.959,493717.39999997616,493298.585,499582.181,4,500,,
trial,html.Screen,10_23_0,2023-11-14T18:46:41.653Z,,,,1,0.0702697127166421,0.0314752704888287,,true,lh,2934.3190000000177,response,-0.3154581373529916,0.43214061199463016,-0.4805586614561873,0.4704279373497969,0.47850247401292945,-0.45325322542989754,low,high,,ISIC_0033881.JPG,9,ISIC_0054280.JPG,291,false,lh,keypress(e),0,false,502516.6999999285,502516.5,499565.364,499990.60000002384,499582.181,502098.571,4,500,24,
break,html.Screen,10_23_1,2023-11-14T18:46:41.654Z,,,,,,,,,,NaN,,,,,,,,low,high,,,,,,false,,,,false,502517,502517,,502516.7999999523,,502098.571,4,500,,
break_continue,html.Screen,10_23_2,2023-11-14T18:46:41.654Z,,,,,,,,,,NaN,,,,,,,,low,high,,,,,,false,,,,false,502517.1999999285,502517.1999999285,,502517.10000002384,,502098.571,4,500,,
sequence,flow.Sequence,10_23,2023-11-14T18:46:41.654Z,,,,,,,,,,2935.018999928492,completion,,,,,,,low,high,,,,,,false,,,,false,502517.1999999285,502517.1999999285,499565.364,499990.60000002384,499582.181,502098.571,4,500,,
trial,html.Screen,10_24_0,2023-11-14T18:46:47.093Z,,,,1,-0.010035581303589,0.0100711721396864,,false,ll,5857.828999976162,response,-0.3054702873986648,0.43214061199463016,-0.4805586614561873,-0.355053667314766,0.47850247401292945,-0.45325322542989754,low,low,,ISIC_0030592.JPG,9,ISIC_0031807.JPG,472,false,hh,keypress(i),0,false,507956.5,507956.39999997616,502081.927,502517.2999999523,502098.571,507548.648,4,500,25,
break,html.Screen,10_24_1,2023-11-14T18:46:47.094Z,,,,,,,,,,NaN,,,,,,,,low,low,,,,,,false,,,,false,507956.89999997616,507956.7999999523,,507956.6999999285,,507548.648,4,500,,
break_continue,html.Screen,10_24_2,2023-11-14T18:46:47.094Z,,,,,,,,,,NaN,,,,,,,,low,low,,,,,,false,,,,false,507957.10000002384,507957,,507957,,507548.648,4,500,,
sequence,flow.Sequence,10_24,2023-11-14T18:46:47.094Z,,,,,,,,,,5858.429000000004,completion,,,,,,,low,low,,,,,,false,,,,false,507957.1999999285,507957,502081.927,502517.2999999523,502098.571,507548.648,4,500,,
trial,html.Screen,10_25_0,2023-11-14T18:46:50.102Z,,,,1,-0.0051046740562181,0.0178832721027728,,false,hh,3416.65199995233,response,0.4447678491870098,0.43214061199463016,-0.4805586614561873,0.4565381345947146,0.47850247401292945,-0.45325322542989754,high,high,,ISIC_9545819.JPG,10,ISIC_0028129.JPG,378,false,hl,keypress(j),0,false,510965.39999997616,510965.2999999523,507531.741,507957.2999999523,507548.648,510548.64,4,500,26,
break,html.Screen,10_25_1,2023-11-14T18:46:50.103Z,,,,,,,,,,NaN,,,,,,,,high,high,,,,,,false,,,,false,510966.10000002384,510965.89999997616,,510965.60000002384,,510548.64,4,500,,
break_continue,html.Screen,10_25_2,2023-11-14T18:46:50.103Z,,,,,,,,,,NaN,,,,,,,,high,high,,,,,,false,,,,false,510966.2999999523,510966.2999999523,,510966.10000002384,,510548.64,4,500,,
sequence,flow.Sequence,10_25,2023-11-14T18:46:50.103Z,,,,,,,,,,3417.65199995233,completion,,,,,,,high,high,,,,,,false,,,,false,510966.5,510966.2999999523,507531.741,507957.1999999285,507548.648,510548.64,4,500,,
trial,html.Screen,10_26_0,2023-11-14T18:46:54.566Z,,,,1,-0.0189295602385628,-0.0128812415435153,,true,hh,4880.359999999986,response,0.3654680925998517,0.43214061199463016,-0.4805586614561873,0.4790939520090457,0.47850247401292945,-0.45325322542989754,high,high,,ISIC_0010372.JPG,10,ISIC_9865097.JPG,378,false,hh,keypress(i),0,false,515429.1999999285,515429,510531.965,510966.60000002384,510548.64,515015.253,4,500,27,
break,html.Screen,10_26_1,2023-11-14T18:46:54.566Z,,,,,,,,,,NaN,,,,,,,,high,high,,,,,,false,,,,false,515429.7999999523,515429.6999999285,,515429.39999997616,,515015.253,4,500,,
break_continue,html.Screen,10_26_2,2023-11-14T18:46:54.567Z,,,,,,,,,,NaN,,,,,,,,high,high,,,,,,false,,,,false,515430,515430,,515429.89999997616,,515015.253,4,500,,
sequence,flow.Sequence,10_26,2023-11-14T18:46:54.567Z,,,,,,,,,,4881.359999999986,completion,,,,,,,high,high,,,,,,false,,,,false,515430.1999999285,515430,510531.965,510966.5,510548.64,515015.253,4,500,,
trial,html.Screen,10_27_0,2023-11-14T18:46:56.981Z,,,,1,0.0523524458062335,-0.0048771624512062,,false,hh,2829.246999999974,response,0.595328861368557,0.43214061199463016,-0.4805586614561873,0.496633025569213,0.47850247401292945,-0.45325322542989754,high,high,,ISIC_0010379.JPG,9,ISIC_0024701.JPG,378,false,hl,keypress(j),0,false,517844.60000002384,517844.5,514998.833,515430.1999999285,515015.253,517432.053,4,500,28,
break,html.Screen,10_27_1,2023-11-14T18:46:56.981Z,,,,,,,,,,NaN,,,,,,,,high,high,,,,,,false,,,,false,517844.89999997616,517844.89999997616,,517844.6999999285,,517432.053,4,500,,
break_continue,html.Screen,10_27_2,2023-11-14T18:46:56.982Z,,,,,,,,,,NaN,,,,,,,,high,high,,,,,,false,,,,false,517845.10000002384,517845.10000002384,,517845,,517432.053,4,500,,
sequence,flow.Sequence,10_27,2023-11-14T18:46:56.982Z,,,,,,,,,,2829.847000023816,completion,,,,,,,high,high,,,,,,false,,,,false,517845.1999999285,517845.10000002384,514998.833,515430.1999999285,515015.253,517432.053,4,500,,
trial,html.Screen,10_28_0,2023-11-14T18:46:59.381Z,,,,1,0.0702697127166421,0.0314752704888287,,true,hh,2812.5470000238274,response,0.3654680925998517,0.43214061199463016,-0.4805586614561873,0.4790939520090457,0.47850247401292945,-0.45325322542989754,high,high,,ISIC_0033881.JPG,8,ISIC_9865097.JPG,378,false,hh,keypress(i),0,false,520244.6999999285,520244.60000002384,517415.504,517845.2999999523,517432.053,519832.225,4,500,29,
break,html.Screen,10_28_1,2023-11-14T18:46:59.382Z,,,,,,,,,,NaN,,,,,,,,high,high,,,,,,false,,,,false,520245,520244.89999997616,,520244.7999999523,,519832.225,4,500,,
break_continue,html.Screen,10_28_2,2023-11-14T18:46:59.382Z,,,,,,,,,,NaN,,,,,,,,high,high,,,,,,false,,,,false,520245.10000002384,520245.10000002384,,520245,,519832.225,4,500,,
sequence,flow.Sequence,10_28,2023-11-14T18:46:59.382Z,,,,,,,,,,2813.0470000238274,completion,,,,,,,high,high,,,,,,false,,,,false,520245.1999999285,520245.10000002384,517415.504,517845.2999999523,517432.053,519832.225,4,500,,
trial,html.Screen,10_29_0,2023-11-14T18:47:01.637Z,,,,1,-0.0658524437333868,0.0334357178485904,,false,ll,2668.4749999284977,response,-0.540414984370107,0.43214061199463016,-0.4805586614561873,-0.3320814852658956,0.47850247401292945,-0.45325322542989754,low,low,,ISIC_8015541.JPG,9,ISIC_0013817.JPG,472,false,hl,keypress(j),0,false,522500.7999999523,522500.6999999285,519815.556,520245.2999999523,519832.225,522082.089,4,500,30,
break,html.Screen,10_29_1,2023-11-14T18:47:01.638Z,,,,,,,,,,NaN,,,,,,,,low,low,,,,,,false,,,,false,522501.10000002384,522501,,522500.7999999523,,522082.089,4,500,,
break_continue,html.Screen,10_29_2,2023-11-14T18:47:01.638Z,,,,,,,,,,NaN,,,,,,,,low,low,,,,,,false,,,,false,522501.2999999523,522501.1999999285,,522501.10000002384,,522082.089,4,500,,
sequence,flow.Sequence,10_29,2023-11-14T18:47:01.638Z,,,,,,,,,,2668.9749999284977,completion,,,,,,,low,low,,,,,,false,,,,false,522501.39999997616,522501.1999999285,519815.556,520245.2999999523,519832.225,522082.089,4,500,,
trial,html.Screen,10_30_0,2023-11-14T18:47:04.341Z,,,,1,-0.0277178575053843,-0.0645068093068572,,false,hl,3122.210999952338,response,0.2886046226448766,0.43214061199463016,-0.4805586614561873,-0.4138970974329346,0.47850247401292945,-0.45325322542989754,high,low,,ISIC_0010807.JPG,10,ISIC_9655520.JPG,319,false,hh,keypress(i),0,false,525204.3999999762,525204.2999999523,522065.278,522501.39999997616,522082.089,524781.961,4,500,31,
break,html.Screen,10_30_1,2023-11-14T18:47:04.341Z,,,,,,,,,,NaN,,,,,,,,high,low,,,,,,false,,,,false,525204.6999999285,525204.6999999285,,525204.5,,524781.961,4,500,,
break_continue,html.Screen,10_30_2,2023-11-14T18:47:04.342Z,,,,,,,,,,NaN,,,,,,,,high,low,,,,,,false,,,,false,525205,525204.8999999762,,525204.6999999285,,524781.961,4,500,,
sequence,flow.Sequence,10_30,2023-11-14T18:47:04.342Z,,,,,,,,,,3122.81099997618,completion,,,,,,,high,low,,,,,,false,,,,false,525205,525204.8999999762,522065.278,522501.39999997616,522082.089,524781.961,4,500,,
trial,html.Screen,10_31_0,2023-11-14T18:47:08.502Z,,,,1,-0.010035581303589,0.0100711721396864,,true,ll,4583.139000023832,response,-0.6227482140660108,0.43214061199463016,-0.4805586614561873,-0.5047245495935259,0.47850247401292945,-0.45325322542989754,low,low,,ISIC_0030592.JPG,9,ISIC_0026231.JPG,472,false,ll,keypress(f),0,false,529365.3999999762,529365.1000000238,524765.364,525205,524781.961,528948.666,4,500,32,
break,html.Screen,10_31_1,2023-11-14T18:47:08.503Z,,,,,,,,,,NaN,,,,,,,,low,low,,,,,,false,,,,false,529366.1000000238,529365.8999999762,,529365.5,,528948.666,4,500,,
break_continue,html.Screen,10_31_2,2023-11-14T18:47:08.503Z,,,,,,,,,,NaN,,,,,,,,low,low,,,,,,false,,,,false,529366.3999999762,529366.2999999523,,529366.1999999285,,528948.666,4,500,,
sequence,flow.Sequence,10_31,2023-11-14T18:47:08.503Z,,,,,,,,,,4584.338999952306,completion,,,,,,,low,low,,,,,,false,,,,false,529366.6000000238,529366.2999999523,524765.364,525205,524781.961,528948.666,4,500,,
trial,html.Screen,10_32_0,2023-11-14T18:47:11.381Z,,,,1,-0.0361875505619981,0.0291457404567876,,false,lh,3295.8340000000317,response,-0.329176273886911,0.43214061199463016,-0.4805586614561873,0.3540845793325422,0.47850247401292945,-0.45325322542989754,low,high,,ISIC_0027480.JPG,10,ISIC_9625295.JPG,291,false,hl,keypress(j),0,false,532244.6000000238,532244.5,528931.957,529366.6999999285,528948.666,531831.987,4,500,33,
break,html.Screen,10_32_1,2023-11-14T18:47:11.382Z,,,,,,,,,,NaN,,,,,,,,low,high,,,,,,false,,,,false,532245.3999999762,532245.2999999523,,532244.6000000238,,531831.987,4,500,,
break_continue,html.Screen,10_32_2,2023-11-14T18:47:11.382Z,,,,,,,,,,NaN,,,,,,,,low,high,,,,,,false,,,,false,532245.6000000238,532245.5,,532245.3999999762,,531831.987,4,500,,
sequence,flow.Sequence,10_32,2023-11-14T18:47:11.382Z,,,,,,,,,,3296.8340000000317,completion,,,,,,,low,high,,,,,,false,,,,false,532245.6999999285,532245.5,528931.957,529366.6999999285,528948.666,531831.987,4,500,,
trial,html.Screen,10_33_0,2023-11-14T18:47:13.189Z,,,,1,0.0450282431170921,0.0102871556606504,,false,hh,2220.6130000238772,response,0.5091260320409943,0.43214061199463016,-0.4805586614561873,0.5836193738116164,0.47850247401292945,-0.45325322542989754,high,high,,ISIC_1805163.JPG,8,ISIC_0031278.JPG,378,false,hl,keypress(j),0,false,534052.6000000238,534052.6000000238,531815.302,532245.6999999285,531831.987,533631.98,4,500,34,
break,html.Screen,10_33_1,2023-11-14T18:47:13.190Z,,,,,,,,,,NaN,,,,,,,,high,high,,,,,,false,,,,false,534052.8999999762,534052.8999999762,,534052.6999999285,,533631.98,4,500,,
break_continue,html.Screen,10_33_2,2023-11-14T18:47:13.190Z,,,,,,,,,,NaN,,,,,,,,high,high,,,,,,false,,,,false,534053.1999999285,534053,,534053,,533631.98,4,500,,
sequence,flow.Sequence,10_33,2023-11-14T18:47:13.190Z,,,,,,,,,,2221.0130000000354,completion,,,,,,,high,high,,,,,,false,,,,false,534053.1999999285,534053,531815.302,532245.6999999285,531831.987,533631.98,4,500,,
trial,html.Screen,10_34_0,2023-11-14T18:47:16.245Z,,,,1,-0.0386453938786174,-0.0465908665241285,,true,hh,3476.4199999761768,response,0.3957100248012226,0.43214061199463016,-0.4805586614561873,0.3781637146808626,0.47850247401292945,-0.45325322542989754,high,high,,ISIC_1698119.JPG,9,ISIC_0062713.JPG,378,false,hh,keypress(i),0,false,537108.5,537108.3999999762,533615.509,534053.1999999285,533631.98,536698.974,4,500,35,
break,html.Screen,10_34_1,2023-11-14T18:47:16.245Z,,,,,,,,,,NaN,,,,,,,,high,high,,,,,,false,,,,false,537108.7999999523,537108.7999999523,,537108.6000000238,,536698.974,4,500,,
break_continue,html.Screen,10_34_2,2023-11-14T18:47:16.246Z,,,,,,,,,,NaN,,,,,,,,high,high,,,,,,false,,,,false,537109,537109,,537108.8999999762,,536698.974,4,500,,
sequence,flow.Sequence,10_34,2023-11-14T18:47:16.246Z,,,,,,,,,,3477.0200000000186,completion,,,,,,,high,high,,,,,,false,,,,false,537109,537109,533615.509,534053.1999999285,533631.98,536698.974,4,500,,
trial,html.Screen,10_35_0,2023-11-14T18:47:18.789Z,,,,1,-0.0277178575053843,-0.0645068093068572,,false,lh,2953.3259999522706,response,-0.4254747739173521,0.43214061199463016,-0.4805586614561873,0.557445270581951,0.47850247401292945,-0.45325322542989754,low,high,,ISIC_0010807.JPG,9,ISIC_0028412.JPG,291,false,hh,keypress(i),0,false,539652.3999999762,539652.2999999523,536681.931,537109.1000000238,536698.974,539231.994,4,500,36,
break,html.Screen,10_35_1,2023-11-14T18:47:18.789Z,,,,,,,,,,NaN,,,,,,,,low,high,,,,,,false,,,,false,539652.8999999762,539652.7999999523,,539652.6000000238,,539231.994,4,500,,
break_continue,html.Screen,10_35_2,2023-11-14T18:47:18.790Z,,,,,,,,,,NaN,,,,,,,,low,high,,,,,,false,,,,false,539653.1000000238,539653.1000000238,,539652.8999999762,,539231.994,4,500,,
sequence,flow.Sequence,10_35,2023-11-14T18:47:18.790Z,,,,,,,,,,2954.126000023796,completion,,,,,,,low,high,,,,,,false,,,,false,539653.1999999285,539653.1000000238,536681.931,537109.1000000238,536698.974,539231.994,4,500,,
trial,html.Screen,10_36_0,2023-11-14T18:47:21.477Z,,,,1,-0.0565575423757561,0.0536115913979284,,false,lh,3108.3059999523684,response,-0.3067661316855226,0.43214061199463016,-0.4805586614561873,0.4050242057367615,0.47850247401292945,-0.45325322542989754,low,high,,ISIC_0046983.JPG,10,ISIC_0064393.JPG,291,false,hl,keypress(j),0,false,542340.3999999762,542340.2999999523,539215.295,539653.1999999285,539231.994,541931.963,4,500,37,
break,html.Screen,10_36_1,2023-11-14T18:47:21.477Z,,,,,,,,,,NaN,,,,,,,,low,high,,,,,,false,,,,false,542340.8999999762,542340.7999999523,,542340.5,,541931.963,4,500,,
break_continue,html.Screen,10_36_2,2023-11-14T18:47:21.478Z,,,,,,,,,,NaN,,,,,,,,low,high,,,,,,false,,,,false,542341.1000000238,542341.1000000238,,542341,,541931.963,4,500,,
sequence,flow.Sequence,10_36,2023-11-14T18:47:21.478Z,,,,,,,,,,3109.106000023894,completion,,,,,,,low,high,,,,,,false,,,,false,542341.1000000238,542341.1000000238,539215.295,539653.1999999285,539231.994,541931.963,4,500,,
trial,html.Screen,10_37_0,2023-11-14T18:47:24.117Z,,,,1,-0.0367218428225813,0.0026956749740767,,false,ll,3048.7369999284856,response,-0.343260854583605,0.43214061199463016,-0.4805586614561873,-0.5707273770189105,0.47850247401292945,-0.45325322542989754,low,low,,ISIC_7212271.JPG,9,ISIC_6710082.JPG,472,false,hh,keypress(i),0,false,544980.6999999285,544980.6999999285,541915.582,542341.1999999285,541931.963,544565.312,4,500,38,
break,html.Screen,10_37_1,2023-11-14T18:47:24.118Z,,,,,,,,,,NaN,,,,,,,,low,low,,,,,,false,,,,false,544981.1000000238,544981,,544980.7999999523,,544565.312,4,500,,
break_continue,html.Screen,10_37_2,2023-11-14T18:47:24.118Z,,,,,,,,,,NaN,,,,,,,,low,low,,,,,,false,,,,false,544981.2999999523,544981.1999999285,,544981.1000000238,,544565.312,4,500,,
sequence,flow.Sequence,10_37,2023-11-14T18:47:24.118Z,,,,,,,,,,3049.2369999284856,completion,,,,,,,low,low,,,,,,false,,,,false,544981.2999999523,544981.1999999285,541915.582,542341.1999999285,541931.963,544565.312,4,500,,
trial,html.Screen,10_38_0,2023-11-14T18:47:26.373Z,,,,1,-0.0029978997915594,0.0736178673732526,,false,hh,2670.987999952282,response,0.4017252149058226,0.43214061199463016,-0.4805586614561873,0.6226651333340791,0.47850247401292945,-0.45325322542989754,high,high,,ISIC_9745038.JPG,9,ISIC_0069351.JPG,378,false,hl,keypress(j),0,false,547236.5,547236.2999999523,544548.638,544981.3999999762,544565.312,546815.297,4,500,39,
break,html.Screen,10_38_1,2023-11-14T18:47:26.373Z,,,,,,,,,,NaN,,,,,,,,high,high,,,,,,false,,,,false,547236.6999999285,547236.6999999285,,547236.5,,546815.297,4,500,,
break_continue,html.Screen,10_38_2,2023-11-14T18:47:26.373Z,,,,,,,,,,NaN,,,,,,,,high,high,,,,,,false,,,,false,547236.8999999762,547236.7999999523,,547236.6999999285,,546815.297,4,500,,
sequence,flow.Sequence,10_38,2023-11-14T18:47:26.374Z,,,,,,,,,,2671.487999952282,completion,,,,,,,high,high,,,,,,false,,,,false,547237,547236.7999999523,544548.638,544981.3999999762,544565.312,546815.297,4,500,,
trial,html.Screen,10_39_0,2023-11-14T18:47:28.934Z,,,,1,-0.0050319651598106,0.047524453347389,,false,ll,2981.502999952296,response,-0.404609657346472,0.43214061199463016,-0.4805586614561873,-0.2803688795301275,0.47850247401292945,-0.45325322542989754,low,low,,ISIC_0027081.JPG,8,ISIC_8168598.JPG,472,false,hl,keypress(j),0,false,549796.8999999762,549796.7999999523,546798.962,547237,546815.297,549382.01,4,500,40,
break,html.Screen,10_39_1,2023-11-14T18:47:28.934Z,,,,,,,,,,NaN,,,,,,,,low,low,,,,,,false,,,,false,549797.3999999762,549797.2999999523,,549797.1000000238,,549382.01,4,500,,
break_continue,html.Screen,10_39_2,2023-11-14T18:47:28.934Z,,,,,,,,,,NaN,,,,,,,,low,low,,,,,,false,,,,false,549797.6999999285,549797.6000000238,,549797.3999999762,,549382.01,4,500,,
sequence,flow.Sequence,10_39,2023-11-14T18:47:28.934Z,,,,,,,,,,2982.3030000238214,completion,,,,,,,low,low,,,,,,false,,,,false,549797.6999999285,549797.6000000238,546798.962,547237,546815.297,549382.01,4,500,,
trial,html.Screen,10_40_0,2023-11-14T18:47:31.766Z,,,,1,-0.0001106800768269,0.0404747734408496,,false,ll,3247.0900000238325,response,-0.6251271648528502,0.43214061199463016,-0.4805586614561873,-0.302196532952371,0.47850247401292945,-0.45325322542989754,low,low,,ISIC_5706192.JPG,9,ISIC_9209245.JPG,472,false,hh,keypress(i),0,false,552629.1999999285,552629.1000000238,549365.309,549797.7999999523,549382.01,552215.336,4,500,41,
break,html.Screen,10_40_1,2023-11-14T18:47:31.766Z,,,,,,,,,,NaN,,,,,,,,low,low,,,,,,false,,,,false,552629.6000000238,552629.5,,552629.2999999523,,552215.336,4,500,,
break_continue,html.Screen,10_40_2,2023-11-14T18:47:31.766Z,,,,,,,,,,NaN,,,,,,,,low,low,,,,,,false,,,,false,552629.8999999762,552629.7999999523,,552629.7999999523,,552215.336,4,500,,
sequence,flow.Sequence,10_40,2023-11-14T18:47:31.767Z,,,,,,,,,,3247.789999952307,completion,,,,,,,low,low,,,,,,false,,,,false,552630,552629.7999999523,549365.309,549797.7999999523,549382.01,552215.336,4,500,,
trial,html.Screen,10_41_0,2023-11-14T18:47:35.334Z,,,,1,0.0560021488981517,-0.0058131881595011,,false,hh,3981.7640000238316,response,0.2509961356808007,0.43214061199463016,-0.4805586614561873,0.6330635748149416,0.47850247401292945,-0.45325322542989754,high,high,,ISIC_0000077.JPG,9,ISIC_5581297.JPG,378,false,ll,keypress(f),0,false,556197.2999999523,556197.1000000238,552198.857,552630,552215.336,555781.973,4,500,42,
break,html.Screen,10_41_1,2023-11-14T18:47:35.334Z,,,,,,,,,,NaN,,,,,,,,high,high,,,,,,false,,,,false,556197.6999999285,556197.6000000238,,556197.2999999523,,555781.973,4,500,,
break_continue,html.Screen,10_41_2,2023-11-14T18:47:35.335Z,,,,,,,,,,NaN,,,,,,,,high,high,,,,,,false,,,,false,556198,556197.8999999762,,556197.7999999523,,555781.973,4,500,,
sequence,flow.Sequence,10_41,2023-11-14T18:47:35.335Z,,,,,,,,,,3982.563999976148,completion,,,,,,,high,high,,,,,,false,,,,false,556198.1000000238,556197.8999999762,552198.857,552630,552215.336,555781.973,4,500,,
trial,html.Screen,10_42_0,2023-11-14T18:47:38.007Z,,,,1,0.0071892445601978,-0.0246015408628738,,true,hl,3087.92699997616,response,0.5696108638427752,0.43214061199463016,-0.4805586614561873,-0.2935958001391305,0.47850247401292945,-0.45325322542989754,high,low,,ISIC_0014133.JPG,9,ISIC_0653633.JPG,319,false,hl,keypress(j),0,false,558870.1999999285,558869.8999999762,555765.336,556198.1000000238,555781.973,558448.705,4,500,43,
break,html.Screen,10_42_1,2023-11-14T18:47:38.008Z,,,,,,,,,,NaN,,,,,,,,high,low,,,,,,false,,,,false,558870.8999999762,558870.6999999285,,558870.3999999762,,558448.705,4,500,,
break_continue,html.Screen,10_42_2,2023-11-14T18:47:38.008Z,,,,,,,,,,NaN,,,,,,,,high,low,,,,,,false,,,,false,558871.3999999762,558871.1999999285,,558871.1000000238,,558448.705,4,500,,
sequence,flow.Sequence,10_42,2023-11-14T18:47:38.008Z,,,,,,,,,,3089.2269999284763,completion,,,,,,,high,low,,,,,,false,,,,false,558871.6000000238,558871.1999999285,555765.336,556198.1000000238,555781.973,558448.705,4,500,,
trial,html.Screen,10_43_0,2023-11-14T18:47:39.734Z,,,,1,-0.0296179945324451,-0.074433472160252,,false,ll,2148.295000000042,response,-0.6039012657257102,0.43214061199463016,-0.4805586614561873,-0.5709151134201832,0.47850247401292945,-0.45325322542989754,low,low,,ISIC_0026982.JPG,8,ISIC_5658900.JPG,472,false,hl,keypress(j),0,false,560597.1999999285,560597,558432.186,558871.6999999285,558448.705,560182.064,4,500,44,
break,html.Screen,10_43_1,2023-11-14T18:47:39.734Z,,,,,,,,,,NaN,,,,,,,,low,low,,,,,,false,,,,false,560597.7999999523,560597.6000000238,,560597.2999999523,,560182.064,4,500,,
break_continue,html.Screen,10_43_2,2023-11-14T18:47:39.735Z,,,,,,,,,,NaN,,,,,,,,low,low,,,,,,false,,,,false,560598,560597.8999999762,,560597.8999999762,,560182.064,4,500,,
sequence,flow.Sequence,10_43,2023-11-14T18:47:39.735Z,,,,,,,,,,2149.1949999762,completion,,,,,,,low,low,,,,,,false,,,,false,560598.1000000238,560597.8999999762,558432.186,558871.6999999285,558448.705,560182.064,4,500,,
trial,html.Screen,10_44_0,2023-11-14T18:47:41.957Z,,,,1,0.0339906816361373,0.0603913124071272,,false,hh,2638.435999999987,response,0.5869948266954097,0.43214061199463016,-0.4805586614561873,0.5780562612500869,0.47850247401292945,-0.45325322542989754,high,high,,ISIC_1258763.JPG,10,ISIC_0011471.JPG,378,false,hl,keypress(j),0,false,562820.6000000238,562820.5,560165.334,560598.1000000238,560182.064,562398.715,4,500,45,
break,html.Screen,10_44_1,2023-11-14T18:47:41.958Z,,,,,,,,,,NaN,,,,,,,,high,high,,,,,,false,,,,false,562821,562820.7999999523,,562820.7999999523,,562398.715,4,500,,
break_continue,html.Screen,10_44_2,2023-11-14T18:47:41.958Z,,,,,,,,,,NaN,,,,,,,,high,high,,,,,,false,,,,false,562821.1999999285,562821.1000000238,,562821.1000000238,,562398.715,4,500,,
sequence,flow.Sequence,10_44,2023-11-14T18:47:41.958Z,,,,,,,,,,2639.036000023829,completion,,,,,,,high,high,,,,,,false,,,,false,562821.2999999523,562821.1000000238,560165.334,560598.1000000238,560182.064,562398.715,4,500,,
trial,html.Screen,10_45_0,2023-11-14T18:47:45.991Z,,,,1,0.0395849059583371,-0.049996355475379,,false,hl,4455.785000000033,response,0.2886046226448766,0.43214061199463016,-0.4805586614561873,-0.4138970974329346,0.47850247401292945,-0.45325322542989754,high,low,,ISIC_4042619.JPG,9,ISIC_9655520.JPG,319,false,hh,keypress(i),0,false,566854.7999999523,566854.5,562382.153,562821.2999999523,562398.715,566450.292,4,500,46,
break,html.Screen,10_45_1,2023-11-14T18:47:45.992Z,,,,,,,,,,NaN,,,,,,,,high,low,,,,,,false,,,,false,566855.8999999762,566855.6000000238,,566855.1999999285,,566450.292,4,500,,
break_continue,html.Screen,10_45_2,2023-11-14T18:47:45.993Z,,,,,,,,,,NaN,,,,,,,,high,low,,,,,,false,,,,false,566856.5,566856.2999999523,,566856.1000000238,,566450.292,4,500,,
sequence,flow.Sequence,10_45,2023-11-14T18:47:45.993Z,,,,,,,,,,4457.584999952349,completion,,,,,,,high,low,,,,,,false,,,,false,566856.7999999523,566856.2999999523,562382.153,562821.2999999523,562398.715,566450.292,4,500,,
trial,html.Screen,10_46_0,2023-11-14T18:47:49.606Z,,,,1,-0.0372699196710335,0.0646614895271859,,false,lh,4018.707999999984,response,-0.4543104134561458,0.43214061199463016,-0.4805586614561873,0.4864873963754609,0.47850247401292945,-0.45325322542989754,low,high,,ISIC_1175170.JPG,9,ISIC_0031204.JPG,291,false,ll,keypress(f),0,false,570469.1000000238,570469,566415.302,566857,566450.292,570048.664,4,500,47,
break,html.Screen,10_46_1,2023-11-14T18:47:49.606Z,,,,,,,,,,NaN,,,,,,,,low,high,,,,,,false,,,,false,570469.6000000238,570469.3999999762,,570469.1999999285,,570048.664,4,500,,
break_continue,html.Screen,10_46_2,2023-11-14T18:47:49.606Z,,,,,,,,,,NaN,,,,,,,,low,high,,,,,,false,,,,false,570469.7999999523,570469.6999999285,,570469.6999999285,,570048.664,4,500,,
sequence,flow.Sequence,10_46,2023-11-14T18:47:49.607Z,,,,,,,,,,4019.4079999284586,completion,,,,,,,low,high,,,,,,false,,,,false,570470,570469.6999999285,566415.302,566857,566450.292,570048.664,4,500,,
trial,html.Screen,10_47_0,2023-11-14T18:47:52.725Z,,,,1,0.0480684603309257,-0.0620119776873313,,true,hl,3539.6359999523265,response,0.4166815486915322,0.43214061199463016,-0.4805586614561873,-0.5825063368450296,0.47850247401292945,-0.45325322542989754,high,low,,ISIC_0645834.JPG,10,ISIC_0031369.JPG,319,false,hl,keypress(j),0,false,573588.5,573588.2999999523,570032.006,570470,570048.664,573182.726,4,500,48,
break,html.Screen,10_47_1,2023-11-14T18:47:52.725Z,,,,,,,,,,NaN,,,,,,,,high,low,,,,,,false,,,,false,573588.6999999285,573588.6000000238,,573588.5,,573182.726,4,500,,
break_continue,html.Screen,10_47_2,2023-11-14T18:47:52.725Z,,,,,,,,,,NaN,,,,,,,,high,low,,,,,,false,,,,false,573588.8999999762,573588.8999999762,,573588.6999999285,,573182.726,4,500,,
sequence,flow.Sequence,10_47,2023-11-14T18:47:52.726Z,,,,,,,,,,3540.2359999761684,completion,,,,,,,high,low,,,,,,false,,,,false,573589,573588.8999999762,570032.006,570470,570048.664,573182.726,4,500,,
trial,html.Screen,10_48_0,2023-11-14T18:47:57.749Z,,,,1,-0.0380440426394326,-0.0685633753763444,,true,lh,5429.874000023818,response,-0.3485371199603034,0.43214061199463016,-0.4805586614561873,0.3157932706087721,0.47850247401292945,-0.45325322542989754,low,high,,ISIC_0032680.JPG,9,ISIC_5826878.JPG,291,false,lh,keypress(e),0,false,578612.6999999285,578612.6000000238,573148.833,573589,573182.726,578198.768,4,500,49,
break,html.Screen,10_48_1,2023-11-14T18:47:57.750Z,,,,,,,,,,NaN,,,,,,,,low,high,,,,,,false,,,,false,578613,578612.8999999762,,578612.7999999523,,578198.768,4,500,,
break_continue,html.Screen,10_48_2,2023-11-14T18:47:57.750Z,,,,,,,,,,NaN,,,,,,,,low,high,,,,,,false,,,,false,578613.2999999523,578613.1999999285,,578613.1000000238,,578198.768,4,500,,
sequence,flow.Sequence,10_48,2023-11-14T18:47:57.750Z,,,,,,,,,,5430.47399992845,completion,,,,,,,low,high,,,,,,false,,,,false,578613.2999999523,578613.1999999285,573148.833,573589,573182.726,578198.768,4,500,,
trial,html.Screen,10_49_0,2023-11-14T18:48:01.334Z,,,,1,0.0158987717472563,0.0292472192292015,,false,lh,3998.5319999522762,response,-0.4736234826125962,0.43214061199463016,-0.4805586614561873,0.4002286255111744,0.47850247401292945,-0.45325322542989754,low,high,,ISIC_1366765.JPG,10,ISIC_0056167.JPG,291,false,hl,keypress(j),0,false,582197.5,582197.2999999523,578182.256,578613.2999999523,578198.768,581782.027,4,500,50,
break,html.Screen,10_49_1,2023-11-14T18:48:01.335Z,,,,,,,,,,NaN,,,,,,,,low,high,,,,,,false,,,,false,582198,582197.7999999523,,582197.5,,581782.027,4,500,,
