sender,sender_type,sender_id,timestamp,meta,,age,blockNo,c1,c2,condition,correct,correctResponse,duration,ended_on,f1,f1_high,f1_low,f2,f2_high,f2_low,feature_level1,feature_level2,gender,img_left,img_reveal,img_right,n_target_images,practice,response,response_action,selection_duration,staircase,time_commit,time_end,time_render,time_run,time_show,time_switch,total_blocks,total_trials,trialNo,url
informed_consent,html.Screen,0,2023-11-14T20:10:04.959Z,"{""labjs_version"":""20.2.4"",""labjs_build"":{""flavor"":""development"",""commit"":""f5b4a49f956347addd546a832a3327688c2c0fef""},""location"":""https://labjs.felixhenninger.com/api/labjs_preview/index.html"",""userAgent"":""Mozilla/5.0 (Windows NT 10.0; Win64; x64) AppleWebKit/537.36 (KHTML, like Gecko) Chrome/119.0.0.0 Safari/537.36"",""platform"":""Win32"",""language"":""en-US"",""locale"":""en-US"",""timeZone"":""America/Chicago"",""timezoneOffset"":360,""screen_width"":1920,""screen_height"":1080,""scroll_width"":945,""scroll_height"":918,""window_innerWidth"":945,""window_innerHeight"":966,""devicePixelRatio"":1}",,,,,,,,,257232.72499999776,response,,,,,,,,,,,,,,,consent,click button,,,259185.30000000075,259177.09999999776,769.755,2125.300000000745,1944.375,259000.913,,,,{}
Demography form,html.Form,1,2023-11-14T20:10:18.159Z,,,18,,,,,,,13384.786999999254,form submission,,,,,,,,,transgender,,,,,,,,,,272385.80000000075,272385.69999999925,258984.226,259185.5,259000.913,272214.1,,,,
Welcome,html.Screen,2,2023-11-14T20:11:35.247Z,,,,,,,"[""asym"",""col""]",,,77258.99999999779,response,,,,,,,,,,,,,,,continue,click button,,,349473.69999999925,349473.09999999776,272181.013,272385.80000000075,272214.1,349324.376,,,,
demo_instructions,html.Screen,3,2023-11-14T20:11:59.863Z,,,,,,,,,,24764.823999999266,response,,,,,,,,,,,,,,,continue,click button,,,374089.69999999925,374089.19999999925,349307.948,349473.80000000075,349324.376,373932.351,,,,
trial,html.Screen,4_0_0,2023-11-14T20:12:20.186Z,,,,0,1.0700930503975157,-0.923753102263735,,true,lh,20479.94900000072,response,-0.8152354890677903,0.9999999999999998,-0.9999999999999998,1.10470584815077,0.9999999999999998,-0.9999999999999998,low,high,,ISIC_0000022.JPG,,ISIC_0010283.JPG,24,true,lh,keypress(e),100,false,394412.8999999985,394412.30000000075,373915.572,374089.80000000075,373932.351,394252.547,1,16,1,
sequence,flow.Sequence,4_0,2023-11-14T20:12:20.211Z,,,,,,,,,,20479.94900000072,completion,,,,,,,low,high,,,,,,true,,,,false,394438.19999999925,394412.30000000075,373915.572,374089.80000000075,373932.351,394252.547,1,16,,
trial,html.Screen,4_1_0,2023-11-14T20:12:29.208Z,,,,0,0.9566823908868002,-0.9602125665128364,,true,lh,9181.552999997744,response,-1.1501717278509027,0.9999999999999998,-0.9999999999999998,0.8228936373136835,0.9999999999999998,-0.9999999999999998,low,high,,ISIC_0056784.JPG,,ISIC_8398000.JPG,24,true,lh,keypress(e),100,false,403434.69999999925,403434.09999999776,394235.939,394438.30000000075,394252.547,403278.484,1,16,2,
sequence,flow.Sequence,4_1,2023-11-14T20:12:29.208Z,,,,,,,,,,9181.552999997744,completion,,,,,,,low,high,,,,,,true,,,,false,403435.5,403434.09999999776,394235.939,394438.30000000075,394252.547,403278.484,1,16,,
trial,html.Screen,4_2_0,2023-11-14T20:12:37.269Z,,,,0,0.8620516892494489,-1.1108509340502866,,true,lh,8216.516000000003,response,-0.8479396253253069,0.9999999999999998,-0.9999999999999998,1.011054319516718,0.9999999999999998,-0.9999999999999998,low,high,,ISIC_5557806.JPG,,ISIC_0063521.JPG,24,true,lh,keypress(e),100,false,411495.5,411495,403261.594,403435.8999999985,403278.484,411336.272,1,16,3,
sequence,flow.Sequence,4_2,2023-11-14T20:12:37.270Z,,,,,,,,,,8216.516000000003,completion,,,,,,,low,high,,,,,,true,,,,false,411496.3999999985,411495,403261.594,403435.69999999925,403278.484,411336.272,1,16,,
trial,html.Screen,4_3_0,2023-11-14T20:12:42.801Z,,,,0,1.0700930503975157,-0.923753102263735,,true,lh,5691.528000000748,response,-0.9013888878932071,0.9999999999999998,-0.9999999999999998,0.9328095253308732,0.9999999999999998,-0.9999999999999998,low,high,,ISIC_0000022.JPG,,ISIC_0068259.JPG,24,true,lh,keypress(e),100,false,417028.30000000075,417027.80000000075,411319.664,411496.80000000075,411336.272,416875.384,1,16,4,
sequence,flow.Sequence,4_3,2023-11-14T20:12:42.802Z,,,,,,,,,,5691.528000000748,completion,,,,,,,low,high,,,,,,true,,,,false,417028.80000000075,417027.80000000075,411319.664,411496.80000000075,411336.272,416875.384,1,16,,
trial,html.Screen,4_4_0,2023-11-14T20:13:12.679Z,,,,0,1.1048442481887897,0.8090139128440115,,true,ll,30030.01599999849,response,-1.0668742262335038,0.9999999999999998,-0.9999999999999998,-0.9013677148468237,0.9999999999999998,-0.9999999999999998,low,low,,ISIC_0057539.JPG,,ISIC_1658623.JPG,111,true,ll,keypress(f),100,false,446905.5,446905.3999999985,416858.717,417029.19999999925,416875.384,446755.053,1,16,5,
sequence,flow.Sequence,4_4,2023-11-14T20:13:12.679Z,,,,,,,,,,30030.01599999849,completion,,,,,,,low,low,,,,,,true,,,,false,446905.69999999925,446905.3999999985,416858.717,417029,416875.384,446755.053,1,16,,
trial,html.Screen,4_5_0,2023-11-14T20:13:18.667Z,,,,0,1.0765208267927882,0.8606651260669556,,true,ll,6138.446999999986,response,-0.9840050049609405,0.9999999999999998,-0.9999999999999998,-1.1927876559115576,0.9999999999999998,-0.9999999999999998,low,low,,ISIC_5313574.JPG,,ISIC_8651053.JPG,111,true,ll,keypress(f),100,false,452893.69999999925,452893.5,446738.492,446905.8999999985,446755.053,452744.385,1,16,6,
sequence,flow.Sequence,4_5,2023-11-14T20:13:18.667Z,,,,,,,,,,6138.446999999986,completion,,,,,,,low,low,,,,,,true,,,,false,452893.80000000075,452893.5,446738.492,446905.8999999985,446755.053,452744.385,1,16,,
trial,html.Screen,4_6_0,2023-11-14T20:13:27.216Z,,,,0,1.0193735734252425,0.9365358249762208,,true,ll,8697.61499999999,response,-0.8778348457214913,0.9999999999999998,-0.9999999999999998,-0.8260692529258827,0.9999999999999998,-0.9999999999999998,low,low,,ISIC_0071951.JPG,,ISIC_0013213.JPG,111,true,ll,keypress(f),100,false,461442.3999999985,461442,452727.608,452893.8999999985,452744.385,461286.417,1,16,7,
sequence,flow.Sequence,4_6,2023-11-14T20:13:27.216Z,,,,,,,,,,8697.61499999999,completion,,,,,,,low,low,,,,,,true,,,,false,461443.09999999776,461442,452727.608,452893.8999999985,452744.385,461286.417,1,16,,
trial,html.Screen,4_7_0,2023-11-14T20:13:31.066Z,,,,0,0.8751568783563604,0.8649242672115863,,true,ll,4006.282999999239,response,-1.1802887330422154,0.9999999999999998,-0.9999999999999998,-1.0224375154810723,0.9999999999999998,-0.9999999999999998,low,low,,ISIC_0027742.JPG,,ISIC_9225640.JPG,111,true,ll,keypress(f),100,false,465292.80000000075,465292.69999999925,461269.524,461443.30000000075,461286.417,465140.073,1,16,8,
sequence,flow.Sequence,4_7,2023-11-14T20:13:31.066Z,,,,,,,,,,4006.282999999239,completion,,,,,,,low,low,,,,,,true,,,,false,465293.09999999776,465292.69999999925,461269.524,461443.30000000075,461286.417,465140.073,1,16,,
trial,html.Screen,4_8_0,2023-11-14T20:13:38.861Z,,,,0,-1.0003671514840182,0.8992716557663581,,true,hl,7947.826999998535,response,1.0264463986917702,0.9999999999999998,-0.9999999999999998,-1.171271535505083,0.9999999999999998,-0.9999999999999998,high,low,,ISIC_0061749.JPG,,ISIC_7889838.JPG,24,true,hl,keypress(j),100,false,473088.5,473087.8999999985,465123.381,465293.09999999776,465140.073,472931.255,1,16,9,
sequence,flow.Sequence,4_8,2023-11-14T20:13:38.862Z,,,,,,,,,,7947.826999998535,completion,,,,,,,high,low,,,,,,true,,,,false,473089.09999999776,473087.8999999985,465123.381,465293.09999999776,465140.073,472931.255,1,16,,
trial,html.Screen,4_9_0,2023-11-14T20:13:43.353Z,,,,0,-0.8779374983479176,0.9745548032823428,,true,hl,4648.84499999776,response,0.9670240379618178,0.9999999999999998,-0.9999999999999998,-1.1806404773220665,0.9999999999999998,-0.9999999999999998,high,low,,ISIC_2991354.JPG,,ISIC_0002288.JPG,24,true,hl,keypress(j),100,false,477580.5,477580.09999999776,472914.439,473089.3999999985,472931.255,477419.114,1,16,10,
sequence,flow.Sequence,4_9,2023-11-14T20:13:43.353Z,,,,,,,,,,4648.84499999776,completion,,,,,,,high,low,,,,,,true,,,,false,477580.8999999985,477580.09999999776,472914.439,473089.30000000075,472931.255,477419.114,1,16,,
trial,html.Screen,4_10_0,2023-11-14T20:13:50.659Z,,,,0,-1.0143509683988825,1.0281980567462463,,true,hl,7466.7859999985085,response,0.8015753713975186,0.9999999999999998,-0.9999999999999998,-1.0067065355978264,0.9999999999999998,-0.9999999999999998,high,low,,ISIC_0062031.JPG,,ISIC_0002119.JPG,24,true,hl,keypress(j),100,false,484886.30000000075,484885.8999999985,477402.269,477581.09999999776,477419.114,484726.45,1,16,11,
sequence,flow.Sequence,4_10,2023-11-14T20:13:50.659Z,,,,,,,,,,7466.7859999985085,completion,,,,,,,high,low,,,,,,true,,,,false,484886.8999999985,484885.8999999985,477402.269,477581.09999999776,477419.114,484726.45,1,16,,
trial,html.Screen,4_11_0,2023-11-14T20:13:58.845Z,,,,0,-0.8479396253253069,1.011054319516718,,true,hl,8345.549999999988,response,1.0088376543442317,0.9999999999999998,-0.9999999999999998,-0.8023075994977575,0.9999999999999998,-0.9999999999999998,high,low,,ISIC_0063521.JPG,,ISIC_7619234.JPG,24,true,hl,keypress(j),100,false,493072.5,493072,484709.553,484887.19999999925,484726.45,492917.928,1,16,12,
sequence,flow.Sequence,4_11,2023-11-14T20:13:58.846Z,,,,,,,,,,8345.549999999988,completion,,,,,,,high,low,,,,,,true,,,,false,493073.09999999776,493072,484709.553,484887,484726.45,492917.928,1,16,,
trial,html.Screen,4_12_0,2023-11-14T20:14:13.961Z,,,,0,-0.8093178584833343,-1.0139833925057518,,true,hh,15270.571999999986,response,0.8847502213514871,0.9999999999999998,-0.9999999999999998,0.9725947392713435,0.9999999999999998,-0.9999999999999998,high,high,,ISIC_6171084.JPG,,ISIC_0073044.JPG,154,true,hh,keypress(i),100,false,508189,508188.5,492901.134,493073.3999999985,492917.928,508033.026,1,16,13,
sequence,flow.Sequence,4_12,2023-11-14T20:14:13.962Z,,,,,,,,,,15270.571999999986,completion,,,,,,,high,high,,,,,,true,,,,false,508189.69999999925,508188.5,492901.134,493073.3999999985,492917.928,508033.026,1,16,,
trial,html.Screen,4_13_0,2023-11-14T20:14:18.965Z,,,,0,-1.071052731807262,-0.8412787617064144,,true,hh,5159.373999998497,response,1.1227373144244253,0.9999999999999998,-0.9999999999999998,1.1886610799377713,0.9999999999999998,-0.9999999999999998,high,high,,ISIC_4269227.JPG,,ISIC_0059506.JPG,154,true,hh,keypress(i),100,false,513192.5,513192.3999999985,508016.131,508189.8999999985,508033.026,513037.798,1,16,14,
sequence,flow.Sequence,4_13,2023-11-14T20:14:18.965Z,,,,,,,,,,5159.373999998497,completion,,,,,,,high,high,,,,,,true,,,,false,513192.69999999925,513192.3999999985,508016.131,508189.8999999985,508033.026,513037.798,1,16,,
trial,html.Screen,4_14_0,2023-11-14T20:14:21.898Z,,,,0,-1.1063796153389187,-0.8605921333200546,,true,hh,3087.20199999999,response,0.8057040901302144,0.9999999999999998,-0.9999999999999998,0.8481278654022556,0.9999999999999998,-0.9999999999999998,high,high,,ISIC_0064071.JPG,,ISIC_0014366.JPG,154,true,hh,keypress(i),100,false,516125.3999999985,516125,513021.13,513192.69999999925,513037.798,515974.135,1,16,15,
sequence,flow.Sequence,4_14,2023-11-14T20:14:21.898Z,,,,,,,,,,3087.20199999999,completion,,,,,,,high,high,,,,,,true,,,,false,516126,516125,513021.13,513192.69999999925,513037.798,515974.135,1,16,,
trial,html.Screen,4_15_0,2023-11-14T20:14:27.411Z,,,,0,-1.1119564877278971,-0.9546609075308709,,true,hh,5664.364999999991,response,1.1584542819627714,0.9999999999999998,-0.9999999999999998,0.9718566025210856,0.9999999999999998,-0.9999999999999998,high,high,,ISIC_0056110.JPG,,ISIC_0010162.JPG,154,true,hh,keypress(i),100,false,521638.8999999985,521638.5,515957.609,516126.30000000075,515974.135,521479.673,1,16,16,
sequence,flow.Sequence,4_15,2023-11-14T20:14:27.412Z,,,,,,,,,,5664.364999999991,completion,,,,,,,high,high,,,,,,true,,,,false,521639.59999999776,521638.5,515957.609,516126.19999999925,515974.135,521479.673,1,16,,
demonstration_loop,flow.Loop,4,2023-11-14T20:14:27.412Z,,,,,,,,,,147706.14899999998,completion,,,,,,,,,,,,,,true,,,,false,521640,521638.5,373915.572,374089.80000000075,373932.351,521479.673,1,16,,
practice_instructions,html.Screen,5,2023-11-14T20:14:53.725Z,,,,,,,,,,26465.32699999999,response,,,,,,,,,,,,,,,continue,click button,,,547953.0999999978,547945,521462.88,521640.30000000075,521479.673,547789.285,,,,
trial,html.Screen,6_0_0,2023-11-14T20:15:04.603Z,,,,1,-1.09666761087476,-0.9917482735105084,,,,10877.605999999912,timeout,0.985420189652684,0.9999999999999998,-0.9999999999999998,0.8921028806662099,0.9999999999999998,-0.9999999999999998,high,high,,ISIC_0071754.JPG,,ISIC_0014982.JPG,154,true,,,0,false,558831.3999999985,558831.3000000007,547772.404,547953.3000000007,547789.285,558666.891,1,20,1,
sequence,flow.Sequence,6_0,2023-11-14T20:15:04.603Z,,,,,,,,,,11042.015000000712,completion,,,,,,,high,high,,,,,,true,,,,false,558831.5,558831.3000000007,547772.404,547953.3000000007,547789.285,558666.891,1,20,,
trial,html.Screen,6_1_0,2023-11-14T20:15:07.246Z,,,,1,1.094624209823328,1.0544499428769605,,true,ll,2807.109000000055,response,-1.1990772227054871,0.9999999999999998,-0.9999999999999998,-1.1224329926844498,0.9999999999999998,-0.9999999999999998,low,low,,ISIC_0055526.JPG,,ISIC_3425388.JPG,111,true,ll,keypress(f),0,false,561474.1999999993,561474,558650.197,558831.5999999978,558666.891,561319.524,1,20,2,
sequence,flow.Sequence,6_1,2023-11-14T20:15:07.246Z,,,,,,,,,,2807.109000000055,completion,,,,,,,low,low,,,,,,true,,,,false,561474.3999999985,561474,558650.197,558831.5999999978,558666.891,561319.524,1,20,,
trial,html.Screen,6_2_0,2023-11-14T20:15:12.302Z,,,,1,-1.1501717278509027,0.8228936373136835,,true,hl,5210.675999999279,response,0.8588347582642082,0.9999999999999998,-0.9999999999999998,-0.8899503828496784,0.9999999999999998,-0.9999999999999998,high,low,,ISIC_8398000.JPG,,ISIC_0174983.JPG,24,true,hl,keypress(j),0,false,566530.5999999978,566530.1999999993,561302.71,561474.5,561319.524,566357.632,1,20,3,
sequence,flow.Sequence,6_2,2023-11-14T20:15:12.303Z,,,,,,,,,,5210.675999999279,completion,,,,,,,high,low,,,,,,true,,,,false,566531.0999999978,566530.1999999993,561302.71,561474.3999999985,561319.524,566357.632,1,20,,
trial,html.Screen,6_3_0,2023-11-14T20:15:17.007Z,,,,1,-1.1344866365171962,-0.926850270881616,,true,hh,4876.868000000017,response,0.9735583105865782,0.9999999999999998,-0.9999999999999998,0.8683758859171238,0.9999999999999998,-0.9999999999999998,high,high,,ISIC_7747998.JPG,,ISIC_0065204.JPG,154,true,hh,keypress(i),0,false,571234.8999999985,571234.5,566341.112,566531.3000000007,566357.632,571062.274,1,20,4,
sequence,flow.Sequence,6_3,2023-11-14T20:15:17.007Z,,,,,,,,,,4876.868000000017,completion,,,,,,,high,high,,,,,,true,,,,false,571235.3999999985,571234.5,566341.112,566531.1999999993,566357.632,571062.274,1,20,,
trial,html.Screen,6_4_0,2023-11-14T20:15:22.047Z,,,,1,-0.8626849314423831,-1.0374085478567705,,true,hh,5212.425999999279,response,1.0215600067367807,0.9999999999999998,-0.9999999999999998,0.8053078030017172,0.9999999999999998,-0.9999999999999998,high,high,,ISIC_0026371.JPG,,ISIC_0000173.JPG,154,true,hh,keypress(i),0,false,576275,576274.6999999993,571045.742,571235.5,571062.274,576100.646,1,20,5,
sequence,flow.Sequence,6_4,2023-11-14T20:15:22.047Z,,,,,,,,,,5212.425999999279,completion,,,,,,,high,high,,,,,,true,,,,false,576275.5,576274.6999999993,571045.742,571235.5,571062.274,576100.646,1,20,,
trial,html.Screen,6_5_0,2023-11-14T20:15:25.087Z,,,,1,0.9926801421396548,0.8012636697645321,,true,ll,3213.953999997815,response,-1.1655508270784471,0.9999999999999998,-0.9999999999999998,-1.1162776063248168,0.9999999999999998,-0.9999999999999998,low,low,,ISIC_0066483.JPG,,ISIC_5509946.JPG,111,true,ll,keypress(f),0,false,579314.8999999985,579314.5999999978,576084.068,576275.6999999993,576100.646,579137.086,1,20,6,
sequence,flow.Sequence,6_5,2023-11-14T20:15:25.087Z,,,,,,,,,,3213.953999997815,completion,,,,,,,low,low,,,,,,true,,,,false,579315.3999999985,579314.5999999978,576084.068,576275.6999999993,576100.646,579137.086,1,20,,
trial,html.Screen,6_6_0,2023-11-14T20:15:29.503Z,,,,1,1.109729032348591,0.9587230726994566,,false,ll,4593.41399999999,response,-1.1604734171556077,0.9999999999999998,-0.9999999999999998,-1.0789312625280616,0.9999999999999998,-0.9999999999999998,low,low,,ISIC_0055289.JPG,,ISIC_3950753.JPG,111,true,hh,keypress(i),0,false,583730.8000000007,583730.5,579120.574,579315.5999999978,579137.086,583558.213,1,20,7,
sequence,flow.Sequence,6_6,2023-11-14T20:15:29.503Z,,,,,,,,,,4593.41399999999,completion,,,,,,,low,low,,,,,,true,,,,false,583731.3000000007,583730.5,579120.574,579315.5999999978,579137.086,583558.213,1,20,,
trial,html.Screen,6_7_0,2023-11-14T20:15:33.567Z,,,,1,1.0282189783634048,0.9341202222313458,,false,ll,4236.587000000756,response,-0.8017757615489182,0.9999999999999998,-0.9999999999999998,-0.8187931329618445,0.9999999999999998,-0.9999999999999998,low,low,,ISIC_0027238.JPG,,ISIC_0029024.JPG,111,true,hh,keypress(i),0,false,587795.0999999978,587794.8000000007,583541.624,583731.5,583558.213,587628.925,1,20,8,
sequence,flow.Sequence,6_7,2023-11-14T20:15:33.567Z,,,,,,,,,,4236.587000000756,completion,,,,,,,low,low,,,,,,true,,,,false,587795.5999999978,587794.8000000007,583541.624,583731.5,583558.213,587628.925,1,20,,
trial,html.Screen,6_8_0,2023-11-14T20:15:37.119Z,,,,1,0.8627799752848101,0.9479141048747124,,false,ll,3717.4749999984633,response,-0.8317161304163111,0.9999999999999998,-0.9999999999999998,-1.1627560037277045,0.9999999999999998,-0.9999999999999998,low,low,,ISIC_9615486.JPG,,ISIC_5909403.JPG,111,true,hh,keypress(i),0,false,591346.8000000007,591346.3999999985,587612.369,587795.8999999985,587628.925,591182.66,1,20,9,
sequence,flow.Sequence,6_8,2023-11-14T20:15:37.119Z,,,,,,,,,,3717.4749999984633,completion,,,,,,,low,low,,,,,,true,,,,false,591347.3000000007,591346.3999999985,587612.369,587795.8000000007,587628.925,591182.66,1,20,,
trial,html.Screen,6_9_0,2023-11-14T20:15:44.143Z,,,,1,-0.8207155237115402,-0.9831752618289616,,true,hh,7188.039999999222,response,1.0098789684902802,0.9999999999999998,-0.9999999999999998,1.152593747486636,0.9999999999999998,-0.9999999999999998,high,high,,ISIC_0053929.JPG,,ISIC_0061491.JPG,154,true,hh,keypress(i),0,false,598371.0999999978,598370.6999999993,591165.892,591347.3999999985,591182.66,598206.349,1,20,10,
sequence,flow.Sequence,6_9,2023-11-14T20:15:44.144Z,,,,,,,,,,7188.039999999222,completion,,,,,,,high,high,,,,,,true,,,,false,598371.5999999978,598370.6999999993,591165.892,591347.3999999985,591182.66,598206.349,1,20,,
trial,html.Screen,6_10_0,2023-11-14T20:15:46.878Z,,,,1,1.127346631538643,-0.8080854255453543,,true,lh,2899.3509999992093,response,-1.00615481805876,0.9999999999999998,-0.9999999999999998,0.8428903771195875,0.9999999999999998,-0.9999999999999998,low,high,,ISIC_0011045.JPG,,ISIC_0069970.JPG,24,true,lh,keypress(e),0,false,601105.8999999985,601105.6999999993,598189.525,598371.8999999985,598206.349,600942.325,1,20,11,
sequence,flow.Sequence,6_10,2023-11-14T20:15:46.878Z,,,,,,,,,,2899.3509999992093,completion,,,,,,,low,high,,,,,,true,,,,false,601106.0999999978,601105.6999999993,598189.525,598371.8000000007,598206.349,600942.325,1,20,,
trial,html.Screen,6_11_0,2023-11-14T20:15:49.503Z,,,,1,0.9046170303418553,-1.0063426986460375,,true,lh,2788.0749999985565,response,-1.1235224875125256,0.9999999999999998,-0.9999999999999998,0.8641223012137988,0.9999999999999998,-0.9999999999999998,low,high,,ISIC_0055759.JPG,,ISIC_0033901.JPG,24,true,lh,keypress(e),0,false,603730.6999999993,603730.3999999985,600925.679,601106.3000000007,600942.325,603561.646,1,20,12,
sequence,flow.Sequence,6_11,2023-11-14T20:15:49.503Z,,,,,,,,,,2788.0749999985565,completion,,,,,,,low,high,,,,,,true,,,,false,603731.3000000007,603730.3999999985,600925.679,601106.1999999993,600942.325,603561.646,1,20,,
trial,html.Screen,6_12_0,2023-11-14T20:15:52.591Z,,,,1,-0.8129823105338526,0.9655386457143784,,true,hl,3256.75399999856,response,0.9046170303418553,0.9999999999999998,-0.9999999999999998,-1.0063426986460375,0.9999999999999998,-0.9999999999999998,high,low,,ISIC_8268025.JPG,,ISIC_0055759.JPG,24,true,hl,keypress(j),0,false,606818.5999999978,606818.3999999985,603544.909,603731.5999999978,603561.646,606647.938,1,20,13,
sequence,flow.Sequence,6_12,2023-11-14T20:15:52.591Z,,,,,,,,,,3256.75399999856,completion,,,,,,,high,low,,,,,,true,,,,false,606819.1999999993,606818.3999999985,603544.909,603731.5,603561.646,606647.938,1,20,,
trial,html.Screen,6_13_0,2023-11-14T20:15:55.152Z,,,,1,-0.8479396253253069,1.011054319516718,,true,hl,2730.8620000007795,response,1.1547137855907486,0.9999999999999998,-0.9999999999999998,-1.0185275168641534,0.9999999999999998,-0.9999999999999998,high,low,,ISIC_0063521.JPG,,ISIC_7604870.JPG,24,true,hl,keypress(j),0,false,609379,609378.8000000007,606631.35,606819.3000000007,606647.938,609218.51,1,20,14,
sequence,flow.Sequence,6_13,2023-11-14T20:15:55.153Z,,,,,,,,,,2730.8620000007795,completion,,,,,,,high,low,,,,,,true,,,,false,609379.5999999978,609378.8000000007,606631.35,606819.3000000007,606647.938,609218.51,1,20,,
trial,html.Screen,6_14_0,2023-11-14T20:15:58.944Z,,,,1,-0.8923602890201078,0.8351700666074688,,true,hl,3951.7900000007357,response,0.8588347582642082,0.9999999999999998,-0.9999999999999998,-0.8899503828496784,0.9999999999999998,-0.9999999999999998,high,low,,ISIC_0033103.JPG,,ISIC_0174983.JPG,24,true,hl,keypress(j),0,false,613170.5999999978,613170.3000000007,609183.875,609379.8000000007,609218.51,613004.245,1,20,15,
sequence,flow.Sequence,6_14,2023-11-14T20:15:58.944Z,,,,,,,,,,3951.7900000007357,completion,,,,,,,high,low,,,,,,true,,,,false,613171.0999999978,613170.3000000007,609183.875,609379.6999999993,609218.51,613004.245,1,20,,
trial,html.Screen,6_15_0,2023-11-14T20:16:03.824Z,,,,1,-0.8359065169837211,-0.8817320387395534,,false,hh,5046.3549999977695,response,0.8984767404401109,0.9999999999999998,-0.9999999999999998,1.0289479104867394,0.9999999999999998,-0.9999999999999998,high,high,,ISIC_0319928.JPG,,ISIC_0011458.JPG,154,true,hl,keypress(j),0,false,618050.8999999985,618050.5999999978,612987.772,613171.3999999985,613004.245,617875.69,1,20,16,
sequence,flow.Sequence,6_15,2023-11-14T20:16:03.824Z,,,,,,,,,,5046.3549999977695,completion,,,,,,,high,high,,,,,,true,,,,false,618051.3999999985,618050.5999999978,612987.772,613171.3000000007,613004.245,617875.69,1,20,,
trial,html.Screen,6_16_0,2023-11-14T20:16:09.824Z,,,,1,0.8561946552009824,-0.9282171889213044,,true,lh,6175.009999999311,response,-1.064425982109969,0.9999999999999998,-0.9999999999999998,0.958564243697126,0.9999999999999998,-0.9999999999999998,low,high,,ISIC_3065032.JPG,,ISIC_3203344.JPG,24,true,lh,keypress(e),0,false,624051,624050.6999999993,617859.077,618051.6999999993,617875.69,623881.679,1,20,17,
sequence,flow.Sequence,6_16,2023-11-14T20:16:09.825Z,,,,,,,,,,6175.009999999311,completion,,,,,,,low,high,,,,,,true,,,,false,624051.5,624050.6999999993,617859.077,618051.5,617875.69,623881.679,1,20,,
trial,html.Screen,6_17_0,2023-11-14T20:16:12.816Z,,,,1,0.8620516892494489,-1.1108509340502866,,true,lh,3160.720999998506,response,-0.8129823105338526,0.9999999999999998,-0.9999999999999998,0.9655386457143784,0.9999999999999998,-0.9999999999999998,low,high,,ISIC_5557806.JPG,,ISIC_8268025.JPG,24,true,lh,keypress(e),0,false,627042.6999999993,627042.3999999985,623865.178,624051.6999999993,623881.679,626867.986,1,20,18,
sequence,flow.Sequence,6_17,2023-11-14T20:16:12.816Z,,,,,,,,,,3160.720999998506,completion,,,,,,,low,high,,,,,,true,,,,false,627043.3000000007,627042.3999999985,623865.178,624051.6999999993,623881.679,626867.986,1,20,,
trial,html.Screen,6_18_0,2023-11-14T20:16:14.591Z,,,,1,0.9873794329144926,-0.9500689037516484,,true,lh,1949.4139999984764,response,-0.8591294258188253,0.9999999999999998,-0.9999999999999998,0.870797302150167,0.9999999999999998,-0.9999999999999998,low,high,,ISIC_0013498.JPG,,ISIC_0055841.JPG,24,true,lh,keypress(e),0,false,628817.5999999978,628817.3999999985,626851.56,627043.3999999985,626867.986,628653.281,1,20,19,
sequence,flow.Sequence,6_18,2023-11-14T20:16:14.591Z,,,,,,,,,,1949.4139999984764,completion,,,,,,,low,high,,,,,,true,,,,false,628817.8000000007,628817.3999999985,626851.56,627043.3999999985,626867.986,628653.281,1,20,,
trial,html.Screen,6_19_0,2023-11-14T20:16:18.352Z,,,,1,-0.8644465729542988,0.8679598285079457,,true,hl,3925.118999998551,response,1.0822170028935367,0.9999999999999998,-0.9999999999999998,-1.1654796154432183,0.9999999999999998,-0.9999999999999998,high,low,,ISIC_6718969.JPG,,ISIC_7288818.JPG,24,true,hl,keypress(j),0,false,632578.6999999993,632578.3999999985,628636.457,628817.8000000007,628653.281,632406.871,1,20,20,
sequence,flow.Sequence,6_19,2023-11-14T20:16:18.352Z,,,,,,,,,,3925.118999998551,completion,,,,,,,high,low,,,,,,true,,,,false,632579.1999999993,632578.3999999985,628636.457,628817.8000000007,628653.281,632406.871,1,20,,
practice_loop,flow.Loop,6,2023-11-14T20:16:18.353Z,,,,,,,,,,84789.11499999848,completion,,,,,,,,,,,,,,true,,,,false,632579.5,632578.3999999985,547772.404,547953.1999999993,547789.285,632406.871,1,20,,
stair_instructions,html.Screen,7,2023-11-14T20:17:07.874Z,,,,,,,,,,49689.82899999921,response,,,,,,,,,,,,,,,continue,click button,,,682097.1999999993,682096.6999999993,632390.381,632579.6999999993,632406.871,681922.943,,,,
trial,html.Screen,8_0_0,2023-11-14T20:17:18.737Z,,,,2,-0.0474755744799381,-0.0692210794081785,,,,10860.866000000038,timeout,-0.8069690440362255,0.9999999999999998,-0.9999999999999998,0.8262727717500657,0.9999999999999998,-0.9999999999999998,low,high,,ISIC_8794567.JPG,,ISIC_0028469.JPG,24,false,,,0,true,692960.0999999978,692960,681906.36,682097.3000000007,681922.943,692783.809,1,40,1,
sequence,flow.Sequence,8_0,2023-11-14T20:17:18.737Z,,,,,,,,,,11037.05700000003,completion,,,,,,,low,high,,,,,,false,,,,true,692960.1999999993,692960,681906.36,682097.3000000007,681922.943,692783.809,1,40,,
trial,html.Screen,8_1_0,2023-11-14T20:17:26.810Z,,,,2,0.0158987717472563,0.0292472192292015,,false,hl,8249.190999999992,response,0.9873794329144926,0.9999999999999998,-0.9999999999999998,-0.9500689037516484,0.9999999999999998,-0.9999999999999998,high,low,,ISIC_1366765.JPG,,ISIC_0013498.JPG,24,false,lh,keypress(e),0,true,701033.0999999978,701033,692767.203,692960.3000000007,692783.809,700875.245,1,40,2,
sequence,flow.Sequence,8_1,2023-11-14T20:17:26.810Z,,,,,,,,,,8249.190999999992,completion,,,,,,,high,low,,,,,,false,,,,true,701033.1999999993,701033,692767.203,692960.1999999993,692783.809,700875.245,1,40,,
trial,html.Screen,8_2_0,2023-11-14T20:17:31.124Z,,,,2,0.0166849894750452,-0.0371614812368835,,true,ll,4471.1549999985145,response,-1.1119564877278971,0.9999999999999998,-0.9499999999999997,-0.9546609075308709,0.9499999999999997,-0.9999999999999998,low,low,,ISIC_6231450.JPG,,ISIC_0056110.JPG,113,false,ll,keypress(f),0,true,705346.6999999993,705346.3999999985,700858.722,701033.3000000007,700875.245,705179.768,1,40,3,
sequence,flow.Sequence,8_2,2023-11-14T20:17:31.124Z,,,,,,,,,,4471.1549999985145,completion,,,,,,,low,low,,,,,,false,,,,true,705347.1999999993,705346.3999999985,700858.722,701033.3000000007,700875.245,705179.768,1,40,,
trial,html.Screen,8_3_0,2023-11-14T20:17:37.125Z,,,,2,-0.0063515208248796,-0.0194177605767913,,true,hl,6168.13199999847,response,1.127346631538643,0.9499999999999997,-0.8999999999999997,-0.8080854255453543,0.8999999999999997,-0.9499999999999997,high,low,,ISIC_5281908.JPG,,ISIC_0011045.JPG,32,false,hl,keypress(j),0,true,711347.8999999985,711347.8999999985,705163.009,705347.3999999985,705179.768,711186.942,1,40,4,
sequence,flow.Sequence,8_3,2023-11-14T20:17:37.125Z,,,,,,,,,,6168.13199999847,completion,,,,,,,high,low,,,,,,false,,,,true,711348.0999999978,711347.8999999985,705163.009,705347.3999999985,705179.768,711186.942,1,40,,
trial,html.Screen,8_4_0,2023-11-14T20:17:45.156Z,,,,2,-0.0474755744799381,-0.0692210794081785,,true,ll,8191.457999998471,response,-0.969947771489652,0.8999999999999997,-0.8499999999999996,-0.6289612118659552,0.8499999999999996,-0.7813731665381125,low,low,,ISIC_8794567.JPG,,ISIC_7254389.JPG,236,false,ll,keypress(f),0,true,719378.6999999993,719378.3999999985,711152.235,711348.1999999993,711186.942,719210.275,1,40,5,
sequence,flow.Sequence,8_4,2023-11-14T20:17:45.156Z,,,,,,,,,,8191.457999998471,completion,,,,,,,low,low,,,,,,false,,,,true,719379.1999999993,719378.3999999985,711152.235,711348.1999999993,711186.942,719210.275,1,40,,
trial,html.Screen,8_5_0,2023-11-14T20:17:50.916Z,,,,2,-0.0514357258480358,-0.006520984995476,,true,hl,5928.424999999232,response,0.7784655612745411,0.8499999999999996,-0.9409521296087746,-0.5762722126892705,0.7999999999999996,-0.7313731665381125,high,low,,ISIC_0031386.JPG,,ISIC_3278303.JPG,83,false,hl,keypress(j),0,true,725139.0999999978,725138.6999999993,719193.587,719379.3999999985,719210.275,724965.892,1,40,6,
sequence,flow.Sequence,8_5,2023-11-14T20:17:50.917Z,,,,,,,,,,5928.424999999232,completion,,,,,,,high,low,,,,,,false,,,,true,725139.5,725138.6999999993,719193.587,719379.3999999985,719210.275,724965.892,1,40,,
trial,html.Screen,8_6_0,2023-11-14T20:17:57.620Z,,,,2,-0.0187970165493076,-0.0417726918052949,,true,lh,6876.507999998517,response,-0.8655195794668102,0.852906096406592,-0.8909521296087746,0.559580240954787,0.7499999999999996,-0.5026167122776128,low,high,,ISIC_9312164.JPG,,ISIC_0033464.JPG,68,false,lh,keypress(e),0,true,731842.5999999978,731842.3999999985,724949.195,725139.6999999993,724965.892,731672.654,1,40,7,
sequence,flow.Sequence,8_6,2023-11-14T20:17:57.620Z,,,,,,,,,,6876.507999998517,completion,,,,,,,low,high,,,,,,false,,,,true,731843.1999999993,731842.3999999985,724949.195,725139.6999999993,724965.892,731672.654,1,40,,
trial,html.Screen,8_7_0,2023-11-14T20:18:03.028Z,,,,2,0.0668201703083464,-0.0222223530621927,,true,ll,5578.245999998529,response,-0.9781089303828564,0.8029060964065919,-0.8409521296087745,-0.4268971957124007,0.6999999999999995,-0.45261671227761285,low,low,,ISIC_8321148.JPG,,ISIC_1438269.JPG,326,false,ll,keypress(f),0,true,737251.0999999978,737250.8999999985,731655.936,731843.3999999985,731672.654,737077.988,1,40,8,
sequence,flow.Sequence,8_7,2023-11-14T20:18:03.029Z,,,,,,,,,,5578.245999998529,completion,,,,,,,low,low,,,,,,false,,,,true,737251.5999999978,737250.8999999985,731655.936,731843.3000000007,731672.654,737077.988,1,40,,
trial,html.Screen,8_8_0,2023-11-14T20:18:08.440Z,,,,2,-0.0733425953790377,0.0558194585272655,,false,lh,5580.411999998498,response,-0.6813626626830074,0.7529060964065919,-0.8218142549248333,0.5844254116442629,0.6499999999999995,-0.45261671227761285,low,high,,ISIC_0026756.JPG,,ISIC_0071778.JPG,111,false,hh,keypress(i),0,true,742658.6999999993,742658.3999999985,737061.341,737251.8999999985,737077.988,742483.371,1,40,9,
sequence,flow.Sequence,8_8,2023-11-14T20:18:08.440Z,,,,,,,,,,5580.411999998498,completion,,,,,,,low,high,,,,,,false,,,,true,742659.1999999993,742658.3999999985,737061.341,737251.8000000007,737077.988,742483.371,1,40,,
trial,html.Screen,8_9_0,2023-11-14T20:18:14.904Z,,,,2,-0.0063515208248796,-0.0194177605767913,,false,hh,6639.328999999212,response,0.7493420131064717,0.7029060964065919,-0.8218142549248333,0.5700479119867665,0.6499999999999995,-0.45261671227761285,high,high,,ISIC_5281908.JPG,,ISIC_5868291.JPG,292,false,hl,keypress(j),0,true,749123,749122.6999999993,742466.727,742659.5,742483.371,748956.6,1,40,10,
sequence,flow.Sequence,8_9,2023-11-14T20:18:14.905Z,,,,,,,,,,6639.328999999212,completion,,,,,,,high,high,,,,,,false,,,,true,749123.5999999978,749122.6999999993,742466.727,742659.3999999985,742483.371,748956.6,1,40,,
trial,html.Screen,8_10_0,2023-11-14T20:18:19.864Z,,,,2,-0.0063515208248796,-0.0194177605767913,,true,ll,5126.200000000768,response,-0.7482428566195203,0.7029060964065919,-0.7718142549248332,-0.4447547373571248,0.6499999999999995,-0.45261671227761285,low,low,,ISIC_5281908.JPG,,ISIC_4000087.JPG,362,false,ll,keypress(f),0,true,754083.0999999978,754082.8000000007,748939.798,749123.8000000007,748956.6,753911.536,1,40,11,
sequence,flow.Sequence,8_10,2023-11-14T20:18:19.865Z,,,,,,,,,,5126.200000000768,completion,,,,,,,low,low,,,,,,false,,,,true,754083.6999999993,754082.8000000007,748939.798,749123.6999999993,748956.6,753911.536,1,40,,
trial,html.Screen,8_11_0,2023-11-14T20:18:26.486Z,,,,2,0.021811393859175,-0.0534678805668419,,true,hh,6793.563999997801,response,0.6626619689522508,0.6529060964065918,-0.7218142549248332,0.7098328093963779,0.5999999999999994,-0.40261671227761286,high,high,,ISIC_0058054.JPG,,ISIC_0010942.JPG,308,false,hh,keypress(i),0,true,760705.1999999993,760705.0999999978,753894.946,754083.8999999985,753911.536,760534.797,1,40,12,
sequence,flow.Sequence,8_11,2023-11-14T20:18:26.486Z,,,,,,,,,,6793.563999997801,completion,,,,,,,high,high,,,,,,false,,,,true,760705.3999999985,760705.0999999978,753894.946,754083.8000000007,753911.536,760534.797,1,40,,
trial,html.Screen,8_12_0,2023-11-14T20:18:31.992Z,,,,2,0.0060934073440827,0.0279108145883031,,true,ll,5675.602999998489,response,-0.7153637893929518,0.6060019910293613,-0.6718142549248332,-0.2675744854308231,0.5499999999999994,-0.40261671227761286,low,low,,ISIC_0032604.JPG,,ISIC_3596877.JPG,386,false,ll,keypress(f),0,true,766210.6999999993,766210.3999999985,760518.063,760705.3999999985,760534.797,766040.312,1,40,13,
sequence,flow.Sequence,8_12,2023-11-14T20:18:31.992Z,,,,,,,,,,5675.602999998489,completion,,,,,,,low,low,,,,,,false,,,,true,766211.1999999993,766210.3999999985,760518.063,760705.3999999985,760534.797,766040.312,1,40,,
trial,html.Screen,8_13_0,2023-11-14T20:18:39.592Z,,,,2,-0.0245246789155119,0.0615355901813596,,false,hh,7770.3879999992205,response,0.4879348207600836,0.5560019910293612,-0.6318033230062359,0.6101450790184321,0.4999999999999994,-0.40261671227761286,high,high,,ISIC_0034144.JPG,,ISIC_8659639.JPG,340,false,lh,keypress(e),0,true,773810.8999999985,773810.6999999993,766023.539,766211.3999999985,766040.312,773648.089,1,40,14,
sequence,flow.Sequence,8_13,2023-11-14T20:18:39.592Z,,,,,,,,,,7770.3879999992205,completion,,,,,,,high,high,,,,,,false,,,,true,773811.3999999985,773810.6999999993,766023.539,766211.3999999985,766040.312,773648.089,1,40,,
trial,html.Screen,8_14_0,2023-11-14T20:18:45.256Z,,,,2,0.0023664502831079,0.0252784582169994,,false,lh,5826.410999999964,response,-0.5480519904842711,0.5560019910293612,-0.5818033230062358,0.4432591734247733,0.4999999999999994,-0.40261671227761286,low,high,,ISIC_4156010.JPG,,ISIC_0025127.JPG,234,false,hh,keypress(i),0,true,779474.8000000007,779474.5,773631.206,773811.5999999978,773648.089,779303.547,1,40,15,
sequence,flow.Sequence,8_14,2023-11-14T20:18:45.256Z,,,,,,,,,,5826.410999999964,completion,,,,,,,low,high,,,,,,false,,,,true,779475.3000000007,779474.5,773631.206,773811.5999999978,773648.089,779303.547,1,40,,
trial,html.Screen,8_15_0,2023-11-14T20:18:50.663Z,,,,2,-0.0474755744799381,-0.0692210794081785,,false,lh,5578.052999997744,response,-0.7610404878860225,0.5060019910293612,-0.5818033230062358,0.605254227421103,0.4999999999999994,-0.40261671227761286,low,high,,ISIC_8794567.JPG,,ISIC_0057997.JPG,234,false,hh,keypress(i),0,true,784881.6999999993,784881.5999999978,779286.98,779475.5,779303.547,784708.875,1,40,16,
sequence,flow.Sequence,8_15,2023-11-14T20:18:50.663Z,,,,,,,,,,5578.052999997744,completion,,,,,,,low,high,,,,,,false,,,,true,784882,784881.5999999978,779286.98,779475.5,779303.547,784708.875,1,40,,
trial,html.Screen,8_16_0,2023-11-14T20:18:56.392Z,,,,2,-0.0207120852539861,-0.0589023744433183,,false,hl,5901.425000000745,response,0.607139292067032,0.4560019910293612,-0.5818033230062358,-0.3232557182079104,0.4999999999999994,-0.40261671227761286,high,low,,ISIC_7973601.JPG,,ISIC_6497135.JPG,317,false,hh,keypress(i),0,true,790610.5999999978,790610.3000000007,784692.266,784882,784708.875,790448.199,1,40,17,
sequence,flow.Sequence,8_16,2023-11-14T20:18:56.392Z,,,,,,,,,,5901.425000000745,completion,,,,,,,high,low,,,,,,false,,,,true,790611.0999999978,790610.3000000007,784692.266,784882,784708.875,790448.199,1,40,,
trial,html.Screen,8_17_0,2023-11-14T20:19:04.774Z,,,,2,0.0658785165472318,0.0638000940494709,,true,hl,8545.200999998488,response,0.3335667830791994,0.4560019910293612,-0.5318033230062358,-0.5562976523528038,0.4999999999999994,-0.45261671227761285,high,low,,ISIC_0626501.JPG,,ISIC_0283541.JPG,313,false,hl,keypress(j),0,true,798993.5,798993.3999999985,790431.275,790611.3000000007,790448.199,798823.034,1,40,18,
sequence,flow.Sequence,8_17,2023-11-14T20:19:04.775Z,,,,,,,,,,8545.200999998488,completion,,,,,,,high,low,,,,,,false,,,,true,798993.6999999993,798993.3999999985,790431.275,790611.1999999993,790448.199,798823.034,1,40,,
trial,html.Screen,8_18_0,2023-11-14T20:19:12.346Z,,,,2,0.00126575685933,0.0325046559638838,,false,lh,7738.66599999927,response,-0.4626865952548245,0.4060019910293612,-0.4818033230062358,0.5222521985649821,0.4999999999999994,-0.45261671227761285,low,high,,ISIC_5682259.JPG,,ISIC_0744870.JPG,282,false,hh,keypress(i),0,true,806561.8000000007,806561.6999999993,798806.412,798993.8000000007,798823.034,806397.392,1,40,19,
sequence,flow.Sequence,8_18,2023-11-14T20:19:12.347Z,,,,,,,,,,7738.66599999927,completion,,,,,,,low,high,,,,,,false,,,,true,806562.0999999978,806561.6999999993,798806.412,798993.8000000007,798823.034,806397.392,1,40,,
trial,html.Screen,8_19_0,2023-11-14T20:19:18.699Z,,,,2,-0.0514357258480358,-0.006520984995476,,false,lh,6517.108000000007,response,-0.2926748997053847,0.4060019910293612,-0.4818033230062358,0.3959861126475122,0.4999999999999994,-0.45261671227761285,low,high,,ISIC_0031386.JPG,,ISIC_4789784.JPG,282,false,ll,keypress(f),0,true,812914.8000000007,812914.5,806380.5,806562.0999999978,806397.392,812754.108,1,40,20,
sequence,flow.Sequence,8_19,2023-11-14T20:19:18.700Z,,,,,,,,,,6517.108000000007,completion,,,,,,,low,high,,,,,,false,,,,true,812915.3000000007,812914.5,806380.5,806562.0999999978,806397.392,812754.108,1,40,,
trial,html.Screen,8_20_0,2023-11-14T20:19:29.569Z,,,,2,0.0700745968706567,0.013891147856594,,,,10860.319999999949,timeout,0.6034960514926037,0.4060019910293612,-0.4818033230062358,0.3926507402678575,0.4999999999999994,-0.45261671227761285,high,high,,ISIC_0054663.JPG,,ISIC_0059904.JPG,374,false,,,0,true,823784.8000000007,823784.3999999985,812720.306,812915.5999999978,812754.108,823614.428,1,40,21,
sequence,flow.Sequence,8_20,2023-11-14T20:19:29.570Z,,,,,,,,,,11030.291999998502,completion,,,,,,,high,high,,,,,,false,,,,true,823785.3000000007,823784.3999999985,812720.306,812915.5,812754.108,823614.428,1,40,,
trial,html.Screen,8_21_0,2023-11-14T20:19:36.219Z,,,,2,0.0555511886677117,0.0134118039833958,,true,hl,6819.971999998554,response,0.4246394459654359,0.4060019910293612,-0.4818033230062358,-0.4049548214746619,0.4999999999999994,-0.45261671227761285,high,low,,ISIC_2228511.JPG,,ISIC_9223679.JPG,331,false,hl,keypress(j),0,true,830434.6999999993,830434.3999999985,823597.879,823785.5,823614.428,830271.265,1,40,22,
sequence,flow.Sequence,8_21,2023-11-14T20:19:36.220Z,,,,,,,,,,6819.971999998554,completion,,,,,,,high,low,,,,,,false,,,,true,830435.0999999978,830434.3999999985,823597.879,823785.5,823614.428,830271.265,1,40,,
trial,html.Screen,8_22_0,2023-11-14T20:19:42.139Z,,,,2,-0.0500182837729639,0.0231316228640781,,true,hh,6082.934999999241,response,0.3210765858811361,0.4060019910293612,-0.4818033230062358,0.6940591319906747,0.4999999999999994,-0.40261671227761286,high,high,,ISIC_2246150.JPG,,ISIC_0033725.JPG,374,false,hh,keypress(i),0,true,836354.5,836354.1999999993,830254.409,830435.3999999985,830271.265,836176.938,1,40,23,
sequence,flow.Sequence,8_22,2023-11-14T20:19:42.139Z,,,,,,,,,,6082.934999999241,completion,,,,,,,high,high,,,,,,false,,,,true,836355,836354.1999999993,830254.409,830435.3000000007,830271.265,836176.938,1,40,,
trial,html.Screen,8_23_0,2023-11-14T20:19:49.003Z,,,,2,0.012020985739544,-0.0126097407389903,,false,ll,7041.5620000000345,response,-0.4481520324045832,0.3560019910293612,-0.4818033230062358,-0.5301982044346621,0.4999999999999994,-0.40261671227761286,low,low,,ISIC_0069379.JPG,,ISIC_8479913.JPG,461,false,hh,keypress(i),0,true,843218.6999999993,843218.5,836160.35,836355.1999999993,836176.938,843050.604,1,40,24,
sequence,flow.Sequence,8_23,2023-11-14T20:19:49.004Z,,,,,,,,,,7041.5620000000345,completion,,,,,,,low,low,,,,,,false,,,,true,843219.3000000007,843218.5,836160.35,836355.0999999978,836176.938,843050.604,1,40,,
trial,html.Screen,8_24_0,2023-11-14T20:19:52.779Z,,,,2,-0.019361072276763,-0.0523902345755568,,false,hl,3943.6960000006948,response,0.2593414726402099,0.3560019910293612,-0.4818033230062358,-0.4146916026599512,0.4999999999999994,-0.45261671227761285,high,low,,ISIC_4066726.JPG,,ISIC_9154716.JPG,334,false,hh,keypress(i),0,true,846994.6999999993,846994.3000000007,843033.857,843219.5,843050.604,846820.887,1,40,25,
sequence,flow.Sequence,8_24,2023-11-14T20:19:52.780Z,,,,,,,,,,3943.6960000006948,completion,,,,,,,high,low,,,,,,false,,,,true,846995.1999999993,846994.3000000007,843033.857,843219.5,843050.604,846820.887,1,40,,
trial,html.Screen,8_25_0,2023-11-14T20:20:02.651Z,,,,2,-0.0189295602385628,-0.0128812415435153,,true,hl,10045.613000000012,response,0.5030934266501653,0.4060019910293612,-0.4818033230062358,-0.4748455916954994,0.4999999999999994,-0.45261671227761285,high,low,,ISIC_0010372.JPG,,ISIC_6026759.JPG,331,false,hl,keypress(j),0,true,856866.8999999985,856866.5,846804.249,846995.5,846820.887,856697.422,1,40,26,
sequence,flow.Sequence,8_25,2023-11-14T20:20:02.652Z,,,,,,,,,,10045.613000000012,completion,,,,,,,high,low,,,,,,false,,,,true,856867.3000000007,856866.5,846804.249,846995.3999999985,846820.887,856697.422,1,40,,
trial,html.Screen,8_26_0,2023-11-14T20:20:08.094Z,,,,2,0.0060934073440827,0.0279108145883031,,false,lh,5608.777999999234,response,-0.3927013357633684,0.3560019910293612,-0.4818033230062358,0.3037556686402411,0.4999999999999994,-0.45261671227761285,low,high,,ISIC_0032604.JPG,,ISIC_1083681.JPG,282,false,ll,keypress(f),0,true,862306.3999999985,862306.1999999993,856680.817,856867.5999999978,856697.422,862136.153,1,40,27,
sequence,flow.Sequence,8_26,2023-11-14T20:20:08.095Z,,,,,,,,,,5608.777999999234,completion,,,,,,,low,high,,,,,,false,,,,true,862306.8999999985,862306.1999999993,856680.817,856867.5,856697.422,862136.153,1,40,,
trial,html.Screen,8_27_0,2023-11-14T20:20:13.230Z,,,,2,0.021811393859175,-0.0534678805668419,,true,hh,5305.9469999977155,response,0.1731344409607225,0.3560019910293612,-0.4818033230062358,0.6813677455394939,0.4999999999999994,-0.45261671227761285,high,high,,ISIC_0058054.JPG,,ISIC_5223280.JPG,377,false,hh,keypress(i),0,true,867442.3999999985,867442.0999999978,862119.672,862307.0999999978,862136.153,867274.552,1,40,28,
sequence,flow.Sequence,8_27,2023-11-14T20:20:13.231Z,,,,,,,,,,5305.9469999977155,completion,,,,,,,high,high,,,,,,false,,,,true,867442.6999999993,867442.0999999978,862119.672,862307.0999999978,862136.153,867274.552,1,40,,
trial,html.Screen,8_28_0,2023-11-14T20:20:17.423Z,,,,2,0.0629926578251803,-0.0626296407938785,,true,ll,4359.64799999923,response,-0.6427500587932088,0.3560019910293612,-0.4818033230062358,-0.3649836401357688,0.4999999999999994,-0.45261671227761285,low,low,,ISIC_0027043.JPG,,ISIC_6013764.JPG,472,false,ll,keypress(f),0,true,871634.5,871634.1999999993,867258.071,867442.8000000007,867274.552,871462.095,1,40,29,
sequence,flow.Sequence,8_28,2023-11-14T20:20:17.423Z,,,,,,,,,,4359.64799999923,completion,,,,,,,low,low,,,,,,false,,,,true,871635.0999999978,871634.1999999993,867258.071,867442.8000000007,867274.552,871462.095,1,40,,
trial,html.Screen,8_29_0,2023-11-14T20:20:23.967Z,,,,2,-0.0321039635696159,-0.020496766286318,,false,ll,6716.405000000028,response,-0.6149865128522338,0.3560019910293612,-0.46772569727828867,-0.3592241325688917,0.4999999999999994,-0.40261671227761286,low,low,,ISIC_0058063.JPG,,ISIC_0030656.JPG,467,false,hl,keypress(j),0,true,878178.8000000007,878178.5,871445.617,871635.3999999985,871462.095,878002.09,1,40,30,
sequence,flow.Sequence,8_29,2023-11-14T20:20:23.967Z,,,,,,,,,,6716.405000000028,completion,,,,,,,low,low,,,,,,false,,,,true,878179.3000000007,878178.5,871445.617,871635.3000000007,871462.095,878002.09,1,40,,
trial,html.Screen,8_30_0,2023-11-14T20:20:30.014Z,,,,2,-0.0245246789155119,0.0615355901813596,,false,hl,6224.009999997797,response,0.2191888822101987,0.3560019910293612,-0.46772569727828867,-0.3133060114298117,0.4999999999999994,-0.45261671227761285,high,low,,ISIC_0034144.JPG,,ISIC_8429798.JPG,334,false,lh,keypress(e),0,true,884226.5,884226.0999999978,877985.172,878179.5999999978,878002.09,884057.994,1,40,31,
sequence,flow.Sequence,8_30,2023-11-14T20:20:30.015Z,,,,,,,,,,6224.009999997797,completion,,,,,,,high,low,,,,,,false,,,,true,884227,884226.0999999978,877985.172,878179.5,878002.09,884057.994,1,40,,
trial,html.Screen,8_31_0,2023-11-14T20:20:34.814Z,,,,2,-0.0127364719403411,-0.0549103570808099,,false,hl,4968.105999997817,response,0.5571142267512817,0.4060019910293612,-0.46772569727828867,-0.5134165785754069,0.4999999999999994,-0.45261671227761285,high,low,,ISIC_0054705.JPG,,ISIC_0015258.JPG,331,false,hh,keypress(i),0,true,889026.3999999985,889026.0999999978,884041.501,884227.1999999993,884057.994,888863.074,1,40,32,
sequence,flow.Sequence,8_31,2023-11-14T20:20:34.815Z,,,,,,,,,,4968.105999997817,completion,,,,,,,high,low,,,,,,false,,,,true,889026.6999999993,889026.0999999978,884041.501,884227.1999999993,884057.994,888863.074,1,40,,
trial,html.Screen,8_32_0,2023-11-14T20:20:42.479Z,,,,2,-0.0001106800768269,0.0404747734408496,,true,lh,7827.226000000723,response,-0.4480852658019977,0.4560019910293612,-0.46772569727828867,0.3987340427388781,0.4999999999999994,-0.45261671227761285,low,high,,ISIC_5706192.JPG,,ISIC_0064337.JPG,280,false,lh,keypress(e),0,true,896690.5999999978,896690.3000000007,888846.134,889026.8999999985,888863.074,896520.483,1,40,33,
sequence,flow.Sequence,8_32,2023-11-14T20:20:42.479Z,,,,,,,,,,7827.226000000723,completion,,,,,,,low,high,,,,,,false,,,,true,896691,896690.3000000007,888846.134,889026.8000000007,888863.074,896520.483,1,40,,
trial,html.Screen,8_33_0,2023-11-14T20:20:50.815Z,,,,2,0.0402606077562393,-0.0233871780024155,,false,hh,8505.916999998502,response,0.5808144324462481,0.4560019910293612,-0.46772569727828867,0.5655357373933585,0.49005089413918596,-0.45261671227761285,high,high,,ISIC_0024401.JPG,,ISIC_8274622.JPG,377,false,ll,keypress(f),0,true,905026.8000000007,905026.3999999985,896503.894,896691.1999999993,896520.483,904862.364,1,40,34,
sequence,flow.Sequence,8_33,2023-11-14T20:20:50.815Z,,,,,,,,,,8505.916999998502,completion,,,,,,,high,high,,,,,,false,,,,true,905027.3000000007,905026.3999999985,896503.894,896691.1999999993,896520.483,904862.364,1,40,,
trial,html.Screen,8_34_0,2023-11-14T20:20:56.190Z,,,,2,-0.0361875505619981,0.0291457404567876,,true,hh,5539.835999999312,response,0.5642097132498067,0.4560019910293612,-0.46772569727828867,0.5287141133857417,0.49005089413918596,-0.45261671227761285,high,high,,ISIC_0027480.JPG,,ISIC_0032836.JPG,377,false,hh,keypress(i),0,true,910402.5,910402.1999999993,904845.216,905027.5999999978,904862.364,910234.255,1,40,35,
sequence,flow.Sequence,8_34,2023-11-14T20:20:56.191Z,,,,,,,,,,5539.835999999312,completion,,,,,,,high,high,,,,,,false,,,,true,910403,910402.1999999993,904845.216,905027.5,904862.364,910234.255,1,40,,
trial,html.Screen,8_35_0,2023-11-14T20:21:02.335Z,,,,2,-0.0380440426394326,-0.0685633753763444,,true,ll,6312.04500000074,response,-0.462598651523272,0.4560019910293612,-0.46772569727828867,-0.5360006380946437,0.49005089413918596,-0.45261671227761285,low,low,,ISIC_0032680.JPG,,ISIC_0009950.JPG,478,false,ll,keypress(f),0,true,916546.5,916546.3000000007,910217.64,910403.1999999993,910234.255,916373.57,1,40,36,
sequence,flow.Sequence,8_35,2023-11-14T20:21:02.335Z,,,,,,,,,,6312.04500000074,completion,,,,,,,low,low,,,,,,false,,,,true,916547.0999999978,916546.3000000007,910217.64,910403.1999999993,910234.255,916373.57,1,40,,
trial,html.Screen,8_36_0,2023-11-14T20:21:10.737Z,,,,2,-0.0514357258480358,-0.006520984995476,,false,hh,8572.430000000051,response,0.2888237329459749,0.4560019910293612,-0.4177256972782887,0.291589803695465,0.49005089413918596,-0.45261671227761285,high,high,,ISIC_0031386.JPG,,ISIC_8562820.JPG,377,false,ll,keypress(f),0,true,924946.3999999985,924946,916356.868,916547.3999999985,916373.57,924782.245,1,40,37,
sequence,flow.Sequence,8_36,2023-11-14T20:21:10.738Z,,,,,,,,,,8572.430000000051,completion,,,,,,,high,high,,,,,,false,,,,true,924946.8000000007,924946,916356.868,916547.3000000007,916373.57,924782.245,1,40,,
trial,html.Screen,8_37_0,2023-11-14T20:21:17.408Z,,,,2,0.012020985739544,-0.0126097407389903,,false,hh,6834.95499999926,response,0.5885415452813572,0.4560019910293612,-0.4177256972782887,0.3799008380820337,0.49005089413918596,-0.45261671227761285,high,high,,ISIC_0069379.JPG,,ISIC_0025970.JPG,377,false,hl,keypress(j),0,true,931617.3999999985,931617.1999999993,924765.352,924947.0999999978,924782.245,931455.8,1,40,38,
sequence,flow.Sequence,8_37,2023-11-14T20:21:17.408Z,,,,,,,,,,6834.95499999926,completion,,,,,,,high,high,,,,,,false,,,,true,931617.5,931617.1999999993,924765.352,924946.8999999985,924782.245,931455.8,1,40,,
trial,html.Screen,8_38_0,2023-11-14T20:21:24.337Z,,,,2,-0.0296179945324451,-0.074433472160252,,false,lh,7090.099999998463,response,-0.613188416250572,0.4560019910293612,-0.4177256972782887,0.585333875339377,0.49005089413918596,-0.45261671227761285,low,high,,ISIC_0026982.JPG,,ISIC_0027247.JPG,302,false,hl,keypress(j),0,true,938546.3999999985,938545.8999999985,931422.106,931617.5,931455.8,938379.094,1,40,39,
sequence,flow.Sequence,8_38,2023-11-14T20:21:24.338Z,,,,,,,,,,7090.099999998463,completion,,,,,,,low,high,,,,,,false,,,,true,938546.8999999985,938545.8999999985,931422.106,931617.5,931455.8,938379.094,1,40,,
trial,html.Screen,8_39_0,2023-11-14T20:21:33.138Z,,,,2,-0.0729466326865927,0.0055109446314237,,false,ll,8967.206000000704,response,-0.6241073735146591,0.4560019910293612,-0.46772569727828867,-0.5581289365982012,0.49005089413918596,-0.45261671227761285,low,low,,ISIC_0032597.JPG,,ISIC_1711973.JPG,478,false,lh,keypress(e),0,true,947346.5999999978,947346.3000000007,938362.381,938547.1999999993,938379.094,947170.962,1,40,40,
sequence,flow.Sequence,8_39,2023-11-14T20:21:33.138Z,,,,,,,,,,8967.206000000704,completion,,,,,,,low,low,,,,,,false,,,,true,947347.1999999993,947346.3000000007,938362.381,938547.0999999978,938379.094,947170.962,1,40,,
stair_loop,flow.Loop,8,2023-11-14T20:21:33.138Z,,,,,,,,,,265423.3570000008,completion,,,,,,,,,,,,,,false,,,,true,947347.5,947346.3000000007,681906.36,682097.3000000007,681922.943,947170.962,1,40,,
exp_instructions,html.Screen,9,2023-11-14T20:22:01.617Z,,,,,,,,,,28654.338000000687,response,,,,,,,,,,,,,,,continue,keypress(Space),,,975826.1999999993,975825.3000000007,947154.28,947347.5999999978,947170.962,975649.487,,,,
trial,html.Screen,10_0_0,2023-11-14T20:22:11.690Z,,,,1,-0.0386453938786174,-0.0465908665241285,,false,ll,10246.71299999929,response,-0.5981755760671862,0.4085019910293613,-0.466560628855865,-0.2455288477946346,0.4965178129487146,-0.44511671227761285,low,low,,ISIC_1698119.JPG,8,ISIC_4787403.JPG,476,false,hh,keypress(i),0,false,985896.3000000007,985896.1999999993,975632.91,975826.5999999978,975649.487,985726.323,4,500,1,
break,html.Screen,10_0_1,2023-11-14T20:22:11.690Z,,,,,,,,,,NaN,,,,,,,,low,low,,,,,,false,,,,false,985896.5999999978,985896.5,,985896.3000000007,,985726.323,4,500,,
break_continue,html.Screen,10_0_2,2023-11-14T20:22:11.690Z,,,,,,,,,,NaN,,,,,,,,low,low,,,,,,false,,,,false,985896.8999999985,985896.8000000007,,985896.6999999993,,985726.323,4,500,,
sequence,flow.Sequence,10_0,2023-11-14T20:22:11.690Z,,,,,,,,,,10247.31300000078,completion,,,,,,,low,low,,,,,,false,,,,false,985896.8999999985,985896.8000000007,975632.91,975826.5999999978,975649.487,985726.323,4,500,,
trial,html.Screen,10_1_0,2023-11-14T20:22:15.412Z,,,,1,0.012810673904807,-0.00400964452501,,false,lh,3891.77699999779,response,-0.4445101907867155,0.4085019910293613,-0.466560628855865,0.3203894119390111,0.4965178129487146,-0.44511671227761285,low,high,,ISIC_0064656.JPG,9,ISIC_0033174.JPG,284,false,hh,keypress(i),0,false,989618.3999999985,989618.0999999978,985709.508,985897.0999999978,985726.323,989446.58,4,500,2,
break,html.Screen,10_1_1,2023-11-14T20:22:15.413Z,,,,,,,,,,NaN,,,,,,,,low,high,,,,,,false,,,,false,989619.5999999978,989619.3000000007,,989618.8000000007,,989446.58,4,500,,
break_continue,html.Screen,10_1_2,2023-11-14T20:22:15.414Z,,,,,,,,,,NaN,,,,,,,,low,high,,,,,,false,,,,false,989620.3000000007,989620.0999999978,,989619.8000000007,,989446.58,4,500,,
sequence,flow.Sequence,10_1,2023-11-14T20:22:15.414Z,,,,,,,,,,3893.77699999779,completion,,,,,,,low,high,,,,,,false,,,,false,989620.5999999978,989620.0999999978,985709.508,985897.0999999978,985726.323,989446.58,4,500,,
trial,html.Screen,10_2_0,2023-11-14T20:22:22.292Z,,,,1,0.0420795830016583,-0.0226772711905177,,false,lh,7051.819999998552,response,-0.4812598438063681,0.4085019910293613,-0.466560628855865,0.3720763108397268,0.4965178129487146,-0.44511671227761285,low,high,,ISIC_0638857.JPG,9,ISIC_0034210.JPG,284,false,hh,keypress(i),0,false,996498.6999999993,996498.3999999985,989429.783,989620.8999999985,989446.58,996337.3,4,500,3,
break,html.Screen,10_2_1,2023-11-14T20:22:22.293Z,,,,,,,,,,NaN,,,,,,,,low,high,,,,,,false,,,,false,996499.8999999985,996499.5,,996499.0999999978,,996337.3,4,500,,
break_continue,html.Screen,10_2_2,2023-11-14T20:22:22.294Z,,,,,,,,,,NaN,,,,,,,,low,high,,,,,,false,,,,false,996500.6999999993,996500.5,,996500.0999999978,,996337.3,4,500,,
sequence,flow.Sequence,10_2,2023-11-14T20:22:22.294Z,,,,,,,,,,7053.920000000042,completion,,,,,,,low,high,,,,,,false,,,,false,996501,996500.5,989429.783,989620.8000000007,989446.58,996337.3,4,500,,
trial,html.Screen,10_3_0,2023-11-14T20:22:27.026Z,,,,1,0.0450282431170921,0.0102871556606504,,false,hl,4895.599999998463,response,0.3346565097522507,0.4085019910293613,-0.466560628855865,-0.3418670208316815,0.4965178129487146,-0.44511671227761285,high,low,,ISIC_1805163.JPG,9,ISIC_0030760.JPG,327,false,hh,keypress(i),0,false,1001233.0999999978,1001232.8999999985,996303.601,996501.3000000007,996337.3,1001058.068,4,500,4,
break,html.Screen,10_3_1,2023-11-14T20:22:27.027Z,,,,,,,,,,NaN,,,,,,,,high,low,,,,,,false,,,,false,1001233.5,1001233.3999999985,,1001233.1999999993,,1001058.068,4,500,,
break_continue,html.Screen,10_3_2,2023-11-14T20:22:27.027Z,,,,,,,,,,NaN,,,,,,,,high,low,,,,,,false,,,,false,1001233.6999999993,1001233.6999999993,,1001233.5999999978,,1001058.068,4,500,,
sequence,flow.Sequence,10_3,2023-11-14T20:22:27.027Z,,,,,,,,,,4896.399999999208,completion,,,,,,,high,low,,,,,,false,,,,false,1001233.8000000007,1001233.6999999993,996303.601,996501.1999999993,996337.3,1001058.068,4,500,,
trial,html.Screen,10_4_0,2023-11-14T20:22:30.116Z,,,,1,0.00126575685933,0.0325046559638838,,true,hl,3263.93200000003,response,0.4268214624036824,0.4085019910293613,-0.466560628855865,-0.4266060527385459,0.4965178129487146,-0.44511671227761285,high,low,,ISIC_5682259.JPG,9,ISIC_6254731.JPG,327,false,hl,keypress(j),0,false,1004322.3999999985,1004322,1001041.355,1001233.8999999985,1001058.068,1004144.561,4,500,5,
break,html.Screen,10_4_1,2023-11-14T20:22:30.117Z,,,,,,,,,,NaN,,,,,,,,high,low,,,,,,false,,,,false,1004323.5999999978,1004323.3000000007,,1004322.6999999993,,1004144.561,4,500,,
break_continue,html.Screen,10_4_2,2023-11-14T20:22:30.118Z,,,,,,,,,,NaN,,,,,,,,high,low,,,,,,false,,,,false,1004324.3000000007,1004324.0999999978,,1004323.8000000007,,1004144.561,4,500,,
sequence,flow.Sequence,10_4,2023-11-14T20:22:30.118Z,,,,,,,,,,3266.0319999977946,completion,,,,,,,high,low,,,,,,false,,,,false,1004324.5999999978,1004324.0999999978,1001041.355,1001233.8999999985,1001058.068,1004144.561,4,500,,
trial,html.Screen,10_5_0,2023-11-14T20:22:34.388Z,,,,1,0.0668201703083464,-0.0222223530621927,,false,hl,4449.739000000758,response,0.3358014537079411,0.4085019910293613,-0.466560628855865,-0.4550323994582307,0.4965178129487146,-0.44511671227761285,high,low,,ISIC_8321148.JPG,9,ISIC_9183042.JPG,327,false,hh,keypress(i),0,false,1008594.5999999978,1008594.3000000007,1004127.876,1004325,1004144.561,1008432.326,4,500,6,
break,html.Screen,10_5_1,2023-11-14T20:22:34.389Z,,,,,,,,,,NaN,,,,,,,,high,low,,,,,,false,,,,false,1008595.6999999993,1008595.5,,1008594.8999999985,,1008432.326,4,500,,
break_continue,html.Screen,10_5_2,2023-11-14T20:22:34.390Z,,,,,,,,,,NaN,,,,,,,,high,low,,,,,,false,,,,false,1008596.3999999985,1008596.0999999978,,1008595.8999999985,,1008432.326,4,500,,
sequence,flow.Sequence,10_5,2023-11-14T20:22:34.390Z,,,,,,,,,,4451.538999997778,completion,,,,,,,high,low,,,,,,false,,,,false,1008596.6999999993,1008596.0999999978,1004127.876,1004324.8000000007,1004144.561,1008432.326,4,500,,
trial,html.Screen,10_6_0,2023-11-14T20:22:41.508Z,,,,1,0.0629926578251803,-0.0626296407938785,,true,hl,7281.873999999254,response,0.224789416939383,0.4085019910293613,-0.466560628855865,-0.6251939472109145,0.4965178129487146,-0.44511671227761285,high,low,,ISIC_0027043.JPG,9,ISIC_3495113.JPG,327,false,hl,keypress(j),0,false,1015714.5,1015714.1999999993,1008398.861,1008596.8999999985,1008432.326,1015539.22,4,500,7,
break,html.Screen,10_6_1,2023-11-14T20:22:41.509Z,,,,,,,,,,NaN,,,,,,,,high,low,,,,,,false,,,,false,1015715.5999999978,1015715.3000000007,,1015714.8000000007,,1015539.22,4,500,,
break_continue,html.Screen,10_6_2,2023-11-14T20:22:41.510Z,,,,,,,,,,NaN,,,,,,,,high,low,,,,,,false,,,,false,1015716.3000000007,1015716,,1015715.8000000007,,1015539.22,4,500,,
sequence,flow.Sequence,10_6,2023-11-14T20:22:41.510Z,,,,,,,,,,7283.673999999999,completion,,,,,,,high,low,,,,,,false,,,,false,1015716.5999999978,1015716,1008398.861,1008596.8999999985,1008432.326,1015539.22,4,500,,
trial,html.Screen,10_7_0,2023-11-14T20:22:44.835Z,,,,1,0.0166849894750452,-0.0371614812368835,,false,hh,3502.080000000773,response,0.2117115467399711,0.4085019910293613,-0.466560628855865,0.3779303568928729,0.4965178129487146,-0.44511671227761285,high,high,,ISIC_6231450.JPG,9,ISIC_2153686.JPG,372,false,hl,keypress(j),0,false,1019041.5,1019041.3000000007,1015522.683,1015716.8000000007,1015539.22,1018875.895,4,500,8,
break,html.Screen,10_7_1,2023-11-14T20:22:44.835Z,,,,,,,,,,NaN,,,,,,,,high,high,,,,,,false,,,,false,1019041.8999999985,1019041.8000000007,,1019041.5999999978,,1018875.895,4,500,,
break_continue,html.Screen,10_7_2,2023-11-14T20:22:44.836Z,,,,,,,,,,NaN,,,,,,,,high,high,,,,,,false,,,,false,1019042.3000000007,1019042.1999999993,,1019042.0999999978,,1018875.895,4,500,,
sequence,flow.Sequence,10_7,2023-11-14T20:22:44.836Z,,,,,,,,,,3502.979999999283,completion,,,,,,,high,high,,,,,,false,,,,false,1019042.3999999985,1019042.1999999993,1015522.683,1015716.6999999993,1015539.22,1018875.895,4,500,,
trial,html.Screen,10_8_0,2023-11-14T20:22:50.548Z,,,,1,-0.0187970165493076,-0.0417726918052949,,false,hh,5878.204999997746,response,0.309460662064525,0.4085019910293613,-0.466560628855865,0.3478582162317762,0.4965178129487146,-0.44511671227761285,high,high,,ISIC_9312164.JPG,9,ISIC_1471329.JPG,372,false,hl,keypress(j),0,false,1024754.5,1024754.0999999978,1018859.427,1019042.5,1018875.895,1024581.586,4,500,9,
break,html.Screen,10_8_1,2023-11-14T20:22:50.549Z,,,,,,,,,,NaN,,,,,,,,high,high,,,,,,false,,,,false,1024755.6999999993,1024755.3000000007,,1024754.8000000007,,1024581.586,4,500,,
break_continue,html.Screen,10_8_2,2023-11-14T20:22:50.550Z,,,,,,,,,,NaN,,,,,,,,high,high,,,,,,false,,,,false,1024756.5999999978,1024756.3000000007,,1024756.0999999978,,1024581.586,4,500,,
sequence,flow.Sequence,10_8,2023-11-14T20:22:50.550Z,,,,,,,,,,5880.405000000726,completion,,,,,,,high,high,,,,,,false,,,,false,1024756.8999999985,1024756.3000000007,1018859.427,1019042.5,1018875.895,1024581.586,4,500,,
trial,html.Screen,10_9_0,2023-11-14T20:22:54.612Z,,,,1,0.040352316356354,0.0039626669358928,,false,lh,4236.41399999999,response,-0.4483806693642013,0.4085019910293613,-0.466560628855865,0.4452102111437087,0.4965178129487146,-0.44511671227761285,low,high,,ISIC_3018550.JPG,8,ISIC_0058658.JPG,284,false,hh,keypress(i),0,false,1028818.3000000007,1028818,1024564.941,1024757.0999999978,1024581.586,1028652.316,4,500,10,
break,html.Screen,10_9_1,2023-11-14T20:22:54.613Z,,,,,,,,,,NaN,,,,,,,,low,high,,,,,,false,,,,false,1028819.5999999978,1028819.1999999993,,1028818.6999999993,,1028652.316,4,500,,
break_continue,html.Screen,10_9_2,2023-11-14T20:22:54.614Z,,,,,,,,,,NaN,,,,,,,,low,high,,,,,,false,,,,false,1028820.3000000007,1028820.0999999978,,1028819.8000000007,,1028652.316,4,500,,
sequence,flow.Sequence,10_9,2023-11-14T20:22:54.614Z,,,,,,,,,,4238.513999997755,completion,,,,,,,low,high,,,,,,false,,,,false,1028820.5999999978,1028820.0999999978,1024564.941,1024757.0999999978,1024581.586,1028652.316,4,500,,
trial,html.Screen,10_10_0,2023-11-14T20:22:59.428Z,,,,1,0.0572318562475973,0.0328299593216012,,false,hl,4981.984000000753,response,0.3122388535644661,0.4085019910293613,-0.466560628855865,-0.5754260355974157,0.4965178129487146,-0.44511671227761285,high,low,,ISIC_0397464.JPG,9,ISIC_4044751.JPG,327,false,hh,keypress(i),0,false,1033634.5999999978,1033634.3000000007,1028635.824,1028820.8000000007,1028652.316,1033457.145,4,500,11,
break,html.Screen,10_10_1,2023-11-14T20:22:59.429Z,,,,,,,,,,NaN,,,,,,,,high,low,,,,,,false,,,,false,1033635.8000000007,1033635.5,,1033635,,1033457.145,4,500,,
break_continue,html.Screen,10_10_2,2023-11-14T20:22:59.430Z,,,,,,,,,,NaN,,,,,,,,high,low,,,,,,false,,,,false,1033636.5999999978,1033636.3000000007,,1033636,,1033457.145,4,500,,
sequence,flow.Sequence,10_10,2023-11-14T20:22:59.430Z,,,,,,,,,,4983.984000000753,completion,,,,,,,high,low,,,,,,false,,,,false,1033637,1033636.3000000007,1028635.824,1028820.6999999993,1028652.316,1033457.145,4,500,,
trial,html.Screen,10_11_0,2023-11-14T20:23:06.020Z,,,,1,-0.0683185670328473,-0.0092332028949561,,false,hl,6769.054999999236,response,0.313810461870153,0.4085019910293613,-0.466560628855865,-0.4667909924795476,0.4965178129487146,-0.44511671227761285,high,low,,ISIC_3652847.JPG,9,ISIC_8820668.JPG,327,false,lh,keypress(e),0,false,1040226.5,1040226.1999999993,1033440.495,1033637.1999999993,1033457.145,1040063.867,4,500,12,
break,html.Screen,10_11_1,2023-11-14T20:23:06.021Z,,,,,,,,,,NaN,,,,,,,,high,low,,,,,,false,,,,false,1040227.6999999993,1040227.3000000007,,1040226.8999999985,,1040063.867,4,500,,
break_continue,html.Screen,10_11_2,2023-11-14T20:23:06.022Z,,,,,,,,,,NaN,,,,,,,,high,low,,,,,,false,,,,false,1040228.3999999985,1040228.1999999993,,1040227.8999999985,,1040063.867,4,500,,
sequence,flow.Sequence,10_11,2023-11-14T20:23:06.022Z,,,,,,,,,,6771.054999999236,completion,,,,,,,high,low,,,,,,false,,,,false,1040228.6999999993,1040228.1999999993,1033440.495,1033637.0999999978,1033457.145,1040063.867,4,500,,
trial,html.Screen,10_12_0,2023-11-14T20:23:09.461Z,,,,1,0.012810673904807,-0.00400964452501,,false,ll,3601.2329999977956,response,-0.4295993000713188,0.4085019910293613,-0.466560628855865,-0.5619446552059029,0.4965178129487146,-0.44511671227761285,low,low,,ISIC_0064656.JPG,8,ISIC_1718403.JPG,476,false,hl,keypress(j),0,false,1043665.3000000007,1043665.0999999978,1040047.181,1040228.8999999985,1040063.867,1043500.647,4,500,13,
break,html.Screen,10_12_1,2023-11-14T20:23:09.461Z,,,,,,,,,,NaN,,,,,,,,low,low,,,,,,false,,,,false,1043665.5999999978,1043665.5999999978,,1043665.3999999985,,1043500.647,4,500,,
break_continue,html.Screen,10_12_2,2023-11-14T20:23:09.462Z,,,,,,,,,,NaN,,,,,,,,low,low,,,,,,false,,,,false,1043665.8999999985,1043665.8000000007,,1043665.6999999993,,1043500.647,4,500,,
sequence,flow.Sequence,10_12,2023-11-14T20:23:09.462Z,,,,,,,,,,3601.933000000776,completion,,,,,,,low,low,,,,,,false,,,,false,1043666,1043665.8000000007,1040047.181,1040228.8999999985,1040063.867,1043500.647,4,500,,
trial,html.Screen,10_13_0,2023-11-14T20:23:13.476Z,,,,1,0.0480684603309257,-0.0620119776873313,,true,lh,4179.952999997768,response,-0.6483432622010803,0.4085019910293613,-0.466560628855865,0.528888030695834,0.4965178129487146,-0.44511671227761285,low,high,,ISIC_0645834.JPG,9,ISIC_6692344.JPG,284,false,lh,keypress(e),0,false,1047680.6999999993,1047680.5999999978,1043484.038,1043666,1043500.647,1047504.434,4,500,14,
break,html.Screen,10_13_1,2023-11-14T20:23:13.477Z,,,,,,,,,,NaN,,,,,,,,low,high,,,,,,false,,,,false,1047681.0999999978,1047680.8999999985,,1047680.8000000007,,1047504.434,4,500,,
break_continue,html.Screen,10_13_2,2023-11-14T20:23:13.477Z,,,,,,,,,,NaN,,,,,,,,low,high,,,,,,false,,,,false,1047681.3000000007,1047681.1999999993,,1047681.1999999993,,1047504.434,4,500,,
sequence,flow.Sequence,10_13,2023-11-14T20:23:13.477Z,,,,,,,,,,4180.552999999258,completion,,,,,,,low,high,,,,,,false,,,,false,1047681.3000000007,1047681.1999999993,1043484.038,1043666,1043500.647,1047504.434,4,500,,
trial,html.Screen,10_14_0,2023-11-14T20:23:21.926Z,,,,1,-0.0365981355399771,-0.0162670920008846,,false,ll,8625.866000000737,response,-0.4712974337724772,0.4085019910293613,-0.466560628855865,-0.621332215027405,0.4965178129487146,-0.44511671227761285,low,low,,ISIC_0982855.JPG,8,ISIC_6446779.JPG,476,false,hh,keypress(i),0,false,1056130.5999999978,1056130.3000000007,1047487.904,1047681.3000000007,1047504.434,1055963.051,4,500,15,
break,html.Screen,10_14_1,2023-11-14T20:23:21.927Z,,,,,,,,,,NaN,,,,,,,,low,low,,,,,,false,,,,false,1056131.8000000007,1056131.5,,1056131,,1055963.051,4,500,,
break_continue,html.Screen,10_14_2,2023-11-14T20:23:21.928Z,,,,,,,,,,NaN,,,,,,,,low,low,,,,,,false,,,,false,1056132.5,1056132.3000000007,,1056132,,1055963.051,4,500,,
sequence,flow.Sequence,10_14,2023-11-14T20:23:21.929Z,,,,,,,,,,8627.866000000737,completion,,,,,,,low,low,,,,,,false,,,,false,1056132.8999999985,1056132.3000000007,1047487.904,1047681.3000000007,1047504.434,1055963.051,4,500,,
trial,html.Screen,10_15_0,2023-11-14T20:23:28.405Z,,,,1,0.0310298232022856,0.0697438859399019,,false,lh,6645.848999998532,response,-0.5089132249104874,0.4085019910293613,-0.466560628855865,0.4324150577529263,0.4965178129487146,-0.44511671227761285,low,high,,ISIC_0027669.JPG,8,ISIC_0061021.JPG,284,false,ll,keypress(f),0,false,1062609.0999999978,1062608.8999999985,1055946.332,1056133.1999999993,1055963.051,1062436.007,4,500,16,
break,html.Screen,10_15_1,2023-11-14T20:23:28.405Z,,,,,,,,,,NaN,,,,,,,,low,high,,,,,,false,,,,false,1062609.5,1062609.3000000007,,1062609.1999999993,,1062436.007,4,500,,
break_continue,html.Screen,10_15_2,2023-11-14T20:23:28.405Z,,,,,,,,,,NaN,,,,,,,,low,high,,,,,,false,,,,false,1062609.5999999978,1062609.5999999978,,1062609.5,,1062436.007,4,500,,
sequence,flow.Sequence,10_15,2023-11-14T20:23:28.405Z,,,,,,,,,,6646.548999997787,completion,,,,,,,low,high,,,,,,false,,,,false,1062609.8000000007,1062609.5999999978,1055946.332,1056133.1999999993,1055963.051,1062436.007,4,500,,
trial,html.Screen,10_16_0,2023-11-14T20:23:31.974Z,,,,1,-0.0386453938786174,-0.0465908665241285,,true,hh,3742.3929999985266,response,0.3661234594820217,0.4085019910293613,-0.466560628855865,0.6564062772821055,0.4965178129487146,-0.44511671227761285,high,high,,ISIC_1698119.JPG,9,ISIC_0058206.JPG,372,false,hh,keypress(i),0,false,1066178.8000000007,1066178.3999999985,1062419.505,1062609.8999999985,1062436.007,1066006.226,4,500,17,
break,html.Screen,10_16_1,2023-11-14T20:23:31.976Z,,,,,,,,,,NaN,,,,,,,,high,high,,,,,,false,,,,false,1066180.0999999978,1066179.6999999993,,1066179.3000000007,,1066006.226,4,500,,
break_continue,html.Screen,10_16_2,2023-11-14T20:23:31.977Z,,,,,,,,,,NaN,,,,,,,,high,high,,,,,,false,,,,false,1066181,1066180.6999999993,,1066180.3999999985,,1066006.226,4,500,,
sequence,flow.Sequence,10_16,2023-11-14T20:23:31.977Z,,,,,,,,,,3744.6929999992717,completion,,,,,,,high,high,,,,,,false,,,,false,1066181.3000000007,1066180.6999999993,1062419.505,1062609.8999999985,1062436.007,1066006.226,4,500,,
trial,html.Screen,10_17_0,2023-11-14T20:23:36.118Z,,,,1,0.0402606077562393,-0.0233871780024155,,true,ll,4315.873999997741,response,-0.5067378643500303,0.4085019910293613,-0.466560628855865,-0.5282904249223751,0.4965178129487146,-0.44511671227761285,low,low,,ISIC_0024401.JPG,9,ISIC_0591226.JPG,476,false,ll,keypress(f),0,false,1070322.5,1070322.0999999978,1065989.808,1066181.5999999978,1066006.226,1070160.973,4,500,18,
break,html.Screen,10_17_1,2023-11-14T20:23:36.119Z,,,,,,,,,,NaN,,,,,,,,low,low,,,,,,false,,,,false,1070323.6999999993,1070323.3999999985,,1070322.8999999985,,1070160.973,4,500,,
break_continue,html.Screen,10_17_2,2023-11-14T20:23:36.120Z,,,,,,,,,,NaN,,,,,,,,low,low,,,,,,false,,,,false,1070324.5999999978,1070324.3000000007,,1070324,,1070160.973,4,500,,
sequence,flow.Sequence,10_17,2023-11-14T20:23:36.121Z,,,,,,,,,,4318.074000000721,completion,,,,,,,low,low,,,,,,false,,,,false,1070324.8999999985,1070324.3000000007,1065989.808,1066181.5,1066006.226,1070160.973,4,500,,
trial,html.Screen,10_18_0,2023-11-14T20:23:42.902Z,,,,1,-0.0367218428225813,0.0026956749740767,,false,hl,6945.327000000747,response,0.3882156087898045,0.4085019910293613,-0.466560628855865,-0.308435748996363,0.4965178129487146,-0.44511671227761285,high,low,,ISIC_7212271.JPG,9,ISIC_3002956.JPG,327,false,hh,keypress(i),0,false,1077106.5999999978,1077106.3000000007,1070127.205,1070325.0999999978,1070160.973,1076933.816,4,500,19,
break,html.Screen,10_18_1,2023-11-14T20:23:42.903Z,,,,,,,,,,NaN,,,,,,,,high,low,,,,,,false,,,,false,1077107.8000000007,1077107.5,,1077107,,1076933.816,4,500,,
break_continue,html.Screen,10_18_2,2023-11-14T20:23:42.904Z,,,,,,,,,,NaN,,,,,,,,high,low,,,,,,false,,,,false,1077108.5,1077108.3000000007,,1077108,,1076933.816,4,500,,
sequence,flow.Sequence,10_18,2023-11-14T20:23:42.904Z,,,,,,,,,,6947.327000000747,completion,,,,,,,high,low,,,,,,false,,,,false,1077108.8999999985,1077108.3000000007,1070127.205,1070325.0999999978,1070160.973,1076933.816,4,500,,
trial,html.Screen,10_19_0,2023-11-14T20:23:47.862Z,,,,1,0.0458738008498492,0.0084690422621415,,false,hl,5132.083999998402,response,0.2524745349818066,0.4085019910293613,-0.466560628855865,-0.3174187810666537,0.4965178129487146,-0.44511671227761285,high,low,,ISIC_4026019.JPG,9,ISIC_3789239.JPG,327,false,ll,keypress(f),0,false,1082066.3000000007,1082065.8999999985,1076917.372,1077109.0999999978,1076933.816,1081888.803,4,500,20,
break,html.Screen,10_19_1,2023-11-14T20:23:47.863Z,,,,,,,,,,NaN,,,,,,,,high,low,,,,,,false,,,,false,1082067.3999999985,1082067.0999999978,,1082066.5999999978,,1081888.803,4,500,,
break_continue,html.Screen,10_19_2,2023-11-14T20:23:47.864Z,,,,,,,,,,NaN,,,,,,,,high,low,,,,,,false,,,,false,1082068.0999999978,1082067.8999999985,,1082067.5999999978,,1081888.803,4,500,,
sequence,flow.Sequence,10_19,2023-11-14T20:23:47.864Z,,,,,,,,,,5134.083999998402,completion,,,,,,,high,low,,,,,,false,,,,false,1082068.3999999985,1082067.8999999985,1076917.372,1077109,1076933.816,1081888.803,4,500,,
trial,html.Screen,10_20_0,2023-11-14T20:23:54.310Z,,,,1,-0.0127320821962457,0.0315308940184827,,false,hl,6625.296999997692,response,0.4054814710050892,0.4085019910293613,-0.466560628855865,-0.5227140125937078,0.4965178129487146,-0.44511671227761285,high,low,,ISIC_8156101.JPG,9,ISIC_7564545.JPG,327,false,hh,keypress(i),0,false,1088514.5,1088514.0999999978,1081872.123,1082068.5999999978,1081888.803,1088345.283,4,500,21,
break,html.Screen,10_20_1,2023-11-14T20:23:54.311Z,,,,,,,,,,NaN,,,,,,,,high,low,,,,,,false,,,,false,1088515.5999999978,1088515.3000000007,,1088514.8000000007,,1088345.283,4,500,,
break_continue,html.Screen,10_20_2,2023-11-14T20:23:54.312Z,,,,,,,,,,NaN,,,,,,,,high,low,,,,,,false,,,,false,1088516.3000000007,1088516.0999999978,,1088515.8000000007,,1088345.283,4,500,,
sequence,flow.Sequence,10_20,2023-11-14T20:23:54.312Z,,,,,,,,,,6627.296999997692,completion,,,,,,,high,low,,,,,,false,,,,false,1088516.5999999978,1088516.0999999978,1081872.123,1082068.5999999978,1081888.803,1088345.283,4,500,,
trial,html.Screen,10_21_0,2023-11-14T20:24:01.014Z,,,,1,0.0377791839943904,-0.0227626648172468,,false,ll,6872.616999998456,response,-0.4811240665782652,0.4085019910293613,-0.466560628855865,-0.5870118050941089,0.4965178129487146,-0.44511671227761285,low,low,,ISIC_7167479.JPG,9,ISIC_0008114.JPG,476,false,lh,keypress(e),0,false,1095218.3000000007,1095217.8999999985,1088328.555,1088516.8999999985,1088345.283,1095052.089,4,500,22,
break,html.Screen,10_21_1,2023-11-14T20:24:01.015Z,,,,,,,,,,NaN,,,,,,,,low,low,,,,,,false,,,,false,1095219.3999999985,1095219,,1095218.5999999978,,1095052.089,4,500,,
break_continue,html.Screen,10_21_2,2023-11-14T20:24:01.016Z,,,,,,,,,,NaN,,,,,,,,low,low,,,,,,false,,,,false,1095220.0999999978,1095219.8999999985,,1095219.5999999978,,1095052.089,4,500,,
sequence,flow.Sequence,10_21,2023-11-14T20:24:01.016Z,,,,,,,,,,6874.616999998456,completion,,,,,,,low,low,,,,,,false,,,,false,1095220.3999999985,1095219.8999999985,1088328.555,1088516.8000000007,1088345.283,1095052.089,4,500,,
trial,html.Screen,10_22_0,2023-11-14T20:24:06.692Z,,,,1,-0.0500182837729639,0.0231316228640781,,true,ll,5844.41100000008,response,-0.3255146411286266,0.4085019910293613,-0.466560628855865,-0.5763723807391403,0.4965178129487146,-0.44511671227761285,low,low,,ISIC_2246150.JPG,9,ISIC_0000558.JPG,476,false,ll,keypress(f),0,false,1100896.6999999993,1100896.5,1095035.412,1095220.5999999978,1095052.089,1100724.195,4,500,23,
break,html.Screen,10_22_1,2023-11-14T20:24:06.693Z,,,,,,,,,,NaN,,,,,,,,low,low,,,,,,false,,,,false,1100896.8999999985,1100896.8999999985,,1100896.6999999993,,1100724.195,4,500,,
break_continue,html.Screen,10_22_2,2023-11-14T20:24:06.693Z,,,,,,,,,,NaN,,,,,,,,low,low,,,,,,false,,,,false,1100897.0999999978,1100897,,1100896.8999999985,,1100724.195,4,500,,
sequence,flow.Sequence,10_22,2023-11-14T20:24:06.693Z,,,,,,,,,,5844.91100000008,completion,,,,,,,low,low,,,,,,false,,,,false,1100897.1999999993,1100897,1095035.412,1095220.5,1095052.089,1100724.195,4,500,,
trial,html.Screen,10_23_0,2023-11-14T20:24:09.561Z,,,,1,-0.0686816131231518,0.0045217849100701,,false,ll,3037.9049999976996,response,-0.3715903618949383,0.4085019910293613,-0.466560628855865,-0.5122634084762518,0.4965178129487146,-0.44511671227761285,low,low,,ISIC_5707761.JPG,12,ISIC_6577632.JPG,476,false,hh,keypress(i),0,false,1103762.3999999985,1103762.0999999978,1100707.704,1100897.1999999993,1100724.195,1103593.948,4,500,24,
break,html.Screen,10_23_1,2023-11-14T20:24:09.562Z,,,,,,,,,,NaN,,,,,,,,low,low,,,,,,false,,,,false,1103763.5,1103763.1999999993,,1103762.8000000007,,1103593.948,4,500,,
break_continue,html.Screen,10_23_2,2023-11-14T20:24:09.562Z,,,,,,,,,,NaN,,,,,,,,low,low,,,,,,false,,,,false,1103764.3000000007,1103764,,1103763.8000000007,,1103593.948,4,500,,
sequence,flow.Sequence,10_23,2023-11-14T20:24:09.563Z,,,,,,,,,,3039.804999999935,completion,,,,,,,low,low,,,,,,false,,,,false,1103764.5999999978,1103764,1100707.704,1100897.1999999993,1100724.195,1103593.948,4,500,,
trial,html.Screen,10_24_0,2023-11-14T20:24:15.944Z,,,,1,-0.0327772618698018,0.0056908372048728,,true,hl,6552.051999999909,response,0.4036892924679521,0.4085019910293613,-0.466560628855865,-0.4610701400672324,0.4965178129487146,-0.44511671227761285,high,low,,ISIC_7897925.JPG,8,ISIC_1426331.JPG,327,false,hl,keypress(j),0,false,1110146.3000000007,1110146,1103577.08,1103764.8000000007,1103593.948,1109983.627,4,500,25,
break,html.Screen,10_24_1,2023-11-14T20:24:15.946Z,,,,,,,,,,NaN,,,,,,,,high,low,,,,,,false,,,,false,1110147.3999999985,1110147.0999999978,,1110146.5999999978,,1109983.627,4,500,,
break_continue,html.Screen,10_24_2,2023-11-14T20:24:15.946Z,,,,,,,,,,NaN,,,,,,,,high,low,,,,,,false,,,,false,1110148.0999999978,1110147.8000000007,,1110147.5999999978,,1109983.627,4,500,,
sequence,flow.Sequence,10_24,2023-11-14T20:24:15.947Z,,,,,,,,,,6553.852000000654,completion,,,,,,,high,low,,,,,,false,,,,false,1110148.3999999985,1110147.8000000007,1103577.08,1103764.6999999993,1103593.948,1109983.627,4,500,,
trial,html.Screen,10_25_0,2023-11-14T20:24:21.321Z,,,,1,-0.0488365673064833,0.0229344142397166,,false,hh,5538.57299999916,response,0.5168601116832056,0.4085019910293613,-0.466560628855865,0.6605927264066271,0.4965178129487146,-0.44511671227761285,high,high,,ISIC_0056915.JPG,9,ISIC_0068246.JPG,372,false,ll,keypress(f),0,false,1115522.5,1115522.1999999993,1109966.937,1110148.5999999978,1109983.627,1115355.484,4,500,26,
break,html.Screen,10_25_1,2023-11-14T20:24:21.322Z,,,,,,,,,,NaN,,,,,,,,high,high,,,,,,false,,,,false,1115523.5999999978,1115523.3999999985,,1115522.8999999985,,1115355.484,4,500,,
break_continue,html.Screen,10_25_2,2023-11-14T20:24:21.323Z,,,,,,,,,,NaN,,,,,,,,high,high,,,,,,false,,,,false,1115524.3999999985,1115524.1999999993,,1115523.8999999985,,1115355.484,4,500,,
sequence,flow.Sequence,10_25,2023-11-14T20:24:21.323Z,,,,,,,,,,5540.57299999916,completion,,,,,,,high,high,,,,,,false,,,,false,1115524.8000000007,1115524.1999999993,1109966.937,1110148.5999999978,1109983.627,1115355.484,4,500,,
trial,html.Screen,10_26_0,2023-11-14T20:24:28.248Z,,,,1,0.0362472736315994,0.0492979048777824,,true,lh,7094.5160000000615,response,-0.3603004145108643,0.4085019910293613,-0.466560628855865,0.3341342898402497,0.4965178129487146,-0.44511671227761285,low,high,,ISIC_5312584.JPG,9,ISIC_0058428.JPG,284,false,lh,keypress(e),0,false,1122450.3000000007,1122450,1115339.011,1115525,1115355.484,1122279.048,4,500,27,
break,html.Screen,10_26_1,2023-11-14T20:24:28.249Z,,,,,,,,,,NaN,,,,,,,,low,high,,,,,,false,,,,false,1122451.3000000007,1122451,,1122450.5999999978,,1122279.048,4,500,,
break_continue,html.Screen,10_26_2,2023-11-14T20:24:28.250Z,,,,,,,,,,NaN,,,,,,,,low,high,,,,,,false,,,,false,1122452.0999999978,1122451.8000000007,,1122451.5999999978,,1122279.048,4,500,,
sequence,flow.Sequence,10_26,2023-11-14T20:24:28.250Z,,,,,,,,,,7096.3160000008065,completion,,,,,,,low,high,,,,,,false,,,,false,1122452.3000000007,1122451.8000000007,1115339.011,1115524.8999999985,1115355.484,1122279.048,4,500,,
trial,html.Screen,10_27_0,2023-11-14T20:24:31.977Z,,,,1,0.0077673378094614,0.0021810768579373,,true,ll,3899.2520000007935,response,-0.3407722645571609,0.4085019910293613,-0.466560628855865,-0.6259890960717156,0.4965178129487146,-0.44511671227761285,low,low,,ISIC_0067621.JPG,9,ISIC_1915890.JPG,476,false,ll,keypress(f),0,false,1126178.8000000007,1126178.3000000007,1122262.592,1122452.5,1122279.048,1126016.173,4,500,28,
break,html.Screen,10_27_1,2023-11-14T20:24:31.978Z,,,,,,,,,,NaN,,,,,,,,low,low,,,,,,false,,,,false,1126179.8999999985,1126179.5,,1126179.0999999978,,1126016.173,4,500,,
break_continue,html.Screen,10_27_2,2023-11-14T20:24:31.979Z,,,,,,,,,,NaN,,,,,,,,low,low,,,,,,false,,,,false,1126180.5999999978,1126180.3999999985,,1126180.1999999993,,1126016.173,4,500,,
sequence,flow.Sequence,10_27,2023-11-14T20:24:31.979Z,,,,,,,,,,3901.3519999985583,completion,,,,,,,low,low,,,,,,false,,,,false,1126180.8999999985,1126180.3999999985,1122262.592,1122452.5,1122279.048,1126016.173,4,500,,
trial,html.Screen,10_28_0,2023-11-14T20:24:35.912Z,,,,1,-0.0321039635696159,-0.020496766286318,,false,hl,4097.926999997813,response,0.3543773833691151,0.4085019910293613,-0.466560628855865,-0.3238478318746457,0.4965178129487146,-0.44511671227761285,high,low,,ISIC_0058063.JPG,8,ISIC_0032152.JPG,327,false,ll,keypress(f),0,false,1130114.3999999985,1130114.0999999978,1125983.006,1126181.1999999993,1126016.173,1129936.747,4,500,29,
break,html.Screen,10_28_1,2023-11-14T20:24:35.914Z,,,,,,,,,,NaN,,,,,,,,high,low,,,,,,false,,,,false,1130115.5,1130115.3000000007,,1130114.8000000007,,1129936.747,4,500,,
break_continue,html.Screen,10_28_2,2023-11-14T20:24:35.914Z,,,,,,,,,,NaN,,,,,,,,high,low,,,,,,false,,,,false,1130116.3000000007,1130116,,1130115.8000000007,,1129936.747,4,500,,
sequence,flow.Sequence,10_28,2023-11-14T20:24:35.915Z,,,,,,,,,,4099.827000000048,completion,,,,,,,high,low,,,,,,false,,,,false,1130116.5999999978,1130116,1125983.006,1126181.0999999978,1126016.173,1129936.747,4,500,,
trial,html.Screen,10_29_0,2023-11-14T20:24:39.303Z,,,,1,-0.0050319651598106,0.047524453347389,,true,ll,3567.852999997791,response,-0.2777092563115632,0.4085019910293613,-0.466560628855865,-0.6150121856036429,0.4965178129487146,-0.44511671227761285,low,low,,ISIC_0027081.JPG,9,ISIC_4141898.JPG,476,false,ll,keypress(f),0,false,1133504.5999999978,1133504.5999999978,1129920.246,1130116.8000000007,1129936.747,1133340.126,4,500,30,
break,html.Screen,10_29_1,2023-11-14T20:24:39.303Z,,,,,,,,,,NaN,,,,,,,,low,low,,,,,,false,,,,false,1133505,1133504.8999999985,,1133504.6999999993,,1133340.126,4,500,,
break_continue,html.Screen,10_29_2,2023-11-14T20:24:39.303Z,,,,,,,,,,NaN,,,,,,,,low,low,,,,,,false,,,,false,1133505.1999999993,1133505.1999999993,,1133505.0999999978,,1133340.126,4,500,,
sequence,flow.Sequence,10_29,2023-11-14T20:24:39.303Z,,,,,,,,,,3568.452999999281,completion,,,,,,,low,low,,,,,,false,,,,false,1133505.3000000007,1133505.1999999993,1129920.246,1130116.6999999993,1129936.747,1133340.126,4,500,,
trial,html.Screen,10_30_0,2023-11-14T20:24:43.465Z,,,,1,-0.0733425953790377,0.0558194585272655,,false,hh,4326.174000000814,response,0.5885415452813572,0.4085019910293613,-0.466560628855865,0.3799008380820337,0.4965178129487146,-0.44511671227761285,high,high,,ISIC_0026756.JPG,9,ISIC_0025970.JPG,372,false,hl,keypress(j),0,false,1137666.6999999993,1137666.3000000007,1133323.388,1133505.3000000007,1133340.126,1137494.228,4,500,31,
break,html.Screen,10_30_1,2023-11-14T20:24:43.466Z,,,,,,,,,,NaN,,,,,,,,high,high,,,,,,false,,,,false,1137667.8000000007,1137667.5,,1137667,,1137494.228,4,500,,
break_continue,html.Screen,10_30_2,2023-11-14T20:24:43.467Z,,,,,,,,,,NaN,,,,,,,,high,high,,,,,,false,,,,false,1137668.5,1137668.3000000007,,1137668,,1137494.228,4,500,,
sequence,flow.Sequence,10_30,2023-11-14T20:24:43.467Z,,,,,,,,,,4328.174000000814,completion,,,,,,,high,high,,,,,,false,,,,false,1137668.8000000007,1137668.3000000007,1133323.388,1133505.3000000007,1133340.126,1137494.228,4,500,,
trial,html.Screen,10_31_0,2023-11-14T20:24:47.623Z,,,,1,-0.0686816131231518,0.0045217849100701,,true,hl,4330.371999997878,response,0.5628631805619495,0.4085019910293613,-0.466560628855865,-0.3646583932436015,0.4965178129487146,-0.44511671227761285,high,low,,ISIC_5707761.JPG,9,ISIC_5765854.JPG,327,false,hl,keypress(j),0,false,1141824.8000000007,1141824.5999999978,1137477.79,1137669.0999999978,1137494.228,1141648.39,4,500,32,
break,html.Screen,10_31_1,2023-11-14T20:24:47.623Z,,,,,,,,,,NaN,,,,,,,,high,low,,,,,,false,,,,false,1141825.0999999978,1141825,,1141824.8000000007,,1141648.39,4,500,,
break_continue,html.Screen,10_31_2,2023-11-14T20:24:47.623Z,,,,,,,,,,NaN,,,,,,,,high,low,,,,,,false,,,,false,1141825.3000000007,1141825.1999999993,,1141825.1999999993,,1141648.39,4,500,,
sequence,flow.Sequence,10_31,2023-11-14T20:24:47.623Z,,,,,,,,,,4330.971999999369,completion,,,,,,,high,low,,,,,,false,,,,false,1141825.3999999985,1141825.1999999993,1137477.79,1137669,1137494.228,1141648.39,4,500,,
trial,html.Screen,10_32_0,2023-11-14T20:24:51.769Z,,,,1,0.0395849059583371,-0.049996355475379,,false,lh,4321.809999999357,response,-0.449156353027244,0.4085019910293613,-0.466560628855865,0.5170182415495769,0.4965178129487146,-0.44511671227761285,low,high,,ISIC_4042619.JPG,9,ISIC_9223156.JPG,284,false,hh,keypress(i),0,false,1145970.5,1145970.1999999993,1141631.925,1141825.3999999985,1141648.39,1145802.809,4,500,33,
break,html.Screen,10_32_1,2023-11-14T20:24:51.770Z,,,,,,,,,,NaN,,,,,,,,low,high,,,,,,false,,,,false,1145971.6999999993,1145971.3999999985,,1145971,,1145802.809,4,500,,
break_continue,html.Screen,10_32_2,2023-11-14T20:24:51.771Z,,,,,,,,,,NaN,,,,,,,,low,high,,,,,,false,,,,false,1145972.3999999985,1145972.1999999993,,1145972,,1145802.809,4,500,,
sequence,flow.Sequence,10_32,2023-11-14T20:24:51.771Z,,,,,,,,,,4323.809999999357,completion,,,,,,,low,high,,,,,,false,,,,false,1145972.6999999993,1145972.1999999993,1141631.925,1141825.3999999985,1141648.39,1145802.809,4,500,,
trial,html.Screen,10_33_0,2023-11-14T20:24:58.776Z,,,,1,0.040352316356354,0.0039626669358928,,false,lh,7175.191000000108,response,-0.3782668960698245,0.4085019910293613,-0.466560628855865,0.3132555967150822,0.4965178129487146,-0.44511671227761285,low,high,,ISIC_3018550.JPG,9,ISIC_3301933.JPG,284,false,hh,keypress(i),0,false,1152978.3000000007,1152978,1145785.914,1145973,1145802.809,1152809.516,4,500,34,
break,html.Screen,10_33_1,2023-11-14T20:24:58.777Z,,,,,,,,,,NaN,,,,,,,,low,high,,,,,,false,,,,false,1152979.3000000007,1152979,,1152978.5,,1152809.516,4,500,,
break_continue,html.Screen,10_33_2,2023-11-14T20:24:58.778Z,,,,,,,,,,NaN,,,,,,,,low,high,,,,,,false,,,,false,1152980.0999999978,1152979.8999999985,,1152979.5,,1152809.516,4,500,,
sequence,flow.Sequence,10_33,2023-11-14T20:24:58.778Z,,,,,,,,,,7177.090999998618,completion,,,,,,,low,high,,,,,,false,,,,false,1152980.3999999985,1152979.8999999985,1145785.914,1145972.8999999985,1145802.809,1152809.516,4,500,,
trial,html.Screen,10_34_0,2023-11-14T20:25:04.808Z,,,,1,-0.0500182837729639,0.0231316228640781,,false,hh,6200.583999997703,response,0.2923875398143803,0.4085019910293613,-0.466560628855865,0.3591547629937224,0.4965178129487146,-0.44511671227761285,high,high,,ISIC_2246150.JPG,9,ISIC_9775430.JPG,372,false,hl,keypress(j),0,false,1159010.3999999985,1159010.0999999978,1152793.074,1152980.5999999978,1152809.516,1158832.294,4,500,35,
break,html.Screen,10_34_1,2023-11-14T20:25:04.810Z,,,,,,,,,,NaN,,,,,,,,high,high,,,,,,false,,,,false,1159011.5,1159011.1999999993,,1159010.6999999993,,1158832.294,4,500,,
break_continue,html.Screen,10_34_2,2023-11-14T20:25:04.810Z,,,,,,,,,,NaN,,,,,,,,high,high,,,,,,false,,,,false,1159012.1999999993,1159011.8999999985,,1159011.6999999993,,1158832.294,4,500,,
sequence,flow.Sequence,10_34,2023-11-14T20:25:04.811Z,,,,,,,,,,6202.383999998448,completion,,,,,,,high,high,,,,,,false,,,,false,1159012.5,1159011.8999999985,1152793.074,1152980.5,1152809.516,1158832.294,4,500,,
trial,html.Screen,10_35_0,2023-11-14T20:25:11.115Z,,,,1,-0.0686816131231518,0.0045217849100701,,true,hl,6482.1059999985155,response,0.5170832920581534,0.4085019910293613,-0.466560628855865,-0.2937372945991411,0.4965178129487146,-0.44511671227761285,high,low,,ISIC_5707761.JPG,9,ISIC_3000569.JPG,327,false,hl,keypress(j),0,false,1165314.6999999993,1165314.3999999985,1158815.707,1159012.6999999993,1158832.294,1165138.569,4,500,36,
break,html.Screen,10_35_1,2023-11-14T20:25:11.116Z,,,,,,,,,,NaN,,,,,,,,high,low,,,,,,false,,,,false,1165315.8999999985,1165315.5999999978,,1165315.0999999978,,1165138.569,4,500,,
break_continue,html.Screen,10_35_2,2023-11-14T20:25:11.117Z,,,,,,,,,,NaN,,,,,,,,high,low,,,,,,false,,,,false,1165316.5999999978,1165316.3999999985,,1165316.1999999993,,1165138.569,4,500,,
sequence,flow.Sequence,10_35,2023-11-14T20:25:11.117Z,,,,,,,,,,6484.1059999985155,completion,,,,,,,high,low,,,,,,false,,,,false,1165316.8999999985,1165316.3999999985,1158815.707,1159012.5999999978,1158832.294,1165138.569,4,500,,
trial,html.Screen,10_36_0,2023-11-14T20:25:18.059Z,,,,1,-0.0321039635696159,-0.020496766286318,,true,ll,7119.530999997864,response,-0.2719725359133814,0.4085019910293613,-0.466560628855865,-0.2826168891871073,0.4965178129487146,-0.44511671227761285,low,low,,ISIC_0058063.JPG,9,ISIC_2151846.JPG,476,false,ll,keypress(f),0,false,1172258.3999999985,1172258.0999999978,1165122.019,1165317.1999999993,1165138.569,1172095.479,4,500,37,
break,html.Screen,10_36_1,2023-11-14T20:25:18.060Z,,,,,,,,,,NaN,,,,,,,,low,low,,,,,,false,,,,false,1172259.5,1172259.1999999993,,1172258.6999999993,,1172095.479,4,500,,
break_continue,html.Screen,10_36_2,2023-11-14T20:25:18.061Z,,,,,,,,,,NaN,,,,,,,,low,low,,,,,,false,,,,false,1172260.1999999993,1172260,,1172259.6999999993,,1172095.479,4,500,,
sequence,flow.Sequence,10_36,2023-11-14T20:25:18.061Z,,,,,,,,,,7121.431000000099,completion,,,,,,,low,low,,,,,,false,,,,false,1172260.5,1172260,1165122.019,1165317.0999999978,1165138.569,1172095.479,4,500,,
trial,html.Screen,10_37_0,2023-11-14T20:25:22.009Z,,,,1,0.0050679133050021,0.0174815595031679,,true,hh,4113.1209999977145,response,0.595328861368557,0.4085019910293613,-0.466560628855865,0.496633025569213,0.4965178129487146,-0.44511671227761285,high,high,,ISIC_9848743.JPG,8,ISIC_0024701.JPG,372,false,hh,keypress(i),0,false,1176208.8000000007,1176208.5999999978,1172078.954,1172260.6999999993,1172095.479,1176032.757,4,500,38,
break,html.Screen,10_37_1,2023-11-14T20:25:22.010Z,,,,,,,,,,NaN,,,,,,,,high,high,,,,,,false,,,,false,1176209.0999999978,1176209,,1176208.8999999985,,1176032.757,4,500,,
break_continue,html.Screen,10_37_2,2023-11-14T20:25:22.010Z,,,,,,,,,,NaN,,,,,,,,high,high,,,,,,false,,,,false,1176209.3999999985,1176209.3999999985,,1176209.1999999993,,1176032.757,4,500,,
sequence,flow.Sequence,10_37,2023-11-14T20:25:22.010Z,,,,,,,,,,4113.92099999846,completion,,,,,,,high,high,,,,,,false,,,,false,1176209.5,1176209.3999999985,1172078.954,1172260.5999999978,1172095.479,1176032.757,4,500,,
trial,html.Screen,10_38_0,2023-11-14T20:25:26.011Z,,,,1,0.0702697127166421,0.0314752704888287,,true,hh,4177.342999997782,response,0.264115461667432,0.4085019910293613,-0.466560628855865,0.462477703699955,0.4965178129487146,-0.44511671227761285,high,high,,ISIC_0033881.JPG,10,ISIC_0058836.JPG,372,false,hh,keypress(i),0,false,1180210.5,1180210.0999999978,1176016.143,1176209.5,1176032.757,1180036.678,4,500,39,
break,html.Screen,10_38_1,2023-11-14T20:25:26.012Z,,,,,,,,,,NaN,,,,,,,,high,high,,,,,,false,,,,false,1180211.6999999993,1180211.3000000007,,1180210.8000000007,,1180036.678,4,500,,
break_continue,html.Screen,10_38_2,2023-11-14T20:25:26.013Z,,,,,,,,,,NaN,,,,,,,,high,high,,,,,,false,,,,false,1180212.3999999985,1180212.1999999993,,1180211.8999999985,,1180036.678,4,500,,
sequence,flow.Sequence,10_38,2023-11-14T20:25:26.013Z,,,,,,,,,,4179.442999999272,completion,,,,,,,high,high,,,,,,false,,,,false,1180212.6999999993,1180212.1999999993,1176016.143,1176209.5,1176032.757,1180036.678,4,500,,
trial,html.Screen,10_39_0,2023-11-14T20:25:34.235Z,,,,1,-0.0321039635696159,-0.020496766286318,,true,hl,8397.821999999927,response,0.5049392085113823,0.4085019910293613,-0.466560628855865,-0.612679234038425,0.4965178129487146,-0.44511671227761285,high,low,,ISIC_0058063.JPG,9,ISIC_7460111.JPG,327,false,hl,keypress(j),0,false,1188434.8000000007,1188434.5,1180019.954,1180213,1180036.678,1188261.643,4,500,40,
break,html.Screen,10_39_1,2023-11-14T20:25:34.236Z,,,,,,,,,,NaN,,,,,,,,high,low,,,,,,false,,,,false,1188436,1188435.5999999978,,1188435.1999999993,,1188261.643,4,500,,
break_continue,html.Screen,10_39_2,2023-11-14T20:25:34.237Z,,,,,,,,,,NaN,,,,,,,,high,low,,,,,,false,,,,false,1188436.6999999993,1188436.3999999985,,1188436.0999999978,,1188261.643,4,500,,
sequence,flow.Sequence,10_39,2023-11-14T20:25:34.237Z,,,,,,,,,,8399.721999998437,completion,,,,,,,high,low,,,,,,false,,,,false,1188437,1188436.3999999985,1180019.954,1180213,1180036.678,1188261.643,4,500,,
trial,html.Screen,10_40_0,2023-11-14T20:25:39.019Z,,,,1,0.0057914759495055,-0.018500200317654,,false,hl,4956.357000000076,response,0.5209453862609748,0.4085019910293613,-0.466560628855865,-0.5310208757985249,0.4965178129487146,-0.44511671227761285,high,low,,ISIC_0058723.JPG,10,ISIC_0031079.JPG,327,false,hh,keypress(i),0,false,1193218.3999999985,1193218,1188244.952,1188437.1999999993,1188261.643,1193049.832,4,500,41,
break,html.Screen,10_40_1,2023-11-14T20:25:39.020Z,,,,,,,,,,NaN,,,,,,,,high,low,,,,,,false,,,,false,1193219.3999999985,1193219.1999999993,,1193218.6999999993,,1193049.832,4,500,,
break_continue,html.Screen,10_40_2,2023-11-14T20:25:39.021Z,,,,,,,,,,NaN,,,,,,,,high,low,,,,,,false,,,,false,1193220.1999999993,1193219.8999999985,,1193219.5999999978,,1193049.832,4,500,,
sequence,flow.Sequence,10_40,2023-11-14T20:25:39.021Z,,,,,,,,,,4958.256999998586,completion,,,,,,,high,low,,,,,,false,,,,false,1193220.5,1193219.8999999985,1188244.952,1188437.1999999993,1188261.643,1193049.832,4,500,,
trial,html.Screen,10_41_0,2023-11-14T20:25:49.889Z,,,,1,-0.019361072276763,-0.0523902345755568,,,,10860.766999999993,timeout,-0.421869368062603,0.4085019910293613,-0.466560628855865,-0.5737510737631993,0.4965178129487146,-0.44511671227761285,low,low,,ISIC_4066726.JPG,9,ISIC_0025289.JPG,476,false,,,0,false,1204088.3000000007,1204087.8999999985,1193033.21,1193220.6999999993,1193049.832,1203910.599,4,500,42,
break,html.Screen,10_41_1,2023-11-14T20:25:49.890Z,,,,,,,,,,NaN,,,,,,,,low,low,,,,,,false,,,,false,1204089.3999999985,1204089.1999999993,,1204088.6999999993,,1203910.599,4,500,,
break_continue,html.Screen,10_41_2,2023-11-14T20:25:49.891Z,,,,,,,,,,NaN,,,,,,,,low,low,,,,,,false,,,,false,1204090.1999999993,1204090,,1204089.5999999978,,1203910.599,4,500,,
sequence,flow.Sequence,10_41,2023-11-14T20:25:49.891Z,,,,,,,,,,11040.168000000063,completion,,,,,,,low,low,,,,,,false,,,,false,1204090.5999999978,1204090,1193033.21,1193220.6999999993,1193049.832,1203910.599,4,500,,
trial,html.Screen,10_42_0,2023-11-14T20:25:54.330Z,,,,1,-0.0327772618698018,0.0056908372048728,,true,hl,4618.600999999326,response,0.536982059103923,0.4085019910293613,-0.466560628855865,-0.4448186680414449,0.4965178129487146,-0.44511671227761285,high,low,,ISIC_7897925.JPG,9,ISIC_0010510.JPG,327,false,hl,keypress(j),0,false,1208529.3999999985,1208529.1999999993,1203893.944,1204090.8000000007,1203910.599,1208365.219,4,500,43,
break,html.Screen,10_42_1,2023-11-14T20:25:54.330Z,,,,,,,,,,NaN,,,,,,,,high,low,,,,,,false,,,,false,1208529.8999999985,1208529.8000000007,,1208529.5999999978,,1208365.219,4,500,,
break_continue,html.Screen,10_42_2,2023-11-14T20:25:54.331Z,,,,,,,,,,NaN,,,,,,,,high,low,,,,,,false,,,,false,1208530.1999999993,1208530.0999999978,,1208530,,1208365.219,4,500,,
sequence,flow.Sequence,10_42,2023-11-14T20:25:54.331Z,,,,,,,,,,4619.500999997836,completion,,,,,,,high,low,,,,,,false,,,,false,1208530.3999999985,1208530.0999999978,1203893.944,1204090.6999999993,1203910.599,1208365.219,4,500,,
trial,html.Screen,10_43_0,2023-11-14T20:25:57.130Z,,,,1,0.0203374006918297,-0.0594475300019112,,true,hl,2963.780999999959,response,0.2383041332714038,0.4085019910293613,-0.466560628855865,-0.5788901447167261,0.4965178129487146,-0.44511671227761285,high,low,,ISIC_0028579.JPG,9,ISIC_0350472.JPG,327,false,hl,keypress(j),0,false,1211329.1999999993,1211329,1208348.422,1208530.5,1208365.219,1211151.104,4,500,44,
break,html.Screen,10_43_1,2023-11-14T20:25:57.130Z,,,,,,,,,,NaN,,,,,,,,high,low,,,,,,false,,,,false,1211329.5999999978,1211329.3999999985,,1211329.3000000007,,1211151.104,4,500,,
break_continue,html.Screen,10_43_2,2023-11-14T20:25:57.130Z,,,,,,,,,,NaN,,,,,,,,high,low,,,,,,false,,,,false,1211329.8000000007,1211329.8000000007,,1211329.6999999993,,1211151.104,4,500,,
sequence,flow.Sequence,10_43,2023-11-14T20:25:57.130Z,,,,,,,,,,2964.581000000704,completion,,,,,,,high,low,,,,,,false,,,,false,1211329.8999999985,1211329.8000000007,1208348.422,1208530.3999999985,1208365.219,1211151.104,4,500,,
trial,html.Screen,10_44_0,2023-11-14T20:26:01.067Z,,,,1,-0.0365981355399771,-0.0162670920008846,,true,hh,4114.89599999995,response,0.4831545700042378,0.4085019910293613,-0.466560628855865,0.4903235618444233,0.4965178129487146,-0.44511671227761285,high,high,,ISIC_0982855.JPG,10,ISIC_6132976.JPG,372,false,hh,keypress(i),0,false,1215266.3000000007,1215266,1211134.473,1211330,1211151.104,1215088.396,4,500,45,
break,html.Screen,10_44_1,2023-11-14T20:26:01.068Z,,,,,,,,,,NaN,,,,,,,,high,high,,,,,,false,,,,false,1215267.5,1215267.0999999978,,1215266.6999999993,,1215088.396,4,500,,
break_continue,html.Screen,10_44_2,2023-11-14T20:26:01.069Z,,,,,,,,,,NaN,,,,,,,,high,high,,,,,,false,,,,false,1215268.1999999993,1215267.8999999985,,1215267.6999999993,,1215088.396,4,500,,
sequence,flow.Sequence,10_44,2023-11-14T20:26:01.069Z,,,,,,,,,,4116.79599999846,completion,,,,,,,high,high,,,,,,false,,,,false,1215268.5,1215267.8999999985,1211134.473,1211330,1211151.104,1215088.396,4,500,,
trial,html.Screen,10_45_0,2023-11-14T20:26:05.947Z,,,,1,-0.0001106800768269,0.0404747734408496,,false,ll,5057.904000000795,response,-0.2934510758935802,0.4085019910293613,-0.466560628855865,-0.4884349316633332,0.4965178129487146,-0.44511671227761285,low,low,,ISIC_5706192.JPG,9,ISIC_6553579.JPG,476,false,hh,keypress(i),0,false,1220146.6999999993,1220146.3000000007,1215071.924,1215268.8000000007,1215088.396,1219976.745,4,500,46,
break,html.Screen,10_45_1,2023-11-14T20:26:05.948Z,,,,,,,,,,NaN,,,,,,,,low,low,,,,,,false,,,,false,1220147.8000000007,1220147.5,,1220147,,1219976.745,4,500,,
break_continue,html.Screen,10_45_2,2023-11-14T20:26:05.949Z,,,,,,,,,,NaN,,,,,,,,low,low,,,,,,false,,,,false,1220148.5,1220148.3000000007,,1220148,,1219976.745,4,500,,
sequence,flow.Sequence,10_45,2023-11-14T20:26:05.949Z,,,,,,,,,,5059.904000000795,completion,,,,,,,low,low,,,,,,false,,,,false,1220148.8999999985,1220148.3000000007,1215071.924,1215268.8000000007,1215088.396,1219976.745,4,500,,
trial,html.Screen,10_46_0,2023-11-14T20:26:09.741Z,,,,1,0.0040788697657958,0.0696367106527537,,true,ll,3961.454999999143,response,-0.520631854857465,0.4085019910293613,-0.466560628855865,-0.4515317230231082,0.4965178129487146,-0.44511671227761285,low,low,,ISIC_0066882.JPG,9,ISIC_0356904.JPG,476,false,ll,keypress(f),0,false,1223938.5999999978,1223938.1999999993,1219960.088,1220149.0999999978,1219976.745,1223763.692,4,500,47,
break,html.Screen,10_46_1,2023-11-14T20:26:09.742Z,,,,,,,,,,NaN,,,,,,,,low,low,,,,,,false,,,,false,1223939.5999999978,1223939.3999999985,,1223938.8999999985,,1223763.692,4,500,,
break_continue,html.Screen,10_46_2,2023-11-14T20:26:09.743Z,,,,,,,,,,NaN,,,,,,,,low,low,,,,,,false,,,,false,1223940.5,1223940.1999999993,,1223940,,1223763.692,4,500,,
sequence,flow.Sequence,10_46,2023-11-14T20:26:09.743Z,,,,,,,,,,3963.454999999143,completion,,,,,,,low,low,,,,,,false,,,,false,1223940.8000000007,1223940.1999999993,1219960.088,1220149,1219976.745,1223763.692,4,500,,
trial,html.Screen,10_47_0,2023-11-14T20:26:13.869Z,,,,1,0.0050679133050021,0.0174815595031679,,false,ll,4303.007999999216,response,-0.3766622569489001,0.4085019910293613,-0.466560628855865,-0.3794116991728611,0.4965178129487146,-0.44511671227761285,low,low,,ISIC_9848743.JPG,8,ISIC_7287540.JPG,476,false,hl,keypress(j),0,false,1228067,1228066.6999999993,1223747.201,1223941,1223763.692,1227901.336,4,500,48,
break,html.Screen,10_47_1,2023-11-14T20:26:13.871Z,,,,,,,,,,NaN,,,,,,,,low,low,,,,,,false,,,,false,1228068.0999999978,1228067.8000000007,,1228067.3999999985,,1227901.336,4,500,,
break_continue,html.Screen,10_47_2,2023-11-14T20:26:13.871Z,,,,,,,,,,NaN,,,,,,,,low,low,,,,,,false,,,,false,1228068.8999999985,1228068.6999999993,,1228068.3000000007,,1227901.336,4,500,,
sequence,flow.Sequence,10_47,2023-11-14T20:26:13.872Z,,,,,,,,,,4305.007999999216,completion,,,,,,,low,low,,,,,,false,,,,false,1228069.1999999993,1228068.6999999993,1223747.201,1223940.8999999985,1223763.692,1227901.336,4,500,,
trial,html.Screen,10_48_0,2023-11-14T20:26:17.261Z,,,,1,-0.0372699196710335,0.0646614895271859,,false,hh,3557.063999998616,response,0.3371939558661002,0.4085019910293613,-0.466560628855865,0.5430471340141039,0.4965178129487146,-0.44511671227761285,high,high,,ISIC_1175170.JPG,8,ISIC_0073043.JPG,372,false,lh,keypress(e),0,false,1231458.6999999993,1231458.3999999985,1227884.604,1228069.3999999985,1227901.336,1231287.928,4,500,49,
break,html.Screen,10_48_1,2023-11-14T20:26:17.262Z,,,,,,,,,,NaN,,,,,,,,high,high,,,,,,false,,,,false,1231459.8000000007,1231459.5999999978,,1231459.0999999978,,1231287.928,4,500,,
break_continue,html.Screen,10_48_2,2023-11-14T20:26:17.263Z,,,,,,,,,,NaN,,,,,,,,high,high,,,,,,false,,,,false,1231460.5,1231460.3000000007,,1231460,,1231287.928,4,500,,
sequence,flow.Sequence,10_48,2023-11-14T20:26:17.263Z,,,,,,,,,,3558.9640000008512,completion,,,,,,,high,high,,,,,,false,,,,false,1231460.8000000007,1231460.3000000007,1227884.604,1228069.3999999985,1227901.336,1231287.928,4,500,,
