sender,sender_type,sender_id,timestamp,meta,,age,blockNo,c1,c2,condition,correct,correctResponse,duration,ended_on,f1,f1_high,f1_low,f2,f2_high,f2_low,feature_level1,feature_level2,gender,img_left,img_reveal,img_right,n_target_images,practice,response,response_action,selection_duration,staircase,time_commit,time_end,time_render,time_run,time_show,time_switch,total_blocks,total_trials,trialNo,url
informed_consent,html.Screen,0,2023-11-14T20:47:51.376Z,"{""labjs_version"":""20.2.4"",""labjs_build"":{""flavor"":""development"",""commit"":""f5b4a49f956347addd546a832a3327688c2c0fef""},""location"":""https://labjs.felixhenninger.com/api/labjs_preview/index.html"",""userAgent"":""Mozilla/5.0 (Windows NT 10.0; Win64; x64) AppleWebKit/537.36 (KHTML, like Gecko) Chrome/119.0.0.0 Safari/537.36"",""platform"":""Win32"",""language"":""en-US"",""locale"":""en-US"",""timeZone"":""America/Chicago"",""timezoneOffset"":360,""screen_width"":1920,""screen_height"":1080,""scroll_width"":945,""scroll_height"":918,""window_innerWidth"":945,""window_innerHeight"":966,""devicePixelRatio"":1}",,,,,,,,,19611.66899997616,response,,,,,,,,,,,,,,,consent,click button,,,21001.299999952316,21000.399999976158,1372.079,1714.8999999761581,1388.731,20655.383,,,,{}
Demography form,html.Form,1,2023-11-14T20:47:57.594Z,,,18,,,,,,,6564.317000047682,form submission,,,,,,,,,female,,,,,,,,,,27220,27219.700000047684,20638.754,21001.600000023842,20655.383,26872.094,,,,
Welcome,html.Screen,2,2023-11-14T20:47:59.768Z,,,,,,,"[""bor"",""col""]",,,2520.506000023841,response,,,,,,,,,,,,,,,continue,click button,,,29393.100000023842,29392.600000023842,26855.417,27220,26872.094,29055.435,,,,
demo_instructions,html.Screen,3,2023-11-14T20:49:30.208Z,,,,,,,,,,90777.065,response,,,,,,,,,,,,,,,continue,click button,,,119833.29999995232,119832.5,29038.747,29393.299999952316,29055.435,119505.544,,,,
trial,html.Screen,4_0_0,2023-11-14T20:49:51.430Z,,,,0,0.7079689798840642,-0.9053957126199562,,true,lh,21550.855999976164,response,-1.058275612142778,0.8999999999999997,-0.8999999999999997,0.7824898568540655,0.8999999999999997,-0.8999999999999997,low,high,,ISIC_0058863.JPG,,ISIC_4906385.JPG,29,true,lh,keypress(e),100,false,141056.5,141056.39999997616,119472.2,119833.39999997616,119505.544,140722.536,1,16,1,
sequence,flow.Sequence,4_0,2023-11-14T20:49:51.430Z,,,,,,,,,,21550.855999976164,completion,,,,,,,low,high,,,,,,true,,,,false,141056.89999997616,141056.39999997616,119472.2,119833.39999997616,119505.544,140722.536,1,16,,
trial,html.Screen,4_1_0,2023-11-14T20:50:05.723Z,,,,0,0.8500530224490773,-1.0893360711742854,,true,lh,14627.363999976165,response,-0.930804711032185,0.8999999999999997,-0.8999999999999997,0.7294067991476295,0.8999999999999997,-0.8999999999999997,low,high,,ISIC_2998367.JPG,,ISIC_5067317.JPG,29,true,lh,keypress(e),100,false,155350,155349.89999997616,140705.6,141057.10000002384,140722.536,155022.273,1,16,2,
sequence,flow.Sequence,4_1,2023-11-14T20:50:05.724Z,,,,,,,,,,14627.363999976165,completion,,,,,,,low,high,,,,,,true,,,,false,155350.29999995232,155349.89999997616,140705.6,141057,140722.536,155022.273,1,16,,
trial,html.Screen,4_2_0,2023-11-14T20:50:10.112Z,,,,0,0.8350129142228142,-0.8172547818270586,,true,lh,4716.52699995233,response,-0.8830264383952469,0.8999999999999997,-0.8999999999999997,0.8635562538060516,0.8999999999999997,-0.8999999999999997,low,high,,ISIC_0301568.JPG,,ISIC_0032258.JPG,29,true,lh,keypress(e),100,false,159739,159738.79999995232,155005.882,155350.39999997616,155022.273,159405.633,1,16,3,
sequence,flow.Sequence,4_2,2023-11-14T20:50:10.113Z,,,,,,,,,,4716.52699995233,completion,,,,,,,low,high,,,,,,true,,,,false,159739.20000004768,159738.79999995232,155005.882,155350.39999997616,155022.273,159405.633,1,16,,
trial,html.Screen,4_3_0,2023-11-14T20:50:12.790Z,,,,0,0.9138670886161264,-0.8414121478342018,,true,lh,3010.067000047682,response,-0.989300717252516,0.8999999999999997,-0.8999999999999997,0.7908280206937478,0.8999999999999997,-0.8999999999999997,low,high,,ISIC_6709052.JPG,,ISIC_6416533.JPG,29,true,lh,keypress(e),100,false,162416.20000004768,162415.70000004768,159388.93,159739.29999995232,159405.633,162088.991,1,16,4,
sequence,flow.Sequence,4_3,2023-11-14T20:50:12.790Z,,,,,,,,,,3010.067000047682,completion,,,,,,,low,high,,,,,,true,,,,false,162416.79999995232,162415.70000004768,159388.93,159739.29999995232,159405.633,162088.991,1,16,,
trial,html.Screen,4_4_0,2023-11-14T20:50:32.672Z,,,,0,0.8112967657138724,1.048362273165083,,true,ll,20208.40899997615,response,-1.085906502329253,0.8999999999999997,-0.8999999999999997,-0.8769314895018409,0.8999999999999997,-0.8999999999999997,low,low,,ISIC_4120174.JPG,,ISIC_2693412.JPG,169,true,ll,keypress(f),100,false,182297.60000002384,182297.39999997616,162072.303,162417.10000002384,162088.991,181972.302,1,16,5,
sequence,flow.Sequence,4_4,2023-11-14T20:50:32.672Z,,,,,,,,,,20208.40899997615,completion,,,,,,,low,low,,,,,,true,,,,false,182297.79999995232,182297.39999997616,162072.303,162417,162088.991,181972.302,1,16,,
trial,html.Screen,4_5_0,2023-11-14T20:50:44.804Z,,,,0,1.0000402707486682,0.7041144799770903,,true,ll,12457.49799995232,response,-1.0659165756604234,0.8999999999999997,-0.8999999999999997,-1.0867497316848906,0.8999999999999997,-0.8999999999999997,low,low,,ISIC_0068798.JPG,,ISIC_5807608.JPG,169,true,ll,keypress(f),100,false,194430,194429.79999995232,181955.617,182297.89999997616,181972.302,194105.642,1,16,6,
sequence,flow.Sequence,4_5,2023-11-14T20:50:44.804Z,,,,,,,,,,12457.49799995232,completion,,,,,,,low,low,,,,,,true,,,,false,194430.10000002384,194429.79999995232,181955.617,182297.89999997616,181972.302,194105.642,1,16,,
trial,html.Screen,4_6_0,2023-11-14T20:50:54.985Z,,,,0,1.063389737009574,0.8248153645014629,,true,ll,10505.45800002385,response,-0.7667753928027862,0.8999999999999997,-0.8999999999999997,-0.7242189504165079,0.8999999999999997,-0.8999999999999997,low,low,,ISIC_0027104.JPG,,ISIC_4298624.JPG,169,true,ll,keypress(f),100,false,204611.29999995232,204611.10000002384,194088.959,194430.20000004768,194105.642,204288.996,1,16,7,
sequence,flow.Sequence,4_6,2023-11-14T20:50:54.986Z,,,,,,,,,,10505.45800002385,completion,,,,,,,low,low,,,,,,true,,,,false,204611.60000002384,204611.10000002384,194088.959,194430.20000004768,194105.642,204288.996,1,16,,
trial,html.Screen,4_7_0,2023-11-14T20:50:58.863Z,,,,0,0.9771792647356164,0.7097262670109846,,true,ll,4199.403999976144,response,-0.824124127424315,0.8999999999999997,-0.8999999999999997,-0.8170596140441219,0.8999999999999997,-0.8999999999999997,low,low,,ISIC_0058040.JPG,,ISIC_5909451.JPG,169,true,ll,keypress(f),100,false,208488.5,208488.39999997616,204272.331,204611.70000004768,204288.996,208155.667,1,16,8,
sequence,flow.Sequence,4_7,2023-11-14T20:50:58.863Z,,,,,,,,,,4199.403999976144,completion,,,,,,,low,low,,,,,,true,,,,false,208488.70000004768,208488.39999997616,204272.331,204611.70000004768,204288.996,208155.667,1,16,,
trial,html.Screen,4_8_0,2023-11-14T20:51:11.379Z,,,,0,-0.8954803463300026,0.7071819047913821,,true,hl,12849.033000047697,response,0.8350129142228142,0.8999999999999997,-0.8999999999999997,-0.8172547818270586,0.8999999999999997,-0.8999999999999997,high,low,,ISIC_0033071.JPG,,ISIC_0301568.JPG,43,true,hl,keypress(j),100,false,221004.70000004768,221004.70000004768,208139.007,208488.79999995232,208155.667,220672.346,1,16,9,
sequence,flow.Sequence,4_8,2023-11-14T20:51:11.379Z,,,,,,,,,,12849.033000047697,completion,,,,,,,high,low,,,,,,true,,,,false,221005,221004.70000004768,208139.007,208488.79999995232,208155.667,220672.346,1,16,,
trial,html.Screen,4_9_0,2023-11-14T20:51:17.095Z,,,,0,-0.8513427412482127,0.9295303568095064,,true,hl,6048.254000023851,response,1.0116417541846066,0.8999999999999997,-0.8999999999999997,-1.033442916947398,0.8999999999999997,-0.8999999999999997,high,low,,ISIC_0034164.JPG,,ISIC_0031389.JPG,43,true,hl,keypress(j),100,false,226720.60000002384,226720.60000002384,220655.704,221005,220672.346,226389.021,1,16,10,
sequence,flow.Sequence,4_9,2023-11-14T20:51:17.095Z,,,,,,,,,,6048.254000023851,completion,,,,,,,high,low,,,,,,true,,,,false,226720.79999995232,226720.60000002384,220655.704,221005,220672.346,226389.021,1,16,,
trial,html.Screen,4_10_0,2023-11-14T20:51:26.314Z,,,,0,-0.8719231363109603,0.7704280220140033,,true,hl,9550.87899997615,response,0.9544693251394116,0.8999999999999997,-0.8999999999999997,-1.0727539917203766,0.8999999999999997,-0.8999999999999997,high,low,,ISIC_0029453.JPG,,ISIC_0055147.JPG,43,true,hl,keypress(j),100,false,235940.20000004768,235939.89999997616,226372.351,226720.79999995232,226389.021,235605.704,1,16,11,
sequence,flow.Sequence,4_10,2023-11-14T20:51:26.315Z,,,,,,,,,,9550.87899997615,completion,,,,,,,high,low,,,,,,true,,,,false,235940.89999997616,235939.89999997616,226372.351,226720.79999995232,226389.021,235605.704,1,16,,
trial,html.Screen,4_11_0,2023-11-14T20:51:36.663Z,,,,0,-0.7411887874358276,0.7869222465141029,,true,hl,10683.095999952318,response,0.9244148283103414,0.8999999999999997,-0.8999999999999997,-0.9712966348713286,0.8999999999999997,-0.8999999999999997,high,low,,ISIC_6255113.JPG,,ISIC_7927525.JPG,43,true,hl,keypress(j),100,false,246289,246288.79999995232,235589.028,235941.20000004768,235605.704,245956.005,1,16,12,
sequence,flow.Sequence,4_11,2023-11-14T20:51:36.663Z,,,,,,,,,,10683.095999952318,completion,,,,,,,high,low,,,,,,true,,,,false,246289.5,246288.79999995232,235589.028,235941.10000002384,235605.704,245956.005,1,16,,
trial,html.Screen,4_12_0,2023-11-14T20:51:49.294Z,,,,0,-0.7276136672767647,-0.9132548085712324,,true,hh,12964.595000023837,response,1.0000402707486682,0.8999999999999997,-0.8999999999999997,0.7041144799770903,0.8999999999999997,-0.8999999999999997,high,high,,ISIC_0007740.JPG,,ISIC_0068798.JPG,184,true,hh,keypress(i),100,false,258920.79999995232,258920.60000002384,245939.061,246289.60000002384,245956.005,258589.125,1,16,13,
sequence,flow.Sequence,4_12,2023-11-14T20:51:49.295Z,,,,,,,,,,12964.595000023837,completion,,,,,,,high,high,,,,,,true,,,,false,258921.10000002384,258920.60000002384,245939.061,246289.60000002384,245956.005,258589.125,1,16,,
trial,html.Screen,4_13_0,2023-11-14T20:51:52.452Z,,,,0,-0.8115434332647807,-0.7797153835685641,,true,hh,3488.975000023842,response,1.0980226451001782,0.8999999999999997,-0.8999999999999997,0.9421419207281913,0.8999999999999997,-0.8999999999999997,high,high,,ISIC_7300631.JPG,,ISIC_0060481.JPG,184,true,hh,keypress(i),100,false,262078.39999997616,262078.10000002384,258572.395,258921.10000002384,258589.125,261755.744,1,16,14,
sequence,flow.Sequence,4_13,2023-11-14T20:51:52.452Z,,,,,,,,,,3488.975000023842,completion,,,,,,,high,high,,,,,,true,,,,false,262078.89999997616,262078.10000002384,258572.395,258921.10000002384,258589.125,261755.744,1,16,,
trial,html.Screen,4_14_0,2023-11-14T20:51:57.371Z,,,,0,-1.0008081653938232,-0.7832040253954599,,true,hh,5241.55599995231,response,0.8069112035903693,0.8999999999999997,-0.8999999999999997,0.7730616186864473,0.8999999999999997,-0.8999999999999997,high,high,,ISIC_8796632.JPG,,ISIC_7074321.JPG,184,true,hh,keypress(i),100,false,266997.39999997616,266997.2999999523,261739.109,262079,261755.744,266672.469,1,16,15,
sequence,flow.Sequence,4_14,2023-11-14T20:51:57.371Z,,,,,,,,,,5241.55599995231,completion,,,,,,,high,high,,,,,,true,,,,false,266997.5,266997.2999999523,261739.109,262079,261755.744,266672.469,1,16,,
trial,html.Screen,4_15_0,2023-11-14T20:52:03.920Z,,,,0,-0.8351560316519383,-0.7085394211669206,,true,hh,6873.131000023859,response,0.8642861042532918,0.8999999999999997,-0.8999999999999997,0.7071725768452852,0.8999999999999997,-0.8999999999999997,high,high,,ISIC_5795486.JPG,,ISIC_0011315.JPG,184,true,hh,keypress(i),100,false,273546.10000002384,273545.60000002384,266655.711,266997.60000002384,266672.469,273222.371,1,16,16,
sequence,flow.Sequence,4_15,2023-11-14T20:52:03.920Z,,,,,,,,,,6873.131000023859,completion,,,,,,,high,high,,,,,,true,,,,false,273546.7000000477,273545.60000002384,266655.711,266997.60000002384,266672.469,273222.371,1,16,,
demonstration_loop,flow.Loop,4,2023-11-14T20:52:03.921Z,,,,,,,,,,154040.05600002385,completion,,,,,,,,,,,,,,true,,,,false,273547,273545.60000002384,119472.2,119833.39999997616,119505.544,273222.371,1,16,,
practice_instructions,html.Screen,5,2023-11-14T20:53:04.289Z,,,,,,,,,,60682.129000000015,response,,,,,,,,,,,,,,,continue,click button,,,333916.2000000477,333904.5,273205.752,273547.2999999523,273222.371,333572.456,,,,
trial,html.Screen,6_0_0,2023-11-14T20:53:08.224Z,,,,1,0.9836672814341636,1.0629122718286683,,true,ll,4278.144000023836,response,-0.8326661044614712,0.8999999999999997,-0.8999999999999997,-1.0208030773499672,0.8999999999999997,-0.8999999999999997,low,low,,ISIC_0062161.JPG,,ISIC_4477599.JPG,169,true,ll,keypress(f),0,false,337850.89999997616,337850.60000002384,333539.143,333916.5,333572.456,337522.782,1,20,1,
sequence,flow.Sequence,6_0,2023-11-14T20:53:08.224Z,,,,,,,,,,4278.144000023836,completion,,,,,,,low,low,,,,,,true,,,,false,337851.2000000477,337850.60000002384,333539.143,333916.39999997616,333572.456,337522.782,1,20,,
trial,html.Screen,6_1_0,2023-11-14T20:53:13.103Z,,,,1,0.8724853443422199,0.9014790323337478,,true,ll,5206.7179999999935,response,-0.9249180304825352,0.8999999999999997,-0.8999999999999997,-0.9557254346276748,0.8999999999999997,-0.8999999999999997,low,low,,ISIC_6278273.JPG,,ISIC_6778515.JPG,169,true,ll,keypress(f),0,false,342729.7000000477,342729.5,337505.77,337851.39999997616,337522.782,342389.11,1,20,2,
sequence,flow.Sequence,6_1,2023-11-14T20:53:13.103Z,,,,,,,,,,5206.7179999999935,completion,,,,,,,low,low,,,,,,true,,,,false,342730,342729.5,337505.77,337851.39999997616,337522.782,342389.11,1,20,,
trial,html.Screen,6_2_0,2023-11-14T20:53:18.223Z,,,,1,0.9782611937027104,0.7397456600694207,,true,ll,5460.590000047698,response,-0.7420119067987634,0.8999999999999997,-0.8999999999999997,-0.9245836900688724,0.8999999999999997,-0.8999999999999997,low,low,,ISIC_0010131.JPG,,ISIC_4130167.JPG,169,true,ll,keypress(f),0,false,347849.89999997616,347849.7000000477,342372.339,342730.2000000477,342389.11,347505.801,1,20,3,
sequence,flow.Sequence,6_2,2023-11-14T20:53:18.223Z,,,,,,,,,,5460.590000047698,completion,,,,,,,low,low,,,,,,true,,,,false,347850,347849.7000000477,342372.339,342730.2000000477,342389.11,347505.801,1,20,,
trial,html.Screen,6_3_0,2023-11-14T20:53:21.566Z,,,,1,-0.7260937191514694,-1.0330921542391769,,false,hh,3687.1990000000224,response,0.9159664042920548,0.8999999999999997,-0.8999999999999997,0.96519839238634,0.8999999999999997,-0.8999999999999997,high,high,,ISIC_4043580.JPG,,ISIC_0053617.JPG,184,true,ll,keypress(f),0,false,351193.10000002384,351193,347489.059,347850.2000000477,347505.801,350855.793,1,20,4,
sequence,flow.Sequence,6_3,2023-11-14T20:53:21.566Z,,,,,,,,,,3687.1990000000224,completion,,,,,,,high,high,,,,,,true,,,,false,351193.2000000477,351193,347489.059,347850.10000002384,347505.801,350855.793,1,20,,
trial,html.Screen,6_4_0,2023-11-14T20:53:24.687Z,,,,1,-0.8493861117004308,-0.8834146203433249,,true,hh,3457.706999999995,response,0.7390449930107234,0.8999999999999997,-0.8999999999999997,0.708917192410697,0.8999999999999997,-0.8999999999999997,high,high,,ISIC_7450481.JPG,,ISIC_0033168.JPG,184,true,hh,keypress(i),0,false,354313.7000000477,354313.5,350839.067,351193.2999999523,350855.793,353972.451,1,20,5,
sequence,flow.Sequence,6_4,2023-11-14T20:53:24.687Z,,,,,,,,,,3457.706999999995,completion,,,,,,,high,high,,,,,,true,,,,false,354313.89999997616,354313.5,350839.067,351193.2999999523,350855.793,353972.451,1,20,,
trial,html.Screen,6_5_0,2023-11-14T20:53:26.574Z,,,,1,1.0292526683018866,0.9026684221154396,,true,ll,2228.649000023841,response,-0.785584495352475,0.8999999999999997,-0.8999999999999997,-1.042144559030568,0.8999999999999997,-0.8999999999999997,low,low,,ISIC_0059314.JPG,,ISIC_0004099.JPG,169,true,ll,keypress(f),0,false,356201.2999999523,356201.10000002384,353955.742,354313.89999997616,353972.451,355855.828,1,20,6,
sequence,flow.Sequence,6_5,2023-11-14T20:53:26.574Z,,,,,,,,,,2228.649000023841,completion,,,,,,,low,low,,,,,,true,,,,false,356201.2999999523,356201.10000002384,353955.742,354313.89999997616,353972.451,355855.828,1,20,,
trial,html.Screen,6_6_0,2023-11-14T20:53:29.134Z,,,,1,0.7629099401226335,-0.8515956627075536,,true,lh,2905.471999952337,response,-1.0329549150636406,0.8999999999999997,-0.8999999999999997,1.01584100839286,0.8999999999999997,-0.8999999999999997,low,high,,ISIC_0028718.JPG,,ISIC_0054670.JPG,29,true,lh,keypress(e),0,false,358761.5,358761.2999999523,355839.1,356201.39999997616,355855.828,358422.548,1,20,7,
sequence,flow.Sequence,6_6,2023-11-14T20:53:29.134Z,,,,,,,,,,2905.471999952337,completion,,,,,,,low,high,,,,,,true,,,,false,358761.60000002384,358761.2999999523,355839.1,356201.39999997616,355855.828,358422.548,1,20,,
trial,html.Screen,6_7_0,2023-11-14T20:53:39.858Z,,,,1,0.8987343013179191,-0.8149073454566363,,,,10716.553000000014,timeout,-0.989300717252516,0.8999999999999997,-0.8999999999999997,0.7908280206937478,0.8999999999999997,-0.8999999999999997,low,high,,ISIC_0472513.JPG,,ISIC_6416533.JPG,29,true,,,0,false,369485.2999999523,369485.10000002384,358405.759,358761.7000000477,358422.548,369139.101,1,20,8,
sequence,flow.Sequence,6_7,2023-11-14T20:53:39.858Z,,,,,,,,,,11062.552000023832,completion,,,,,,,low,high,,,,,,true,,,,false,369485.39999997616,369485.10000002384,358405.759,358761.7000000477,358422.548,369139.101,1,20,,
trial,html.Screen,6_8_0,2023-11-14T20:53:46.798Z,,,,1,-0.7883321712536753,1.0011430756825364,,true,hl,7285.898999999976,response,0.8350129142228142,0.8999999999999997,-0.8999999999999997,-0.8172547818270586,0.8999999999999997,-0.8999999999999997,high,low,,ISIC_9828853.JPG,,ISIC_0301568.JPG,43,true,hl,keypress(j),0,false,376425.10000002384,376425,369122.798,369485.5,369139.101,376089.257,1,20,9,
sequence,flow.Sequence,6_8,2023-11-14T20:53:46.798Z,,,,,,,,,,7285.898999999976,completion,,,,,,,high,low,,,,,,true,,,,false,376425.2999999523,376425,369122.798,369485.39999997616,369139.101,376089.257,1,20,,
trial,html.Screen,6_9_0,2023-11-14T20:53:50.158Z,,,,1,-0.9242629064104082,-1.0085499824556403,,true,hh,3695.8430000238586,response,0.7983870329622347,0.8999999999999997,-0.8999999999999997,1.044985095430835,0.8999999999999997,-0.8999999999999997,high,high,,ISIC_7795549.JPG,,ISIC_0032372.JPG,184,true,hh,keypress(i),0,false,379785.2000000477,379785.10000002384,376072.571,376425.2999999523,376089.257,379439.207,1,20,10,
sequence,flow.Sequence,6_9,2023-11-14T20:53:50.158Z,,,,,,,,,,3695.8430000238586,completion,,,,,,,high,high,,,,,,true,,,,false,379785.2999999523,379785.10000002384,376072.571,376425.2999999523,376089.257,379439.207,1,20,,
trial,html.Screen,6_10_0,2023-11-14T20:53:53.647Z,,,,1,-0.930804711032185,0.7294067991476295,,true,hl,3834.393000023847,response,0.9662688541319592,0.8999999999999997,-0.8999999999999997,-0.929746784178986,0.8999999999999997,-0.8999999999999997,high,low,,ISIC_5067317.JPG,,ISIC_0011077.JPG,43,true,hl,keypress(j),0,false,383273.7999999523,383273.60000002384,379422.385,379785.2999999523,379439.207,382939.25,1,20,11,
sequence,flow.Sequence,6_10,2023-11-14T20:53:53.647Z,,,,,,,,,,3834.393000023847,completion,,,,,,,high,low,,,,,,true,,,,false,383274.10000002384,383273.60000002384,379422.385,379785.2999999523,379439.207,382939.25,1,20,,
trial,html.Screen,6_11_0,2023-11-14T20:53:57.838Z,,,,1,-0.7246771568562105,0.9161385080362604,,false,hl,4525.850000023842,response,0.9633172970727744,0.8999999999999997,-0.8999999999999997,-0.8472659344792351,0.8999999999999997,-0.8999999999999997,high,low,,ISIC_0028225.JPG,,ISIC_0067172.JPG,43,true,hh,keypress(i),0,false,387465.2000000477,387465.10000002384,382922.421,383274.2000000477,382939.25,387122.54,1,20,12,
sequence,flow.Sequence,6_11,2023-11-14T20:53:57.838Z,,,,,,,,,,4525.850000023842,completion,,,,,,,high,low,,,,,,true,,,,false,387465.2999999523,387465.10000002384,382922.421,383274.10000002384,382939.25,387122.54,1,20,,
trial,html.Screen,6_12_0,2023-11-14T20:54:02.110Z,,,,1,0.8271218144663375,0.8321547684171402,,false,ll,4614.960000000021,response,-0.8614312505426347,0.8999999999999997,-0.8999999999999997,-1.0055649935805588,0.8999999999999997,-0.8999999999999997,low,low,,ISIC_0046224.JPG,,ISIC_6946260.JPG,169,true,lh,keypress(e),0,false,391737.5,391737.5,387106.018,387465.39999997616,387122.54,391389.17,1,20,13,
sequence,flow.Sequence,6_12,2023-11-14T20:54:02.111Z,,,,,,,,,,4614.960000000021,completion,,,,,,,low,low,,,,,,true,,,,false,391737.60000002384,391737.5,387106.018,387465.39999997616,387122.54,391389.17,1,20,,
trial,html.Screen,6_13_0,2023-11-14T20:54:06.575Z,,,,1,-1.0389084131983195,-0.7349392452912339,,false,hh,4812.129999952333,response,1.0665699221890637,0.8999999999999997,-0.8999999999999997,1.0106762707163983,0.8999999999999997,-0.8999999999999997,high,high,,ISIC_4460849.JPG,,ISIC_1630301.JPG,184,true,hl,keypress(j),0,false,396201.5,396201.2999999523,391372.393,391737.7999999523,391389.17,395855.81,1,20,14,
sequence,flow.Sequence,6_13,2023-11-14T20:54:06.575Z,,,,,,,,,,4812.129999952333,completion,,,,,,,high,high,,,,,,true,,,,false,396201.60000002384,396201.2999999523,391372.393,391737.7000000477,391389.17,395855.81,1,20,,
trial,html.Screen,6_14_0,2023-11-14T20:54:11.072Z,,,,1,0.7872534775441857,-0.8441107693833454,,true,lh,4842.5899999761605,response,-0.989300717252516,0.8999999999999997,-0.8999999999999997,0.7908280206937478,0.8999999999999997,-0.8999999999999997,low,high,,ISIC_0028788.JPG,,ISIC_6416533.JPG,29,true,lh,keypress(e),0,false,400698.60000002384,400698.39999997616,395839.068,396201.7000000477,395855.81,400355.884,1,20,15,
sequence,flow.Sequence,6_14,2023-11-14T20:54:11.072Z,,,,,,,,,,4842.5899999761605,completion,,,,,,,low,high,,,,,,true,,,,false,400699,400698.39999997616,395839.068,396201.7000000477,395855.81,400355.884,1,20,,
trial,html.Screen,6_15_0,2023-11-14T20:54:17.488Z,,,,1,-0.8063086831157171,-0.7804750549895122,,true,hh,6758.11599999998,response,1.0652791679295452,0.8999999999999997,-0.8999999999999997,0.8969509576221346,0.8999999999999997,-0.8999999999999997,high,high,,ISIC_0002899.JPG,,ISIC_0057655.JPG,184,true,hh,keypress(i),0,false,407114.2999999523,407114,400339.398,400699.10000002384,400355.884,406772.63,1,20,16,
sequence,flow.Sequence,6_15,2023-11-14T20:54:17.488Z,,,,,,,,,,6758.11599999998,completion,,,,,,,high,high,,,,,,true,,,,false,407114.60000002384,407114,400339.398,400699.10000002384,400355.884,406772.63,1,20,,
trial,html.Screen,6_16_0,2023-11-14T20:54:20.431Z,,,,1,-0.9237241143561707,0.7102087839245512,,false,hl,3285.1699999523116,response,1.0116417541846066,0.8999999999999997,-0.8999999999999997,-1.033442916947398,0.8999999999999997,-0.8999999999999997,high,low,,ISIC_0058661.JPG,,ISIC_0031389.JPG,43,true,hh,keypress(i),0,false,410057.89999997616,410057.7999999523,406755.646,407114.7000000477,406772.63,409722.867,1,20,17,
sequence,flow.Sequence,6_16,2023-11-14T20:54:20.431Z,,,,,,,,,,3285.1699999523116,completion,,,,,,,high,low,,,,,,true,,,,false,410058.2000000477,410057.7999999523,406755.646,407114.7000000477,406772.63,409722.867,1,20,,
trial,html.Screen,6_17_0,2023-11-14T20:54:28.639Z,,,,1,-0.8828738626295417,0.8288177599439582,,true,hl,8542.432999952289,response,0.9617893983965208,0.8999999999999997,-0.8999999999999997,-0.9453006131304652,0.8999999999999997,-0.8999999999999997,high,low,,ISIC_0056041.JPG,,ISIC_4229473.JPG,43,true,hl,keypress(j),0,false,418265.39999997616,418265.2999999523,409705.875,410058.2000000477,409722.867,417922.517,1,20,18,
sequence,flow.Sequence,6_17,2023-11-14T20:54:28.639Z,,,,,,,,,,8542.432999952289,completion,,,,,,,high,low,,,,,,true,,,,false,418265.5,418265.2999999523,409705.875,410058.2000000477,409722.867,417922.517,1,20,,
trial,html.Screen,6_18_0,2023-11-14T20:54:34.367Z,,,,1,0.7629099401226335,-0.8515956627075536,,true,lh,6070.683000047691,response,-1.075512775389519,0.8999999999999997,-0.8999999999999997,1.0454702683049502,0.8999999999999997,-0.8999999999999997,low,high,,ISIC_0028718.JPG,,ISIC_0033603.JPG,29,true,lh,keypress(e),0,false,423993.2999999523,423993.2000000477,417905.582,418265.60000002384,417922.517,423655.871,1,20,19,
sequence,flow.Sequence,6_18,2023-11-14T20:54:34.367Z,,,,,,,,,,6070.683000047691,completion,,,,,,,low,high,,,,,,true,,,,false,423993.39999997616,423993.2000000477,417905.582,418265.60000002384,417922.517,423655.871,1,20,,
trial,html.Screen,6_19_0,2023-11-14T20:54:42.206Z,,,,1,0.9544693251394116,-1.0727539917203766,,true,lh,8176.928999952332,response,-0.7883321712536753,0.8999999999999997,-0.8999999999999997,1.0011430756825364,0.8999999999999997,-0.8999999999999997,low,high,,ISIC_0055147.JPG,,ISIC_9828853.JPG,29,true,lh,keypress(e),0,false,431832.89999997616,431832.7999999523,423639.255,423993.60000002384,423655.871,431489.243,1,20,20,
sequence,flow.Sequence,6_19,2023-11-14T20:54:42.206Z,,,,,,,,,,8176.928999952332,completion,,,,,,,low,high,,,,,,true,,,,false,431833.10000002384,431832.7999999523,423639.255,423993.5,423655.871,431489.243,1,20,,
practice_loop,flow.Loop,6,2023-11-14T20:54:42.206Z,,,,,,,,,,98260.34399995231,completion,,,,,,,,,,,,,,true,,,,false,431833.10000002384,431832.7999999523,333539.143,333916.39999997616,333572.456,431489.243,1,20,,
stair_instructions,html.Screen,7,2023-11-14T20:55:50.990Z,,,,,,,,,,69127.25699999998,response,,,,,,,,,,,,,,,continue,click button,,,500617.2000000477,500616.5,431472.275,431833.2000000477,431489.243,500272.633,,,,
trial,html.Screen,8_0_0,2023-11-14T20:55:54.430Z,,,,2,0.0374659946425444,0.0086043094957617,,false,ll,3785.067000047711,response,-0.748409616109011,0.8999999999999997,-0.8999999999999997,-0.7872751354576192,0.8999999999999997,-0.8999999999999997,low,low,,ISIC_0033051.JPG,,ISIC_4894929.JPG,169,false,hl,keypress(j),0,true,504057.7000000477,504057.7000000477,500255.952,500617.39999997616,500272.633,503739.271,1,40,1,
sequence,flow.Sequence,8_0,2023-11-14T20:55:54.430Z,,,,,,,,,,3785.067000047711,completion,,,,,,,low,low,,,,,,false,,,,true,504057.89999997616,504057.7000000477,500255.952,500617.39999997616,500272.633,503739.271,1,40,,
trial,html.Screen,8_1_0,2023-11-14T20:56:03.008Z,,,,2,0.0388334549081915,-0.0303399972963369,,true,ll,8896.528999952308,response,-0.7221097620132031,0.8499999999999996,-0.8999999999999997,-0.8272347232135335,0.8499999999999996,-0.8999999999999997,low,low,,ISIC_4961708.JPG,,ISIC_9598638.JPG,169,false,ll,keypress(f),0,true,512635.89999997616,512635.7999999523,503722.586,504057.89999997616,503739.271,512289.285,1,40,2,
sequence,flow.Sequence,8_1,2023-11-14T20:56:03.009Z,,,,,,,,,,8896.528999952308,completion,,,,,,,low,low,,,,,,false,,,,true,512636.10000002384,512635.7999999523,503722.586,504057.89999997616,503739.271,512289.285,1,40,,
trial,html.Screen,8_2_0,2023-11-14T20:56:06.847Z,,,,2,0.0426957918502628,0.044166030546046,,true,hh,4184.715000000026,response,0.8271218144663375,0.7999999999999996,-0.8499999999999996,0.8321547684171402,0.7999999999999996,-0.7072549293355763,high,high,,ISIC_4649440.JPG,,ISIC_0046224.JPG,244,false,hh,keypress(i),0,true,516474.2000000477,516474,512272.396,512636.10000002384,512289.285,516139.353,1,40,3,
sequence,flow.Sequence,8_2,2023-11-14T20:56:06.847Z,,,,,,,,,,4184.715000000026,completion,,,,,,,high,high,,,,,,false,,,,true,516474.60000002384,516474,512272.396,512636.10000002384,512289.285,516139.353,1,40,,
trial,html.Screen,8_3_0,2023-11-14T20:56:13.294Z,,,,2,-0.0249297455748133,0.055986418955019,,false,lh,6781.847000047681,response,-0.8954803463300026,0.7499999999999996,-0.7999999999999996,0.7071819047913821,0.7499999999999996,-0.6572549293355763,low,high,,ISIC_3900049.JPG,,ISIC_0033071.JPG,69,false,ll,keypress(f),0,true,522921.2999999523,522921.2000000477,516122.559,516474.60000002384,516139.353,522572.638,1,40,4,
sequence,flow.Sequence,8_3,2023-11-14T20:56:13.294Z,,,,,,,,,,6781.847000047681,completion,,,,,,,low,high,,,,,,false,,,,true,522921.39999997616,522921.2000000477,516122.559,516474.60000002384,516139.353,522572.638,1,40,,
trial,html.Screen,8_4_0,2023-11-14T20:56:19.454Z,,,,2,0.0395587463147856,-0.0645068093068572,,false,lh,6508.761999976181,response,-0.7338675064115789,0.6999999999999995,-0.7999999999999996,0.6383160469017348,0.7499999999999996,-0.6072549293355762,low,high,,ISIC_0010807.JPG,,ISIC_5546806.JPG,69,false,ll,keypress(f),0,true,529081.3999999762,529081.3999999762,522555.781,522921.5,522572.638,528739.329,1,40,5,
sequence,flow.Sequence,8_4,2023-11-14T20:56:19.454Z,,,,,,,,,,6508.761999976181,completion,,,,,,,low,high,,,,,,false,,,,true,529081.6000000238,529081.3999999762,522555.781,522921.5,522572.638,528739.329,1,40,,
trial,html.Screen,8_5_0,2023-11-14T20:56:25.822Z,,,,2,-0.0572065166118795,0.0247840126545907,,false,hl,6710.371000047657,response,0.6892237114619401,0.6499999999999995,-0.7999999999999996,-0.5707319394093469,0.7499999999999996,-0.5572549293355762,high,low,,ISIC_0024565.JPG,,ISIC_2771979.JPG,156,false,hh,keypress(i),0,true,535449.7999999523,535449.7000000477,528722.476,529081.7000000477,528739.329,535106.015,1,40,6,
sequence,flow.Sequence,8_5,2023-11-14T20:56:25.823Z,,,,,,,,,,6710.371000047657,completion,,,,,,,high,low,,,,,,false,,,,true,535450,535449.7000000477,528722.476,529081.6000000238,528739.329,535106.015,1,40,,
trial,html.Screen,8_6_0,2023-11-14T20:56:31.118Z,,,,2,0.039520186367207,0.0377961575607372,,false,ll,5639.784999952302,response,-0.7998352220373199,0.6499999999999995,-0.7499999999999996,-0.609263874110128,0.6999999999999995,-0.5572549293355762,low,low,,ISIC_6356149.JPG,,ISIC_7850786.JPG,358,false,hl,keypress(j),0,true,540746,540745.7999999523,535089.137,535450.1000000238,535106.015,540405.981,1,40,7,
sequence,flow.Sequence,8_6,2023-11-14T20:56:31.119Z,,,,,,,,,,5639.784999952302,completion,,,,,,,low,low,,,,,,false,,,,true,540746.1000000238,540745.7999999523,535089.137,535450,535106.015,540405.981,1,40,,
trial,html.Screen,8_7_0,2023-11-14T20:56:33.694Z,,,,2,0.0080817964357627,-0.0444435264307931,,true,hl,2915.219000047655,response,0.5423898596168855,0.5999999999999994,-0.7499999999999996,-0.7118914731084739,0.6499999999999995,-0.5572549293355762,high,low,,ISIC_0013165.JPG,,ISIC_0010476.JPG,172,false,hl,keypress(j),0,true,543321.2999999523,543321.2000000477,540389.158,540746.2000000477,540405.981,542972.661,1,40,8,
sequence,flow.Sequence,8_7,2023-11-14T20:56:33.694Z,,,,,,,,,,2915.219000047655,completion,,,,,,,high,low,,,,,,false,,,,true,543321.3999999762,543321.2000000477,540389.158,540746.2000000477,540405.981,542972.661,1,40,,
trial,html.Screen,8_8_0,2023-11-14T20:56:41.087Z,,,,2,0.0528688218207886,-0.0356788458032396,,false,hl,7741.2389999761945,response,0.3920952722281022,0.5158067855394126,-0.6999999999999995,-0.467870452146819,0.5999999999999994,-0.5605776736093009,high,low,,ISIC_5287748.JPG,,ISIC_0008621.JPG,217,false,ll,keypress(f),0,true,550714.1000000238,550713.8999999762,542955.995,543321.5,542972.661,550372.73,1,40,9,
sequence,flow.Sequence,8_8,2023-11-14T20:56:41.087Z,,,,,,,,,,7741.2389999761945,completion,,,,,,,high,low,,,,,,false,,,,true,550714.2000000477,550713.8999999762,542955.995,543321.3999999762,542972.661,550372.73,1,40,,
trial,html.Screen,8_9_0,2023-11-14T20:56:44.190Z,,,,2,0.0374659946425444,0.0086043094957617,,false,lh,3444.7700000000186,response,-0.4618065057551207,0.5158067855394126,-0.6499999999999995,0.4008340925181968,0.5499999999999994,-0.5605776736093009,low,high,,ISIC_0033051.JPG,,ISIC_0032052.JPG,186,false,hl,keypress(j),0,true,553817.6000000238,553817.5,550355.999,550714.2999999523,550372.73,553472.701,1,40,10,
sequence,flow.Sequence,8_9,2023-11-14T20:56:44.190Z,,,,,,,,,,3444.7700000000186,completion,,,,,,,low,high,,,,,,false,,,,true,553817.7999999523,553817.5,550355.999,550714.2999999523,550372.73,553472.701,1,40,,
trial,html.Screen,8_10_0,2023-11-14T20:56:47.694Z,,,,2,0.0164027439304477,-0.0082910758715273,,false,hh,3848.698999976157,response,0.6293103397347344,0.4658067855394126,-0.6499999999999995,0.4104469484226966,0.5499999999999994,-0.5105776736093008,high,high,,ISIC_7381224.JPG,,ISIC_7953039.JPG,407,false,hl,keypress(j),0,true,557321.5,557321.3999999762,553456,553817.8999999762,553472.701,556972.677,1,40,11,
sequence,flow.Sequence,8_10,2023-11-14T20:56:47.694Z,,,,,,,,,,3848.698999976157,completion,,,,,,,high,high,,,,,,false,,,,true,557321.6000000238,557321.3999999762,553456,553817.8999999762,553472.701,556972.677,1,40,,
trial,html.Screen,8_11_0,2023-11-14T20:56:52.142Z,,,,2,-0.0586798548295751,0.0060040805764433,,false,lh,4796.622999952291,response,-0.4424953596273369,0.4658067855394126,-0.5999999999999994,0.578075680807843,0.5499999999999994,-0.46057767360930085,low,high,,ISIC_1552232.JPG,,ISIC_0027627.JPG,199,false,hh,keypress(i),0,true,561769.3999999762,561769.2999999523,556956.24,557321.6000000238,556972.677,561422.722,1,40,12,
sequence,flow.Sequence,8_11,2023-11-14T20:56:52.142Z,,,,,,,,,,4796.622999952291,completion,,,,,,,low,high,,,,,,false,,,,true,561769.6000000238,561769.2999999523,556956.24,557321.6000000238,556972.677,561422.722,1,40,,
trial,html.Screen,8_12_0,2023-11-14T20:56:55.678Z,,,,2,0.0418938536494534,-0.0678614270583654,,true,hh,3882.478000047733,response,0.3477550441876659,0.4658067855394126,-0.5999999999999994,0.7313504841365321,0.5499999999999994,-0.46057767360930085,high,high,,ISIC_0027573.JPG,,ISIC_0028082.JPG,407,false,hh,keypress(i),0,true,565305.2999999523,565305.2000000477,561405.867,561769.7000000477,561422.722,564973.947,1,40,13,
sequence,flow.Sequence,8_12,2023-11-14T20:56:55.678Z,,,,,,,,,,3882.478000047733,completion,,,,,,,high,high,,,,,,false,,,,true,565305.3999999762,565305.2000000477,561405.867,561769.7000000477,561422.722,564973.947,1,40,,
trial,html.Screen,8_13_0,2023-11-14T20:57:02.767Z,,,,2,0.0145962222125655,0.0525495878509009,,false,ll,7419.552999999956,response,-0.6061265768304474,0.41580678553941264,-0.5499999999999994,-0.2648742948976914,0.5547130824721875,-0.46057767360930085,low,low,,ISIC_4248013.JPG,,ISIC_6681802.JPG,448,false,hh,keypress(i),0,true,572393.7000000477,572393.5,564939.628,565305.5,564973.947,572056.06,1,40,14,
sequence,flow.Sequence,8_13,2023-11-14T20:57:02.767Z,,,,,,,,,,7419.552999999956,completion,,,,,,,low,low,,,,,,false,,,,true,572393.7999999523,572393.5,564939.628,565305.3999999762,564973.947,572056.06,1,40,,
trial,html.Screen,8_14_0,2023-11-14T20:57:05.598Z,,,,2,-0.0085390023861227,-0.051110950799465,,true,hh,3169.2399999522604,response,0.3329860829104027,0.41580678553941264,-0.5499999999999994,0.385442017792464,0.5047130824721875,-0.46057767360930085,high,high,,ISIC_6268546.JPG,,ISIC_7124160.JPG,411,false,hh,keypress(i),0,true,575225.3999999762,575225.2999999523,572039.113,572393.8999999762,572056.06,574889.657,1,40,15,
sequence,flow.Sequence,8_14,2023-11-14T20:57:05.598Z,,,,,,,,,,3169.2399999522604,completion,,,,,,,high,high,,,,,,false,,,,true,575225.5,575225.2999999523,572039.113,572393.8999999762,572056.06,574889.657,1,40,,
trial,html.Screen,8_15_0,2023-11-14T20:57:16.322Z,,,,2,-0.0480293506029756,-0.0744454320613987,,,,10716.383999999962,timeout,0.3537939109800148,0.41580678553941264,-0.4999999999999994,-0.4809085110301439,0.4547130824721875,-0.46057767360930085,high,low,,ISIC_1798471.JPG,,ISIC_9152603.JPG,309,false,,,0,true,585949.2999999523,585949.2000000477,574872.699,575225.5,574889.657,585606.041,1,40,16,
sequence,flow.Sequence,8_15,2023-11-14T20:57:16.322Z,,,,,,,,,,11059.543000047677,completion,,,,,,,high,low,,,,,,false,,,,true,585949.3999999762,585949.2000000477,574872.699,575225.5,574889.657,585606.041,1,40,,
trial,html.Screen,8_16_0,2023-11-14T20:57:21.358Z,,,,2,0.0164027439304477,-0.0082910758715273,,false,ll,5379.159000047715,response,-0.6110305292191929,0.41580678553941264,-0.4999999999999994,-0.2855457053092876,0.4547130824721875,-0.46057767360930085,low,low,,ISIC_7381224.JPG,,ISIC_4325452.JPG,477,false,hh,keypress(i),0,true,590985.2999999523,590985.2000000477,585589.385,585949.5,585606.041,590639.491,1,40,17,
sequence,flow.Sequence,8_16,2023-11-14T20:57:21.358Z,,,,,,,,,,5379.159000047715,completion,,,,,,,low,low,,,,,,false,,,,true,590985.5,590985.2000000477,585589.385,585949.5,585606.041,590639.491,1,40,,
trial,html.Screen,8_17_0,2023-11-14T20:57:25.342Z,,,,2,0.0367060100866019,0.0630207980628495,,true,hl,4329.508999999962,response,0.3211798862332903,0.41580678553941264,-0.4999999999999994,-0.4707271381735113,0.4547130824721875,-0.46057767360930085,high,low,,ISIC_0028396.JPG,,ISIC_5484776.JPG,309,false,hl,keypress(j),0,true,594969,594969,590622.565,590985.5,590639.491,594622.714,1,40,18,
sequence,flow.Sequence,8_17,2023-11-14T20:57:25.342Z,,,,,,,,,,4329.508999999962,completion,,,,,,,high,low,,,,,,false,,,,true,594969.1000000238,594969,590622.565,590985.5,590639.491,594622.714,1,40,,
trial,html.Screen,8_18_0,2023-11-14T20:57:31.294Z,,,,2,0.0478761683145946,-0.012927090508672,,false,ll,6298.3860000238055,response,-0.3121327498457528,0.36580678553941265,-0.4999999999999994,-0.2879324891564163,0.4547130824721875,-0.46057767360930085,low,low,,ISIC_9631669.JPG,,ISIC_5647554.JPG,477,false,lh,keypress(e),0,true,600921.2000000477,600921.1000000238,594605.974,594969.2000000477,594622.714,600572.71,1,40,19,
sequence,flow.Sequence,8_18,2023-11-14T20:57:31.294Z,,,,,,,,,,6298.3860000238055,completion,,,,,,,low,low,,,,,,false,,,,true,600921.2999999523,600921.1000000238,594605.974,594969.1000000238,594622.714,600572.71,1,40,,
trial,html.Screen,8_19_0,2023-11-14T20:57:34.606Z,,,,2,-0.0464691161264081,-0.0535296539628673,,true,hl,3660.390000023879,response,0.4309795560727582,0.36580678553941265,-0.4999999999999994,-0.4507513565977654,0.4547130824721875,-0.46057767360930085,high,low,,ISIC_0758797.JPG,,ISIC_5520533.JPG,324,false,hl,keypress(j),0,true,604233.2000000477,604233.1000000238,600555.867,600921.3999999762,600572.71,603889.401,1,40,20,
sequence,flow.Sequence,8_19,2023-11-14T20:57:34.606Z,,,,,,,,,,3660.390000023879,completion,,,,,,,high,low,,,,,,false,,,,true,604233.3999999762,604233.1000000238,600555.867,600921.3999999762,600572.71,603889.401,1,40,,
trial,html.Screen,8_20_0,2023-11-14T20:57:42.496Z,,,,2,0.044991036470624,-0.0185124638005965,,false,hl,8232.898999952362,response,0.4123205626191379,0.36580678553941265,-0.4999999999999994,-0.4670310520467705,0.4547130824721875,-0.46057767360930085,high,low,,ISIC_2457859.JPG,,ISIC_7066723.JPG,324,false,lh,keypress(e),0,true,612122.6000000238,612122.2999999523,603872.652,604233.3999999762,603889.401,611789.41,1,40,21,
sequence,flow.Sequence,8_20,2023-11-14T20:57:42.496Z,,,,,,,,,,8232.898999952362,completion,,,,,,,high,low,,,,,,false,,,,true,612123.1000000238,612122.2999999523,603872.652,604233.3999999762,603889.401,611789.41,1,40,,
trial,html.Screen,8_21_0,2023-11-14T20:57:46.687Z,,,,2,0.0374659946425444,0.0086043094957617,,true,hl,4524.290000047651,response,0.3135373925880844,0.41580678553941264,-0.4999999999999994,-0.4514522775081402,0.4547130824721875,-0.46057767360930085,high,low,,ISIC_0033051.JPG,,ISIC_8702237.JPG,309,false,hl,keypress(j),0,true,616313.8999999762,616313.7000000477,611772.456,612123.2999999523,611789.41,615972.743,1,40,22,
sequence,flow.Sequence,8_21,2023-11-14T20:57:46.687Z,,,,,,,,,,4524.290000047651,completion,,,,,,,high,low,,,,,,false,,,,true,616313.8999999762,616313.7000000477,611772.456,612123.2000000477,611789.41,615972.743,1,40,,
trial,html.Screen,8_22_0,2023-11-14T20:57:53.214Z,,,,2,0.0473541545202326,-0.0294076954053606,,false,ll,6868.457000047667,response,-0.6469784776630937,0.41580678553941264,-0.4999999999999994,-0.4203951196698641,0.4547130824721875,-0.46057767360930085,low,low,,ISIC_0034065.JPG,,ISIC_8917755.JPG,477,false,lh,keypress(e),0,true,622841.3999999762,622841.2000000477,615955.973,616314.1000000238,615972.743,622506.091,1,40,23,
sequence,flow.Sequence,8_22,2023-11-14T20:57:53.214Z,,,,,,,,,,6868.457000047667,completion,,,,,,,low,low,,,,,,false,,,,true,622841.5,622841.2000000477,615955.973,616314,615972.743,622506.091,1,40,,
trial,html.Screen,8_23_0,2023-11-14T20:57:59.823Z,,,,2,-0.0643519619373155,-0.0340638715725122,,false,lh,6944.408999999985,response,-0.6076060984429029,0.41580678553941264,-0.4999999999999994,0.6150009950749014,0.4547130824721875,-0.46057767360930085,low,high,,ISIC_0066401.JPG,,ISIC_5952650.JPG,262,false,hl,keypress(j),0,true,629450.7000000477,629450.5,622489.222,622841.5,622506.091,629106.13,1,40,24,
sequence,flow.Sequence,8_23,2023-11-14T20:57:59.824Z,,,,,,,,,,6944.408999999985,completion,,,,,,,low,high,,,,,,false,,,,true,629451.1000000238,629450.5,622489.222,622841.5,622506.091,629106.13,1,40,,
trial,html.Screen,8_24_0,2023-11-14T20:58:03.758Z,,,,2,0.0273175221875807,0.0515126441328492,,false,ll,4279.2699999761535,response,-0.6800618424824021,0.41580678553941264,-0.4999999999999994,-0.2675853915156177,0.4547130824721875,-0.46057767360930085,low,low,,ISIC_0064034.JPG,,ISIC_0059769.JPG,477,false,hh,keypress(i),0,true,633385.5,633385.3999999762,629089.187,629451.1000000238,629106.13,633039.435,1,40,25,
sequence,flow.Sequence,8_24,2023-11-14T20:58:03.758Z,,,,,,,,,,4279.2699999761535,completion,,,,,,,low,low,,,,,,false,,,,true,633385.6000000238,633385.3999999762,629089.187,629451.1000000238,629106.13,633039.435,1,40,,
trial,html.Screen,8_25_0,2023-11-14T20:58:06.862Z,,,,2,-0.066631540328269,-0.005292120470259,,false,ll,3449.4649999761023,response,-0.6155807051660155,0.41580678553941264,-0.4999999999999994,-0.5999624264273339,0.4547130824721875,-0.46057767360930085,low,low,,ISIC_8041550.JPG,,ISIC_5530598.JPG,477,false,hl,keypress(j),0,true,636489,636488.8999999762,633022.66,633385.7000000477,633039.435,636156.892,1,40,26,
sequence,flow.Sequence,8_25,2023-11-14T20:58:06.862Z,,,,,,,,,,3449.4649999761023,completion,,,,,,,low,low,,,,,,false,,,,true,636489.1000000238,636488.8999999762,633022.66,633385.6000000238,633039.435,636156.892,1,40,,
trial,html.Screen,8_26_0,2023-11-14T20:58:10.798Z,,,,2,-0.0700576547090477,0.0026956749740767,,false,lh,4268.507999976166,response,-0.3321035407959609,0.41580678553941264,-0.4999999999999994,0.2822036893449094,0.4547130824721875,-0.46057767360930085,low,high,,ISIC_7212271.JPG,,ISIC_3260571.JPG,262,false,hl,keypress(j),0,true,640425.6000000238,640425.3999999762,636122.778,636489.2000000477,636156.892,640089.447,1,40,27,
sequence,flow.Sequence,8_26,2023-11-14T20:58:10.798Z,,,,,,,,,,4268.507999976166,completion,,,,,,,low,high,,,,,,false,,,,true,640425.7000000477,640425.3999999762,636122.778,636489.2000000477,636156.892,640089.447,1,40,,
trial,html.Screen,8_27_0,2023-11-14T20:58:14.862Z,,,,2,0.044991036470624,-0.0185124638005965,,true,hh,4399.653000023798,response,0.5496107767905835,0.41580678553941264,-0.4999999999999994,0.3056302908289685,0.4547130824721875,-0.46057767360930085,high,high,,ISIC_2457859.JPG,,ISIC_8338755.JPG,424,false,hh,keypress(i),0,true,644489.2000000477,644489.1000000238,640072.66,640425.7000000477,640089.447,644157.541,1,40,28,
sequence,flow.Sequence,8_27,2023-11-14T20:58:14.862Z,,,,,,,,,,4399.653000023798,completion,,,,,,,high,high,,,,,,false,,,,true,644489.3999999762,644489.1000000238,640072.66,640425.7000000477,640089.447,644157.541,1,40,,
trial,html.Screen,8_28_0,2023-11-14T20:58:20.287Z,,,,2,0.0388334549081915,-0.0303399972963369,,false,hh,5756.0590000238735,response,0.4892429097592857,0.36580678553941265,-0.4999999999999994,0.6261250905965668,0.4547130824721875,-0.46057767360930085,high,high,,ISIC_4961708.JPG,,ISIC_0063516.JPG,425,false,lh,keypress(e),0,true,649913.7999999523,649913.6000000238,644122.647,644489.3999999762,644157.541,649572.799,1,40,29,
sequence,flow.Sequence,8_28,2023-11-14T20:58:20.287Z,,,,,,,,,,5756.0590000238735,completion,,,,,,,high,high,,,,,,false,,,,true,649913.8999999762,649913.6000000238,644122.647,644489.3999999762,644157.541,649572.799,1,40,,
trial,html.Screen,8_29_0,2023-11-14T20:58:22.783Z,,,,2,0.0200376619013301,0.0451764418954947,,false,hh,2837.4010000476846,response,0.4158764638602013,0.41580678553941264,-0.4999999999999994,0.481700918790271,0.4547130824721875,-0.46057767360930085,high,high,,ISIC_0026087.JPG,,ISIC_3166276.JPG,424,false,lh,keypress(e),0,true,652410.3999999762,652410.2000000477,649555.963,649913.8999999762,649572.799,652072.845,1,40,30,
sequence,flow.Sequence,8_29,2023-11-14T20:58:22.783Z,,,,,,,,,,2837.4010000476846,completion,,,,,,,high,high,,,,,,false,,,,true,652410.7000000477,652410.2000000477,649555.963,649913.8999999762,649572.799,652072.845,1,40,,
trial,html.Screen,8_30_0,2023-11-14T20:58:25.407Z,,,,2,0.0088741920055285,0.0058246074740588,,true,lh,2961.054999976186,response,-0.6367870634823293,0.4658067855394126,-0.4999999999999994,0.6027111215093001,0.4547130824721875,-0.46057767360930085,low,high,,ISIC_4136663.JPG,,ISIC_0010597.JPG,262,false,lh,keypress(e),0,true,655034,655033.8999999762,652056.154,652410.8999999762,652072.845,654689.483,1,40,31,
sequence,flow.Sequence,8_30,2023-11-14T20:58:25.407Z,,,,,,,,,,2961.054999976186,completion,,,,,,,low,high,,,,,,false,,,,true,655034.3999999762,655033.8999999762,652056.154,652410.8999999762,652072.845,654689.483,1,40,,
trial,html.Screen,8_31_0,2023-11-14T20:58:29.758Z,,,,2,-0.0703653376600499,0.0206740478999942,,true,hh,4695.816999952309,response,0.4689365543567156,0.4658067855394126,-0.4999999999999994,0.642572041499262,0.4922060201497856,-0.46057767360930085,high,high,,ISIC_4899386.JPG,,ISIC_0032699.JPG,416,false,hh,keypress(i),0,true,659385.5,659385.2999999523,654672.772,655034.3999999762,654689.483,659039.434,1,40,32,
sequence,flow.Sequence,8_31,2023-11-14T20:58:29.758Z,,,,,,,,,,4695.816999952309,completion,,,,,,,high,high,,,,,,false,,,,true,659385.7000000477,659385.2999999523,654672.772,655034.3999999762,654689.483,659039.434,1,40,,
trial,html.Screen,8_32_0,2023-11-14T20:58:31.934Z,,,,2,0.039520186367207,0.0377961575607372,,false,hh,2522.0659999999916,response,0.2746016197818589,0.4658067855394126,-0.4999999999999994,0.6438375098577579,0.4922060201497856,-0.46057767360930085,high,high,,ISIC_6356149.JPG,,ISIC_3651451.JPG,416,false,hl,keypress(j),0,true,661561.7000000477,661561.5,659022.683,659385.7000000477,659039.434,661222.798,1,40,33,
sequence,flow.Sequence,8_32,2023-11-14T20:58:31.935Z,,,,,,,,,,2522.0659999999916,completion,,,,,,,high,high,,,,,,false,,,,true,661561.7999999523,661561.5,659022.683,659385.7000000477,659039.434,661222.798,1,40,,
trial,html.Screen,8_33_0,2023-11-14T20:58:33.774Z,,,,2,0.045779466401051,0.0137769797231127,,false,ll,2178.5019999523647,response,-0.6119878835403445,0.4658067855394126,-0.4999999999999994,-0.5302150390232752,0.4922060201497856,-0.46057767360930085,low,low,,ISIC_0000504.JPG,,ISIC_8993666.JPG,477,false,hl,keypress(j),0,true,663401.3999999762,663401.2999999523,661206.393,661562,661222.798,663056.176,1,40,34,
sequence,flow.Sequence,8_33,2023-11-14T20:58:33.774Z,,,,,,,,,,2178.5019999523647,completion,,,,,,,low,low,,,,,,false,,,,true,663401.5,663401.2999999523,661206.393,661561.8999999762,661222.798,663056.176,1,40,,
trial,html.Screen,8_34_0,2023-11-14T20:58:37.406Z,,,,2,-0.0462522625051681,-0.0088419594888635,,false,hh,3976.8240000000224,response,0.3626403606262871,0.4658067855394126,-0.4999999999999994,0.6607820115526003,0.4922060201497856,-0.46057767360930085,high,high,,ISIC_1945381.JPG,,ISIC_0010068.JPG,416,false,hl,keypress(j),0,true,667033.1000000238,667033,663039.701,663401.6000000238,663056.176,666689.55,1,40,35,
sequence,flow.Sequence,8_34,2023-11-14T20:58:37.406Z,,,,,,,,,,3976.8240000000224,completion,,,,,,,high,high,,,,,,false,,,,true,667033.2000000477,667033,663039.701,663401.6000000238,663056.176,666689.55,1,40,,
trial,html.Screen,8_35_0,2023-11-14T20:58:39.934Z,,,,2,0.0010920693448107,0.0492408806128631,,true,hl,2871.5500000237953,response,0.4723905585695486,0.4658067855394126,-0.4999999999999994,-0.3472886991490291,0.4922060201497856,-0.46057767360930085,high,low,,ISIC_6155981.JPG,,ISIC_9779803.JPG,290,false,hl,keypress(j),0,true,669561.2999999523,669561.1000000238,666672.987,667033.2999999523,666689.55,669223.022,1,40,36,
sequence,flow.Sequence,8_35,2023-11-14T20:58:39.934Z,,,,,,,,,,2871.5500000237953,completion,,,,,,,high,low,,,,,,false,,,,true,669561.5,669561.1000000238,666672.987,667033.2999999523,666689.55,669223.022,1,40,,
trial,html.Screen,8_36_0,2023-11-14T20:58:42.782Z,,,,2,-0.0200295718112167,-0.0155559071275806,,true,hl,3186.1780000476865,response,0.4710520085066593,0.41580678553941264,-0.4999999999999994,-0.5914642152846749,0.4922060201497856,-0.41057767360930086,high,low,,ISIC_0061343.JPG,,ISIC_8020153.JPG,324,false,hl,keypress(j),0,true,672409.3999999762,672409.2000000477,669206.12,669561.5,669223.022,672073.053,1,40,37,
sequence,flow.Sequence,8_36,2023-11-14T20:58:42.782Z,,,,,,,,,,3186.1780000476865,completion,,,,,,,high,low,,,,,,false,,,,true,672409.6000000238,672409.2000000477,669206.12,669561.5,669223.022,672073.053,1,40,,
trial,html.Screen,8_37_0,2023-11-14T20:58:46.783Z,,,,2,0.0200376619013301,0.0451764418954947,,false,lh,4336.74699995236,response,-0.6367870634823293,0.41580678553941264,-0.4999999999999994,0.6027111215093001,0.4922060201497856,-0.41057767360930086,low,high,,ISIC_0026087.JPG,,ISIC_0010597.JPG,236,false,hh,keypress(i),0,true,676409.8999999762,676409.7999999523,672056.139,672409.7000000477,672073.053,676072.852,1,40,38,
sequence,flow.Sequence,8_37,2023-11-14T20:58:46.783Z,,,,,,,,,,4336.74699995236,completion,,,,,,,low,high,,,,,,false,,,,true,676410.2000000477,676409.7999999523,672056.139,672409.7000000477,672073.053,676072.852,1,40,,
trial,html.Screen,8_38_0,2023-11-14T20:58:50.478Z,,,,2,-0.0524649813000588,0.0155452034299028,,true,lh,4032.547999976203,response,-0.5055282760571453,0.41580678553941264,-0.4999999999999994,0.5499387210847957,0.4922060201497856,-0.41057767360930086,low,high,,ISIC_0030087.JPG,,ISIC_2054066.JPG,236,false,lh,keypress(e),0,true,680105.5,680105.3999999762,676056.083,676410.2999999523,676072.852,679773.993,1,40,39,
sequence,flow.Sequence,8_38,2023-11-14T20:58:50.478Z,,,,,,,,,,4032.547999976203,completion,,,,,,,low,high,,,,,,false,,,,true,680105.6000000238,680105.3999999762,676056.083,676410.2999999523,676072.852,679773.993,1,40,,
trial,html.Screen,8_39_0,2023-11-14T20:58:53.486Z,,,,2,0.0065172941585523,-0.0118857043117315,,false,lh,3339.5069999999832,response,-0.4081255483058751,0.41580678553941264,-0.4999999999999994,0.4148894741517012,0.4763249212970478,-0.41057767360930086,low,high,,ISIC_6119202.JPG,,ISIC_0054570.JPG,244,false,hh,keypress(i),0,true,683113.7000000477,683113.5,679739.44,680105.7000000477,679773.993,682772.789,1,40,40,
sequence,flow.Sequence,8_39,2023-11-14T20:58:53.486Z,,,,,,,,,,3339.5069999999832,completion,,,,,,,low,high,,,,,,false,,,,true,683113.7999999523,683113.5,679739.44,680105.7000000477,679773.993,682772.789,1,40,,
stair_loop,flow.Loop,8,2023-11-14T20:58:53.486Z,,,,,,,,,,182840.86700000003,completion,,,,,,,,,,,,,,false,,,,true,683113.8999999762,683113.5,500255.952,500617.39999997616,500272.633,682772.789,1,40,,
exp_instructions,html.Screen,9,2023-11-14T20:58:57.054Z,,,,,,,,,,3908.411000047694,response,,,,,,,,,,,,,,,continue,keypress(Space),,,686681.6000000238,686681.2000000477,682756.098,683113.8999999762,682772.789,686339.51,,,,
trial,html.Screen,10_0_0,2023-11-14T20:59:02.369Z,,,,1,-0.0257631352671967,-0.0202837002774028,,false,hh,5656.690000047674,response,0.5859061375775791,0.42580678553941265,-0.4999999999999994,0.6651172024911747,0.47079084948446964,-0.4505776736093009,high,high,,ISIC_0032797.JPG,9,ISIC_0010242.JPG,421,false,hl,keypress(j),0,false,691996.2999999523,691996.2000000477,686323.063,686681.8999999762,686339.51,691656.132,4,500,1,
break,html.Screen,10_0_1,2023-11-14T20:59:02.369Z,,,,,,,,,,NaN,,,,,,,,high,high,,,,,,false,,,,false,691996.7000000477,691996.6000000238,,691996.3999999762,,691656.132,4,500,,
break_continue,html.Screen,10_0_2,2023-11-14T20:59:02.370Z,,,,,,,,,,NaN,,,,,,,,high,high,,,,,,false,,,,false,691997,691996.8999999762,,691996.8999999762,,691656.132,4,500,,
sequence,flow.Sequence,10_0,2023-11-14T20:59:02.370Z,,,,,,,,,,5657.389999976149,completion,,,,,,,high,high,,,,,,false,,,,false,691997.1000000238,691996.8999999762,686323.063,686681.8999999762,686339.51,691656.132,4,500,,
trial,html.Screen,10_1_0,2023-11-14T20:59:09.055Z,,,,1,0.0418938536494534,-0.0678614270583654,,true,hh,7025.868000000017,response,0.3314573566659057,0.42580678553941265,-0.4999999999999994,0.3584770140575627,0.47079084948446964,-0.4505776736093009,high,high,,ISIC_0027573.JPG,10,ISIC_8796968.JPG,421,false,hh,keypress(i),0,false,698682.2000000477,698682,691639.31,691997.2000000477,691656.132,698339.534,4,500,2,
break,html.Screen,10_1_1,2023-11-14T20:59:09.055Z,,,,,,,,,,NaN,,,,,,,,high,high,,,,,,false,,,,false,698682.7000000477,698682.6000000238,,698682.2999999523,,698339.534,4,500,,
break_continue,html.Screen,10_1_2,2023-11-14T20:59:09.056Z,,,,,,,,,,NaN,,,,,,,,high,high,,,,,,false,,,,false,698683,698682.8999999762,,698682.7000000477,,698339.534,4,500,,
sequence,flow.Sequence,10_1,2023-11-14T20:59:09.056Z,,,,,,,,,,7026.767999976175,completion,,,,,,,high,high,,,,,,false,,,,false,698683,698682.8999999762,691639.31,691997.2000000477,691656.132,698339.534,4,500,,
trial,html.Screen,10_2_0,2023-11-14T20:59:16.942Z,,,,1,0.001445457736793,0.0165307427449982,,false,hh,8229.566000023857,response,0.4749547164217195,0.42580678553941265,-0.4999999999999994,0.3254239918569623,0.47079084948446964,-0.4505776736093009,high,high,,ISIC_0027350.JPG,9,ISIC_0025611.JPG,421,false,lh,keypress(e),0,false,706569.2999999523,706569.1000000238,698322.636,698683.1000000238,698339.534,706222.833,4,500,3,
break,html.Screen,10_2_1,2023-11-14T20:59:16.942Z,,,,,,,,,,NaN,,,,,,,,high,high,,,,,,false,,,,false,706569.6000000238,706569.5,,706569.3999999762,,706222.833,4,500,,
break_continue,html.Screen,10_2_2,2023-11-14T20:59:16.942Z,,,,,,,,,,NaN,,,,,,,,high,high,,,,,,false,,,,false,706569.7999999523,706569.7000000477,,706569.7000000477,,706222.833,4,500,,
sequence,flow.Sequence,10_2,2023-11-14T20:59:16.943Z,,,,,,,,,,8230.166000047699,completion,,,,,,,high,high,,,,,,false,,,,false,706570,706569.7000000477,698322.636,698683.1000000238,698339.534,706222.833,4,500,,
trial,html.Screen,10_3_0,2023-11-14T20:59:22.318Z,,,,1,-0.0044063257337227,-0.0172548282859886,,false,ll,5722.466999952332,response,-0.6154783571393602,0.42580678553941265,-0.4999999999999994,-0.5972517620480303,0.47079084948446964,-0.4505776736093009,low,low,,ISIC_7413786.JPG,9,ISIC_2642873.JPG,484,false,hl,keypress(j),0,false,711945.7000000477,711945.2999999523,706205.984,706570,706222.833,711606.142,4,500,4,
break,html.Screen,10_3_1,2023-11-14T20:59:22.319Z,,,,,,,,,,NaN,,,,,,,,low,low,,,,,,false,,,,false,711946.2000000477,711946.1000000238,,711945.7999999523,,711606.142,4,500,,
break_continue,html.Screen,10_3_2,2023-11-14T20:59:22.319Z,,,,,,,,,,NaN,,,,,,,,low,low,,,,,,false,,,,false,711946.3999999762,711946.2999999523,,711946.2999999523,,711606.142,4,500,,
sequence,flow.Sequence,10_3,2023-11-14T20:59:22.319Z,,,,,,,,,,5723.466999952332,completion,,,,,,,low,low,,,,,,false,,,,false,711946.6000000238,711946.2999999523,706205.984,706570,706222.833,711606.142,4,500,,
trial,html.Screen,10_4_0,2023-11-14T20:59:28.318Z,,,,1,0.0107170641394226,-0.0596294643429623,,false,ll,6339.358000000007,response,-0.5670576082335639,0.42580678553941265,-0.4999999999999994,-0.3418789785331351,0.47079084948446964,-0.4505776736093009,low,low,,ISIC_0005291.JPG,8,ISIC_7492530.JPG,484,false,hh,keypress(i),0,false,717945.7000000477,717945.5,711589.673,711946.7000000477,711606.142,717606.408,4,500,5,
break,html.Screen,10_4_1,2023-11-14T20:59:28.319Z,,,,,,,,,,NaN,,,,,,,,low,low,,,,,,false,,,,false,717946.2000000477,717946,,717945.7999999523,,717606.408,4,500,,
break_continue,html.Screen,10_4_2,2023-11-14T20:59:28.319Z,,,,,,,,,,NaN,,,,,,,,low,low,,,,,,false,,,,false,717946.5,717946.2999999523,,717946.2000000477,,717606.408,4,500,,
sequence,flow.Sequence,10_4,2023-11-14T20:59:28.319Z,,,,,,,,,,6340.157999952324,completion,,,,,,,low,low,,,,,,false,,,,false,717946.6000000238,717946.2999999523,711589.673,711946.6000000238,711606.142,717606.408,4,500,,
trial,html.Screen,10_5_0,2023-11-14T20:59:33.151Z,,,,1,0.0175203912019758,0.0427513576747051,,false,ll,5171.991999976104,response,-0.3754108029293608,0.42580678553941265,-0.4999999999999994,-0.5142516211938967,0.47079084948446964,-0.4505776736093009,low,low,,ISIC_0056292.JPG,9,ISIC_8108090.JPG,484,false,hh,keypress(i),0,false,722778.6000000238,722778.3999999762,717589.45,717946.6000000238,717606.408,722439.585,4,500,6,
break,html.Screen,10_5_1,2023-11-14T20:59:33.152Z,,,,,,,,,,NaN,,,,,,,,low,low,,,,,,false,,,,false,722779.3999999762,722779.2999999523,,722778.8999999762,,722439.585,4,500,,
break_continue,html.Screen,10_5_2,2023-11-14T20:59:33.152Z,,,,,,,,,,NaN,,,,,,,,low,low,,,,,,false,,,,false,722779.7000000477,722779.6000000238,,722779.3999999762,,722439.585,4,500,,
sequence,flow.Sequence,10_5,2023-11-14T20:59:33.152Z,,,,,,,,,,5173.192000023788,completion,,,,,,,low,low,,,,,,false,,,,false,722779.7000000477,722779.6000000238,717589.45,717946.6000000238,717606.408,722439.585,4,500,,
trial,html.Screen,10_6_0,2023-11-14T20:59:37.134Z,,,,1,0.0198696495649504,-0.0387952353063878,,true,lh,4321.7149999523535,response,-0.6092768470977642,0.42580678553941265,-0.4999999999999994,0.3869590065838744,0.47079084948446964,-0.4505776736093009,low,high,,ISIC_6735970.JPG,9,ISIC_0029013.JPG,249,false,lh,keypress(e),0,false,726761.5,726761.2999999523,722422.904,722779.7999999523,722439.585,726423.178,4,500,7,
break,html.Screen,10_6_1,2023-11-14T20:59:37.135Z,,,,,,,,,,NaN,,,,,,,,low,high,,,,,,false,,,,false,726761.8999999762,726761.8999999762,,726761.6000000238,,726423.178,4,500,,
break_continue,html.Screen,10_6_2,2023-11-14T20:59:37.135Z,,,,,,,,,,NaN,,,,,,,,low,high,,,,,,false,,,,false,726762.2000000477,726762.1000000238,,726762,,726423.178,4,500,,
sequence,flow.Sequence,10_6,2023-11-14T20:59:37.135Z,,,,,,,,,,4322.515000023879,completion,,,,,,,low,high,,,,,,false,,,,false,726762.2000000477,726762.1000000238,722422.904,722779.7999999523,722439.585,726423.178,4,500,,
trial,html.Screen,10_7_0,2023-11-14T20:59:42.559Z,,,,1,-0.0204987932325723,0.0619049476763945,,true,hh,5762.62199995236,response,0.3247725331273696,0.42580678553941265,-0.4999999999999994,0.3528754607414698,0.47079084948446964,-0.4505776736093009,high,high,,ISIC_0887792.JPG,9,ISIC_0010754.JPG,421,false,hh,keypress(i),0,false,732186,732185.7999999523,726406.347,726762.3999999762,726423.178,731839.554,4,500,8,
break,html.Screen,10_7_1,2023-11-14T20:59:42.559Z,,,,,,,,,,NaN,,,,,,,,high,high,,,,,,false,,,,false,732186.6000000238,732186.3999999762,,732186.2000000477,,731839.554,4,500,,
break_continue,html.Screen,10_7_2,2023-11-14T20:59:42.560Z,,,,,,,,,,NaN,,,,,,,,high,high,,,,,,false,,,,false,732187.1000000238,732186.7999999523,,732186.7000000477,,731839.554,4,500,,
sequence,flow.Sequence,10_7,2023-11-14T20:59:42.560Z,,,,,,,,,,5763.62199995236,completion,,,,,,,high,high,,,,,,false,,,,false,732187.2000000477,732186.7999999523,726406.347,726762.2999999523,726423.178,731839.554,4,500,,
trial,html.Screen,10_8_0,2023-11-14T20:59:48.558Z,,,,1,-0.0544036313884697,-0.0564516462775647,,false,ll,6345.945999999996,response,-0.3411667228625188,0.42580678553941265,-0.4999999999999994,-0.4334091077727574,0.47079084948446964,-0.4505776736093009,low,low,,ISIC_7441957.JPG,8,ISIC_2519121.JPG,484,false,hl,keypress(j),0,false,738185.6000000238,738185.5,731822.718,732187.2999999523,731839.554,737839.51,4,500,9,
break,html.Screen,10_8_1,2023-11-14T20:59:48.558Z,,,,,,,,,,NaN,,,,,,,,low,low,,,,,,false,,,,false,738185.8999999762,738185.7999999523,,738185.7000000477,,737839.51,4,500,,
break_continue,html.Screen,10_8_2,2023-11-14T20:59:48.559Z,,,,,,,,,,NaN,,,,,,,,low,low,,,,,,false,,,,false,738186.2000000477,738186.1000000238,,738185.8999999762,,737839.51,4,500,,
sequence,flow.Sequence,10_8,2023-11-14T20:59:48.559Z,,,,,,,,,,6346.546000023838,completion,,,,,,,low,low,,,,,,false,,,,false,738186.2999999523,738186.1000000238,731822.718,732187.2000000477,731839.554,737839.51,4,500,,
trial,html.Screen,10_9_0,2023-11-14T20:59:55.022Z,,,,1,,0.0102871556606504,,false,hl,6809.889999976149,response,0.3873832783602354,0.42580678553941265,-0.4999999999999994,-0.446831656905133,0.47079084948446964,-0.4505776736093009,high,low,,ISIC_1805163.JPG,10,ISIC_0062208.JPG,316,false,hh,keypress(i),0,false,744649.5,744649.3999999762,737823.06,738186.2999999523,737839.51,744306.173,4,500,10,
break,html.Screen,10_9_1,2023-11-14T20:59:55.022Z,,,,,,,,,,NaN,,,,,,,,high,low,,,,,,false,,,,false,744650,744649.7999999523,,744649.7000000477,,744306.173,4,500,,
break_continue,html.Screen,10_9_2,2023-11-14T20:59:55.023Z,,,,,,,,,,NaN,,,,,,,,high,low,,,,,,false,,,,false,744650.1000000238,744650.1000000238,,744650,,744306.173,4,500,,
sequence,flow.Sequence,10_9,2023-11-14T20:59:55.023Z,,,,,,,,,,6810.5900000238325,completion,,,,,,,high,low,,,,,,false,,,,false,744650.2000000477,744650.1000000238,737823.06,738186.2999999523,737839.51,744306.173,4,500,,
trial,html.Screen,10_10_0,2023-11-14T21:00:01.726Z,,,,1,0.0448994009031783,-0.0708723658092544,,false,ll,7046.827000000048,response,-0.6077016477491108,0.42580678553941265,-0.4999999999999994,-0.5246027191436131,0.47079084948446964,-0.4505776736093009,low,low,,ISIC_0025238.JPG,10,ISIC_1777398.JPG,484,false,lh,keypress(e),0,false,751353.1000000238,751353,744289.515,744650.2999999523,744306.173,751006.22,4,500,11,
break,html.Screen,10_10_1,2023-11-14T21:00:01.726Z,,,,,,,,,,NaN,,,,,,,,low,low,,,,,,false,,,,false,751353.3999999762,751353.3999999762,,751353.2999999523,,751006.22,4,500,,
break_continue,html.Screen,10_10_2,2023-11-14T21:00:01.726Z,,,,,,,,,,NaN,,,,,,,,low,low,,,,,,false,,,,false,751353.7999999523,751353.7000000477,,751353.6000000238,,751006.22,4,500,,
sequence,flow.Sequence,10_10,2023-11-14T21:00:01.726Z,,,,,,,,,,7047.527000047732,completion,,,,,,,low,low,,,,,,false,,,,false,751353.8999999762,751353.7000000477,744289.515,744650.2999999523,744306.173,751006.22,4,500,,
trial,html.Screen,10_11_0,2023-11-14T21:00:05.455Z,,,,1,-0.0367706518941078,0.0161069838272154,,false,hh,4075.9800000477117,response,0.2797001254679888,0.42580678553941265,-0.4999999999999994,0.40638732521782,0.47079084948446964,-0.4505776736093009,high,high,,ISIC_0033419.JPG,10,ISIC_0056164.JPG,421,false,lh,keypress(e),0,false,755082.3999999762,755082.2000000477,750989.377,751353.8999999762,751006.22,754739.528,4,500,12,
break,html.Screen,10_11_1,2023-11-14T21:00:05.456Z,,,,,,,,,,NaN,,,,,,,,high,high,,,,,,false,,,,false,755083.6000000238,755083.2999999523,,755082.8999999762,,754739.528,4,500,,
break_continue,html.Screen,10_11_2,2023-11-14T21:00:05.457Z,,,,,,,,,,NaN,,,,,,,,high,high,,,,,,false,,,,false,755084.2999999523,755084,,755083.7999999523,,754739.528,4,500,,
sequence,flow.Sequence,10_11,2023-11-14T21:00:05.457Z,,,,,,,,,,4077.780000000028,completion,,,,,,,high,high,,,,,,false,,,,false,755084.6000000238,755084,750989.377,751353.8999999762,751006.22,754739.528,4,500,,
trial,html.Screen,10_12_0,2023-11-14T21:00:09.950Z,,,,1,0.0418938536494534,-0.0678614270583654,,false,hh,4838.371999976109,response,0.3206987548391617,0.42580678553941265,-0.4999999999999994,0.4641066968753065,0.47079084948446964,-0.4505776736093009,high,high,,ISIC_0027573.JPG,8,ISIC_0029389.JPG,421,false,hl,keypress(j),0,false,759577.8999999762,759577.8999999762,754722.87,755084.7999999523,754739.528,759239.587,4,500,13,
break,html.Screen,10_12_1,2023-11-14T21:00:09.951Z,,,,,,,,,,NaN,,,,,,,,high,high,,,,,,false,,,,false,759578.5,759578.2999999523,,759578,,759239.587,4,500,,
break_continue,html.Screen,10_12_2,2023-11-14T21:00:09.951Z,,,,,,,,,,NaN,,,,,,,,high,high,,,,,,false,,,,false,759578.7999999523,759578.6000000238,,759578.5,,759239.587,4,500,,
sequence,flow.Sequence,10_12,2023-11-14T21:00:09.951Z,,,,,,,,,,4839.0720000237925,completion,,,,,,,high,high,,,,,,false,,,,false,759578.7999999523,759578.6000000238,754722.87,755084.7999999523,754739.528,759239.587,4,500,,
trial,html.Screen,10_13_0,2023-11-14T21:00:18.398Z,,,,1,0.0542893032276609,-0.0176656364422514,,false,hl,8785.613000047626,response,0.6181436781814378,0.42580678553941265,-0.4999999999999994,-0.621332215027405,0.47079084948446964,-0.4505776736093009,high,low,,ISIC_0024516.JPG,10,ISIC_6446779.JPG,316,false,lh,keypress(e),0,false,768025.2000000477,768025.2000000477,759222.8,759578.7999999523,759239.587,767689.577,4,500,14,
break,html.Screen,10_13_1,2023-11-14T21:00:18.398Z,,,,,,,,,,NaN,,,,,,,,high,low,,,,,,false,,,,false,768025.7000000477,768025.5,,768025.2999999523,,767689.577,4,500,,
break_continue,html.Screen,10_13_2,2023-11-14T21:00:18.398Z,,,,,,,,,,NaN,,,,,,,,high,low,,,,,,false,,,,false,768025.8999999762,768025.7999999523,,768025.7999999523,,767689.577,4,500,,
sequence,flow.Sequence,10_13,2023-11-14T21:00:18.399Z,,,,,,,,,,8786.212999952259,completion,,,,,,,high,low,,,,,,false,,,,false,768026,768025.7999999523,759222.8,759578.7999999523,759239.587,767689.577,4,500,,
trial,html.Screen,10_14_0,2023-11-14T21:00:22.654Z,,,,1,-0.0423567271646023,-0.0380126882576854,,false,hh,4591.722999952268,response,0.4922959044494179,0.42580678553941265,-0.4999999999999994,0.4017134695667839,0.47079084948446964,-0.4505776736093009,high,high,,ISIC_0046932.JPG,9,ISIC_0031742.JPG,421,false,hl,keypress(j),0,false,772281.5,772281.2999999523,767672.738,768026,767689.577,771939.599,4,500,15,
break,html.Screen,10_14_1,2023-11-14T21:00:22.654Z,,,,,,,,,,NaN,,,,,,,,high,high,,,,,,false,,,,false,772281.8999999762,772281.7999999523,,772281.6000000238,,771939.599,4,500,,
break_continue,html.Screen,10_14_2,2023-11-14T21:00:22.655Z,,,,,,,,,,NaN,,,,,,,,high,high,,,,,,false,,,,false,772282.2000000477,772282.1000000238,,772281.8999999762,,771939.599,4,500,,
sequence,flow.Sequence,10_14,2023-11-14T21:00:22.655Z,,,,,,,,,,4592.523000023793,completion,,,,,,,high,high,,,,,,false,,,,false,772282.2999999523,772282.1000000238,767672.738,768026,767689.577,771939.599,4,500,,
trial,html.Screen,10_15_0,2023-11-14T21:00:28.638Z,,,,1,-0.0076984477620101,-0.0069458408496562,,false,ll,6325.8009999761125,response,-0.4571567781833414,0.42580678553941265,-0.4999999999999994,-0.3542743233085834,0.47079084948446964,-0.4505776736093009,low,low,,ISIC_0000434.JPG,9,ISIC_9293491.JPG,484,false,lh,keypress(e),0,false,778265.5,778265.3999999762,771922.816,772282.2999999523,771939.599,777922.916,4,500,16,
break,html.Screen,10_15_1,2023-11-14T21:00:28.639Z,,,,,,,,,,NaN,,,,,,,,low,low,,,,,,false,,,,false,778266.1000000238,778265.8999999762,,778265.7000000477,,777922.916,4,500,,
break_continue,html.Screen,10_15_2,2023-11-14T21:00:28.639Z,,,,,,,,,,NaN,,,,,,,,low,low,,,,,,false,,,,false,778266.2999999523,778266.2000000477,,778266.1000000238,,777922.916,4,500,,
sequence,flow.Sequence,10_15,2023-11-14T21:00:28.639Z,,,,,,,,,,6326.601000047638,completion,,,,,,,low,low,,,,,,false,,,,false,778266.5,778266.2000000477,771922.816,772282.2999999523,771939.599,777922.916,4,500,,
trial,html.Screen,10_16_0,2023-11-14T21:00:33.102Z,,,,1,0.0409660561823769,-0.039283578935498,,true,lh,4805.98399997619,response,-0.4330015077125896,0.42580678553941265,-0.4999999999999994,0.4783979673053792,0.47079084948446964,-0.4505776736093009,low,high,,ISIC_0479264.JPG,9,ISIC_0026470.JPG,249,false,lh,keypress(e),0,false,782729.1000000238,782728.8999999762,777906.213,778266.7000000477,777922.916,782389.563,4,500,17,
break,html.Screen,10_16_1,2023-11-14T21:00:33.102Z,,,,,,,,,,NaN,,,,,,,,low,high,,,,,,false,,,,false,782729.3999999762,782729.3999999762,,782729.2000000477,,782389.563,4,500,,
break_continue,html.Screen,10_16_2,2023-11-14T21:00:33.102Z,,,,,,,,,,NaN,,,,,,,,low,high,,,,,,false,,,,false,782729.7000000477,782729.6000000238,,782729.5,,782389.563,4,500,,
sequence,flow.Sequence,10_16,2023-11-14T21:00:33.102Z,,,,,,,,,,4806.6840000238735,completion,,,,,,,low,high,,,,,,false,,,,false,782729.7999999523,782729.6000000238,777906.213,778266.6000000238,777922.916,782389.563,4,500,,
trial,html.Screen,10_17_0,2023-11-14T21:00:37.566Z,,,,1,0.0109416414475118,0.005246498750811,,false,lh,4803.736999952351,response,-0.4424953596273369,0.42580678553941265,-0.4999999999999994,0.578075680807843,0.47079084948446964,-0.4505776736093009,low,high,,ISIC_0064279.JPG,10,ISIC_0027627.JPG,249,false,hl,keypress(j),0,false,787193.3999999762,787193.2999999523,782372.886,782729.8999999762,782389.563,786856.267,4,500,18,
break,html.Screen,10_17_1,2023-11-14T21:00:37.566Z,,,,,,,,,,NaN,,,,,,,,low,high,,,,,,false,,,,false,787193.7999999523,787193.7000000477,,787193.5,,786856.267,4,500,,
break_continue,html.Screen,10_17_2,2023-11-14T21:00:37.567Z,,,,,,,,,,NaN,,,,,,,,low,high,,,,,,false,,,,false,787194.1000000238,787194,,787193.8999999762,,786856.267,4,500,,
sequence,flow.Sequence,10_17,2023-11-14T21:00:37.567Z,,,,,,,,,,4804.4370000000345,completion,,,,,,,low,high,,,,,,false,,,,false,787194.2000000477,787194,782372.886,782729.7999999523,782389.563,786856.267,4,500,,
trial,html.Screen,10_18_0,2023-11-14T21:00:42.190Z,,,,1,-0.07101539702336,0.0351358305415709,,false,ll,4961.132999976166,response,-0.6064186114269883,0.42580678553941265,-0.4999999999999994,-0.5377072388283526,0.47079084948446964,-0.4505776736093009,low,low,,ISIC_0033279.JPG,9,ISIC_0010759.JPG,484,false,hl,keypress(j),0,false,791817.5,791817.3999999762,786839.49,787194.2000000477,786856.267,791472.937,4,500,19,
break,html.Screen,10_18_1,2023-11-14T21:00:42.190Z,,,,,,,,,,NaN,,,,,,,,low,low,,,,,,false,,,,false,791817.7999999523,791817.7999999523,,791817.5,,791472.937,4,500,,
break_continue,html.Screen,10_18_2,2023-11-14T21:00:42.191Z,,,,,,,,,,NaN,,,,,,,,low,low,,,,,,false,,,,false,791818.1000000238,791818,,791818,,791472.937,4,500,,
sequence,flow.Sequence,10_18,2023-11-14T21:00:42.191Z,,,,,,,,,,4961.733000000007,completion,,,,,,,low,low,,,,,,false,,,,false,791818.1000000238,791818,786839.49,787194.2000000477,786856.267,791472.937,4,500,,
trial,html.Screen,10_19_0,2023-11-14T21:00:46.142Z,,,,1,0.0418938536494534,-0.0678614270583654,,false,ll,4296.163000023807,response,-0.362759556503249,0.42580678553941265,-0.4999999999999994,-0.4824994038674204,0.47079084948446964,-0.4505776736093009,low,low,,ISIC_0027573.JPG,9,ISIC_0046422.JPG,484,false,hh,keypress(i),0,false,795769.2000000477,795769.1000000238,791456.198,791818.2000000477,791472.937,795422.952,4,500,20,
break,html.Screen,10_19_1,2023-11-14T21:00:46.142Z,,,,,,,,,,NaN,,,,,,,,low,low,,,,,,false,,,,false,795769.5,795769.3999999762,,795769.2999999523,,795422.952,4,500,,
break_continue,html.Screen,10_19_2,2023-11-14T21:00:46.142Z,,,,,,,,,,NaN,,,,,,,,low,low,,,,,,false,,,,false,795769.7999999523,795769.7000000477,,795769.6000000238,,795422.952,4,500,,
sequence,flow.Sequence,10_19,2023-11-14T21:00:46.142Z,,,,,,,,,,4296.763000047649,completion,,,,,,,low,low,,,,,,false,,,,false,795769.7999999523,795769.7000000477,791456.198,791818.1000000238,791472.937,795422.952,4,500,,
trial,html.Screen,10_20_0,2023-11-14T21:00:49.439Z,,,,1,-0.0283578106329894,0.0088840758711548,,false,ll,3643.2480000476353,response,-0.3529096325461128,0.42580678553941265,-0.4999999999999994,-0.314846434576292,0.47079084948446964,-0.4505776736093009,low,low,,ISIC_0060707.JPG,9,ISIC_8732757.JPG,484,false,hh,keypress(i),0,false,799066.3999999762,799066.2000000477,795406.209,795769.8999999762,795422.952,798722.975,4,500,21,
break,html.Screen,10_20_1,2023-11-14T21:00:49.440Z,,,,,,,,,,NaN,,,,,,,,low,low,,,,,,false,,,,false,799067.1000000238,799066.8999999762,,799066.6000000238,,798722.975,4,500,,
break_continue,html.Screen,10_20_2,2023-11-14T21:00:49.440Z,,,,,,,,,,NaN,,,,,,,,low,low,,,,,,false,,,,false,799067.6000000238,799067.3999999762,,799067.2000000477,,798722.975,4,500,,
sequence,flow.Sequence,10_20,2023-11-14T21:00:49.440Z,,,,,,,,,,3644.4479999761097,completion,,,,,,,low,low,,,,,,false,,,,false,799067.7000000477,799067.3999999762,795406.209,795769.8999999762,795422.952,798722.975,4,500,,
trial,html.Screen,10_21_0,2023-11-14T21:00:56.783Z,,,,1,0.0146597765042814,0.06222227493177,,false,hl,7687.525000000023,response,0.4627181389344465,0.42580678553941265,-0.4999999999999994,-0.5788765858924492,0.47079084948446964,-0.4505776736093009,high,low,,ISIC_5982769.JPG,10,ISIC_0030085.JPG,316,false,hh,keypress(i),0,false,806410.7999999523,806410.5,798706.214,799068,798722.975,806072.954,4,500,22,
break,html.Screen,10_21_1,2023-11-14T21:00:56.784Z,,,,,,,,,,NaN,,,,,,,,high,low,,,,,,false,,,,false,806411.7999999523,806411.6000000238,,806411.1000000238,,806072.954,4,500,,
break_continue,html.Screen,10_21_2,2023-11-14T21:00:56.785Z,,,,,,,,,,NaN,,,,,,,,high,low,,,,,,false,,,,false,806412.6000000238,806412.2000000477,,806412,,806072.954,4,500,,
sequence,flow.Sequence,10_21,2023-11-14T21:00:56.785Z,,,,,,,,,,7689.225000047707,completion,,,,,,,high,low,,,,,,false,,,,false,806412.8999999762,806412.2000000477,798706.214,799067.8999999762,798722.975,806072.954,4,500,,
trial,html.Screen,10_22_0,2023-11-14T21:00:59.471Z,,,,1,0.0629648527969799,-0.0694960898867798,,false,hl,3025.2460000476567,response,0.4695840440254127,0.42580678553941265,-0.4999999999999994,-0.3329535496042984,0.47079084948446964,-0.4505776736093009,high,low,,ISIC_0025597.JPG,9,ISIC_1046678.JPG,316,false,hh,keypress(i),0,false,809098.3999999762,809098.2000000477,806056.405,806413.1000000238,806072.954,808756.321,4,500,23,
break,html.Screen,10_22_1,2023-11-14T21:00:59.472Z,,,,,,,,,,NaN,,,,,,,,high,low,,,,,,false,,,,false,809099.2999999523,809099.1000000238,,809098.7999999523,,808756.321,4,500,,
break_continue,html.Screen,10_22_2,2023-11-14T21:00:59.472Z,,,,,,,,,,NaN,,,,,,,,high,low,,,,,,false,,,,false,809099.7999999523,809099.6000000238,,809099.3999999762,,808756.321,4,500,,
sequence,flow.Sequence,10_22,2023-11-14T21:00:59.472Z,,,,,,,,,,3026.646000023815,completion,,,,,,,high,low,,,,,,false,,,,false,809100,809099.6000000238,806056.405,806413,806072.954,808756.321,4,500,,
trial,html.Screen,10_23_0,2023-11-14T21:01:06.783Z,,,,1,-0.0586798548295751,0.0060040805764433,,true,ll,7653.97899995232,response,-0.5346316539499386,0.42580678553941265,-0.4999999999999994,-0.3987105518548898,0.47079084948446964,-0.4505776736093009,low,low,,ISIC_1552232.JPG,9,ISIC_6099476.JPG,484,false,ll,keypress(f),0,false,816410.5,816410.2999999523,808739.868,809100.1000000238,808756.321,816072.983,4,500,24,
break,html.Screen,10_23_1,2023-11-14T21:01:06.784Z,,,,,,,,,,NaN,,,,,,,,low,low,,,,,,false,,,,false,816411.2999999523,816411.1000000238,,816410.7000000477,,816072.983,4,500,,
break_continue,html.Screen,10_23_2,2023-11-14T21:01:06.784Z,,,,,,,,,,NaN,,,,,,,,low,low,,,,,,false,,,,false,816411.7999999523,816411.5,,816411.3999999762,,816072.983,4,500,,
sequence,flow.Sequence,10_23,2023-11-14T21:01:06.784Z,,,,,,,,,,7655.179000000004,completion,,,,,,,low,low,,,,,,false,,,,false,816411.7999999523,816411.5,808739.868,809100.1000000238,808756.321,816072.983,4,500,,
trial,html.Screen,10_24_0,2023-11-14T21:01:12.958Z,,,,1,-0.0501343550751953,-0.0101991443736165,,false,lh,6512.717000047676,response,-0.3671409261443313,0.42580678553941265,-0.4999999999999994,0.4120844596465405,0.47079084948446964,-0.4505776736093009,low,high,,ISIC_4232761.JPG,9,ISIC_0032425.JPG,249,false,hh,keypress(i),0,false,822585.7999999523,822585.7000000477,816056.271,816412,816072.983,822239.628,4,500,25,
break,html.Screen,10_24_1,2023-11-14T21:01:12.959Z,,,,,,,,,,NaN,,,,,,,,low,high,,,,,,false,,,,false,822586.2999999523,822586.1000000238,,822585.8999999762,,822239.628,4,500,,
break_continue,html.Screen,10_24_2,2023-11-14T21:01:12.959Z,,,,,,,,,,NaN,,,,,,,,low,high,,,,,,false,,,,false,822586.5,822586.3999999762,,822586.2999999523,,822239.628,4,500,,
sequence,flow.Sequence,10_24,2023-11-14T21:01:12.959Z,,,,,,,,,,6513.416999976151,completion,,,,,,,low,high,,,,,,false,,,,false,822586.5,822586.3999999762,816056.271,816412,816072.983,822239.628,4,500,,
trial,html.Screen,10_25_0,2023-11-14T21:01:16.414Z,,,,1,-0.0118382036798625,-0.0300588245877227,,false,lh,3801.371999999974,response,-0.5024245210966175,0.42580678553941265,-0.4999999999999994,0.3690459310158711,0.47079084948446964,-0.4505776736093009,low,high,,ISIC_4748605.JPG,10,ISIC_0016082.JPG,249,false,ll,keypress(f),0,false,826041.2999999523,826041,822222.814,822586.6000000238,822239.628,825706.299,4,500,26,
break,html.Screen,10_25_1,2023-11-14T21:01:16.414Z,,,,,,,,,,NaN,,,,,,,,low,high,,,,,,false,,,,false,826041.6000000238,826041.5,,826041.2999999523,,825706.299,4,500,,
break_continue,html.Screen,10_25_2,2023-11-14T21:01:16.414Z,,,,,,,,,,NaN,,,,,,,,low,high,,,,,,false,,,,false,826041.7999999523,826041.7000000477,,826041.7000000477,,825706.299,4,500,,
sequence,flow.Sequence,10_25,2023-11-14T21:01:16.414Z,,,,,,,,,,3802.0720000476576,completion,,,,,,,low,high,,,,,,false,,,,false,826041.8999999762,826041.7000000477,822222.814,822586.6000000238,822239.628,825706.299,4,500,,
trial,html.Screen,10_26_0,2023-11-14T21:01:22.718Z,,,,1,-0.0423567271646023,-0.0380126882576854,,false,lh,6639.301000023843,response,-0.4330015077125896,0.42580678553941265,-0.4999999999999994,0.4783979673053792,0.47079084948446964,-0.4505776736093009,low,high,,ISIC_0046932.JPG,10,ISIC_0026470.JPG,249,false,hl,keypress(j),0,false,832345.7999999523,832345.6000000238,825689.647,826042,825706.299,832006.394,4,500,27,
break,html.Screen,10_26_1,2023-11-14T21:01:22.719Z,,,,,,,,,,NaN,,,,,,,,low,high,,,,,,false,,,,false,832346.3999999762,832346.1000000238,,832345.8999999762,,832006.394,4,500,,
break_continue,html.Screen,10_26_2,2023-11-14T21:01:22.719Z,,,,,,,,,,NaN,,,,,,,,low,high,,,,,,false,,,,false,832346.7000000477,832346.5,,832346.3999999762,,832006.394,4,500,,
sequence,flow.Sequence,10_26,2023-11-14T21:01:22.719Z,,,,,,,,,,6640.201000000001,completion,,,,,,,low,high,,,,,,false,,,,false,832346.7999999523,832346.5,825689.647,826042,825706.299,832006.394,4,500,,
trial,html.Screen,10_27_0,2023-11-14T21:01:27.677Z,,,,1,-0.068830656047477,0.0471494209282208,,false,hh,5298.505999976187,response,0.3687790699474084,0.42580678553941265,-0.4999999999999994,0.3575192061061831,0.47079084948446964,-0.4505776736093009,high,high,,ISIC_0029982.JPG,10,ISIC_0058946.JPG,421,false,hl,keypress(j),0,false,837305,837304.8999999762,831989.641,832346.7999999523,832006.394,836956.326,4,500,28,
break,html.Screen,10_27_1,2023-11-14T21:01:27.678Z,,,,,,,,,,NaN,,,,,,,,high,high,,,,,,false,,,,false,837305.2999999523,837305.2999999523,,837305.1000000238,,836956.326,4,500,,
break_continue,html.Screen,10_27_2,2023-11-14T21:01:27.678Z,,,,,,,,,,NaN,,,,,,,,high,high,,,,,,false,,,,false,837305.5,837305.3999999762,,837305.2999999523,,836956.326,4,500,,
sequence,flow.Sequence,10_27,2023-11-14T21:01:27.678Z,,,,,,,,,,5299.005999976187,completion,,,,,,,high,high,,,,,,false,,,,false,837305.6000000238,837305.3999999762,831989.641,832346.7999999523,832006.394,836956.326,4,500,,
trial,html.Screen,10_28_0,2023-11-14T21:01:34.029Z,,,,1,-0.0267918352484299,-0.0630167830859455,,false,ll,6700.473999952315,response,-0.3243671709837958,0.42580678553941265,-0.4999999999999994,-0.2730200692502385,0.47079084948446964,-0.4505776736093009,low,low,,ISIC_0064874.JPG,10,ISIC_0054318.JPG,484,false,hh,keypress(i),0,false,843656.8999999762,843656.7999999523,836939.563,837305.6000000238,836956.326,843322.953,4,500,29,
break,html.Screen,10_28_1,2023-11-14T21:01:34.030Z,,,,,,,,,,NaN,,,,,,,,low,low,,,,,,false,,,,false,843657.2999999523,843657.2000000477,,843657,,843322.953,4,500,,
break_continue,html.Screen,10_28_2,2023-11-14T21:01:34.030Z,,,,,,,,,,NaN,,,,,,,,low,low,,,,,,false,,,,false,843657.5,843657.3999999762,,843657.3999999762,,843322.953,4,500,,
sequence,flow.Sequence,10_28,2023-11-14T21:01:34.030Z,,,,,,,,,,6701.073999976157,completion,,,,,,,low,low,,,,,,false,,,,false,843657.7000000477,843657.3999999762,836939.563,837305.6000000238,836956.326,843322.953,4,500,,
trial,html.Screen,10_29_0,2023-11-14T21:01:36.397Z,,,,1,-0.0367706518941078,0.0161069838272154,,false,lh,2701.9469999761786,response,-0.6590768060608115,0.42580678553941265,-0.4999999999999994,0.3896165303126859,0.47079084948446964,-0.4505776736093009,low,high,,ISIC_0033419.JPG,9,ISIC_0026348.JPG,249,false,hh,keypress(i),0,false,846025,846024.8999999762,843306.263,843657.7000000477,843322.953,845689.687,4,500,30,
break,html.Screen,10_29_1,2023-11-14T21:01:36.398Z,,,,,,,,,,NaN,,,,,,,,low,high,,,,,,false,,,,false,846025.2999999523,846025.2000000477,,846025.2000000477,,845689.687,4,500,,
break_continue,html.Screen,10_29_2,2023-11-14T21:01:36.398Z,,,,,,,,,,NaN,,,,,,,,low,high,,,,,,false,,,,false,846025.6000000238,846025.3999999762,,846025.3999999762,,845689.687,4,500,,
sequence,flow.Sequence,10_29,2023-11-14T21:01:36.398Z,,,,,,,,,,2702.4469999761786,completion,,,,,,,low,high,,,,,,false,,,,false,846025.6000000238,846025.3999999762,843306.263,843657.7000000477,843322.953,845689.687,4,500,,
trial,html.Screen,10_30_0,2023-11-14T21:01:39.230Z,,,,1,0.0603356922898045,0.0630785445312754,,false,hl,3167.5130000476493,response,0.4033213268740173,0.42580678553941265,-0.4999999999999994,-0.5517769885816762,0.47079084948446964,-0.4505776736093009,high,low,,ISIC_9996128.JPG,9,ISIC_0609067.JPG,316,false,hh,keypress(i),0,false,848857.2000000477,848857.2000000477,845672.953,846025.7000000477,845689.687,848522.985,4,500,31,
break,html.Screen,10_30_1,2023-11-14T21:01:39.230Z,,,,,,,,,,NaN,,,,,,,,high,low,,,,,,false,,,,false,848857.5,848857.5,,848857.3999999762,,848522.985,4,500,,
break_continue,html.Screen,10_30_2,2023-11-14T21:01:39.230Z,,,,,,,,,,NaN,,,,,,,,high,low,,,,,,false,,,,false,848857.7999999523,848857.7000000477,,848857.6000000238,,848522.985,4,500,,
sequence,flow.Sequence,10_30,2023-11-14T21:01:39.230Z,,,,,,,,,,3168.0130000476493,completion,,,,,,,high,low,,,,,,false,,,,false,848857.8999999762,848857.7000000477,845672.953,846025.6000000238,845689.687,848522.985,4,500,,
trial,html.Screen,10_31_0,2023-11-14T21:01:41.422Z,,,,1,0.0088741920055285,0.0058246074740588,,true,hh,2526.2150000476977,response,0.279494431719346,0.42580678553941265,-0.4999999999999994,0.292124302297167,0.47079084948446964,-0.4505776736093009,high,high,,ISIC_4136663.JPG,10,ISIC_0010036.JPG,421,false,hh,keypress(i),0,false,851049.2999999523,851049.2000000477,848506.264,848857.8999999762,848522.985,850706.427,4,500,32,
break,html.Screen,10_31_1,2023-11-14T21:01:41.422Z,,,,,,,,,,NaN,,,,,,,,high,high,,,,,,false,,,,false,851049.7000000477,851049.6000000238,,851049.3999999762,,850706.427,4,500,,
break_continue,html.Screen,10_31_2,2023-11-14T21:01:41.422Z,,,,,,,,,,NaN,,,,,,,,high,high,,,,,,false,,,,false,851049.7999999523,851049.7000000477,,851049.7000000477,,850706.427,4,500,,
sequence,flow.Sequence,10_31,2023-11-14T21:01:41.422Z,,,,,,,,,,2526.7150000476977,completion,,,,,,,high,high,,,,,,false,,,,false,851049.8999999762,851049.7000000477,848506.264,848857.8999999762,848522.985,850706.427,4,500,,
trial,html.Screen,10_32_0,2023-11-14T21:01:46.334Z,,,,1,0.0528688218207886,-0.0356788458032396,,false,ll,5254.773000047659,response,-0.6200593564670052,0.42580678553941265,-0.4999999999999994,-0.5190942529109691,0.47079084948446964,-0.4505776736093009,low,low,,ISIC_5287748.JPG,10,ISIC_6451703.JPG,484,false,lh,keypress(e),0,false,855961.2999999523,855961.2000000477,850689.651,851049.8999999762,850706.427,855623.003,4,500,33,
break,html.Screen,10_32_1,2023-11-14T21:01:46.334Z,,,,,,,,,,NaN,,,,,,,,low,low,,,,,,false,,,,false,855961.6000000238,855961.5,,855961.2999999523,,855623.003,4,500,,
break_continue,html.Screen,10_32_2,2023-11-14T21:01:46.334Z,,,,,,,,,,NaN,,,,,,,,low,low,,,,,,false,,,,false,855961.8999999762,855961.7000000477,,855961.7000000477,,855623.003,4,500,,
sequence,flow.Sequence,10_32,2023-11-14T21:01:46.334Z,,,,,,,,,,5255.273000047659,completion,,,,,,,low,low,,,,,,false,,,,false,855961.8999999762,855961.7000000477,850689.651,851049.8999999762,850706.427,855623.003,4,500,,
trial,html.Screen,10_33_0,2023-11-14T21:01:48.958Z,,,,1,-0.0501343550751953,-0.0101991443736165,,false,hl,2962.29699995229,response,0.2548036235432037,0.42580678553941265,-0.4999999999999994,-0.4760205832624455,0.47079084948446964,-0.4505776736093009,high,low,,ISIC_4232761.JPG,10,ISIC_0238824.JPG,316,false,hh,keypress(i),0,false,858585.3999999762,858585.2999999523,855606.336,855962,855623.003,858239.64,4,500,34,
break,html.Screen,10_33_1,2023-11-14T21:01:48.958Z,,,,,,,,,,NaN,,,,,,,,high,low,,,,,,false,,,,false,858585.7999999523,858585.7000000477,,858585.5,,858239.64,4,500,,
break_continue,html.Screen,10_33_2,2023-11-14T21:01:48.958Z,,,,,,,,,,NaN,,,,,,,,high,low,,,,,,false,,,,false,858586,858586,,858585.7999999523,,858239.64,4,500,,
sequence,flow.Sequence,10_33,2023-11-14T21:01:48.958Z,,,,,,,,,,2962.996999999974,completion,,,,,,,high,low,,,,,,false,,,,false,858586,858586,855606.336,855962,855623.003,858239.64,4,500,,
trial,html.Screen,10_34_0,2023-11-14T21:01:54.718Z,,,,1,0.0497314815986203,-0.0303374618795786,,false,hh,6106.159999952302,response,0.6036081643440213,0.42580678553941265,-0.4999999999999994,0.6616963981472194,0.47079084948446964,-0.4505776736093009,high,high,,ISIC_6023504.JPG,10,ISIC_7167811.JPG,421,false,hl,keypress(j),0,false,864346,864345.7999999523,858222.997,858586.2000000477,858239.64,864006.346,4,500,35,
break,html.Screen,10_34_1,2023-11-14T21:01:54.719Z,,,,,,,,,,NaN,,,,,,,,high,high,,,,,,false,,,,false,864346.6000000238,864346.3999999762,,864346.1000000238,,864006.346,4,500,,
break_continue,html.Screen,10_34_2,2023-11-14T21:01:54.719Z,,,,,,,,,,NaN,,,,,,,,high,high,,,,,,false,,,,false,864346.8999999762,864346.7000000477,,864346.6000000238,,864006.346,4,500,,
sequence,flow.Sequence,10_34,2023-11-14T21:01:54.719Z,,,,,,,,,,6107.06000004767,completion,,,,,,,high,high,,,,,,false,,,,false,864346.8999999762,864346.7000000477,858222.997,858586.1000000238,858239.64,864006.346,4,500,,
trial,html.Screen,10_35_0,2023-11-14T21:01:59.166Z,,,,1,-0.024731486864197,-0.0504232274546553,,false,hh,4786.854000047664,response,0.5199046588169016,0.42580678553941265,-0.4999999999999994,0.6337866901884657,0.47079084948446964,-0.4505776736093009,high,high,,ISIC_4782878.JPG,10,ISIC_7984569.JPG,421,false,hl,keypress(j),0,false,868793.3999999762,868793.2000000477,863989.522,864347,864006.346,868456.352,4,500,36,
break,html.Screen,10_35_1,2023-11-14T21:01:59.166Z,,,,,,,,,,NaN,,,,,,,,high,high,,,,,,false,,,,false,868793.7999999523,868793.7000000477,,868793.5,,868456.352,4,500,,
break_continue,html.Screen,10_35_2,2023-11-14T21:01:59.166Z,,,,,,,,,,NaN,,,,,,,,high,high,,,,,,false,,,,false,868794.1000000238,868794,,868793.8999999762,,868456.352,4,500,,
sequence,flow.Sequence,10_35,2023-11-14T21:01:59.166Z,,,,,,,,,,4787.65399999998,completion,,,,,,,high,high,,,,,,false,,,,false,868794.2000000477,868794,863989.522,864347,864006.346,868456.352,4,500,,
trial,html.Screen,10_36_0,2023-11-14T21:02:03.325Z,,,,1,0.0367060100866019,0.0630207980628495,,true,hh,4496.648000000045,response,0.5962322188491738,0.42580678553941265,-0.4999999999999994,0.5545977128088403,0.47079084948446964,-0.4505776736093009,high,high,,ISIC_0028396.JPG,10,ISIC_0069087.JPG,421,false,hh,keypress(i),0,false,872953.1000000238,872953,868439.645,868794.2000000477,868456.352,872606.352,4,500,37,
break,html.Screen,10_36_1,2023-11-14T21:02:03.326Z,,,,,,,,,,NaN,,,,,,,,high,high,,,,,,false,,,,false,872953.5,872953.3999999762,,872953.2000000477,,872606.352,4,500,,
break_continue,html.Screen,10_36_2,2023-11-14T21:02:03.326Z,,,,,,,,,,NaN,,,,,,,,high,high,,,,,,false,,,,false,872953.7000000477,872953.5,,872953.5,,872606.352,4,500,,
sequence,flow.Sequence,10_36,2023-11-14T21:02:03.326Z,,,,,,,,,,4497.148000000045,completion,,,,,,,high,high,,,,,,false,,,,false,872953.7999999523,872953.5,868439.645,868794.2000000477,868456.352,872606.352,4,500,,
trial,html.Screen,10_37_0,2023-11-14T21:02:06.798Z,,,,1,0.0388181790775959,-0.0049623405709465,,true,hl,3818.8480000477284,response,0.5244878065717017,0.42580678553941265,-0.4999999999999994,-0.4140585357954949,0.47079084948446964,-0.4505776736093009,high,low,,ISIC_0061880.JPG,10,ISIC_0024333.JPG,316,false,hl,keypress(j),0,false,876425.2999999523,876425.2000000477,872589.603,872953.7999999523,872606.352,876089.755,4,500,38,
break,html.Screen,10_37_1,2023-11-14T21:02:06.798Z,,,,,,,,,,NaN,,,,,,,,high,low,,,,,,false,,,,false,876425.6000000238,876425.5,,876425.2999999523,,876089.755,4,500,,
break_continue,html.Screen,10_37_2,2023-11-14T21:02:06.798Z,,,,,,,,,,NaN,,,,,,,,high,low,,,,,,false,,,,false,876425.7999999523,876425.7000000477,,876425.7000000477,,876089.755,4,500,,
sequence,flow.Sequence,10_37,2023-11-14T21:02:06.798Z,,,,,,,,,,3819.3480000477284,completion,,,,,,,high,low,,,,,,false,,,,false,876425.8999999762,876425.7000000477,872589.603,872953.7999999523,872606.352,876089.755,4,500,,
trial,html.Screen,10_38_0,2023-11-14T21:02:13.039Z,,,,1,0.0074667911845194,-0.018500200317654,,false,hl,6576.845000023837,response,0.3434000052513378,0.42580678553941265,-0.4999999999999994,-0.6130988099315797,0.47079084948446964,-0.4505776736093009,high,low,,ISIC_0058723.JPG,10,ISIC_0011686.JPG,316,false,hh,keypress(i),0,false,882666.7000000477,882666.6000000238,876072.924,876425.8999999762,876089.755,882323.033,4,500,39,
break,html.Screen,10_38_1,2023-11-14T21:02:13.040Z,,,,,,,,,,NaN,,,,,,,,high,low,,,,,,false,,,,false,882667.2000000477,882667.1000000238,,882666.8999999762,,882323.033,4,500,,
break_continue,html.Screen,10_38_2,2023-11-14T21:02:13.040Z,,,,,,,,,,NaN,,,,,,,,high,low,,,,,,false,,,,false,882667.7000000477,882667.3999999762,,882667.2999999523,,882323.033,4,500,,
sequence,flow.Sequence,10_38,2023-11-14T21:02:13.040Z,,,,,,,,,,6577.6449999761535,completion,,,,,,,high,low,,,,,,false,,,,false,882667.7999999523,882667.3999999762,876072.924,876425.8999999762,876089.755,882323.033,4,500,,
trial,html.Screen,10_39_0,2023-11-14T21:02:19.166Z,,,,1,0.0497314815986203,-0.0303374618795786,,false,ll,6470.266999952262,response,-0.3518190864647957,0.42580678553941265,-0.4999999999999994,-0.3608984326703058,0.47079084948446964,-0.4505776736093009,low,low,,ISIC_6023504.JPG,9,ISIC_8165906.JPG,484,false,hl,keypress(j),0,false,888793.3999999762,888793.2999999523,882306.345,882667.8999999762,882323.033,888456.734,4,500,40,
break,html.Screen,10_39_1,2023-11-14T21:02:19.166Z,,,,,,,,,,NaN,,,,,,,,low,low,,,,,,false,,,,false,888793.7000000477,888793.6000000238,,888793.3999999762,,888456.734,4,500,,
break_continue,html.Screen,10_39_2,2023-11-14T21:02:19.166Z,,,,,,,,,,NaN,,,,,,,,low,low,,,,,,false,,,,false,888793.8999999762,888793.8999999762,,888793.7000000477,,888456.734,4,500,,
sequence,flow.Sequence,10_39,2023-11-14T21:02:19.166Z,,,,,,,,,,6470.866999976104,completion,,,,,,,low,low,,,,,,false,,,,false,888794,888793.8999999762,882306.345,882667.8999999762,882323.033,888456.734,4,500,,
trial,html.Screen,10_40_0,2023-11-14T21:02:24.734Z,,,,1,-0.0085390023861227,-0.051110950799465,,false,ll,5904.366000023787,response,-0.5149092782038214,0.42580678553941265,-0.4999999999999994,-0.4183824311609113,0.47079084948446964,-0.4505776736093009,low,low,,ISIC_6268546.JPG,10,ISIC_8194467.JPG,484,false,lh,keypress(e),0,false,894361.2000000477,894361.1000000238,888439.952,888794.1000000238,888456.734,894023.027,4,500,41,
break,html.Screen,10_40_1,2023-11-14T21:02:24.734Z,,,,,,,,,,NaN,,,,,,,,low,low,,,,,,false,,,,false,894361.6000000238,894361.5,,894361.2999999523,,894023.027,4,500,,
break_continue,html.Screen,10_40_2,2023-11-14T21:02:24.734Z,,,,,,,,,,NaN,,,,,,,,low,low,,,,,,false,,,,false,894361.7999999523,894361.7000000477,,894361.6000000238,,894023.027,4,500,,
sequence,flow.Sequence,10_40,2023-11-14T21:02:24.734Z,,,,,,,,,,5904.966000047629,completion,,,,,,,low,low,,,,,,false,,,,false,894361.7999999523,894361.7000000477,888439.952,888794,888456.734,894023.027,4,500,,
trial,html.Screen,10_41_0,2023-11-14T21:02:29.358Z,,,,1,-0.0480293506029756,-0.0744454320613987,,true,hh,4962.57300002384,response,0.4843280984727099,0.42580678553941265,-0.4999999999999994,0.3227978000477208,0.47079084948446964,-0.4505776736093009,high,high,,ISIC_1798471.JPG,10,ISIC_0057617.JPG,421,false,hh,keypress(i),0,false,898985.7000000477,898985.6000000238,894006.337,894361.8999999762,894023.027,898639.757,4,500,42,
break,html.Screen,10_41_1,2023-11-14T21:02:29.358Z,,,,,,,,,,NaN,,,,,,,,high,high,,,,,,false,,,,false,898986,898985.8999999762,,898985.7999999523,,898639.757,4,500,,
break_continue,html.Screen,10_41_2,2023-11-14T21:02:29.359Z,,,,,,,,,,NaN,,,,,,,,high,high,,,,,,false,,,,false,898986.2000000477,898986.2000000477,,898986.1000000238,,898639.757,4,500,,
sequence,flow.Sequence,10_41,2023-11-14T21:02:29.359Z,,,,,,,,,,4963.173000047682,completion,,,,,,,high,high,,,,,,false,,,,false,898986.2999999523,898986.2000000477,894006.337,894361.8999999762,894023.027,898639.757,4,500,,
trial,html.Screen,10_42_0,2023-11-14T21:02:34.206Z,,,,1,-0.0367706518941078,0.0161069838272154,,true,hl,5193.343000023859,response,0.444924633890564,0.42580678553941265,-0.4999999999999994,-0.3250771518202515,0.47079084948446964,-0.4505776736093009,high,low,,ISIC_0033419.JPG,9,ISIC_4307205.JPG,316,false,hl,keypress(j),0,false,903833.2000000477,903833.1000000238,898623.122,898986.2999999523,898639.757,903489.705,4,500,43,
break,html.Screen,10_42_1,2023-11-14T21:02:34.206Z,,,,,,,,,,NaN,,,,,,,,high,low,,,,,,false,,,,false,903833.6000000238,903833.5,,903833.3999999762,,903489.705,4,500,,
break_continue,html.Screen,10_42_2,2023-11-14T21:02:34.206Z,,,,,,,,,,NaN,,,,,,,,high,low,,,,,,false,,,,false,903833.8999999762,903833.7999999523,,903833.7000000477,,903489.705,4,500,,
sequence,flow.Sequence,10_42,2023-11-14T21:02:34.206Z,,,,,,,,,,5194.042999952333,completion,,,,,,,high,low,,,,,,false,,,,false,903834,903833.7999999523,898623.122,898986.2999999523,898639.757,903489.705,4,500,,
trial,html.Screen,10_43_0,2023-11-14T21:02:37.486Z,,,,1,0.0473541545202326,-0.0294076954053606,,false,ll,3623.9950000477256,response,-0.3830691508012895,0.42580678553941265,-0.4999999999999994,-0.5257812957521265,0.47079084948446964,-0.4505776736093009,low,low,,ISIC_0034065.JPG,9,ISIC_7351007.JPG,484,false,hl,keypress(j),0,false,907113.7999999523,907113.7000000477,903472.914,903834.1000000238,903489.705,906773.182,4,500,44,
break,html.Screen,10_43_1,2023-11-14T21:02:37.487Z,,,,,,,,,,NaN,,,,,,,,low,low,,,,,,false,,,,false,907114.2000000477,907114.1000000238,,907114,,906773.182,4,500,,
break_continue,html.Screen,10_43_2,2023-11-14T21:02:37.487Z,,,,,,,,,,NaN,,,,,,,,low,low,,,,,,false,,,,false,907114.5,907114.2999999523,,907114.2999999523,,906773.182,4,500,,
sequence,flow.Sequence,10_43,2023-11-14T21:02:37.487Z,,,,,,,,,,3624.594999952358,completion,,,,,,,low,low,,,,,,false,,,,false,907114.5,907114.2999999523,903472.914,903834.1000000238,903489.705,906773.182,4,500,,
trial,html.Screen,10_44_0,2023-11-14T21:02:41.519Z,,,,1,-0.0249297455748133,0.055986418955019,,false,lh,4372.918000023812,response,-0.4486073911400428,0.42580678553941265,-0.4999999999999994,0.2864755917223662,0.47079084948446964,-0.4505776736093009,low,high,,ISIC_3900049.JPG,8,ISIC_4099428.JPG,249,false,ll,keypress(f),0,false,911146.2999999523,911146.1000000238,906756.675,907114.6000000238,906773.182,910806.402,4,500,45,
break,html.Screen,10_44_1,2023-11-14T21:02:41.519Z,,,,,,,,,,NaN,,,,,,,,low,high,,,,,,false,,,,false,911147,911146.7999999523,,911146.5,,910806.402,4,500,,
break_continue,html.Screen,10_44_2,2023-11-14T21:02:41.520Z,,,,,,,,,,NaN,,,,,,,,low,high,,,,,,false,,,,false,911147.2999999523,911147.2000000477,,911147.1000000238,,910806.402,4,500,,
sequence,flow.Sequence,10_44,2023-11-14T21:02:41.520Z,,,,,,,,,,4374.018000047654,completion,,,,,,,low,high,,,,,,false,,,,false,911147.5,911147.2000000477,906756.675,907114.6000000238,906773.182,910806.402,4,500,,
trial,html.Screen,10_45_0,2023-11-14T21:02:44.846Z,,,,1,0.0644356642124594,-0.0565130492997401,,false,ll,3666.798000047682,response,-0.682610301523578,0.42580678553941265,-0.4999999999999994,-0.3788658849089676,0.47079084948446964,-0.4505776736093009,low,low,,ISIC_7520843.JPG,9,ISIC_1315123.JPG,484,false,hl,keypress(j),0,false,914473.2999999523,914473.2000000477,910789.882,911147.5,910806.402,914156.419,4,500,46,
break,html.Screen,10_45_1,2023-11-14T21:02:44.846Z,,,,,,,,,,NaN,,,,,,,,low,low,,,,,,false,,,,false,914473.7000000477,914473.6000000238,,914473.3999999762,,914156.419,4,500,,
break_continue,html.Screen,10_45_2,2023-11-14T21:02:44.846Z,,,,,,,,,,NaN,,,,,,,,low,low,,,,,,false,,,,false,914473.8999999762,914473.7999999523,,914473.7999999523,,914156.419,4,500,,
sequence,flow.Sequence,10_45,2023-11-14T21:02:44.846Z,,,,,,,,,,3667.3979999523144,completion,,,,,,,low,low,,,,,,false,,,,false,914474,914473.7999999523,910789.882,911147.5,910806.402,914156.419,4,500,,
trial,html.Screen,10_46_0,2023-11-14T21:02:49.950Z,,,,1,0.0478761683145946,-0.012927090508672,,false,ll,5421.281000047689,response,-0.5484059546690797,0.42580678553941265,-0.4999999999999994,-0.3291604134905415,0.47079084948446964,-0.4505776736093009,low,low,,ISIC_9631669.JPG,9,ISIC_4137545.JPG,484,false,lh,keypress(e),0,false,919577.8999999762,919577.7000000477,914139.757,914474.1000000238,914156.419,919239.784,4,500,47,
break,html.Screen,10_46_1,2023-11-14T21:02:49.951Z,,,,,,,,,,NaN,,,,,,,,low,low,,,,,,false,,,,false,919578.3999999762,919578.2999999523,,919578,,919239.784,4,500,,
break_continue,html.Screen,10_46_2,2023-11-14T21:02:49.951Z,,,,,,,,,,NaN,,,,,,,,low,low,,,,,,false,,,,false,919578.7999999523,919578.6000000238,,919578.5,,919239.784,4,500,,
sequence,flow.Sequence,10_46,2023-11-14T21:02:49.951Z,,,,,,,,,,5422.181000023847,completion,,,,,,,low,low,,,,,,false,,,,false,919578.8999999762,919578.6000000238,914139.757,914474.1000000238,914156.419,919239.784,4,500,,
trial,html.Screen,10_47_0,2023-11-14T21:02:54.494Z,,,,1,0.0632965338582772,0.0107588824722911,,false,hl,4881.816000023857,response,0.4648342082776699,0.42580678553941265,-0.4999999999999994,-0.262740990134521,0.47079084948446964,-0.4505776736093009,high,low,,ISIC_1265755.JPG,8,ISIC_0711360.JPG,316,false,hh,keypress(i),0,false,924121.7000000477,924121.6000000238,919222.976,919579.1000000238,919239.784,923773.078,4,500,48,
break,html.Screen,10_47_1,2023-11-14T21:02:54.494Z,,,,,,,,,,NaN,,,,,,,,high,low,,,,,,false,,,,false,924122.2000000477,924122.1000000238,,924121.7999999523,,923773.078,4,500,,
break_continue,html.Screen,10_47_2,2023-11-14T21:02:54.495Z,,,,,,,,,,NaN,,,,,,,,high,low,,,,,,false,,,,false,924122.6000000238,924122.3999999762,,924122.2999999523,,923773.078,4,500,,
sequence,flow.Sequence,10_47,2023-11-14T21:02:54.495Z,,,,,,,,,,4882.615999976173,completion,,,,,,,high,low,,,,,,false,,,,false,924122.7000000477,924122.3999999762,919222.976,919579,919239.784,923773.078,4,500,,
trial,html.Screen,10_48_0,2023-11-14T21:02:57.854Z,,,,1,0.0074667911845194,-0.018500200317654,,false,hl,3708.622000047704,response,0.4208516177220461,0.42580678553941265,-0.4999999999999994,-0.3061108891696823,0.47079084948446964,-0.4505776736093009,high,low,,ISIC_0058723.JPG,9,ISIC_6269414.JPG,316,false,hh,keypress(i),0,false,927481.7999999523,927481.7000000477,923756.443,924122.7999999523,923773.078,927139.835,4,500,49,
break,html.Screen,10_48_1,2023-11-14T21:02:57.854Z,,,,,,,,,,NaN,,,,,,,,high,low,,,,,,false,,,,false,927482.2000000477,927482.2000000477,,927481.8999999762,,927139.835,4,500,,
break_continue,html.Screen,10_48_2,2023-11-14T21:02:57.855Z,,,,,,,,,,NaN,,,,,,,,high,low,,,,,,false,,,,false,927482.3999999762,927482.2999999523,,927482.2000000477,,927139.835,4,500,,
sequence,flow.Sequence,10_48,2023-11-14T21:02:57.855Z,,,,,,,,,,3709.221999952337,completion,,,,,,,high,low,,,,,,false,,,,false,927482.5,927482.2999999523,923756.443,924122.7000000477,923773.078,927139.835,4,500,,
trial,html.Screen,10_49_0,2023-11-14T21:03:03.599Z,,,,1,0.0074667911845194,-0.018500200317654,,false,lh,6086.564999976195,response,-0.5121203468627897,0.42580678553941265,-0.4999999999999994,0.3333956342008791,0.47079084948446964,-0.4505776736093009,low,high,,ISIC_0058723.JPG,9,ISIC_0025015.JPG,249,false,hh,keypress(i),0,false,933226.6000000238,933226.3999999762,927123.302,927482.5,927139.835,932889.779,4,500,50,
break,html.Screen,10_49_1,2023-11-14T21:03:03.600Z,,,,,,,,,,NaN,,,,,,,,low,high,,,,,,false,,,,false,933227.2999999523,933227.1000000238,,933226.7999999523,,932889.779,4,500,,
break_continue,html.Screen,10_49_2,2023-11-14T21:03:03.600Z,,,,,,,,,,NaN,,,,,,,,low,high,,,,,,false,,,,false,933227.8999999762,933227.7000000477,,933227.5,,932889.779,4,500,,
