sender,sender_type,sender_id,timestamp,meta,,age,blockNo,c1,c2,condition,correct,correctResponse,duration,ended_on,f1,f1_high,f1_low,f2,f2_high,f2_low,feature_level1,feature_level2,gender,img_left,img_reveal,img_right,n_target_images,practice,response,response_action,selection_duration,staircase,time_commit,time_end,time_render,time_run,time_show,time_switch,total_blocks,total_trials,trialNo,url
informed_consent,html.Screen,0,2023-11-14T19:36:09.545Z,"{""labjs_version"":""20.2.4"",""labjs_build"":{""flavor"":""development"",""commit"":""f5b4a49f956347addd546a832a3327688c2c0fef""},""location"":""https://labjs.felixhenninger.com/api/labjs_preview/index.html"",""userAgent"":""Mozilla/5.0 (Windows NT 10.0; Win64; x64) AppleWebKit/537.36 (KHTML, like Gecko) Chrome/119.0.0.0 Safari/537.36"",""platform"":""Win32"",""language"":""en-US"",""locale"":""en-US"",""timeZone"":""America/Chicago"",""timezoneOffset"":360,""screen_width"":1680,""screen_height"":1050,""scroll_width"":825,""scroll_height"":888,""window_innerWidth"":825,""window_innerHeight"":936,""devicePixelRatio"":1}",,,,,,,,,19689.583000002982,response,,,,,,,,,,,,,,,consent,click button,,,20328.60000000894,20319.70000000298,613.357,609.6000000089407,630.117,20335.129,,,,{}
Demography form,html.Form,1,2023-11-14T19:36:16.985Z,,,20,,,,,,,7433.27100000596,form submission,,,,,,,,,male,,,,,,,,,,27768.5,27768.40000000596,20318.466,20328.79999999702,20335.129,27766.196,,,,
Welcome,html.Screen,2,2023-11-14T19:36:37.569Z,,,,,,,"[""bor"",""col""]",,,20585.60399999702,response,,,,,,,,,,,,,,,continue,click button,,,48352.29999999702,48351.79999999702,27749.597,27768.60000000894,27766.196,48356.278,,,,
demo_instructions,html.Screen,3,2023-11-14T19:37:03.074Z,,,,,,,,,,25499.52199999702,response,,,,,,,,,,,,,,,continue,click button,,,73856.29999999702,73855.79999999702,48339.779,48352.40000000596,48356.278,73872.634,,,,
trial,html.Screen,4_0_0,2023-11-14T19:37:18.312Z,,,,0,0.7438008784971919,-0.7701607600068142,,true,lh,15220.865999999995,response,-0.7308116448711435,0.8999999999999997,-0.8999999999999997,0.908713834988551,0.8999999999999997,-0.8999999999999997,low,high,,ISIC_8493108.JPG,,ISIC_7811951.JPG,29,true,lh,keypress(e),100,false,89094,89093.5,73856.142,73856.5,73872.634,89118.973,1,16,1,
sequence,flow.Sequence,4_0,2023-11-14T19:37:18.312Z,,,,,,,,,,15220.865999999995,completion,,,,,,,low,high,,,,,,true,,,,false,89095,89093.5,73856.142,73856.40000000596,73872.634,89118.973,1,16,,
trial,html.Screen,4_1_0,2023-11-14T19:37:26.143Z,,,,0,0.8987343013179191,-0.8149073454566363,,true,lh,7805.826999997022,response,-0.8110121381849364,0.8999999999999997,-0.8999999999999997,0.7563142141851558,0.8999999999999997,-0.8999999999999997,low,high,,ISIC_0472513.JPG,,ISIC_0033605.JPG,29,true,lh,keypress(e),100,false,96925.29999999702,96924.79999999702,89102.25,89095.40000000596,89118.973,96950.899,1,16,2,
sequence,flow.Sequence,4_1,2023-11-14T19:37:26.144Z,,,,,,,,,,7805.826999997022,completion,,,,,,,low,high,,,,,,true,,,,false,96926,96924.79999999702,89102.25,89095.20000000298,89118.973,96950.899,1,16,,
trial,html.Screen,4_2_0,2023-11-14T19:37:36.712Z,,,,0,0.7629099401226335,-0.8515956627075536,,true,lh,10543.001000005956,response,-0.989300717252516,0.8999999999999997,-0.8999999999999997,0.7908280206937478,0.8999999999999997,-0.8999999999999997,low,high,,ISIC_0028718.JPG,,ISIC_6416533.JPG,29,true,lh,keypress(e),100,false,107494.5,107493.90000000596,96934.289,96926.5,96950.899,107521.703,1,16,3,
sequence,flow.Sequence,4_2,2023-11-14T19:37:36.713Z,,,,,,,,,,10543.001000005956,completion,,,,,,,low,high,,,,,,true,,,,false,107495.40000000596,107493.90000000596,96934.289,96926.29999999702,96950.899,107521.703,1,16,,
trial,html.Screen,4_3_0,2023-11-14T19:37:47.814Z,,,,0,0.9111352818043872,-0.7517932332411794,,true,lh,11074.297000000006,response,-0.930804711032185,0.8999999999999997,-0.8999999999999997,0.7294067991476295,0.8999999999999997,-0.8999999999999997,low,high,,ISIC_3346045.JPG,,ISIC_5067317.JPG,29,true,lh,keypress(e),100,false,118596.60000000894,118596,107504.861,107495.79999999702,107521.703,118626.438,1,16,4,
sequence,flow.Sequence,4_3,2023-11-14T19:37:47.815Z,,,,,,,,,,11074.297000000006,completion,,,,,,,low,high,,,,,,true,,,,false,118597.40000000596,118596,107504.861,107495.60000000894,107521.703,118626.438,1,16,,
trial,html.Screen,4_4_0,2023-11-14T19:37:57.139Z,,,,0,0.8137027730168936,0.7771609347349258,,true,ll,9294.662000008946,response,-0.905890181856784,0.8999999999999997,-0.8999999999999997,-0.7211537413352586,0.8999999999999997,-0.8999999999999997,low,low,,ISIC_7899041.JPG,,ISIC_6507640.JPG,169,true,ll,keypress(f),100,false,127921.70000000298,127921.10000000894,118609.795,118598,118626.438,127944.783,1,16,5,
sequence,flow.Sequence,4_4,2023-11-14T19:37:57.140Z,,,,,,,,,,9294.662000008946,completion,,,,,,,low,low,,,,,,true,,,,false,127922.5,127921.10000000894,118609.795,118597.90000000596,118626.438,127944.783,1,16,,
trial,html.Screen,4_5_0,2023-11-14T19:38:16.098Z,,,,0,0.7914343157165398,0.7781630990015259,,true,ll,18935.117000005965,response,-0.7936051642828523,0.8999999999999997,-0.8999999999999997,-0.7963514435349658,0.8999999999999997,-0.8999999999999997,low,low,,ISIC_0026081.JPG,,ISIC_0027031.JPG,169,true,ll,keypress(f),100,false,146880.5,146879.90000000596,127927.958,127922.79999999702,127944.783,146898.138,1,16,6,
sequence,flow.Sequence,4_5,2023-11-14T19:38:16.098Z,,,,,,,,,,18935.117000005965,completion,,,,,,,low,low,,,,,,true,,,,false,146881.20000000298,146879.90000000596,127927.958,127922.79999999702,127944.783,146898.138,1,16,,
trial,html.Screen,4_6_0,2023-11-14T19:38:31.279Z,,,,0,1.017768542725066,0.9045368314063942,,true,ll,15163.562000002974,response,-1.0054903293075117,0.8999999999999997,-0.8999999999999997,-0.7540787139679275,0.8999999999999997,-0.8999999999999997,low,low,,ISIC_0031752.JPG,,ISIC_0005686.JPG,169,true,ll,keypress(f),100,false,162062.20000000298,162061.70000000298,146881.52,146881.60000000894,146898.138,162077.693,1,16,7,
sequence,flow.Sequence,4_6,2023-11-14T19:38:31.280Z,,,,,,,,,,15163.562000002974,completion,,,,,,,low,low,,,,,,true,,,,false,162062.70000000298,162061.70000000298,146881.52,146881.40000000596,146898.138,162077.693,1,16,,
trial,html.Screen,4_7_0,2023-11-14T19:38:38.045Z,,,,0,0.8689339070965472,0.9278851723466304,,true,ll,6749.407000008941,response,-0.9048246926578776,0.8999999999999997,-0.8999999999999997,-1.0392108946107133,0.8999999999999997,-0.8999999999999997,low,low,,ISIC_2221217.JPG,,ISIC_0068544.JPG,169,true,ll,keypress(f),100,false,168827.40000000596,168827.10000000894,162061.256,162063,162077.693,168857.567,1,16,8,
sequence,flow.Sequence,4_7,2023-11-14T19:38:38.045Z,,,,,,,,,,6749.407000008941,completion,,,,,,,low,low,,,,,,true,,,,false,168828.10000000894,168827.10000000894,162061.256,162063,162077.693,168857.567,1,16,,
trial,html.Screen,4_8_0,2023-11-14T19:38:52.474Z,,,,0,-0.84290786638064,0.7332521189371746,,true,hl,14398.13300000297,response,0.9198276163642348,0.8999999999999997,-0.8999999999999997,-0.7754915110667046,0.8999999999999997,-0.8999999999999997,high,low,,ISIC_4708642.JPG,,ISIC_7840728.JPG,43,true,hl,keypress(j),100,false,183256.20000000298,183255.70000000298,168840.908,168828.40000000596,168857.567,183285.655,1,16,9,
sequence,flow.Sequence,4_8,2023-11-14T19:38:52.474Z,,,,,,,,,,14398.13300000297,completion,,,,,,,high,low,,,,,,true,,,,false,183256.90000000596,183255.70000000298,168840.908,168828.29999999702,168857.567,183285.655,1,16,,
trial,html.Screen,4_9_0,2023-11-14T19:39:08.471Z,,,,0,-1.0453124399868816,0.8986747280184286,,true,hl,15967.345000000001,response,1.0788024398087033,0.8999999999999997,-0.8999999999999997,-0.9911875460374616,0.8999999999999997,-0.8999999999999997,high,low,,ISIC_0013967.JPG,,ISIC_5951430.JPG,43,true,hl,keypress(j),100,false,199253.40000000596,199253,183269.003,183257.29999999702,183285.655,199283.429,1,16,10,
sequence,flow.Sequence,4_9,2023-11-14T19:39:08.471Z,,,,,,,,,,15967.345000000001,completion,,,,,,,high,low,,,,,,true,,,,false,199254,199253,183269.003,183257.20000000298,183285.655,199283.429,1,16,,
trial,html.Screen,4_10_0,2023-11-14T19:39:25.251Z,,,,0,-0.789083277544982,0.7172067273002093,,true,hl,16749.971000005957,response,0.9198276163642348,0.8999999999999997,-0.8999999999999997,-0.7754915110667046,0.8999999999999997,-0.8999999999999997,high,low,,ISIC_0011030.JPG,,ISIC_7840728.JPG,43,true,hl,keypress(j),100,false,216033.79999999702,216033.40000000596,199266.776,199254.29999999702,199283.429,216049.443,1,16,11,
sequence,flow.Sequence,4_10,2023-11-14T19:39:25.252Z,,,,,,,,,,16749.971000005957,completion,,,,,,,high,low,,,,,,true,,,,false,216034.5,216033.40000000596,199266.776,199254.20000000298,199283.429,216049.443,1,16,,
trial,html.Screen,4_11_0,2023-11-14T19:39:32.272Z,,,,0,-0.8719231363109603,0.7704280220140033,,true,hl,7004.8569999970205,response,0.9089402323867112,0.8999999999999997,-0.8999999999999997,-0.8034544077281132,0.8999999999999997,-0.8999999999999997,high,low,,ISIC_0029453.JPG,,ISIC_3585381.JPG,43,true,hl,keypress(j),100,false,223054.70000000298,223054.29999999702,216032.914,216034.70000000298,216049.443,223079.969,1,16,12,
sequence,flow.Sequence,4_11,2023-11-14T19:39:32.273Z,,,,,,,,,,7004.8569999970205,completion,,,,,,,high,low,,,,,,true,,,,false,223055.40000000596,223054.29999999702,216032.914,216034.60000000894,216049.443,223079.969,1,16,,
trial,html.Screen,4_12_0,2023-11-14T19:39:42.061Z,,,,0,-1.0040510013663018,-0.9707475308236284,,true,hh,9763.131000008929,response,0.7618930412298525,0.8999999999999997,-0.8999999999999997,0.7478234228404927,0.8999999999999997,-0.8999999999999997,high,high,,ISIC_0026911.JPG,,ISIC_0062525.JPG,184,true,hh,keypress(i),100,false,232843.40000000596,232843.10000000894,223063.083,223055.60000000894,223079.969,232865.635,1,16,13,
sequence,flow.Sequence,4_12,2023-11-14T19:39:42.062Z,,,,,,,,,,9763.131000008929,completion,,,,,,,high,high,,,,,,true,,,,false,232844.10000000894,232843.10000000894,223063.083,223055.5,223079.969,232865.635,1,16,,
trial,html.Screen,4_13_0,2023-11-14T19:39:53.643Z,,,,0,-0.8231760770331785,-0.8700511901947987,,true,hh,11558.565000002971,response,1.063389737009574,0.8999999999999997,-0.8999999999999997,0.8248153645014629,0.8999999999999997,-0.8999999999999997,high,high,,ISIC_1254469.JPG,,ISIC_0027104.JPG,184,true,hh,keypress(i),100,false,244424.5,244424.20000000298,232848.839,232844.40000000596,232865.635,244454.678,1,16,14,
sequence,flow.Sequence,4_13,2023-11-14T19:39:53.643Z,,,,,,,,,,11558.565000002971,completion,,,,,,,high,high,,,,,,true,,,,false,244425.20000000298,244424.20000000298,232848.839,232844.29999999702,232865.635,244454.678,1,16,,
trial,html.Screen,4_14_0,2023-11-14T19:40:00.295Z,,,,0,-1.0795771850572986,-0.8992128581427353,,true,hh,6621.922000008926,response,0.7331902152638365,0.8999999999999997,-0.8999999999999997,0.9466874538814276,0.8999999999999997,-0.8999999999999997,high,high,,ISIC_0563533.JPG,,ISIC_0012107.JPG,184,true,hh,keypress(i),100,false,251076.90000000596,251076.60000000894,244438.156,244425.40000000596,244454.678,251101.219,1,16,15,
sequence,flow.Sequence,4_14,2023-11-14T19:40:00.296Z,,,,,,,,,,6621.922000008926,completion,,,,,,,high,high,,,,,,true,,,,false,251077.70000000298,251076.60000000894,244438.156,244425.40000000596,244454.678,251101.219,1,16,,
trial,html.Screen,4_15_0,2023-11-14T19:40:07.235Z,,,,0,-1.0122348575830964,-1.007833368115011,,true,hh,6915.080999997008,response,1.0638242779565084,0.8999999999999997,-0.8999999999999997,0.8353119112834058,0.8999999999999997,-0.8999999999999997,high,high,,ISIC_8145260.JPG,,ISIC_2071966.JPG,184,true,hh,keypress(i),100,false,258016.40000000596,258016.29999999702,251084.298,251078,251101.219,258048.027,1,16,16,
sequence,flow.Sequence,4_15,2023-11-14T19:40:07.235Z,,,,,,,,,,6915.080999997008,completion,,,,,,,high,high,,,,,,true,,,,false,258016.79999999702,258016.29999999702,251084.298,251077.79999999702,251101.219,258048.027,1,16,,
demonstration_loop,flow.Loop,4,2023-11-14T19:40:07.235Z,,,,,,,,,,184143.665999997,completion,,,,,,,,,,,,,,true,,,,false,258016.90000000596,258016.29999999702,73856.142,73856.40000000596,73872.634,258048.027,1,16,,
practice_instructions,html.Screen,5,2023-11-14T19:40:53.338Z,,,,,,,,,,46063.87300000596,response,,,,,,,,,,,,,,,continue,click button,,,304120.10000000894,304111.90000000596,258031.122,258017,258048.027,304120.787,,,,
trial,html.Screen,6_0_0,2023-11-14T19:41:00.352Z,,,,1,0.8380649167521746,0.7135701709445428,,true,ll,7006.512999997009,response,-0.8071149391753215,0.8999999999999997,-0.8999999999999997,-0.9485840589720004,0.8999999999999997,-0.8999999999999997,low,low,,ISIC_0010061.JPG,,ISIC_2784686.JPG,169,true,ll,keypress(f),0,false,311134.40000000596,311127.299999997,304104.356,304120.200000003,304120.787,311151.421,1,20,1,
sequence,flow.Sequence,6_0,2023-11-14T19:41:00.353Z,,,,,,,,,,7006.512999997009,completion,,,,,,,low,low,,,,,,true,,,,false,311134.5,311127.299999997,304104.356,304120.10000000894,304120.787,311151.421,1,20,,
trial,html.Screen,6_1_0,2023-11-14T19:41:05.532Z,,,,1,-0.7077100727123063,-1.0674669038247562,,true,hh,5162.179000008968,response,0.7167356289126139,0.8999999999999997,-0.8999999999999997,0.9599274916161776,0.8999999999999997,-0.8999999999999997,high,high,,ISIC_0541345.JPG,,ISIC_0010810.JPG,184,true,hh,keypress(i),0,false,316314,316313.60000000894,311134.437,311134.5,311151.421,316328.099,1,20,2,
sequence,flow.Sequence,6_1,2023-11-14T19:41:05.533Z,,,,,,,,,,5162.179000008968,completion,,,,,,,high,high,,,,,,true,,,,false,316314.5,316313.60000000894,311134.437,311134.5,311151.421,316328.099,1,20,,
trial,html.Screen,6_2_0,2023-11-14T19:41:13.404Z,,,,1,0.8500530224490773,-1.0893360711742854,,true,lh,7857.401000000013,response,-0.8110121381849364,0.8999999999999997,-0.8999999999999997,0.7563142141851558,0.8999999999999997,-0.8999999999999997,low,high,,ISIC_2998367.JPG,,ISIC_0033605.JPG,29,true,lh,keypress(e),0,false,324185.90000000596,324185.5,316311.298,316314.799999997,316328.099,324193.185,1,20,3,
sequence,flow.Sequence,6_2,2023-11-14T19:41:13.404Z,,,,,,,,,,7857.401000000013,completion,,,,,,,low,high,,,,,,true,,,,false,324186.40000000596,324185.5,316311.298,316314.799999997,316328.099,324193.185,1,20,,
trial,html.Screen,6_3_0,2023-11-14T19:41:20.164Z,,,,1,-0.8816924904060719,-0.7462463164673511,,true,hh,6752.515000002983,response,1.0804044917288194,0.8999999999999997,-0.8999999999999997,0.7737732725477637,0.8999999999999997,-0.8999999999999997,high,high,,ISIC_8152423.JPG,,ISIC_0011691.JPG,184,true,hh,keypress(i),0,false,330946,330945.700000003,324176.676,324186.700000003,324193.185,330956.429,1,20,4,
sequence,flow.Sequence,6_3,2023-11-14T19:41:20.165Z,,,,,,,,,,6752.515000002983,completion,,,,,,,high,high,,,,,,true,,,,false,330946.40000000596,330945.700000003,324176.676,324186.60000000894,324193.185,330956.429,1,20,,
trial,html.Screen,6_4_0,2023-11-14T19:41:30.676Z,,,,1,0.9244148283103414,-0.9712966348713286,,true,lh,10501.370999997016,response,-0.8719231363109603,0.8999999999999997,-0.8999999999999997,0.7704280220140033,0.8999999999999997,-0.8999999999999997,low,high,,ISIC_7927525.JPG,,ISIC_0029453.JPG,29,true,lh,keypress(e),0,false,341458.10000000894,341457.799999997,330939.68,330946.700000003,330956.429,341477.425,1,20,5,
sequence,flow.Sequence,6_4,2023-11-14T19:41:30.677Z,,,,,,,,,,10501.370999997016,completion,,,,,,,low,high,,,,,,true,,,,false,341458.60000000894,341457.799999997,330939.68,330946.700000003,330956.429,341477.425,1,20,,
trial,html.Screen,6_5_0,2023-11-14T19:41:38.652Z,,,,1,0.9984751310732674,0.7993808609040723,,true,ll,7956.175000008952,response,-0.9000661178885296,0.8999999999999997,-0.8999999999999997,-1.086658647698992,0.8999999999999997,-0.8999999999999997,low,low,,ISIC_0032510.JPG,,ISIC_7407847.JPG,169,true,ll,keypress(f),0,false,349433.90000000596,349433.60000000894,341443.426,341458.799999997,341477.425,349442.313,1,20,6,
sequence,flow.Sequence,6_5,2023-11-14T19:41:38.652Z,,,,,,,,,,7956.175000008952,completion,,,,,,,low,low,,,,,,true,,,,false,349434.40000000596,349433.60000000894,341443.426,341458.700000003,341477.425,349442.313,1,20,,
trial,html.Screen,6_6_0,2023-11-14T19:41:46.226Z,,,,1,-0.7991459998473059,1.0280788723474688,,true,hl,7565.986999996996,response,0.9662688541319592,0.8999999999999997,-0.8999999999999997,-0.929746784178986,0.8999999999999997,-0.8999999999999997,high,low,,ISIC_7951202.JPG,,ISIC_0011077.JPG,43,true,hl,keypress(j),0,false,357008.299999997,357008.299999997,349425.795,349434.60000000894,349442.313,357023.801,1,20,7,
sequence,flow.Sequence,6_6,2023-11-14T19:41:46.227Z,,,,,,,,,,7565.986999996996,completion,,,,,,,high,low,,,,,,true,,,,false,357008.40000000596,357008.299999997,349425.795,349434.5,349442.313,357023.801,1,20,,
trial,html.Screen,6_7_0,2023-11-14T19:41:54.678Z,,,,1,-0.84290786638064,0.7332521189371746,,true,hl,8433.799000008963,response,0.9138670886161264,0.8999999999999997,-0.8999999999999997,-0.8414121478342018,0.8999999999999997,-0.8999999999999997,high,low,,ISIC_4708642.JPG,,ISIC_6709052.JPG,43,true,hl,keypress(j),0,false,365457.799999997,365457.60000000894,357006.971,357008.5,357023.801,365473.64,1,20,8,
sequence,flow.Sequence,6_7,2023-11-14T19:41:54.678Z,,,,,,,,,,8433.799000008963,completion,,,,,,,high,low,,,,,,true,,,,false,365458.299999997,365457.60000000894,357006.971,357008.5,357023.801,365473.64,1,20,,
trial,html.Screen,6_8_0,2023-11-14T19:41:58.998Z,,,,1,0.8064929303349243,0.9193468294804482,,true,ll,4304.460000008927,response,-0.8816924904060719,0.8999999999999997,-0.8999999999999997,-0.7462463164673511,0.8999999999999997,-0.8999999999999997,low,low,,ISIC_0060968.JPG,,ISIC_8152423.JPG,169,true,ll,keypress(f),0,false,369778.5,369778.10000000894,365457.021,365458.60000000894,365473.64,369782.026,1,20,9,
sequence,flow.Sequence,6_8,2023-11-14T19:41:58.999Z,,,,,,,,,,4304.460000008927,completion,,,,,,,low,low,,,,,,true,,,,false,369778.90000000596,369778.10000000894,365457.021,365458.5,365473.64,369782.026,1,20,,
trial,html.Screen,6_9_0,2023-11-14T19:42:03.302Z,,,,1,0.7163172724844169,0.9833297148698538,,true,ll,4299.574000008928,response,-0.7869352105908418,0.8999999999999997,-0.8999999999999997,-1.003780497631855,0.8999999999999997,-0.8999999999999997,low,low,,ISIC_5156491.JPG,,ISIC_4559115.JPG,169,true,ll,keypress(f),0,false,374081.90000000596,374081.60000000894,369765.448,369779.200000003,369782.026,374090.376,1,20,10,
sequence,flow.Sequence,6_9,2023-11-14T19:42:03.302Z,,,,,,,,,,4299.574000008928,completion,,,,,,,low,low,,,,,,true,,,,false,374082.40000000596,374081.60000000894,369765.448,369779.10000000894,369782.026,374090.376,1,20,,
trial,html.Screen,6_10_0,2023-11-14T19:42:06.638Z,,,,1,-0.7308116448711435,0.908713834988551,,true,hl,3327.1240000000107,response,0.9633172970727744,0.8999999999999997,-0.8999999999999997,-0.8472659344792351,0.8999999999999997,-0.8999999999999997,high,low,,ISIC_7811951.JPG,,ISIC_0067172.JPG,43,true,hl,keypress(j),0,false,377417.799999997,377417.5,374073.796,374082.60000000894,374090.376,377430.19,1,20,11,
sequence,flow.Sequence,6_10,2023-11-14T19:42:06.638Z,,,,,,,,,,3327.1240000000107,completion,,,,,,,high,low,,,,,,true,,,,false,377418.299999997,377417.5,374073.796,374082.60000000894,374090.376,377430.19,1,20,,
trial,html.Screen,6_11_0,2023-11-14T19:42:17.640Z,,,,1,-0.989300717252516,0.7908280206937478,,,,11021.659999999974,timeout,1.045301444872812,0.8999999999999997,-0.8999999999999997,-1.0872560254441277,0.8999999999999997,-0.8999999999999997,high,low,,ISIC_6416533.JPG,,ISIC_4507700.JPG,43,true,,,0,false,388419.700000003,388419.299999997,377413.714,377418.60000000894,377430.19,388451.85,1,20,12,
sequence,flow.Sequence,6_11,2023-11-14T19:42:17.640Z,,,,,,,,,,10989.109999997017,completion,,,,,,,high,low,,,,,,true,,,,false,388420.200000003,388419.299999997,377413.714,377418.40000000596,377430.19,388451.85,1,20,,
trial,html.Screen,6_12_0,2023-11-14T19:42:20.132Z,,,,1,-0.7869352105908418,-1.003780497631855,,true,hh,2460.6500000000233,response,0.9159664042920548,0.8999999999999997,-0.8999999999999997,0.96519839238634,0.8999999999999997,-0.8999999999999997,high,high,,ISIC_4559115.JPG,,ISIC_0053617.JPG,184,true,hh,keypress(i),0,false,390912.60000000894,390912.5,388434.999,388420.60000000894,388451.85,390923.363,1,20,13,
sequence,flow.Sequence,6_12,2023-11-14T19:42:20.133Z,,,,,,,,,,2460.6500000000233,completion,,,,,,,high,high,,,,,,true,,,,false,390912.700000003,390912.5,388434.999,388420.5,388451.85,390923.363,1,20,,
trial,html.Screen,6_13_0,2023-11-14T19:42:22.590Z,,,,1,-1.0040510013663018,-0.9707475308236284,,true,hh,2446.136999999988,response,1.0652791679295452,0.8999999999999997,-0.8999999999999997,0.8969509576221346,0.8999999999999997,-0.8999999999999997,high,high,,ISIC_0026911.JPG,,ISIC_0057655.JPG,184,true,hh,keypress(i),0,false,393369.799999997,393369.5,390906.549,390912.799999997,390923.363,393377.932,1,20,14,
sequence,flow.Sequence,6_13,2023-11-14T19:42:22.590Z,,,,,,,,,,2446.136999999988,completion,,,,,,,high,high,,,,,,true,,,,false,393370.40000000596,393369.5,390906.549,390912.799999997,390923.363,393377.932,1,20,,
trial,html.Screen,6_14_0,2023-11-14T19:42:24.676Z,,,,1,-0.7056033055793339,-0.9454619685729876,,true,hh,2078.468000005989,response,0.900981242677363,0.8999999999999997,-0.8999999999999997,0.8834104283484265,0.8999999999999997,-0.8999999999999997,high,high,,ISIC_1410408.JPG,,ISIC_7236365.JPG,184,true,hh,keypress(i),0,false,395456.60000000894,395456.40000000596,393361.25,393370.5,393377.932,395465.302,1,20,15,
sequence,flow.Sequence,6_14,2023-11-14T19:42:24.677Z,,,,,,,,,,2078.468000005989,completion,,,,,,,high,high,,,,,,true,,,,false,395456.700000003,395456.40000000596,393361.25,393370.5,393377.932,395465.302,1,20,,
trial,html.Screen,6_15_0,2023-11-14T19:42:26.710Z,,,,1,0.7723423895392068,-0.7630051745722757,,true,lh,2024.1979999999749,response,-0.8110121381849364,0.8999999999999997,-0.8999999999999997,0.7563142141851558,0.8999999999999997,-0.8999999999999997,low,high,,ISIC_9694911.JPG,,ISIC_0033605.JPG,29,true,lh,keypress(e),0,false,397489.90000000596,397489.5,395448.801,395456.90000000596,395465.302,397502.769,1,20,16,
sequence,flow.Sequence,6_15,2023-11-14T19:42:26.710Z,,,,,,,,,,2024.1979999999749,completion,,,,,,,low,high,,,,,,true,,,,false,397490.40000000596,397489.5,395448.801,395456.90000000596,395465.302,397502.769,1,20,,
trial,html.Screen,6_16_0,2023-11-14T19:42:30.964Z,,,,1,0.8067627078956657,-0.7115865750196155,,true,lh,4241.33100000897,response,-0.989300717252516,0.8999999999999997,-0.8999999999999997,0.7908280206937478,0.8999999999999997,-0.8999999999999997,low,high,,ISIC_0010014.JPG,,ISIC_6416533.JPG,29,true,lh,keypress(e),0,false,401744.200000003,401744.10000000894,397486.044,397490.60000000894,397502.769,401760.885,1,20,17,
sequence,flow.Sequence,6_16,2023-11-14T19:42:30.964Z,,,,,,,,,,4241.33100000897,completion,,,,,,,low,high,,,,,,true,,,,false,401744.40000000596,401744.10000000894,397486.044,397490.60000000894,397502.769,401760.885,1,20,,
trial,html.Screen,6_17_0,2023-11-14T19:42:35.366Z,,,,1,-0.8719231363109603,0.7704280220140033,,true,hl,4384.614999999991,response,0.9617893983965208,0.8999999999999997,-0.8999999999999997,-0.9453006131304652,0.8999999999999997,-0.8999999999999997,high,low,,ISIC_0029453.JPG,,ISIC_4229473.JPG,43,true,hl,keypress(j),0,false,406145.799999997,406145.5,401744.298,401744.40000000596,401760.885,406152.809,1,20,18,
sequence,flow.Sequence,6_17,2023-11-14T19:42:35.366Z,,,,,,,,,,4384.614999999991,completion,,,,,,,high,low,,,,,,true,,,,false,406146.200000003,406145.5,401744.298,401744.40000000596,401760.885,406152.809,1,20,,
trial,html.Screen,6_18_0,2023-11-14T19:42:40.612Z,,,,1,0.8008551215425942,0.7774584068239597,,true,ll,5239.190999999992,response,-0.9000661178885296,0.8999999999999997,-0.8999999999999997,-1.086658647698992,0.8999999999999997,-0.8999999999999997,low,low,,ISIC_0025904.JPG,,ISIC_7407847.JPG,169,true,ll,keypress(f),0,false,411392.299999997,411392,406136.225,406146.5,406152.809,411396.285,1,20,19,
sequence,flow.Sequence,6_18,2023-11-14T19:42:40.612Z,,,,,,,,,,5239.190999999992,completion,,,,,,,low,low,,,,,,true,,,,false,411392.299999997,411392,406136.225,406146.40000000596,406152.809,411396.285,1,20,,
trial,html.Screen,6_19_0,2023-11-14T19:42:46.318Z,,,,1,0.7856143618373893,-1.0273608829432213,,true,lh,5701.615000005986,response,-0.989300717252516,0.8999999999999997,-0.8999999999999997,0.7908280206937478,0.8999999999999997,-0.8999999999999997,low,high,,ISIC_9303849.JPG,,ISIC_6416533.JPG,29,true,lh,keypress(e),0,false,417098.200000003,417097.90000000596,411379.755,411392.40000000596,411396.285,417107.397,1,20,20,
sequence,flow.Sequence,6_19,2023-11-14T19:42:46.319Z,,,,,,,,,,5701.615000005986,completion,,,,,,,low,high,,,,,,true,,,,false,417098.700000003,417097.90000000596,411379.755,411392.40000000596,411396.285,417107.397,1,20,,
practice_loop,flow.Loop,6,2023-11-14T19:42:46.319Z,,,,,,,,,,112977.11300000595,completion,,,,,,,,,,,,,,true,,,,false,417099.10000000894,417097.90000000596,304104.356,304120.10000000894,304120.787,417107.397,1,20,,
stair_instructions,html.Screen,7,2023-11-14T19:43:07.430Z,,,,,,,,,,21100.503000005963,response,,,,,,,,,,,,,,,continue,click button,,,438208.5,438207.90000000596,417090.867,417099.299999997,417107.397,438215.142,,,,
trial,html.Screen,8_0_0,2023-11-14T19:43:18.433Z,,,,2,0.0577614292269216,0.035892232596533,,,,11021.66399999999,timeout,-1.0054903293075117,0.8999999999999997,-0.8999999999999997,-0.7540787139679275,0.8999999999999997,-0.8999999999999997,low,low,,ISIC_8363485.JPG,,ISIC_0005686.JPG,169,false,,,0,true,449211.200000003,449211.10000000894,438198.715,438208.60000000894,438215.142,449236.806,1,40,1,
sequence,flow.Sequence,8_0,2023-11-14T19:43:18.433Z,,,,,,,,,,10995.958000008948,completion,,,,,,,low,low,,,,,,false,,,,true,449211.40000000596,449211.10000000894,438198.715,438208.60000000894,438215.142,449236.806,1,40,,
trial,html.Screen,8_1_0,2023-11-14T19:43:21.978Z,,,,2,0.001445457736793,0.0165307427449982,,false,hh,3518.6940000000177,response,0.7167356289126139,0.8999999999999997,-0.8999999999999997,0.9599274916161776,0.8999999999999997,-0.8999999999999997,high,high,,ISIC_0027350.JPG,,ISIC_0010810.JPG,184,false,lh,keypress(e),0,true,452755.799999997,452755.5,449219.943,449211.40000000596,449236.806,452777.017,1,40,2,
sequence,flow.Sequence,8_1,2023-11-14T19:43:21.978Z,,,,,,,,,,3518.6940000000177,completion,,,,,,,high,high,,,,,,false,,,,true,452756.299999997,452755.5,449219.943,449211.40000000596,449236.806,452777.017,1,40,,
trial,html.Screen,8_2_0,2023-11-14T19:43:27.312Z,,,,2,0.0542893032276609,-0.0176656364422514,,true,hl,5312.383000005968,response,0.9138670886161264,0.8999999999999997,-0.8499999999999996,-0.8414121478342018,0.8999999999999997,-0.8499999999999996,high,low,,ISIC_0024516.JPG,,ISIC_6709052.JPG,47,false,hl,keypress(j),0,true,458089.700000003,458089.40000000596,452760.182,452756.60000000894,452777.017,458103.957,1,40,3,
sequence,flow.Sequence,8_2,2023-11-14T19:43:27.312Z,,,,,,,,,,5312.383000005968,completion,,,,,,,high,low,,,,,,false,,,,true,458090.200000003,458089.40000000596,452760.182,452756.60000000894,452777.017,458103.957,1,40,,
trial,html.Screen,8_3_0,2023-11-14T19:43:31.955Z,,,,2,-0.0444523556175667,-0.066384682611553,,true,ll,4628.743000002985,response,-0.8086023405133824,0.8499999999999996,-0.7999999999999996,-0.6457067741585384,0.8499999999999996,-0.7999999999999996,low,low,,ISIC_0029409.JPG,,ISIC_6767038.JPG,239,false,ll,keypress(f),0,true,462732.799999997,462732.700000003,458087.351,458090.40000000596,458103.957,462746.366,1,40,4,
sequence,flow.Sequence,8_3,2023-11-14T19:43:31.955Z,,,,,,,,,,4628.743000002985,completion,,,,,,,low,low,,,,,,false,,,,true,462733.10000000894,462732.700000003,458087.351,458090.299999997,458103.957,462746.366,1,40,,
trial,html.Screen,8_4_0,2023-11-14T19:43:35.967Z,,,,2,0.039520186367207,0.0377961575607372,,true,lh,3998.43399999704,response,-0.6053594235836648,0.7999999999999996,-0.7499999999999996,0.9666375392777208,0.7999999999999996,-0.64355946099637,low,high,,ISIC_6356149.JPG,,ISIC_0068314.JPG,67,false,lh,keypress(e),0,true,466744.90000000596,466744.799999997,462729.719,462733.10000000894,462746.366,466754.112,1,40,5,
sequence,flow.Sequence,8_4,2023-11-14T19:43:35.967Z,,,,,,,,,,3998.43399999704,completion,,,,,,,low,high,,,,,,false,,,,true,466745.10000000894,466744.799999997,462729.719,462733.10000000894,462746.366,466754.112,1,40,,
trial,html.Screen,8_5_0,2023-11-14T19:43:42.919Z,,,,2,0.045779466401051,0.0137769797231127,,false,lh,6943.187999996997,response,-0.4339150384878733,0.7499999999999996,-0.6069808820485235,0.9825637545298476,0.8632825154469491,-0.5935594609963699,low,high,,ISIC_0000504.JPG,,ISIC_6447681.JPG,84,false,hl,keypress(j),0,true,473697.700000003,473697.299999997,466737.586,466745.200000003,466754.112,473700.943,1,40,6,
sequence,flow.Sequence,8_5,2023-11-14T19:43:42.920Z,,,,,,,,,,6943.187999996997,completion,,,,,,,low,high,,,,,,false,,,,true,473698.10000000894,473697.299999997,466737.586,466745.200000003,466754.112,473700.943,1,40,,
trial,html.Screen,8_6_0,2023-11-14T19:43:50.120Z,,,,2,-0.0283578106329894,0.0088840758711548,,false,hh,7197.056999999972,response,0.6816153808056667,0.6999999999999995,-0.6069808820485235,0.7209293211433396,0.8632825154469491,-0.5435594609963699,high,high,,ISIC_0060707.JPG,,ISIC_3448630.JPG,252,false,ll,keypress(f),0,true,480898.299999997,480898,473684.333,473698.5,473700.943,480915.056,1,40,7,
sequence,flow.Sequence,8_6,2023-11-14T19:43:50.121Z,,,,,,,,,,7197.056999999972,completion,,,,,,,high,high,,,,,,false,,,,true,480898.799999997,480898,473684.333,473698.40000000596,473700.943,480915.056,1,40,,
trial,html.Screen,8_7_0,2023-11-14T19:44:00.632Z,,,,2,-0.0119001144851157,0.0063430114540141,,false,hl,10494.944000000018,response,0.5167287506732439,0.6999999999999995,-0.5569808820485235,-0.3238478318746457,0.8632825154469491,-0.4935594609963699,high,low,,ISIC_0003822.JPG,,ISIC_0032152.JPG,155,false,lh,keypress(e),0,true,491410.299999997,491410,480898.399,480899,480915.056,491418.711,1,40,8,
sequence,flow.Sequence,8_7,2023-11-14T19:44:00.633Z,,,,,,,,,,10494.944000000018,completion,,,,,,,high,low,,,,,,false,,,,true,491410.90000000596,491410,480898.399,480899,480915.056,491418.711,1,40,,
trial,html.Screen,8_8_0,2023-11-14T19:44:03.672Z,,,,2,-0.0220026381002083,0.0170756452911772,,false,hh,3031.0889999970095,response,0.5789081217295278,0.6999999999999995,-0.5069808820485234,0.8574556100206551,0.8132825154469491,-0.4935594609963699,high,high,,ISIC_5347806.JPG,,ISIC_0056739.JPG,278,false,lh,keypress(e),0,true,494450.10000000894,494449.799999997,491402.178,491411.10000000894,491418.711,494457.955,1,40,9,
sequence,flow.Sequence,8_8,2023-11-14T19:44:03.672Z,,,,,,,,,,3031.0889999970095,completion,,,,,,,high,high,,,,,,false,,,,true,494450.60000000894,494449.799999997,491402.178,491411,491418.711,494457.955,1,40,,
trial,html.Screen,8_9_0,2023-11-14T19:44:12.185Z,,,,2,-0.024731486864197,-0.0504232274546553,,true,ll,8503.145000008924,response,-0.5674110473335122,0.6999999999999995,-0.45698088204852344,-0.5677615070916933,0.8132825154469491,-0.4935594609963699,low,low,,ISIC_4782878.JPG,,ISIC_0475506.JPG,467,false,ll,keypress(f),0,true,502961.200000003,502961.10000000894,494441.419,494450.799999997,494457.955,502974.633,1,40,10,
sequence,flow.Sequence,8_9,2023-11-14T19:44:12.185Z,,,,,,,,,,8503.145000008924,completion,,,,,,,low,low,,,,,,false,,,,true,502961.5,502961.10000000894,494441.419,494450.799999997,494457.955,502974.633,1,40,,
trial,html.Screen,8_10_0,2023-11-14T19:44:19.650Z,,,,2,0.0495531443078245,0.0310660434153916,,false,hl,7451.166999997047,response,0.7801125028333664,0.6499999999999995,-0.45698088204852344,-0.566453719006178,0.763282515446949,-0.4935594609963699,high,low,,ISIC_0013719.JPG,,ISIC_0078703.JPG,173,false,ll,keypress(f),0,true,510426.10000000894,510425.799999997,502957.838,502961.60000000894,502974.633,510439.131,1,40,11,
sequence,flow.Sequence,8_10,2023-11-14T19:44:19.650Z,,,,,,,,,,7451.166999997047,completion,,,,,,,high,low,,,,,,false,,,,true,510426.700000003,510425.799999997,502957.838,502961.60000000894,502974.633,510439.131,1,40,,
trial,html.Screen,8_11_0,2023-11-14T19:44:28.330Z,,,,2,0.0448994009031783,-0.0708723658092544,,true,ll,8667.069000002986,response,-0.3321801194058904,0.6499999999999995,-0.45698088204852344,-0.4178999687216879,0.713282515446949,-0.4935594609963699,low,low,,ISIC_0025238.JPG,,ISIC_0561249.JPG,467,false,ll,keypress(f),0,true,519106.5,519106.200000003,510422.551,510426.90000000596,510439.131,519122.676,1,40,12,
sequence,flow.Sequence,8_11,2023-11-14T19:44:28.331Z,,,,,,,,,,8667.069000002986,completion,,,,,,,low,low,,,,,,false,,,,true,519107,519106.200000003,510422.551,510426.799999997,510439.131,519122.676,1,40,,
trial,html.Screen,8_12_0,2023-11-14T19:44:33.082Z,,,,2,0.0542893032276609,-0.0176656364422514,,false,lh,4735.123999997042,response,-0.5075274166491675,0.5999999999999994,-0.40698088204852345,0.5886845276365309,0.6632825154469489,-0.4435594609963699,low,high,,ISIC_0024516.JPG,,ISIC_0010724.JPG,210,false,hl,keypress(j),0,true,523858.200000003,523857.799999997,519106.066,519107.299999997,519122.676,523865.2,1,40,13,
sequence,flow.Sequence,8_12,2023-11-14T19:44:33.082Z,,,,,,,,,,4735.123999997042,completion,,,,,,,low,high,,,,,,false,,,,true,523858.60000000894,523857.799999997,519106.066,519107.299999997,519122.676,523865.2,1,40,,
trial,html.Screen,8_13_0,2023-11-14T19:44:38.866Z,,,,2,-0.0394300226801425,0.0536115913979284,,false,hh,5776.599999997008,response,0.4186027327762204,0.5499999999999994,-0.45698088204852344,0.7188878004305155,0.6632825154469489,-0.4435594609963699,high,high,,ISIC_0046983.JPG,,ISIC_0057371.JPG,332,false,lh,keypress(e),0,true,529642.1000000089,529641.799999997,523848.691,523858.90000000596,523865.2,529659.987,1,40,14,
sequence,flow.Sequence,8_13,2023-11-14T19:44:38.866Z,,,,,,,,,,5776.599999997008,completion,,,,,,,high,high,,,,,,false,,,,true,529642.6000000089,529641.799999997,523848.691,523858.799999997,523865.2,529659.987,1,40,,
trial,html.Screen,8_14_0,2023-11-14T19:44:41.984Z,,,,2,-0.0703653376600499,0.0206740478999942,,true,lh,3100.413000005996,response,-0.5015115738930349,0.5499999999999994,-0.45698088204852344,0.8422679054456499,0.6632825154469489,-0.4435594609963699,low,high,,ISIC_4899386.JPG,,ISIC_7503950.JPG,178,false,lh,keypress(e),0,true,532760.5,532760.400000006,529643.283,529642.799999997,529659.987,532765.869,1,40,15,
sequence,flow.Sequence,8_14,2023-11-14T19:44:41.984Z,,,,,,,,,,3100.413000005996,completion,,,,,,,low,high,,,,,,false,,,,true,532760.799999997,532760.400000006,529643.283,529642.700000003,529659.987,532765.869,1,40,,
trial,html.Screen,8_15_0,2023-11-14T19:44:47.690Z,,,,2,0.0198696495649504,-0.0387952353063878,,false,lh,5699.930999997072,response,-0.4230570296105502,0.4999999999999994,-0.45698088204852344,0.5994043225256724,0.6805778529380826,-0.4435594609963699,low,high,,ISIC_6735970.JPG,,ISIC_1384527.JPG,168,false,hl,keypress(j),0,true,538466.1000000089,538465.799999997,532749.413,532760.799999997,532765.869,538476.988,1,40,16,
sequence,flow.Sequence,8_15,2023-11-14T19:44:47.690Z,,,,,,,,,,5699.930999997072,completion,,,,,,,low,high,,,,,,false,,,,true,538466.6000000089,538465.799999997,532749.413,532760.799999997,532765.869,538476.988,1,40,,
trial,html.Screen,8_16_0,2023-11-14T19:44:55.242Z,,,,2,0.0200376619013301,0.0451764418954947,,false,hl,7540.811999997008,response,0.5357689684524589,0.4999999999999994,-0.45698088204852344,-0.2785762452092483,0.6805778529380826,-0.4435594609963699,high,low,,ISIC_0026087.JPG,,ISIC_0056413.JPG,284,false,lh,keypress(e),0,true,546018.200000003,546017.799999997,538460.234,538466.900000006,538476.988,546024.986,1,40,17,
sequence,flow.Sequence,8_16,2023-11-14T19:44:55.242Z,,,,,,,,,,7540.811999997008,completion,,,,,,,high,low,,,,,,false,,,,true,546018.700000003,546017.799999997,538460.234,538466.700000003,538476.988,546024.986,1,40,,
trial,html.Screen,8_17_0,2023-11-14T19:45:01.978Z,,,,2,-0.0009714874637896,0.0174815595031679,,false,hh,6728.914000005927,response,0.6067744440839153,0.4999999999999994,-0.45698088204852344,0.7354340978133378,0.6305778529380826,-0.4935594609963699,high,high,,ISIC_9848743.JPG,,ISIC_0068616.JPG,338,false,hl,keypress(j),0,true,552754.299999997,552753.900000006,546008.356,546018.900000006,546024.986,552771.726,1,40,18,
sequence,flow.Sequence,8_17,2023-11-14T19:45:01.978Z,,,,,,,,,,6728.914000005927,completion,,,,,,,high,high,,,,,,false,,,,true,552754.700000003,552753.900000006,546008.356,546018.900000006,546024.986,552771.726,1,40,,
trial,html.Screen,8_18_0,2023-11-14T19:45:07.954Z,,,,2,-0.0447960916594447,-0.0451557856659748,,false,hl,5956.474000002956,response,0.4103717503050724,0.4999999999999994,-0.45698088204852344,-0.6265379407730184,0.6305778529380826,-0.4935594609963699,high,low,,ISIC_1379405.JPG,,ISIC_0024351.JPG,251,false,ll,keypress(f),0,true,558728.299999997,558728.200000003,552754.97,552755,552771.726,558733.052,1,40,19,
sequence,flow.Sequence,8_18,2023-11-14T19:45:07.954Z,,,,,,,,,,5956.474000002956,completion,,,,,,,high,low,,,,,,false,,,,true,558728.5,558728.200000003,552754.97,552754.900000006,552771.726,558733.052,1,40,,
trial,html.Screen,8_19_0,2023-11-14T19:45:13.787Z,,,,2,0.0632965338582772,0.0107588824722911,,false,hh,5828.048000008916,response,0.6816153808056667,0.4999999999999994,-0.45698088204852344,0.7209293211433396,0.5805778529380825,-0.4935594609963699,high,high,,ISIC_1265755.JPG,,ISIC_3448630.JPG,372,false,lh,keypress(e),0,true,564561.200000003,564561.1000000089,558716.489,558728.5,558733.052,564578.024,1,40,20,
sequence,flow.Sequence,8_19,2023-11-14T19:45:13.787Z,,,,,,,,,,5828.048000008916,completion,,,,,,,high,high,,,,,,false,,,,true,564561.6000000089,564561.1000000089,558716.489,558728.5,558733.052,564578.024,1,40,,
trial,html.Screen,8_20_0,2023-11-14T19:45:18.027Z,,,,2,-0.0308384937406319,0.0038396364323947,,false,ll,4223.775999997044,response,-0.2831035097077397,0.4999999999999994,-0.45698088204852344,-0.4772831299467174,0.5805778529380825,-0.4935594609963699,low,low,,ISIC_0029825.JPG,,ISIC_2977718.JPG,467,false,lh,keypress(e),0,true,568802.1000000089,568801.799999997,564561.304,564561.700000003,564578.024,568819.627,1,40,21,
sequence,flow.Sequence,8_20,2023-11-14T19:45:18.028Z,,,,,,,,,,4223.775999997044,completion,,,,,,,low,low,,,,,,false,,,,true,568802.6000000089,568801.799999997,564561.304,564561.700000003,564578.024,568819.627,1,40,,
trial,html.Screen,8_21_0,2023-11-14T19:45:25.227Z,,,,2,-0.0727065082131878,-0.0601627969482033,,true,hh,7182.172999997041,response,0.5496772716334654,0.4999999999999994,-0.45698088204852344,0.674330078017678,0.5305778529380825,-0.4935594609963699,high,high,,ISIC_2245069.JPG,,ISIC_0033977.JPG,394,false,hh,keypress(i),0,true,576002.1000000089,576001.799999997,568802.897,568802.799999997,568819.627,576016.89,1,40,22,
sequence,flow.Sequence,8_21,2023-11-14T19:45:25.228Z,,,,,,,,,,7182.172999997041,completion,,,,,,,high,high,,,,,,false,,,,true,576002.5,576001.799999997,568802.897,568802.700000003,568819.627,576016.89,1,40,,
trial,html.Screen,8_22_0,2023-11-14T19:45:33.708Z,,,,2,-0.0524649813000588,0.0155452034299028,,false,ll,8465.109999999986,response,-0.5694128337885977,0.4999999999999994,-0.45698088204852344,-0.4419444116651587,0.5976296995805087,-0.4935594609963699,low,low,,ISIC_0030087.JPG,,ISIC_1534391.JPG,467,false,lh,keypress(e),0,true,584482.299999997,584482,576000.165,576002.799999997,576016.89,584500.154,1,40,23,
sequence,flow.Sequence,8_22,2023-11-14T19:45:33.708Z,,,,,,,,,,8465.109999999986,completion,,,,,,,low,low,,,,,,false,,,,true,584482.799999997,584482,576000.165,576002.799999997,576016.89,584500.154,1,40,,
trial,html.Screen,8_23_0,2023-11-14T19:45:39.788Z,,,,2,0.0395587463147856,-0.0645068093068572,,false,lh,6061.74600000598,response,-0.5588979658648439,0.4999999999999994,-0.45698088204852344,0.6427302891118192,0.5476296995805087,-0.4935594609963699,low,high,,ISIC_0010807.JPG,,ISIC_3597812.JPG,235,false,ll,keypress(f),0,true,590562.299999997,590561.900000006,584483.352,584483.1000000089,584500.154,590578.579,1,40,24,
sequence,flow.Sequence,8_23,2023-11-14T19:45:39.788Z,,,,,,,,,,6061.74600000598,completion,,,,,,,low,high,,,,,,false,,,,true,590562.799999997,590561.900000006,584483.352,584483.1000000089,584500.154,590578.579,1,40,,
trial,html.Screen,8_24_0,2023-11-14T19:45:45.788Z,,,,2,0.0395587463147856,-0.0645068093068572,,false,hh,5983.420999999973,response,0.3901048728280502,0.4999999999999994,-0.45698088204852344,0.3970964194442296,0.5476296995805087,-0.4935594609963699,high,high,,ISIC_0010807.JPG,,ISIC_0029675.JPG,393,false,ll,keypress(f),0,true,596562.299999997,596562,590561.929,590563,590578.579,596573.364,1,40,25,
sequence,flow.Sequence,8_24,2023-11-14T19:45:45.788Z,,,,,,,,,,5983.420999999973,completion,,,,,,,high,high,,,,,,false,,,,true,596562.799999997,596562,590561.929,590562.900000006,590578.579,596573.364,1,40,,
trial,html.Screen,8_25_0,2023-11-14T19:45:55.195Z,,,,2,0.0448994009031783,-0.0708723658092544,,false,hh,9396.435999997077,response,0.6293103397347344,0.4999999999999994,-0.45698088204852344,0.4104469484226966,0.5476296995805087,-0.4935594609963699,high,high,,ISIC_0025238.JPG,,ISIC_7953039.JPG,393,false,hl,keypress(j),0,true,605970.1000000089,605969.799999997,596556.649,596563.1000000089,596573.364,605975.026,1,40,26,
sequence,flow.Sequence,8_25,2023-11-14T19:45:55.196Z,,,,,,,,,,9396.435999997077,completion,,,,,,,high,high,,,,,,false,,,,true,605970.5,605969.799999997,596556.649,596563,596573.364,605975.026,1,40,,
trial,html.Screen,8_26_0,2023-11-14T19:46:00.906Z,,,,2,0.0123274848503577,-0.0516828290734233,,false,hh,5705.974000000046,response,0.3189890233595589,0.4999999999999994,-0.45698088204852344,0.4931005951422583,0.5476296995805087,-0.4935594609963699,high,high,,ISIC_0056790.JPG,,ISIC_0033636.JPG,393,false,hl,keypress(j),0,true,611681.200000003,611681,605958.388,605970.799999997,605975.026,611686.129,1,40,27,
sequence,flow.Sequence,8_26,2023-11-14T19:46:00.907Z,,,,,,,,,,5705.974000000046,completion,,,,,,,high,high,,,,,,false,,,,true,611681.299999997,611681,605958.388,605970.700000003,605975.026,611686.129,1,40,,
trial,html.Screen,8_27_0,2023-11-14T19:46:03.891Z,,,,2,0.0273855825278348,-0.0566295048930719,,true,hl,2979.6709999970626,response,0.5667176896269589,0.4999999999999994,-0.45698088204852344,-0.4559521761350147,0.5476296995805087,-0.4935594609963699,high,low,,ISIC_0000141.JPG,,ISIC_9574101.JPG,251,false,hl,keypress(j),0,true,614666.200000003,614665.799999997,611669.611,611681.400000006,611686.129,614675.434,1,40,28,
sequence,flow.Sequence,8_27,2023-11-14T19:46:03.892Z,,,,,,,,,,2979.6709999970626,completion,,,,,,,high,low,,,,,,false,,,,true,614666.700000003,614665.799999997,611669.611,611681.400000006,611686.129,614675.434,1,40,,
trial,html.Screen,8_28_0,2023-11-14T19:46:09.420Z,,,,2,-0.0572065166118795,0.0247840126545907,,false,hl,5517.565999999992,response,0.36498546732145,0.4499999999999994,-0.45698088204852344,-0.4099686807948992,0.4976296995805087,-0.4935594609963699,high,low,,ISIC_0024565.JPG,,ISIC_0030481.JPG,271,false,lh,keypress(e),0,true,620193,620193,614658.806,614666.900000006,614675.434,620202.787,1,40,29,
sequence,flow.Sequence,8_28,2023-11-14T19:46:09.420Z,,,,,,,,,,5517.565999999992,completion,,,,,,,high,low,,,,,,false,,,,true,620193.200000003,620193,614658.806,614666.900000006,614675.434,620202.787,1,40,,
trial,html.Screen,8_29_0,2023-11-14T19:46:16.574Z,,,,2,-0.024731486864197,-0.0504232274546553,,false,hl,7143.413000002969,response,0.4401369438195451,0.4999999999999994,-0.45698088204852344,-0.4622851482160754,0.4976296995805087,-0.4935594609963699,high,low,,ISIC_4782878.JPG,,ISIC_6105084.JPG,251,false,ll,keypress(f),0,true,627346.5,627346.200000003,620186.132,620193.200000003,620202.787,627350.046,1,40,30,
sequence,flow.Sequence,8_29,2023-11-14T19:46:16.574Z,,,,,,,,,,7143.413000002969,completion,,,,,,,high,low,,,,,,false,,,,true,627347,627346.200000003,620186.132,620193.200000003,620202.787,627350.046,1,40,,
trial,html.Screen,8_30_0,2023-11-14T19:46:22.853Z,,,,2,0.0527477970410472,0.0575970798158164,,false,ll,6275.654000003007,response,-0.5775881213191619,0.4999999999999994,-0.45698088204852344,-0.3825311665697594,0.4976296995805087,-0.4935594609963699,low,low,,ISIC_0667763.JPG,,ISIC_0033083.JPG,467,false,lh,keypress(e),0,true,633626.1000000089,633625.700000003,627333.198,627347.200000003,627350.046,633628.942,1,40,31,
sequence,flow.Sequence,8_30,2023-11-14T19:46:22.854Z,,,,,,,,,,6275.654000003007,completion,,,,,,,low,low,,,,,,false,,,,true,633626.6000000089,633625.700000003,627333.198,627347.200000003,627350.046,633628.942,1,40,,
trial,html.Screen,8_31_0,2023-11-14T19:46:28.077Z,,,,2,0.0603356922898045,0.0630785445312754,,true,hl,5220.958000005921,response,0.4694257959391162,0.4999999999999994,-0.45698088204852344,-0.4250712308828343,0.4976296995805087,-0.4935594609963699,high,low,,ISIC_9996128.JPG,,ISIC_2829088.JPG,251,false,hl,keypress(j),0,true,638850.200000003,638849.900000006,633612.181,633626.900000006,633628.942,638855.696,1,40,32,
sequence,flow.Sequence,8_31,2023-11-14T19:46:28.078Z,,,,,,,,,,5220.958000005921,completion,,,,,,,high,low,,,,,,false,,,,true,638850.799999997,638849.900000006,633612.181,633626.700000003,633628.942,638855.696,1,40,,
trial,html.Screen,8_32_0,2023-11-14T19:46:33.165Z,,,,2,-0.0283578106329894,0.0088840758711548,,false,hl,5082.004000002984,response,0.5310260169959041,0.4999999999999994,-0.45698088204852344,-0.3025934026820932,0.4976296995805087,-0.4935594609963699,high,low,,ISIC_0060707.JPG,,ISIC_3655327.JPG,251,false,hh,keypress(i),0,true,643938,643937.700000003,638839.126,638851,638855.696,643948.997,1,40,33,
sequence,flow.Sequence,8_32,2023-11-14T19:46:33.166Z,,,,,,,,,,5082.004000002984,completion,,,,,,,high,low,,,,,,false,,,,true,643938.5,643937.700000003,638839.126,638850.900000006,638855.696,643948.997,1,40,,
trial,html.Screen,8_33_0,2023-11-14T19:46:39.141Z,,,,2,0.0448994009031783,-0.0708723658092544,,false,ll,5964.9030000059865,response,-0.4449580866352662,0.4999999999999994,-0.45698088204852344,-0.3633609013369636,0.4976296995805087,-0.4935594609963699,low,low,,ISIC_0025238.JPG,,ISIC_0032001.JPG,467,false,lh,keypress(e),0,true,649914.299999997,649913.900000006,643932.435,643938.799999997,643948.997,649927.462,1,40,34,
sequence,flow.Sequence,8_33,2023-11-14T19:46:39.142Z,,,,,,,,,,5964.9030000059865,completion,,,,,,,low,low,,,,,,false,,,,true,649914.799999997,649913.900000006,643932.435,643938.700000003,643948.997,649927.462,1,40,,
trial,html.Screen,8_34_0,2023-11-14T19:46:47.917Z,,,,2,-0.0105349256029223,0.0723574625425557,,true,ll,8762.337999996962,response,-0.2808438327777561,0.4999999999999994,-0.45698088204852344,-0.6911672931457856,0.4976296995805087,-0.4935594609963699,low,low,,ISIC_0058998.JPG,,ISIC_0059892.JPG,467,false,ll,keypress(f),0,true,658690.200000003,658689.799999997,649910.49,649915,649927.462,658694.308,1,40,35,
sequence,flow.Sequence,8_34,2023-11-14T19:46:47.918Z,,,,,,,,,,8762.337999996962,completion,,,,,,,low,low,,,,,,false,,,,true,658690.700000003,658689.799999997,649910.49,649914.900000006,649927.462,658694.308,1,40,,
trial,html.Screen,8_35_0,2023-11-14T19:46:54.069Z,,,,2,-0.0703653376600499,0.0206740478999942,,true,lh,6147.692000000039,response,-0.3150156798322924,0.4999999999999994,-0.40698088204852345,0.4832781097701258,0.4976296995805087,-0.4935594609963699,low,high,,ISIC_4899386.JPG,,ISIC_0062298.JPG,271,false,lh,keypress(e),0,true,664842.400000006,664842,658677.752,658690.900000006,658694.308,664856.437,1,40,36,
sequence,flow.Sequence,8_35,2023-11-14T19:46:54.070Z,,,,,,,,,,6147.692000000039,completion,,,,,,,low,high,,,,,,false,,,,true,664842.900000006,664842,658677.752,658690.799999997,658694.308,664856.437,1,40,,
trial,html.Screen,8_36_0,2023-11-14T19:47:01.876Z,,,,2,0.0199950873045219,0.0172506388509166,,false,lh,7792.163000008906,response,-0.4583150432152547,0.4999999999999994,-0.40698088204852345,0.414923288285232,0.4976296995805087,-0.4935594609963699,low,high,,ISIC_0029906.JPG,,ISIC_5772938.JPG,271,false,hl,keypress(j),0,true,672648.799999997,672648.6000000089,664839.733,664843.200000003,664856.437,672654.825,1,40,37,
sequence,flow.Sequence,8_36,2023-11-14T19:47:01.876Z,,,,,,,,,,7792.163000008906,completion,,,,,,,low,high,,,,,,false,,,,true,672648.900000006,672648.6000000089,664839.733,664843.1000000089,664856.437,672654.825,1,40,,
trial,html.Screen,8_37_0,2023-11-14T19:47:12.046Z,,,,2,0.0349011973222753,-0.065080527952874,,true,lh,10163.075000006007,response,-0.5510735714625388,0.4999999999999994,-0.45698088204852344,0.4027510813331876,0.4976296995805087,-0.4935594609963699,low,high,,ISIC_3898738.JPG,,ISIC_9989936.JPG,252,false,lh,keypress(e),0,true,682818.200000003,682817.900000006,672638.269,672649,672654.825,682824.67,1,40,38,
sequence,flow.Sequence,8_37,2023-11-14T19:47:12.047Z,,,,,,,,,,10163.075000006007,completion,,,,,,,low,high,,,,,,false,,,,true,682818.700000003,682817.900000006,672638.269,672649,672654.825,682824.67,1,40,,
trial,html.Screen,8_38_0,2023-11-14T19:47:15.423Z,,,,2,-0.0464691161264081,-0.0535296539628673,,true,lh,3369.329999999958,response,-0.5433367054950198,0.4999999999999994,-0.45698088204852344,0.349419610867016,0.4976296995805087,-0.4935594609963699,low,high,,ISIC_0758797.JPG,,ISIC_7596681.JPG,252,false,lh,keypress(e),0,true,686194.299999997,686194,682808.025,682818.900000006,682824.67,686197.91,1,40,39,
sequence,flow.Sequence,8_38,2023-11-14T19:47:15.423Z,,,,,,,,,,3369.329999999958,completion,,,,,,,low,high,,,,,,false,,,,true,686194.799999997,686194,682808.025,682818.900000006,682824.67,686197.91,1,40,,
trial,html.Screen,8_39_0,2023-11-14T19:47:20.583Z,,,,2,-0.0423567271646023,-0.0380126882576854,,false,ll,5155.990000005928,response,-0.3076061393646621,0.4999999999999994,-0.4972051384787793,-0.4242014930260313,0.4476296995805087,-0.4935594609963699,low,low,,ISIC_0046932.JPG,,ISIC_8135400.JPG,454,false,hl,keypress(j),0,true,691354.299999997,691353.900000006,686181.265,686195,686197.91,691357.951,1,40,40,
sequence,flow.Sequence,8_39,2023-11-14T19:47:20.583Z,,,,,,,,,,5155.990000005928,completion,,,,,,,low,low,,,,,,false,,,,true,691354.700000003,691353.900000006,686181.265,686195,686197.91,691357.951,1,40,,
stair_loop,flow.Loop,8,2023-11-14T19:47:20.583Z,,,,,,,,,,253138.75800000597,completion,,,,,,,,,,,,,,false,,,,true,691355,691353.900000006,438198.715,438208.5,438215.142,691357.951,1,40,,
exp_instructions,html.Screen,9,2023-11-14T19:47:40.990Z,,,,,,,,,,20403.14900000894,response,,,,,,,,,,,,,,,continue,keypress(Space),,,711761.900000006,711761.1000000089,691341.39,691355.299999997,691357.951,711764.346,,,,
trial,html.Screen,10_0_0,2023-11-14T19:47:47.882Z,,,,1,-0.0703653376600499,0.0206740478999942,,false,hh,6888.953999997,response,0.3858118966265939,0.49749999999999944,-0.45399209487003633,0.5074647745545097,0.5184245149162662,-0.49355946099636994,high,high,,ISIC_4899386.JPG,9,ISIC_9786863.JPG,393,false,hl,keypress(j),0,false,718653.6000000089,718653.299999997,711747.702,711762.299999997,711764.346,718661.125,4,500,1,
break,html.Screen,10_0_1,2023-11-14T19:47:47.883Z,,,,,,,,,,NaN,,,,,,,,high,high,,,,,,false,,,,false,718655,718654.700000003,,718653.900000006,,718661.125,4,500,,
break_continue,html.Screen,10_0_2,2023-11-14T19:47:47.884Z,,,,,,,,,,NaN,,,,,,,,high,high,,,,,,false,,,,false,718656.1000000089,718655.6000000089,,718655.299999997,,718661.125,4,500,,
sequence,flow.Sequence,10_0,2023-11-14T19:47:47.885Z,,,,,,,,,,6891.254000008921,completion,,,,,,,high,high,,,,,,false,,,,false,718656.5,718655.6000000089,711747.702,711762.200000003,711764.346,718661.125,4,500,,
trial,html.Screen,10_1_0,2023-11-14T19:47:51.029Z,,,,1,0.0065172941585523,-0.0118857043117315,,false,hh,3139.7750000059605,response,0.6294222418239837,0.49749999999999944,-0.45399209487003633,0.6182882004823235,0.5184245149162662,-0.49355946099636994,high,high,,ISIC_6119202.JPG,9,ISIC_0001102.JPG,393,false,lh,keypress(e),0,false,721801,721800.900000006,718644.46,718656.799999997,718661.125,721817.208,4,500,2,
break,html.Screen,10_1_1,2023-11-14T19:47:51.030Z,,,,,,,,,,NaN,,,,,,,,high,high,,,,,,false,,,,false,721801.299999997,721801.299999997,,721801.1000000089,,721817.208,4,500,,
break_continue,html.Screen,10_1_2,2023-11-14T19:47:51.030Z,,,,,,,,,,NaN,,,,,,,,high,high,,,,,,false,,,,false,721801.6000000089,721801.5,,721801.5,,721817.208,4,500,,
sequence,flow.Sequence,10_1,2023-11-14T19:47:51.030Z,,,,,,,,,,3140.375,completion,,,,,,,high,high,,,,,,false,,,,false,721801.700000003,721801.5,718644.46,718656.700000003,718661.125,721817.208,4,500,,
trial,html.Screen,10_2_0,2023-11-14T19:47:55.486Z,,,,1,-0.0501343550751953,-0.0101991443736165,,true,lh,4440.492000002996,response,-0.3184806903771252,0.49749999999999944,-0.45399209487003633,0.5831435640307021,0.5184245149162662,-0.49355946099636994,low,high,,ISIC_4232761.JPG,10,ISIC_0030932.JPG,243,false,lh,keypress(e),0,false,726258,726257.700000003,721800.708,721801.799999997,721817.208,726275.873,4,500,3,
break,html.Screen,10_2_1,2023-11-14T19:47:55.488Z,,,,,,,,,,NaN,,,,,,,,low,high,,,,,,false,,,,false,726259.400000006,726259,,726258.5,,726275.873,4,500,,
break_continue,html.Screen,10_2_2,2023-11-14T19:47:55.489Z,,,,,,,,,,NaN,,,,,,,,low,high,,,,,,false,,,,false,726260.6000000089,726260,,726259.6000000089,,726275.873,4,500,,
sequence,flow.Sequence,10_2,2023-11-14T19:47:55.489Z,,,,,,,,,,4442.792000000016,completion,,,,,,,low,high,,,,,,false,,,,false,726260.900000006,726260,721800.708,721801.799999997,721817.208,726275.873,4,500,,
trial,html.Screen,10_3_0,2023-11-14T19:47:59.949Z,,,,1,-0.0367744112927588,-0.0324865661712824,,true,hh,4444.626999999979,response,0.5493747897279743,0.49749999999999944,-0.45399209487003633,0.4875015110184955,0.5184245149162662,-0.49355946099636994,high,high,,ISIC_4523565.JPG,8,ISIC_0066784.JPG,393,false,hh,keypress(i),0,false,730720.6000000089,730720.5,726242.652,726261.1000000089,726275.873,730734.654,4,500,4,
break,html.Screen,10_3_1,2023-11-14T19:47:59.949Z,,,,,,,,,,NaN,,,,,,,,high,high,,,,,,false,,,,false,730721,730720.900000006,,730720.799999997,,730734.654,4,500,,
break_continue,html.Screen,10_3_2,2023-11-14T19:47:59.950Z,,,,,,,,,,NaN,,,,,,,,high,high,,,,,,false,,,,false,730721.299999997,730721.200000003,,730721.1000000089,,730734.654,4,500,,
sequence,flow.Sequence,10_3,2023-11-14T19:47:59.950Z,,,,,,,,,,4445.327000002959,completion,,,,,,,high,high,,,,,,false,,,,false,730721.299999997,730721.200000003,726242.652,726261,726275.873,730734.654,4,500,,
trial,html.Screen,10_4_0,2023-11-14T19:48:04.885Z,,,,1,-0.0249297455748133,0.055986418955019,,false,lh,4922.046000003,response,-0.5510735714625388,0.49749999999999944,-0.45399209487003633,0.4027510813331876,0.5184245149162662,-0.49355946099636994,low,high,,ISIC_3900049.JPG,8,ISIC_9989936.JPG,243,false,ll,keypress(f),0,false,735656.900000006,735656.700000003,730718.058,730721.5,730734.654,735660.789,4,500,5,
break,html.Screen,10_4_1,2023-11-14T19:48:04.886Z,,,,,,,,,,NaN,,,,,,,,low,high,,,,,,false,,,,false,735657.299999997,735657.200000003,,735657,,735660.789,4,500,,
break_continue,html.Screen,10_4_2,2023-11-14T19:48:04.886Z,,,,,,,,,,NaN,,,,,,,,low,high,,,,,,false,,,,false,735657.6000000089,735657.400000006,,735657.299999997,,735660.789,4,500,,
sequence,flow.Sequence,10_4,2023-11-14T19:48:04.886Z,,,,,,,,,,4922.74600000598,completion,,,,,,,low,high,,,,,,false,,,,false,735657.6000000089,735657.400000006,730718.058,730721.400000006,730734.654,735660.789,4,500,,
trial,html.Screen,10_5_0,2023-11-14T19:48:09.912Z,,,,1,0.0395587463147856,-0.0645068093068572,,false,ll,5021.111000005971,response,-0.407690096384997,0.49749999999999944,-0.45399209487003633,-0.3480912876007744,0.5184245149162662,-0.49355946099636994,low,low,,ISIC_0010807.JPG,9,ISIC_0072290.JPG,465,false,lh,keypress(e),0,false,740682.200000003,740681.900000006,735644.125,735657.700000003,735660.789,740704.208,4,500,6,
break,html.Screen,10_5_1,2023-11-14T19:48:09.913Z,,,,,,,,,,NaN,,,,,,,,low,low,,,,,,false,,,,false,740683.5,740683.1000000089,,740682.5,,740704.208,4,500,,
break_continue,html.Screen,10_5_2,2023-11-14T19:48:09.914Z,,,,,,,,,,NaN,,,,,,,,low,low,,,,,,false,,,,false,740684.299999997,740683.900000006,,740683.6000000089,,740704.208,4,500,,
sequence,flow.Sequence,10_5,2023-11-14T19:48:09.914Z,,,,,,,,,,5023.111000005971,completion,,,,,,,low,low,,,,,,false,,,,false,740684.6000000089,740683.900000006,735644.125,735657.6000000089,735660.789,740704.208,4,500,,
trial,html.Screen,10_6_0,2023-11-14T19:48:14.200Z,,,,1,-0.0703653376600499,0.0206740478999942,,false,ll,4265.591999997036,response,-0.3029560150754495,0.49749999999999944,-0.45399209487003633,-0.3366344840727813,0.5184245149162662,-0.49355946099636994,low,low,,ISIC_4899386.JPG,8,ISIC_0026611.JPG,465,false,hh,keypress(i),0,false,744970.200000003,744969.799999997,740687.237,740684.799999997,740704.208,744978.927,4,500,7,
break,html.Screen,10_6_1,2023-11-14T19:48:14.201Z,,,,,,,,,,NaN,,,,,,,,low,low,,,,,,false,,,,false,744971.5,744971.1000000089,,744970.6000000089,,744978.927,4,500,,
break_continue,html.Screen,10_6_2,2023-11-14T19:48:14.202Z,,,,,,,,,,NaN,,,,,,,,low,low,,,,,,false,,,,false,744972.299999997,744971.900000006,,744971.700000003,,744978.927,4,500,,
sequence,flow.Sequence,10_6,2023-11-14T19:48:14.202Z,,,,,,,,,,4267.692000005976,completion,,,,,,,low,low,,,,,,false,,,,false,744972.6000000089,744971.900000006,740687.237,740684.799999997,740704.208,744978.927,4,500,,
trial,html.Screen,10_7_0,2023-11-14T19:48:19.696Z,,,,1,0.0080817964357627,-0.0444435264307931,,false,lh,5487.673000008916,response,-0.623245087791014,0.49749999999999944,-0.45399209487003633,0.4051408633843022,0.5184245149162662,-0.49355946099636994,low,high,,ISIC_0013165.JPG,9,ISIC_0027408.JPG,243,false,ll,keypress(f),0,false,750466.900000006,750466.6000000089,744962.196,744972.799999997,744978.927,750472.966,4,500,8,
break,html.Screen,10_7_1,2023-11-14T19:48:19.698Z,,,,,,,,,,NaN,,,,,,,,low,high,,,,,,false,,,,false,750468.1000000089,750467.799999997,,750467.299999997,,750472.966,4,500,,
break_continue,html.Screen,10_7_2,2023-11-14T19:48:19.699Z,,,,,,,,,,NaN,,,,,,,,low,high,,,,,,false,,,,false,750469,750468.6000000089,,750468.299999997,,750472.966,4,500,,
sequence,flow.Sequence,10_7,2023-11-14T19:48:19.699Z,,,,,,,,,,5489.673000008916,completion,,,,,,,low,high,,,,,,false,,,,false,750469.299999997,750468.6000000089,744962.196,744972.799999997,744978.927,750472.966,4,500,,
trial,html.Screen,10_8_0,2023-11-14T19:48:24.856Z,,,,1,-0.0257631352671967,-0.0202837002774028,,true,hl,5153.033999999985,response,0.5757843577181234,0.49749999999999944,-0.45399209487003633,-0.5933986690755005,0.5184245149162662,-0.49355946099636994,high,low,,ISIC_0032797.JPG,8,ISIC_0692990.JPG,251,false,hl,keypress(j),0,false,755626.299999997,755626,750456.41,750469.6000000089,750472.966,755632.995,4,500,9,
break,html.Screen,10_8_1,2023-11-14T19:48:24.857Z,,,,,,,,,,NaN,,,,,,,,high,low,,,,,,false,,,,false,755627.900000006,755627.5,,755627,,755632.995,4,500,,
break_continue,html.Screen,10_8_2,2023-11-14T19:48:24.858Z,,,,,,,,,,NaN,,,,,,,,high,low,,,,,,false,,,,false,755628.799999997,755628.400000006,,755628.1000000089,,755632.995,4,500,,
sequence,flow.Sequence,10_8,2023-11-14T19:48:24.859Z,,,,,,,,,,5155.434000005946,completion,,,,,,,high,low,,,,,,false,,,,false,755629.200000003,755628.400000006,750456.41,750469.5,750472.966,755632.995,4,500,,
trial,html.Screen,10_9_0,2023-11-14T19:48:32.488Z,,,,1,0.0586587895724749,0.0220047273041276,,false,hl,7625.105000008945,response,0.6246335581732997,0.49749999999999944,-0.45399209487003633,-0.5805958148571913,0.5184245149162662,-0.49355946099636994,high,low,,ISIC_0028320.JPG,9,ISIC_0068477.JPG,251,false,hh,keypress(i),0,false,763258.400000006,763258.1000000089,755616.537,755629.400000006,755632.995,763264.507,4,500,10,
break,html.Screen,10_9_1,2023-11-14T19:48:32.489Z,,,,,,,,,,NaN,,,,,,,,high,low,,,,,,false,,,,false,763259.6000000089,763259.299999997,,763258.700000003,,763264.507,4,500,,
break_continue,html.Screen,10_9_2,2023-11-14T19:48:32.490Z,,,,,,,,,,NaN,,,,,,,,high,low,,,,,,false,,,,false,763260.400000006,763260.1000000089,,763259.700000003,,763264.507,4,500,,
sequence,flow.Sequence,10_9,2023-11-14T19:48:32.490Z,,,,,,,,,,7627.105000008945,completion,,,,,,,high,low,,,,,,false,,,,false,763260.799999997,763260.1000000089,755616.537,755629.299999997,755632.995,763264.507,4,500,,
trial,html.Screen,10_10_0,2023-11-14T19:48:37.599Z,,,,1,0.0374659946425444,0.0086043094957617,,false,ll,5104.7929999970365,response,-0.5684007977807665,0.49749999999999944,-0.45399209487003633,-0.4190233080513519,0.5184245149162662,-0.49355946099636994,low,low,,ISIC_0033051.JPG,8,ISIC_3218227.JPG,465,false,hl,keypress(j),0,false,768369.5,768369.299999997,763248.022,763261,763264.507,768374.529,4,500,11,
break,html.Screen,10_10_1,2023-11-14T19:48:37.600Z,,,,,,,,,,NaN,,,,,,,,low,low,,,,,,false,,,,false,768370.200000003,768370,,768369.700000003,,768374.529,4,500,,
break_continue,html.Screen,10_10_2,2023-11-14T19:48:37.600Z,,,,,,,,,,NaN,,,,,,,,low,low,,,,,,false,,,,false,768370.900000006,768370.5,,768370.400000006,,768374.529,4,500,,
sequence,flow.Sequence,10_10,2023-11-14T19:48:37.601Z,,,,,,,,,,5105.993000000017,completion,,,,,,,low,low,,,,,,false,,,,false,768371.1000000089,768370.5,763248.022,763261,763264.507,768374.529,4,500,,
trial,html.Screen,10_11_0,2023-11-14T19:48:48.064Z,,,,1,-0.0220026381002083,0.0170756452911772,,false,ll,10459.671000003,response,-0.3604310689501681,0.49749999999999944,-0.45399209487003633,-0.3142833288102763,0.5184245149162662,-0.49355946099636994,low,low,,ISIC_5347806.JPG,9,ISIC_0034289.JPG,465,false,hl,keypress(j),0,false,778834.6000000089,778834.200000003,768357.843,768371.400000006,768374.529,778844.911,4,500,12,
break,html.Screen,10_11_1,2023-11-14T19:48:48.065Z,,,,,,,,,,NaN,,,,,,,,low,low,,,,,,false,,,,false,778835.700000003,778835.400000006,,778835,,778844.911,4,500,,
break_continue,html.Screen,10_11_2,2023-11-14T19:48:48.066Z,,,,,,,,,,NaN,,,,,,,,low,low,,,,,,false,,,,false,778836.400000006,778836.1000000089,,778835.799999997,,778844.911,4,500,,
sequence,flow.Sequence,10_11,2023-11-14T19:48:48.066Z,,,,,,,,,,10461.57100000896,completion,,,,,,,low,low,,,,,,false,,,,false,778836.700000003,778836.1000000089,768357.843,768371.299999997,768374.529,778844.911,4,500,,
trial,html.Screen,10_12_0,2023-11-14T19:48:57.206Z,,,,1,-0.068830656047477,0.0471494209282208,,false,hl,9131.589000000036,response,0.3522360353296214,0.49749999999999944,-0.45399209487003633,-0.542647293073549,0.5184245149162662,-0.49355946099636994,high,low,,ISIC_0029982.JPG,8,ISIC_0025006.JPG,251,false,ll,keypress(f),0,false,787976.6000000089,787976.5,778828.14,778837.1000000089,778844.911,787979.265,4,500,13,
break,html.Screen,10_12_1,2023-11-14T19:48:57.206Z,,,,,,,,,,NaN,,,,,,,,high,low,,,,,,false,,,,false,787977,787976.900000006,,787976.6000000089,,787979.265,4,500,,
break_continue,html.Screen,10_12_2,2023-11-14T19:48:57.207Z,,,,,,,,,,NaN,,,,,,,,high,low,,,,,,false,,,,false,787977.200000003,787977.1000000089,,787977.1000000089,,787979.265,4,500,,
sequence,flow.Sequence,10_12,2023-11-14T19:48:57.207Z,,,,,,,,,,9132.189000008977,completion,,,,,,,high,low,,,,,,false,,,,false,787977.200000003,787977.1000000089,778828.14,778836.900000006,778844.911,787979.265,4,500,,
trial,html.Screen,10_13_0,2023-11-14T19:49:03.136Z,,,,1,0.0164027439304477,-0.0082910758715273,,false,ll,5927.034999997006,response,-0.446066443989336,0.49749999999999944,-0.45399209487003633,-0.6380105982869588,0.5184245149162662,-0.49355946099636994,low,low,,ISIC_7381224.JPG,8,ISIC_7013005.JPG,465,false,hl,keypress(j),0,false,793906.6000000089,793906.299999997,787962.785,787977.299999997,787979.265,793941.185,4,500,14,
break,html.Screen,10_13_1,2023-11-14T19:49:03.137Z,,,,,,,,,,NaN,,,,,,,,low,low,,,,,,false,,,,false,793907.700000003,793907.400000006,,793907,,793941.185,4,500,,
break_continue,html.Screen,10_13_2,2023-11-14T19:49:03.138Z,,,,,,,,,,NaN,,,,,,,,low,low,,,,,,false,,,,false,793908.6000000089,793908.200000003,,793908,,793941.185,4,500,,
sequence,flow.Sequence,10_13,2023-11-14T19:49:03.138Z,,,,,,,,,,5928.935000002966,completion,,,,,,,low,low,,,,,,false,,,,false,793909,793908.200000003,787962.785,787977.299999997,787979.265,793941.185,4,500,,
trial,html.Screen,10_14_0,2023-11-14T19:49:08.561Z,,,,1,-0.066631540328269,-0.005292120470259,,false,hh,5388.614999996964,response,0.3400928888232818,0.49749999999999944,-0.45399209487003633,0.3979898853700687,0.5184245149162662,-0.49355946099636994,high,high,,ISIC_8041550.JPG,9,ISIC_0071532.JPG,393,false,lh,keypress(e),0,false,799330.1000000089,799329.799999997,793924.453,793909.200000003,793941.185,799334.732,4,500,15,
break,html.Screen,10_14_1,2023-11-14T19:49:08.562Z,,,,,,,,,,NaN,,,,,,,,high,high,,,,,,false,,,,false,799331.200000003,799331,,799330.5,,799334.732,4,500,,
break_continue,html.Screen,10_14_2,2023-11-14T19:49:08.563Z,,,,,,,,,,NaN,,,,,,,,high,high,,,,,,false,,,,false,799332.1000000089,799331.700000003,,799331.5,,799334.732,4,500,,
sequence,flow.Sequence,10_14,2023-11-14T19:49:08.563Z,,,,,,,,,,5390.515000002924,completion,,,,,,,high,high,,,,,,false,,,,false,799332.6000000089,799331.700000003,793924.453,793909.1000000089,793941.185,799334.732,4,500,,
trial,html.Screen,10_15_0,2023-11-14T19:49:15.279Z,,,,1,-0.0462522625051681,-0.0088419594888635,,true,hl,6713.76800000004,response,0.6306809097790017,0.49749999999999944,-0.45399209487003633,-0.6524190512843631,0.5184245149162662,-0.49355946099636994,high,low,,ISIC_1945381.JPG,9,ISIC_3152541.JPG,251,false,hl,keypress(j),0,false,806048.5,806048.5,799318.229,799332.799999997,799334.732,806064.52,4,500,16,
break,html.Screen,10_15_1,2023-11-14T19:49:15.280Z,,,,,,,,,,NaN,,,,,,,,high,low,,,,,,false,,,,false,806048.799999997,806048.799999997,,806048.6000000089,,806064.52,4,500,,
break_continue,html.Screen,10_15_2,2023-11-14T19:49:15.280Z,,,,,,,,,,NaN,,,,,,,,high,low,,,,,,false,,,,false,806049.1000000089,806049,,806049,,806064.52,4,500,,
sequence,flow.Sequence,10_15,2023-11-14T19:49:15.280Z,,,,,,,,,,6714.26800000004,completion,,,,,,,high,low,,,,,,false,,,,false,806049.200000003,806049,799318.229,799332.700000003,799334.732,806064.52,4,500,,
trial,html.Screen,10_16_0,2023-11-14T19:49:18.168Z,,,,1,-0.0462522625051681,-0.0088419594888635,,false,ll,2872.1800000029616,response,-0.3153371222608715,0.49749999999999944,-0.45399209487003633,-0.6276675853379836,0.5184245149162662,-0.49355946099636994,low,low,,ISIC_1945381.JPG,9,ISIC_0010960.JPG,465,false,hl,keypress(j),0,false,808936.900000006,808936.700000003,806047.779,806049.299999997,806064.52,808953.664,4,500,17,
break,html.Screen,10_16_1,2023-11-14T19:49:18.168Z,,,,,,,,,,NaN,,,,,,,,low,low,,,,,,false,,,,false,808937.299999997,808937.200000003,,808937,,808953.664,4,500,,
break_continue,html.Screen,10_16_2,2023-11-14T19:49:18.168Z,,,,,,,,,,NaN,,,,,,,,low,low,,,,,,false,,,,false,808937.700000003,808937.5,,808937.400000006,,808953.664,4,500,,
sequence,flow.Sequence,10_16,2023-11-14T19:49:18.169Z,,,,,,,,,,2872.9799999999814,completion,,,,,,,low,low,,,,,,false,,,,false,808937.799999997,808937.5,806047.779,806049.299999997,806064.52,808953.664,4,500,,
trial,html.Screen,10_17_0,2023-11-14T19:49:25.706Z,,,,1,0.0107170641394226,-0.0596294643429623,,false,hl,7521.13599999703,response,0.5167287506732439,0.49749999999999944,-0.45399209487003633,-0.3238478318746457,0.5184245149162662,-0.49355946099636994,high,low,,ISIC_0005291.JPG,9,ISIC_0032152.JPG,251,false,hh,keypress(i),0,false,816475.1000000089,816474.799999997,808936.988,808937.900000006,808953.664,816484.837,4,500,18,
break,html.Screen,10_17_1,2023-11-14T19:49:25.707Z,,,,,,,,,,NaN,,,,,,,,high,low,,,,,,false,,,,false,816476.400000006,816476,,816475.6000000089,,816484.837,4,500,,
break_continue,html.Screen,10_17_2,2023-11-14T19:49:25.708Z,,,,,,,,,,NaN,,,,,,,,high,low,,,,,,false,,,,false,816477.200000003,816476.900000006,,816476.6000000089,,816484.837,4,500,,
sequence,flow.Sequence,10_17,2023-11-14T19:49:25.708Z,,,,,,,,,,7523.236000005971,completion,,,,,,,high,low,,,,,,false,,,,false,816477.5,816476.900000006,808936.988,808937.900000006,808953.664,816484.837,4,500,,
trial,html.Screen,10_18_0,2023-11-14T19:49:32.903Z,,,,1,0.0200376619013301,0.0451764418954947,,false,lh,7187.662999999942,response,-0.4288109529231438,0.49749999999999944,-0.45399209487003633,0.4079894698176868,0.5184245149162662,-0.49355946099636994,low,high,,ISIC_0026087.JPG,9,ISIC_0032517.JPG,243,false,hh,keypress(i),0,false,823672.5,823672.5,816468.278,816477.700000003,816484.837,823682.16,4,500,19,
break,html.Screen,10_18_1,2023-11-14T19:49:32.904Z,,,,,,,,,,NaN,,,,,,,,low,high,,,,,,false,,,,false,823673,823672.900000006,,823672.700000003,,823682.16,4,500,,
break_continue,html.Screen,10_18_2,2023-11-14T19:49:32.904Z,,,,,,,,,,NaN,,,,,,,,low,high,,,,,,false,,,,false,823673.299999997,823673.1000000089,,823673.1000000089,,823682.16,4,500,,
sequence,flow.Sequence,10_18,2023-11-14T19:49:32.904Z,,,,,,,,,,7188.263000008883,completion,,,,,,,low,high,,,,,,false,,,,false,823673.299999997,823673.1000000089,816468.278,816477.6000000089,816484.837,823682.16,4,500,,
trial,html.Screen,10_19_0,2023-11-14T19:49:37.034Z,,,,1,0.055893254685579,0.0187125006410995,,true,hl,4120.440000008908,response,0.6487815252073258,0.49749999999999944,-0.45399209487003633,-0.4288478703770468,0.5184245149162662,-0.49355946099636994,high,low,,ISIC_0011779.JPG,9,ISIC_0060342.JPG,251,false,hl,keypress(j),0,false,827803,827802.6000000089,823665.472,823673.400000006,823682.16,827806.823,4,500,20,
break,html.Screen,10_19_1,2023-11-14T19:49:37.035Z,,,,,,,,,,NaN,,,,,,,,high,low,,,,,,false,,,,false,827804.1000000089,827803.900000006,,827803.400000006,,827806.823,4,500,,
break_continue,html.Screen,10_19_2,2023-11-14T19:49:37.036Z,,,,,,,,,,NaN,,,,,,,,high,low,,,,,,false,,,,false,827805,827804.700000003,,827804.400000006,,827806.823,4,500,,
sequence,flow.Sequence,10_19,2023-11-14T19:49:37.036Z,,,,,,,,,,4122.540000002948,completion,,,,,,,high,low,,,,,,false,,,,false,827805.299999997,827804.700000003,823665.472,823673.400000006,823682.16,827806.823,4,500,,
trial,html.Screen,10_20_0,2023-11-14T19:49:44.769Z,,,,1,0.0326050223870869,0.0579165897319751,,false,hl,7731.277000008966,response,0.3157479238867785,0.49749999999999944,-0.45399209487003633,-0.4184092844259016,0.5184245149162662,-0.49355946099636994,high,low,,ISIC_4570724.JPG,9,ISIC_3009493.JPG,251,false,ll,keypress(f),0,false,835538.5,835538.1000000089,827790.337,827805.6000000089,827806.823,835555.512,4,500,21,
break,html.Screen,10_20_1,2023-11-14T19:49:44.770Z,,,,,,,,,,NaN,,,,,,,,high,low,,,,,,false,,,,false,835539.6000000089,835539.299999997,,835538.900000006,,835555.512,4,500,,
break_continue,html.Screen,10_20_2,2023-11-14T19:49:44.771Z,,,,,,,,,,NaN,,,,,,,,high,low,,,,,,false,,,,false,835540.400000006,835540.1000000089,,835539.799999997,,835555.512,4,500,,
sequence,flow.Sequence,10_20,2023-11-14T19:49:44.772Z,,,,,,,,,,7733.277000008966,completion,,,,,,,high,low,,,,,,false,,,,false,835540.700000003,835540.1000000089,827790.337,827805.5,827806.823,835555.512,4,500,,
trial,html.Screen,10_21_0,2023-11-14T19:49:49.817Z,,,,1,-0.0480293506029756,-0.0744454320613987,,false,ll,5030.787999997032,response,-0.5397549559643443,0.49749999999999944,-0.45399209487003633,-0.5251607602514792,0.5184245149162662,-0.49355946099636994,low,low,,ISIC_1798471.JPG,9,ISIC_3391254.JPG,465,false,lh,keypress(e),0,false,840586.6000000089,840586.299999997,835538.776,835540.900000006,835555.512,840598.556,4,500,22,
break,html.Screen,10_21_1,2023-11-14T19:49:49.818Z,,,,,,,,,,NaN,,,,,,,,low,low,,,,,,false,,,,false,840587.5,840587.400000006,,840586.799999997,,840598.556,4,500,,
break_continue,html.Screen,10_21_2,2023-11-14T19:49:49.819Z,,,,,,,,,,NaN,,,,,,,,low,low,,,,,,false,,,,false,840588.400000006,840588,,840587.700000003,,840598.556,4,500,,
sequence,flow.Sequence,10_21,2023-11-14T19:49:49.819Z,,,,,,,,,,5032.488000000012,completion,,,,,,,low,low,,,,,,false,,,,false,840588.6000000089,840588,835538.776,835540.900000006,835555.512,840598.556,4,500,,
trial,html.Screen,10_22_0,2023-11-14T19:49:54.753Z,,,,1,0.0123274848503577,-0.0516828290734233,,true,hl,4923.644000002998,response,0.5092845414434499,0.49749999999999944,-0.45399209487003633,-0.634300188181445,0.5184245149162662,-0.49355946099636994,high,low,,ISIC_0056790.JPG,9,ISIC_0062812.JPG,251,false,hl,keypress(j),0,false,845522.5,845522.200000003,840581.678,840588.900000006,840598.556,845541.551,4,500,23,
break,html.Screen,10_22_1,2023-11-14T19:49:54.754Z,,,,,,,,,,NaN,,,,,,,,high,low,,,,,,false,,,,false,845523.700000003,845523.400000006,,845523,,845541.551,4,500,,
break_continue,html.Screen,10_22_2,2023-11-14T19:49:54.755Z,,,,,,,,,,NaN,,,,,,,,high,low,,,,,,false,,,,false,845524.5,845524.1000000089,,845523.799999997,,845541.551,4,500,,
sequence,flow.Sequence,10_22,2023-11-14T19:49:54.756Z,,,,,,,,,,4925.544000008958,completion,,,,,,,high,low,,,,,,false,,,,false,845524.799999997,845524.1000000089,840581.678,840588.799999997,840598.556,845541.551,4,500,,
trial,html.Screen,10_23_0,2023-11-14T19:50:02.881Z,,,,1,-0.024731486864197,-0.0504232274546553,,false,hl,8108.849000005983,response,0.3289742689165688,0.49749999999999944,-0.45399209487003633,-0.5235864679931949,0.5184245149162662,-0.49355946099636994,high,low,,ISIC_4782878.JPG,10,ISIC_5714285.JPG,251,false,ll,keypress(f),0,false,853650.700000003,853650.400000006,845524.746,845525,845541.551,853657.153,4,500,24,
break,html.Screen,10_23_1,2023-11-14T19:50:02.883Z,,,,,,,,,,NaN,,,,,,,,high,low,,,,,,false,,,,false,853651.900000006,853651.6000000089,,853651.1000000089,,853657.153,4,500,,
break_continue,html.Screen,10_23_2,2023-11-14T19:50:02.884Z,,,,,,,,,,NaN,,,,,,,,high,low,,,,,,false,,,,false,853652.700000003,853652.299999997,,853652.1000000089,,853657.153,4,500,,
sequence,flow.Sequence,10_23,2023-11-14T19:50:02.884Z,,,,,,,,,,8110.748999997042,completion,,,,,,,high,low,,,,,,false,,,,false,853653.1000000089,853652.299999997,845524.746,845525,845541.551,853657.153,4,500,,
trial,html.Screen,10_24_0,2023-11-14T19:50:07.097Z,,,,1,0.0123274848503577,-0.0516828290734233,,false,hh,4209.14699999697,response,0.5611909438741424,0.49749999999999944,-0.45399209487003633,0.6543605168770571,0.5184245149162662,-0.49355946099636994,high,high,,ISIC_0056790.JPG,8,ISIC_0013501.JPG,393,false,ll,keypress(f),0,false,857866.6000000089,857866.299999997,853640.623,853653.299999997,853657.153,857882.182,4,500,25,
break,html.Screen,10_24_1,2023-11-14T19:50:07.098Z,,,,,,,,,,NaN,,,,,,,,high,high,,,,,,false,,,,false,857867.700000003,857867.400000006,,857866.900000006,,857882.182,4,500,,
break_continue,html.Screen,10_24_2,2023-11-14T19:50:07.099Z,,,,,,,,,,NaN,,,,,,,,high,high,,,,,,false,,,,false,857868.6000000089,857868.299999997,,857868,,857882.182,4,500,,
sequence,flow.Sequence,10_24,2023-11-14T19:50:07.100Z,,,,,,,,,,4211.14699999697,completion,,,,,,,high,high,,,,,,false,,,,false,857868.900000006,857868.299999997,853640.623,853653.299999997,853657.153,857882.182,4,500,,
trial,html.Screen,10_25_0,2023-11-14T19:50:13.747Z,,,,1,-0.0249297455748133,0.055986418955019,,false,hl,6632.218000005931,response,0.4627181389344465,0.49749999999999944,-0.45399209487003633,-0.5788765858924492,0.5184245149162662,-0.49355946099636994,high,low,,ISIC_3900049.JPG,11,ISIC_0030085.JPG,251,false,lh,keypress(e),0,false,864514.799999997,864514.400000006,857865.289,857869.200000003,857882.182,864528.508,4,500,26,
break,html.Screen,10_25_1,2023-11-14T19:50:13.748Z,,,,,,,,,,NaN,,,,,,,,high,low,,,,,,false,,,,false,864516,864515.700000003,,864515.200000003,,864528.508,4,500,,
break_continue,html.Screen,10_25_2,2023-11-14T19:50:13.749Z,,,,,,,,,,NaN,,,,,,,,high,low,,,,,,false,,,,false,864517,864516.5,,864516.299999997,,864528.508,4,500,,
sequence,flow.Sequence,10_25,2023-11-14T19:50:13.749Z,,,,,,,,,,6634.31799999997,completion,,,,,,,high,low,,,,,,false,,,,false,864517.299999997,864516.5,857865.289,857869.1000000089,857882.182,864528.508,4,500,,
trial,html.Screen,10_26_0,2023-11-14T19:50:18.418Z,,,,1,-0.0249297455748133,0.055986418955019,,false,lh,4657.39200000593,response,-0.3188856174535539,0.49749999999999944,-0.45399209487003633,0.4167731213090891,0.5184245149162662,-0.49355946099636994,low,high,,ISIC_3900049.JPG,10,ISIC_4770073.JPG,243,false,ll,keypress(f),0,false,869186.1000000089,869185.900000006,864511.737,864517.6000000089,864528.508,869204.335,4,500,27,
break,html.Screen,10_26_1,2023-11-14T19:50:18.419Z,,,,,,,,,,NaN,,,,,,,,low,high,,,,,,false,,,,false,869187.200000003,869187,,869186.5,,869204.335,4,500,,
break_continue,html.Screen,10_26_2,2023-11-14T19:50:18.420Z,,,,,,,,,,NaN,,,,,,,,low,high,,,,,,false,,,,false,869188,869187.6000000089,,869187.400000006,,869204.335,4,500,,
sequence,flow.Sequence,10_26,2023-11-14T19:50:18.420Z,,,,,,,,,,4659.09200000891,completion,,,,,,,low,high,,,,,,false,,,,false,869188.200000003,869187.6000000089,864511.737,864517.5,864528.508,869204.335,4,500,,
trial,html.Screen,10_27_0,2023-11-14T19:50:24.474Z,,,,1,0.0418938536494534,-0.0678614270583654,,true,hl,6037.765000008978,response,0.6306809097790017,0.49749999999999944,-0.45399209487003633,-0.6524190512843631,0.5184245149162662,-0.49355946099636994,high,low,,ISIC_0027573.JPG,9,ISIC_3152541.JPG,251,false,hl,keypress(j),0,false,875242.5,875242.1000000089,869170.92,869188.400000006,869204.335,875249.173,4,500,28,
break,html.Screen,10_27_1,2023-11-14T19:50:24.476Z,,,,,,,,,,NaN,,,,,,,,high,low,,,,,,false,,,,false,875243.700000003,875243.400000006,,875242.799999997,,875249.173,4,500,,
break_continue,html.Screen,10_27_2,2023-11-14T19:50:24.477Z,,,,,,,,,,NaN,,,,,,,,high,low,,,,,,false,,,,false,875244.6000000089,875244.200000003,,875243.900000006,,875249.173,4,500,,
sequence,flow.Sequence,10_27,2023-11-14T19:50:24.477Z,,,,,,,,,,6039.8650000030175,completion,,,,,,,high,low,,,,,,false,,,,false,875244.900000006,875244.200000003,869170.92,869188.400000006,869204.335,875249.173,4,500,,
trial,html.Screen,10_28_0,2023-11-14T19:50:29.034Z,,,,1,0.0448994009031783,-0.0708723658092544,,true,lh,4553.027000003029,response,-0.5046807053914899,0.49749999999999944,-0.45399209487003633,0.4887885091208009,0.5184245149162662,-0.49355946099636994,low,high,,ISIC_0025238.JPG,9,ISIC_0026497.JPG,243,false,lh,keypress(e),0,false,879802.5,879802.200000003,875232.693,875245.1000000089,875249.173,879808.057,4,500,29,
break,html.Screen,10_28_1,2023-11-14T19:50:29.036Z,,,,,,,,,,NaN,,,,,,,,low,high,,,,,,false,,,,false,879803.700000003,879803.400000006,,879802.900000006,,879808.057,4,500,,
break_continue,html.Screen,10_28_2,2023-11-14T19:50:29.037Z,,,,,,,,,,NaN,,,,,,,,low,high,,,,,,false,,,,false,879804.6000000089,879804.200000003,,879804,,879808.057,4,500,,
sequence,flow.Sequence,10_28,2023-11-14T19:50:29.037Z,,,,,,,,,,4555.027000003029,completion,,,,,,,low,high,,,,,,false,,,,false,879804.900000006,879804.200000003,875232.693,875245.1000000089,875249.173,879808.057,4,500,,
trial,html.Screen,10_29_0,2023-11-14T19:50:37.595Z,,,,1,-0.0464691161264081,-0.0535296539628673,,false,ll,8554.54300000891,response,-0.6455946340381131,0.49749999999999944,-0.45399209487003633,-0.3301927175657814,0.5184245149162662,-0.49355946099636994,low,low,,ISIC_0758797.JPG,10,ISIC_3701563.JPG,465,false,lh,keypress(e),0,false,888362.900000006,888362.6000000089,879791.48,879805.1000000089,879808.057,888374.81,4,500,30,
break,html.Screen,10_29_1,2023-11-14T19:50:37.596Z,,,,,,,,,,NaN,,,,,,,,low,low,,,,,,false,,,,false,888364.1000000089,888363.799999997,,888363.299999997,,888374.81,4,500,,
break_continue,html.Screen,10_29_2,2023-11-14T19:50:37.597Z,,,,,,,,,,NaN,,,,,,,,low,low,,,,,,false,,,,false,888365,888364.6000000089,,888364.400000006,,888374.81,4,500,,
sequence,flow.Sequence,10_29,2023-11-14T19:50:37.597Z,,,,,,,,,,8556.54300000891,completion,,,,,,,low,low,,,,,,false,,,,false,888365.299999997,888364.6000000089,879791.48,879805.1000000089,879808.057,888374.81,4,500,,
trial,html.Screen,10_30_0,2023-11-14T19:50:41.433Z,,,,1,-0.0586798548295751,0.0060040805764433,,true,ll,3825.8900000029244,response,-0.3216049466177856,0.49749999999999944,-0.45399209487003633,-0.4914629135137179,0.5184245149162662,-0.49355946099636994,low,low,,ISIC_1552232.JPG,9,ISIC_3926305.JPG,465,false,ll,keypress(f),0,false,892200.799999997,892200.700000003,888358.241,888365.5,888374.81,892215.524,4,500,31,
break,html.Screen,10_30_1,2023-11-14T19:50:41.433Z,,,,,,,,,,NaN,,,,,,,,low,low,,,,,,false,,,,false,892201.1000000089,892201,,892200.799999997,,892215.524,4,500,,
break_continue,html.Screen,10_30_2,2023-11-14T19:50:41.433Z,,,,,,,,,,NaN,,,,,,,,low,low,,,,,,false,,,,false,892201.299999997,892201.299999997,,892201.200000003,,892215.524,4,500,,
sequence,flow.Sequence,10_30,2023-11-14T19:50:41.433Z,,,,,,,,,,3826.489999996964,completion,,,,,,,low,low,,,,,,false,,,,false,892201.5,892201.299999997,888358.241,888365.5,888374.81,892215.524,4,500,,
trial,html.Screen,10_31_0,2023-11-14T19:50:45.034Z,,,,1,-0.0718464495991687,0.0429653518314044,,false,lh,3586.576000008965,response,-0.509078554188922,0.49749999999999944,-0.45399209487003633,0.3294375471326191,0.5184245149162662,-0.49355946099636994,low,high,,ISIC_0028597.JPG,8,ISIC_6385074.JPG,243,false,ll,keypress(f),0,false,895802.5,895802.1000000089,892199.004,892201.5,892215.524,895805.924,4,500,32,
break,html.Screen,10_31_1,2023-11-14T19:50:45.036Z,,,,,,,,,,NaN,,,,,,,,low,high,,,,,,false,,,,false,895803.6000000089,895803.400000006,,895802.900000006,,895805.924,4,500,,
break_continue,html.Screen,10_31_2,2023-11-14T19:50:45.037Z,,,,,,,,,,NaN,,,,,,,,low,high,,,,,,false,,,,false,895804.700000003,895804.299999997,,895804,,895805.924,4,500,,
sequence,flow.Sequence,10_31,2023-11-14T19:50:45.037Z,,,,,,,,,,3588.775999997044,completion,,,,,,,low,high,,,,,,false,,,,false,895805,895804.299999997,892199.004,892201.5,892215.524,895805.924,4,500,,
trial,html.Screen,10_32_0,2023-11-14T19:50:51.707Z,,,,1,-0.0286056110007553,-0.036125199756515,,true,hl,6668.476000005961,response,0.4723905585695486,0.49749999999999944,-0.45399209487003633,-0.3472886991490291,0.5184245149162662,-0.49355946099636994,high,low,,ISIC_6535558.JPG,8,ISIC_9779803.JPG,251,false,hl,keypress(j),0,false,902474.700000003,902474.400000006,895789.284,895805.299999997,895805.924,902485.551,4,500,33,
break,html.Screen,10_32_1,2023-11-14T19:50:51.708Z,,,,,,,,,,NaN,,,,,,,,high,low,,,,,,false,,,,false,902475.900000006,902475.5,,902475.1000000089,,902485.551,4,500,,
break_continue,html.Screen,10_32_2,2023-11-14T19:50:51.709Z,,,,,,,,,,NaN,,,,,,,,high,low,,,,,,false,,,,false,902476.700000003,902476.299999997,,902476,,902485.551,4,500,,
sequence,flow.Sequence,10_32,2023-11-14T19:50:51.709Z,,,,,,,,,,6670.375999997021,completion,,,,,,,high,low,,,,,,false,,,,false,902477,902476.299999997,895789.284,895805.299999997,895805.924,902485.551,4,500,,
trial,html.Screen,10_33_0,2023-11-14T19:51:00.691Z,,,,1,0.0273855825278348,-0.0566295048930719,,false,lh,8972.849000005983,response,-0.4834745496961011,0.49749999999999944,-0.45399209487003633,0.6668515442923276,0.5184245149162662,-0.49355946099636994,low,high,,ISIC_0000141.JPG,10,ISIC_0031018.JPG,243,false,ll,keypress(f),0,false,911458.700000003,911458.400000006,902468.857,902477.200000003,902485.551,911469.733,4,500,34,
break,html.Screen,10_33_1,2023-11-14T19:51:00.692Z,,,,,,,,,,NaN,,,,,,,,low,high,,,,,,false,,,,false,911459.900000006,911459.6000000089,,911459.1000000089,,911469.733,4,500,,
break_continue,html.Screen,10_33_2,2023-11-14T19:51:00.693Z,,,,,,,,,,NaN,,,,,,,,low,high,,,,,,false,,,,false,911460.799999997,911460.400000006,,911460.1000000089,,911469.733,4,500,,
sequence,flow.Sequence,10_33,2023-11-14T19:51:00.693Z,,,,,,,,,,8974.849000005983,completion,,,,,,,low,high,,,,,,false,,,,false,911461.1000000089,911460.400000006,902468.857,902477.200000003,902485.551,911469.733,4,500,,
trial,html.Screen,10_34_0,2023-11-14T19:51:05.339Z,,,,1,-0.0258224118104549,0.0029364553353019,,true,lh,4636.867000008933,response,-0.296582742960481,0.49749999999999944,-0.45399209487003633,0.5533743111439698,0.5184245149162662,-0.49355946099636994,low,high,,ISIC_8325226.JPG,21,ISIC_0029803.JPG,243,false,lh,keypress(e),0,false,916106.900000006,916106.6000000089,911453.034,911461.299999997,911469.733,916112.061,4,500,35,
break,html.Screen,10_34_1,2023-11-14T19:51:05.340Z,,,,,,,,,,NaN,,,,,,,,low,high,,,,,,false,,,,false,916108.1000000089,916107.799999997,,916107.299999997,,916112.061,4,500,,
break_continue,html.Screen,10_34_2,2023-11-14T19:51:05.341Z,,,,,,,,,,NaN,,,,,,,,low,high,,,,,,false,,,,false,916109,916108.5,,916108.299999997,,916112.061,4,500,,
sequence,flow.Sequence,10_34,2023-11-14T19:51:05.341Z,,,,,,,,,,4638.766999999993,completion,,,,,,,low,high,,,,,,false,,,,false,916109.200000003,916108.5,911453.034,911461.299999997,911469.733,916112.061,4,500,,
trial,html.Screen,10_35_0,2023-11-14T19:51:10.178Z,,,,1,0.044991036470624,-0.0185124638005965,,false,hl,4832.8390000059735,response,0.3858408739357699,0.49749999999999944,-0.45399209487003633,-0.4997511833551294,0.5184245149162662,-0.49355946099636994,high,low,,ISIC_2457859.JPG,9,ISIC_0011210.JPG,251,false,hh,keypress(i),0,false,920945.1000000089,920944.900000006,916095.484,916109.5,916112.061,920954.954,4,500,36,
break,html.Screen,10_35_1,2023-11-14T19:51:10.179Z,,,,,,,,,,NaN,,,,,,,,high,low,,,,,,false,,,,false,920945.400000006,920945.299999997,,920945.1000000089,,920954.954,4,500,,
break_continue,html.Screen,10_35_2,2023-11-14T19:51:10.179Z,,,,,,,,,,NaN,,,,,,,,high,low,,,,,,false,,,,false,920945.6000000089,920945.6000000089,,920945.5,,920954.954,4,500,,
sequence,flow.Sequence,10_35,2023-11-14T19:51:10.179Z,,,,,,,,,,4833.539000008954,completion,,,,,,,high,low,,,,,,false,,,,false,920945.700000003,920945.6000000089,916095.484,916109.400000006,916112.061,920954.954,4,500,,
trial,html.Screen,10_36_0,2023-11-14T19:51:16.740Z,,,,1,-0.0085390023861227,-0.051110950799465,,false,hl,6551.545999999973,response,0.5310260169959041,0.49749999999999944,-0.45399209487003633,-0.3025934026820932,0.5184245149162662,-0.49355946099636994,high,low,,ISIC_6268546.JPG,8,ISIC_3655327.JPG,251,false,hh,keypress(i),0,false,927506.900000006,927506.5,920938.165,920945.799999997,920954.954,927517.627,4,500,37,
break,html.Screen,10_36_1,2023-11-14T19:51:16.741Z,,,,,,,,,,NaN,,,,,,,,high,low,,,,,,false,,,,false,927508.1000000089,927507.799999997,,927507.299999997,,927517.627,4,500,,
break_continue,html.Screen,10_36_2,2023-11-14T19:51:16.742Z,,,,,,,,,,NaN,,,,,,,,high,low,,,,,,false,,,,false,927509,927508.6000000089,,927508.299999997,,927517.627,4,500,,
sequence,flow.Sequence,10_36,2023-11-14T19:51:16.743Z,,,,,,,,,,6553.646000008914,completion,,,,,,,high,low,,,,,,false,,,,false,927509.299999997,927508.6000000089,920938.165,920945.799999997,920954.954,927517.627,4,500,,
trial,html.Screen,10_37_0,2023-11-14T19:51:20.186Z,,,,1,-0.0249297455748133,0.055986418955019,,false,hl,3435.273000005982,response,0.4339028719798106,0.49749999999999944,-0.45399209487003633,-0.5326886749419959,0.5184245149162662,-0.49355946099636994,high,low,,ISIC_3900049.JPG,9,ISIC_0046628.JPG,251,false,lh,keypress(e),0,false,930953,930952.900000006,927501.11,927509.5,927517.627,930974.336,4,500,38,
break,html.Screen,10_37_1,2023-11-14T19:51:20.186Z,,,,,,,,,,NaN,,,,,,,,high,low,,,,,,false,,,,false,930953.200000003,930953.200000003,,930953,,930974.336,4,500,,
break_continue,html.Screen,10_37_2,2023-11-14T19:51:20.187Z,,,,,,,,,,NaN,,,,,,,,high,low,,,,,,false,,,,false,930953.5,930953.400000006,,930953.299999997,,930974.336,4,500,,
sequence,flow.Sequence,10_37,2023-11-14T19:51:20.187Z,,,,,,,,,,3435.773000005982,completion,,,,,,,high,low,,,,,,false,,,,false,930953.5,930953.400000006,927501.11,927509.5,927517.627,930974.336,4,500,,
trial,html.Screen,10_38_0,2023-11-14T19:51:25.740Z,,,,1,0.039520186367207,0.0377961575607372,,false,hl,5531.9639999970095,response,0.3277365112868931,0.49749999999999944,-0.45399209487003633,-0.6030727103114052,0.5184245149162662,-0.49355946099636994,high,low,,ISIC_6356149.JPG,8,ISIC_6657600.JPG,251,false,ll,keypress(f),0,false,936506.6000000089,936506.299999997,930957.723,930953.6000000089,930974.336,936518.517,4,500,39,
break,html.Screen,10_38_1,2023-11-14T19:51:25.741Z,,,,,,,,,,NaN,,,,,,,,high,low,,,,,,false,,,,false,936507.700000003,936507.5,,936507,,936518.517,4,500,,
break_continue,html.Screen,10_38_2,2023-11-14T19:51:25.742Z,,,,,,,,,,NaN,,,,,,,,high,low,,,,,,false,,,,false,936508.6000000089,936508.299999997,,936508,,936518.517,4,500,,
sequence,flow.Sequence,10_38,2023-11-14T19:51:25.742Z,,,,,,,,,,5533.9639999970095,completion,,,,,,,high,low,,,,,,false,,,,false,936508.900000006,936508.299999997,930957.723,930953.6000000089,930974.336,936518.517,4,500,,
trial,html.Screen,10_39_0,2023-11-14T19:51:30.788Z,,,,1,0.0607839218394147,0.0567408401627122,,true,lh,5036.083000008948,response,-0.4240130649364615,0.49749999999999944,-0.45399209487003633,0.6897816265213811,0.5184245149162662,-0.49355946099636994,low,high,,ISIC_0026901.JPG,10,ISIC_0070422.JPG,243,false,lh,keypress(e),0,false,941554.900000006,941554.6000000089,936501.929,936509.200000003,936518.517,941561.604,4,500,40,
break,html.Screen,10_39_1,2023-11-14T19:51:30.789Z,,,,,,,,,,NaN,,,,,,,,low,high,,,,,,false,,,,false,941556.200000003,941555.900000006,,941555.400000006,,941561.604,4,500,,
break_continue,html.Screen,10_39_2,2023-11-14T19:51:30.790Z,,,,,,,,,,NaN,,,,,,,,low,high,,,,,,false,,,,false,941557.1000000089,941556.700000003,,941556.400000006,,941561.604,4,500,,
sequence,flow.Sequence,10_39,2023-11-14T19:51:30.791Z,,,,,,,,,,5038.183000002988,completion,,,,,,,low,high,,,,,,false,,,,false,941557.400000006,941556.700000003,936501.929,936509.1000000089,936518.517,941561.604,4,500,,
trial,html.Screen,10_40_0,2023-11-14T19:51:36.980Z,,,,1,-0.0447960916594447,-0.0451557856659748,,true,hl,6184.6959999969695,response,0.671292562757748,0.49749999999999944,-0.45399209487003633,-0.4006864660348836,0.5184245149162662,-0.49355946099636994,high,low,,ISIC_1379405.JPG,9,ISIC_2974214.JPG,251,false,hl,keypress(j),0,false,947746.6000000089,947746.299999997,941545.059,941557.700000003,941561.604,947756.93,4,500,41,
break,html.Screen,10_40_1,2023-11-14T19:51:36.981Z,,,,,,,,,,NaN,,,,,,,,high,low,,,,,,false,,,,false,947747.799999997,947747.5,,947747.1000000089,,947756.93,4,500,,
break_continue,html.Screen,10_40_2,2023-11-14T19:51:36.982Z,,,,,,,,,,NaN,,,,,,,,high,low,,,,,,false,,,,false,947748.700000003,947748.299999997,,947748.1000000089,,947756.93,4,500,,
sequence,flow.Sequence,10_40,2023-11-14T19:51:36.982Z,,,,,,,,,,6186.6959999969695,completion,,,,,,,high,low,,,,,,false,,,,false,947748.900000006,947748.299999997,941545.059,941557.6000000089,941561.604,947756.93,4,500,,
trial,html.Screen,10_41_0,2023-11-14T19:51:41.396Z,,,,1,0.0164027439304477,-0.0082910758715273,,false,hl,4405.569999999949,response,0.5244878065717017,0.49749999999999944,-0.45399209487003633,-0.4140585357954949,0.5184245149162662,-0.49355946099636994,high,low,,ISIC_7381224.JPG,8,ISIC_0024333.JPG,251,false,hh,keypress(i),0,false,952162.799999997,952162.5,947740.441,947749.200000003,947756.93,952165.639,4,500,42,
break,html.Screen,10_41_1,2023-11-14T19:51:41.397Z,,,,,,,,,,NaN,,,,,,,,high,low,,,,,,false,,,,false,952164.200000003,952163.799999997,,952163.299999997,,952165.639,4,500,,
break_continue,html.Screen,10_41_2,2023-11-14T19:51:41.398Z,,,,,,,,,,NaN,,,,,,,,high,low,,,,,,false,,,,false,952165,952164.6000000089,,952164.299999997,,952165.639,4,500,,
sequence,flow.Sequence,10_41,2023-11-14T19:51:41.399Z,,,,,,,,,,4407.6700000088895,completion,,,,,,,high,low,,,,,,false,,,,false,952165.299999997,952164.6000000089,947740.441,947749.1000000089,947756.93,952165.639,4,500,,
trial,html.Screen,10_42_0,2023-11-14T19:51:49.380Z,,,,1,0.0223011224608011,-0.0466190802905965,,false,hl,7980.660999997053,response,0.4062647519379602,0.49749999999999944,-0.45399209487003633,-0.5139133682888635,0.5184245149162662,-0.49355946099636994,high,low,,ISIC_0028041.JPG,9,ISIC_8892236.JPG,251,false,hh,keypress(i),0,false,960146.700000003,960146.299999997,952148.913,952165.6000000089,952165.639,960164.712,4,500,43,
break,html.Screen,10_42_1,2023-11-14T19:51:49.381Z,,,,,,,,,,NaN,,,,,,,,high,low,,,,,,false,,,,false,960147.799999997,960147.6000000089,,960147,,960164.712,4,500,,
break_continue,html.Screen,10_42_2,2023-11-14T19:51:49.382Z,,,,,,,,,,NaN,,,,,,,,high,low,,,,,,false,,,,false,960148.700000003,960148.400000006,,960148.1000000089,,960164.712,4,500,,
sequence,flow.Sequence,10_42,2023-11-14T19:51:49.382Z,,,,,,,,,,7982.761000005994,completion,,,,,,,high,low,,,,,,false,,,,false,960149,960148.400000006,952148.913,952165.5,952165.639,960164.712,4,500,,
trial,html.Screen,10_43_0,2023-11-14T19:51:56.554Z,,,,1,0.0395587463147856,-0.0645068093068572,,false,ll,7156.287999999942,response,-0.5561372425056906,0.49749999999999944,-0.45399209487003633,-0.4350749914301841,0.5184245149162662,-0.49355946099636994,low,low,,ISIC_0010807.JPG,10,ISIC_0610477.JPG,465,false,hl,keypress(j),0,false,967321.1000000089,967321,960131.23,960149.299999997,960164.712,967328.394,4,500,44,
break,html.Screen,10_43_1,2023-11-14T19:51:56.555Z,,,,,,,,,,NaN,,,,,,,,low,low,,,,,,false,,,,false,967321.5,967321.5,,967321.299999997,,967328.394,4,500,,
break_continue,html.Screen,10_43_2,2023-11-14T19:51:56.555Z,,,,,,,,,,NaN,,,,,,,,low,low,,,,,,false,,,,false,967321.700000003,967321.6000000089,,967321.5,,967328.394,4,500,,
sequence,flow.Sequence,10_43,2023-11-14T19:51:56.555Z,,,,,,,,,,7156.888000008883,completion,,,,,,,low,low,,,,,,false,,,,false,967321.799999997,967321.6000000089,960131.23,960149.200000003,960164.712,967328.394,4,500,,
trial,html.Screen,10_44_0,2023-11-14T19:52:02.020Z,,,,1,-0.0572065166118795,0.0247840126545907,,false,hl,5457.806000003009,response,0.441584418866717,0.49749999999999944,-0.45399209487003633,-0.3538515735338575,0.5184245149162662,-0.49355946099636994,high,low,,ISIC_0024565.JPG,9,ISIC_0072990.JPG,251,false,ll,keypress(f),0,false,972786.6000000089,972786.200000003,967311.659,967321.799999997,967328.394,972789.125,4,500,45,
break,html.Screen,10_44_1,2023-11-14T19:52:02.021Z,,,,,,,,,,NaN,,,,,,,,high,low,,,,,,false,,,,false,972787.799999997,972787.5,,972787,,972789.125,4,500,,
break_continue,html.Screen,10_44_2,2023-11-14T19:52:02.022Z,,,,,,,,,,NaN,,,,,,,,high,low,,,,,,false,,,,false,972788.799999997,972788.400000006,,972788.1000000089,,972789.125,4,500,,
sequence,flow.Sequence,10_44,2023-11-14T19:52:02.022Z,,,,,,,,,,5460.006000005989,completion,,,,,,,high,low,,,,,,false,,,,false,972789,972788.400000006,967311.659,967321.799999997,967328.394,972789.125,4,500,,
trial,html.Screen,10_45_0,2023-11-14T19:52:09.245Z,,,,1,-0.068830656047477,0.0471494209282208,,false,lh,7221.475000008941,response,-0.2646107430620404,0.49749999999999944,-0.45399209487003633,0.4003715948579786,0.5184245149162662,-0.49355946099636994,low,high,,ISIC_0029982.JPG,9,ISIC_5955057.JPG,243,false,hl,keypress(j),0,false,980010.900000006,980010.6000000089,972772.51,972789.299999997,972789.125,980019.752,4,500,46,
break,html.Screen,10_45_1,2023-11-14T19:52:09.246Z,,,,,,,,,,NaN,,,,,,,,low,high,,,,,,false,,,,false,980012,980011.799999997,,980011.200000003,,980019.752,4,500,,
break_continue,html.Screen,10_45_2,2023-11-14T19:52:09.247Z,,,,,,,,,,NaN,,,,,,,,low,high,,,,,,false,,,,false,980012.900000006,980012.5,,980012.299999997,,980019.752,4,500,,
sequence,flow.Sequence,10_45,2023-11-14T19:52:09.247Z,,,,,,,,,,7223.375,completion,,,,,,,low,high,,,,,,false,,,,false,980013.299999997,980012.5,972772.51,972789.299999997,972789.125,980019.752,4,500,,
trial,html.Screen,10_46_0,2023-11-14T19:52:16.981Z,,,,1,0.0495531443078245,0.0310660434153916,,false,hh,7726.648000005982,response,0.6144490702520653,0.49749999999999944,-0.45399209487003633,0.6842982966742426,0.5184245149162662,-0.49355946099636994,high,high,,ISIC_0013719.JPG,9,ISIC_2222091.JPG,393,false,lh,keypress(e),0,false,987746.700000003,987746.400000006,980003.039,980013.5,980019.752,987751.489,4,500,47,
break,html.Screen,10_46_1,2023-11-14T19:52:16.982Z,,,,,,,,,,NaN,,,,,,,,high,high,,,,,,false,,,,false,987748,987747.700000003,,987747.1000000089,,987751.489,4,500,,
break_continue,html.Screen,10_46_2,2023-11-14T19:52:16.983Z,,,,,,,,,,NaN,,,,,,,,high,high,,,,,,false,,,,false,987748.799999997,987748.5,,987748.1000000089,,987751.489,4,500,,
sequence,flow.Sequence,10_46,2023-11-14T19:52:16.983Z,,,,,,,,,,7728.748000000021,completion,,,,,,,high,high,,,,,,false,,,,false,987749.1000000089,987748.5,980003.039,980013.400000006,980019.752,987751.489,4,500,,
trial,html.Screen,10_47_0,2023-11-14T19:52:24.148Z,,,,1,0.0497314815986203,-0.0303374618795786,,false,lh,7161.911000006017,response,-0.5024245210966175,0.49749999999999944,-0.45399209487003633,0.3690459310158711,0.5184245149162662,-0.49355946099636994,low,high,,ISIC_6023504.JPG,9,ISIC_0016082.JPG,243,false,ll,keypress(f),0,false,994913.6000000089,994913.400000006,987734.963,987749.400000006,987751.489,994915.458,4,500,48,
break,html.Screen,10_47_1,2023-11-14T19:52:24.148Z,,,,,,,,,,NaN,,,,,,,,low,high,,,,,,false,,,,false,994914.1000000089,994914,,994913.799999997,,994915.458,4,500,,
break_continue,html.Screen,10_47_2,2023-11-14T19:52:24.148Z,,,,,,,,,,NaN,,,,,,,,low,high,,,,,,false,,,,false,994914.400000006,994914.200000003,,994914.200000003,,994915.458,4,500,,
sequence,flow.Sequence,10_47,2023-11-14T19:52:24.149Z,,,,,,,,,,7162.711000003037,completion,,,,,,,low,high,,,,,,false,,,,false,994914.6000000089,994914.200000003,987734.963,987749.299999997,987751.489,994915.458,4,500,,
trial,html.Screen,10_48_0,2023-11-14T19:52:32.365Z,,,,1,0.0367060100866019,0.0630207980628495,,true,ll,8214.942000005976,response,-0.4554401186363235,0.49749999999999944,-0.45399209487003633,-0.5938931940007941,0.5184245149162662,-0.49355946099636994,low,low,,ISIC_0028396.JPG,9,ISIC_0016112.JPG,465,false,ll,keypress(f),0,false,1003130.799999997,1003130.400000006,994898.958,994914.6000000089,994915.458,1003148.212,4,500,49,
break,html.Screen,10_48_1,2023-11-14T19:52:32.366Z,,,,,,,,,,NaN,,,,,,,,low,low,,,,,,false,,,,false,1003131.799999997,1003131.5,,1003131.1000000089,,1003148.212,4,500,,
break_continue,html.Screen,10_48_2,2023-11-14T19:52:32.367Z,,,,,,,,,,NaN,,,,,,,,low,low,,,,,,false,,,,false,1003132.700000003,1003132.299999997,,1003132.1000000089,,1003148.212,4,500,,
sequence,flow.Sequence,10_48,2023-11-14T19:52:32.367Z,,,,,,,,,,8216.841999997036,completion,,,,,,,low,low,,,,,,false,,,,false,1003133,1003132.299999997,994898.958,994914.6000000089,994915.458,1003148.212,4,500,,
trial,html.Screen,10_49_0,2023-11-14T19:52:39.029Z,,,,1,-0.0200295718112167,-0.0155559071275806,,true,hl,6646.188000005903,response,0.4129446940634226,0.49749999999999944,-0.45399209487003633,-0.4920635278876878,0.5184245149162662,-0.49355946099636994,high,low,,ISIC_0061343.JPG,8,ISIC_7755096.JPG,251,false,hl,keypress(j),0,false,1009794.700000003,1009794.400000006,1003131.635,1003133,1003148.212,1009811.349,4,500,50,
break,html.Screen,10_49_1,2023-11-14T19:52:39.030Z,,,,,,,,,,NaN,,,,,,,,high,low,,,,,,false,,,,false,1009796,1009795.6000000089,,1009795.1000000089,,1009811.349,4,500,,
break_continue,html.Screen,10_49_2,2023-11-14T19:52:39.031Z,,,,,,,,,,NaN,,,,,,,,high,low,,,,,,false,,,,false,1009796.799999997,1009796.400000006,,1009796.200000003,,1009811.349,4,500,,
sequence,flow.Sequence,10_49,2023-11-14T19:52:39.031Z,,,,,,,,,,6648.188000005903,completion,,,,,,,high,low,,,,,,false,,,,false,1009797.1000000089,1009796.400000006,1003131.635,1003133,1003148.212,1009811.349,4,500,,
trial,html.Screen,10_50_0,2023-11-14T19:52:46.469Z,,,,1,-0.07101539702336,0.0351358305415709,,false,lh,7422.950999996974,response,-0.4424953596273369,0.49749999999999944,-0.45399209487003633,0.578075680807843,0.5184245149162662,-0.49355946099636994,low,high,,ISIC_0033279.JPG,10,ISIC_0027627.JPG,243,false,hh,keypress(i),0,false,1017234.700000003,1017234.299999997,1009794.611,1009797.400000006,1009811.349,1017242.237,4,500,51,
break,html.Screen,10_50_1,2023-11-14T19:52:46.470Z,,,,,,,,,,NaN,,,,,,,,low,high,,,,,,false,,,,false,1017235.900000006,1017235.5,,1017235,,1017242.237,4,500,,
