sender,sender_type,sender_id,timestamp,meta,,age,blockNo,c1,c2,condition,correct,correctResponse,duration,ended_on,f1,f1_high,f1_low,f2,f2_high,f2_low,feature_level1,feature_level2,gender,img_left,img_reveal,img_right,n_target_images,practice,response,response_action,selection_duration,staircase,time_commit,time_end,time_render,time_run,time_show,time_switch,total_blocks,total_trials,trialNo,url
informed_consent,html.Screen,0,2023-11-14T18:31:50.880Z,"{""labjs_version"":""20.2.4"",""labjs_build"":{""flavor"":""development"",""commit"":""f5b4a49f956347addd546a832a3327688c2c0fef""},""location"":""https://labjs.felixhenninger.com/api/labjs_preview/index.html"",""userAgent"":""Mozilla/5.0 (Windows NT 10.0; Win64; x64) AppleWebKit/537.36 (KHTML, like Gecko) Chrome/119.0.0.0 Safari/537.36"",""platform"":""Win32"",""language"":""en-US"",""locale"":""en-US"",""timeZone"":""America/Chicago"",""timezoneOffset"":360,""screen_width"":1920,""screen_height"":1080,""scroll_width"":945,""scroll_height"":918,""window_innerWidth"":945,""window_innerHeight"":966,""devicePixelRatio"":1}",,,,,,,,,24196.638000000745,response,,,,,,,,,,,,,,,consent,click button,,,25235.60000000149,25226.800000000745,1013.423,1204.6000000014901,1030.162,25046.835,,,,{}
Demography form,html.Form,1,2023-11-14T18:32:38.567Z,,,18,,,,,,,47876.26500000149,form submission,,,,,,,,,female,,,,,,,,,,72923.30000000075,72923.10000000149,25030.288,25235.900000000373,25046.835,72746.896,,,,
Welcome,html.Screen,2,2023-11-14T18:33:21.248Z,,,,,,,"[""bor"",""col""]",,,42856.804000001124,response,,,,,,,,,,,,,,,continue,click button,,,115604.20000000112,115603.70000000112,72713.752,72923.40000000037,72746.896,115430.297,,,,
demo_instructions,html.Screen,3,2023-11-14T18:33:48.080Z,,,,,,,,,,27004.40300000111,response,,,,,,,,,,,,,,,continue,click button,,,142435.20000000112,142434.70000000112,115413.618,115604.40000000037,115430.297,142246.98,,,,
trial,html.Screen,4_0_0,2023-11-14T18:34:02.083Z,,,,0,0.7396001261916139,-0.9901017340796716,,true,lh,14191.62000000148,response,-1.058275612142778,0.8999999999999997,-0.8999999999999997,0.7824898568540655,0.8999999999999997,-0.8999999999999997,low,high,,ISIC_8679617.JPG,,ISIC_4906385.JPG,29,true,lh,keypress(e),100,false,156438.90000000037,156438.6000000015,142230.466,142435.40000000037,142246.98,156263.822,1,16,1,
sequence,flow.Sequence,4_0,2023-11-14T18:34:02.084Z,,,,,,,,,,14191.62000000148,completion,,,,,,,low,high,,,,,,true,,,,false,156439.20000000112,156438.6000000015,142230.466,142435.40000000037,142246.98,156263.822,1,16,,
trial,html.Screen,4_1_0,2023-11-14T18:34:08.504Z,,,,0,0.9544693251394116,-1.0727539917203766,,true,lh,6595.878000001132,response,-0.930804711032185,0.8999999999999997,-0.8999999999999997,0.7294067991476295,0.8999999999999997,-0.8999999999999997,low,high,,ISIC_0055147.JPG,,ISIC_5067317.JPG,29,true,lh,keypress(e),100,false,162859.90000000037,162859.70000000112,156247.004,156439.20000000112,156263.822,162697.14,1,16,2,
sequence,flow.Sequence,4_1,2023-11-14T18:34:08.505Z,,,,,,,,,,6595.878000001132,completion,,,,,,,low,high,,,,,,true,,,,false,162860.40000000037,162859.70000000112,156247.004,156439.20000000112,156263.822,162697.14,1,16,,
trial,html.Screen,4_2_0,2023-11-14T18:34:12.735Z,,,,0,1.0788024398087033,-0.9911875460374616,,true,lh,4393.260000000359,response,-0.7088606387153258,0.8999999999999997,-0.8999999999999997,0.948610930521224,0.8999999999999997,-0.8999999999999997,low,high,,ISIC_5951430.JPG,,ISIC_0026293.JPG,29,true,lh,keypress(e),100,false,167090.6000000015,167090.40000000037,162680.591,162860.6000000015,162697.14,166930.413,1,16,3,
sequence,flow.Sequence,4_2,2023-11-14T18:34:12.735Z,,,,,,,,,,4393.260000000359,completion,,,,,,,low,high,,,,,,true,,,,false,167090.80000000075,167090.40000000037,162680.591,162860.6000000015,162697.14,166930.413,1,16,,
trial,html.Screen,4_3_0,2023-11-14T18:34:16.579Z,,,,0,0.7692916291112835,-0.7818604706992622,,true,lh,4003.8870000007446,response,-0.9653573371180936,0.8999999999999997,-0.8999999999999997,0.854766800381037,0.8999999999999997,-0.8999999999999997,low,high,,ISIC_7844825.JPG,,ISIC_9640145.JPG,29,true,lh,keypress(e),100,false,170934.6000000015,170934.30000000075,166913.901,167090.90000000037,166930.413,170763.834,1,16,4,
sequence,flow.Sequence,4_3,2023-11-14T18:34:16.579Z,,,,,,,,,,4003.8870000007446,completion,,,,,,,low,high,,,,,,true,,,,false,170934.90000000037,170934.30000000075,166913.901,167090.80000000075,166930.413,170763.834,1,16,,
trial,html.Screen,4_4_0,2023-11-14T18:34:27.112Z,,,,0,0.7175484898254125,0.9475215296190668,,true,ll,10703.866000001115,response,-0.7519481565232475,0.8999999999999997,-0.8999999999999997,-0.9019952027171262,0.8999999999999997,-0.8999999999999997,low,low,,ISIC_0062536.JPG,,ISIC_1497800.JPG,169,true,ll,keypress(f),100,false,181468,181467.70000000112,170747.078,170935,170763.834,181297.066,1,16,5,
sequence,flow.Sequence,4_4,2023-11-14T18:34:27.113Z,,,,,,,,,,10703.866000001115,completion,,,,,,,low,low,,,,,,true,,,,false,181468.5,181467.70000000112,170747.078,170935,170763.834,181297.066,1,16,,
trial,html.Screen,4_5_0,2023-11-14T18:34:29.072Z,,,,0,0.9766645409582418,1.086167902767275,,true,ll,2130.634000001126,response,-0.9394358755892184,0.8999999999999997,-0.8999999999999997,-1.0256934713188917,0.8999999999999997,-0.8999999999999997,low,low,,ISIC_0011526.JPG,,ISIC_4264600.JPG,169,true,ll,keypress(f),100,false,183427.90000000037,183427.70000000112,181280.38,181468.70000000112,181297.066,183263.786,1,16,6,
sequence,flow.Sequence,4_5,2023-11-14T18:34:29.072Z,,,,,,,,,,2130.634000001126,completion,,,,,,,low,low,,,,,,true,,,,false,183428.1000000015,183427.70000000112,181280.38,181468.70000000112,181297.066,183263.786,1,16,,
trial,html.Screen,4_6_0,2023-11-14T18:34:31.237Z,,,,0,1.0653732408486678,1.089675540151582,,true,ll,2328.6140000003797,response,-0.9253985598518948,0.8999999999999997,-0.8999999999999997,-0.8253785649083512,0.8999999999999997,-0.8999999999999997,low,low,,ISIC_0058315.JPG,,ISIC_7509837.JPG,169,true,ll,keypress(f),100,false,185592.5,185592.40000000037,183247.063,183428.1000000015,183263.786,185430.408,1,16,7,
sequence,flow.Sequence,4_6,2023-11-14T18:34:31.237Z,,,,,,,,,,2328.6140000003797,completion,,,,,,,low,low,,,,,,true,,,,false,185592.70000000112,185592.40000000037,183247.063,183428.1000000015,183263.786,185430.408,1,16,,
trial,html.Screen,4_7_0,2023-11-14T18:34:32.696Z,,,,0,0.7461766562126003,0.9163054072963652,,true,ll,1620.9920000003767,response,-0.9242629064104082,0.8999999999999997,-0.8999999999999997,-1.0085499824556403,0.8999999999999997,-0.8999999999999997,low,low,,ISIC_0012070.JPG,,ISIC_7795549.JPG,169,true,ll,keypress(f),100,false,187051.5,187051.40000000037,185413.784,185592.80000000075,185430.408,186880.363,1,16,8,
sequence,flow.Sequence,4_7,2023-11-14T18:34:32.696Z,,,,,,,,,,1620.9920000003767,completion,,,,,,,low,low,,,,,,true,,,,false,187051.70000000112,187051.40000000037,185413.784,185592.70000000112,185430.408,186880.363,1,16,,
trial,html.Screen,4_8_0,2023-11-14T18:34:34.524Z,,,,0,-0.7883321712536753,1.0011430756825364,,true,hl,1999.636999999988,response,0.9244148283103414,0.8999999999999997,-0.8999999999999997,-0.9712966348713286,0.8999999999999997,-0.8999999999999997,high,low,,ISIC_9828853.JPG,,ISIC_7927525.JPG,43,true,hl,keypress(j),100,false,188880.20000000112,188880,186863.7,187051.70000000112,186880.363,188713.683,1,16,9,
sequence,flow.Sequence,4_8,2023-11-14T18:34:34.524Z,,,,,,,,,,1999.636999999988,completion,,,,,,,high,low,,,,,,true,,,,false,188880.30000000075,188880,186863.7,187051.70000000112,186880.363,188713.683,1,16,,
trial,html.Screen,4_9_0,2023-11-14T18:34:42.335Z,,,,0,-0.8513427412482127,0.9295303568095064,,true,hl,7976.9170000015,response,1.0116417541846066,0.8999999999999997,-0.8999999999999997,-1.033442916947398,0.8999999999999997,-0.8999999999999997,high,low,,ISIC_0034164.JPG,,ISIC_0031389.JPG,43,true,hl,keypress(j),100,false,196690.80000000075,196690.6000000015,188697.075,188880.40000000037,188713.683,196530.64,1,16,10,
sequence,flow.Sequence,4_9,2023-11-14T18:34:42.335Z,,,,,,,,,,7976.9170000015,completion,,,,,,,high,low,,,,,,true,,,,false,196691.1000000015,196690.6000000015,188697.075,188880.40000000037,188713.683,196530.64,1,16,,
trial,html.Screen,4_10_0,2023-11-14T18:34:45.797Z,,,,0,-0.8034318937720549,1.0024917298189338,,true,hl,3621.7600000003586,response,0.8067627078956657,0.8999999999999997,-0.8999999999999997,-0.7115865750196155,0.8999999999999997,-0.8999999999999997,high,low,,ISIC_0032766.JPG,,ISIC_0010014.JPG,43,true,hl,keypress(j),100,false,200152.6000000015,200152.40000000037,196513.905,196691.40000000037,196530.64,199980.54,1,16,11,
sequence,flow.Sequence,4_10,2023-11-14T18:34:45.797Z,,,,,,,,,,3621.7600000003586,completion,,,,,,,high,low,,,,,,true,,,,false,200152.80000000075,200152.40000000037,196513.905,196691.40000000037,196530.64,199980.54,1,16,,
trial,html.Screen,4_11_0,2023-11-14T18:34:47.546Z,,,,0,-0.7991459998473059,1.0280788723474688,,true,hl,1920.8600000003644,response,1.0926414044454305,0.8999999999999997,-0.8999999999999997,-0.7741624649032207,0.8999999999999997,-0.8999999999999997,high,low,,ISIC_7951202.JPG,,ISIC_2355513.JPG,43,true,hl,keypress(j),100,false,201901.6000000015,201901.40000000037,199963.713,200152.90000000037,199980.54,201730.417,1,16,12,
sequence,flow.Sequence,4_11,2023-11-14T18:34:47.546Z,,,,,,,,,,1920.8600000003644,completion,,,,,,,high,low,,,,,,true,,,,false,201901.80000000075,201901.40000000037,199963.713,200152.80000000075,199980.54,201730.417,1,16,,
trial,html.Screen,4_12_0,2023-11-14T18:34:50.014Z,,,,0,-0.9394358755892184,-1.0256934713188917,,true,hh,2639.0830000000133,response,0.9373876279903552,0.8999999999999997,-0.8999999999999997,0.8494489003914609,0.8999999999999997,-0.8999999999999997,high,high,,ISIC_4264600.JPG,,ISIC_2554114.JPG,184,true,hh,keypress(i),100,false,204369.70000000112,204369.5,201713.752,201901.90000000037,201730.417,204197.104,1,16,13,
sequence,flow.Sequence,4_12,2023-11-14T18:34:50.014Z,,,,,,,,,,2639.0830000000133,completion,,,,,,,high,high,,,,,,true,,,,false,204369.90000000037,204369.5,201713.752,201901.90000000037,201730.417,204197.104,1,16,,
trial,html.Screen,4_13_0,2023-11-14T18:34:51.507Z,,,,0,-0.763664812271151,-1.067232176289901,,true,hh,1665.696000000753,response,0.9864553897205228,0.8999999999999997,-0.8999999999999997,0.7203939202840286,0.8999999999999997,-0.8999999999999997,high,high,,ISIC_3466769.JPG,,ISIC_0054334.JPG,184,true,hh,keypress(i),100,false,205863.1000000015,205862.80000000075,204180.454,204370.1000000015,204197.104,205697.058,1,16,14,
sequence,flow.Sequence,4_13,2023-11-14T18:34:51.508Z,,,,,,,,,,1665.696000000753,completion,,,,,,,high,high,,,,,,true,,,,false,205863.30000000075,205862.80000000075,204180.454,204370.1000000015,204197.104,205697.058,1,16,,
trial,html.Screen,4_14_0,2023-11-14T18:34:52.952Z,,,,0,-0.8991086866898779,-0.8657681961662855,,true,hh,1610.8420000003825,response,0.9486555750998196,0.8999999999999997,-0.8999999999999997,0.7476193313791517,0.8999999999999997,-0.8999999999999997,high,high,,ISIC_0005304.JPG,,ISIC_0029744.JPG,184,true,hh,keypress(i),100,false,207308.30000000075,207307.90000000037,205680.562,205863.5,205697.058,207147.231,1,16,15,
sequence,flow.Sequence,4_14,2023-11-14T18:34:52.953Z,,,,,,,,,,1610.8420000003825,completion,,,,,,,high,high,,,,,,true,,,,false,207308.6000000015,207307.90000000037,205680.562,205863.5,205697.058,207147.231,1,16,,
trial,html.Screen,4_15_0,2023-11-14T18:34:54.384Z,,,,0,-0.763664812271151,-1.067232176289901,,true,hh,1591.9690000011178,response,1.0437879361189135,0.8999999999999997,-0.8999999999999997,1.0467954238943018,0.8999999999999997,-0.8999999999999997,high,high,,ISIC_3466769.JPG,,ISIC_0011626.JPG,184,true,hh,keypress(i),100,false,208739.40000000037,208739.20000000112,207130.549,207308.90000000037,207147.231,208563.746,1,16,16,
sequence,flow.Sequence,4_15,2023-11-14T18:34:54.384Z,,,,,,,,,,1591.9690000011178,completion,,,,,,,high,high,,,,,,true,,,,false,208739.6000000015,208739.20000000112,207130.549,207308.80000000075,207147.231,208563.746,1,16,,
demonstration_loop,flow.Loop,4,2023-11-14T18:34:54.384Z,,,,,,,,,,66492.2200000011,completion,,,,,,,,,,,,,,true,,,,false,208739.70000000112,208739.20000000112,142230.466,142435.30000000075,142246.98,208563.746,1,16,,
practice_instructions,html.Screen,5,2023-11-14T18:34:57.863Z,,,,,,,,,,3655.0540000007313,response,,,,,,,,,,,,,,,continue,click button,,,212219.30000000075,212218.80000000075,208547.222,208739.80000000075,208563.746,212047.322,,,,
trial,html.Screen,6_0_0,2023-11-14T18:35:06.982Z,,,,1,-0.8465917022244419,-1.0121558062445464,,true,hh,9280.378000001132,response,0.7452700151122865,0.8999999999999997,-0.8999999999999997,0.7438857109222746,0.8999999999999997,-0.8999999999999997,high,high,,ISIC_6914698.JPG,,ISIC_0027067.JPG,184,true,hh,keypress(i),0,false,221338,221327.70000000112,212030.393,212219.40000000037,212047.322,221163.923,1,20,1,
sequence,flow.Sequence,6_0,2023-11-14T18:35:06.982Z,,,,,,,,,,9280.378000001132,completion,,,,,,,high,high,,,,,,true,,,,false,221338.20000000112,221327.70000000112,212030.393,212219.40000000037,212047.322,221163.923,1,20,,
trial,html.Screen,6_1_0,2023-11-14T18:35:15.256Z,,,,1,0.7521168894214699,0.8764497729455479,,true,ll,8447.377000000735,response,-0.8086813973201046,0.8999999999999997,-0.8999999999999997,-0.8107888307699666,0.8999999999999997,-0.8999999999999997,low,low,,ISIC_0030080.JPG,,ISIC_3013468.JPG,169,true,ll,keypress(f),0,false,229611.40000000037,229611.30000000075,221147.095,221338.30000000075,221163.923,229430.646,1,20,2,
sequence,flow.Sequence,6_1,2023-11-14T18:35:15.256Z,,,,,,,,,,8447.377000000735,completion,,,,,,,low,low,,,,,,true,,,,false,229611.6000000015,229611.30000000075,221147.095,221338.30000000075,221163.923,229430.646,1,20,,
trial,html.Screen,6_2_0,2023-11-14T18:35:16.744Z,,,,1,0.9373876279903552,0.8494489003914609,,true,ll,1668.853999999992,response,-1.0058354021163274,0.8999999999999997,-0.8999999999999997,-0.8916720716393026,0.8999999999999997,-0.8999999999999997,low,low,,ISIC_2554114.JPG,,ISIC_5581936.JPG,169,true,ll,keypress(f),0,false,231099.6000000015,231099.5,229413.62,229611.6000000015,229430.646,230913.812,1,20,3,
sequence,flow.Sequence,6_2,2023-11-14T18:35:16.744Z,,,,,,,,,,1668.853999999992,completion,,,,,,,low,low,,,,,,true,,,,false,231099.80000000075,231099.5,229413.62,229611.6000000015,229430.646,230913.812,1,20,,
trial,html.Screen,6_3_0,2023-11-14T18:35:18.497Z,,,,1,0.7723423895392068,-0.7630051745722757,,true,lh,1938.3880000011122,response,-0.7882758084023446,0.8999999999999997,-0.8999999999999997,0.8296405881378283,0.8999999999999997,-0.8999999999999997,low,high,,ISIC_9694911.JPG,,ISIC_0065882.JPG,29,true,lh,keypress(e),0,false,232852.5,232852.20000000112,230897.146,231099.90000000037,230913.812,232663.85,1,20,4,
sequence,flow.Sequence,6_3,2023-11-14T18:35:18.497Z,,,,,,,,,,1938.3880000011122,completion,,,,,,,low,high,,,,,,true,,,,false,232852.90000000037,232852.20000000112,230897.146,231099.80000000075,230913.812,232663.85,1,20,,
trial,html.Screen,6_4_0,2023-11-14T18:35:20.192Z,,,,1,1.0189634710647173,0.7310110375972448,,true,ll,1883.3500000011118,response,-0.8152074889040049,0.8999999999999997,-0.8999999999999997,-0.8626913703401816,0.8999999999999997,-0.8999999999999997,low,low,,ISIC_0057949.JPG,,ISIC_4745475.JPG,169,true,ll,keypress(f),0,false,234547.30000000075,234547.20000000112,232647.177,232853.1000000015,232663.85,234363.931,1,20,5,
sequence,flow.Sequence,6_4,2023-11-14T18:35:20.192Z,,,,,,,,,,1883.3500000011118,completion,,,,,,,low,low,,,,,,true,,,,false,234547.40000000037,234547.20000000112,232647.177,232853,232663.85,234363.931,1,20,,
trial,html.Screen,6_5_0,2023-11-14T18:35:21.608Z,,,,1,0.7872534775441857,-0.8441107693833454,,true,lh,1599.4690000003611,response,-0.989300717252516,0.8999999999999997,-0.8999999999999997,0.7908280206937478,0.8999999999999997,-0.8999999999999997,low,high,,ISIC_0028788.JPG,,ISIC_6416533.JPG,29,true,lh,keypress(e),0,false,235963.5,235963.40000000037,234347.301,234547.5,234363.931,235780.523,1,20,6,
sequence,flow.Sequence,6_5,2023-11-14T18:35:21.608Z,,,,,,,,,,1599.4690000003611,completion,,,,,,,low,high,,,,,,true,,,,false,235963.80000000075,235963.40000000037,234347.301,234547.5,234363.931,235780.523,1,20,,
trial,html.Screen,6_6_0,2023-11-14T18:35:23.649Z,,,,1,0.7236002097394486,-0.7895205994309619,,true,lh,2223.677000001131,response,-1.0329549150636406,0.8999999999999997,-0.8999999999999997,1.01584100839286,0.8999999999999997,-0.8999999999999997,low,high,,ISIC_0413563.JPG,,ISIC_0054670.JPG,29,true,lh,keypress(e),0,false,238004.30000000075,238004.20000000112,235763.84,235963.80000000075,235780.523,237830.683,1,20,7,
sequence,flow.Sequence,6_6,2023-11-14T18:35:23.649Z,,,,,,,,,,2223.677000001131,completion,,,,,,,low,high,,,,,,true,,,,false,238004.70000000112,238004.20000000112,235763.84,235963.80000000075,235780.523,237830.683,1,20,,
trial,html.Screen,6_7_0,2023-11-14T18:35:24.792Z,,,,1,-0.789083277544982,0.7172067273002093,,true,hl,1317.2170000003825,response,1.0926414044454305,0.8999999999999997,-0.8999999999999997,-0.7741624649032207,0.8999999999999997,-0.8999999999999997,high,low,,ISIC_0011030.JPG,,ISIC_2355513.JPG,43,true,hl,keypress(j),0,false,239148.1000000015,239147.90000000037,237797.151,238004.90000000037,237830.683,238963.816,1,20,8,
sequence,flow.Sequence,6_7,2023-11-14T18:35:24.793Z,,,,,,,,,,1317.2170000003825,completion,,,,,,,high,low,,,,,,true,,,,false,239148.5,239147.90000000037,237797.151,238004.80000000075,237830.683,238963.816,1,20,,
trial,html.Screen,6_8_0,2023-11-14T18:35:26.344Z,,,,1,-0.7411887874358276,0.7869222465141029,,true,hl,1735.7840000014985,response,0.8544507134472948,0.8999999999999997,-0.8999999999999997,-0.9244388608707323,0.8999999999999997,-0.8999999999999997,high,low,,ISIC_6255113.JPG,,ISIC_3565564.JPG,43,true,hl,keypress(j),0,false,240699.80000000075,240699.6000000015,238947.093,239148.70000000112,238963.816,240513.816,1,20,9,
sequence,flow.Sequence,6_8,2023-11-14T18:35:26.344Z,,,,,,,,,,1735.7840000014985,completion,,,,,,,high,low,,,,,,true,,,,false,240700,240699.6000000015,238947.093,239148.6000000015,238963.816,240513.816,1,20,,
trial,html.Screen,6_9_0,2023-11-14T18:35:36.384Z,,,,1,0.9752130063130028,-0.7248550908059443,,true,lh,10225.384000001126,response,-0.7883321712536753,0.8999999999999997,-0.8999999999999997,1.0011430756825364,0.8999999999999997,-0.8999999999999997,low,high,,ISIC_5190484.JPG,,ISIC_9828853.JPG,29,true,lh,keypress(e),0,false,250739.30000000075,250739.20000000112,240497.255,240700.1000000015,240513.816,250563.8,1,20,10,
sequence,flow.Sequence,6_9,2023-11-14T18:35:36.384Z,,,,,,,,,,10225.384000001126,completion,,,,,,,low,high,,,,,,true,,,,false,250739.5,250739.20000000112,240497.255,240700.1000000015,240513.816,250563.8,1,20,,
trial,html.Screen,6_10_0,2023-11-14T18:35:47.205Z,,,,1,-0.7276136672767647,-0.9132548085712324,,,,10816.936000000016,timeout,0.969783065011348,0.8999999999999997,-0.8999999999999997,0.7406267166574104,0.8999999999999997,-0.8999999999999997,high,high,,ISIC_0007740.JPG,,ISIC_0064907.JPG,184,true,,,0,false,261560.30000000075,261560.20000000112,250546.872,250739.6000000015,250563.8,261380.736,1,20,11,
sequence,flow.Sequence,6_10,2023-11-14T18:35:47.205Z,,,,,,,,,,10996.40000000113,completion,,,,,,,high,high,,,,,,true,,,,false,261560.40000000037,261560.20000000112,250546.872,250739.5,250563.8,261380.736,1,20,,
trial,html.Screen,6_11_0,2023-11-14T18:35:48.688Z,,,,1,-0.9582474649169744,-0.8117789358233404,,true,hh,1662.7639999999956,response,0.7707298150258685,0.8999999999999997,-0.8999999999999997,1.010460601525102,0.8999999999999997,-0.8999999999999997,high,high,,ISIC_0821520.JPG,,ISIC_0010746.JPG,184,true,hh,keypress(i),0,false,263043.7000000011,263043.5,261364.057,261560.5,261380.736,262863.967,1,20,12,
sequence,flow.Sequence,6_11,2023-11-14T18:35:48.689Z,,,,,,,,,,1662.7639999999956,completion,,,,,,,high,high,,,,,,true,,,,false,263043.9000000004,263043.5,261364.057,261560.5,261380.736,262863.967,1,20,,
trial,html.Screen,6_12_0,2023-11-14T18:35:50.329Z,,,,1,0.8481980365756594,0.9581202232187236,,true,ll,1819.7330000011134,response,-0.905890181856784,0.8999999999999997,-0.8999999999999997,-0.7211537413352586,0.8999999999999997,-0.8999999999999997,low,low,,ISIC_0031784.JPG,,ISIC_6507640.JPG,169,true,ll,keypress(f),0,false,264683.80000000075,264683.7000000011,262847.203,263044.1000000015,262863.967,264497.127,1,20,13,
sequence,flow.Sequence,6_12,2023-11-14T18:35:50.329Z,,,,,,,,,,1819.7330000011134,completion,,,,,,,low,low,,,,,,true,,,,false,264684.1000000015,264683.7000000011,262847.203,263044.1000000015,262863.967,264497.127,1,20,,
trial,html.Screen,6_13_0,2023-11-14T18:35:51.904Z,,,,1,-0.7883321712536753,1.0011430756825364,,true,hl,1762.073000001139,response,0.8350129142228142,0.8999999999999997,-0.8999999999999997,-0.8172547818270586,0.8999999999999997,-0.8999999999999997,high,low,,ISIC_9828853.JPG,,ISIC_0301568.JPG,43,true,hl,keypress(j),0,false,266259.30000000075,266259.2000000011,264480.473,264684.2000000011,264497.127,266080.679,1,20,14,
sequence,flow.Sequence,6_13,2023-11-14T18:35:51.904Z,,,,,,,,,,1762.073000001139,completion,,,,,,,high,low,,,,,,true,,,,false,266259.5,266259.2000000011,264480.473,264684.2000000011,264497.127,266080.679,1,20,,
trial,html.Screen,6_14_0,2023-11-14T18:35:53.425Z,,,,1,-0.8472024037189965,0.986370061404882,,true,hl,1699.4210000014864,response,0.9544693251394116,0.8999999999999997,-0.8999999999999997,-1.0727539917203766,0.8999999999999997,-0.8999999999999997,high,low,,ISIC_0054355.JPG,,ISIC_0055147.JPG,43,true,hl,keypress(j),0,false,267780.5,267780.1000000015,266063.895,266259.6000000015,266080.679,267597.222,1,20,15,
sequence,flow.Sequence,6_14,2023-11-14T18:35:53.426Z,,,,,,,,,,1699.4210000014864,completion,,,,,,,high,low,,,,,,true,,,,false,267781,267780.1000000015,266063.895,266259.6000000015,266080.679,267597.222,1,20,,
trial,html.Screen,6_15_0,2023-11-14T18:35:54.776Z,,,,1,0.7973802899836573,0.7843891838063659,,true,ll,1534.1780000003637,response,-1.0828565020249128,0.8999999999999997,-0.8999999999999997,-0.7576926748805504,0.8999999999999997,-0.8999999999999997,low,low,,ISIC_0033473.JPG,,ISIC_3105924.JPG,169,true,ll,keypress(f),0,false,269131.5,269131.4000000004,267580.638,267781.1000000015,267597.222,268947.284,1,20,16,
sequence,flow.Sequence,6_15,2023-11-14T18:35:54.776Z,,,,,,,,,,1534.1780000003637,completion,,,,,,,low,low,,,,,,true,,,,false,269131.80000000075,269131.4000000004,267580.638,267781.1000000015,267597.222,268947.284,1,20,,
trial,html.Screen,6_16_0,2023-11-14T18:35:56.392Z,,,,1,0.801722142776163,-0.7020073261471239,,true,lh,1799.6160000003874,response,-0.7246771568562105,0.8999999999999997,-0.8999999999999997,0.9161385080362604,0.8999999999999997,-0.8999999999999997,low,high,,ISIC_3236964.JPG,,ISIC_0028225.JPG,29,true,lh,keypress(e),0,false,270747,270746.9000000004,268930.596,269131.80000000075,268947.284,270563.772,1,20,17,
sequence,flow.Sequence,6_16,2023-11-14T18:35:56.392Z,,,,,,,,,,1799.6160000003874,completion,,,,,,,low,high,,,,,,true,,,,false,270747.1000000015,270746.9000000004,268930.596,269131.80000000075,268947.284,270563.772,1,20,,
trial,html.Screen,6_17_0,2023-11-14T18:35:58.008Z,,,,1,-0.7334538256992545,-0.8837864902869942,,true,hh,1799.5280000007479,response,0.9314324055507326,0.8999999999999997,-0.8999999999999997,0.974030949255159,0.8999999999999997,-0.8999999999999997,high,high,,ISIC_4332846.JPG,,ISIC_9024529.JPG,184,true,hh,keypress(i),0,false,272363.4000000004,272363.30000000075,270547.142,270747.1000000015,270563.772,272180.487,1,20,18,
sequence,flow.Sequence,6_17,2023-11-14T18:35:58.008Z,,,,,,,,,,1799.5280000007479,completion,,,,,,,high,high,,,,,,true,,,,false,272363.6000000015,272363.30000000075,270547.142,270747.1000000015,270563.772,272180.487,1,20,,
trial,html.Screen,6_18_0,2023-11-14T18:35:59.745Z,,,,1,-0.7303022273735517,-0.7676979481938448,,true,hh,1919.4130000003497,response,0.8795523971208432,0.8999999999999997,-0.8999999999999997,1.035069030839197,0.8999999999999997,-0.8999999999999997,high,high,,ISIC_4911407.JPG,,ISIC_0069635.JPG,184,true,hh,keypress(i),0,false,274100.1000000015,274099.9000000004,272163.944,272363.7000000011,272180.487,273913.853,1,20,19,
sequence,flow.Sequence,6_18,2023-11-14T18:35:59.745Z,,,,,,,,,,1919.4130000003497,completion,,,,,,,high,high,,,,,,true,,,,false,274100.4000000004,274099.9000000004,272163.944,272363.6000000015,272180.487,273913.853,1,20,,
trial,html.Screen,6_19_0,2023-11-14T18:36:01.312Z,,,,1,-1.058275612142778,0.7824898568540655,,true,hl,1753.6469999999972,response,0.7856143618373893,0.8999999999999997,-0.8999999999999997,-1.0273608829432213,0.8999999999999997,-0.8999999999999997,high,low,,ISIC_4906385.JPG,,ISIC_9303849.JPG,43,true,hl,keypress(j),0,false,275667.7000000011,275667.5,273897.151,274100.5,273913.853,275480.513,1,20,20,
sequence,flow.Sequence,6_19,2023-11-14T18:36:01.313Z,,,,,,,,,,1753.6469999999972,completion,,,,,,,high,low,,,,,,true,,,,false,275668,275667.5,273897.151,274100.5,273913.853,275480.513,1,20,,
practice_loop,flow.Loop,6,2023-11-14T18:36:01.313Z,,,,,,,,,,63620.178000000014,completion,,,,,,,,,,,,,,true,,,,false,275668.1000000015,275667.5,212030.393,212219.40000000037,212047.322,275480.513,1,20,,
stair_instructions,html.Screen,7,2023-11-14T18:36:03.856Z,,,,,,,,,,2730.1870000011404,response,,,,,,,,,,,,,,,continue,click button,,,278211.30000000075,278210.7000000011,275464.042,275668.2000000011,275480.513,278030.489,,,,
trial,html.Screen,8_0_0,2023-11-14T18:36:14.729Z,,,,2,-0.0267918352484299,-0.0630167830859455,,,,10866.642999999982,timeout,0.726088143883226,0.8999999999999997,-0.8999999999999997,0.9195149254716736,0.8999999999999997,-0.8999999999999997,high,high,,ISIC_0064874.JPG,,ISIC_3445468.JPG,184,false,,,0,true,289084.2000000011,289084.1000000015,278013.85,278211.4000000004,278030.489,288897.132,1,40,1,
sequence,flow.Sequence,8_0,2023-11-14T18:36:14.729Z,,,,,,,,,,11053.611000001489,completion,,,,,,,high,high,,,,,,false,,,,true,289084.30000000075,289084.1000000015,278013.85,278211.4000000004,278030.489,288897.132,1,40,,
trial,html.Screen,8_1_0,2023-11-14T18:36:22.544Z,,,,2,0.0395587463147856,-0.0645068093068572,,true,hl,8001.868000000017,response,0.7305475296009624,0.8999999999999997,-0.8999999999999997,-0.7442779237098178,0.8999999999999997,-0.8999999999999997,high,low,,ISIC_0010807.JPG,,ISIC_7266604.JPG,43,false,hl,keypress(j),0,true,296899.2000000011,296899,288880.696,289084.4000000004,288897.132,296730.572,1,40,2,
sequence,flow.Sequence,8_1,2023-11-14T18:36:22.544Z,,,,,,,,,,8001.868000000017,completion,,,,,,,high,low,,,,,,false,,,,true,296899.5,296899,288880.696,289084.4000000004,288897.132,296730.572,1,40,,
trial,html.Screen,8_2_0,2023-11-14T18:36:31.136Z,,,,2,0.0349011973222753,-0.065080527952874,,false,lh,8760.72800000076,response,-0.930804711032185,0.8499999999999996,-0.8499999999999996,0.7294067991476295,0.8499999999999996,-0.8499999999999996,low,high,,ISIC_3898738.JPG,,ISIC_5067317.JPG,44,false,hl,keypress(j),0,true,305491.4000000004,305491.30000000075,296713.896,296899.6000000015,296730.572,305314.03,1,40,3,
sequence,flow.Sequence,8_2,2023-11-14T18:36:31.136Z,,,,,,,,,,8760.72800000076,completion,,,,,,,low,high,,,,,,false,,,,true,305491.5,305491.30000000075,296713.896,296899.6000000015,296730.572,305314.03,1,40,,
trial,html.Screen,8_3_0,2023-11-14T18:36:35.736Z,,,,2,0.0395587463147856,-0.0645068093068572,,false,hh,4777.270000000717,response,0.9783041799594244,0.7999999999999996,-0.8499999999999996,0.7939492667783195,0.8499999999999996,-0.7999999999999996,high,high,,ISIC_0010807.JPG,,ISIC_0060446.JPG,232,false,lh,keypress(e),0,true,310091.4000000004,310091.30000000075,305296.894,305491.6000000015,305314.03,309913.988,1,40,4,
sequence,flow.Sequence,8_3,2023-11-14T18:36:35.736Z,,,,,,,,,,4777.270000000717,completion,,,,,,,high,high,,,,,,false,,,,true,310091.6000000015,310091.30000000075,305296.894,305491.5,305314.03,309913.988,1,40,,
trial,html.Screen,8_4_0,2023-11-14T18:36:46.603Z,,,,2,-0.0634150092059303,0.0177502973253611,,,,10866.588999999978,timeout,0.6181436781814378,0.7999999999999996,-0.7999999999999996,-0.621332215027405,0.8499999999999996,-0.7499999999999996,high,low,,ISIC_0032433.JPG,,ISIC_6446779.JPG,82,false,,,0,true,320958.2000000011,320958,309897.161,310091.6000000015,309913.988,320780.577,1,40,5,
sequence,flow.Sequence,8_4,2023-11-14T18:36:46.603Z,,,,,,,,,,11044.011999999988,completion,,,,,,,high,low,,,,,,false,,,,true,320958.30000000075,320958,309897.161,310091.6000000015,309913.988,320780.577,1,40,,
trial,html.Screen,8_5_0,2023-11-14T18:36:54.824Z,,,,2,-0.0204987932325723,0.0619049476763945,,false,ll,8398.823000000382,response,-0.7217505094419148,0.7999999999999996,-0.7999999999999996,-0.5745515131977685,0.8499999999999996,-0.7499999999999996,low,low,,ISIC_0887792.JPG,,ISIC_2728024.JPG,261,false,lh,keypress(e),0,true,329179.5,329179.4000000004,320764.02,320958.5,320780.577,328997.258,1,40,6,
sequence,flow.Sequence,8_5,2023-11-14T18:36:54.824Z,,,,,,,,,,8398.823000000382,completion,,,,,,,low,low,,,,,,false,,,,true,329179.6000000015,329179.4000000004,320764.02,320958.5,320780.577,328997.258,1,40,,
trial,html.Screen,8_6_0,2023-11-14T18:36:58.145Z,,,,2,0.0107170641394226,-0.0596294643429623,,false,ll,3502.942000001145,response,-0.952659927954878,0.7499999999999996,-0.7999999999999996,-0.6264369455684102,0.7999999999999996,-0.7499999999999996,low,low,,ISIC_0005291.JPG,,ISIC_0033152.JPG,261,false,lh,keypress(e),0,true,332500.30000000075,332500.2000000011,328980.413,329179.7000000011,328997.258,332313.947,1,40,7,
sequence,flow.Sequence,8_6,2023-11-14T18:36:58.145Z,,,,,,,,,,3502.942000001145,completion,,,,,,,low,low,,,,,,false,,,,true,332500.7000000011,332500.2000000011,328980.413,329179.7000000011,328997.258,332313.947,1,40,,
trial,html.Screen,8_7_0,2023-11-14T18:37:01.876Z,,,,2,0.0241900387072296,-0.0339955304424736,,true,lh,3917.453000000387,response,-0.6853913485096793,0.6999999999999995,-0.7999999999999996,0.5738206832459302,0.7499999999999996,-0.7499999999999996,low,high,,ISIC_0010789.JPG,,ISIC_9354604.JPG,69,false,lh,keypress(e),0,true,336231.5,336231.4000000004,332297.136,332500.80000000075,332313.947,336047.3,1,40,8,
sequence,flow.Sequence,8_7,2023-11-14T18:37:01.876Z,,,,,,,,,,3917.453000000387,completion,,,,,,,low,high,,,,,,false,,,,true,336231.7000000011,336231.4000000004,332297.136,332500.80000000075,332313.947,336047.3,1,40,,
trial,html.Screen,8_8_0,2023-11-14T18:37:07.545Z,,,,2,0.0418938536494534,-0.0678614270583654,,false,hl,5853.100000000384,response,0.7468466922606799,0.6499999999999995,-0.7190256382322786,-0.7486692996330936,0.5838849750121247,-0.6999999999999995,high,low,,ISIC_0027573.JPG,,ISIC_0025508.JPG,126,false,lh,keypress(e),0,true,341900.5,341900.4000000004,336030.512,336231.80000000075,336047.3,341713.969,1,40,9,
sequence,flow.Sequence,8_8,2023-11-14T18:37:07.546Z,,,,,,,,,,5853.100000000384,completion,,,,,,,high,low,,,,,,false,,,,true,341900.9000000004,341900.4000000004,336030.512,336231.7000000011,336047.3,341713.969,1,40,,
trial,html.Screen,8_9_0,2023-11-14T18:37:12.824Z,,,,2,0.0478761683145946,-0.012927090508672,,false,hh,5465.631000001507,response,0.5044689920503922,0.6499999999999995,-0.6690256382322786,0.5962996540271291,0.5338849750121246,-0.6999999999999995,high,high,,ISIC_9631669.JPG,,ISIC_0028898.JPG,351,false,lh,keypress(e),0,true,347179.80000000075,347179.6000000015,341697.295,341901.1000000015,341713.969,346997.275,1,40,10,
sequence,flow.Sequence,8_9,2023-11-14T18:37:12.825Z,,,,,,,,,,5465.631000001507,completion,,,,,,,high,high,,,,,,false,,,,true,347180,347179.6000000015,341697.295,341901.1000000015,341713.969,346997.275,1,40,,
trial,html.Screen,8_10_0,2023-11-14T18:37:17.521Z,,,,2,0.001445457736793,0.0165307427449982,,true,lh,4878.925000001094,response,-0.7278437817104656,0.6499999999999995,-0.6190256382322785,0.5510424329842739,0.5338849750121246,-0.6499999999999995,low,high,,ISIC_0027350.JPG,,ISIC_0032907.JPG,208,false,lh,keypress(e),0,true,351876.4000000004,351876.2000000011,346980.598,347180.1000000015,346997.275,351697.506,1,40,11,
sequence,flow.Sequence,8_10,2023-11-14T18:37:17.522Z,,,,,,,,,,4878.925000001094,completion,,,,,,,low,high,,,,,,false,,,,true,351876.80000000075,351876.2000000011,346980.598,347180.1000000015,346997.275,351697.506,1,40,,
trial,html.Screen,8_11_0,2023-11-14T18:37:26.408Z,,,,2,-0.0544036313884697,-0.0564516462775647,,false,ll,9065.794000000751,response,-0.5558920944901325,0.5999999999999994,-0.5690256382322785,-0.6948061415871153,0.4736710435057015,-0.5999999999999994,low,low,,ISIC_7441957.JPG,,ISIC_1595658.JPG,409,false,hl,keypress(j),0,true,360763.30000000075,360763.30000000075,351680.578,351877,351697.506,360580.766,1,40,12,
sequence,flow.Sequence,8_11,2023-11-14T18:37:26.408Z,,,,,,,,,,9065.794000000751,completion,,,,,,,low,low,,,,,,false,,,,true,360763.5,360763.30000000075,351680.578,351876.9000000004,351697.506,360580.766,1,40,,
trial,html.Screen,8_12_0,2023-11-14T18:37:31.217Z,,,,2,-0.0501343550751953,-0.0101991443736165,,false,hl,4991.434000001114,response,0.5221125923723898,0.5499999999999994,-0.5690256382322785,-0.5495249301693138,0.4736710435057015,-0.5999999999999994,high,low,,ISIC_4232761.JPG,,ISIC_8244535.JPG,189,false,lh,keypress(e),0,true,365572.4000000004,365572.2000000011,360563.757,360763.6000000015,360580.766,365397.372,1,40,13,
sequence,flow.Sequence,8_12,2023-11-14T18:37:31.218Z,,,,,,,,,,4991.434000001114,completion,,,,,,,high,low,,,,,,false,,,,true,365572.7000000011,365572.2000000011,360563.757,360763.5,360580.766,365397.372,1,40,,
trial,html.Screen,8_13_0,2023-11-14T18:37:38.248Z,,,,2,0.0418938536494534,-0.0678614270583654,,false,ll,7206.128000000026,response,-0.519360841762984,0.5499999999999994,-0.5190256382322784,-0.428425935476697,0.4736710435057015,-0.5999999999999994,low,low,,ISIC_0027573.JPG,,ISIC_6299036.JPG,436,false,lh,keypress(e),0,true,372603.7000000011,372603.5,365380.455,365572.9000000004,365397.372,372413.974,1,40,14,
sequence,flow.Sequence,8_13,2023-11-14T18:37:38.249Z,,,,,,,,,,7206.128000000026,completion,,,,,,,low,low,,,,,,false,,,,true,372603.9000000004,372603.5,365380.455,365572.9000000004,365397.372,372413.974,1,40,,
trial,html.Screen,8_14_0,2023-11-14T18:37:41.817Z,,,,2,-0.0308384937406319,0.0038396364323947,,false,ll,3757.8260000007576,response,-0.6377655885734763,0.4999999999999994,-0.5190256382322784,-0.4687391284434302,0.4736710435057015,-0.5999999999999994,low,low,,ISIC_0029825.JPG,,ISIC_0059976.JPG,436,false,lh,keypress(e),0,true,376172,376171.80000000075,372397.085,372604.1000000015,372413.974,375997.515,1,40,15,
sequence,flow.Sequence,8_14,2023-11-14T18:37:41.817Z,,,,,,,,,,3757.8260000007576,completion,,,,,,,low,low,,,,,,false,,,,true,376172.2000000011,376171.80000000075,372397.085,372604,372413.974,375997.515,1,40,,
trial,html.Screen,8_15_0,2023-11-14T18:37:51.048Z,,,,2,-0.0715931084231032,0.011427878877272,,false,lh,9405.585000001476,response,-0.6879166947304511,0.4999999999999994,-0.5190256382322784,0.3248003425710708,0.4736710435057015,-0.5999999999999994,low,high,,ISIC_1470250.JPG,,ISIC_0028291.JPG,246,false,ll,keypress(f),0,true,385403.2000000011,385403.1000000015,375980.767,376172.4000000004,375997.515,385213.976,1,40,16,
sequence,flow.Sequence,8_15,2023-11-14T18:37:51.048Z,,,,,,,,,,9405.585000001476,completion,,,,,,,low,high,,,,,,false,,,,true,385403.30000000075,385403.1000000015,375980.767,376172.4000000004,375997.515,385213.976,1,40,,
trial,html.Screen,8_16_0,2023-11-14T18:37:59.736Z,,,,2,0.0388181790775959,-0.0049623405709465,,false,ll,8877.023999999976,response,-0.4813381744346035,0.4999999999999994,-0.5190256382322784,-0.4575217741797424,0.4736710435057015,-0.5499999999999994,low,low,,ISIC_0061880.JPG,,ISIC_0006158.JPG,439,false,lh,keypress(e),0,true,394091.1000000015,394091,385197.191,385403.30000000075,385213.976,393914.053,1,40,17,
sequence,flow.Sequence,8_16,2023-11-14T18:37:59.736Z,,,,,,,,,,8877.023999999976,completion,,,,,,,low,low,,,,,,false,,,,true,394091.30000000075,394091,385197.191,385403.30000000075,385213.976,393914.053,1,40,,
trial,html.Screen,8_17_0,2023-11-14T18:38:08.097Z,,,,2,-0.0204987932325723,0.0619049476763945,,false,hh,8538.047000001476,response,0.3945326584949253,0.4999999999999994,-0.5190256382322784,0.3756678541156951,0.4736710435057015,-0.5499999999999994,high,high,,ISIC_0887792.JPG,,ISIC_8484660.JPG,399,false,hl,keypress(j),0,true,402452.2000000011,402452.1000000015,393897.201,394091.30000000075,393914.053,402264.002,1,40,18,
sequence,flow.Sequence,8_17,2023-11-14T18:38:08.097Z,,,,,,,,,,8538.047000001476,completion,,,,,,,high,high,,,,,,false,,,,true,402452.6000000015,402452.1000000015,393897.201,394091.30000000075,393914.053,402264.002,1,40,,
trial,html.Screen,8_18_0,2023-11-14T18:38:12.401Z,,,,2,-0.0633291412406864,0.0446580444004686,,false,ll,4491.698000001139,response,-0.4414198298249183,0.4999999999999994,-0.46902563823227844,-0.5764291833383375,0.4736710435057015,-0.4999999999999994,low,low,,ISIC_0010718.JPG,,ISIC_0046985.JPG,457,false,lh,keypress(e),0,true,406755.9000000004,406755.7000000011,402247.241,402452.7000000011,402264.002,406580.776,1,40,19,
sequence,flow.Sequence,8_18,2023-11-14T18:38:12.401Z,,,,,,,,,,4491.698000001139,completion,,,,,,,low,low,,,,,,false,,,,true,406756.1000000015,406755.7000000011,402247.241,402452.6000000015,402264.002,406580.776,1,40,,
trial,html.Screen,8_19_0,2023-11-14T18:38:21.121Z,,,,2,-0.0367706518941078,0.0161069838272154,,false,hh,8895.024000000732,response,0.3247725331273696,0.4999999999999994,-0.46902563823227844,0.3528754607414698,0.4736710435057015,-0.4999999999999994,high,high,,ISIC_0033419.JPG,,ISIC_0010754.JPG,399,false,lh,keypress(e),0,true,415475.9000000004,415475.80000000075,406563.999,406756.1000000015,406580.776,415297.417,1,40,20,
sequence,flow.Sequence,8_19,2023-11-14T18:38:21.121Z,,,,,,,,,,8895.024000000732,completion,,,,,,,high,high,,,,,,false,,,,true,415476.2000000011,415475.80000000075,406563.999,406756.1000000015,406580.776,415297.417,1,40,,
trial,html.Screen,8_20_0,2023-11-14T18:38:27.833Z,,,,2,-0.0258224118104549,0.0029364553353019,,true,ll,6890.283000001102,response,-0.6325516787742204,0.4999999999999994,-0.46902563823227844,-0.4441337124497728,0.4736710435057015,-0.4999999999999994,low,low,,ISIC_8325226.JPG,,ISIC_0962787.JPG,457,false,ll,keypress(f),0,true,422187.9000000004,422187.7000000011,415280.518,415476.30000000075,415297.417,422014.481,1,40,21,
sequence,flow.Sequence,8_20,2023-11-14T18:38:27.833Z,,,,,,,,,,6890.283000001102,completion,,,,,,,low,low,,,,,,false,,,,true,422188.2000000011,422187.7000000011,415280.518,415476.30000000075,415297.417,422014.481,1,40,,
trial,html.Screen,8_21_0,2023-11-14T18:38:33.345Z,,,,2,0.0497314815986203,-0.0303374618795786,,false,lh,5685.219000001089,response,-0.2918052480806046,0.4999999999999994,-0.4869857542995693,0.4268738462433681,0.4736710435057015,-0.4999999999999994,low,high,,ISIC_6023504.JPG,,ISIC_0804420.JPG,249,false,hl,keypress(j),0,true,427699.80000000075,427699.7000000011,421980.586,422188.30000000075,422014.481,427514.015,1,40,22,
sequence,flow.Sequence,8_21,2023-11-14T18:38:33.345Z,,,,,,,,,,5685.219000001089,completion,,,,,,,low,high,,,,,,false,,,,true,427700.1000000015,427699.7000000011,421980.586,422188.30000000075,422014.481,427514.015,1,40,,
trial,html.Screen,8_22_0,2023-11-14T18:38:35.904Z,,,,2,-0.0715931084231032,0.011427878877272,,false,lh,2745.3850000003586,response,-0.356917619046966,0.4999999999999994,-0.4869857542995693,0.3760495738368291,0.4736710435057015,-0.4999999999999994,low,high,,ISIC_1470250.JPG,,ISIC_2299749.JPG,249,false,hl,keypress(j),0,true,430259.6000000015,430259.4000000004,427497.258,427700.2000000011,427514.015,430080.945,1,40,23,
sequence,flow.Sequence,8_22,2023-11-14T18:38:35.905Z,,,,,,,,,,2745.3850000003586,completion,,,,,,,low,high,,,,,,false,,,,true,430259.80000000075,430259.4000000004,427497.258,427700.2000000011,427514.015,430080.945,1,40,,
trial,html.Screen,8_23_0,2023-11-14T18:38:42.601Z,,,,2,0.0586587895724749,0.0220047273041276,,true,lh,6874.9550000003655,response,-0.5971396089487134,0.4999999999999994,-0.4869857542995693,0.5428602167084722,0.4736710435057015,-0.4999999999999994,low,high,,ISIC_0028320.JPG,,ISIC_0055783.JPG,249,false,lh,keypress(e),0,true,436956.1000000015,436955.9000000004,430064.084,430259.9000000004,430080.945,436780.733,1,40,24,
sequence,flow.Sequence,8_23,2023-11-14T18:38:42.601Z,,,,,,,,,,6874.9550000003655,completion,,,,,,,low,high,,,,,,false,,,,true,436956.30000000075,436955.9000000004,430064.084,430259.9000000004,430080.945,436780.733,1,40,,
trial,html.Screen,8_24_0,2023-11-14T18:38:49.440Z,,,,2,0.0175203912019758,0.0427513576747051,,false,lh,7014.667000000365,response,-0.2907325928831368,0.4999999999999994,-0.4869857542995693,0.5627419353940134,0.4736710435057015,-0.4999999999999994,low,high,,ISIC_0056292.JPG,,ISIC_1722909.JPG,249,false,ll,keypress(f),0,true,443795.5,443795.4000000004,436763.957,436956.4000000004,436780.733,443614.099,1,40,25,
sequence,flow.Sequence,8_24,2023-11-14T18:38:49.440Z,,,,,,,,,,7014.667000000365,completion,,,,,,,low,high,,,,,,false,,,,true,443795.7000000011,443795.4000000004,436763.957,436956.4000000004,436780.733,443614.099,1,40,,
trial,html.Screen,8_25_0,2023-11-14T18:38:56.769Z,,,,2,0.0326050223870869,0.0579165897319751,,false,hh,7509.501000001503,response,0.6586427416064558,0.4999999999999994,-0.4869857542995693,0.4514684063332626,0.4736710435057015,-0.4999999999999994,high,high,,ISIC_4570724.JPG,,ISIC_4536709.JPG,399,false,lh,keypress(e),0,true,451123.7000000011,451123.6000000015,443597.336,443795.80000000075,443614.099,450947.479,1,40,26,
sequence,flow.Sequence,8_25,2023-11-14T18:38:56.769Z,,,,,,,,,,7509.501000001503,completion,,,,,,,high,high,,,,,,false,,,,true,451123.9000000004,451123.6000000015,443597.336,443795.7000000011,443614.099,450947.479,1,40,,
trial,html.Screen,8_26_0,2023-11-14T18:39:01.602Z,,,,2,-0.0634150092059303,0.0177502973253611,,false,hh,5009.2210000011255,response,0.449053587939904,0.4999999999999994,-0.4869857542995693,0.5287141133857417,0.4736710435057015,-0.4999999999999994,high,high,,ISIC_0032433.JPG,,ISIC_0032836.JPG,399,false,lh,keypress(e),0,true,455956.9000000004,455956.7000000011,450930.61,451124,450947.479,455780.885,1,40,27,
sequence,flow.Sequence,8_26,2023-11-14T18:39:01.602Z,,,,,,,,,,5009.2210000011255,completion,,,,,,,high,high,,,,,,false,,,,true,455957.2000000011,455956.7000000011,450930.61,451124,450947.479,455780.885,1,40,,
trial,html.Screen,8_27_0,2023-11-14T18:39:11.785Z,,,,2,-0.0586798548295751,0.0060040805764433,,false,hh,10358.71500000148,response,0.5386814568668795,0.4999999999999994,-0.4869857542995693,0.3601907625463342,0.4736710435057015,-0.4999999999999994,high,high,,ISIC_1552232.JPG,,ISIC_3558747.JPG,399,false,hl,keypress(j),0,true,466139.7000000011,466139.6000000015,455764.089,455957.30000000075,455780.885,465964.287,1,40,28,
sequence,flow.Sequence,8_27,2023-11-14T18:39:11.785Z,,,,,,,,,,10358.71500000148,completion,,,,,,,high,high,,,,,,false,,,,true,466140,466139.6000000015,455764.089,455957.30000000075,455780.885,465964.287,1,40,,
trial,html.Screen,8_28_0,2023-11-14T18:39:19.336Z,,,,2,0.0223011224608011,-0.0466190802905965,,true,hl,7727.113000000361,response,0.3746828804716724,0.4999999999999994,-0.4869857542995693,-0.6220278688710409,0.4736710435057015,-0.4999999999999994,high,low,,ISIC_0028041.JPG,,ISIC_7885010.JPG,246,false,hl,keypress(j),0,true,473691.5,473691.4000000004,465947.216,466140,465964.287,473514.241,1,40,29,
sequence,flow.Sequence,8_28,2023-11-14T18:39:19.336Z,,,,,,,,,,7727.113000000361,completion,,,,,,,high,low,,,,,,false,,,,true,473691.6000000015,473691.4000000004,465947.216,466140,465964.287,473514.241,1,40,,
trial,html.Screen,8_29_0,2023-11-14T18:39:23.393Z,,,,2,0.0065172941585523,-0.0118857043117315,,true,lh,4233.559000000765,response,-0.6041483117761817,0.4499999999999994,-0.4869857542995693,0.3071216126413236,0.4736710435057015,-0.4830807906604068,low,high,,ISIC_6119202.JPG,,ISIC_5382189.JPG,249,false,lh,keypress(e),0,true,477747.9000000004,477747.80000000075,473497.257,473691.7000000011,473514.241,477564.071,1,40,30,
sequence,flow.Sequence,8_29,2023-11-14T18:39:23.393Z,,,,,,,,,,4233.559000000765,completion,,,,,,,low,high,,,,,,false,,,,true,477748.30000000075,477747.80000000075,473497.257,473691.7000000011,473514.241,477564.071,1,40,,
trial,html.Screen,8_30_0,2023-11-14T18:39:30.065Z,,,,2,-0.0715931084231032,0.011427878877272,,true,hl,6855.729000000749,response,0.3895378900972009,0.4499999999999994,-0.4369857542995693,-0.4769660882026637,0.4736710435057015,-0.4830807906604068,high,low,,ISIC_1470250.JPG,,ISIC_9335652.JPG,280,false,hl,keypress(j),0,true,484420,484419.80000000075,477547.386,477748.4000000004,477564.071,484230.777,1,40,31,
sequence,flow.Sequence,8_30,2023-11-14T18:39:30.065Z,,,,,,,,,,6855.729000000749,completion,,,,,,,high,low,,,,,,false,,,,true,484420.30000000075,484419.80000000075,477547.386,477748.4000000004,477564.071,484230.777,1,40,,
trial,html.Screen,8_31_0,2023-11-14T18:39:40.855Z,,,,2,-0.0718464495991687,0.0429653518314044,,,,10800.094999999972,timeout,-0.5436316244290208,0.4499999999999994,-0.4369857542995693,-0.3874694782882114,0.4736710435057015,-0.4830807906604068,low,low,,ISIC_0028597.JPG,,ISIC_4102922.JPG,466,false,,,0,true,495210.5,495210.4000000004,484214.081,484420.5,484230.777,495030.872,1,40,32,
sequence,flow.Sequence,8_31,2023-11-14T18:39:40.855Z,,,,,,,,,,10979.62300000037,completion,,,,,,,low,low,,,,,,false,,,,true,495210.7000000011,495210.4000000004,484214.081,484420.30000000075,484230.777,495030.872,1,40,,
trial,html.Screen,8_32_0,2023-11-14T18:39:46.985Z,,,,2,-0.0044063257337227,-0.0172548282859886,,true,hl,6308.928000000771,response,0.3636230948323918,0.4499999999999994,-0.4369857542995693,-0.4931555396945071,0.4736710435057015,-0.4830807906604068,high,low,,ISIC_7413786.JPG,,ISIC_0028759.JPG,280,false,hl,keypress(j),0,true,501340,501339.80000000075,495014.122,495210.7000000011,495030.872,501164.315,1,40,33,
sequence,flow.Sequence,8_32,2023-11-14T18:39:46.985Z,,,,,,,,,,6308.928000000771,completion,,,,,,,high,low,,,,,,false,,,,true,501340.2000000011,501339.80000000075,495014.122,495210.7000000011,495030.872,501164.315,1,40,,
trial,html.Screen,8_33_0,2023-11-14T18:39:50.273Z,,,,2,0.045779466401051,0.0137769797231127,,false,hh,3463.3850000011153,response,0.4645680624710595,0.3999999999999994,-0.4369857542995693,0.3465528492585241,0.4736710435057015,-0.43308079066040683,high,high,,ISIC_0000504.JPG,,ISIC_2252958.JPG,417,false,hl,keypress(j),0,true,504627.80000000075,504627.7000000011,501147.471,501340.30000000075,501164.315,504447.6,1,40,34,
sequence,flow.Sequence,8_33,2023-11-14T18:39:50.273Z,,,,,,,,,,3463.3850000011153,completion,,,,,,,high,high,,,,,,false,,,,true,504628.1000000015,504627.7000000011,501147.471,501340.30000000075,501164.315,504447.6,1,40,,
trial,html.Screen,8_34_0,2023-11-14T18:39:53.457Z,,,,2,0.0175203912019758,0.0427513576747051,,true,hl,3364.2000000007683,response,0.3026733138449977,0.4499999999999994,-0.4369857542995693,-0.2384772424217897,0.4736710435057015,-0.43308079066040683,high,low,,ISIC_0056292.JPG,,ISIC_5359416.JPG,311,false,hl,keypress(j),0,true,507811.9000000004,507811.80000000075,504430.745,504628.1000000015,504447.6,507630.809,1,40,35,
sequence,flow.Sequence,8_34,2023-11-14T18:39:53.457Z,,,,,,,,,,3364.2000000007683,completion,,,,,,,high,low,,,,,,false,,,,true,507812.2000000011,507811.80000000075,504430.745,504628.1000000015,504447.6,507630.809,1,40,,
trial,html.Screen,8_35_0,2023-11-14T18:40:04.327Z,,,,2,0.0109416414475118,0.005246498750811,,,,10866.729999999981,timeout,-0.4221648565196402,0.3999999999999994,-0.4369857542995693,-0.4146916026599512,0.4736710435057015,-0.43308079066040683,low,low,,ISIC_0064279.JPG,,ISIC_9154716.JPG,486,false,,,0,true,518681.9000000004,518681.7000000011,507614.256,507812.2000000011,507630.809,518497.539,1,40,36,
sequence,flow.Sequence,8_35,2023-11-14T18:40:04.327Z,,,,,,,,,,11050.89100000111,completion,,,,,,,low,low,,,,,,false,,,,true,518682.30000000075,518681.7000000011,507614.256,507812.2000000011,507630.809,518497.539,1,40,,
trial,html.Screen,8_36_0,2023-11-14T18:40:12.136Z,,,,2,0.0200376619013301,0.0451764418954947,,false,hh,7993.861000000383,response,0.5199046588169016,0.3999999999999994,-0.4369857542995693,0.6337866901884657,0.4736710435057015,-0.43308079066040683,high,high,,ISIC_0026087.JPG,,ISIC_7984569.JPG,417,false,lh,keypress(e),0,true,526491.6000000015,526491.4000000004,518481.065,518682.4000000004,518497.539,526314.306,1,40,37,
sequence,flow.Sequence,8_36,2023-11-14T18:40:12.137Z,,,,,,,,,,7993.861000000383,completion,,,,,,,high,high,,,,,,false,,,,true,526491.8000000007,526491.4000000004,518481.065,518682.4000000004,518497.539,526314.306,1,40,,
trial,html.Screen,8_37_0,2023-11-14T18:40:18.657Z,,,,2,-0.0480293506029756,-0.0744454320613987,,false,hl,6697.894000001135,response,0.5169532668336355,0.4499999999999994,-0.4369857542995693,-0.2400180217503762,0.4736710435057015,-0.43308079066040683,high,low,,ISIC_1798471.JPG,,ISIC_5614300.JPG,311,false,lh,keypress(e),0,true,533012.5,533012.2000000011,526297.456,526491.9000000004,526314.306,532830.907,1,40,38,
sequence,flow.Sequence,8_37,2023-11-14T18:40:18.658Z,,,,,,,,,,6697.894000001135,completion,,,,,,,high,low,,,,,,false,,,,true,533012.8000000007,533012.2000000011,526297.456,526491.9000000004,526314.306,532830.907,1,40,,
trial,html.Screen,8_38_0,2023-11-14T18:40:21.473Z,,,,2,0.0478761683145946,-0.012927090508672,,true,lh,2996.993000000366,response,-0.2446776327239203,0.4999999999999994,-0.4369857542995693,0.5644303062319305,0.4736710435057015,-0.4830807906604068,low,high,,ISIC_9631669.JPG,,ISIC_0022328.JPG,278,false,lh,keypress(e),0,true,535828,535827.9000000004,532814.179,533013,532830.907,535647.675,1,40,39,
sequence,flow.Sequence,8_38,2023-11-14T18:40:21.473Z,,,,,,,,,,2996.993000000366,completion,,,,,,,low,high,,,,,,false,,,,true,535828.2000000011,535827.9000000004,532814.179,533013,532830.907,535647.675,1,40,,
trial,html.Screen,8_39_0,2023-11-14T18:40:28.040Z,,,,2,0.0564512008196606,-0.0205312570039753,,true,hl,6747.725000000326,response,0.671292562757748,0.4999999999999994,-0.4369857542995693,-0.4006864660348836,0.49910849821019804,-0.4830807906604068,high,low,,ISIC_9019691.JPG,,ISIC_2974214.JPG,259,false,hl,keypress(j),0,true,542395.5,542395.4000000004,535630.798,535828.4000000004,535647.675,542214.249,1,40,40,
sequence,flow.Sequence,8_39,2023-11-14T18:40:28.041Z,,,,,,,,,,6747.725000000326,completion,,,,,,,high,low,,,,,,false,,,,true,542395.8000000007,542395.4000000004,535630.798,535828.3000000007,535647.675,542214.249,1,40,,
stair_loop,flow.Loop,8,2023-11-14T18:40:28.041Z,,,,,,,,,,264364.9110000004,completion,,,,,,,,,,,,,,false,,,,true,542395.8000000007,542395.4000000004,278013.85,278211.4000000004,278030.489,542214.249,1,40,,
exp_instructions,html.Screen,9,2023-11-14T18:40:32.593Z,,,,,,,,,,4733.2510000000475,response,,,,,,,,,,,,,,,continue,keypress(Space),,,546948.1000000015,546947.5,542197.43,542396,542214.249,546764.215,,,,
trial,html.Screen,10_0_0,2023-11-14T18:40:38.425Z,,,,1,0.0164027439304477,-0.0082910758715273,,true,lh,6015.685000000405,response,-0.3994771758751648,0.4699999999999995,-0.4610877484962047,0.3566700833521659,0.4749429162409264,-0.47819443486322355,low,high,,ISIC_7381224.JPG,8,ISIC_0034262.JPG,258,false,lh,keypress(e),0,false,552780,552779.9000000004,546747.294,546948.4000000004,546764.215,552597.524,4,500,1,
break,html.Screen,10_0_1,2023-11-14T18:40:38.425Z,,,,,,,,,,NaN,,,,,,,,low,high,,,,,,false,,,,false,552780.4000000004,552780.3000000007,,552780.1000000015,,552597.524,4,500,,
break_continue,html.Screen,10_0_2,2023-11-14T18:40:38.426Z,,,,,,,,,,NaN,,,,,,,,low,high,,,,,,false,,,,false,552780.8000000007,552780.6000000015,,552780.5,,552597.524,4,500,,
sequence,flow.Sequence,10_0,2023-11-14T18:40:38.426Z,,,,,,,,,,6016.385000001523,completion,,,,,,,low,high,,,,,,false,,,,false,552780.9000000004,552780.6000000015,546747.294,546948.3000000007,546764.215,552597.524,4,500,,
trial,html.Screen,10_1_0,2023-11-14T18:40:42.721Z,,,,1,-0.0220026381002083,0.0170756452911772,,false,lh,4478.576000001514,response,-0.3288010538733362,0.4699999999999995,-0.4610877484962047,0.3757252438527585,0.4749429162409264,-0.47819443486322355,low,high,,ISIC_5347806.JPG,9,ISIC_1231722.JPG,258,false,hl,keypress(j),0,false,557076.4000000004,557076.1000000015,552580.885,552780.9000000004,552597.524,556897.726,4,500,2,
break,html.Screen,10_1_1,2023-11-14T18:40:42.722Z,,,,,,,,,,NaN,,,,,,,,low,high,,,,,,false,,,,false,557077.5,557077.1000000015,,557076.7000000011,,556897.726,4,500,,
break_continue,html.Screen,10_1_2,2023-11-14T18:40:42.723Z,,,,,,,,,,NaN,,,,,,,,low,high,,,,,,false,,,,false,557078.3000000007,557077.9000000004,,557077.6000000015,,556897.726,4,500,,
sequence,flow.Sequence,10_1,2023-11-14T18:40:42.723Z,,,,,,,,,,4480.376000000397,completion,,,,,,,low,high,,,,,,false,,,,false,557078.6000000015,557077.9000000004,552580.885,552780.9000000004,552597.524,556897.726,4,500,,
trial,html.Screen,10_2_0,2023-11-14T18:40:49.657Z,,,,1,0.045779466401051,0.0137769797231127,,false,lh,7114.273999999976,response,-0.6478524006165575,0.4699999999999995,-0.4610877484962047,0.341279205729335,0.4749429162409264,-0.47819443486322355,low,high,,ISIC_0000504.JPG,9,ISIC_6247668.JPG,258,false,hh,keypress(i),0,false,564012.2000000011,564012,556880.799,557078.7000000011,556897.726,563830.949,4,500,3,
break,html.Screen,10_2_1,2023-11-14T18:40:49.658Z,,,,,,,,,,NaN,,,,,,,,low,high,,,,,,false,,,,false,564013.1000000015,564012.8000000007,,564012.5,,563830.949,4,500,,
break_continue,html.Screen,10_2_2,2023-11-14T18:40:49.659Z,,,,,,,,,,NaN,,,,,,,,low,high,,,,,,false,,,,false,564013.7000000011,564013.5,,564013.3000000007,,563830.949,4,500,,
sequence,flow.Sequence,10_2,2023-11-14T18:40:49.659Z,,,,,,,,,,7115.773999999976,completion,,,,,,,low,high,,,,,,false,,,,false,564014,564013.5,556880.799,557078.7000000011,556897.726,563830.949,4,500,,
trial,html.Screen,10_3_0,2023-11-14T18:40:54.289Z,,,,1,-0.0308384937406319,0.0038396364323947,,false,hl,4812.851000000723,response,0.4398932833890158,0.4699999999999995,-0.4610877484962047,-0.599241122461698,0.4749429162409264,-0.47819443486322355,high,low,,ISIC_0029825.JPG,9,ISIC_0071681.JPG,285,false,lh,keypress(e),0,false,568643.9000000004,568643.8000000007,563814.256,564014.2000000011,563830.949,568464.441,4,500,4,
break,html.Screen,10_3_1,2023-11-14T18:40:54.289Z,,,,,,,,,,NaN,,,,,,,,high,low,,,,,,false,,,,false,568644.5,568644.4000000004,,568644.1000000015,,568464.441,4,500,,
break_continue,html.Screen,10_3_2,2023-11-14T18:40:54.290Z,,,,,,,,,,NaN,,,,,,,,high,low,,,,,,false,,,,false,568644.9000000004,568644.7000000011,,568644.7000000011,,568464.441,4,500,,
sequence,flow.Sequence,10_3,2023-11-14T18:40:54.290Z,,,,,,,,,,4813.751000001095,completion,,,,,,,high,low,,,,,,false,,,,false,568645.1000000015,568644.7000000011,563814.256,564014.2000000011,563830.949,568464.441,4,500,,
trial,html.Screen,10_4_0,2023-11-14T18:40:58.657Z,,,,1,0.0527477970410472,0.0575970798158164,,true,hh,4547.259000001126,response,0.2991217214261983,0.4699999999999995,-0.4610877484962047,0.6515828261831264,0.4749429162409264,-0.47819443486322355,high,high,,ISIC_0667763.JPG,9,ISIC_0046618.JPG,421,false,hh,keypress(i),0,false,573012,573011.7000000011,568447.524,568645.2000000011,568464.441,572830.931,4,500,5,
break,html.Screen,10_4_1,2023-11-14T18:40:58.658Z,,,,,,,,,,NaN,,,,,,,,high,high,,,,,,false,,,,false,573012.7000000011,573012.5,,573012.2000000011,,572830.931,4,500,,
break_continue,html.Screen,10_4_2,2023-11-14T18:40:58.658Z,,,,,,,,,,NaN,,,,,,,,high,high,,,,,,false,,,,false,573013.3000000007,573013,,573012.9000000004,,572830.931,4,500,,
sequence,flow.Sequence,10_4,2023-11-14T18:40:58.658Z,,,,,,,,,,4548.559000000008,completion,,,,,,,high,high,,,,,,false,,,,false,573013.5,573013,568447.524,568645.2000000011,568464.441,572830.931,4,500,,
trial,html.Screen,10_5_0,2023-11-14T18:41:02.945Z,,,,1,0.0607839218394147,0.0567408401627122,,true,lh,4469.169000001508,response,-0.5379696758889608,0.4699999999999995,-0.4610877484962047,0.5838087971380028,0.4749429162409264,-0.47819443486322355,low,high,,ISIC_0026901.JPG,9,ISIC_0033206.JPG,258,false,lh,keypress(e),0,false,577300.3000000007,577300.1000000015,572814.099,573013.6000000015,572830.931,577114.267,4,500,6,
break,html.Screen,10_5_1,2023-11-14T18:41:02.946Z,,,,,,,,,,NaN,,,,,,,,low,high,,,,,,false,,,,false,577301.3000000007,577301,,577300.6000000015,,577114.267,4,500,,
break_continue,html.Screen,10_5_2,2023-11-14T18:41:02.947Z,,,,,,,,,,NaN,,,,,,,,low,high,,,,,,false,,,,false,577302,577301.7000000011,,577301.5,,577114.267,4,500,,
sequence,flow.Sequence,10_5,2023-11-14T18:41:02.947Z,,,,,,,,,,4470.769000001135,completion,,,,,,,low,high,,,,,,false,,,,false,577302.2000000011,577301.7000000011,572814.099,573013.6000000015,572830.931,577114.267,4,500,,
trial,html.Screen,10_6_0,2023-11-14T18:41:08.409Z,,,,1,-0.0249297455748133,0.055986418955019,,false,lh,5649.833000001498,response,-0.4316244208901549,0.4699999999999995,-0.4610877484962047,0.4752264610299367,0.4749429162409264,-0.47819443486322355,low,high,,ISIC_3900049.JPG,9,ISIC_7822725.JPG,258,false,hl,keypress(j),0,false,582764.3000000007,582764.1000000015,577097.569,577302.3000000007,577114.267,582580.941,4,500,7,
break,html.Screen,10_6_1,2023-11-14T18:41:08.410Z,,,,,,,,,,NaN,,,,,,,,low,high,,,,,,false,,,,false,582765.1000000015,582764.9000000004,,582764.6000000015,,582580.941,4,500,,
break_continue,html.Screen,10_6_2,2023-11-14T18:41:08.410Z,,,,,,,,,,NaN,,,,,,,,low,high,,,,,,false,,,,false,582765.6000000015,582765.4000000004,,582765.3000000007,,582580.941,4,500,,
sequence,flow.Sequence,10_6,2023-11-14T18:41:08.411Z,,,,,,,,,,5651.13300000038,completion,,,,,,,low,high,,,,,,false,,,,false,582765.8000000007,582765.4000000004,577097.569,577302.3000000007,577114.267,582580.941,4,500,,
trial,html.Screen,10_7_0,2023-11-14T18:41:14.713Z,,,,1,-0.0283578106329894,0.0088840758711548,,false,hl,6486.6590000014985,response,0.6479487744570708,0.4699999999999995,-0.4610877484962047,-0.3920849497370363,0.4749429162409264,-0.47819443486322355,high,low,,ISIC_0060707.JPG,8,ISIC_0067012.JPG,285,false,hh,keypress(i),0,false,589067.8000000007,589067.6000000015,582564.448,582765.9000000004,582580.941,588880.927,4,500,8,
break,html.Screen,10_7_1,2023-11-14T18:41:14.713Z,,,,,,,,,,NaN,,,,,,,,high,low,,,,,,false,,,,false,589068.2000000011,589068.1000000015,,589067.9000000004,,588880.927,4,500,,
break_continue,html.Screen,10_7_2,2023-11-14T18:41:14.713Z,,,,,,,,,,NaN,,,,,,,,high,low,,,,,,false,,,,false,589068.6000000015,589068.5,,589068.3000000007,,588880.927,4,500,,
sequence,flow.Sequence,10_7,2023-11-14T18:41:14.714Z,,,,,,,,,,6487.559000000008,completion,,,,,,,high,low,,,,,,false,,,,false,589068.7000000011,589068.5,582564.448,582765.9000000004,582580.941,588880.927,4,500,,
trial,html.Screen,10_8_0,2023-11-14T18:41:22.336Z,,,,1,-0.0257631352671967,-0.0202837002774028,,false,lh,7810.572999999975,response,-0.5588979658648439,0.4699999999999995,-0.4610877484962047,0.6427302891118192,0.4749429162409264,-0.47819443486322355,low,high,,ISIC_0032797.JPG,8,ISIC_3597812.JPG,258,false,ll,keypress(f),0,false,596691.6000000015,596691.5,588864.3,589068.9000000004,588880.927,596514.308,4,500,9,
break,html.Screen,10_8_1,2023-11-14T18:41:22.337Z,,,,,,,,,,NaN,,,,,,,,low,high,,,,,,false,,,,false,596692,596692,,596691.8000000007,,596514.308,4,500,,
break_continue,html.Screen,10_8_2,2023-11-14T18:41:22.337Z,,,,,,,,,,NaN,,,,,,,,low,high,,,,,,false,,,,false,596692.4000000004,596692.3000000007,,596692.2000000011,,596514.308,4,500,,
sequence,flow.Sequence,10_8,2023-11-14T18:41:22.337Z,,,,,,,,,,7811.37300000072,completion,,,,,,,low,high,,,,,,false,,,,false,596692.5,596692.3000000007,588864.3,589068.9000000004,588880.927,596514.308,4,500,,
trial,html.Screen,10_9_0,2023-11-14T18:41:28.953Z,,,,1,-0.066631540328269,-0.005292120470259,,false,lh,6793.092000000412,response,-0.3790470338543239,0.4699999999999995,-0.4610877484962047,0.6455156427573092,0.4749429162409264,-0.47819443486322355,low,high,,ISIC_8041550.JPG,8,ISIC_0033099.JPG,258,false,ll,keypress(f),0,false,603307.5,603307.4000000004,596497.479,596692.7000000011,596514.308,603130.954,4,500,10,
break,html.Screen,10_9_1,2023-11-14T18:41:28.953Z,,,,,,,,,,NaN,,,,,,,,low,high,,,,,,false,,,,false,603307.9000000004,603307.8000000007,,603307.6000000015,,603130.954,4,500,,
break_continue,html.Screen,10_9_2,2023-11-14T18:41:28.954Z,,,,,,,,,,NaN,,,,,,,,low,high,,,,,,false,,,,false,603308.2000000011,603308.1000000015,,603308,,603130.954,4,500,,
sequence,flow.Sequence,10_9,2023-11-14T18:41:28.954Z,,,,,,,,,,6793.792000001529,completion,,,,,,,low,high,,,,,,false,,,,false,603308.4000000004,603308.1000000015,596497.479,596692.7000000011,596514.308,603130.954,4,500,,
trial,html.Screen,10_10_0,2023-11-14T18:41:36.073Z,,,,1,0.0388181790775959,-0.0049623405709465,,true,ll,7296.846000000718,response,-0.4773193085086398,0.4699999999999995,-0.4610877484962047,-0.661076579224291,0.4749429162409264,-0.47819443486322355,low,low,,ISIC_0061880.JPG,9,ISIC_5616806.JPG,467,false,ll,keypress(f),0,false,610428,610427.8000000007,603114.1,603308.4000000004,603130.954,610247.622,4,500,11,
break,html.Screen,10_10_1,2023-11-14T18:41:36.074Z,,,,,,,,,,NaN,,,,,,,,low,low,,,,,,false,,,,false,610428.5,610428.4000000004,,610428.1000000015,,610247.622,4,500,,
break_continue,html.Screen,10_10_2,2023-11-14T18:41:36.074Z,,,,,,,,,,NaN,,,,,,,,low,low,,,,,,false,,,,false,610428.9000000004,610428.7000000011,,610428.7000000011,,610247.622,4,500,,
sequence,flow.Sequence,10_10,2023-11-14T18:41:36.074Z,,,,,,,,,,7297.746000001091,completion,,,,,,,low,low,,,,,,false,,,,false,610429.1000000015,610428.7000000011,603114.1,603308.4000000004,603130.954,610247.622,4,500,,
trial,html.Screen,10_11_0,2023-11-14T18:41:40.065Z,,,,1,-0.0464691161264081,-0.0535296539628673,,false,ll,4171.978000001516,response,-0.6119878835403445,0.4699999999999995,-0.4610877484962047,-0.5302150390232752,0.4749429162409264,-0.47819443486322355,low,low,,ISIC_0758797.JPG,9,ISIC_8993666.JPG,467,false,hh,keypress(i),0,false,614419.8000000007,614419.6000000015,610230.813,610429.2000000011,610247.622,614230.956,4,500,12,
break,html.Screen,10_11_1,2023-11-14T18:41:40.066Z,,,,,,,,,,NaN,,,,,,,,low,low,,,,,,false,,,,false,614420.2000000011,614420.1000000015,,614419.9000000004,,614230.956,4,500,,
break_continue,html.Screen,10_11_2,2023-11-14T18:41:40.066Z,,,,,,,,,,NaN,,,,,,,,low,low,,,,,,false,,,,false,614420.6000000015,614420.3000000007,,614420.3000000007,,614230.956,4,500,,
sequence,flow.Sequence,10_11,2023-11-14T18:41:40.066Z,,,,,,,,,,4172.678000000771,completion,,,,,,,low,low,,,,,,false,,,,false,614420.6000000015,614420.3000000007,610230.813,610429.2000000011,610247.622,614230.956,4,500,,
trial,html.Screen,10_12_0,2023-11-14T18:41:43.929Z,,,,1,0.0109416414475118,0.005246498750811,,false,ll,4052.1440000014845,response,-0.4805563128797317,0.4699999999999995,-0.4610877484962047,-0.6252908806539356,0.4749429162409264,-0.47819443486322355,low,low,,ISIC_0064279.JPG,9,ISIC_1871890.JPG,467,false,hl,keypress(j),0,false,618283.2000000011,618283.1000000015,614214.283,614420.7000000011,614230.956,618097.648,4,500,13,
break,html.Screen,10_12_1,2023-11-14T18:41:43.929Z,,,,,,,,,,NaN,,,,,,,,low,low,,,,,,false,,,,false,618283.5,618283.4000000004,,618283.3000000007,,618097.648,4,500,,
break_continue,html.Screen,10_12_2,2023-11-14T18:41:43.929Z,,,,,,,,,,NaN,,,,,,,,low,low,,,,,,false,,,,false,618283.7000000011,618283.6000000015,,618283.5,,618097.648,4,500,,
sequence,flow.Sequence,10_12,2023-11-14T18:41:43.929Z,,,,,,,,,,4052.6440000014845,completion,,,,,,,low,low,,,,,,false,,,,false,618283.7000000011,618283.6000000015,614214.283,614420.7000000011,614230.956,618097.648,4,500,,
trial,html.Screen,10_13_0,2023-11-14T18:41:49.801Z,,,,1,0.039520186367207,0.0377961575607372,,true,hh,6057.6520000007,response,0.5496772716334654,0.4699999999999995,-0.4610877484962047,0.674330078017678,0.4749429162409264,-0.47819443486322355,high,high,,ISIC_6356149.JPG,8,ISIC_0033977.JPG,421,false,hh,keypress(i),0,false,624155.4000000004,624155.3000000007,618080.979,618283.8000000007,618097.648,623981.51,4,500,14,
break,html.Screen,10_13_1,2023-11-14T18:41:49.801Z,,,,,,,,,,NaN,,,,,,,,high,high,,,,,,false,,,,false,624155.7000000011,624155.6000000015,,624155.5,,623981.51,4,500,,
break_continue,html.Screen,10_13_2,2023-11-14T18:41:49.801Z,,,,,,,,,,NaN,,,,,,,,high,high,,,,,,false,,,,false,624156,624155.8000000007,,624155.8000000007,,623981.51,4,500,,
sequence,flow.Sequence,10_13,2023-11-14T18:41:49.801Z,,,,,,,,,,6058.1520000007,completion,,,,,,,high,high,,,,,,false,,,,false,624156,624155.8000000007,618080.979,618283.7000000011,618097.648,623981.51,4,500,,
trial,html.Screen,10_14_0,2023-11-14T18:41:59.694Z,,,,1,0.0175203912019758,0.0427513576747051,,true,ll,10066.690000001108,response,-0.3052779265225965,0.4699999999999995,-0.4610877484962047,-0.6772808693133792,0.4749429162409264,-0.47819443486322355,low,low,,ISIC_0056292.JPG,9,ISIC_0004955.JPG,467,false,ll,keypress(f),0,false,634048.3000000007,634048.2000000011,623947.703,624156.1000000015,623981.51,633864.376,4,500,15,
break,html.Screen,10_14_1,2023-11-14T18:41:59.694Z,,,,,,,,,,NaN,,,,,,,,low,low,,,,,,false,,,,false,634048.6000000015,634048.5,,634048.4000000004,,633864.376,4,500,,
break_continue,html.Screen,10_14_2,2023-11-14T18:41:59.694Z,,,,,,,,,,NaN,,,,,,,,low,low,,,,,,false,,,,false,634048.9000000004,634048.8000000007,,634048.7000000011,,633864.376,4,500,,
sequence,flow.Sequence,10_14,2023-11-14T18:41:59.694Z,,,,,,,,,,10067.290000000736,completion,,,,,,,low,low,,,,,,false,,,,false,634048.9000000004,634048.8000000007,623947.703,624156.1000000015,623981.51,633864.376,4,500,,
trial,html.Screen,10_15_0,2023-11-14T18:42:04.801Z,,,,1,-0.0394300226801425,0.0536115913979284,,true,lh,5291.024000000325,response,-0.3069650369860269,0.4699999999999995,-0.4610877484962047,0.5283995132809272,0.4749429162409264,-0.47819443486322355,low,high,,ISIC_0046983.JPG,9,ISIC_0066783.JPG,258,false,lh,keypress(e),0,false,639155.6000000015,639155.4000000004,633847.874,634049,633864.376,638997.899,4,500,16,
break,html.Screen,10_15_1,2023-11-14T18:42:04.801Z,,,,,,,,,,NaN,,,,,,,,low,high,,,,,,false,,,,false,639155.9000000004,639155.8000000007,,639155.7000000011,,638997.899,4,500,,
break_continue,html.Screen,10_15_2,2023-11-14T18:42:04.801Z,,,,,,,,,,NaN,,,,,,,,low,high,,,,,,false,,,,false,639156.1000000015,639156,,639155.9000000004,,638997.899,4,500,,
sequence,flow.Sequence,10_15,2023-11-14T18:42:04.802Z,,,,,,,,,,5291.6239999999525,completion,,,,,,,low,high,,,,,,false,,,,false,639156.2000000011,639156,633847.874,634049,633864.376,638997.899,4,500,,
trial,html.Screen,10_16_0,2023-11-14T18:42:12.673Z,,,,1,0.0326050223870869,0.0579165897319751,,true,hh,8029.901000000769,response,0.5565532413037697,0.4699999999999995,-0.4610877484962047,0.6437058660162371,0.4749429162409264,-0.47819443486322355,high,high,,ISIC_4570724.JPG,8,ISIC_0026545.JPG,421,false,hh,keypress(i),0,false,647027.9000000004,647027.8000000007,638981.219,639156.2000000011,638997.899,646847.722,4,500,17,
break,html.Screen,10_16_1,2023-11-14T18:42:12.674Z,,,,,,,,,,NaN,,,,,,,,high,high,,,,,,false,,,,false,647028.3000000007,647028.2000000011,,647028.1000000015,,646847.722,4,500,,
break_continue,html.Screen,10_16_2,2023-11-14T18:42:12.674Z,,,,,,,,,,NaN,,,,,,,,high,high,,,,,,false,,,,false,647028.7000000011,647028.6000000015,,647028.5,,646847.722,4,500,,
sequence,flow.Sequence,10_16,2023-11-14T18:42:12.674Z,,,,,,,,,,8030.701000001514,completion,,,,,,,high,high,,,,,,false,,,,false,647028.8000000007,647028.6000000015,638981.219,639156.2000000011,638997.899,646847.722,4,500,,
trial,html.Screen,10_17_0,2023-11-14T18:42:18.194Z,,,,1,-0.0394300226801425,0.0536115913979284,,false,hl,5700.3780000015395,response,0.5962304569374713,0.4699999999999995,-0.4610877484962047,-0.4215611930565722,0.4749429162409264,-0.47819443486322355,high,low,,ISIC_0046983.JPG,8,ISIC_3787504.JPG,285,false,lh,keypress(e),0,false,652548.3000000007,652548.1000000015,646831.064,647028.9000000004,646847.722,652364.341,4,500,18,
break,html.Screen,10_17_1,2023-11-14T18:42:18.194Z,,,,,,,,,,NaN,,,,,,,,high,low,,,,,,false,,,,false,652549.1000000015,652548.9000000004,,652548.6000000015,,652364.341,4,500,,
break_continue,html.Screen,10_17_2,2023-11-14T18:42:18.195Z,,,,,,,,,,NaN,,,,,,,,high,low,,,,,,false,,,,false,652549.6000000015,652549.4000000004,,652549.3000000007,,652364.341,4,500,,
sequence,flow.Sequence,10_17,2023-11-14T18:42:18.195Z,,,,,,,,,,5701.678000000422,completion,,,,,,,high,low,,,,,,false,,,,false,652549.8000000007,652549.4000000004,646831.064,647028.9000000004,646847.722,652364.341,4,500,,
trial,html.Screen,10_18_0,2023-11-14T18:42:24.233Z,,,,1,-0.0308384937406319,0.0038396364323947,,false,hh,6222.759000001475,response,0.3160215981350774,0.4699999999999995,-0.4610877484962047,0.6244645529238094,0.4749429162409264,-0.47819443486322355,high,high,,ISIC_0029825.JPG,9,ISIC_0034090.JPG,421,false,hl,keypress(j),0,false,658587.2000000011,658587.1000000015,652347.645,652549.9000000004,652364.341,658397.683,4,500,19,
break,html.Screen,10_18_1,2023-11-14T18:42:24.233Z,,,,,,,,,,NaN,,,,,,,,high,high,,,,,,false,,,,false,658587.5,658587.5,,658587.3000000007,,658397.683,4,500,,
break_continue,html.Screen,10_18_2,2023-11-14T18:42:24.233Z,,,,,,,,,,NaN,,,,,,,,high,high,,,,,,false,,,,false,658587.7000000011,658587.6000000015,,658587.6000000015,,658397.683,4,500,,
sequence,flow.Sequence,10_18,2023-11-14T18:42:24.233Z,,,,,,,,,,6223.259000001475,completion,,,,,,,high,high,,,,,,false,,,,false,658587.8000000007,658587.6000000015,652347.645,652549.9000000004,652364.341,658397.683,4,500,,
trial,html.Screen,10_19_0,2023-11-14T18:42:29.419Z,,,,1,-0.0700576547090477,0.0026956749740767,,true,lh,5374.217000000412,response,-0.5635306966596147,0.4699999999999995,-0.4610877484962047,0.3209771905460522,0.4749429162409264,-0.47819443486322355,low,high,,ISIC_7212271.JPG,9,ISIC_0001119.JPG,258,false,lh,keypress(e),0,false,663772.1000000015,663771.9000000004,658380.949,658587.8000000007,658397.683,663614.507,4,500,20,
break,html.Screen,10_19_1,2023-11-14T18:42:29.420Z,,,,,,,,,,NaN,,,,,,,,low,high,,,,,,false,,,,false,663772.7000000011,663772.6000000015,,663772.3000000007,,663614.507,4,500,,
break_continue,html.Screen,10_19_2,2023-11-14T18:42:29.420Z,,,,,,,,,,NaN,,,,,,,,low,high,,,,,,false,,,,false,663773.1000000015,663772.9000000004,,663772.8000000007,,663614.507,4,500,,
sequence,flow.Sequence,10_19,2023-11-14T18:42:29.420Z,,,,,,,,,,5375.217000000412,completion,,,,,,,low,high,,,,,,false,,,,false,663773.2000000011,663772.9000000004,658380.949,658587.8000000007,658397.683,663614.507,4,500,,
trial,html.Screen,10_20_0,2023-11-14T18:42:39.579Z,,,,1,0.0146597765042814,0.06222227493177,,false,lh,10317.493000000017,response,-0.6513607949870998,0.4699999999999995,-0.4610877484962047,0.4618081028449615,0.4749429162409264,-0.47819443486322355,low,high,,ISIC_5982769.JPG,9,ISIC_0070782.JPG,258,false,hh,keypress(i),0,false,673932.1000000015,673932,663597.81,663773.3000000007,663614.507,673747.73,4,500,21,
break,html.Screen,10_20_1,2023-11-14T18:42:39.580Z,,,,,,,,,,NaN,,,,,,,,low,high,,,,,,false,,,,false,673932.8000000007,673932.6000000015,,673932.3000000007,,673747.73,4,500,,
break_continue,html.Screen,10_20_2,2023-11-14T18:42:39.580Z,,,,,,,,,,NaN,,,,,,,,low,high,,,,,,false,,,,false,673933.3000000007,673933.1000000015,,673932.9000000004,,673747.73,4,500,,
sequence,flow.Sequence,10_20,2023-11-14T18:42:39.581Z,,,,,,,,,,10318.593000001507,completion,,,,,,,low,high,,,,,,false,,,,false,673933.5,673933.1000000015,663597.81,663773.2000000011,663614.507,673747.73,4,500,,
trial,html.Screen,10_21_0,2023-11-14T18:42:45.443Z,,,,1,0.0367060100866019,0.0630207980628495,,false,lh,6048.170000000391,response,-0.3388330546840093,0.4699999999999995,-0.4610877484962047,0.6405673416582407,0.4749429162409264,-0.47819443486322355,low,high,,ISIC_0028396.JPG,9,ISIC_2769292.JPG,258,false,ll,keypress(f),0,false,679796.1000000015,679795.9000000004,673731.092,673933.6000000015,673747.73,679614.414,4,500,22,
break,html.Screen,10_21_1,2023-11-14T18:42:45.444Z,,,,,,,,,,NaN,,,,,,,,low,high,,,,,,false,,,,false,679796.6000000015,679796.5,,679796.3000000007,,679614.414,4,500,,
break_continue,html.Screen,10_21_2,2023-11-14T18:42:45.444Z,,,,,,,,,,NaN,,,,,,,,low,high,,,,,,false,,,,false,679797,679796.8000000007,,679796.7000000011,,679614.414,4,500,,
sequence,flow.Sequence,10_21,2023-11-14T18:42:45.444Z,,,,,,,,,,6049.070000000764,completion,,,,,,,low,high,,,,,,false,,,,false,679797.1000000015,679796.8000000007,673731.092,673933.6000000015,673747.73,679614.414,4,500,,
trial,html.Screen,10_22_0,2023-11-14T18:42:52.475Z,,,,1,0.0388181790775959,-0.0049623405709465,,true,ll,7213.486000000383,response,-0.2850370422488888,0.4699999999999995,-0.4610877484962047,-0.6153824377328586,0.4749429162409264,-0.47819443486322355,low,low,,ISIC_0061880.JPG,9,ISIC_2279679.JPG,467,false,ll,keypress(f),0,false,686828,686827.9000000004,679597.698,679797.1000000015,679614.414,686647.705,4,500,23,
break,html.Screen,10_22_1,2023-11-14T18:42:52.476Z,,,,,,,,,,NaN,,,,,,,,low,low,,,,,,false,,,,false,686828.6000000015,686828.5,,686828.2000000011,,686647.705,4,500,,
break_continue,html.Screen,10_22_2,2023-11-14T18:42:52.476Z,,,,,,,,,,NaN,,,,,,,,low,low,,,,,,false,,,,false,686828.9000000004,686828.8000000007,,686828.7000000011,,686647.705,4,500,,
sequence,flow.Sequence,10_22,2023-11-14T18:42:52.476Z,,,,,,,,,,7214.386000000755,completion,,,,,,,low,low,,,,,,false,,,,false,686829.1000000015,686828.8000000007,679597.698,679797.1000000015,679614.414,686647.705,4,500,,
trial,html.Screen,10_23_0,2023-11-14T18:43:02.293Z,,,,1,0.0146597765042814,0.06222227493177,,false,ll,9998.295000000042,response,-0.2752636934788964,0.4699999999999995,-0.4610877484962047,-0.5255039972175998,0.4749429162409264,-0.47819443486322355,low,low,,ISIC_5982769.JPG,8,ISIC_0070651.JPG,467,false,hl,keypress(j),0,false,696646.2000000011,696646,686631.145,686829.1000000015,686647.705,696464.377,4,500,24,
break,html.Screen,10_23_1,2023-11-14T18:43:02.294Z,,,,,,,,,,NaN,,,,,,,,low,low,,,,,,false,,,,false,696646.7000000011,696646.5,,696646.3000000007,,696464.377,4,500,,
break_continue,html.Screen,10_23_2,2023-11-14T18:43:02.294Z,,,,,,,,,,NaN,,,,,,,,low,low,,,,,,false,,,,false,696647.1000000015,696646.8000000007,,696646.7000000011,,696464.377,4,500,,
sequence,flow.Sequence,10_23,2023-11-14T18:43:02.294Z,,,,,,,,,,9999.095000000787,completion,,,,,,,low,low,,,,,,false,,,,false,696647.2000000011,696646.8000000007,686631.145,686829.1000000015,686647.705,696464.377,4,500,,
trial,html.Screen,10_24_0,2023-11-14T18:43:09.003Z,,,,1,-0.0480293506029756,-0.0744454320613987,,false,hh,6891.023000000394,response,0.395098893519488,0.4699999999999995,-0.4610877484962047,0.4456359380901787,0.4749429162409264,-0.47819443486322355,high,high,,ISIC_1798471.JPG,9,ISIC_0028949.JPG,421,false,lh,keypress(e),0,false,703355.5,703355.4000000004,696447.833,696647.3000000007,696464.377,703182.427,4,500,25,
break,html.Screen,10_24_1,2023-11-14T18:43:09.003Z,,,,,,,,,,NaN,,,,,,,,high,high,,,,,,false,,,,false,703355.8000000007,703355.7000000011,,703355.6000000015,,703182.427,4,500,,
break_continue,html.Screen,10_24_2,2023-11-14T18:43:09.003Z,,,,,,,,,,NaN,,,,,,,,high,high,,,,,,false,,,,false,703356,703355.9000000004,,703355.9000000004,,703182.427,4,500,,
sequence,flow.Sequence,10_24,2023-11-14T18:43:09.003Z,,,,,,,,,,6891.523000000394,completion,,,,,,,high,high,,,,,,false,,,,false,703356.1000000015,703355.9000000004,696447.833,696647.3000000007,696464.377,703182.427,4,500,,
trial,html.Screen,10_25_0,2023-11-14T18:43:17.164Z,,,,1,0.0109416414475118,0.005246498750811,,false,lh,8333.87300000072,response,-0.525634371971047,0.4699999999999995,-0.4610877484962047,0.5016267685273991,0.4749429162409264,-0.47819443486322355,low,high,,ISIC_0064279.JPG,9,ISIC_0070351.JPG,258,false,ll,keypress(f),0,false,711516.7000000011,711516.3000000007,703147.766,703356.1000000015,703182.427,711331.12,4,500,26,
break,html.Screen,10_25_1,2023-11-14T18:43:17.165Z,,,,,,,,,,NaN,,,,,,,,low,high,,,,,,false,,,,false,711517.7000000011,711517.5,,711517.1000000015,,711331.12,4,500,,
break_continue,html.Screen,10_25_2,2023-11-14T18:43:17.165Z,,,,,,,,,,NaN,,,,,,,,low,high,,,,,,false,,,,false,711518.3000000007,711518,,711517.8000000007,,711331.12,4,500,,
sequence,flow.Sequence,10_25,2023-11-14T18:43:17.166Z,,,,,,,,,,8335.572999999975,completion,,,,,,,low,high,,,,,,false,,,,false,711518.5,711518,703147.766,703356.1000000015,703182.427,711331.12,4,500,,
trial,html.Screen,10_26_0,2023-11-14T18:43:26.227Z,,,,1,0.0388181790775959,-0.0049623405709465,,false,hl,9248.18000000075,response,0.6411642360419201,0.4699999999999995,-0.4610877484962047,-0.6247385864481547,0.4749429162409264,-0.47819443486322355,high,low,,ISIC_0061880.JPG,8,ISIC_0000467.JPG,285,false,hh,keypress(i),0,false,720579.5,720579.3000000007,711314.198,711518.6000000015,711331.12,720397.814,4,500,27,
break,html.Screen,10_26_1,2023-11-14T18:43:26.227Z,,,,,,,,,,NaN,,,,,,,,high,low,,,,,,false,,,,false,720579.8000000007,720579.7000000011,,720579.6000000015,,720397.814,4,500,,
break_continue,html.Screen,10_26_2,2023-11-14T18:43:26.227Z,,,,,,,,,,NaN,,,,,,,,high,low,,,,,,false,,,,false,720579.9000000004,720579.9000000004,,720579.8000000007,,720397.814,4,500,,
sequence,flow.Sequence,10_26,2023-11-14T18:43:26.227Z,,,,,,,,,,9248.780000000377,completion,,,,,,,high,low,,,,,,false,,,,false,720580.1000000015,720579.9000000004,711314.198,711518.6000000015,711331.12,720397.814,4,500,,
trial,html.Screen,10_27_0,2023-11-14T18:43:34.790Z,,,,1,-0.0700576547090477,0.0026956749740767,,false,hl,8742.286000001477,response,0.3493500091403971,0.4699999999999995,-0.4610877484962047,-0.2963130550246498,0.4749429162409264,-0.47819443486322355,high,low,,ISIC_7212271.JPG,11,ISIC_0026155.JPG,285,false,lh,keypress(e),0,false,729140.5,729140.1000000015,720380.803,720580.1000000015,720397.814,728964.585,4,500,28,
break,html.Screen,10_27_1,2023-11-14T18:43:34.791Z,,,,,,,,,,NaN,,,,,,,,high,low,,,,,,false,,,,false,729141.7000000011,729141.4000000004,,729140.7000000011,,728964.585,4,500,,
break_continue,html.Screen,10_27_2,2023-11-14T18:43:34.792Z,,,,,,,,,,NaN,,,,,,,,high,low,,,,,,false,,,,false,729142.8000000007,729142.3000000007,,729142,,728964.585,4,500,,
sequence,flow.Sequence,10_27,2023-11-14T18:43:34.792Z,,,,,,,,,,8744.486000000732,completion,,,,,,,high,low,,,,,,false,,,,false,729143.1000000015,729142.3000000007,720380.803,720580.1000000015,720397.814,728964.585,4,500,,
trial,html.Screen,10_28_0,2023-11-14T18:43:40.597Z,,,,1,-0.0308384937406319,0.0038396364323947,,false,hh,5983.31500000041,response,0.5859061375775791,0.4699999999999995,-0.4610877484962047,0.6651172024911747,0.4749429162409264,-0.47819443486322355,high,high,,ISIC_0029825.JPG,9,ISIC_0010242.JPG,421,false,hl,keypress(j),0,false,734948.1000000015,734947.9000000004,728947.476,729143.4000000004,728964.585,734764.441,4,500,29,
break,html.Screen,10_28_1,2023-11-14T18:43:40.598Z,,,,,,,,,,NaN,,,,,,,,high,high,,,,,,false,,,,false,734948.7000000011,734948.5,,734948.3000000007,,734764.441,4,500,,
break_continue,html.Screen,10_28_2,2023-11-14T18:43:40.598Z,,,,,,,,,,NaN,,,,,,,,high,high,,,,,,false,,,,false,734949,734948.9000000004,,734948.7000000011,,734764.441,4,500,,
sequence,flow.Sequence,10_28,2023-11-14T18:43:40.598Z,,,,,,,,,,5984.31500000041,completion,,,,,,,high,high,,,,,,false,,,,false,734949.2000000011,734948.9000000004,728947.476,729143.4000000004,728964.585,734764.441,4,500,,
trial,html.Screen,10_29_0,2023-11-14T18:43:47.517Z,,,,1,0.045779466401051,0.0137769797231127,,true,hh,7102.959000000381,response,0.2991217214261983,0.4699999999999995,-0.4610877484962047,0.6515828261831264,0.4749429162409264,-0.47819443486322355,high,high,,ISIC_0000504.JPG,9,ISIC_0046618.JPG,421,false,hh,keypress(i),0,false,741867.6000000015,741867.4000000004,734747.718,734949.3000000007,734764.441,741681.1,4,500,30,
break,html.Screen,10_29_1,2023-11-14T18:43:47.517Z,,,,,,,,,,NaN,,,,,,,,high,high,,,,,,false,,,,false,741867.9000000004,741867.8000000007,,741867.7000000011,,741681.1,4,500,,
break_continue,html.Screen,10_29_2,2023-11-14T18:43:47.517Z,,,,,,,,,,NaN,,,,,,,,high,high,,,,,,false,,,,false,741868.2000000011,741868,,741868,,741681.1,4,500,,
sequence,flow.Sequence,10_29,2023-11-14T18:43:47.517Z,,,,,,,,,,7103.559000000008,completion,,,,,,,high,high,,,,,,false,,,,false,741868.3000000007,741868,734747.718,734949.2000000011,734764.441,741681.1,4,500,,
trial,html.Screen,10_30_0,2023-11-14T18:43:58.305Z,,,,1,-0.0367744112927588,-0.0324865661712824,,,,10800.231000000029,timeout,0.3199800574761798,0.4699999999999995,-0.4610877484962047,-0.3870488299662492,0.4749429162409264,-0.47819443486322355,high,low,,ISIC_4523565.JPG,9,ISIC_3844404.JPG,285,false,,,0,false,752656.2000000011,752656.1000000015,741664.493,741868.4000000004,741681.1,752481.331,4,500,31,
break,html.Screen,10_30_1,2023-11-14T18:43:58.306Z,,,,,,,,,,NaN,,,,,,,,high,low,,,,,,false,,,,false,752656.7000000011,752656.6000000015,,752656.4000000004,,752481.331,4,500,,
break_continue,html.Screen,10_30_2,2023-11-14T18:43:58.306Z,,,,,,,,,,NaN,,,,,,,,high,low,,,,,,false,,,,false,752657.2000000011,752657,,752656.9000000004,,752481.331,4,500,,
sequence,flow.Sequence,10_30,2023-11-14T18:43:58.306Z,,,,,,,,,,10975.900000000023,completion,,,,,,,high,low,,,,,,false,,,,false,752657.3000000007,752657,741664.493,741868.4000000004,741681.1,752481.331,4,500,,
trial,html.Screen,10_31_0,2023-11-14T18:44:03.861Z,,,,1,0.0326050223870869,0.0579165897319751,,true,hl,5730.7690000014845,response,0.5757843577181234,0.4699999999999995,-0.4610877484962047,-0.5933986690755005,0.4749429162409264,-0.47819443486322355,high,low,,ISIC_4570724.JPG,9,ISIC_0692990.JPG,285,false,hl,keypress(j),0,false,758212.3000000007,758212.1000000015,752464.536,752657.3000000007,752481.331,758031.164,4,500,32,
break,html.Screen,10_31_1,2023-11-14T18:44:03.862Z,,,,,,,,,,NaN,,,,,,,,high,low,,,,,,false,,,,false,758213.1000000015,758212.9000000004,,758212.6000000015,,758031.164,4,500,,
break_continue,html.Screen,10_31_2,2023-11-14T18:44:03.863Z,,,,,,,,,,NaN,,,,,,,,high,low,,,,,,false,,,,false,758213.5,758213.3000000007,,758213.1000000015,,758031.164,4,500,,
sequence,flow.Sequence,10_31,2023-11-14T18:44:03.863Z,,,,,,,,,,5731.9690000007395,completion,,,,,,,high,low,,,,,,false,,,,false,758213.7000000011,758213.3000000007,752464.536,752657.3000000007,752481.331,758031.164,4,500,,
trial,html.Screen,10_32_0,2023-11-14T18:44:08.245Z,,,,1,-0.0118382036798625,-0.0300588245877227,,false,ll,4564.136000000755,response,-0.4071082917520986,0.4699999999999995,-0.4610877484962047,-0.4068687326507417,0.4749429162409264,-0.47819443486322355,low,low,,ISIC_4748605.JPG,9,ISIC_6755132.JPG,467,false,hl,keypress(j),0,false,762595.5,762595.3000000007,758014.472,758213.8000000007,758031.164,762414.501,4,500,33,
break,html.Screen,10_32_1,2023-11-14T18:44:08.245Z,,,,,,,,,,NaN,,,,,,,,low,low,,,,,,false,,,,false,762595.8000000007,762595.7000000011,,762595.6000000015,,762414.501,4,500,,
break_continue,html.Screen,10_32_2,2023-11-14T18:44:08.245Z,,,,,,,,,,NaN,,,,,,,,low,low,,,,,,false,,,,false,762596,762595.9000000004,,762595.8000000007,,762414.501,4,500,,
sequence,flow.Sequence,10_32,2023-11-14T18:44:08.245Z,,,,,,,,,,4564.736000000383,completion,,,,,,,low,low,,,,,,false,,,,false,762596.1000000015,762595.9000000004,758014.472,758213.8000000007,758031.164,762414.501,4,500,,
trial,html.Screen,10_33_0,2023-11-14T18:44:14.789Z,,,,1,0.0273855825278348,-0.0566295048930719,,false,lh,6725.599000001443,response,-0.3547781854921005,0.4699999999999995,-0.4610877484962047,0.4367780174666536,0.4749429162409264,-0.47819443486322355,low,high,,ISIC_0000141.JPG,9,ISIC_8340256.JPG,258,false,hh,keypress(i),0,false,769140.3000000007,769140.1000000015,762397.897,762596.2000000011,762414.501,768964.531,4,500,34,
break,html.Screen,10_33_1,2023-11-14T18:44:14.790Z,,,,,,,,,,NaN,,,,,,,,low,high,,,,,,false,,,,false,769141,769140.9000000004,,769140.5,,768964.531,4,500,,
break_continue,html.Screen,10_33_2,2023-11-14T18:44:14.791Z,,,,,,,,,,NaN,,,,,,,,low,high,,,,,,false,,,,false,769141.7000000011,769141.3000000007,,769141.2000000011,,768964.531,4,500,,
sequence,flow.Sequence,10_33,2023-11-14T18:44:14.791Z,,,,,,,,,,6726.799000000698,completion,,,,,,,low,high,,,,,,false,,,,false,769141.9000000004,769141.3000000007,762397.897,762596.2000000011,762414.501,768964.531,4,500,,
trial,html.Screen,10_34_0,2023-11-14T18:44:21.605Z,,,,1,0.0200376619013301,0.0451764418954947,,false,ll,6991.069000001531,response,-0.6154178500317298,0.4699999999999995,-0.4610877484962047,-0.4806624616284928,0.4749429162409264,-0.47819443486322355,low,low,,ISIC_0026087.JPG,10,ISIC_0024246.JPG,467,false,lh,keypress(e),0,false,775955.8000000007,775955.6000000015,768947.894,769142.2000000011,768964.531,775798.001,4,500,35,
break,html.Screen,10_34_1,2023-11-14T18:44:21.605Z,,,,,,,,,,NaN,,,,,,,,low,low,,,,,,false,,,,false,775956.2000000011,775956.1000000015,,775955.9000000004,,775798.001,4,500,,
break_continue,html.Screen,10_34_2,2023-11-14T18:44:21.606Z,,,,,,,,,,NaN,,,,,,,,low,low,,,,,,false,,,,false,775956.5,775956.4000000004,,775956.3000000007,,775798.001,4,500,,
sequence,flow.Sequence,10_34,2023-11-14T18:44:21.606Z,,,,,,,,,,6991.8690000004135,completion,,,,,,,low,low,,,,,,false,,,,false,775956.6000000015,775956.4000000004,768947.894,769142.1000000015,768964.531,775798.001,4,500,,
trial,html.Screen,10_35_0,2023-11-14T18:44:27.679Z,,,,1,-0.0283578106329894,0.0088840758711548,,true,hh,6229.69900000107,response,0.4801172937216654,0.4699999999999995,-0.4610877484962047,0.6185849005154657,0.4749429162409264,-0.47819443486322355,high,high,,ISIC_0060707.JPG,9,ISIC_0032602.JPG,421,false,hh,keypress(i),0,false,782027.9000000004,782027.7000000011,775781.209,775956.8000000007,775798.001,781847.835,4,500,36,
break,html.Screen,10_35_1,2023-11-14T18:44:27.679Z,,,,,,,,,,NaN,,,,,,,,high,high,,,,,,false,,,,false,782028.2000000011,782028.2000000011,,782027.9000000004,,781847.835,4,500,,
break_continue,html.Screen,10_35_2,2023-11-14T18:44:27.679Z,,,,,,,,,,NaN,,,,,,,,high,high,,,,,,false,,,,false,782028.5,782028.4000000004,,782028.4000000004,,781847.835,4,500,,
sequence,flow.Sequence,10_35,2023-11-14T18:44:27.680Z,,,,,,,,,,6230.399000000325,completion,,,,,,,high,high,,,,,,false,,,,false,782028.7000000011,782028.4000000004,775781.209,775956.7000000011,775798.001,781847.835,4,500,,
trial,html.Screen,10_36_0,2023-11-14T18:44:34.639Z,,,,1,0.039520186367207,0.0377961575607372,,false,hl,7139.865000001155,response,0.4727383262132555,0.4699999999999995,-0.4610877484962047,-0.2865973220021698,0.4749429162409264,-0.47819443486322355,high,low,,ISIC_6356149.JPG,8,ISIC_0845105.JPG,285,false,ll,keypress(f),0,false,788987.9000000004,788987.7000000011,781831.241,782028.8000000007,781847.835,788797.856,4,500,37,
break,html.Screen,10_36_1,2023-11-14T18:44:34.639Z,,,,,,,,,,NaN,,,,,,,,high,low,,,,,,false,,,,false,788988.3000000007,788988.1000000015,,788987.9000000004,,788797.856,4,500,,
break_continue,html.Screen,10_36_2,2023-11-14T18:44:34.639Z,,,,,,,,,,NaN,,,,,,,,high,low,,,,,,false,,,,false,788988.6000000015,788988.4000000004,,788988.3000000007,,788797.856,4,500,,
sequence,flow.Sequence,10_36,2023-11-14T18:44:34.640Z,,,,,,,,,,7140.56500000041,completion,,,,,,,high,low,,,,,,false,,,,false,788988.6000000015,788988.4000000004,781831.241,782028.7000000011,781847.835,788797.856,4,500,,
trial,html.Screen,10_37_0,2023-11-14T18:44:45.428Z,,,,1,0.049790040126711,-0.0195291725171472,,,,10800.021999999997,timeout,0.3217189044130589,0.4699999999999995,-0.4610877484962047,-0.3494730184466225,0.4749429162409264,-0.47819443486322355,high,low,,ISIC_0372902.JPG,9,ISIC_3760796.JPG,285,false,,,0,false,799776.8000000007,799776.7000000011,788781.061,788988.7000000011,788797.856,799597.878,4,500,38,
break,html.Screen,10_37_1,2023-11-14T18:44:45.428Z,,,,,,,,,,NaN,,,,,,,,high,low,,,,,,false,,,,false,799777.1000000015,799777,,799776.9000000004,,799597.878,4,500,,
break_continue,html.Screen,10_37_2,2023-11-14T18:44:45.428Z,,,,,,,,,,NaN,,,,,,,,high,low,,,,,,false,,,,false,799777.3000000007,799777.3000000007,,799777.1000000015,,799597.878,4,500,,
sequence,flow.Sequence,10_37,2023-11-14T18:44:45.428Z,,,,,,,,,,10979.444000000716,completion,,,,,,,high,low,,,,,,false,,,,false,799777.4000000004,799777.3000000007,788781.061,788988.7000000011,788797.856,799597.878,4,500,,
trial,html.Screen,10_38_0,2023-11-14T18:44:51.750Z,,,,1,0.0388334549081915,-0.0303399972963369,,false,ll,6501.422000000719,response,-0.2873318590285269,0.4699999999999995,-0.4610877484962047,-0.6527068677186888,0.4749429162409264,-0.47819443486322355,low,low,,ISIC_4961708.JPG,9,ISIC_4738636.JPG,467,false,hl,keypress(j),0,false,806099.4000000004,806099.3000000007,799581.167,799777.4000000004,799597.878,805914.612,4,500,39,
break,html.Screen,10_38_1,2023-11-14T18:44:51.751Z,,,,,,,,,,NaN,,,,,,,,low,low,,,,,,false,,,,false,806099.7000000011,806099.6000000015,,806099.4000000004,,805914.612,4,500,,
break_continue,html.Screen,10_38_2,2023-11-14T18:44:51.751Z,,,,,,,,,,NaN,,,,,,,,low,low,,,,,,false,,,,false,806099.9000000004,806099.8000000007,,806099.8000000007,,805914.612,4,500,,
sequence,flow.Sequence,10_38,2023-11-14T18:44:51.751Z,,,,,,,,,,6501.922000000719,completion,,,,,,,low,low,,,,,,false,,,,false,806100,806099.8000000007,799581.167,799777.4000000004,799597.878,805914.612,4,500,,
trial,html.Screen,10_39_0,2023-11-14T18:44:55.831Z,,,,1,0.0426957918502628,0.044166030546046,,false,lh,4264.888000000035,response,-0.3069650369860269,0.4699999999999995,-0.4610877484962047,0.5283995132809272,0.4749429162409264,-0.47819443486322355,low,high,,ISIC_4649440.JPG,9,ISIC_0066783.JPG,258,false,hl,keypress(j),0,false,810179.7000000011,810179.5,805897.878,806100,805914.612,809998.091,4,500,40,
break,html.Screen,10_39_1,2023-11-14T18:44:55.831Z,,,,,,,,,,NaN,,,,,,,,low,high,,,,,,false,,,,false,810180,810179.9000000004,,810179.8000000007,,809998.091,4,500,,
break_continue,html.Screen,10_39_2,2023-11-14T18:44:55.831Z,,,,,,,,,,NaN,,,,,,,,low,high,,,,,,false,,,,false,810180.3000000007,810180.2000000011,,810180.1000000015,,809998.091,4,500,,
sequence,flow.Sequence,10_39,2023-11-14T18:44:55.831Z,,,,,,,,,,4265.588000001153,completion,,,,,,,low,high,,,,,,false,,,,false,810180.3000000007,810180.2000000011,805897.878,806100,805914.612,809998.091,4,500,,
trial,html.Screen,10_40_0,2023-11-14T18:45:01.382Z,,,,1,-0.0464691161264081,-0.0535296539628673,,true,hh,5733.309000000358,response,0.4513455630412085,0.4699999999999995,-0.4610877484962047,0.3910987069480649,0.4749429162409264,-0.47819443486322355,high,high,,ISIC_0758797.JPG,8,ISIC_0027234.JPG,421,false,hh,keypress(i),0,false,815731.5,815731.4000000004,809981.413,810180.5,809998.091,815547.931,4,500,41,
break,html.Screen,10_40_1,2023-11-14T18:45:01.383Z,,,,,,,,,,NaN,,,,,,,,high,high,,,,,,false,,,,false,815731.8000000007,815731.8000000007,,815731.6000000015,,815547.931,4,500,,
break_continue,html.Screen,10_40_2,2023-11-14T18:45:01.383Z,,,,,,,,,,NaN,,,,,,,,high,high,,,,,,false,,,,false,815732,815731.9000000004,,815731.9000000004,,815547.931,4,500,,
sequence,flow.Sequence,10_40,2023-11-14T18:45:01.383Z,,,,,,,,,,5733.809000000358,completion,,,,,,,high,high,,,,,,false,,,,false,815732.1000000015,815731.9000000004,809981.413,810180.4000000004,809998.091,815547.931,4,500,,
trial,html.Screen,10_41_0,2023-11-14T18:45:04.982Z,,,,1,-0.0367744112927588,-0.0324865661712824,,false,hl,3783.46900000039,response,0.5168622384355,0.4699999999999995,-0.4610877484962047,-0.2876534050700066,0.4749429162409264,-0.47819443486322355,high,low,,ISIC_4523565.JPG,8,ISIC_0072730.JPG,285,false,hh,keypress(i),0,false,819331.4000000004,819331.4000000004,815531.295,815732.1000000015,815547.931,819147.938,4,500,42,
break,html.Screen,10_41_1,2023-11-14T18:45:04.983Z,,,,,,,,,,NaN,,,,,,,,high,low,,,,,,false,,,,false,819331.9000000004,819331.8000000007,,819331.6000000015,,819147.938,4,500,,
break_continue,html.Screen,10_41_2,2023-11-14T18:45:04.983Z,,,,,,,,,,NaN,,,,,,,,high,low,,,,,,false,,,,false,819332.1000000015,819332.1000000015,,819332,,819147.938,4,500,,
sequence,flow.Sequence,10_41,2023-11-14T18:45:04.983Z,,,,,,,,,,3784.169000001508,completion,,,,,,,high,low,,,,,,false,,,,false,819332.2000000011,819332.1000000015,815531.295,815732.1000000015,815547.931,819147.938,4,500,,
trial,html.Screen,10_42_0,2023-11-14T18:45:10.519Z,,,,1,-0.0044063257337227,-0.0172548282859886,,false,hl,5719.762000001152,response,0.646028178694228,0.4699999999999995,-0.4610877484962047,-0.3996593567754282,0.4749429162409264,-0.47819443486322355,high,low,,ISIC_7413786.JPG,9,ISIC_7349772.JPG,285,false,lh,keypress(e),0,false,824867.8000000007,824867.7000000011,819131.218,819332.3000000007,819147.938,824681.212,4,500,43,
break,html.Screen,10_42_1,2023-11-14T18:45:10.519Z,,,,,,,,,,NaN,,,,,,,,high,low,,,,,,false,,,,false,824868.4000000004,824868.3000000007,,824868.1000000015,,824681.212,4,500,,
break_continue,html.Screen,10_42_2,2023-11-14T18:45:10.520Z,,,,,,,,,,NaN,,,,,,,,high,low,,,,,,false,,,,false,824868.9000000004,824868.6000000015,,824868.5,,824681.212,4,500,,
sequence,flow.Sequence,10_42,2023-11-14T18:45:10.520Z,,,,,,,,,,5720.662000001525,completion,,,,,,,high,low,,,,,,false,,,,false,824869,824868.6000000015,819131.218,819332.3000000007,819147.938,824681.212,4,500,,
trial,html.Screen,10_43_0,2023-11-14T18:45:15.767Z,,,,1,0.0074667911845194,-0.018500200317654,,true,hl,5434.888000001432,response,0.6605223108098224,0.4699999999999995,-0.4610877484962047,-0.4077982245583249,0.4749429162409264,-0.47819443486322355,high,low,,ISIC_0058723.JPG,9,ISIC_2383335.JPG,285,false,hl,keypress(j),0,false,830116.3000000007,830116.1000000015,824664.566,824869.1000000015,824681.212,829931.222,4,500,44,
break,html.Screen,10_43_1,2023-11-14T18:45:15.768Z,,,,,,,,,,NaN,,,,,,,,high,low,,,,,,false,,,,false,830117,830116.9000000004,,830116.6000000015,,829931.222,4,500,,
break_continue,html.Screen,10_43_2,2023-11-14T18:45:15.769Z,,,,,,,,,,NaN,,,,,,,,high,low,,,,,,false,,,,false,830117.7000000011,830117.3000000007,,830117.2000000011,,829931.222,4,500,,
sequence,flow.Sequence,10_43,2023-11-14T18:45:15.769Z,,,,,,,,,,5436.088000000687,completion,,,,,,,high,low,,,,,,false,,,,false,830118,830117.3000000007,824664.566,824869.1000000015,824681.212,829931.222,4,500,,
trial,html.Screen,10_44_0,2023-11-14T18:45:22.367Z,,,,1,0.0395587463147856,-0.0645068093068572,,true,hh,6784.678000000422,response,0.3056309290338156,0.4699999999999995,-0.4610877484962047,0.3032429180435645,0.4749429162409264,-0.47819443486322355,high,high,,ISIC_0010807.JPG,9,ISIC_1684127.JPG,421,false,hh,keypress(i),0,false,836716.1000000015,836715.9000000004,829914.656,830118.1000000015,829931.222,836531.253,4,500,45,
break,html.Screen,10_44_1,2023-11-14T18:45:22.368Z,,,,,,,,,,NaN,,,,,,,,high,high,,,,,,false,,,,false,836716.7000000011,836716.5,,836716.2000000011,,836531.253,4,500,,
break_continue,html.Screen,10_44_2,2023-11-14T18:45:22.368Z,,,,,,,,,,NaN,,,,,,,,high,high,,,,,,false,,,,false,836717.1000000015,836716.9000000004,,836716.8000000007,,836531.253,4,500,,
sequence,flow.Sequence,10_44,2023-11-14T18:45:22.368Z,,,,,,,,,,6785.678000000422,completion,,,,,,,high,high,,,,,,false,,,,false,836717.2000000011,836716.9000000004,829914.656,830118,829931.222,836531.253,4,500,,
trial,html.Screen,10_45_0,2023-11-14T18:45:31.089Z,,,,1,-0.0715931084231032,0.011427878877272,,false,hh,8904.847000001464,response,0.6320264697327407,0.4699999999999995,-0.4610877484962047,0.5594254740341711,0.4749429162409264,-0.47819443486322355,high,high,,ISIC_1470250.JPG,9,ISIC_0034253.JPG,421,false,lh,keypress(e),0,false,845436.3000000007,845436.1000000015,836514.632,836717.3000000007,836531.253,845247.943,4,500,46,
break,html.Screen,10_45_1,2023-11-14T18:45:31.090Z,,,,,,,,,,NaN,,,,,,,,high,high,,,,,,false,,,,false,845437,845436.8000000007,,845436.5,,845247.943,4,500,,
break_continue,html.Screen,10_45_2,2023-11-14T18:45:31.090Z,,,,,,,,,,NaN,,,,,,,,high,high,,,,,,false,,,,false,845437.4000000004,845437.2000000011,,845437,,845247.943,4,500,,
sequence,flow.Sequence,10_45,2023-11-14T18:45:31.090Z,,,,,,,,,,8905.947000001092,completion,,,,,,,high,high,,,,,,false,,,,false,845437.6000000015,845437.2000000011,836514.632,836717.3000000007,836531.253,845247.943,4,500,,
trial,html.Screen,10_46_0,2023-11-14T18:45:41.881Z,,,,1,-0.0643519619373155,-0.0340638715725122,,,,10800.027000000002,timeout,-0.4782964144542844,0.4699999999999995,-0.4610877484962047,0.597879735432066,0.4749429162409264,-0.47819443486322355,low,high,,ISIC_0066401.JPG,8,ISIC_0059341.JPG,258,false,,,0,false,856228.4000000004,856228.1000000015,845231.196,845437.7000000011,845247.943,856047.97,4,500,47,
break,html.Screen,10_46_1,2023-11-14T18:45:41.882Z,,,,,,,,,,NaN,,,,,,,,low,high,,,,,,false,,,,false,856229.3000000007,856229,,856228.6000000015,,856047.97,4,500,,
break_continue,html.Screen,10_46_2,2023-11-14T18:45:41.883Z,,,,,,,,,,NaN,,,,,,,,low,high,,,,,,false,,,,false,856229.9000000004,856229.6000000015,,856229.5,,856047.97,4,500,,
sequence,flow.Sequence,10_46,2023-11-14T18:45:41.883Z,,,,,,,,,,10981.65700000152,completion,,,,,,,low,high,,,,,,false,,,,false,856230.2000000011,856229.6000000015,845231.196,845437.7000000011,845247.943,856047.97,4,500,,
trial,html.Screen,10_47_0,2023-11-14T18:45:48.392Z,,,,1,-0.0447960916594447,-0.0451557856659748,,false,lh,6691.530000000028,response,-0.640385891644352,0.4699999999999995,-0.4610877484962047,0.4512641338287448,0.4749429162409264,-0.47819443486322355,low,high,,ISIC_1379405.JPG,10,ISIC_1332766.JPG,258,false,hl,keypress(j),0,false,862739.7000000011,862739.5,856031.476,856230.3000000007,856047.97,862564.812,4,500,48,
break,html.Screen,10_47_1,2023-11-14T18:45:48.393Z,,,,,,,,,,NaN,,,,,,,,low,high,,,,,,false,,,,false,862740.1000000015,862739.9000000004,,862739.8000000007,,862564.812,4,500,,
break_continue,html.Screen,10_47_2,2023-11-14T18:45:48.393Z,,,,,,,,,,NaN,,,,,,,,low,high,,,,,,false,,,,false,862740.3000000007,862740.1000000015,,862740.1000000015,,862564.812,4,500,,
sequence,flow.Sequence,10_47,2023-11-14T18:45:48.393Z,,,,,,,,,,6692.130000001518,completion,,,,,,,low,high,,,,,,false,,,,false,862740.4000000004,862740.1000000015,856031.476,856230.3000000007,856047.97,862564.812,4,500,,
trial,html.Screen,10_48_0,2023-11-14T18:45:55.177Z,,,,1,-0.0394300226801425,0.0536115913979284,,true,lh,6958.988000000711,response,-0.5167748770275812,0.4699999999999995,-0.4610877484962047,0.4311382035806604,0.4749429162409264,-0.47819443486322355,low,high,,ISIC_0046983.JPG,9,ISIC_7100755.JPG,258,false,lh,keypress(e),0,false,869523.9000000004,869523.8000000007,862547.949,862740.4000000004,862564.812,869348.064,4,500,49,
break,html.Screen,10_48_1,2023-11-14T18:45:55.177Z,,,,,,,,,,NaN,,,,,,,,low,high,,,,,,false,,,,false,869524.6000000015,869524.4000000004,,869524.1000000015,,869348.064,4,500,,
break_continue,html.Screen,10_48_2,2023-11-14T18:45:55.178Z,,,,,,,,,,NaN,,,,,,,,low,high,,,,,,false,,,,false,869525,869524.9000000004,,869524.7000000011,,869348.064,4,500,,
sequence,flow.Sequence,10_48,2023-11-14T18:45:55.178Z,,,,,,,,,,6960.088000000338,completion,,,,,,,low,high,,,,,,false,,,,false,869525.2000000011,869524.9000000004,862547.949,862740.4000000004,862564.812,869348.064,4,500,,
trial,html.Screen,10_49_0,2023-11-14T18:46:01.913Z,,,,1,-0.0267918352484299,-0.0630167830859455,,false,hh,6911.636000001105,response,0.6697160251606403,0.4699999999999995,-0.4610877484962047,0.3354808616475384,0.4749429162409264,-0.47819443486322355,high,high,,ISIC_0064874.JPG,9,ISIC_4259290.JPG,421,false,hl,keypress(j),0,false,876259.9000000004,876259.7000000011,869331.202,869525.2000000011,869348.064,876081.273,4,500,50,
break,html.Screen,10_49_1,2023-11-14T18:46:01.913Z,,,,,,,,,,NaN,,,,,,,,high,high,,,,,,false,,,,false,876260.6000000015,876260.5,,876260.2000000011,,876081.273,4,500,,
break_continue,html.Screen,10_49_2,2023-11-14T18:46:01.914Z,,,,,,,,,,NaN,,,,,,,,high,high,,,,,,false,,,,false,876261,876260.9000000004,,876260.7000000011,,876081.273,4,500,,
