sender,sender_type,sender_id,timestamp,meta,,age,blockNo,c1,c2,condition,correct,correctResponse,duration,ended_on,f1,f1_high,f1_low,f2,f2_high,f2_low,feature_level1,feature_level2,gender,img_left,img_reveal,img_right,n_target_images,practice,response,response_action,selection_duration,staircase,time_commit,time_end,time_render,time_run,time_show,time_switch,total_blocks,total_trials,trialNo,url
informed_consent,html.Screen,0,2023-11-14T21:57:03.301Z,"{""labjs_version"":""20.2.4"",""labjs_build"":{""flavor"":""development"",""commit"":""f5b4a49f956347addd546a832a3327688c2c0fef""},""location"":""https://labjs.felixhenninger.com/api/labjs_preview/index.html"",""userAgent"":""Mozilla/5.0 (Windows NT 10.0; Win64; x64) AppleWebKit/537.36 (KHTML, like Gecko) Chrome/119.0.0.0 Safari/537.36"",""platform"":""Win32"",""language"":""en-US"",""locale"":""en-US"",""timeZone"":""America/Chicago"",""timezoneOffset"":360,""screen_width"":1920,""screen_height"":1080,""scroll_width"":945,""scroll_height"":918,""window_innerWidth"":945,""window_innerHeight"":966,""devicePixelRatio"":1}",,,,,,,,,21780.295999999256,response,,,,,,,,,,,,,,,consent,click button,,,22420,22412.199999999255,615.153,820.8999999985099,631.904,22231.918,,,,{}
Demography form,html.Form,1,2023-11-14T21:57:08.501Z,,,20,,,,,,,5388.0819999999985,form submission,,,,,,,,,male,,,,,,,,,,27620.099999997765,27620,22215.406,22420.199999999255,22231.918,27448.677,,,,
Welcome,html.Screen,2,2023-11-14T21:57:29.447Z,,,,,,,"[""asym"",""col""]",,,21115.522999999255,response,,,,,,,,,,,,,,,continue,click button,,,48564.89999999851,48564.199999999255,27432.101,27620.300000000745,27448.677,48381.868,,,,
demo_instructions,html.Screen,3,2023-11-14T21:57:41.375Z,,,,,,,,,,12110.432000000743,response,,,,,,,,,,,,,,,continue,click button,,,60492.89999999851,60492.300000000745,48365.187,48564.89999999851,48381.868,60298.564,,,,
trial,html.Screen,4_0_0,2023-11-14T21:57:55.259Z,,,,0,1.155796217969438,-1.1646564121743912,,true,lh,14078.236000000747,response,-0.8150886811691144,0.9999999999999998,-0.9999999999999998,0.862416038462147,0.9999999999999998,-0.9999999999999998,low,high,,ISIC_2685523.JPG,,ISIC_0058079.JPG,24,true,lh,keypress(e),100,false,74377.19999999925,74376.80000000075,60281.918,60493.099999997765,60298.564,74198.741,1,16,1,
sequence,flow.Sequence,4_0,2023-11-14T21:57:55.259Z,,,,,,,,,,14078.236000000747,completion,,,,,,,low,high,,,,,,true,,,,false,74377.69999999925,74376.80000000075,60281.918,60493.099999997765,60298.564,74198.741,1,16,,
trial,html.Screen,4_1_0,2023-11-14T21:58:12.419Z,,,,0,1.0700930503975157,-0.923753102263735,,true,lh,17338.45899999926,response,-0.8069690440362255,0.9999999999999998,-0.9999999999999998,0.8262727717500657,0.9999999999999998,-0.9999999999999998,low,high,,ISIC_0000022.JPG,,ISIC_0028469.JPG,24,true,lh,keypress(e),100,false,91537.5,91537.19999999925,74181.931,74377.89999999851,74198.741,91365.412,1,16,2,
sequence,flow.Sequence,4_1,2023-11-14T21:58:12.420Z,,,,,,,,,,17338.45899999926,completion,,,,,,,low,high,,,,,,true,,,,false,91537.89999999851,91537.19999999925,74181.931,74377.80000000075,74198.741,91365.412,1,16,,
trial,html.Screen,4_2_0,2023-11-14T21:58:16.060Z,,,,0,1.0088376543442317,-0.8023075994977575,,true,lh,3812.187999997768,response,-0.9013888878932071,0.9999999999999998,-0.9999999999999998,0.9328095253308732,0.9999999999999998,-0.9999999999999998,low,high,,ISIC_7619234.JPG,,ISIC_0068259.JPG,24,true,lh,keypress(e),100,false,95177.80000000075,95177.59999999776,91348.658,91538.09999999776,91365.412,94998.77,1,16,3,
sequence,flow.Sequence,4_2,2023-11-14T21:58:16.060Z,,,,,,,,,,3812.187999997768,completion,,,,,,,low,high,,,,,,true,,,,false,95178,95177.59999999776,91348.658,91538,91365.412,94998.77,1,16,,
trial,html.Screen,4_3_0,2023-11-14T21:58:19.153Z,,,,0,0.8015753713975186,-1.0067065355978264,,true,lh,3271.530000000741,response,-0.9445114955578736,0.9999999999999998,-0.9999999999999998,1.0054210059625863,0.9999999999999998,-0.9999999999999998,low,high,,ISIC_0002119.JPG,,ISIC_0033807.JPG,24,true,lh,keypress(e),100,false,98270.39999999851,98270.30000000075,94981.94,95178.09999999776,94998.77,98098.663,1,16,4,
sequence,flow.Sequence,4_3,2023-11-14T21:58:19.153Z,,,,,,,,,,3271.530000000741,completion,,,,,,,low,high,,,,,,true,,,,false,98270.69999999925,98270.30000000075,94981.94,95178.09999999776,94998.77,98098.663,1,16,,
trial,html.Screen,4_4_0,2023-11-14T21:58:24.533Z,,,,0,0.838609817323933,0.8422150101593281,,false,ll,5551.8369999999995,response,-0.8683575372693808,0.9999999999999998,-0.9999999999999998,-1.1767706219911918,0.9999999999999998,-0.9999999999999998,low,low,,ISIC_0009913.JPG,,ISIC_0006332.JPG,111,true,lh,keypress(e),100,false,103650.59999999776,103650.5,98082.09,98270.80000000075,98098.663,103481.95,1,16,5,
sequence,flow.Sequence,4_4,2023-11-14T21:58:24.533Z,,,,,,,,,,5551.8369999999995,completion,,,,,,,low,low,,,,,,true,,,,false,103650.80000000075,103650.5,98082.09,98270.69999999925,98098.663,103481.95,1,16,,
trial,html.Screen,4_5_0,2023-11-14T21:58:32.424Z,,,,0,0.8387460443597405,0.8583167463787408,,true,ll,8059.749999999258,response,-1.1198725483375875,0.9999999999999998,-0.9999999999999998,-0.8325245457585946,0.9999999999999998,-0.9999999999999998,low,low,,ISIC_0014189.JPG,,ISIC_6967143.JPG,111,true,ll,keypress(f),100,false,111541.80000000075,111541.69999999925,103465.308,103650.80000000075,103481.95,111365.302,1,16,6,
sequence,flow.Sequence,4_5,2023-11-14T21:58:32.424Z,,,,,,,,,,8059.749999999258,completion,,,,,,,low,low,,,,,,true,,,,false,111542,111541.69999999925,103465.308,103650.80000000075,103481.95,111365.302,1,16,,
trial,html.Screen,4_6_0,2023-11-14T21:58:42.603Z,,,,0,1.0053183338862537,1.0383223796934642,,true,ll,10355.698000000004,response,-1.0831477774866454,0.9999999999999998,-0.9999999999999998,-1.0347343776726454,0.9999999999999998,-0.9999999999999998,low,low,,ISIC_0000519.JPG,,ISIC_9475559.JPG,111,true,ll,keypress(f),100,false,121721.19999999925,121721,111348.659,111542,111365.302,121548.673,1,16,7,
sequence,flow.Sequence,4_6,2023-11-14T21:58:42.604Z,,,,,,,,,,10355.698000000004,completion,,,,,,,low,low,,,,,,true,,,,false,121721.5,121721,111348.659,111542,111365.302,121548.673,1,16,,
trial,html.Screen,4_7_0,2023-11-14T21:58:50.945Z,,,,0,1.0011647073734584,1.090690958018423,,true,ll,8514.226999998515,response,-0.8299201784919694,0.9999999999999998,-0.9999999999999998,-0.9555257680008306,0.9999999999999998,-0.9999999999999998,low,low,,ISIC_0021901.JPG,,ISIC_6937199.JPG,111,true,ll,keypress(f),100,false,130063,130062.89999999851,121531.961,121721.59999999776,121548.673,129898.879,1,16,8,
sequence,flow.Sequence,4_7,2023-11-14T21:58:50.945Z,,,,,,,,,,8514.226999998515,completion,,,,,,,low,low,,,,,,true,,,,false,130063.39999999851,130062.89999999851,121531.961,121721.5,121548.673,129898.879,1,16,,
trial,html.Screen,4_8_0,2023-11-14T21:58:55.430Z,,,,0,-1.00615481805876,0.8428903771195875,,true,hl,4649.120999999999,response,0.9448560599810628,0.9999999999999998,-0.9999999999999998,-0.9099421612683488,0.9999999999999998,-0.9999999999999998,high,low,,ISIC_0069970.JPG,,ISIC_9684318.JPG,24,true,hl,keypress(j),100,false,134548.19999999925,134548,129882.033,130063.59999999776,129898.879,134382.039,1,16,9,
sequence,flow.Sequence,4_8,2023-11-14T21:58:55.431Z,,,,,,,,,,4649.120999999999,completion,,,,,,,high,low,,,,,,true,,,,false,134548.5,134548,129882.033,130063.5,129898.879,134382.039,1,16,,
trial,html.Screen,4_9_0,2023-11-14T21:59:00.413Z,,,,0,-1.00615481805876,0.8428903771195875,,true,hl,5148.160999999265,response,1.082730232773217,0.9999999999999998,-0.9999999999999998,-0.8833175387485132,0.9999999999999998,-0.9999999999999998,high,low,,ISIC_0069970.JPG,,ISIC_0011933.JPG,24,true,hl,keypress(j),100,false,139530.59999999776,139530.19999999925,134365.355,134548.69999999925,134382.039,139365.311,1,16,10,
sequence,flow.Sequence,4_9,2023-11-14T21:59:00.413Z,,,,,,,,,,5148.160999999265,completion,,,,,,,high,low,,,,,,true,,,,false,139531.09999999776,139530.19999999925,134365.355,134548.59999999776,134382.039,139365.311,1,16,,
trial,html.Screen,4_10_0,2023-11-14T21:59:04.482Z,,,,0,-0.8779374983479176,0.9745548032823428,,true,hl,4234.288999997778,response,0.9670240379618178,0.9999999999999998,-0.9999999999999998,-1.1806404773220665,0.9999999999999998,-0.9999999999999998,high,low,,ISIC_2991354.JPG,,ISIC_0002288.JPG,24,true,hl,keypress(j),100,false,143599.69999999925,143599.59999999776,139348.704,139531.09999999776,139365.311,143432.103,1,16,11,
sequence,flow.Sequence,4_10,2023-11-14T21:59:04.482Z,,,,,,,,,,4234.288999997778,completion,,,,,,,high,low,,,,,,true,,,,false,143599.8999999985,143599.59999999776,139348.704,139531.09999999776,139365.311,143432.103,1,16,,
trial,html.Screen,4_11_0,2023-11-14T21:59:08.325Z,,,,0,-0.8591294258188253,0.870797302150167,,true,hl,4010.6970000007423,response,1.082730232773217,0.9999999999999998,-0.9999999999999998,-0.8833175387485132,0.9999999999999998,-0.9999999999999998,high,low,,ISIC_0055841.JPG,,ISIC_0011933.JPG,24,true,hl,keypress(j),100,false,147442.8999999985,147442.80000000075,143415.609,143600,143432.103,147265.624,1,16,12,
sequence,flow.Sequence,4_11,2023-11-14T21:59:08.325Z,,,,,,,,,,4010.6970000007423,completion,,,,,,,high,low,,,,,,true,,,,false,147443.19999999925,147442.80000000075,143415.609,143600,143432.103,147265.624,1,16,,
trial,html.Screen,4_12_0,2023-11-14T21:59:13.065Z,,,,0,-0.881950258866775,-1.1045276933275867,,true,hh,4916.975999997754,response,0.8800173162815772,0.9999999999999998,-0.9999999999999998,0.912069987718464,0.9999999999999998,-0.9999999999999998,high,high,,ISIC_4718237.JPG,,ISIC_0030852.JPG,154,true,hh,keypress(i),100,false,152182.8999999985,152182.59999999776,147248.682,147443.19999999925,147265.624,152015.499,1,16,13,
sequence,flow.Sequence,4_12,2023-11-14T21:59:13.065Z,,,,,,,,,,4916.975999997754,completion,,,,,,,high,high,,,,,,true,,,,false,152183.09999999776,152182.59999999776,147248.682,147443.19999999925,147265.624,152015.499,1,16,,
trial,html.Screen,4_13_0,2023-11-14T21:59:17.037Z,,,,0,-0.8317161304163111,-1.1627560037277045,,true,hh,4139.600999997754,response,1.0053183338862537,0.9999999999999998,-0.9999999999999998,1.0383223796934642,0.9999999999999998,-0.9999999999999998,high,high,,ISIC_5909403.JPG,,ISIC_0000519.JPG,154,true,hh,keypress(i),100,false,156155.19999999925,156155.09999999776,151998.762,152183.3999999985,152015.499,155982.047,1,16,14,
sequence,flow.Sequence,4_13,2023-11-14T21:59:17.037Z,,,,,,,,,,4139.600999997754,completion,,,,,,,high,high,,,,,,true,,,,false,156155.30000000075,156155.09999999776,151998.762,152183.30000000075,152015.499,155982.047,1,16,,
trial,html.Screen,4_14_0,2023-11-14T21:59:23.697Z,,,,0,-1.1864860711009846,-0.899694322339037,,true,hh,6832.253000000754,response,1.0441672988386008,0.9999999999999998,-0.9999999999999998,1.108916716139547,0.9999999999999998,-0.9999999999999998,high,high,,ISIC_0007257.JPG,,ISIC_0063243.JPG,154,true,hh,keypress(i),100,false,162814.5,162814.30000000075,155965.372,156155.3999999985,155982.047,162648.693,1,16,15,
sequence,flow.Sequence,4_14,2023-11-14T21:59:23.697Z,,,,,,,,,,6832.253000000754,completion,,,,,,,high,high,,,,,,true,,,,false,162814.59999999776,162814.30000000075,155965.372,156155.3999999985,155982.047,162648.693,1,16,,
trial,html.Screen,4_15_0,2023-11-14T21:59:28.262Z,,,,0,-0.8507329774847633,-0.8217011043286423,,true,hh,4730.4069999977655,response,1.0698162624196283,0.9999999999999998,-0.9999999999999998,1.0648460966097275,0.9999999999999998,-0.9999999999999998,high,high,,ISIC_0027402.JPG,,ISIC_0030552.JPG,154,true,hh,keypress(i),100,false,167379.3999999985,167379.09999999776,162632.056,162814.59999999776,162648.693,167215.431,1,16,16,
sequence,flow.Sequence,4_15,2023-11-14T21:59:28.262Z,,,,,,,,,,4730.4069999977655,completion,,,,,,,high,high,,,,,,true,,,,false,167379.59999999776,167379.09999999776,162632.056,162814.59999999776,162648.693,167215.431,1,16,,
demonstration_loop,flow.Loop,4,2023-11-14T21:59:28.262Z,,,,,,,,,,107080.53599999777,completion,,,,,,,,,,,,,,true,,,,false,167379.8999999985,167379.09999999776,60281.918,60493,60298.564,167215.431,1,16,,
practice_instructions,html.Screen,5,2023-11-14T21:59:31.063Z,,,,,,,,,,2964.8690000007336,response,,,,,,,,,,,,,,,continue,click button,,,170180.80000000075,170180.30000000075,167198.686,167380,167215.431,169998.953,,,,
trial,html.Screen,6_0_0,2023-11-14T21:59:36.000Z,,,,1,0.999840720741648,0.9031251164933652,,true,ll,5118.446999998501,response,-0.881950258866775,0.9999999999999998,-0.9999999999999998,-1.1045276933275867,0.9999999999999998,-0.9999999999999998,low,low,,ISIC_0058768.JPG,,ISIC_4718237.JPG,111,true,ll,keypress(f),0,false,175117.69999999925,175117.3999999985,169982.171,170180.8999999985,169998.953,174932.056,1,20,1,
sequence,flow.Sequence,6_0,2023-11-14T21:59:36.000Z,,,,,,,,,,5118.446999998501,completion,,,,,,,low,low,,,,,,true,,,,false,175117.8999999985,175117.3999999985,169982.171,170180.8999999985,169998.953,174932.056,1,20,,
trial,html.Screen,6_1_0,2023-11-14T21:59:42.303Z,,,,1,-0.8049748534131217,-0.8804089534894812,,true,hh,6488.744000000734,response,0.8345681746897251,0.9999999999999998,-0.9999999999999998,1.0727296565951878,0.9999999999999998,-0.9999999999999998,high,high,,ISIC_2839431.JPG,,ISIC_0032531.JPG,154,true,hh,keypress(i),0,false,181421,181420.80000000075,174915.454,175118.09999999776,174932.056,181232.097,1,20,2,
sequence,flow.Sequence,6_1,2023-11-14T21:59:42.304Z,,,,,,,,,,6488.744000000734,completion,,,,,,,high,high,,,,,,true,,,,false,181421.19999999925,181420.80000000075,174915.454,175118.09999999776,174932.056,181232.097,1,20,,
trial,html.Screen,6_2_0,2023-11-14T21:59:45.327Z,,,,1,-1.1890109863264902,0.8867825318561365,,true,hl,3212.703000000736,response,0.9448560599810628,0.9999999999999998,-0.9999999999999998,-0.9099421612683488,0.9999999999999998,-0.9999999999999998,high,low,,ISIC_0072576.JPG,,ISIC_9684318.JPG,24,true,hl,keypress(j),0,false,184444.8999999985,184444.80000000075,181215.157,181421.19999999925,181232.097,184265.581,1,20,3,
sequence,flow.Sequence,6_2,2023-11-14T21:59:45.327Z,,,,,,,,,,3212.703000000736,completion,,,,,,,high,low,,,,,,true,,,,false,184445.09999999776,184444.80000000075,181215.157,181421.19999999925,181232.097,184265.581,1,20,,
trial,html.Screen,6_3_0,2023-11-14T21:59:53.487Z,,,,1,1.0822170028935367,-1.1654796154432183,,true,lh,8339.21900000074,response,-1.1224745971429997,0.9999999999999998,-0.9999999999999998,0.8423270217438888,0.9999999999999998,-0.9999999999999998,low,high,,ISIC_7288818.JPG,,ISIC_0057032.JPG,24,true,lh,keypress(e),0,false,192604.8999999985,192604.80000000075,184248.791,184445.09999999776,184265.581,192415.47,1,20,4,
sequence,flow.Sequence,6_3,2023-11-14T21:59:53.488Z,,,,,,,,,,8339.21900000074,completion,,,,,,,low,high,,,,,,true,,,,false,192605.09999999776,192604.80000000075,184248.791,184445.09999999776,184265.581,192415.47,1,20,,
trial,html.Screen,6_4_0,2023-11-14T21:59:58.495Z,,,,1,-0.9857495243999304,-0.8122595198859229,,true,hh,5197.229999999254,response,0.8617273148568415,0.9999999999999998,-0.9999999999999998,1.1394683921871485,0.9999999999999998,-0.9999999999999998,high,high,,ISIC_5178031.JPG,,ISIC_0000287.JPG,154,true,hh,keypress(i),0,false,197612.80000000075,197612.69999999925,192398.686,192605.19999999925,192415.47,197432.095,1,20,5,
sequence,flow.Sequence,6_4,2023-11-14T21:59:58.495Z,,,,,,,,,,5197.229999999254,completion,,,,,,,high,high,,,,,,true,,,,false,197613,197612.69999999925,192398.686,192605.09999999776,192415.47,197432.095,1,20,,
trial,html.Screen,6_5_0,2023-11-14T22:00:03.047Z,,,,1,0.8628696237203484,0.9684635118197058,,true,ll,4732.705000000744,response,-0.869721192450462,0.9999999999999998,-0.9999999999999998,-0.843152880400445,0.9999999999999998,-0.9999999999999998,low,low,,ISIC_0015132.JPG,,ISIC_0000012.JPG,111,true,ll,keypress(f),0,false,202164.8999999985,202164.80000000075,197415.232,197613.09999999776,197432.095,201982.097,1,20,6,
sequence,flow.Sequence,6_5,2023-11-14T22:00:03.047Z,,,,,,,,,,4732.705000000744,completion,,,,,,,low,low,,,,,,true,,,,false,202165.09999999776,202164.80000000075,197415.232,197613.09999999776,197432.095,201982.097,1,20,,
trial,html.Screen,6_6_0,2023-11-14T22:00:05.679Z,,,,1,-1.1501717278509027,0.8228936373136835,,true,hl,2814.703000000736,response,0.9873794329144926,0.9999999999999998,-0.9999999999999998,-0.9500689037516484,0.9999999999999998,-0.9999999999999998,high,low,,ISIC_8398000.JPG,,ISIC_0013498.JPG,24,true,hl,keypress(j),0,false,204797,204796.80000000075,201965.275,202165.19999999925,201982.097,204615.473,1,20,7,
sequence,flow.Sequence,6_6,2023-11-14T22:00:05.680Z,,,,,,,,,,2814.703000000736,completion,,,,,,,high,low,,,,,,true,,,,false,204797.19999999925,204796.80000000075,201965.275,202165.09999999776,201982.097,204615.473,1,20,,
trial,html.Screen,6_7_0,2023-11-14T22:00:08.400Z,,,,1,1.042408629210669,0.868184396474685,,true,ll,2902.1269999977667,response,-0.9487751044258608,0.9999999999999998,-0.9999999999999998,-0.9230722071334148,0.9999999999999998,-0.9999999999999998,low,low,,ISIC_0026738.JPG,,ISIC_4568084.JPG,111,true,ll,keypress(f),0,false,207517.69999999925,207517.59999999776,204598.753,204797.19999999925,204615.473,207332.148,1,20,8,
sequence,flow.Sequence,6_7,2023-11-14T22:00:08.401Z,,,,,,,,,,2902.1269999977667,completion,,,,,,,low,low,,,,,,true,,,,false,207518.09999999776,207517.59999999776,204598.753,204797.19999999925,204615.473,207332.148,1,20,,
trial,html.Screen,6_8_0,2023-11-14T22:00:12.432Z,,,,1,-0.8409658634318444,-0.8422553783328103,,true,hh,4217.051999999268,response,0.9478344010828824,0.9999999999999998,-0.9999999999999998,1.1218541416084558,0.9999999999999998,-0.9999999999999998,high,high,,ISIC_2731621.JPG,,ISIC_8252406.JPG,154,true,hh,keypress(i),0,false,211549.3999999985,211549.19999999925,207315.382,207518.19999999925,207332.148,211365.585,1,20,9,
sequence,flow.Sequence,6_8,2023-11-14T22:00:12.432Z,,,,,,,,,,4217.051999999268,completion,,,,,,,high,high,,,,,,true,,,,false,211549.59999999776,211549.19999999925,207315.382,207518.19999999925,207332.148,211365.585,1,20,,
trial,html.Screen,6_9_0,2023-11-14T22:00:13.928Z,,,,1,-0.8278249532658066,-0.806779532079123,,true,hh,1679.514999997773,response,0.9464457672695302,0.9999999999999998,-0.9999999999999998,0.8245045690591577,0.9999999999999998,-0.9999999999999998,high,high,,ISIC_4114269.JPG,,ISIC_0027021.JPG,154,true,hh,keypress(i),0,false,213045.30000000075,213045.09999999776,211348.88,211549.69999999925,211365.585,212865.575,1,20,10,
sequence,flow.Sequence,6_9,2023-11-14T22:00:13.928Z,,,,,,,,,,1679.514999997773,completion,,,,,,,high,high,,,,,,true,,,,false,213045.5,213045.09999999776,211348.88,211549.59999999776,211365.585,212865.575,1,20,,
trial,html.Screen,6_10_0,2023-11-14T22:00:15.224Z,,,,1,-0.9116506478817816,-1.0416072379908032,,true,hh,1475.8249999984982,response,1.0048859018073242,0.9999999999999998,-0.9999999999999998,1.0825120442937108,0.9999999999999998,-0.9999999999999998,high,high,,ISIC_3273370.JPG,,ISIC_0068080.JPG,154,true,hh,keypress(i),0,false,214341.59999999776,214341.3999999985,212848.894,213045.59999999776,212865.575,214148.786,1,20,11,
sequence,flow.Sequence,6_10,2023-11-14T22:00:15.224Z,,,,,,,,,,1475.8249999984982,completion,,,,,,,high,high,,,,,,true,,,,false,214342,214341.3999999985,212848.894,213045.59999999776,212865.575,214148.786,1,20,,
trial,html.Screen,6_11_0,2023-11-14T22:00:16.336Z,,,,1,-0.8152354890677903,1.10470584815077,,true,hl,1304.613999998517,response,1.1592423187534993,0.9999999999999998,-0.9999999999999998,-1.067128884093211,0.9999999999999998,-0.9999999999999998,high,low,,ISIC_0010283.JPG,,ISIC_6854940.JPG,24,true,hl,keypress(j),0,false,215453.59999999776,215453.3999999985,214132.324,214342.19999999925,214148.786,215265.508,1,20,12,
sequence,flow.Sequence,6_11,2023-11-14T22:00:16.336Z,,,,,,,,,,1304.613999998517,completion,,,,,,,high,low,,,,,,true,,,,false,215453.8999999985,215453.3999999985,214132.324,214342.09999999776,214148.786,215265.508,1,20,,
trial,html.Screen,6_12_0,2023-11-14T22:00:17.376Z,,,,1,0.8057040901302144,0.8481278654022556,,true,ll,1227.8919999985083,response,-0.9487751044258608,0.9999999999999998,-0.9999999999999998,-0.9230722071334148,0.9999999999999998,-0.9999999999999998,low,low,,ISIC_0014366.JPG,,ISIC_4568084.JPG,111,true,ll,keypress(f),0,false,216493.59999999776,216493.3999999985,215248.916,215454.09999999776,215265.508,216298.82,1,20,13,
sequence,flow.Sequence,6_12,2023-11-14T22:00:17.376Z,,,,,,,,,,1227.8919999985083,completion,,,,,,,low,low,,,,,,true,,,,false,216493.8999999985,216493.3999999985,215248.916,215454.09999999776,215265.508,216298.82,1,20,,
trial,html.Screen,6_13_0,2023-11-14T22:00:18.992Z,,,,1,1.1547137855907486,-1.0185275168641534,,true,lh,1810.480000000738,response,-0.8069562753553525,0.9999999999999998,-0.9999999999999998,0.9101764190105358,0.9999999999999998,-0.9999999999999998,low,high,,ISIC_7604870.JPG,,ISIC_0046596.JPG,24,true,lh,keypress(e),0,false,218109.5,218109.30000000075,216282.275,216494,216298.82,217933.312,1,20,14,
sequence,flow.Sequence,6_13,2023-11-14T22:00:18.993Z,,,,,,,,,,1810.480000000738,completion,,,,,,,low,high,,,,,,true,,,,false,218110,218109.30000000075,216282.275,216494,216298.82,217933.312,1,20,,
trial,html.Screen,6_14_0,2023-11-14T22:00:20.528Z,,,,1,1.0264463986917702,-1.171271535505083,,true,lh,1711.5879999985045,response,-0.9039158082670506,0.9999999999999998,-0.9999999999999998,1.0517562064343149,0.9999999999999998,-0.9999999999999998,low,high,,ISIC_7889838.JPG,,ISIC_0015411.JPG,24,true,lh,keypress(e),0,false,219645.09999999776,219644.8999999985,217898.944,218110.09999999776,217933.312,219465.688,1,20,15,
sequence,flow.Sequence,6_14,2023-11-14T22:00:20.528Z,,,,,,,,,,1711.5879999985045,completion,,,,,,,low,high,,,,,,true,,,,false,219645.19999999925,219644.8999999985,217898.944,218110,217933.312,219465.688,1,20,,
trial,html.Screen,6_15_0,2023-11-14T22:00:21.816Z,,,,1,1.1547137855907486,-1.0185275168641534,,true,lh,1467.8120000000054,response,-0.849847885203758,0.9999999999999998,-0.9999999999999998,0.973447384095442,0.9999999999999998,-0.9999999999999998,low,high,,ISIC_7604870.JPG,,ISIC_9612228.JPG,24,true,lh,keypress(e),0,false,220933.69999999925,220933.5,219448.849,219645.3999999985,219465.688,220748.864,1,20,16,
sequence,flow.Sequence,6_15,2023-11-14T22:00:21.817Z,,,,,,,,,,1467.8120000000054,completion,,,,,,,low,high,,,,,,true,,,,false,220934.09999999776,220933.5,219448.849,219645.3999999985,219465.688,220748.864,1,20,,
trial,html.Screen,6_16_0,2023-11-14T22:00:23.128Z,,,,1,0.8015753713975186,-1.0067065355978264,,true,lh,1496.4360000007437,response,-0.8129823105338526,0.9999999999999998,-0.9999999999999998,0.9655386457143784,0.9999999999999998,-0.9999999999999998,low,high,,ISIC_0002119.JPG,,ISIC_8268025.JPG,24,true,lh,keypress(e),0,false,222245.3999999985,222245.30000000075,220732.359,220934.19999999925,220748.864,222065.582,1,20,17,
sequence,flow.Sequence,6_16,2023-11-14T22:00:23.128Z,,,,,,,,,,1496.4360000007437,completion,,,,,,,low,high,,,,,,true,,,,false,222245.69999999925,222245.30000000075,220732.359,220934.19999999925,220748.864,222065.582,1,20,,
trial,html.Screen,6_17_0,2023-11-14T22:00:24.432Z,,,,1,0.8125930874051923,0.9001696721297474,,true,ll,1483.317999998515,response,-1.1581797104086708,0.9999999999999998,-0.9999999999999998,-0.8335188945351617,0.9999999999999998,-0.9999999999999998,low,low,,ISIC_0072748.JPG,,ISIC_4168757.JPG,111,true,ll,keypress(f),0,false,223549,223548.8999999985,222048.911,222245.80000000075,222065.582,223365.698,1,20,18,
sequence,flow.Sequence,6_17,2023-11-14T22:00:24.432Z,,,,,,,,,,1483.317999998515,completion,,,,,,,low,low,,,,,,true,,,,false,223549.19999999925,223548.8999999985,222048.911,222245.80000000075,222065.582,223365.698,1,20,,
trial,html.Screen,6_18_0,2023-11-14T22:00:25.744Z,,,,1,-0.8779374983479176,0.9745548032823428,,true,hl,1495.301999999996,response,0.9212323139676136,0.9999999999999998,-0.9999999999999998,-0.9882196642247332,0.9999999999999998,-0.9999999999999998,high,low,,ISIC_2991354.JPG,,ISIC_0014255.JPG,24,true,hl,keypress(j),0,false,224861.09999999776,224861,223348.973,223549.30000000075,223365.698,224682.28,1,20,19,
sequence,flow.Sequence,6_18,2023-11-14T22:00:25.744Z,,,,,,,,,,1495.301999999996,completion,,,,,,,high,low,,,,,,true,,,,false,224861.30000000075,224861,223348.973,223549.30000000075,223365.698,224682.28,1,20,,
trial,html.Screen,6_19_0,2023-11-14T22:00:30.849Z,,,,1,-0.8069562753553525,0.9101764190105358,,true,hl,5283.419999999256,response,0.8407642478899736,0.9999999999999998,-0.9999999999999998,-0.9542322753334054,0.9999999999999998,-0.9999999999999998,high,low,,ISIC_0046596.JPG,,ISIC_9090822.JPG,24,true,hl,keypress(j),0,false,229966,229965.69999999925,224665.581,224861.30000000075,224682.28,229782.177,1,20,20,
sequence,flow.Sequence,6_19,2023-11-14T22:00:30.849Z,,,,,,,,,,5283.419999999256,completion,,,,,,,high,low,,,,,,true,,,,false,229966.30000000075,229965.69999999925,224665.581,224861.30000000075,224682.28,229782.177,1,20,,
practice_loop,flow.Loop,6,2023-11-14T22:00:30.849Z,,,,,,,,,,59966.746999999246,completion,,,,,,,,,,,,,,true,,,,false,229966.5,229965.69999999925,169982.171,170180.80000000075,169998.953,229782.177,1,20,,
stair_instructions,html.Screen,7,2023-11-14T22:00:32.848Z,,,,,,,,,,2182.123000000749,response,,,,,,,,,,,,,,,continue,click button,,,231964.8999999985,231964.30000000075,229765.396,229966.69999999925,229782.177,231798.959,,,,
trial,html.Screen,8_0_0,2023-11-14T22:00:42.672Z,,,,2,-0.0063515208248796,-0.0194177605767913,,false,ll,9990.040999999997,response,-0.8329154010765664,0.9999999999999998,-0.9999999999999998,-1.086658647698992,0.9999999999999998,-0.9999999999999998,low,low,,ISIC_5281908.JPG,,ISIC_7407847.JPG,111,false,lh,keypress(e),0,true,241789.09999999776,241789,231782.281,231965.09999999776,231798.959,241598.811,1,40,1,
sequence,flow.Sequence,8_0,2023-11-14T22:00:42.672Z,,,,,,,,,,9990.040999999997,completion,,,,,,,low,low,,,,,,false,,,,true,241789.30000000075,241789,231782.281,231965,231798.959,241598.811,1,40,,
trial,html.Screen,8_1_0,2023-11-14T22:00:53.017Z,,,,2,-0.0361875505619981,0.0291457404567876,,false,ll,10535.189000000013,response,-0.8579451262594331,0.9499999999999997,-0.9999999999999998,-0.8472659344792351,0.9499999999999997,-0.9999999999999998,low,low,,ISIC_0027480.JPG,,ISIC_0067172.JPG,111,false,hh,keypress(i),0,true,252134.19999999925,252134,241581.961,241789.30000000075,241598.811,251948.894,1,40,2,
sequence,flow.Sequence,8_1,2023-11-14T22:00:53.017Z,,,,,,,,,,10535.189000000013,completion,,,,,,,low,low,,,,,,false,,,,true,252134.59999999776,252134,241581.961,241789.30000000075,241598.811,251948.894,1,40,,
trial,html.Screen,8_2_0,2023-11-14T22:01:03.888Z,,,,2,-0.0207120852539861,-0.0589023744433183,,,,10866.678999999975,timeout,1.0048859018073242,0.8999999999999997,-0.9999999999999998,1.0825120442937108,0.8999999999999997,-0.9999999999999998,high,high,,ISIC_7973601.JPG,,ISIC_0068080.JPG,197,false,,,0,true,263005,263004.8999999985,251932.009,252134.80000000075,251948.894,262815.573,1,40,3,
sequence,flow.Sequence,8_2,2023-11-14T22:01:03.888Z,,,,,,,,,,11056.00599999851,completion,,,,,,,high,high,,,,,,false,,,,true,263005.19999999925,263004.8999999985,251932.009,252134.80000000075,251948.894,262815.573,1,40,,
trial,html.Screen,8_3_0,2023-11-14T22:01:06.840Z,,,,2,0.040352316356354,0.0039626669358928,,true,hl,3141.826999998535,response,0.7622326985614671,0.8999999999999997,-0.9999999999999998,-1.1077754321509423,0.8999999999999997,-0.9999999999999998,high,low,,ISIC_3018550.JPG,,ISIC_4548995.JPG,35,false,hl,keypress(j),0,true,265957.59999999776,265957.3999999985,262798.787,263005.19999999925,262815.573,265765.493,1,40,4,
sequence,flow.Sequence,8_3,2023-11-14T22:01:06.841Z,,,,,,,,,,3141.826999998535,completion,,,,,,,high,low,,,,,,false,,,,true,265957.80000000075,265957.3999999985,262798.787,263005.19999999925,262815.573,265765.493,1,40,,
trial,html.Screen,8_4_0,2023-11-14T22:01:12.464Z,,,,2,0.0402606077562393,-0.0233871780024155,,true,lh,5815.206999999238,response,-1.1162273456306029,0.8499999999999996,-0.9499999999999997,0.7890271955816722,0.8499999999999996,-0.9499999999999997,low,high,,ISIC_0024401.JPG,,ISIC_0011564.JPG,43,false,lh,keypress(e),0,true,271580.80000000075,271580.69999999925,265748.825,265957.8999999985,265765.493,271398.839,1,40,5,
sequence,flow.Sequence,8_4,2023-11-14T22:01:12.464Z,,,,,,,,,,5815.206999999238,completion,,,,,,,low,high,,,,,,false,,,,true,271580.8999999985,271580.69999999925,265748.825,265957.8999999985,265765.493,271398.839,1,40,,
trial,html.Screen,8_5_0,2023-11-14T22:01:18.633Z,,,,2,0.0060918352854008,-0.029032683404407,,true,lh,6350.961000000767,response,-0.8069562753553525,0.7999999999999996,-0.8999999999999997,0.9101764190105358,0.7999999999999996,-0.8999999999999997,low,high,,ISIC_8436194.JPG,,ISIC_0046596.JPG,55,false,lh,keypress(e),0,true,277750,277749.80000000075,271381.995,271581.09999999776,271398.839,277565.519,1,40,6,
sequence,flow.Sequence,8_5,2023-11-14T22:01:18.633Z,,,,,,,,,,6350.961000000767,completion,,,,,,,low,high,,,,,,false,,,,true,277750.30000000075,277749.80000000075,271381.995,271581.09999999776,271398.839,277565.519,1,40,,
trial,html.Screen,8_6_0,2023-11-14T22:01:27.665Z,,,,2,0.0060934073440827,0.0279108145883031,,false,lh,9216.180999999284,response,-0.72754684739632,0.7499999999999996,-0.8615918104929776,0.840335750071074,0.7496018072961039,-0.8499999999999996,low,high,,ISIC_0032604.JPG,,ISIC_2936321.JPG,72,false,ll,keypress(f),0,true,286782,286781.69999999925,277548.82,277750.5,277565.519,286598.871,1,40,7,
sequence,flow.Sequence,8_6,2023-11-14T22:01:27.666Z,,,,,,,,,,9216.180999999284,completion,,,,,,,low,high,,,,,,false,,,,true,286782.30000000075,286781.69999999925,277548.82,277750.5,277565.519,286598.871,1,40,,
trial,html.Screen,8_7_0,2023-11-14T22:01:33.257Z,,,,2,0.0060934073440827,0.0279108145883031,,true,ll,5774.42900000076,response,-0.69668507874824,0.6999999999999995,-0.8615918104929776,-0.7957634739543782,0.7496018072961039,-0.7999999999999996,low,low,,ISIC_0032604.JPG,,ISIC_0006327.JPG,217,false,ll,keypress(f),0,true,292373.3999999985,292373.30000000075,286581.986,286782.5,286598.871,292182.192,1,40,8,
sequence,flow.Sequence,8_7,2023-11-14T22:01:33.257Z,,,,,,,,,,5774.42900000076,completion,,,,,,,low,low,,,,,,false,,,,true,292373.59999999776,292373.30000000075,286581.986,286782.3999999985,286598.871,292182.192,1,40,,
trial,html.Screen,8_8_0,2023-11-14T22:01:34.600Z,,,,2,-0.0514357258480358,-0.006520984995476,,false,ll,1534.808000000019,response,-0.5959199716061077,0.6499999999999995,-0.6121159630722799,-0.7410663956877593,0.6996018072961039,-0.8517694530526602,low,low,,ISIC_0031386.JPG,,ISIC_0063053.JPG,261,false,hh,keypress(i),0,true,293717.19999999925,293717,292165.365,292373.59999999776,292182.192,293532.435,1,40,9,
sequence,flow.Sequence,8_8,2023-11-14T22:01:34.601Z,,,,,,,,,,1534.808000000019,completion,,,,,,,low,low,,,,,,false,,,,true,293717.3999999985,293717,292165.365,292373.59999999776,292182.192,293532.435,1,40,,
trial,html.Screen,8_9_0,2023-11-14T22:01:45.469Z,,,,2,-0.0327772618698018,0.0056908372048728,,,,10866.481000000029,timeout,-0.6035536417288829,0.5999999999999994,-0.6121159630722799,0.6858568404349826,0.6496018072961038,-0.8517694530526602,low,high,,ISIC_7897925.JPG,,ISIC_0059368.JPG,180,false,,,0,true,304585.69999999925,304585.5,293515.518,293717.3999999985,293532.435,304398.916,1,40,10,
sequence,flow.Sequence,8_9,2023-11-14T22:01:45.469Z,,,,,,,,,,11053.065000000002,completion,,,,,,,low,high,,,,,,false,,,,true,304586.09999999776,304585.5,293515.518,293717.3999999985,293532.435,304398.916,1,40,,
trial,html.Screen,8_10_0,2023-11-14T22:01:52.496Z,,,,2,0.0458738008498492,0.0084690422621415,,false,lh,7213.683999997738,response,-0.6709863678802651,0.5999999999999994,-0.6121159630722799,0.4721403639913182,0.6496018072961038,-0.8517694530526602,low,high,,ISIC_4026019.JPG,,ISIC_2528656.JPG,180,false,ll,keypress(f),0,true,311612.69999999925,311612.59999999776,304382.49,304586.09999999776,304398.916,311432.262,1,40,11,
sequence,flow.Sequence,8_10,2023-11-14T22:01:52.496Z,,,,,,,,,,7213.683999997738,completion,,,,,,,low,high,,,,,,false,,,,true,311612.80000000075,311612.59999999776,304382.49,304586.09999999776,304398.916,311432.262,1,40,,
trial,html.Screen,8_11_0,2023-11-14T22:01:55.984Z,,,,2,-0.0686816131231518,0.0045217849100701,,true,ll,3668.538000000757,response,-0.4696581748271256,0.5499999999999994,-0.6121159630722799,-0.6165719008309399,0.6496018072961038,-0.8017694530526601,low,low,,ISIC_5707761.JPG,,ISIC_3503213.JPG,293,false,ll,keypress(f),0,true,315100.8999999985,315100.80000000075,311415.439,311612.80000000075,311432.262,314915.605,1,40,12,
sequence,flow.Sequence,8_11,2023-11-14T22:01:55.984Z,,,,,,,,,,3668.538000000757,completion,,,,,,,low,low,,,,,,false,,,,true,315101.09999999776,315100.80000000075,311415.439,311612.80000000075,311432.262,314915.605,1,40,,
trial,html.Screen,8_12_0,2023-11-14T22:02:00.545Z,,,,2,0.0377791839943904,-0.0227626648172468,,true,lh,4746.2949999985285,response,-0.4334718177173351,0.4999999999999994,-0.47032227135369525,0.7496849717712808,0.5996018072961038,-0.7517694530526601,low,high,,ISIC_7167479.JPG,,ISIC_9939963.JPG,241,false,lh,keypress(e),0,true,319662.09999999776,319661.8999999985,314898.786,315101.09999999776,314915.605,319482.493,1,40,13,
sequence,flow.Sequence,8_12,2023-11-14T22:02:00.546Z,,,,,,,,,,4746.2949999985285,completion,,,,,,,low,high,,,,,,false,,,,true,319662.5,319661.8999999985,314898.786,315101.09999999776,314915.605,319482.493,1,40,,
trial,html.Screen,8_13_0,2023-11-14T22:02:07.432Z,,,,2,-0.0658524437333868,0.0334357178485904,,false,lh,7066.606999997748,response,-0.3382097412651458,0.4999999999999994,-0.47032227135369525,0.7222419483110494,0.5496018072961038,-0.70176945305266,low,high,,ISIC_8015541.JPG,,ISIC_0420249.JPG,257,false,hh,keypress(i),0,true,326549.19999999925,326549.09999999776,319465.476,319662.69999999925,319482.493,326365.648,1,40,14,
sequence,flow.Sequence,8_13,2023-11-14T22:02:07.433Z,,,,,,,,,,7066.606999997748,completion,,,,,,,low,high,,,,,,false,,,,true,326549.30000000075,326549.09999999776,319465.476,319662.59999999776,319482.493,326365.648,1,40,,
trial,html.Screen,8_14_0,2023-11-14T22:02:12.545Z,,,,2,-0.0207120852539861,-0.0589023744433183,,false,lh,5295.951999997778,response,-0.305676552345838,0.4999999999999994,-0.47032227135369525,0.4370899681326721,0.5496018072961038,-0.65176945305266,low,high,,ISIC_7973601.JPG,,ISIC_4527661.JPG,257,false,hl,keypress(j),0,true,331661.8999999985,331661.59999999776,326348.811,326549.30000000075,326365.648,331482.298,1,40,15,
sequence,flow.Sequence,8_14,2023-11-14T22:02:12.545Z,,,,,,,,,,5295.951999997778,completion,,,,,,,low,high,,,,,,false,,,,true,331662.19999999925,331661.59999999776,326348.811,326549.30000000075,326365.648,331482.298,1,40,,
trial,html.Screen,8_15_0,2023-11-14T22:02:20.473Z,,,,2,0.021811393859175,-0.0534678805668419,,true,hh,8107.301999997755,response,0.3409330855901116,0.4999999999999994,-0.47032227135369525,0.5887274500198264,0.5496018072961038,-0.6017694530526599,high,high,,ISIC_0058054.JPG,,ISIC_0067564.JPG,350,false,hh,keypress(i),0,true,339589.80000000075,339589.59999999776,331465.635,331662.3999999985,331482.298,339398.967,1,40,16,
sequence,flow.Sequence,8_15,2023-11-14T22:02:20.474Z,,,,,,,,,,8107.301999997755,completion,,,,,,,high,high,,,,,,false,,,,true,339590.09999999776,339589.59999999776,331465.635,331662.30000000075,331482.298,339398.967,1,40,,
trial,html.Screen,8_16_0,2023-11-14T22:02:24.913Z,,,,2,0.0480684603309257,-0.0620119776873313,,false,hh,4630.032999999996,response,0.5761048106635854,0.45158289207578933,-0.47032227135369525,0.6731232186734267,0.49960180729610376,-0.5517694530526599,high,high,,ISIC_0645834.JPG,,ISIC_6666329.JPG,375,false,ll,keypress(f),0,true,344029.09999999776,344029,339382.079,339590.30000000075,339398.967,343849.169,1,40,17,
sequence,flow.Sequence,8_16,2023-11-14T22:02:24.913Z,,,,,,,,,,4630.032999999996,completion,,,,,,,high,high,,,,,,false,,,,true,344029.30000000075,344029,339382.079,339590.19999999925,339398.967,343849.169,1,40,,
trial,html.Screen,8_17_0,2023-11-14T22:02:27.417Z,,,,2,-0.0187970165493076,-0.0417726918052949,,false,hh,2683.9309999977704,response,0.567192431978229,0.45158289207578933,-0.47032227135369525,0.5129158902408072,0.49960180729610376,-0.5017694530526599,high,high,,ISIC_9312164.JPG,,ISIC_7482149.JPG,375,false,ll,keypress(f),0,true,346533.30000000075,346533.09999999776,343832.127,344029.3999999985,343849.169,346349.101,1,40,18,
sequence,flow.Sequence,8_17,2023-11-14T22:02:27.417Z,,,,,,,,,,2683.9309999977704,completion,,,,,,,high,high,,,,,,false,,,,true,346533.30000000075,346533.09999999776,343832.127,344029.3999999985,343849.169,346349.101,1,40,,
trial,html.Screen,8_18_0,2023-11-14T22:02:34.433Z,,,,2,0.0742149355137113,0.0423516069066019,,false,hl,7199.798999998486,response,0.3124400079180958,0.45158289207578933,-0.47032227135369525,-0.5166911631873476,0.49960180729610376,-0.45176945305265986,high,low,,ISIC_0011483.JPG,,ISIC_0033090.JPG,315,false,lh,keypress(e),0,true,353549,353548.8999999985,346332.399,346533.3999999985,346349.101,353365.653,1,40,19,
sequence,flow.Sequence,8_18,2023-11-14T22:02:34.433Z,,,,,,,,,,7199.798999998486,completion,,,,,,,high,low,,,,,,false,,,,true,353549.09999999776,353548.8999999985,346332.399,346533.3999999985,346349.101,353365.653,1,40,,
trial,html.Screen,8_19_0,2023-11-14T22:02:40.233Z,,,,2,0.0023664502831079,0.0252784582169994,,false,hh,5983.746999998519,response,0.2818071851367537,0.45158289207578933,-0.47032227135369525,0.3251295551698895,0.49960180729610376,-0.45176945305265986,high,high,,ISIC_4156010.JPG,,ISIC_0010883.JPG,375,false,hl,keypress(j),0,true,359349.69999999925,359349.3999999985,353348.708,353549.19999999925,353365.653,359165.787,1,40,20,
sequence,flow.Sequence,8_19,2023-11-14T22:02:40.233Z,,,,,,,,,,5983.746999998519,completion,,,,,,,high,high,,,,,,false,,,,true,359349.8999999985,359349.3999999985,353348.708,353549.09999999776,353365.653,359165.787,1,40,,
trial,html.Screen,8_20_0,2023-11-14T22:02:43.488Z,,,,2,-0.0327772618698018,0.0056908372048728,,false,lh,3439.013000000734,response,-0.3603004145108643,0.45158289207578933,-0.47032227135369525,0.3341342898402497,0.49960180729610376,-0.45176945305265986,low,high,,ISIC_7897925.JPG,,ISIC_0058428.JPG,282,false,hl,keypress(j),0,true,362604.8999999985,362604.80000000075,359149.019,359350.09999999776,359165.787,362415.761,1,40,21,
sequence,flow.Sequence,8_20,2023-11-14T22:02:43.489Z,,,,,,,,,,3439.013000000734,completion,,,,,,,low,high,,,,,,false,,,,true,362605.09999999776,362604.80000000075,359149.019,359349.8999999985,359165.787,362415.761,1,40,,
trial,html.Screen,8_21_0,2023-11-14T22:02:46.905Z,,,,2,0.012020985739544,-0.0126097407389903,,false,ll,3605.4389999992563,response,-0.5934203635352386,0.45158289207578933,-0.47032227135369525,-0.6061921837464551,0.49960180729610376,-0.45176945305265986,low,low,,ISIC_0069379.JPG,,ISIC_9175856.JPG,477,false,hl,keypress(j),0,true,366021.3999999985,366021.19999999925,362399.101,362605.19999999925,362415.761,365832.282,1,40,22,
sequence,flow.Sequence,8_21,2023-11-14T22:02:46.905Z,,,,,,,,,,3605.4389999992563,completion,,,,,,,low,low,,,,,,false,,,,true,366021.59999999776,366021.19999999925,362399.101,362605.09999999776,362415.761,365832.282,1,40,,
trial,html.Screen,8_22_0,2023-11-14T22:02:49.777Z,,,,2,0.0060934073440827,0.0279108145883031,,true,hl,3061.3179999977583,response,0.385946165722195,0.45158289207578933,-0.47032227135369525,-0.3181466574760851,0.49960180729610376,-0.45176945305265986,high,low,,ISIC_0032604.JPG,,ISIC_9918523.JPG,315,false,hl,keypress(j),0,true,368893.80000000075,368893.59999999776,365815.592,366021.69999999925,365832.282,368732.566,1,40,23,
sequence,flow.Sequence,8_22,2023-11-14T22:02:49.778Z,,,,,,,,,,3061.3179999977583,completion,,,,,,,high,low,,,,,,false,,,,true,368894.19999999925,368893.59999999776,365815.592,366021.69999999925,365832.282,368732.566,1,40,,
trial,html.Screen,8_23_0,2023-11-14T22:02:51.664Z,,,,2,-0.0500182837729639,0.0231316228640781,,false,hh,2048.3339999985183,response,0.309460662064525,0.40158289207578934,-0.47032227135369525,0.3478582162317762,0.49960180729610376,-0.4017694530526599,high,high,,ISIC_2246150.JPG,,ISIC_1471329.JPG,375,false,ll,keypress(f),0,true,370780.8999999985,370780.8999999985,368715.659,368894.3999999985,368732.566,370599.216,1,40,24,
sequence,flow.Sequence,8_23,2023-11-14T22:02:51.665Z,,,,,,,,,,2048.3339999985183,completion,,,,,,,high,high,,,,,,false,,,,true,370781,370780.8999999985,368715.659,368894.3999999985,368732.566,370599.216,1,40,,
trial,html.Screen,8_24_0,2023-11-14T22:02:52.945Z,,,,2,-0.0311884318403233,0.0697810882761999,,false,ll,1461.88399999775,response,-0.4220025075292323,0.45158289207578933,-0.47032227135369525,-0.5462362540427637,0.49960180729610376,-0.4017694530526599,low,low,,ISIC_4870676.JPG,,ISIC_9933790.JPG,466,false,hl,keypress(j),0,true,372061.19999999925,372061.09999999776,370582.264,370781.19999999925,370599.216,371882.576,1,40,25,
sequence,flow.Sequence,8_24,2023-11-14T22:02:52.945Z,,,,,,,,,,1461.88399999775,completion,,,,,,,low,low,,,,,,false,,,,true,372061.3999999985,372061.09999999776,370582.264,370781,370599.216,371882.576,1,40,,
trial,html.Screen,8_25_0,2023-11-14T22:02:54.153Z,,,,2,0.0339906816361373,0.0603913124071272,,false,hl,1386.823999998509,response,0.2952274261140244,0.45158289207578933,-0.47032227135369525,-0.4184387359414481,0.49960180729610376,-0.45176945305265986,high,low,,ISIC_1258763.JPG,,ISIC_0063258.JPG,315,false,ll,keypress(f),0,true,373269.59999999776,373269.3999999985,371865.666,372061.3999999985,371882.576,373082.317,1,40,26,
sequence,flow.Sequence,8_25,2023-11-14T22:02:54.153Z,,,,,,,,,,1386.823999998509,completion,,,,,,,high,low,,,,,,false,,,,true,373269.8999999985,373269.3999999985,371865.666,372061.3999999985,371882.576,373082.317,1,40,,
trial,html.Screen,8_26_0,2023-11-14T22:02:55.209Z,,,,2,0.0572318562475973,0.0328299593216012,,false,ll,1242.683000000019,response,-0.3343209465797379,0.45158289207578933,-0.47032227135369525,-0.269676035947273,0.49960180729610376,-0.45176945305265986,low,low,,ISIC_0397464.JPG,,ISIC_7215375.JPG,477,false,hl,keypress(j),0,true,374325.19999999925,374325,373065.63,373270.09999999776,373082.317,374148.971,1,40,27,
sequence,flow.Sequence,8_26,2023-11-14T22:02:55.209Z,,,,,,,,,,1242.683000000019,completion,,,,,,,low,low,,,,,,false,,,,true,374325.3999999985,374325,373065.63,373270.09999999776,373082.317,374148.971,1,40,,
trial,html.Screen,8_27_0,2023-11-14T22:02:56.537Z,,,,2,-0.0683185670328473,-0.0092332028949561,,false,hl,1504.5289999999804,response,0.4981422742910325,0.45158289207578933,-0.47032227135369525,-0.2682617322365966,0.49960180729610376,-0.45176945305265986,high,low,,ISIC_3652847.JPG,,ISIC_0028666.JPG,315,false,ll,keypress(f),0,true,375653.69999999925,375653.5,374132.358,374325.5,374148.971,375465.709,1,40,28,
sequence,flow.Sequence,8_27,2023-11-14T22:02:56.538Z,,,,,,,,,,1504.5289999999804,completion,,,,,,,high,low,,,,,,false,,,,true,375654.09999999776,375653.5,374132.358,374325.3999999985,374148.971,375465.709,1,40,,
trial,html.Screen,8_28_0,2023-11-14T22:02:57.577Z,,,,2,-0.010035581303589,0.0100711721396864,,false,hl,1227.1909999985364,response,0.3321856740378427,0.45158289207578933,-0.47032227135369525,-0.6059555077136856,0.49960180729610376,-0.45176945305265986,high,low,,ISIC_0030592.JPG,,ISIC_0056534.JPG,315,false,ll,keypress(f),0,true,376693.09999999776,376692.8999999985,375449.001,375654.30000000075,375465.709,376498.992,1,40,29,
sequence,flow.Sequence,8_28,2023-11-14T22:02:57.577Z,,,,,,,,,,1227.1909999985364,completion,,,,,,,high,low,,,,,,false,,,,true,376693.19999999925,376692.8999999985,375449.001,375654.19999999925,375465.709,376498.992,1,40,,
trial,html.Screen,8_29_0,2023-11-14T22:02:58.824Z,,,,2,0.0534676262527691,0.0384996820289673,,true,hh,1441.7079999992275,response,0.5761048106635854,0.45158289207578933,-0.47032227135369525,0.6731232186734267,0.49960180729610376,-0.45176945305265986,high,high,,ISIC_0030484.JPG,,ISIC_6666329.JPG,375,false,hh,keypress(i),0,true,377940.80000000075,377940.69999999925,376482.265,376693.19999999925,376498.992,377748.983,1,40,30,
sequence,flow.Sequence,8_29,2023-11-14T22:02:58.824Z,,,,,,,,,,1441.7079999992275,completion,,,,,,,high,high,,,,,,false,,,,true,377940.8999999985,377940.69999999925,376482.265,376693.19999999925,376498.992,377748.983,1,40,,
trial,html.Screen,8_30_0,2023-11-14T22:03:00.193Z,,,,2,0.0339906816361373,0.0603913124071272,,false,hl,1560.0169999999925,response,0.4722666895990076,0.45158289207578933,-0.47032227135369525,-0.3644823148878497,0.49960180729610376,-0.45176945305265986,high,low,,ISIC_1258763.JPG,,ISIC_0031357.JPG,315,false,hh,keypress(i),0,true,379309.09999999776,379309,377732.335,377941,377748.983,379115.675,1,40,31,
sequence,flow.Sequence,8_30,2023-11-14T22:03:00.193Z,,,,,,,,,,1560.0169999999925,completion,,,,,,,high,low,,,,,,false,,,,true,379309.30000000075,379309,377732.335,377941,377748.983,379115.675,1,40,,
trial,html.Screen,8_31_0,2023-11-14T22:03:01.465Z,,,,2,-0.0199897690678184,-0.0312486875504497,,false,ll,1465.2249999985215,response,-0.5533914533585675,0.45158289207578933,-0.47032227135369525,-0.5938931940007941,0.49960180729610376,-0.45176945305265986,low,low,,ISIC_5482426.JPG,,ISIC_0016112.JPG,477,false,hh,keypress(i),0,true,380581,380580.8999999985,379099.009,379309.30000000075,379115.675,380399.228,1,40,32,
sequence,flow.Sequence,8_31,2023-11-14T22:03:01.465Z,,,,,,,,,,1465.2249999985215,completion,,,,,,,low,low,,,,,,false,,,,true,380581.19999999925,380580.8999999985,379099.009,379309.30000000075,379115.675,380399.228,1,40,,
trial,html.Screen,8_32_0,2023-11-14T22:03:02.785Z,,,,2,-0.0729466326865927,0.0055109446314237,,false,hl,1501.7719999999972,response,0.4025923366969421,0.45158289207578933,-0.47032227135369525,-0.2785762452092483,0.49960180729610376,-0.45176945305265986,high,low,,ISIC_0032597.JPG,,ISIC_0056413.JPG,315,false,lh,keypress(e),0,true,381901.09999999776,381901,380382.444,380581.30000000075,380399.228,381715.679,1,40,33,
sequence,flow.Sequence,8_32,2023-11-14T22:03:02.785Z,,,,,,,,,,1501.7719999999972,completion,,,,,,,high,low,,,,,,false,,,,true,381901.3999999985,381901,380382.444,380581.30000000075,380399.228,381715.679,1,40,,
trial,html.Screen,8_33_0,2023-11-14T22:03:04.057Z,,,,2,-0.0488365673064833,0.0229344142397166,,true,hl,1457.420999997761,response,0.3345244660673361,0.45158289207578933,-0.47032227135369525,-0.3624711207984746,0.49960180729610376,-0.45176945305265986,high,low,,ISIC_0056915.JPG,,ISIC_2337786.JPG,315,false,hl,keypress(j),0,true,383173.30000000075,383173.09999999776,381699.205,381901.3999999985,381715.679,382982.334,1,40,34,
sequence,flow.Sequence,8_33,2023-11-14T22:03:04.057Z,,,,,,,,,,1457.420999997761,completion,,,,,,,high,low,,,,,,false,,,,true,383173.5,383173.09999999776,381699.205,381901.3999999985,381715.679,382982.334,1,40,,
trial,html.Screen,8_34_0,2023-11-14T22:03:05.337Z,,,,2,-0.0367218428225813,0.0026956749740767,,true,ll,1471.1660000000265,response,-0.5203930896428605,0.45158289207578933,-0.47032227135369525,-0.3640170006693908,0.49960180729610376,-0.45176945305265986,low,low,,ISIC_7212271.JPG,,ISIC_6882733.JPG,477,false,ll,keypress(f),0,true,384453.69999999925,384453.5,382965.858,383173.59999999776,382982.334,384265.779,1,40,35,
sequence,flow.Sequence,8_34,2023-11-14T22:03:05.338Z,,,,,,,,,,1471.1660000000265,completion,,,,,,,low,low,,,,,,false,,,,true,384454,384453.5,382965.858,383173.59999999776,382982.334,384265.779,1,40,,
trial,html.Screen,8_35_0,2023-11-14T22:03:06.538Z,,,,2,0.0700745968706567,0.013891147856594,,true,hh,1388.2210000000196,response,0.2578901017964062,0.45158289207578933,-0.47032227135369525,0.6873680291551512,0.49960180729610376,-0.4017694530526599,high,high,,ISIC_0054663.JPG,,ISIC_0029478.JPG,375,false,hh,keypress(i),0,true,385654.30000000075,385654,384249.199,384454.09999999776,384265.779,385465.749,1,40,36,
sequence,flow.Sequence,8_35,2023-11-14T22:03:06.538Z,,,,,,,,,,1388.2210000000196,completion,,,,,,,high,high,,,,,,false,,,,true,385654.69999999925,385654,384249.199,384454.09999999776,384265.779,385465.749,1,40,,
trial,html.Screen,8_36_0,2023-11-14T22:03:07.681Z,,,,2,-0.0277178575053843,-0.0645068093068572,,true,lh,1331.1509999984992,response,-0.4377917689539018,0.40158289207578934,-0.47032227135369525,0.7668025069008884,0.5802456239142888,-0.4017694530526599,low,high,,ISIC_0010807.JPG,,ISIC_0067893.JPG,241,false,lh,keypress(e),0,true,386797,386796.8999999985,385449.101,385654.80000000075,385465.749,386615.747,1,40,37,
sequence,flow.Sequence,8_36,2023-11-14T22:03:07.681Z,,,,,,,,,,1331.1509999984992,completion,,,,,,,low,high,,,,,,false,,,,true,386797.09999999776,386796.8999999985,385449.101,385654.80000000075,385465.749,386615.747,1,40,,
trial,html.Screen,8_37_0,2023-11-14T22:03:08.977Z,,,,2,-0.0127320821962457,0.0315308940184827,,false,hh,1477.253000000026,response,0.3524225654889399,0.40158289207578934,-0.42032227135369526,0.5623187922463141,0.5302456239142888,-0.4017694530526599,high,high,,ISIC_8156101.JPG,,ISIC_0010103.JPG,371,false,lh,keypress(e),0,true,388093.19999999925,388093,386599.224,386797.19999999925,386615.747,387898.993,1,40,38,
sequence,flow.Sequence,8_37,2023-11-14T22:03:08.977Z,,,,,,,,,,1477.253000000026,completion,,,,,,,high,high,,,,,,false,,,,true,388093.19999999925,388093,386599.224,386797.19999999925,386615.747,387898.993,1,40,,
trial,html.Screen,8_38_0,2023-11-14T22:03:10.305Z,,,,2,-0.0372699196710335,0.0646614895271859,,false,hl,1522.4069999984931,response,0.2673225542036171,0.45158289207578933,-0.42032227135369526,-0.5950166633996455,0.5302456239142888,-0.4017694530526599,high,low,,ISIC_1175170.JPG,,ISIC_4597707.JPG,319,false,lh,keypress(e),0,true,389421.59999999776,389421.3999999985,387882.358,388093.30000000075,387898.993,389232.342,1,40,39,
sequence,flow.Sequence,8_38,2023-11-14T22:03:10.305Z,,,,,,,,,,1522.4069999984931,completion,,,,,,,high,low,,,,,,false,,,,true,389421.8999999985,389421.3999999985,387882.358,388093.30000000075,387898.993,389232.342,1,40,,
trial,html.Screen,8_39_0,2023-11-14T22:03:11.593Z,,,,2,-0.0372699196710335,0.0646614895271859,,true,hh,1476.5579999985057,response,0.2593986033323088,0.45158289207578933,-0.42032227135369526,0.4791886331420428,0.48024562391428877,-0.45176945305265986,high,high,,ISIC_1175170.JPG,,ISIC_0010364.JPG,378,false,hh,keypress(i),0,true,390709,390708.8999999985,389215.892,389422,389232.342,390515.636,1,40,40,
sequence,flow.Sequence,8_39,2023-11-14T22:03:11.593Z,,,,,,,,,,1476.5579999985057,completion,,,,,,,high,high,,,,,,false,,,,true,390709.09999999776,390708.8999999985,389215.892,389421.8999999985,389232.342,390515.636,1,40,,
stair_loop,flow.Loop,8,2023-11-14T22:03:11.593Z,,,,,,,,,,158909.9409999985,completion,,,,,,,,,,,,,,false,,,,true,390709.19999999925,390708.8999999985,231782.281,231965,231798.959,390515.636,1,40,,
exp_instructions,html.Screen,9,2023-11-14T22:03:14.976Z,,,,,,,,,,3576.8640000000014,response,,,,,,,,,,,,,,,continue,keypress(Space),,,394092.80000000075,394092.5,390499.12,390709.19999999925,390515.636,393898.998,,,,
trial,html.Screen,10_0_0,2023-11-14T22:03:23.537Z,,,,1,-0.019361072276763,-0.0523902345755568,,false,lh,8754.501999999979,response,-0.6467143993068916,0.4440828920757894,-0.4628222713536954,0.5675103176479748,0.5057305706197408,-0.4367694530526599,low,high,,ISIC_4066726.JPG,9,ISIC_8911683.JPG,284,false,hh,keypress(i),0,false,402653.69999999925,402653.5,393882.287,394092.80000000075,393898.998,402465.686,4,500,1,
break,html.Screen,10_0_1,2023-11-14T22:03:23.538Z,,,,,,,,,,NaN,,,,,,,,low,high,,,,,,false,,,,false,402654.3999999985,402654.19999999925,,402653.8999999985,,402465.686,4,500,,
break_continue,html.Screen,10_0_2,2023-11-14T22:03:23.539Z,,,,,,,,,,NaN,,,,,,,,low,high,,,,,,false,,,,false,402654.69999999925,402654.59999999776,,402654.5,,402465.686,4,500,,
sequence,flow.Sequence,10_0,2023-11-14T22:03:23.539Z,,,,,,,,,,8755.601999997743,completion,,,,,,,low,high,,,,,,false,,,,false,402654.8999999985,402654.59999999776,393882.287,394092.80000000075,393898.998,402465.686,4,500,,
trial,html.Screen,10_1_0,2023-11-14T22:03:28.689Z,,,,1,0.040352316356354,0.0039626669358928,,true,hl,5339.114000000758,response,0.3678668135724373,0.4440828920757894,-0.4628222713536954,-0.2434341304457319,0.5057305706197408,-0.4367694530526599,high,low,,ISIC_3018550.JPG,9,ISIC_0244240.JPG,326,false,hl,keypress(j),0,false,407804.80000000075,407804.80000000075,402448.709,402655,402465.686,407615.694,4,500,2,
break,html.Screen,10_1_1,2023-11-14T22:03:28.689Z,,,,,,,,,,NaN,,,,,,,,high,low,,,,,,false,,,,false,407805.19999999925,407805.09999999776,,407804.8999999985,,407615.694,4,500,,
break_continue,html.Screen,10_1_2,2023-11-14T22:03:28.689Z,,,,,,,,,,NaN,,,,,,,,high,low,,,,,,false,,,,false,407805.3999999985,407805.3999999985,,407805.30000000075,,407615.694,4,500,,
sequence,flow.Sequence,10_1,2023-11-14T22:03:28.689Z,,,,,,,,,,5339.713999998523,completion,,,,,,,high,low,,,,,,false,,,,false,407805.5,407805.3999999985,402448.709,402655,402465.686,407615.694,4,500,,
trial,html.Screen,10_2_0,2023-11-14T22:03:33.481Z,,,,1,-0.0086413421586899,-0.0360184993500958,,true,ll,4981.205999998492,response,-0.5599710481342107,0.4440828920757894,-0.4628222713536954,-0.4829743027933009,0.5057305706197408,-0.4367694530526599,low,low,,ISIC_0010767.JPG,10,ISIC_1952599.JPG,481,false,ll,keypress(f),0,false,412597.09999999776,412596.8999999985,407598.873,407805.5,407615.694,412415.768,4,500,3,
break,html.Screen,10_2_1,2023-11-14T22:03:33.481Z,,,,,,,,,,NaN,,,,,,,,low,low,,,,,,false,,,,false,412597.59999999776,412597.59999999776,,412597.30000000075,,412415.768,4,500,,
break_continue,html.Screen,10_2_2,2023-11-14T22:03:33.482Z,,,,,,,,,,NaN,,,,,,,,low,low,,,,,,false,,,,false,412598,412597.80000000075,,412597.80000000075,,412415.768,4,500,,
sequence,flow.Sequence,10_2,2023-11-14T22:03:33.482Z,,,,,,,,,,4982.106000000727,completion,,,,,,,low,low,,,,,,false,,,,false,412598.09999999776,412597.80000000075,407598.873,407805.5,407615.694,412415.768,4,500,,
trial,html.Screen,10_3_0,2023-11-14T22:03:36.033Z,,,,1,0.040352316356354,0.0039626669358928,,true,lh,2733.232000000018,response,-0.5199610168217214,0.4440828920757894,-0.4628222713536954,0.5590661081382202,0.5057305706197408,-0.4367694530526599,low,high,,ISIC_3018550.JPG,8,ISIC_0072893.JPG,284,false,lh,keypress(e),0,false,415149.19999999925,415149,412399.294,412598.19999999925,412415.768,414965.745,4,500,4,
break,html.Screen,10_3_1,2023-11-14T22:03:36.033Z,,,,,,,,,,NaN,,,,,,,,low,high,,,,,,false,,,,false,415149.5,415149.3999999985,,415149.30000000075,,414965.745,4,500,,
break_continue,html.Screen,10_3_2,2023-11-14T22:03:36.033Z,,,,,,,,,,NaN,,,,,,,,low,high,,,,,,false,,,,false,415149.69999999925,415149.59999999776,,415149.5,,414965.745,4,500,,
sequence,flow.Sequence,10_3,2023-11-14T22:03:36.034Z,,,,,,,,,,2733.831999997783,completion,,,,,,,low,high,,,,,,false,,,,false,415149.80000000075,415149.59999999776,412399.294,412598.09999999776,412415.768,414965.745,4,500,,
trial,html.Screen,10_4_0,2023-11-14T22:03:38.529Z,,,,1,0.0362472736315994,0.0492979048777824,,false,hh,2679.3549999977695,response,0.5983482959094698,0.4440828920757894,-0.4628222713536954,0.3174248985094094,0.5057305706197408,-0.4367694530526599,high,high,,ISIC_5312584.JPG,9,ISIC_0013634.JPG,374,false,hl,keypress(j),0,false,417645.19999999925,417645.09999999776,414948.962,415149.8999999985,414965.745,417465.965,4,500,5,
break,html.Screen,10_4_1,2023-11-14T22:03:38.529Z,,,,,,,,,,NaN,,,,,,,,high,high,,,,,,false,,,,false,417645.69999999925,417645.5,,417645.3999999985,,417465.965,4,500,,
break_continue,html.Screen,10_4_2,2023-11-14T22:03:38.530Z,,,,,,,,,,NaN,,,,,,,,high,high,,,,,,false,,,,false,417645.8999999985,417645.80000000075,,417645.80000000075,,417465.965,4,500,,
sequence,flow.Sequence,10_4,2023-11-14T22:03:38.530Z,,,,,,,,,,2680.0550000007497,completion,,,,,,,high,high,,,,,,false,,,,false,417645.8999999985,417645.80000000075,414948.962,415149.80000000075,414965.745,417465.965,4,500,,
trial,html.Screen,10_5_0,2023-11-14T22:03:41.017Z,,,,1,0.0496743860812164,0.0010487105450318,,false,lh,2667.4349999984843,response,-0.5168000368804999,0.4440828920757894,-0.4628222713536954,0.6438333602086477,0.5057305706197408,-0.4367694530526599,low,high,,ISIC_9312264.JPG,9,ISIC_0013977.JPG,284,false,hl,keypress(j),0,false,420133.69999999925,420133.3999999985,417449.166,417646.09999999776,417465.965,419949.033,4,500,6,
break,html.Screen,10_5_1,2023-11-14T22:03:41.019Z,,,,,,,,,,NaN,,,,,,,,low,high,,,,,,false,,,,false,420134.69999999925,420134.5,,420134,,419949.033,4,500,,
break_continue,html.Screen,10_5_2,2023-11-14T22:03:41.019Z,,,,,,,,,,NaN,,,,,,,,low,high,,,,,,false,,,,false,420135.3999999985,420135.09999999776,,420134.8999999985,,419949.033,4,500,,
sequence,flow.Sequence,10_5,2023-11-14T22:03:41.019Z,,,,,,,,,,2669.134999997739,completion,,,,,,,low,high,,,,,,false,,,,false,420135.59999999776,420135.09999999776,417449.166,417646.09999999776,417465.965,419949.033,4,500,,
trial,html.Screen,10_6_0,2023-11-14T22:03:44.681Z,,,,1,-0.0488365673064833,0.0229344142397166,,true,ll,3848.066999997769,response,-0.4319404308001011,0.4440828920757894,-0.4628222713536954,-0.3783504035952455,0.5057305706197408,-0.4367694530526599,low,low,,ISIC_0056915.JPG,8,ISIC_3159924.JPG,481,false,ll,keypress(f),0,false,423797.30000000075,423797.09999999776,419932.557,420135.80000000075,419949.033,423615.831,4,500,7,
break,html.Screen,10_6_1,2023-11-14T22:03:44.681Z,,,,,,,,,,NaN,,,,,,,,low,low,,,,,,false,,,,false,423797.59999999776,423797.5,,423797.3999999985,,423615.831,4,500,,
break_continue,html.Screen,10_6_2,2023-11-14T22:03:44.682Z,,,,,,,,,,NaN,,,,,,,,low,low,,,,,,false,,,,false,423797.8999999985,423797.8999999985,,423797.80000000075,,423615.831,4,500,,
sequence,flow.Sequence,10_6,2023-11-14T22:03:44.682Z,,,,,,,,,,3848.866999998514,completion,,,,,,,low,low,,,,,,false,,,,false,423798,423797.8999999985,419932.557,420135.80000000075,419949.033,423615.831,4,500,,
trial,html.Screen,10_7_0,2023-11-14T22:03:51.705Z,,,,1,0.0023664502831079,0.0252784582169994,,true,hh,7205.168999999994,response,0.6189184593228364,0.4440828920757894,-0.4628222713536954,0.5769569912568668,0.5057305706197408,-0.4367694530526599,high,high,,ISIC_4156010.JPG,9,ISIC_0066114.JPG,374,false,hh,keypress(i),0,false,430821.19999999925,430821,423599.183,423798.09999999776,423615.831,430632.356,4,500,8,
break,html.Screen,10_7_1,2023-11-14T22:03:51.705Z,,,,,,,,,,NaN,,,,,,,,high,high,,,,,,false,,,,false,430821.3999999985,430821.3999999985,,430821.19999999925,,430632.356,4,500,,
break_continue,html.Screen,10_7_2,2023-11-14T22:03:51.705Z,,,,,,,,,,NaN,,,,,,,,high,high,,,,,,false,,,,false,430821.59999999776,430821.5,,430821.5,,430632.356,4,500,,
sequence,flow.Sequence,10_7,2023-11-14T22:03:51.705Z,,,,,,,,,,7205.668999999994,completion,,,,,,,high,high,,,,,,false,,,,false,430821.69999999925,430821.5,423599.183,423798,423615.831,430632.356,4,500,,
trial,html.Screen,10_8_0,2023-11-14T22:03:53.881Z,,,,1,-0.0367218428225813,0.0026956749740767,,false,lh,2364.543999998481,response,-0.6425392131580541,0.4440828920757894,-0.4628222713536954,0.6408423774148257,0.5057305706197408,-0.4367694530526599,low,high,,ISIC_7212271.JPG,10,ISIC_0031501.JPG,284,false,hl,keypress(j),0,false,432997,432996.8999999985,430615.819,430821.69999999925,430632.356,432815.751,4,500,9,
break,html.Screen,10_8_1,2023-11-14T22:03:53.881Z,,,,,,,,,,NaN,,,,,,,,low,high,,,,,,false,,,,false,432997.3999999985,432997.30000000075,,432997.19999999925,,432815.751,4,500,,
break_continue,html.Screen,10_8_2,2023-11-14T22:03:53.881Z,,,,,,,,,,NaN,,,,,,,,low,high,,,,,,false,,,,false,432997.59999999776,432997.59999999776,,432997.3999999985,,432815.751,4,500,,
sequence,flow.Sequence,10_8,2023-11-14T22:03:53.881Z,,,,,,,,,,2365.243999997736,completion,,,,,,,low,high,,,,,,false,,,,false,432997.69999999925,432997.59999999776,430615.819,430821.69999999925,430632.356,432815.751,4,500,,
trial,html.Screen,10_9_0,2023-11-14T22:03:56.273Z,,,,1,-0.0001106800768269,0.0404747734408496,,false,ll,2573.1489999985206,response,-0.4091324904259736,0.4440828920757894,-0.4628222713536954,-0.3953141411031076,0.5057305706197408,-0.4367694530526599,low,low,,ISIC_5706192.JPG,9,ISIC_0599047.JPG,481,false,hl,keypress(j),0,false,435389.09999999776,435388.8999999985,432799.035,432997.69999999925,432815.751,435199.123,4,500,10,
break,html.Screen,10_9_1,2023-11-14T22:03:56.273Z,,,,,,,,,,NaN,,,,,,,,low,low,,,,,,false,,,,false,435389.5,435389.30000000075,,435389.30000000075,,435199.123,4,500,,
break_continue,html.Screen,10_9_2,2023-11-14T22:03:56.273Z,,,,,,,,,,NaN,,,,,,,,low,low,,,,,,false,,,,false,435389.59999999776,435389.59999999776,,435389.5,,435199.123,4,500,,
sequence,flow.Sequence,10_9,2023-11-14T22:03:56.273Z,,,,,,,,,,2573.8489999977755,completion,,,,,,,low,low,,,,,,false,,,,false,435389.69999999925,435389.59999999776,432799.035,432997.69999999925,432815.751,435199.123,4,500,,
trial,html.Screen,10_10_0,2023-11-14T22:04:01.826Z,,,,1,-0.0277178575053843,-0.0645068093068572,,false,ll,5742.7769999984885,response,-0.4615652049174795,0.4440828920757894,-0.4628222713536954,-0.3560060935969821,0.5057305706197408,-0.4367694530526599,low,low,,ISIC_0010807.JPG,9,ISIC_0015291.JPG,481,false,lh,keypress(e),0,false,440942.30000000075,440941.8999999985,435182.492,435389.80000000075,435199.123,440749.124,4,500,11,
break,html.Screen,10_10_1,2023-11-14T22:04:01.827Z,,,,,,,,,,NaN,,,,,,,,low,low,,,,,,false,,,,false,440943.30000000075,440943.09999999776,,440942.59999999776,,440749.124,4,500,,
break_continue,html.Screen,10_10_2,2023-11-14T22:04:01.828Z,,,,,,,,,,NaN,,,,,,,,low,low,,,,,,false,,,,false,440943.80000000075,440943.59999999776,,440943.3999999985,,440749.124,4,500,,
sequence,flow.Sequence,10_10,2023-11-14T22:04:01.828Z,,,,,,,,,,5744.476999997743,completion,,,,,,,low,low,,,,,,false,,,,false,440944,440943.59999999776,435182.492,435389.69999999925,435199.123,440749.124,4,500,,
trial,html.Screen,10_11_0,2023-11-14T22:04:04.761Z,,,,1,0.0057914759495055,-0.018500200317654,,false,lh,3128.1760000007343,response,-0.3943257632032684,0.4440828920757894,-0.4628222713536954,0.3500641703874483,0.5057305706197408,-0.4367694530526599,low,high,,ISIC_0058723.JPG,9,ISIC_3757004.JPG,284,false,hl,keypress(j),0,false,443877.5,443877.30000000075,440732.527,440944.09999999776,440749.124,443699.232,4,500,12,
break,html.Screen,10_11_1,2023-11-14T22:04:04.762Z,,,,,,,,,,NaN,,,,,,,,low,high,,,,,,false,,,,false,443878.09999999776,443877.8999999985,,443877.69999999925,,443699.232,4,500,,
break_continue,html.Screen,10_11_2,2023-11-14T22:04:04.762Z,,,,,,,,,,NaN,,,,,,,,low,high,,,,,,false,,,,false,443878.3999999985,443878.30000000075,,443878.19999999925,,443699.232,4,500,,
sequence,flow.Sequence,10_11,2023-11-14T22:04:04.762Z,,,,,,,,,,3129.1760000007343,completion,,,,,,,low,high,,,,,,false,,,,false,443878.59999999776,443878.30000000075,440732.527,440944.09999999776,440749.124,443699.232,4,500,,
trial,html.Screen,10_12_0,2023-11-14T22:04:07.754Z,,,,1,0.0523524458062335,-0.0048771624512062,,true,hl,3170.6679999984917,response,0.4550249287392782,0.4440828920757894,-0.4628222713536954,-0.5815810514449534,0.5057305706197408,-0.4367694530526599,high,low,,ISIC_0010379.JPG,9,ISIC_0067159.JPG,326,false,hl,keypress(j),0,false,446870.19999999925,446869.8999999985,443665.793,443878.59999999776,443699.232,446682.451,4,500,13,
break,html.Screen,10_12_1,2023-11-14T22:04:07.755Z,,,,,,,,,,NaN,,,,,,,,high,low,,,,,,false,,,,false,446871.3999999985,446871.09999999776,,446870.59999999776,,446682.451,4,500,,
break_continue,html.Screen,10_12_2,2023-11-14T22:04:07.756Z,,,,,,,,,,NaN,,,,,,,,high,low,,,,,,false,,,,false,446872,446871.80000000075,,446871.59999999776,,446682.451,4,500,,
sequence,flow.Sequence,10_12,2023-11-14T22:04:07.756Z,,,,,,,,,,3172.568000000727,completion,,,,,,,high,low,,,,,,false,,,,false,446872.30000000075,446871.80000000075,443665.793,443878.59999999776,443699.232,446682.451,4,500,,
trial,html.Screen,10_13_0,2023-11-14T22:04:13.234Z,,,,1,-0.0207120852539861,-0.0589023744433183,,false,lh,5667.349000000744,response,-0.3545500276947675,0.4440828920757894,-0.4628222713536954,0.4477485362981394,0.5057305706197408,-0.4367694530526599,low,high,,ISIC_7973601.JPG,9,ISIC_0262770.JPG,284,false,hh,keypress(i),0,false,452350,452349.80000000075,446665.914,446872.3999999985,446682.451,452165.921,4,500,14,
break,html.Screen,10_13_1,2023-11-14T22:04:13.235Z,,,,,,,,,,NaN,,,,,,,,low,high,,,,,,false,,,,false,452350.80000000075,452350.59999999776,,452350.30000000075,,452165.921,4,500,,
break_continue,html.Screen,10_13_2,2023-11-14T22:04:13.235Z,,,,,,,,,,NaN,,,,,,,,low,high,,,,,,false,,,,false,452351.30000000075,452351.09999999776,,452350.8999999985,,452165.921,4,500,,
sequence,flow.Sequence,10_13,2023-11-14T22:04:13.235Z,,,,,,,,,,5668.648999997764,completion,,,,,,,low,high,,,,,,false,,,,false,452351.3999999985,452351.09999999776,446665.914,446872.30000000075,446682.451,452165.921,4,500,,
trial,html.Screen,10_14_0,2023-11-14T22:04:17.602Z,,,,1,0.0060918352854008,-0.029032683404407,,false,hh,4552.379000000772,response,0.274428390227145,0.4440828920757894,-0.4628222713536954,0.5815556573443209,0.5057305706197408,-0.4367694530526599,high,high,,ISIC_8436194.JPG,8,ISIC_0054941.JPG,374,false,hl,keypress(j),0,false,456718.59999999776,456718.30000000075,452149.166,452351.59999999776,452165.921,456532.562,4,500,15,
break,html.Screen,10_14_1,2023-11-14T22:04:17.603Z,,,,,,,,,,NaN,,,,,,,,high,high,,,,,,false,,,,false,456719.59999999776,456719.19999999925,,456718.8999999985,,456532.562,4,500,,
break_continue,html.Screen,10_14_2,2023-11-14T22:04:17.604Z,,,,,,,,,,NaN,,,,,,,,high,high,,,,,,false,,,,false,456720.30000000075,456720.09999999776,,456719.80000000075,,456532.562,4,500,,
sequence,flow.Sequence,10_14,2023-11-14T22:04:17.604Z,,,,,,,,,,4554.178999997792,completion,,,,,,,high,high,,,,,,false,,,,false,456720.59999999776,456720.09999999776,452149.166,452351.5,452165.921,456532.562,4,500,,
trial,html.Screen,10_15_0,2023-11-14T22:04:22.546Z,,,,1,0.0040788697657958,0.0696367106527537,,true,hl,5129.137999999279,response,0.5030934266501653,0.4440828920757894,-0.4628222713536954,-0.4748455916954994,0.5057305706197408,-0.4367694530526599,high,low,,ISIC_0066882.JPG,10,ISIC_6026759.JPG,326,false,hl,keypress(j),0,false,461662,461661.69999999925,456515.891,456720.8999999985,456532.562,461482.457,4,500,16,
break,html.Screen,10_15_1,2023-11-14T22:04:22.547Z,,,,,,,,,,NaN,,,,,,,,high,low,,,,,,false,,,,false,461662.8999999985,461662.59999999776,,461662.30000000075,,461482.457,4,500,,
break_continue,html.Screen,10_15_2,2023-11-14T22:04:22.548Z,,,,,,,,,,NaN,,,,,,,,high,low,,,,,,false,,,,false,461663.69999999925,461663.5,,461663.19999999925,,461482.457,4,500,,
sequence,flow.Sequence,10_15,2023-11-14T22:04:22.548Z,,,,,,,,,,5130.938000000024,completion,,,,,,,high,low,,,,,,false,,,,false,461663.8999999985,461663.5,456515.891,456720.8999999985,456532.562,461482.457,4,500,,
trial,html.Screen,10_16_0,2023-11-14T22:04:28.409Z,,,,1,-0.019361072276763,-0.0523902345755568,,true,hh,6042.74299999926,response,0.6224679810838276,0.4440828920757894,-0.4628222713536954,0.4220542254336177,0.5057305706197408,-0.4367694530526599,high,high,,ISIC_4066726.JPG,8,ISIC_0001148.JPG,374,false,hh,keypress(i),0,false,467525.30000000075,467525.19999999925,461465.852,461664.09999999776,461482.457,467332.464,4,500,17,
break,html.Screen,10_16_1,2023-11-14T22:04:28.410Z,,,,,,,,,,NaN,,,,,,,,high,high,,,,,,false,,,,false,467525.80000000075,467525.59999999776,,467525.5,,467332.464,4,500,,
break_continue,html.Screen,10_16_2,2023-11-14T22:04:28.410Z,,,,,,,,,,NaN,,,,,,,,high,high,,,,,,false,,,,false,467526.09999999776,467525.8999999985,,467525.8999999985,,467332.464,4,500,,
sequence,flow.Sequence,10_16,2023-11-14T22:04:28.410Z,,,,,,,,,,6043.442999998515,completion,,,,,,,high,high,,,,,,false,,,,false,467526.19999999925,467525.8999999985,461465.852,461664,461482.457,467332.464,4,500,,
trial,html.Screen,10_17_0,2023-11-14T22:04:31.546Z,,,,1,0.0166849894750452,-0.0371614812368835,,true,hl,3329.235999999277,response,0.3654262224810611,0.4440828920757894,-0.4628222713536954,-0.4818000119463642,0.5057305706197408,-0.4367694530526599,high,low,,ISIC_6231450.JPG,9,ISIC_0000517.JPG,326,false,hl,keypress(j),0,false,470662,470661.69999999925,467315.844,467526.30000000075,467332.464,470482.43,4,500,18,
break,html.Screen,10_17_1,2023-11-14T22:04:31.547Z,,,,,,,,,,NaN,,,,,,,,high,low,,,,,,false,,,,false,470662.80000000075,470662.59999999776,,470662.19999999925,,470482.43,4,500,,
break_continue,html.Screen,10_17_2,2023-11-14T22:04:31.547Z,,,,,,,,,,NaN,,,,,,,,high,low,,,,,,false,,,,false,470663.3999999985,470663.19999999925,,470663,,470482.43,4,500,,
sequence,flow.Sequence,10_17,2023-11-14T22:04:31.548Z,,,,,,,,,,3330.735999999277,completion,,,,,,,high,low,,,,,,false,,,,false,470663.59999999776,470663.19999999925,467315.844,467526.30000000075,467332.464,470482.43,4,500,,
trial,html.Screen,10_18_0,2023-11-14T22:04:37.457Z,,,,1,-0.0372699196710335,0.0646614895271859,,false,lh,6090.469999998517,response,-0.3519811460936152,0.4440828920757894,-0.4628222713536954,0.5627419353940134,0.5057305706197408,-0.4367694530526599,low,high,,ISIC_1175170.JPG,9,ISIC_1722909.JPG,284,false,ll,keypress(f),0,false,476573.09999999776,476572.8999999985,470465.872,470663.80000000075,470482.43,476382.462,4,500,19,
break,html.Screen,10_18_1,2023-11-14T22:04:37.457Z,,,,,,,,,,NaN,,,,,,,,low,high,,,,,,false,,,,false,476573.3999999985,476573.3999999985,,476573.19999999925,,476382.462,4,500,,
break_continue,html.Screen,10_18_2,2023-11-14T22:04:37.458Z,,,,,,,,,,NaN,,,,,,,,low,high,,,,,,false,,,,false,476573.69999999925,476573.59999999776,,476573.5,,476382.462,4,500,,
sequence,flow.Sequence,10_18,2023-11-14T22:04:37.458Z,,,,,,,,,,6091.169999997772,completion,,,,,,,low,high,,,,,,false,,,,false,476573.69999999925,476573.59999999776,470465.872,470663.69999999925,470482.43,476382.462,4,500,,
trial,html.Screen,10_19_0,2023-11-14T22:04:43.683Z,,,,1,-0.0646883165340005,-0.0250974824557198,,false,lh,6416.137999997765,response,-0.5168000368804999,0.4440828920757894,-0.4628222713536954,0.6438333602086477,0.5057305706197408,-0.4367694530526599,low,high,,ISIC_0069515.JPG,8,ISIC_0013977.JPG,284,false,ll,keypress(f),0,false,482798.80000000075,482798.59999999776,476365.709,476573.80000000075,476382.462,482615.882,4,500,20,
break,html.Screen,10_19_1,2023-11-14T22:04:43.684Z,,,,,,,,,,NaN,,,,,,,,low,high,,,,,,false,,,,false,482800,482799.69999999925,,482799.19999999925,,482615.882,4,500,,
break_continue,html.Screen,10_19_2,2023-11-14T22:04:43.685Z,,,,,,,,,,NaN,,,,,,,,low,high,,,,,,false,,,,false,482800.80000000075,482800.5,,482800.19999999925,,482615.882,4,500,,
sequence,flow.Sequence,10_19,2023-11-14T22:04:43.685Z,,,,,,,,,,6418.0380000000005,completion,,,,,,,low,high,,,,,,false,,,,false,482801,482800.5,476365.709,476573.80000000075,476382.462,482615.882,4,500,,
trial,html.Screen,10_20_0,2023-11-14T22:04:45.329Z,,,,1,-0.0191999585302269,0.0745789212985316,,false,ll,1829.0179999985266,response,-0.2740098589992731,0.4440828920757894,-0.4628222713536954,-0.2834628688819255,0.5057305706197408,-0.4367694530526599,low,low,,ISIC_4024062.JPG,10,ISIC_8615491.JPG,481,false,hh,keypress(i),0,false,484445,484444.8999999985,482599.225,482801.19999999925,482615.882,484266.064,4,500,21,
break,html.Screen,10_20_1,2023-11-14T22:04:45.329Z,,,,,,,,,,NaN,,,,,,,,low,low,,,,,,false,,,,false,484445.30000000075,484445.30000000075,,484445.09999999776,,484266.064,4,500,,
break_continue,html.Screen,10_20_2,2023-11-14T22:04:45.330Z,,,,,,,,,,NaN,,,,,,,,low,low,,,,,,false,,,,false,484445.5,484445.3999999985,,484445.3999999985,,484266.064,4,500,,
sequence,flow.Sequence,10_20,2023-11-14T22:04:45.330Z,,,,,,,,,,1829.5179999985266,completion,,,,,,,low,low,,,,,,false,,,,false,484445.59999999776,484445.3999999985,482599.225,482801.19999999925,482615.882,484266.064,4,500,,
trial,html.Screen,10_21_0,2023-11-14T22:04:47.913Z,,,,1,-0.0361875505619981,0.0291457404567876,,false,hh,2763.035999997752,response,0.540717170136105,0.4440828920757894,-0.4628222713536954,0.4948315879350275,0.5057305706197408,-0.4367694530526599,high,high,,ISIC_0027480.JPG,8,ISIC_0033995.JPG,374,false,ll,keypress(f),0,false,487029.19999999925,487029.09999999776,484249.12,484445.59999999776,484266.064,486849.365,4,500,22,
break,html.Screen,10_21_1,2023-11-14T22:04:47.914Z,,,,,,,,,,NaN,,,,,,,,high,high,,,,,,false,,,,false,487029.69999999925,487029.59999999776,,487029.3999999985,,486849.365,4,500,,
break_continue,html.Screen,10_21_2,2023-11-14T22:04:47.914Z,,,,,,,,,,NaN,,,,,,,,high,high,,,,,,false,,,,false,487030.09999999776,487029.8999999985,,487029.8999999985,,486849.365,4,500,,
sequence,flow.Sequence,10_21,2023-11-14T22:04:47.914Z,,,,,,,,,,2763.835999998497,completion,,,,,,,high,high,,,,,,false,,,,false,487030.19999999925,487029.8999999985,484249.12,484445.59999999776,484266.064,486849.365,4,500,,
trial,html.Screen,10_22_0,2023-11-14T22:04:49.170Z,,,,1,0.0050679133050021,0.0174815595031679,,false,lh,1436.0349999985192,response,-0.5919287648946974,0.4440828920757894,-0.4628222713536954,0.5902467468121672,0.5057305706197408,-0.4367694530526599,low,high,,ISIC_9848743.JPG,9,ISIC_0024512.JPG,284,false,hh,keypress(i),0,false,488285.5,488285.3999999985,486832.552,487030.30000000075,486849.365,488099.214,4,500,23,
break,html.Screen,10_22_1,2023-11-14T22:04:49.170Z,,,,,,,,,,NaN,,,,,,,,low,high,,,,,,false,,,,false,488286.19999999925,488286.09999999776,,488285.80000000075,,488099.214,4,500,,
break_continue,html.Screen,10_22_2,2023-11-14T22:04:49.171Z,,,,,,,,,,NaN,,,,,,,,low,high,,,,,,false,,,,false,488286.5,488286.3999999985,,488286.30000000075,,488099.214,4,500,,
sequence,flow.Sequence,10_22,2023-11-14T22:04:49.171Z,,,,,,,,,,1437.0349999985192,completion,,,,,,,low,high,,,,,,false,,,,false,488286.69999999925,488286.3999999985,486832.552,487030.30000000075,486849.365,488099.214,4,500,,
trial,html.Screen,10_23_0,2023-11-14T22:04:50.441Z,,,,1,0.0450282431170921,0.0102871556606504,,false,ll,1457.3859999977867,response,-0.2686476270187996,0.4440828920757894,-0.4628222713536954,-0.625338577602193,0.5057305706197408,-0.4367694530526599,low,low,,ISIC_1805163.JPG,8,ISIC_8431648.JPG,481,false,lh,keypress(e),0,false,489556.59999999776,489556.59999999776,488082.597,488286.80000000075,488099.214,489365.812,4,500,24,
break,html.Screen,10_23_1,2023-11-14T22:04:50.441Z,,,,,,,,,,NaN,,,,,,,,low,low,,,,,,false,,,,false,489556.8999999985,489556.8999999985,,489556.69999999925,,489365.812,4,500,,
break_continue,html.Screen,10_23_2,2023-11-14T22:04:50.441Z,,,,,,,,,,NaN,,,,,,,,low,low,,,,,,false,,,,false,489557,489557,,489557,,489365.812,4,500,,
sequence,flow.Sequence,10_23,2023-11-14T22:04:50.441Z,,,,,,,,,,1457.7860000000219,completion,,,,,,,low,low,,,,,,false,,,,false,489557.09999999776,489557,488082.597,488286.80000000075,488099.214,489365.812,4,500,,
trial,html.Screen,10_24_0,2023-11-14T22:04:51.970Z,,,,1,-0.0729466326865927,0.0055109446314237,,false,ll,1719.5879999985336,response,-0.4636328274760634,0.4440828920757894,-0.4628222713536954,-0.5339126778418865,0.5057305706197408,-0.4367694530526599,low,low,,ISIC_0032597.JPG,9,ISIC_4715386.JPG,481,false,hl,keypress(j),0,false,491085.59999999776,491085.3999999985,489349.202,489557.09999999776,489365.812,490899.174,4,500,25,
break,html.Screen,10_24_1,2023-11-14T22:04:51.970Z,,,,,,,,,,NaN,,,,,,,,low,low,,,,,,false,,,,false,491086.30000000075,491086.19999999925,,491085.80000000075,,490899.174,4,500,,
break_continue,html.Screen,10_24_2,2023-11-14T22:04:51.971Z,,,,,,,,,,NaN,,,,,,,,low,low,,,,,,false,,,,false,491086.69999999925,491086.59999999776,,491086.5,,490899.174,4,500,,
sequence,flow.Sequence,10_24,2023-11-14T22:04:51.971Z,,,,,,,,,,1720.7879999977886,completion,,,,,,,low,low,,,,,,false,,,,false,491086.8999999985,491086.59999999776,489349.202,489557.09999999776,489365.812,490899.174,4,500,,
trial,html.Screen,10_25_0,2023-11-14T22:05:02.761Z,,,,1,0.0166849894750452,-0.0371614812368835,,,,10783.309999999998,timeout,0.537313277115072,0.4440828920757894,-0.4628222713536954,-0.2537216200111642,0.5057305706197408,-0.4367694530526599,high,low,,ISIC_6231450.JPG,8,ISIC_2854303.JPG,326,false,,,0,false,501876.59999999776,501876.3999999985,490882.638,491087,490899.174,501682.484,4,500,26,
break,html.Screen,10_25_1,2023-11-14T22:05:02.761Z,,,,,,,,,,NaN,,,,,,,,high,low,,,,,,false,,,,false,501876.8999999985,501876.80000000075,,501876.59999999776,,501682.484,4,500,,
break_continue,html.Screen,10_25_2,2023-11-14T22:05:02.761Z,,,,,,,,,,NaN,,,,,,,,high,low,,,,,,false,,,,false,501877.09999999776,501877.09999999776,,501876.8999999985,,501682.484,4,500,,
sequence,flow.Sequence,10_25,2023-11-14T22:05:02.761Z,,,,,,,,,,10977.925999997766,completion,,,,,,,high,low,,,,,,false,,,,false,501877.19999999925,501877.09999999776,490882.638,491087,490899.174,501682.484,4,500,,
trial,html.Screen,10_26_0,2023-11-14T22:05:08.114Z,,,,1,-0.0001106800768269,0.0404747734408496,,false,hl,5547.516000000003,response,0.3346565097522507,0.4440828920757894,-0.4628222713536954,-0.3418670208316815,0.5057305706197408,-0.4367694530526599,high,low,,ISIC_5706192.JPG,9,ISIC_0030760.JPG,326,false,hh,keypress(i),0,false,507230.19999999925,507230,501665.957,501877.30000000075,501682.484,507049.162,4,500,27,
break,html.Screen,10_26_1,2023-11-14T22:05:08.115Z,,,,,,,,,,NaN,,,,,,,,high,low,,,,,,false,,,,false,507231.09999999776,507230.8999999985,,507230.5,,507049.162,4,500,,
break_continue,html.Screen,10_26_2,2023-11-14T22:05:08.116Z,,,,,,,,,,NaN,,,,,,,,high,low,,,,,,false,,,,false,507231.69999999925,507231.59999999776,,507231.3999999985,,507049.162,4,500,,
sequence,flow.Sequence,10_26,2023-11-14T22:05:08.116Z,,,,,,,,,,5549.115999997768,completion,,,,,,,high,low,,,,,,false,,,,false,507231.8999999985,507231.59999999776,501665.957,501877.30000000075,501682.484,507049.162,4,500,,
trial,html.Screen,10_27_0,2023-11-14T22:05:10.241Z,,,,1,0.0057914759495055,-0.018500200317654,,false,hh,2308.0379999992438,response,0.3487048765261165,0.4440828920757894,-0.4628222713536954,0.5215334386689573,0.5057305706197408,-0.4367694530526599,high,high,,ISIC_0058723.JPG,9,ISIC_0054963.JPG,374,false,hl,keypress(j),0,false,509357.3999999985,509357.19999999925,507032.46,507232,507049.162,509165.846,4,500,28,
break,html.Screen,10_27_1,2023-11-14T22:05:10.242Z,,,,,,,,,,NaN,,,,,,,,high,high,,,,,,false,,,,false,509357.8999999985,509357.69999999925,,509357.5,,509165.846,4,500,,
break_continue,html.Screen,10_27_2,2023-11-14T22:05:10.242Z,,,,,,,,,,NaN,,,,,,,,high,high,,,,,,false,,,,false,509358.19999999925,509358,,509358,,509165.846,4,500,,
sequence,flow.Sequence,10_27,2023-11-14T22:05:10.242Z,,,,,,,,,,2308.837999999989,completion,,,,,,,high,high,,,,,,false,,,,false,509358.30000000075,509358,507032.46,507232,507049.162,509165.846,4,500,,
trial,html.Screen,10_28_0,2023-11-14T22:05:16.794Z,,,,1,0.0534676262527691,0.0384996820289673,,false,hh,6743.55399999849,response,0.4750769241525879,0.4440828920757894,-0.4628222713536954,0.3113590790850415,0.5057305706197408,-0.4367694530526599,high,high,,ISIC_0030484.JPG,8,ISIC_0013626.JPG,374,false,hl,keypress(j),0,false,515909.59999999776,515909.3999999985,509149.266,509358.3999999985,509165.846,515715.861,4,500,29,
break,html.Screen,10_28_1,2023-11-14T22:05:16.794Z,,,,,,,,,,NaN,,,,,,,,high,high,,,,,,false,,,,false,515910.19999999925,515910,,515909.69999999925,,515715.861,4,500,,
break_continue,html.Screen,10_28_2,2023-11-14T22:05:16.795Z,,,,,,,,,,NaN,,,,,,,,high,high,,,,,,false,,,,false,515910.5,515910.3999999985,,515910.30000000075,,515715.861,4,500,,
sequence,flow.Sequence,10_28,2023-11-14T22:05:16.795Z,,,,,,,,,,6744.55399999849,completion,,,,,,,high,high,,,,,,false,,,,false,515910.59999999776,515910.3999999985,509149.266,509358.30000000075,509165.846,515715.861,4,500,,
trial,html.Screen,10_29_0,2023-11-14T22:05:20.050Z,,,,1,-0.0189295602385628,-0.0128812415435153,,false,lh,3449.6390000000247,response,-0.6466849506343191,0.4440828920757894,-0.4628222713536954,0.7001010846044593,0.5057305706197408,-0.4367694530526599,low,high,,ISIC_0010372.JPG,9,ISIC_0030356.JPG,284,false,hl,keypress(j),0,false,519165.69999999925,519165.5,515699.121,515910.80000000075,515715.861,518982.675,4,500,30,
break,html.Screen,10_29_1,2023-11-14T22:05:20.051Z,,,,,,,,,,NaN,,,,,,,,low,high,,,,,,false,,,,false,519166.30000000075,519166.09999999776,,519165.8999999985,,518982.675,4,500,,
break_continue,html.Screen,10_29_2,2023-11-14T22:05:20.051Z,,,,,,,,,,NaN,,,,,,,,low,high,,,,,,false,,,,false,519166.69999999925,519166.59999999776,,519166.3999999985,,518982.675,4,500,,
sequence,flow.Sequence,10_29,2023-11-14T22:05:20.051Z,,,,,,,,,,3450.7389999977895,completion,,,,,,,low,high,,,,,,false,,,,false,519166.8999999985,519166.59999999776,515699.121,515910.69999999925,515715.861,518982.675,4,500,,
trial,html.Screen,10_30_0,2023-11-14T22:05:26.186Z,,,,1,0.0071892445601978,-0.0246015408628738,,true,ll,6318.9249999977765,response,-0.2840769691259867,0.4440828920757894,-0.4628222713536954,-0.3646705910015375,0.5057305706197408,-0.4367694530526599,low,low,,ISIC_0014133.JPG,9,ISIC_2312766.JPG,481,false,ll,keypress(f),0,false,525301.8999999985,525301.5999999978,518966.014,519167,518982.675,525115.867,4,500,31,
break,html.Screen,10_30_1,2023-11-14T22:05:26.187Z,,,,,,,,,,NaN,,,,,,,,low,low,,,,,,false,,,,false,525302.8000000007,525302.5999999978,,525302.1999999993,,525115.867,4,500,,
break_continue,html.Screen,10_30_2,2023-11-14T22:05:26.188Z,,,,,,,,,,NaN,,,,,,,,low,low,,,,,,false,,,,false,525303.3999999985,525303.1999999993,,525303,,525115.867,4,500,,
sequence,flow.Sequence,10_30,2023-11-14T22:05:26.188Z,,,,,,,,,,6320.524999999267,completion,,,,,,,low,low,,,,,,false,,,,false,525303.5999999978,525303.1999999993,518966.014,519167,518982.675,525115.867,4,500,,
trial,html.Screen,10_31_0,2023-11-14T22:05:31.467Z,,,,1,0.00126575685933,0.0325046559638838,,false,lh,5466.133000000031,response,-0.510908484778704,0.4440828920757894,-0.4628222713536954,0.3536139351788178,0.5057305706197408,-0.4367694530526599,low,high,,ISIC_5682259.JPG,9,ISIC_6410859.JPG,284,false,ll,keypress(f),0,false,530582.1999999993,530582,525099.117,525303.8000000007,525115.867,530399.218,4,500,32,
break,html.Screen,10_31_1,2023-11-14T22:05:31.467Z,,,,,,,,,,NaN,,,,,,,,low,high,,,,,,false,,,,false,530583.0999999978,530582.8999999985,,530582.3999999985,,530399.218,4,500,,
break_continue,html.Screen,10_31_2,2023-11-14T22:05:31.468Z,,,,,,,,,,NaN,,,,,,,,low,high,,,,,,false,,,,false,530583.5,530583.3999999985,,530583.0999999978,,530399.218,4,500,,
sequence,flow.Sequence,10_31,2023-11-14T22:05:31.468Z,,,,,,,,,,5467.532999998541,completion,,,,,,,low,high,,,,,,false,,,,false,530583.6999999993,530583.3999999985,525099.117,525303.8000000007,525115.867,530399.218,4,500,,
trial,html.Screen,10_32_0,2023-11-14T22:05:35.353Z,,,,1,-0.0744767864787991,0.0482768027208112,,false,lh,4069.8819999977713,response,-0.5089746342559943,0.4440828920757894,-0.4628222713536954,0.3209771905460522,0.5057305706197408,-0.4367694530526599,low,high,,ISIC_0011482.JPG,8,ISIC_0001119.JPG,284,false,ll,keypress(f),0,false,534469.1999999993,534469.0999999978,530382.475,530583.8999999985,530399.218,534282.606,4,500,33,
break,html.Screen,10_32_1,2023-11-14T22:05:35.354Z,,,,,,,,,,NaN,,,,,,,,low,high,,,,,,false,,,,false,534469.6999999993,534469.5999999978,,534469.3999999985,,534282.606,4,500,,
break_continue,html.Screen,10_32_2,2023-11-14T22:05:35.354Z,,,,,,,,,,NaN,,,,,,,,low,high,,,,,,false,,,,false,534470,534469.8999999985,,534469.8000000007,,534282.606,4,500,,
sequence,flow.Sequence,10_32,2023-11-14T22:05:35.354Z,,,,,,,,,,4070.6819999985164,completion,,,,,,,low,high,,,,,,false,,,,false,534470.0999999978,534469.8999999985,530382.475,530583.8000000007,530399.218,534282.606,4,500,,
trial,html.Screen,10_33_0,2023-11-14T22:05:40.114Z,,,,1,0.0402606077562393,-0.0233871780024155,,true,ll,4946.493999997736,response,-0.6231571443922516,0.4440828920757894,-0.4628222713536954,-0.5255397989444055,0.5057305706197408,-0.4367694530526599,low,low,,ISIC_0024401.JPG,8,ISIC_7642591.JPG,481,false,ll,keypress(f),0,false,539229.3000000007,539229.0999999978,534265.746,534470.1999999993,534282.606,539049.342,4,500,34,
break,html.Screen,10_33_1,2023-11-14T22:05:40.114Z,,,,,,,,,,NaN,,,,,,,,low,low,,,,,,false,,,,false,539229.5999999978,539229.5,,539229.3999999985,,539049.342,4,500,,
break_continue,html.Screen,10_33_2,2023-11-14T22:05:40.114Z,,,,,,,,,,NaN,,,,,,,,low,low,,,,,,false,,,,false,539229.8000000007,539229.8000000007,,539229.5999999978,,539049.342,4,500,,
sequence,flow.Sequence,10_33,2023-11-14T22:05:40.114Z,,,,,,,,,,4947.194000000716,completion,,,,,,,low,low,,,,,,false,,,,false,539229.8000000007,539229.8000000007,534265.746,534470.1999999993,534282.606,539049.342,4,500,,
trial,html.Screen,10_34_0,2023-11-14T22:05:50.983Z,,,,1,0.0350697500805515,0.0166617848231997,,,,10866.703000000096,timeout,-0.4468117188783114,0.4440828920757894,-0.4628222713536954,-0.3999231861861942,0.5057305706197408,-0.4367694530526599,low,low,,ISIC_0024423.JPG,9,ISIC_0033801.JPG,481,false,,,0,false,550098.3999999985,550098.1999999993,539032.39,539230,539049.342,549916.045,4,500,35,
break,html.Screen,10_34_1,2023-11-14T22:05:50.983Z,,,,,,,,,,NaN,,,,,,,,low,low,,,,,,false,,,,false,550099.0999999978,550098.8999999985,,550098.5999999978,,549916.045,4,500,,
break_continue,html.Screen,10_34_2,2023-11-14T22:05:50.984Z,,,,,,,,,,NaN,,,,,,,,low,low,,,,,,false,,,,false,550099.5,550099.3000000007,,550099.1999999993,,549916.045,4,500,,
sequence,flow.Sequence,10_34,2023-11-14T22:05:50.984Z,,,,,,,,,,11049.958000000799,completion,,,,,,,low,low,,,,,,false,,,,false,550099.5999999978,550099.3000000007,539032.39,539229.8999999985,539049.342,549916.045,4,500,,
trial,html.Screen,10_35_0,2023-11-14T22:05:57.785Z,,,,1,0.0377791839943904,-0.0227626648172468,,false,lh,6984.954999999958,response,-0.3172297100661941,0.4440828920757894,-0.4628222713536954,0.3491057233705587,0.5057305706197408,-0.4367694530526599,low,high,,ISIC_7167479.JPG,9,ISIC_0063191.JPG,284,false,hl,keypress(j),0,false,556901.1999999993,556901,549899.376,550099.6999999993,549916.045,556715.952,4,500,36,
break,html.Screen,10_35_1,2023-11-14T22:05:57.786Z,,,,,,,,,,NaN,,,,,,,,low,high,,,,,,false,,,,false,556901.5999999978,556901.5,,556901.3000000007,,556715.952,4,500,,
break_continue,html.Screen,10_35_2,2023-11-14T22:05:57.786Z,,,,,,,,,,NaN,,,,,,,,low,high,,,,,,false,,,,false,556901.8000000007,556901.8000000007,,556901.5999999978,,556715.952,4,500,,
sequence,flow.Sequence,10_35,2023-11-14T22:05:57.786Z,,,,,,,,,,6985.755000000703,completion,,,,,,,low,high,,,,,,false,,,,false,556901.8999999985,556901.8000000007,549899.376,550099.5999999978,549916.045,556715.952,4,500,,
trial,html.Screen,10_36_0,2023-11-14T22:06:04.338Z,,,,1,-0.0321039635696159,-0.020496766286318,,true,ll,6737.2479999992065,response,-0.4700240910366023,0.4440828920757894,-0.4628222713536954,-0.291459653506664,0.5057305706197408,-0.4367694530526599,low,low,,ISIC_0058063.JPG,8,ISIC_6447663.JPG,481,false,ll,keypress(f),0,false,563453.3999999985,563453.1999999993,556699.034,556902,556715.952,563265.902,4,500,37,
break,html.Screen,10_36_1,2023-11-14T22:06:04.338Z,,,,,,,,,,NaN,,,,,,,,low,low,,,,,,false,,,,false,563453.8000000007,563453.6999999993,,563453.5,,563265.902,4,500,,
break_continue,html.Screen,10_36_2,2023-11-14T22:06:04.338Z,,,,,,,,,,NaN,,,,,,,,low,low,,,,,,false,,,,false,563454.0999999978,563454,,563453.8000000007,,563265.902,4,500,,
sequence,flow.Sequence,10_36,2023-11-14T22:06:04.338Z,,,,,,,,,,6738.047999999952,completion,,,,,,,low,low,,,,,,false,,,,false,563454.1999999993,563454,556699.034,556902,556715.952,563265.902,4,500,,
trial,html.Screen,10_37_0,2023-11-14T22:06:06.945Z,,,,1,-0.0683185670328473,-0.0092332028949561,,false,hh,2795.097999999998,response,0.2775243837221827,0.4440828920757894,-0.4628222713536954,0.3335665246436011,0.5057305706197408,-0.4367694530526599,high,high,,ISIC_3652847.JPG,10,ISIC_5233769.JPG,374,false,ll,keypress(f),0,false,566061.0999999978,566061,563249.116,563454.3000000007,563265.902,565883.872,4,500,38,
break,html.Screen,10_37_1,2023-11-14T22:06:06.946Z,,,,,,,,,,NaN,,,,,,,,high,high,,,,,,false,,,,false,566061.5,566061.3999999985,,566061.1999999993,,565883.872,4,500,,
break_continue,html.Screen,10_37_2,2023-11-14T22:06:06.946Z,,,,,,,,,,NaN,,,,,,,,high,high,,,,,,false,,,,false,566061.6999999993,566061.5999999978,,566061.5,,565883.872,4,500,,
sequence,flow.Sequence,10_37,2023-11-14T22:06:06.946Z,,,,,,,,,,2795.697999997763,completion,,,,,,,high,high,,,,,,false,,,,false,566061.6999999993,566061.5999999978,563249.116,563454.1999999993,563265.902,565883.872,4,500,,
trial,html.Screen,10_38_0,2023-11-14T22:06:08.658Z,,,,1,-0.019361072276763,-0.0523902345755568,,false,ll,1889.628000000026,response,-0.435696026490752,0.4440828920757894,-0.4628222713536954,-0.3916023194002604,0.5057305706197408,-0.4367694530526599,low,low,,ISIC_4066726.JPG,9,ISIC_6496765.JPG,481,false,hh,keypress(i),0,false,567773.8000000007,567773.5,565849.315,566061.8000000007,565883.872,567582.607,4,500,39,
break,html.Screen,10_38_1,2023-11-14T22:06:08.659Z,,,,,,,,,,NaN,,,,,,,,low,low,,,,,,false,,,,false,567774.3999999985,567774.3000000007,,567773.8999999985,,567582.607,4,500,,
break_continue,html.Screen,10_38_2,2023-11-14T22:06:08.659Z,,,,,,,,,,NaN,,,,,,,,low,low,,,,,,false,,,,false,567774.8999999985,567774.6999999993,,567774.5999999978,,567582.607,4,500,,
sequence,flow.Sequence,10_38,2023-11-14T22:06:08.659Z,,,,,,,,,,1890.827999999281,completion,,,,,,,low,low,,,,,,false,,,,false,567775,567774.6999999993,565849.315,566061.8000000007,565883.872,567582.607,4,500,,
trial,html.Screen,10_39_0,2023-11-14T22:06:12.321Z,,,,1,0.0118555311043871,0.0087774532070196,,true,ll,3854.092999999295,response,-0.5466486654706088,0.4440828920757894,-0.4628222713536954,-0.3844653604557658,0.5057305706197408,-0.4367694530526599,low,low,,ISIC_6488658.JPG,9,ISIC_9788545.JPG,481,false,ll,keypress(f),0,false,571436.8000000007,571436.6999999993,567566.125,567775.1999999993,567582.607,571249.464,4,500,40,
break,html.Screen,10_39_1,2023-11-14T22:06:12.321Z,,,,,,,,,,NaN,,,,,,,,low,low,,,,,,false,,,,false,571437.1999999993,571437.0999999978,,571437,,571249.464,4,500,,
break_continue,html.Screen,10_39_2,2023-11-14T22:06:12.322Z,,,,,,,,,,NaN,,,,,,,,low,low,,,,,,false,,,,false,571437.3000000007,571437.1999999993,,571437.1999999993,,571249.464,4,500,,
sequence,flow.Sequence,10_39,2023-11-14T22:06:12.322Z,,,,,,,,,,3854.592999999295,completion,,,,,,,low,low,,,,,,false,,,,false,571437.3000000007,571437.1999999993,567566.125,567775.1999999993,567582.607,571249.464,4,500,,
trial,html.Screen,10_40_0,2023-11-14T22:06:17.250Z,,,,1,0.012020985739544,-0.0126097407389903,,false,ll,5116.235999999219,response,-0.4480089481054571,0.4440828920757894,-0.4628222713536954,-0.4920635278876878,0.5057305706197408,-0.4367694530526599,low,low,,ISIC_0069379.JPG,9,ISIC_7755096.JPG,481,false,hh,keypress(i),0,false,576365.8999999985,576365.6999999993,571232.495,571437.3999999985,571249.464,576182.743,4,500,41,
break,html.Screen,10_40_1,2023-11-14T22:06:17.251Z,,,,,,,,,,NaN,,,,,,,,low,low,,,,,,false,,,,false,576366.6999999993,576366.5,,576366.1999999993,,576182.743,4,500,,
break_continue,html.Screen,10_40_2,2023-11-14T22:06:17.251Z,,,,,,,,,,NaN,,,,,,,,low,low,,,,,,false,,,,false,576367.1999999993,576367,,576366.8000000007,,576182.743,4,500,,
sequence,flow.Sequence,10_40,2023-11-14T22:06:17.252Z,,,,,,,,,,5117.535999999964,completion,,,,,,,low,low,,,,,,false,,,,false,576367.3000000007,576367,571232.495,571437.3999999985,571249.464,576182.743,4,500,,
trial,html.Screen,10_41_0,2023-11-14T22:06:20.539Z,,,,1,0.0702697127166421,0.0314752704888287,,false,hh,3471.5570000007283,response,0.530331166524013,0.4440828920757894,-0.4628222713536954,0.5503309402890343,0.5057305706197408,-0.4367694530526599,high,high,,ISIC_0033881.JPG,8,ISIC_0070017.JPG,374,false,lh,keypress(e),0,false,579654.5999999978,579654.3000000007,576166.086,576367.3999999985,576182.743,579465.95,4,500,42,
break,html.Screen,10_41_1,2023-11-14T22:06:20.540Z,,,,,,,,,,NaN,,,,,,,,high,high,,,,,,false,,,,false,579655.6999999993,579655.5,,579655,,579465.95,4,500,,
break_continue,html.Screen,10_41_2,2023-11-14T22:06:20.541Z,,,,,,,,,,NaN,,,,,,,,high,high,,,,,,false,,,,false,579656.5,579656.3000000007,,579656,,579465.95,4,500,,
sequence,flow.Sequence,10_41,2023-11-14T22:06:20.541Z,,,,,,,,,,3473.5570000007283,completion,,,,,,,high,high,,,,,,false,,,,false,579656.6999999993,579656.3000000007,576166.086,576367.3999999985,576182.743,579465.95,4,500,,
trial,html.Screen,10_42_0,2023-11-14T22:06:23.586Z,,,,1,-0.0565575423757561,0.0536115913979284,,false,ll,3235.4499999985565,response,-0.5154483000953993,0.4440828920757894,-0.4628222713536954,-0.5459053856935119,0.5057305706197408,-0.4367694530526599,low,low,,ISIC_0046983.JPG,8,ISIC_3274493.JPG,481,false,lh,keypress(e),0,false,582701.5,582701.3999999985,579449.196,579657,579465.95,582515.926,4,500,43,
break,html.Screen,10_42_1,2023-11-14T22:06:23.587Z,,,,,,,,,,NaN,,,,,,,,low,low,,,,,,false,,,,false,582702.1999999993,582702,,582701.8000000007,,582515.926,4,500,,
break_continue,html.Screen,10_42_2,2023-11-14T22:06:23.587Z,,,,,,,,,,NaN,,,,,,,,low,low,,,,,,false,,,,false,582702.5,582702.3999999985,,582702.1999999993,,582515.926,4,500,,
sequence,flow.Sequence,10_42,2023-11-14T22:06:23.587Z,,,,,,,,,,3236.4499999985565,completion,,,,,,,low,low,,,,,,false,,,,false,582702.5999999978,582702.3999999985,579449.196,579656.8999999985,579465.95,582515.926,4,500,,
trial,html.Screen,10_43_0,2023-11-14T22:06:26.084Z,,,,1,0.0555511886677117,0.0134118039833958,,false,hh,2683.0740000000224,response,0.5358893222717115,0.4440828920757894,-0.4628222713536954,0.6920617394377806,0.5057305706197408,-0.4367694530526599,high,high,,ISIC_2228511.JPG,9,ISIC_0055781.JPG,374,false,lh,keypress(e),0,false,585199.5999999978,585199,582499.201,582702.8000000007,582515.926,585015.984,4,500,44,
break,html.Screen,10_43_1,2023-11-14T22:06:26.086Z,,,,,,,,,,NaN,,,,,,,,high,high,,,,,,false,,,,false,585201.3999999985,585200.8999999985,,585200.1999999993,,585015.984,4,500,,
break_continue,html.Screen,10_43_2,2023-11-14T22:06:26.087Z,,,,,,,,,,NaN,,,,,,,,high,high,,,,,,false,,,,false,585202.0999999978,585201.8999999985,,585201.5,,585015.984,4,500,,
sequence,flow.Sequence,10_43,2023-11-14T22:06:26.087Z,,,,,,,,,,2685.9739999985322,completion,,,,,,,high,high,,,,,,false,,,,false,585202.3999999985,585201.8999999985,582499.201,582702.8000000007,582515.926,585015.984,4,500,,
trial,html.Screen,10_44_0,2023-11-14T22:06:27.523Z,,,,1,-0.0189295602385628,-0.0128812415435153,,false,hl,1621.81600000069,response,0.5293896915669422,0.4440828920757894,-0.4628222713536954,-0.2609541747580493,0.5057305706197408,-0.4367694530526599,high,low,,ISIC_0010372.JPG,9,ISIC_0026347.JPG,326,false,hh,keypress(i),0,false,586638,586637.8000000007,584999.267,585202.5,585015.984,586449.329,4,500,45,
break,html.Screen,10_44_1,2023-11-14T22:06:27.523Z,,,,,,,,,,NaN,,,,,,,,high,low,,,,,,false,,,,false,586638.8000000007,586638.6999999993,,586638.3000000007,,586449.329,4,500,,
break_continue,html.Screen,10_44_2,2023-11-14T22:06:27.524Z,,,,,,,,,,NaN,,,,,,,,high,low,,,,,,false,,,,false,586639.3999999985,586639.0999999978,,586639,,586449.329,4,500,,
sequence,flow.Sequence,10_44,2023-11-14T22:06:27.524Z,,,,,,,,,,1623.1159999977099,completion,,,,,,,high,low,,,,,,false,,,,false,586639.5999999978,586639.0999999978,584999.267,585202.5,585015.984,586449.329,4,500,,
trial,html.Screen,10_45_0,2023-11-14T22:06:29.170Z,,,,1,0.0523524458062335,-0.0048771624512062,,true,ll,1835.670999999973,response,-0.4622926220201385,0.4440828920757894,-0.4628222713536954,-0.3231188660583812,0.5057305706197408,-0.4367694530526599,low,low,,ISIC_0010379.JPG,9,ISIC_7205745.JPG,481,false,ll,keypress(f),0,false,588285.0999999978,588285,586432.653,586639.6999999993,586449.329,588099.309,4,500,46,
break,html.Screen,10_45_1,2023-11-14T22:06:29.170Z,,,,,,,,,,NaN,,,,,,,,low,low,,,,,,false,,,,false,588285.3999999985,588285.3000000007,,588285.1999999993,,588099.309,4,500,,
break_continue,html.Screen,10_45_2,2023-11-14T22:06:29.170Z,,,,,,,,,,NaN,,,,,,,,low,low,,,,,,false,,,,false,588285.5999999978,588285.5,,588285.5,,588099.309,4,500,,
sequence,flow.Sequence,10_45,2023-11-14T22:06:29.170Z,,,,,,,,,,1836.170999999973,completion,,,,,,,low,low,,,,,,false,,,,false,588285.5999999978,588285.5,586432.653,586639.5999999978,586449.329,588099.309,4,500,,
trial,html.Screen,10_46_0,2023-11-14T22:06:30.538Z,,,,1,-0.0051046740562181,0.0178832721027728,,false,lh,1553.9910000007367,response,-0.6603971718247816,0.4440828920757894,-0.4628222713536954,0.4576672749033849,0.5057305706197408,-0.4367694530526599,low,high,,ISIC_9545819.JPG,9,ISIC_2822718.JPG,284,false,hl,keypress(j),0,false,589653.3999999985,589653.3000000007,588082.708,588285.6999999993,588099.309,589465.948,4,500,47,
break,html.Screen,10_46_1,2023-11-14T22:06:30.539Z,,,,,,,,,,NaN,,,,,,,,low,high,,,,,,false,,,,false,589653.8999999985,589653.8999999985,,589653.5999999978,,589465.948,4,500,,
break_continue,html.Screen,10_46_2,2023-11-14T22:06:30.539Z,,,,,,,,,,NaN,,,,,,,,low,high,,,,,,false,,,,false,589654.3000000007,589654.1999999993,,589654,,589465.948,4,500,,
sequence,flow.Sequence,10_46,2023-11-14T22:06:30.539Z,,,,,,,,,,1554.8909999992466,completion,,,,,,,low,high,,,,,,false,,,,false,589654.3999999985,589654.1999999993,588082.708,588285.5999999978,588099.309,589465.948,4,500,,
trial,html.Screen,10_47_0,2023-11-14T22:06:31.858Z,,,,1,0.0362472736315994,0.0492979048777824,,false,hl,1507.25199999928,response,0.2567852865992376,0.4440828920757894,-0.4628222713536954,-0.2388211325545863,0.5057305706197408,-0.4367694530526599,high,low,,ISIC_5312584.JPG,9,ISIC_0011798.JPG,326,false,lh,keypress(e),0,false,590973.3999999985,590973.1999999993,589449.304,589654.3999999985,589465.948,590782.563,4,500,48,
break,html.Screen,10_47_1,2023-11-14T22:06:31.858Z,,,,,,,,,,NaN,,,,,,,,high,low,,,,,,false,,,,false,590973.8000000007,590973.8000000007,,590973.5999999978,,590782.563,4,500,,
break_continue,html.Screen,10_47_2,2023-11-14T22:06:31.859Z,,,,,,,,,,NaN,,,,,,,,high,low,,,,,,false,,,,false,590974.0999999978,590974,,590973.8999999985,,590782.563,4,500,,
sequence,flow.Sequence,10_47,2023-11-14T22:06:31.859Z,,,,,,,,,,1508.0520000000251,completion,,,,,,,high,low,,,,,,false,,,,false,590974.1999999993,590974,589449.304,589654.3999999985,589465.948,590782.563,4,500,,
trial,html.Screen,10_48_0,2023-11-14T22:06:33.178Z,,,,1,-0.019361072276763,-0.0523902345755568,,false,hl,1510.3369999985443,response,0.4458826661587183,0.4440828920757894,-0.4628222713536954,-0.6050867284502762,0.5057305706197408,-0.4367694530526599,high,low,,ISIC_4066726.JPG,8,ISIC_7789452.JPG,326,false,hh,keypress(i),0,false,592293,592292.8999999985,590765.95,590974.1999999993,590782.563,592099.269,4,500,49,
break,html.Screen,10_48_1,2023-11-14T22:06:33.178Z,,,,,,,,,,NaN,,,,,,,,high,low,,,,,,false,,,,false,592293.3999999985,592293.3000000007,,592293.0999999978,,592099.269,4,500,,
break_continue,html.Screen,10_48_2,2023-11-14T22:06:33.178Z,,,,,,,,,,NaN,,,,,,,,high,low,,,,,,false,,,,false,592293.5,592293.3999999985,,592293.3999999985,,592099.269,4,500,,
sequence,flow.Sequence,10_48,2023-11-14T22:06:33.178Z,,,,,,,,,,1510.8369999985443,completion,,,,,,,high,low,,,,,,false,,,,false,592293.5999999978,592293.3999999985,590765.95,590974.1999999993,590782.563,592099.269,4,500,,
trial,html.Screen,10_49_0,2023-11-14T22:06:38.986Z,,,,1,-0.0565575423757561,0.0536115913979284,,false,lh,6002.231000000029,response,-0.5793871655126073,0.4440828920757894,-0.4628222713536954,0.3149904112305618,0.5057305706197408,-0.4367694530526599,low,high,,ISIC_0046983.JPG,8,ISIC_7190243.JPG,284,false,ll,keypress(f),0,false,598101.5999999978,598101.5,592082.649,592293.5999999978,592099.269,597915.936,4,500,50,
break,html.Screen,10_49_1,2023-11-14T22:06:38.987Z,,,,,,,,,,NaN,,,,,,,,low,high,,,,,,false,,,,false,598102.3000000007,598102.0999999978,,598101.8999999985,,597915.936,4,500,,
