sender,sender_type,sender_id,timestamp,meta,,age,blockNo,c1,c2,condition,correct,correctResponse,duration,ended_on,f1,f1_high,f1_low,f2,f2_high,f2_low,feature_level1,feature_level2,gender,img_left,img_reveal,img_right,n_target_images,practice,response,response_action,selection_duration,staircase,time_commit,time_end,time_render,time_run,time_show,time_switch,total_blocks,total_trials,trialNo,url
informed_consent,html.Screen,0,2023-11-14T19:37:14.437Z,"{""labjs_version"":""20.2.4"",""labjs_build"":{""flavor"":""development"",""commit"":""f5b4a49f956347addd546a832a3327688c2c0fef""},""location"":""https://labjs.felixhenninger.com/api/labjs_preview/index.html"",""userAgent"":""Mozilla/5.0 (Windows NT 10.0; Win64; x64) AppleWebKit/537.36 (KHTML, like Gecko) Chrome/119.0.0.0 Safari/537.36"",""platform"":""Win32"",""language"":""en-US"",""locale"":""en-US"",""timeZone"":""America/Chicago"",""timezoneOffset"":360,""screen_width"":1920,""screen_height"":1080,""scroll_width"":945,""scroll_height"":918,""window_innerWidth"":945,""window_innerHeight"":966,""devicePixelRatio"":1}",,,,,,,,,24556.131000047684,response,,,,,,,,,,,,,,,consent,click button,,,25393.800000071526,25384.200000047684,811.111,802.1000000238419,828.069,25394.461,,,,{}
Demography form,html.Form,1,2023-11-14T19:37:19.877Z,,,18,,,,,,,5439.439000095368,form submission,,,,,,,,,female,,,,,,,,,,30834.100000023842,30833.900000095367,25379.034,25394,25394.461,30844.489,,,,
Welcome,html.Screen,2,2023-11-14T19:37:40.108Z,,,,,,,"[""asym"",""bor""]",,,20219.511,response,,,,,,,,,,,,,,,continue,click button,,,51064.5,51064,30827.929,30834.200000047684,30844.489,51077.931,,,,
demo_instructions,html.Screen,3,2023-11-14T19:38:05.164Z,,,,,,,,,,25042.46900009537,response,,,,,,,,,,,,,,,continue,click button,,,76121.5,76120.40000009537,51061.178,51064.60000002384,51077.931,76127.878,,,,
trial,html.Screen,4_0_0,2023-11-14T19:38:20.321Z,,,,0,0.991146183030456,-0.9949639823722534,,true,lh,15150.222000023845,response,-1.0751036484083878,1.0499999999999998,-1.0499999999999998,1.143906455483852,1.0499999999999998,-1.0499999999999998,low,high,,ISIC_6342224.JPG,,ISIC_0064406.JPG,21,true,lh,keypress(e),100,false,91278.30000007153,91278.10000002384,76111.228,76121.70000004768,76127.878,91294.61,1,16,1,
sequence,flow.Sequence,4_0,2023-11-14T19:38:20.322Z,,,,,,,,,,15150.222000023845,completion,,,,,,,low,high,,,,,,true,,,,false,91278.60000002384,91278.10000002384,76111.228,76121.70000004768,76127.878,91294.61,1,16,,
trial,html.Screen,4_1_0,2023-11-14T19:38:23.655Z,,,,0,0.8947611078712571,-0.8960964505004638,,true,lh,3316.790000095367,response,-1.2364994561934892,1.0499999999999998,-1.0499999999999998,0.9174173651516624,1.0499999999999998,-1.0499999999999998,low,high,,ISIC_6441128.JPG,,ISIC_3481133.JPG,21,true,lh,keypress(e),100,false,94611.60000002384,94611.40000009537,91277.918,91278.70000004768,91294.61,94627.978,1,16,2,
sequence,flow.Sequence,4_1,2023-11-14T19:38:23.655Z,,,,,,,,,,3316.790000095367,completion,,,,,,,low,high,,,,,,true,,,,false,94611.90000009537,94611.40000009537,91277.918,91278.70000004768,91294.61,94627.978,1,16,,
trial,html.Screen,4_2_0,2023-11-14T19:38:26.924Z,,,,0,0.8655167308525522,-0.9298580423306444,,true,lh,3253.222000047681,response,-1.0865333402803938,1.0499999999999998,-1.0499999999999998,1.0542635307358266,1.0499999999999998,-1.0499999999999998,low,high,,ISIC_4603706.JPG,,ISIC_0034006.JPG,21,true,lh,keypress(e),100,false,97881.40000009537,97881.20000004768,94611.274,94612,94627.978,97911.48,1,16,3,
sequence,flow.Sequence,4_2,2023-11-14T19:38:26.925Z,,,,,,,,,,3253.222000047681,completion,,,,,,,low,high,,,,,,true,,,,false,97881.70000004768,97881.20000004768,94611.274,94612,94627.978,97911.48,1,16,,
trial,html.Screen,4_3_0,2023-11-14T19:38:34.562Z,,,,0,0.9235571765207048,-1.0008081653938232,,true,lh,7606.720000047688,response,-1.2075172235545184,1.0499999999999998,-1.0499999999999998,0.9116724966267612,1.0499999999999998,-1.0499999999999998,low,high,,ISIC_8796632.JPG,,ISIC_0024235.JPG,21,true,lh,keypress(e),100,false,105518.5,105518.20000004768,97894.912,97881.90000009537,97911.48,105544.62,1,16,4,
sequence,flow.Sequence,4_3,2023-11-14T19:38:34.562Z,,,,,,,,,,7606.720000047688,completion,,,,,,,low,high,,,,,,true,,,,false,105518.90000009537,105518.20000004768,97894.912,97881.80000007153,97911.48,105544.62,1,16,,
trial,html.Screen,4_4_0,2023-11-14T19:38:39.078Z,,,,0,0.9357713502691224,1.0696934992096478,,true,ll,4489.880000000005,response,-0.96885674750163,1.0499999999999998,-1.0499999999999998,-1.153255258098753,1.0499999999999998,-1.0499999999999998,low,low,,ISIC_0009886.JPG,,ISIC_5722914.JPG,111,true,ll,keypress(f),100,false,110034.60000002384,110034.5,105527.951,105518.90000009537,105544.62,110061.246,1,16,5,
sequence,flow.Sequence,4_4,2023-11-14T19:38:39.078Z,,,,,,,,,,4489.880000000005,completion,,,,,,,low,low,,,,,,true,,,,false,110034.80000007153,110034.5,105527.951,105518.90000009537,105544.62,110061.246,1,16,,
trial,html.Screen,4_5_0,2023-11-14T19:38:41.930Z,,,,0,0.9054613726799198,1.0522064490699743,,true,ll,2825.8540000238427,response,-1.1642596483638106,1.0499999999999998,-1.0499999999999998,-1.109799097093339,1.0499999999999998,-1.0499999999999998,low,low,,ISIC_0064860.JPG,,ISIC_0765584.JPG,111,true,ll,keypress(f),100,false,112887.40000009537,112887.10000002384,110044.581,110034.90000009537,110061.246,112911.284,1,16,6,
sequence,flow.Sequence,4_5,2023-11-14T19:38:41.930Z,,,,,,,,,,2825.8540000238427,completion,,,,,,,low,low,,,,,,true,,,,false,112887.40000009537,112887.10000002384,110044.581,110034.80000007153,110061.246,112911.284,1,16,,
trial,html.Screen,4_6_0,2023-11-14T19:38:44.173Z,,,,0,0.9342143229318964,1.195482218669593,,true,ll,2218.416000047684,response,-0.964746248973834,1.0499999999999998,-1.0499999999999998,-0.9069353065857808,1.0499999999999998,-1.0499999999999998,low,low,,ISIC_8073555.JPG,,ISIC_9896801.JPG,111,true,ll,keypress(f),100,false,115129.80000007153,115129.70000004768,112894.629,112887.60000002384,112911.284,115161.307,1,16,7,
sequence,flow.Sequence,4_6,2023-11-14T19:38:44.173Z,,,,,,,,,,2218.416000047684,completion,,,,,,,low,low,,,,,,true,,,,false,115129.90000009537,115129.70000004768,112894.629,112887.60000002384,112911.284,115161.307,1,16,,
trial,html.Screen,4_7_0,2023-11-14T19:38:46.112Z,,,,0,1.0022982145596024,0.9703352077282876,,true,ll,1907.893000047683,response,-0.964746248973834,1.0499999999999998,-1.0499999999999998,-0.9069353065857808,1.0499999999999998,-1.0499999999999998,low,low,,ISIC_0011930.JPG,,ISIC_9896801.JPG,111,true,ll,keypress(f),100,false,117069.30000007153,117069.20000004768,115144.616,115130,115161.307,117094.624,1,16,8,
sequence,flow.Sequence,4_7,2023-11-14T19:38:46.112Z,,,,,,,,,,1907.893000047683,completion,,,,,,,low,low,,,,,,true,,,,false,117069.5,117069.20000004768,115144.616,115129.90000009537,115161.307,117094.624,1,16,,
trial,html.Screen,4_8_0,2023-11-14T19:38:51.350Z,,,,0,-0.7877939497981142,0.8415032780288271,,true,hl,5211.776000095371,response,0.7833710010171356,0.9499999999999997,-0.9499999999999997,-0.9315588090336896,0.9499999999999997,-0.9499999999999997,high,low,,ISIC_0067308.JPG,,ISIC_3826102.JPG,26,true,hl,keypress(j),100,false,122306.60000002384,122306.40000009537,117077.938,117069.60000002384,117094.624,122328.014,1,16,9,
sequence,flow.Sequence,4_8,2023-11-14T19:38:51.350Z,,,,,,,,,,5211.776000095371,completion,,,,,,,high,low,,,,,,true,,,,false,122306.70000004768,122306.40000009537,117077.938,117069.60000002384,117094.624,122328.014,1,16,,
trial,html.Screen,4_9_0,2023-11-14T19:38:54.265Z,,,,0,-0.8534691366511764,1.03975580494588,,true,hl,2893.886000095372,response,0.7638895244791114,0.9499999999999997,-0.9499999999999997,-0.7780412100090998,0.9499999999999997,-0.9499999999999997,high,low,,ISIC_0056788.JPG,,ISIC_0026516.JPG,26,true,hl,keypress(j),100,false,125222.20000004768,125221.90000009537,122311.359,122306.70000004768,122328.014,125244.681,1,16,10,
sequence,flow.Sequence,4_9,2023-11-14T19:38:54.266Z,,,,,,,,,,2893.886000095372,completion,,,,,,,high,low,,,,,,true,,,,false,125222.5,125221.90000009537,122311.359,122306.70000004768,122328.014,125244.681,1,16,,
trial,html.Screen,4_10_0,2023-11-14T19:38:57.199Z,,,,0,-1.1181734135756094,0.944560381774994,,true,hl,2910.819000000003,response,0.7871162143493278,0.9499999999999997,-0.9499999999999997,-0.8429329800778957,0.9499999999999997,-0.9499999999999997,high,low,,ISIC_9688534.JPG,,ISIC_3439215.JPG,26,true,hl,keypress(j),100,false,128155.70000004768,128155.5,125228.008,125222.70000004768,125244.681,128177.979,1,16,11,
sequence,flow.Sequence,4_10,2023-11-14T19:38:57.199Z,,,,,,,,,,2910.819000000003,completion,,,,,,,high,low,,,,,,true,,,,false,128155.90000009537,128155.5,125228.008,125222.60000002384,125244.681,128177.979,1,16,,
trial,html.Screen,4_11_0,2023-11-14T19:39:00.739Z,,,,0,-1.0026266089287914,1.0913275913920335,,true,hl,3518.0209999999934,response,1.0213365328004047,0.9499999999999997,-0.9499999999999997,-1.088524359911891,0.9499999999999997,-0.9499999999999997,high,low,,ISIC_0033520.JPG,,ISIC_5434229.JPG,26,true,hl,keypress(j),100,false,131696,131696,128161.519,128156,128177.979,131727.981,1,16,12,
sequence,flow.Sequence,4_11,2023-11-14T19:39:00.739Z,,,,,,,,,,3518.0209999999934,completion,,,,,,,high,low,,,,,,true,,,,false,131696.20000004768,131696,128161.519,128156,128177.979,131727.981,1,16,,
trial,html.Screen,4_12_0,2023-11-14T19:39:03.222Z,,,,0,-0.8842396282744274,-1.0676592823752966,,false,hh,2450.9190000953677,response,0.8735470592544294,0.9499999999999997,-0.9499999999999997,0.9785086585007428,0.9499999999999997,-0.9499999999999997,high,high,,ISIC_0029182.JPG,,ISIC_0047031.JPG,167,true,hl,keypress(j),100,false,134179,134178.90000009537,131711.32,131696.30000007153,131727.981,134211.551,1,16,13,
sequence,flow.Sequence,4_12,2023-11-14T19:39:03.222Z,,,,,,,,,,2450.9190000953677,completion,,,,,,,high,high,,,,,,true,,,,false,134179.20000004768,134178.90000009537,131711.32,131696.30000007153,131727.981,134211.551,1,16,,
trial,html.Screen,4_13_0,2023-11-14T19:39:08.746Z,,,,0,-1.0109425975109978,-0.7936092227742398,,true,hh,5490.948999999993,response,0.8145925452767395,0.9499999999999997,-0.9499999999999997,1.1209497725708388,0.9499999999999997,-0.9499999999999997,high,high,,ISIC_8253326.JPG,,ISIC_0027751.JPG,167,true,hh,keypress(i),100,false,139702.70000004768,139702.5,134194.919,134179.20000004768,134211.551,139728,1,16,14,
sequence,flow.Sequence,4_13,2023-11-14T19:39:08.746Z,,,,,,,,,,5490.948999999993,completion,,,,,,,high,high,,,,,,true,,,,false,139703.10000002384,139702.5,134194.919,134179.20000004768,134211.551,139728,1,16,,
trial,html.Screen,4_14_0,2023-11-14T19:39:10.785Z,,,,0,-0.8919560546669082,-0.809906745076789,,true,hh,2014.1000000238419,response,0.8387460443597405,0.9499999999999997,-0.9499999999999997,1.12466521758037,0.9499999999999997,-0.9499999999999997,high,high,,ISIC_8086526.JPG,,ISIC_0014189.JPG,167,true,hh,keypress(i),100,false,141742.20000004768,141742.10000002384,139711.327,139703.30000007153,139728,141761.508,1,16,15,
sequence,flow.Sequence,4_14,2023-11-14T19:39:10.785Z,,,,,,,,,,2014.1000000238419,completion,,,,,,,high,high,,,,,,true,,,,false,141742.30000007153,141742.10000002384,139711.327,139703.30000007153,139728,141761.508,1,16,,
trial,html.Screen,4_15_0,2023-11-14T19:39:12.741Z,,,,0,-0.8985413691921805,-1.1177351920180405,,true,hh,1936.5920000238402,response,0.8868080718134892,0.9499999999999997,-0.9499999999999997,0.9914647862586572,0.9499999999999997,-0.9499999999999997,high,high,,ISIC_2805573.JPG,,ISIC_0068895.JPG,167,true,hh,keypress(i),100,false,143698.30000007153,143698.10000002384,141744.663,141742.40000009537,141761.508,143728.255,1,16,16,
sequence,flow.Sequence,4_15,2023-11-14T19:39:12.742Z,,,,,,,,,,1936.5920000238402,completion,,,,,,,high,high,,,,,,true,,,,false,143698.40000009537,143698.10000002384,141744.663,141742.30000007153,141761.508,143728.255,1,16,,
demonstration_loop,flow.Loop,4,2023-11-14T19:39:12.742Z,,,,,,,,,,67570.22200002384,completion,,,,,,,,,,,,,,true,,,,false,143698.60000002384,143698.10000002384,76111.228,76121.60000002384,76127.878,143728.255,1,16,,
practice_instructions,html.Screen,5,2023-11-14T19:39:26.815Z,,,,,,,,,,14032.244999999995,response,,,,,,,,,,,,,,,continue,click button,,,157772.30000007153,157760.5,143711.347,143698.60000002384,143728.255,157777.923,,,,
trial,html.Screen,6_0_0,2023-11-14T19:39:35.243Z,,,,1,0.8019171574297028,1.0925160607978373,,true,ll,8414.07699999999,response,-0.9031332540970408,0.9499999999999997,-0.9499999999999997,-0.853200189915778,0.9499999999999997,-0.9499999999999997,low,low,,ISIC_0010925.JPG,,ISIC_4679971.JPG,142,true,ll,keypress(f),0,false,166200,166192,157744.949,157772.40000009537,157777.923,166211.615,1,20,1,
sequence,flow.Sequence,6_0,2023-11-14T19:39:35.243Z,,,,,,,,,,8414.07699999999,completion,,,,,,,low,low,,,,,,true,,,,false,166200.10000002384,166192,157744.949,157772.40000009537,157777.923,166211.615,1,20,,
trial,html.Screen,6_1_0,2023-11-14T19:39:40.156Z,,,,1,-1.020990671779317,1.0116513850520903,,true,hl,4901.485000023851,response,0.7833710010171356,0.9499999999999997,-0.9499999999999997,-0.9315588090336896,0.9499999999999997,-0.9499999999999997,high,low,,ISIC_0011995.JPG,,ISIC_3826102.JPG,26,true,hl,keypress(j),0,false,171113.20000004768,171113.10000002384,166194.623,166200.20000004768,166211.615,171128.03,1,20,2,
sequence,flow.Sequence,6_1,2023-11-14T19:39:40.156Z,,,,,,,,,,4901.485000023851,completion,,,,,,,high,low,,,,,,true,,,,false,171113.30000007153,171113.10000002384,166194.623,166200.20000004768,166211.615,171128.03,1,20,,
trial,html.Screen,6_2_0,2023-11-14T19:39:45.884Z,,,,1,0.8735470592544294,0.9785086585007428,,true,ll,5712.570000023843,response,-1.09666761087476,0.9499999999999997,-0.9499999999999997,-1.1072126870290426,0.9499999999999997,-0.9499999999999997,low,low,,ISIC_0047031.JPG,,ISIC_0071754.JPG,142,true,ll,keypress(f),0,false,176840.80000007153,176840.60000002384,171111.381,171113.5,171128.03,176844.634,1,20,3,
sequence,flow.Sequence,6_2,2023-11-14T19:39:45.884Z,,,,,,,,,,5712.570000023843,completion,,,,,,,low,low,,,,,,true,,,,false,176840.90000009537,176840.60000002384,171111.381,171113.40000009537,171128.03,176844.634,1,20,,
trial,html.Screen,6_3_0,2023-11-14T19:39:47.933Z,,,,1,-0.7647549879784493,-0.777443662430605,,true,hh,2044.7660000953765,response,1.085089185942698,0.9499999999999997,-0.9499999999999997,0.8165346395107898,0.9499999999999997,-0.9499999999999997,high,high,,ISIC_0012435.JPG,,ISIC_2283628.JPG,167,true,hh,keypress(i),0,false,178889.60000002384,178889.40000009537,176827.807,176840.90000009537,176844.634,178894.647,1,20,4,
sequence,flow.Sequence,6_3,2023-11-14T19:39:47.933Z,,,,,,,,,,2044.7660000953765,completion,,,,,,,high,high,,,,,,true,,,,false,178889.80000007153,178889.40000009537,176827.807,176840.90000009537,176844.634,178894.647,1,20,,
trial,html.Screen,6_4_0,2023-11-14T19:39:52.012Z,,,,1,1.0022982145596024,0.9703352077282876,,true,ll,4074.1530000715284,response,-1.101961018205887,0.9499999999999997,-0.9499999999999997,-0.891963134716088,0.9499999999999997,-0.9499999999999997,low,low,,ISIC_0011930.JPG,,ISIC_5625747.JPG,142,true,ll,keypress(f),0,false,182969,182968.80000007153,178878.21,178889.80000007153,178894.647,182977.969,1,20,5,
sequence,flow.Sequence,6_4,2023-11-14T19:39:52.012Z,,,,,,,,,,4074.1530000715284,completion,,,,,,,low,low,,,,,,true,,,,false,182969,182968.80000007153,178878.21,178889.80000007153,178894.647,182977.969,1,20,,
trial,html.Screen,6_5_0,2023-11-14T19:39:55.243Z,,,,1,0.8200962008791046,-0.7936051642828523,,true,lh,3222.4310000953556,response,-0.9454713230140772,0.9499999999999997,-0.9499999999999997,0.9245167441969216,0.9499999999999997,-0.9499999999999997,low,high,,ISIC_0027031.JPG,,ISIC_9101055.JPG,28,true,lh,keypress(e),0,false,186200.5,186200.40000009537,182961.454,182969.10000002384,182977.969,186211.317,1,20,6,
sequence,flow.Sequence,6_5,2023-11-14T19:39:55.243Z,,,,,,,,,,3222.4310000953556,completion,,,,,,,low,high,,,,,,true,,,,false,186200.60000002384,186200.40000009537,182961.454,182969.10000002384,182977.969,186211.317,1,20,,
trial,html.Screen,6_6_0,2023-11-14T19:39:59.629Z,,,,1,-0.869932994914832,0.8880533324432531,,true,hl,4374.383000047674,response,1.0122398223568725,0.9499999999999997,-0.9499999999999997,-0.7505228537454216,0.9499999999999997,-0.9499999999999997,high,low,,ISIC_8617084.JPG,,ISIC_0033802.JPG,26,true,hl,keypress(j),0,false,190585.90000009537,190585.70000004768,186194.57,186200.70000004768,186211.317,190594.678,1,20,7,
sequence,flow.Sequence,6_6,2023-11-14T19:39:59.629Z,,,,,,,,,,4374.383000047674,completion,,,,,,,high,low,,,,,,true,,,,false,190586.10000002384,190585.70000004768,186194.57,186200.70000004768,186211.317,190594.678,1,20,,
trial,html.Screen,6_7_0,2023-11-14T19:40:01.724Z,,,,1,-0.8979276789594874,0.925374811016654,,true,hl,2086.5220000476693,response,0.8816288864119318,0.9499999999999997,-0.9499999999999997,-0.801867301188093,0.9499999999999997,-0.9499999999999997,high,low,,ISIC_4208361.JPG,,ISIC_9196783.JPG,26,true,hl,keypress(j),0,false,192681.40000009537,192681.20000004768,190577.857,190586.30000007153,190594.678,192695,1,20,8,
sequence,flow.Sequence,6_7,2023-11-14T19:40:01.724Z,,,,,,,,,,2086.5220000476693,completion,,,,,,,high,low,,,,,,true,,,,false,192681.60000002384,192681.20000004768,190577.857,190586.20000004768,190594.678,192695,1,20,,
trial,html.Screen,6_8_0,2023-11-14T19:40:06.460Z,,,,1,-0.7784583866003763,0.9641514808986528,,true,hl,4722.5,response,0.9873794329144926,0.9499999999999997,-0.9499999999999997,-0.7991077882008257,0.9499999999999997,-0.9499999999999997,high,low,,ISIC_0011924.JPG,,ISIC_0013498.JPG,26,true,hl,keypress(j),0,false,197417.70000004768,197417.5,192677.937,192681.60000002384,192695,197428.12,1,20,9,
sequence,flow.Sequence,6_8,2023-11-14T19:40:06.461Z,,,,,,,,,,4722.5,completion,,,,,,,high,low,,,,,,true,,,,false,197417.90000009537,197417.5,192677.937,192681.60000002384,192695,197428.12,1,20,,
trial,html.Screen,6_9_0,2023-11-14T19:40:09.437Z,,,,1,0.9777849718157332,1.117811430082889,,true,ll,2965.6800000715302,response,-0.8849616197102024,0.9499999999999997,-0.9499999999999997,-0.8708774591990956,0.9499999999999997,-0.9499999999999997,low,low,,ISIC_3256887.JPG,,ISIC_2872107.JPG,142,true,ll,keypress(f),0,false,200393.90000009537,200393.80000007153,197411.192,197418,197428.12,200411.459,1,20,10,
sequence,flow.Sequence,6_9,2023-11-14T19:40:09.437Z,,,,,,,,,,2965.6800000715302,completion,,,,,,,low,low,,,,,,true,,,,false,200394.30000007153,200393.80000007153,197411.192,197417.90000009537,197428.12,200411.459,1,20,,
trial,html.Screen,6_10_0,2023-11-14T19:40:12.381Z,,,,1,0.8816288864119318,-0.801867301188093,,true,lh,2926.6410000238393,response,-1.1181734135756094,0.9499999999999997,-0.9499999999999997,0.944560381774994,0.9499999999999997,-0.9499999999999997,low,high,,ISIC_9196783.JPG,,ISIC_9688534.JPG,28,true,lh,keypress(e),0,false,203338.40000009537,203338.10000002384,200394.694,200394.5,200411.459,203344.693,1,20,11,
sequence,flow.Sequence,6_10,2023-11-14T19:40:12.382Z,,,,,,,,,,2926.6410000238393,completion,,,,,,,low,high,,,,,,true,,,,false,203338.80000007153,203338.10000002384,200394.694,200394.40000009537,200411.459,203344.693,1,20,,
trial,html.Screen,6_11_0,2023-11-14T19:40:17.725Z,,,,1,1.0115965332688306,-0.8282633603842442,,true,lh,5337.107000071526,response,-0.858338058340649,0.9499999999999997,-0.9499999999999997,0.9540612223480284,0.9499999999999997,-0.9499999999999997,low,high,,ISIC_1069587.JPG,,ISIC_8922893.JPG,28,true,lh,keypress(e),0,false,208681.90000009537,208681.80000007153,203328.191,203339.10000002384,203344.693,208694.726,1,20,12,
sequence,flow.Sequence,6_11,2023-11-14T19:40:17.725Z,,,,,,,,,,5337.107000071526,completion,,,,,,,low,high,,,,,,true,,,,false,208682.10000002384,208681.80000007153,203328.191,203339,203344.693,208694.726,1,20,,
trial,html.Screen,6_12_0,2023-11-14T19:40:22.333Z,,,,1,-0.9991910338212396,-0.9242629064104082,,true,hh,4594.874000023847,response,0.7597421372185947,0.9499999999999997,-0.9499999999999997,0.8314283330495001,0.9499999999999997,-0.9499999999999997,high,high,,ISIC_7795549.JPG,,ISIC_0009894.JPG,167,true,hh,keypress(i),0,false,213289.70000004768,213289.60000002384,208677.822,208682.20000004768,208694.726,213294.711,1,20,13,
sequence,flow.Sequence,6_12,2023-11-14T19:40:22.333Z,,,,,,,,,,4594.874000023847,completion,,,,,,,high,high,,,,,,true,,,,false,213290,213289.60000002384,208677.822,208682.20000004768,208694.726,213294.711,1,20,,
trial,html.Screen,6_13_0,2023-11-14T19:40:33.321Z,,,,1,-1.0230514974175424,-0.9473579617457568,,,,11016.657999999996,timeout,0.7633286649662646,0.9499999999999997,-0.9499999999999997,0.9562649947567318,0.9499999999999997,-0.9499999999999997,high,high,,ISIC_0012037.JPG,,ISIC_0064010.JPG,167,true,,,0,false,224278.70000004768,224278.5,213278.178,213290.10000002384,213294.711,224311.369,1,20,14,
sequence,flow.Sequence,6_13,2023-11-14T19:40:33.322Z,,,,,,,,,,10983.78899999999,completion,,,,,,,high,high,,,,,,true,,,,false,224278.80000007153,224278.5,213278.178,213290.10000002384,213294.711,224311.369,1,20,,
trial,html.Screen,6_14_0,2023-11-14T19:40:34.605Z,,,,1,0.8809051780367407,1.044525830449456,,false,ll,1250.4310000715195,response,-0.8755959065262388,0.9499999999999997,-0.9499999999999997,-1.093284184366194,0.9499999999999997,-0.9499999999999997,low,low,,ISIC_0029212.JPG,,ISIC_8096177.JPG,142,true,hh,keypress(i),0,false,225561.90000009537,225561.80000007153,224294.711,224278.80000007153,224311.369,225578.395,1,20,15,
sequence,flow.Sequence,6_14,2023-11-14T19:40:34.605Z,,,,,,,,,,1250.4310000715195,completion,,,,,,,low,low,,,,,,true,,,,false,225562.30000007153,225561.80000007153,224294.711,224278.80000007153,224311.369,225578.395,1,20,,
trial,html.Screen,6_15_0,2023-11-14T19:40:36.700Z,,,,1,-0.7848009721557384,-0.750809298734252,,true,hh,2078.405000071536,response,1.1254252603792554,0.9499999999999997,-0.9499999999999997,1.0263116781284176,0.9499999999999997,-0.9499999999999997,high,high,,ISIC_9648812.JPG,,ISIC_0032420.JPG,167,true,hh,keypress(i),0,false,227656.90000009537,227656.80000007153,225561.366,225562.40000009537,225578.395,227661.36,1,20,16,
sequence,flow.Sequence,6_15,2023-11-14T19:40:36.700Z,,,,,,,,,,2078.405000071536,completion,,,,,,,high,high,,,,,,true,,,,false,227657.20000004768,227656.80000007153,225561.366,225562.40000009537,225578.395,227661.36,1,20,,
trial,html.Screen,6_16_0,2023-11-14T19:40:39.836Z,,,,1,0.7871162143493278,-0.8429329800778957,,true,lh,3131.4400000715395,response,-0.879102500583965,0.9499999999999997,-0.9499999999999997,1.0933081951979773,0.9499999999999997,-0.9499999999999997,low,high,,ISIC_3439215.JPG,,ISIC_0046223.JPG,28,true,lh,keypress(e),0,false,230792.90000009537,230792.80000007153,227644.939,227657.20000004768,227661.36,230794.701,1,20,17,
sequence,flow.Sequence,6_16,2023-11-14T19:40:39.836Z,,,,,,,,,,3131.4400000715395,completion,,,,,,,low,high,,,,,,true,,,,false,230793,230792.80000007153,227644.939,227657.20000004768,227661.36,230794.701,1,20,,
trial,html.Screen,6_17_0,2023-11-14T19:40:42.349Z,,,,1,0.9388660854518424,-0.79533948698576,,true,lh,2510.999000047683,response,-0.7784583866003763,0.9499999999999997,-0.9499999999999997,0.9641514808986528,0.9499999999999997,-0.9499999999999997,low,high,,ISIC_9291926.JPG,,ISIC_0011924.JPG,28,true,lh,keypress(e),0,false,233305.80000007153,233305.70000004768,230778.058,230793,230794.701,233311.394,1,20,18,
sequence,flow.Sequence,6_17,2023-11-14T19:40:42.349Z,,,,,,,,,,2510.999000047683,completion,,,,,,,low,high,,,,,,true,,,,false,233306.20000004768,233305.70000004768,230778.058,230793,230794.701,233311.394,1,20,,
trial,html.Screen,6_18_0,2023-11-14T19:40:44.492Z,,,,1,-0.9454713230140772,0.9245167441969216,,true,hl,2137.9060000715253,response,0.8623414234919863,0.9499999999999997,-0.9499999999999997,-0.782830143980698,0.9499999999999997,-0.9499999999999997,high,low,,ISIC_9101055.JPG,,ISIC_2727016.JPG,26,true,hl,keypress(j),0,false,235449.60000002384,235449.30000007153,233294.647,233306.30000007153,233311.394,235461.425,1,20,19,
sequence,flow.Sequence,6_18,2023-11-14T19:40:44.493Z,,,,,,,,,,2137.9060000715253,completion,,,,,,,high,low,,,,,,true,,,,false,235449.80000007153,235449.30000007153,233294.647,233306.30000007153,233311.394,235461.425,1,20,,
trial,html.Screen,6_19_0,2023-11-14T19:40:46.796Z,,,,1,-1.1401739481722466,-0.9054500502539348,,true,hh,2291.6750000238535,response,0.8915634966621839,0.9499999999999997,-0.9499999999999997,0.7932594669441307,0.9499999999999997,-0.9499999999999997,high,high,,ISIC_6260086.JPG,,ISIC_1937197.JPG,167,true,hh,keypress(i),0,false,237753.30000007153,237753.10000002384,235444.66,235449.80000007153,235461.425,237761.385,1,20,20,
sequence,flow.Sequence,6_19,2023-11-14T19:40:46.796Z,,,,,,,,,,2291.6750000238535,completion,,,,,,,high,high,,,,,,true,,,,false,237753.40000009537,237753.10000002384,235444.66,235449.80000007153,235461.425,237761.385,1,20,,
practice_loop,flow.Loop,6,2023-11-14T19:40:46.796Z,,,,,,,,,,79975.17700002383,completion,,,,,,,,,,,,,,true,,,,false,237753.5,237753.10000002384,157744.949,157772.40000009537,157777.923,237761.385,1,20,,
stair_instructions,html.Screen,7,2023-11-14T19:40:51.820Z,,,,,,,,,,5015.114999999991,response,,,,,,,,,,,,,,,continue,click button,,,242777.10000002384,242776.5,237744.72,237753.5,237761.385,242778.057,,,,
trial,html.Screen,8_0_0,2023-11-14T19:40:59.083Z,,,,2,-0.040191644178716,0.0622582668671422,,false,hl,7262.043000023841,response,0.948927472020595,0.9499999999999997,-0.9499999999999997,-1.0660437155921598,0.9499999999999997,-0.9499999999999997,high,low,,ISIC_6207688.JPG,,ISIC_5808758.JPG,26,false,hh,keypress(i),0,true,250040.40000009537,250040.10000002384,242761.503,242777.20000004768,242778.057,250044.78,1,40,1,
sequence,flow.Sequence,8_0,2023-11-14T19:40:59.083Z,,,,,,,,,,7262.043000023841,completion,,,,,,,high,low,,,,,,false,,,,true,250041,250040.10000002384,242761.503,242777.20000004768,242778.057,250044.78,1,40,,
trial,html.Screen,8_1_0,2023-11-14T19:41:05.707Z,,,,2,-0.059471106306043,0.0678292174694111,,true,ll,6620.020000071527,response,-0.7819386010267503,0.9499999999999997,-0.8999999999999997,-1.0882850488448614,0.8999999999999997,-0.9499999999999997,low,low,,ISIC_0015631.JPG,,ISIC_9024078.JPG,157,false,ll,keypress(f),0,true,256664.90000009537,256664.80000007153,250028.082,250041.20000004768,250044.78,256678.062,1,40,2,
sequence,flow.Sequence,8_1,2023-11-14T19:41:05.707Z,,,,,,,,,,6620.020000071527,completion,,,,,,,low,low,,,,,,false,,,,true,256665,256664.80000007153,250028.082,250041.10000002384,250044.78,256678.062,1,40,,
trial,html.Screen,8_2_0,2023-11-14T19:41:14.652Z,,,,2,-0.0409338693593207,0.0072462710499874,,false,lh,8931.23800007152,response,-0.7016683761932542,0.8999999999999997,-0.8499999999999996,1.043794098855853,0.8499999999999996,-0.8999999999999997,low,high,,ISIC_3608788.JPG,,ISIC_0033117.JPG,54,false,hh,keypress(i),0,true,265609.40000009537,265609.3000000715,256661.518,256665.10000002384,256678.062,265611.418,1,40,3,
sequence,flow.Sequence,8_2,2023-11-14T19:41:14.652Z,,,,,,,,,,8931.23800007152,completion,,,,,,,low,high,,,,,,false,,,,true,265609.5,265609.3000000715,256661.518,256665.10000002384,256678.062,265611.418,1,40,,
trial,html.Screen,8_3_0,2023-11-14T19:41:19.915Z,,,,2,0.039728379742806,-0.0228701131373768,,false,lh,5261.282000047679,response,-0.9644643328174062,0.8499999999999996,-0.8499999999999996,0.745333984830218,0.8499999999999996,-0.8499999999999996,low,high,,ISIC_0054073.JPG,,ISIC_0058046.JPG,54,false,ll,keypress(f),0,true,270872.90000009537,270872.7000000477,265594.635,265609.60000002384,265611.418,270878.072,1,40,4,
sequence,flow.Sequence,8_3,2023-11-14T19:41:19.915Z,,,,,,,,,,5261.282000047679,completion,,,,,,,low,high,,,,,,false,,,,true,270873,270872.7000000477,265594.635,265609.60000002384,265611.418,270878.072,1,40,,
trial,html.Screen,8_4_0,2023-11-14T19:41:24.463Z,,,,2,0.0544808612748248,-0.0240487075377862,,true,hh,4542.528000023856,response,0.6670080889606705,0.7999999999999996,-0.8499999999999996,0.7151381725944435,0.8499999999999996,-0.7999999999999996,high,high,,ISIC_4606646.JPG,,ISIC_0014629.JPG,228,false,hh,keypress(i),0,true,275420.7000000477,275420.60000002384,270861.283,270873.10000002384,270878.072,275428.144,1,40,5,
sequence,flow.Sequence,8_4,2023-11-14T19:41:24.463Z,,,,,,,,,,4542.528000023856,completion,,,,,,,high,high,,,,,,false,,,,true,275420.8000000715,275420.60000002384,270861.283,270873.10000002384,270878.072,275428.144,1,40,,
trial,html.Screen,8_5_0,2023-11-14T19:41:30.524Z,,,,2,-0.0367218428225813,-0.0700576547090477,,false,lh,6053.356000000029,response,-0.969947771489652,0.7079677804906327,-0.7999999999999996,0.6651811306243314,0.7999999999999996,-0.7499999999999996,low,high,,ISIC_7212271.JPG,,ISIC_7254389.JPG,74,false,hl,keypress(j),0,true,281481.60000002384,281481.5,275411.282,275420.90000009537,275428.144,281494.77,1,40,6,
sequence,flow.Sequence,8_5,2023-11-14T19:41:30.524Z,,,,,,,,,,6053.356000000029,completion,,,,,,,low,high,,,,,,false,,,,true,281481.8000000715,281481.5,275411.282,275420.90000009537,275428.144,281494.77,1,40,,
trial,html.Screen,8_6_0,2023-11-14T19:41:33.467Z,,,,2,-0.0737104822171846,0.0725320314728604,,false,lh,2930.030000071507,response,-0.6136918109060658,0.6579677804906326,-0.7999999999999996,0.6097633267265633,0.7999999999999996,-0.6999999999999995,low,high,,ISIC_0002862.JPG,,ISIC_0010818.JPG,74,false,hh,keypress(i),0,true,284425,284424.8000000715,281477.883,281481.8000000715,281494.77,284428.09,1,40,7,
sequence,flow.Sequence,8_6,2023-11-14T19:41:33.468Z,,,,,,,,,,2930.030000071507,completion,,,,,,,low,high,,,,,,false,,,,true,284425.10000002384,284424.8000000715,281477.883,281481.8000000715,281494.77,284428.09,1,40,,
trial,html.Screen,8_7_0,2023-11-14T19:41:41.228Z,,,,2,-0.0149482827359613,0.0661630859332833,,false,ll,7757.610000047658,response,-0.730438854046586,0.6079677804906326,-0.7999999999999996,-0.5742804743271287,0.7999999999999996,-0.6499999999999995,low,low,,ISIC_6815524.JPG,,ISIC_1477990.JPG,314,false,hl,keypress(j),0,true,292185.8000000715,292185.7000000477,284411.36,284425.2000000477,284428.09,292194.825,1,40,8,
sequence,flow.Sequence,8_7,2023-11-14T19:41:41.228Z,,,,,,,,,,7757.610000047658,completion,,,,,,,low,low,,,,,,false,,,,true,292185.90000009537,292185.7000000477,284411.36,284425.2000000477,284428.09,292194.825,1,40,,
trial,html.Screen,8_8_0,2023-11-14T19:41:45.628Z,,,,2,-0.009234249673026,-0.0627190878028592,,false,lh,4390.27500002383,response,-0.7059992451035046,0.5579677804906326,-0.7999999999999996,0.694550940341387,0.7499999999999996,-0.6499999999999995,low,high,,ISIC_0053760.JPG,,ISIC_0032320.JPG,78,false,hh,keypress(i),0,true,296585.2000000477,296585.10000002384,292177.847,292186,292194.825,296594.79,1,40,9,
sequence,flow.Sequence,8_8,2023-11-14T19:41:45.628Z,,,,,,,,,,4390.27500002383,completion,,,,,,,low,high,,,,,,false,,,,true,296585.3000000715,296585.10000002384,292177.847,292186,292194.825,296594.79,1,40,,
trial,html.Screen,8_9_0,2023-11-14T19:41:56.621Z,,,,2,-0.0097091270150747,0.0417921315885292,,,,11016.771999999997,timeout,0.6664216411092332,0.5079677804906325,-0.7999999999999996,-0.7420699937090495,0.7499999999999996,-0.5999999999999994,high,low,,ISIC_3967213.JPG,,ISIC_8785329.JPG,208,false,,,0,true,307578.7000000477,307578.5,296577.961,296585.40000009537,296594.79,307611.562,1,40,10,
sequence,flow.Sequence,8_9,2023-11-14T19:41:56.621Z,,,,,,,,,,10983.710000000021,completion,,,,,,,high,low,,,,,,false,,,,true,307578.90000009537,307578.5,296577.961,296585.3000000715,296594.79,307611.562,1,40,,
trial,html.Screen,8_10_0,2023-11-14T19:41:59.051Z,,,,2,0.0050679133050021,-0.0009714874637896,,false,ll,2397.2380000715493,response,-0.6633118310941692,0.5079677804906325,-0.7999999999999996,-0.650567368516604,0.7499999999999996,-0.5999999999999994,low,low,,ISIC_9848743.JPG,,ISIC_4448959.JPG,333,false,lh,keypress(e),0,true,310009,310008.8000000715,307594.889,307578.90000009537,307611.562,310011.455,1,40,11,
sequence,flow.Sequence,8_10,2023-11-14T19:41:59.051Z,,,,,,,,,,2397.2380000715493,completion,,,,,,,low,low,,,,,,false,,,,true,310009.10000002384,310008.8000000715,307594.889,307578.90000009537,307611.562,310011.455,1,40,,
trial,html.Screen,8_11_0,2023-11-14T19:42:05.275Z,,,,2,-0.0348234368746005,0.0236866303880924,,false,hl,6221.445000095351,response,0.5778860106559912,0.4579677804906325,-0.7999999999999996,-0.6085661221804143,0.6999999999999995,-0.5999999999999994,high,low,,ISIC_0011099.JPG,,ISIC_1470934.JPG,235,false,ll,keypress(f),0,true,316233,316232.90000009537,309994.749,310009.10000002384,310011.455,316244.886,1,40,12,
sequence,flow.Sequence,8_11,2023-11-14T19:42:05.275Z,,,,,,,,,,6221.445000095351,completion,,,,,,,high,low,,,,,,false,,,,true,316233.10000002384,316232.90000009537,309994.749,310009.10000002384,310011.455,316244.886,1,40,,
trial,html.Screen,8_12_0,2023-11-14T19:42:11.579Z,,,,2,0.0116094682222121,-0.0258434522530318,,false,hh,6292.014000095369,response,0.6077361298541321,0.4579677804906325,-0.7499999999999996,0.6008438634644336,0.6499999999999995,-0.5999999999999994,high,high,,ISIC_9239632.JPG,,ISIC_9462979.JPG,359,false,hl,keypress(j),0,true,322537.10000002384,322536.90000009537,316227.916,316233.2000000477,316244.886,322544.867,1,40,13,
sequence,flow.Sequence,8_12,2023-11-14T19:42:11.580Z,,,,,,,,,,6292.014000095369,completion,,,,,,,high,high,,,,,,false,,,,true,322537.3000000715,322536.90000009537,316227.916,316233.2000000477,316244.886,322544.867,1,40,,
trial,html.Screen,8_13_0,2023-11-14T19:42:16.923Z,,,,2,-0.0693466529227737,-0.044703434393184,,false,hl,5335.933000071498,response,0.3994161722191028,0.4579677804906325,-0.6999999999999995,-0.6593765699805005,0.6499999999999995,-0.5499999999999994,high,low,,ISIC_0004217.JPG,,ISIC_1644520.JPG,266,false,hh,keypress(i),0,true,327880.90000009537,327880.8000000715,322527.918,322537.3000000715,322544.867,327894.77,1,40,14,
sequence,flow.Sequence,8_13,2023-11-14T19:42:16.923Z,,,,,,,,,,5335.933000071498,completion,,,,,,,high,low,,,,,,false,,,,true,327881.2000000477,327880.8000000715,322527.918,322537.3000000715,322544.867,327894.77,1,40,,
trial,html.Screen,8_14_0,2023-11-14T19:42:23.324Z,,,,2,0.0217698886732706,-0.0410870915161425,,false,ll,6386.430000047665,response,-0.5834936955213118,0.4579677804906325,-0.6499999999999995,-0.4745003506764254,0.5999999999999994,-0.5499999999999994,low,low,,ISIC_0072173.JPG,,ISIC_6444989.JPG,410,false,lh,keypress(e),0,true,334281.3000000715,334281.2000000477,327877.943,327881.2000000477,327894.77,334294.8,1,40,15,
sequence,flow.Sequence,8_14,2023-11-14T19:42:23.324Z,,,,,,,,,,6386.430000047665,completion,,,,,,,low,low,,,,,,false,,,,true,334281.5,334281.2000000477,327877.943,327881.2000000477,327894.77,334294.8,1,40,,
trial,html.Screen,8_15_0,2023-11-14T19:42:26.859Z,,,,2,0.0640778296621707,0.0387686079545705,,false,lh,3522.3000000238535,response,-0.6508797596167124,0.4579677804906325,-0.6499999999999995,0.5110311550089525,0.5499999999999994,-0.5499999999999994,low,high,,ISIC_0010124.JPG,,ISIC_0034156.JPG,170,false,hh,keypress(i),0,true,337817.2000000477,337817.10000002384,334278.012,334281.60000002384,334294.8,337828.178,1,40,16,
sequence,flow.Sequence,8_15,2023-11-14T19:42:26.860Z,,,,,,,,,,3522.3000000238535,completion,,,,,,,low,high,,,,,,false,,,,true,337817.3000000715,337817.10000002384,334278.012,334281.5,334294.8,337828.178,1,40,,
trial,html.Screen,8_16_0,2023-11-14T19:42:31.227Z,,,,2,0.0511770300585718,0.029030243555971,,false,hl,4356.922000023827,response,0.5212112358000693,0.4579677804906325,-0.6499999999999995,-0.4598581117316851,0.5499999999999994,-0.4999999999999994,high,low,,ISIC_6652978.JPG,,ISIC_2030997.JPG,292,false,ll,keypress(f),0,true,342185.2000000477,342185.10000002384,337811.433,337817.40000009537,337828.178,342194.817,1,40,17,
sequence,flow.Sequence,8_16,2023-11-14T19:42:31.228Z,,,,,,,,,,4356.922000023827,completion,,,,,,,high,low,,,,,,false,,,,true,342185.3000000715,342185.10000002384,337811.433,337817.40000009537,337828.178,342194.817,1,40,,
trial,html.Screen,8_17_0,2023-11-14T19:42:37.756Z,,,,2,,-0.0264544974620926,,false,hh,6518.783000023861,response,0.596107637835005,0.4579677804906325,-0.5999999999999994,0.4859283493892242,0.4999999999999994,-0.4999999999999994,high,high,,ISIC_0056991.JPG,,ISIC_0054932.JPG,413,false,lh,keypress(e),0,true,348713.8000000715,348713.60000002384,342178.016,342185.40000009537,342194.817,348728.149,1,40,18,
sequence,flow.Sequence,8_17,2023-11-14T19:42:37.756Z,,,,,,,,,,6518.783000023861,completion,,,,,,,high,high,,,,,,false,,,,true,348714,348713.60000002384,342178.016,342185.40000009537,342194.817,348728.149,1,40,,
trial,html.Screen,8_18_0,2023-11-14T19:42:45.355Z,,,,2,-0.0277178575053843,0.0395587463147856,,true,lh,7584.751000095392,response,-0.3786463067547965,0.4579677804906325,-0.5499999999999994,0.3804492366891236,0.4999999999999994,-0.4999999999999994,low,high,,ISIC_0010807.JPG,,ISIC_0027406.JPG,214,false,lh,keypress(e),0,true,356313.10000002384,356312.90000009537,348711.268,348714.2000000477,348728.149,356328.473,1,40,19,
sequence,flow.Sequence,8_18,2023-11-14T19:42:45.356Z,,,,,,,,,,7584.751000095392,completion,,,,,,,low,high,,,,,,false,,,,true,356313.3000000715,356312.90000009537,348711.268,348714.10000002384,348728.149,356328.473,1,40,,
trial,html.Screen,8_19_0,2023-11-14T19:42:52.139Z,,,,2,0.0336891949856763,0.060314732178219,,false,ll,6768.427000095369,response,-0.404609657346472,0.4579677804906325,-0.4999999999999994,-0.3333374943928823,0.4499999999999994,-0.4999999999999994,low,low,,ISIC_6192289.JPG,,ISIC_8168598.JPG,472,false,hl,keypress(j),0,true,363097,363096.90000009537,356311.255,356313.5,356328.473,363111.582,1,40,20,
sequence,flow.Sequence,8_19,2023-11-14T19:42:52.139Z,,,,,,,,,,6768.427000095369,completion,,,,,,,low,low,,,,,,false,,,,true,363097.2000000477,363096.90000009537,356311.255,356313.3000000715,356328.473,363111.582,1,40,,
trial,html.Screen,8_20_0,2023-11-14T19:42:57.419Z,,,,2,-0.013431314305098,0.0140597582944232,,false,hh,5265.318000095373,response,0.3935665671688059,0.4579677804906325,-0.4999999999999994,0.5227281111697483,0.4499999999999994,-0.4999999999999994,high,high,,ISIC_0069617.JPG,,ISIC_4131697.JPG,411,false,ll,keypress(f),0,true,368377.10000002384,368376.90000009537,363094.625,363097.3000000715,363111.582,368395.493,1,40,21,
sequence,flow.Sequence,8_20,2023-11-14T19:42:57.419Z,,,,,,,,,,5265.318000095373,completion,,,,,,,high,high,,,,,,false,,,,true,368377.10000002384,368376.90000009537,363094.625,363097.2000000477,363111.582,368395.493,1,40,,
trial,html.Screen,8_21_0,2023-11-14T19:43:04.364Z,,,,2,0.0651705891246238,-0.0394586219902573,,true,lh,6925.907000095351,response,-0.3545500276947675,0.4579677804906325,-0.4999999999999994,0.399878549560082,0.4999999999999994,-0.4999999999999994,low,high,,ISIC_0013491.JPG,,ISIC_0262770.JPG,237,false,lh,keypress(e),0,true,375321.5,375321.40000009537,368361.329,368377.2000000477,368395.493,375328.194,1,40,22,
sequence,flow.Sequence,8_21,2023-11-14T19:43:04.364Z,,,,,,,,,,6925.907000095351,completion,,,,,,,low,high,,,,,,false,,,,true,375321.7000000477,375321.40000009537,368361.329,368377.2000000477,368395.493,375328.194,1,40,,
trial,html.Screen,8_22_0,2023-11-14T19:43:08.363Z,,,,2,-0.0265457942157377,-0.0704357137706731,,true,hh,3992.8059999999823,response,0.5569965787291464,0.4579677804906325,-0.4999999999999994,0.3911026469057897,0.4999999999999994,-0.4999999999999994,high,high,,ISIC_3123377.JPG,,ISIC_0061418.JPG,413,false,hh,keypress(i),0,true,379321,379321,375311.282,375321.90000009537,375328.194,379328.228,1,40,23,
sequence,flow.Sequence,8_22,2023-11-14T19:43:08.363Z,,,,,,,,,,3992.8059999999823,completion,,,,,,,high,high,,,,,,false,,,,true,379321.10000002384,379321,375311.282,375321.8000000715,375328.194,379328.228,1,40,,
trial,html.Screen,8_23_0,2023-11-14T19:43:12.059Z,,,,2,0.0456515796420274,-0.0273567130070961,,false,ll,3688.972000047681,response,-0.5870242766180016,0.4579677804906325,-0.4999999999999994,-0.4459635976609659,0.4499999999999994,-0.4999999999999994,low,low,,ISIC_0068610.JPG,,ISIC_0031438.JPG,472,false,hl,keypress(j),0,true,383017.40000009537,383017.2000000477,379311.417,379321.2000000477,379328.228,383028.444,1,40,24,
sequence,flow.Sequence,8_23,2023-11-14T19:43:12.060Z,,,,,,,,,,3688.972000047681,completion,,,,,,,low,low,,,,,,false,,,,true,383017.60000002384,383017.2000000477,379311.417,379321.2000000477,379328.228,383028.444,1,40,,
trial,html.Screen,8_24_0,2023-11-14T19:43:19.467Z,,,,2,-0.0644357632656846,-0.0501167370292348,,false,hh,7396.856000071508,response,0.385018853881668,0.4579677804906325,-0.4999999999999994,0.4651932234717292,0.4499999999999994,-0.4999999999999994,high,high,,ISIC_5207050.JPG,,ISIC_5157799.JPG,411,false,ll,keypress(f),0,true,390425.40000009537,390425.3000000715,383011.444,383017.60000002384,383028.444,390428.194,1,40,25,
sequence,flow.Sequence,8_24,2023-11-14T19:43:19.468Z,,,,,,,,,,7396.856000071508,completion,,,,,,,high,high,,,,,,false,,,,true,390425.5,390425.3000000715,383011.444,383017.60000002384,383028.444,390428.194,1,40,,
trial,html.Screen,8_25_0,2023-11-14T19:43:21.627Z,,,,2,0.0085520978188085,-0.0464691161264081,,false,lh,2156.906000023824,response,-0.6431134439398913,0.4579677804906325,-0.4999999999999994,0.3493500091403971,0.4999999999999994,-0.4999999999999994,low,high,,ISIC_0758797.JPG,,ISIC_0026155.JPG,237,false,ll,keypress(f),0,true,392585.3000000715,392585.10000002384,390411.311,390425.60000002384,390428.194,392594.952,1,40,26,
sequence,flow.Sequence,8_25,2023-11-14T19:43:21.628Z,,,,,,,,,,2156.906000023824,completion,,,,,,,low,high,,,,,,false,,,,true,392585.5,392585.10000002384,390411.311,390425.60000002384,390428.194,392594.952,1,40,,
trial,html.Screen,8_26_0,2023-11-14T19:43:26.828Z,,,,2,-0.0531672914703651,0.0074883925434357,,false,hh,5190.348000071535,response,0.6066507471217834,0.4579677804906325,-0.4999999999999994,0.6505741731446649,0.4999999999999994,-0.4999999999999994,high,high,,ISIC_4177043.JPG,,ISIC_0068215.JPG,413,false,hl,keypress(j),0,true,397785.40000009537,397785.3000000715,392578.181,392585.5,392594.952,397794.95,1,40,27,
sequence,flow.Sequence,8_26,2023-11-14T19:43:26.828Z,,,,,,,,,,5190.348000071535,completion,,,,,,,high,high,,,,,,false,,,,true,397785.60000002384,397785.3000000715,392578.181,392585.5,392594.952,397794.95,1,40,,
trial,html.Screen,8_27_0,2023-11-14T19:43:31.131Z,,,,2,-0.0097091270150747,0.0417921315885292,,false,hl,4293.950000095356,response,0.567192431978229,0.4579677804906325,-0.4999999999999994,-0.5286504830685604,0.4999999999999994,-0.4999999999999994,high,low,,ISIC_3967213.JPG,,ISIC_7482149.JPG,292,false,hh,keypress(i),0,true,402089.10000002384,402088.90000009537,397778.05,397785.7000000477,397794.95,402094.879,1,40,28,
sequence,flow.Sequence,8_27,2023-11-14T19:43:31.131Z,,,,,,,,,,4293.950000095356,completion,,,,,,,high,low,,,,,,false,,,,true,402089.10000002384,402088.90000009537,397778.05,397785.60000002384,397794.95,402094.879,1,40,,
trial,html.Screen,8_28_0,2023-11-14T19:43:33.787Z,,,,2,-0.0277178575053843,0.0395587463147856,,true,ll,2650.2210000238265,response,-0.5994999407154042,0.4579677804906325,-0.4999999999999994,-0.4222647277796213,0.4999999999999994,-0.4999999999999994,low,low,,ISIC_0010807.JPG,,ISIC_8609756.JPG,472,false,ll,keypress(f),0,true,404745.2000000477,404745.10000002384,402078.135,402089.2000000477,402094.879,404761.579,1,40,29,
sequence,flow.Sequence,8_28,2023-11-14T19:43:33.788Z,,,,,,,,,,2650.2210000238265,completion,,,,,,,low,low,,,,,,false,,,,true,404745.5,404745.10000002384,402078.135,402089.2000000477,402094.879,404761.579,1,40,,
trial,html.Screen,8_29_0,2023-11-14T19:43:38.924Z,,,,2,-0.013431314305098,0.0140597582944232,,false,hl,5119.920999999973,response,0.4081731848106397,0.4579677804906325,-0.5213066923276477,-0.394398283574651,0.4999999999999994,-0.4999999999999994,high,low,,ISIC_0069617.JPG,,ISIC_0013530.JPG,292,false,ll,keypress(f),0,true,409881.60000002384,409881.5,404745.023,404745.5,404761.579,409894.968,1,40,30,
sequence,flow.Sequence,8_29,2023-11-14T19:43:38.924Z,,,,,,,,,,5119.920999999973,completion,,,,,,,high,low,,,,,,false,,,,true,409881.8000000715,409881.5,404745.023,404745.5,404761.579,409894.968,1,40,,
trial,html.Screen,8_30_0,2023-11-14T19:43:43.324Z,,,,2,0.0070725527271049,0.0049995141077508,,true,ll,4386.832000071532,response,-0.6066953483405253,0.4579677804906325,-0.4713066923276477,-0.3289798366454178,0.4999999999999994,-0.4999999999999994,low,low,,ISIC_6124481.JPG,,ISIC_9308275.JPG,486,false,ll,keypress(f),0,true,414282,414281.8000000715,409878.109,409882,409894.968,414295.027,1,40,31,
sequence,flow.Sequence,8_30,2023-11-14T19:43:43.324Z,,,,,,,,,,4386.832000071532,completion,,,,,,,low,low,,,,,,false,,,,true,414282.3000000715,414281.8000000715,409878.109,409882,409894.968,414295.027,1,40,,
trial,html.Screen,8_31_0,2023-11-14T19:43:47.292Z,,,,2,0.0640778296621707,0.0387686079545705,,false,hl,3954.3730000953656,response,0.6239946820449903,0.4579677804906325,-0.4713066923276477,-0.5853354799445075,0.4999999999999994,-0.4499999999999994,high,low,,ISIC_0010124.JPG,,ISIC_6126554.JPG,314,false,hh,keypress(i),0,true,418249.60000002384,418249.40000009537,414278.118,414282.5,414295.027,418261.6,1,40,32,
sequence,flow.Sequence,8_31,2023-11-14T19:43:47.292Z,,,,,,,,,,3954.3730000953656,completion,,,,,,,high,low,,,,,,false,,,,true,418249.7000000477,418249.40000009537,414278.118,414282.40000009537,414295.027,418261.6,1,40,,
trial,html.Screen,8_32_0,2023-11-14T19:43:53.899Z,,,,2,0.039728379742806,-0.0228701131373768,,false,hh,6595.200000071549,response,0.5229810314393588,0.4579677804906325,-0.4713066923276477,0.3070144830155926,0.4999999999999994,-0.4999999999999994,high,high,,ISIC_0054073.JPG,,ISIC_0058432.JPG,413,false,hl,keypress(j),0,true,424856.90000009537,424856.8000000715,418244.794,418249.8000000715,418261.6,424861.689,1,40,33,
sequence,flow.Sequence,8_32,2023-11-14T19:43:53.899Z,,,,,,,,,,6595.200000071549,completion,,,,,,,high,high,,,,,,false,,,,true,424857.10000002384,424856.8000000715,418244.794,418249.8000000715,418261.6,424861.689,1,40,,
trial,html.Screen,8_33_0,2023-11-14T19:43:59.771Z,,,,2,0.0247880219471745,-0.0687761754603142,,true,hh,5867.411000023829,response,0.5669824943043854,0.4579677804906325,-0.4713066923276477,0.4859915943840091,0.4999999999999994,-0.4999999999999994,high,high,,ISIC_0031745.JPG,,ISIC_0069865.JPG,413,false,hh,keypress(i),0,true,430729.2000000477,430729.10000002384,424844.761,424857.10000002384,424861.689,430744.992,1,40,34,
sequence,flow.Sequence,8_33,2023-11-14T19:43:59.771Z,,,,,,,,,,5867.411000023829,completion,,,,,,,high,high,,,,,,false,,,,true,430729.40000009537,430729.10000002384,424844.761,424857.10000002384,424861.689,430744.992,1,40,,
trial,html.Screen,8_34_0,2023-11-14T19:44:03.996Z,,,,2,-0.0362376068089956,-0.047825070846155,,true,hh,4209.108000023814,response,0.475529054131071,0.49498176287187207,-0.4713066923276477,0.3677874493415189,0.4999999999999994,-0.4999999999999994,high,high,,ISIC_6985114.JPG,,ISIC_0028755.JPG,409,false,hh,keypress(i),0,true,434954.40000009537,434954.10000002384,430728.051,430729.40000009537,430744.992,434961.559,1,40,35,
sequence,flow.Sequence,8_34,2023-11-14T19:44:03.997Z,,,,,,,,,,4209.108000023814,completion,,,,,,,high,high,,,,,,false,,,,true,434954.8000000715,434954.10000002384,430728.051,430729.40000009537,430744.992,434961.559,1,40,,
trial,html.Screen,8_35_0,2023-11-14T19:44:09.356Z,,,,2,-0.0112310719058792,0.0469047359904117,,true,ll,5352.341000095359,response,-0.6404977507612993,0.49498176287187207,-0.4713066923276477,-0.5373542973990367,0.4499999999999994,-0.4999999999999994,low,low,,ISIC_0068184.JPG,,ISIC_2299862.JPG,486,false,ll,keypress(f),0,true,440314.10000002384,440313.90000009537,434944.806,434954.90000009537,434961.559,440328.284,1,40,36,
sequence,flow.Sequence,8_35,2023-11-14T19:44:09.356Z,,,,,,,,,,5352.341000095359,completion,,,,,,,low,low,,,,,,false,,,,true,440314.60000002384,440313.90000009537,434944.806,434954.90000009537,434961.559,440328.284,1,40,,
trial,html.Screen,8_36_0,2023-11-14T19:44:13.275Z,,,,2,-0.000047919190197942736,-0.0462652940855003,,false,hl,3904.4160000476986,response,0.5974094288948895,0.49498176287187207,-0.5235965495509123,-0.3563142854781109,0.4499999999999994,-0.4999999999999994,high,low,,ISIC_0011507.JPG,,ISIC_0067550.JPG,274,false,ll,keypress(f),0,true,444232.8000000715,444232.7000000477,440311.455,440314.90000009537,440328.284,444244.974,1,40,37,
sequence,flow.Sequence,8_36,2023-11-14T19:44:13.275Z,,,,,,,,,,3904.4160000476986,completion,,,,,,,high,low,,,,,,false,,,,true,444232.90000009537,444232.7000000477,440311.455,440314.8000000715,440328.284,444244.974,1,40,,
trial,html.Screen,8_37_0,2023-11-14T19:44:18.860Z,,,,2,-0.0112310719058792,0.0469047359904117,,false,ll,5572.626000023854,response,-0.2823632717592526,0.49498176287187207,-0.4735965495509123,-0.6994782187100035,0.4499999999999994,-0.4999999999999994,low,low,,ISIC_0068184.JPG,,ISIC_5578239.JPG,488,false,hl,keypress(j),0,true,449817.7000000477,449817.60000002384,444228.23,444232.90000009537,444244.974,449828.359,1,40,38,
sequence,flow.Sequence,8_37,2023-11-14T19:44:18.860Z,,,,,,,,,,5572.626000023854,completion,,,,,,,low,low,,,,,,false,,,,true,449817.8000000715,449817.60000002384,444228.23,444232.90000009537,444244.974,449828.359,1,40,,
trial,html.Screen,8_38_0,2023-11-14T19:44:25.115Z,,,,2,0.0111354529246037,-0.0585810480909377,,false,hl,6244.841000047687,response,0.322290804636954,0.49498176287187207,-0.4735965495509123,-0.6577775314675233,0.4499999999999994,-0.4999999999999994,high,low,,ISIC_7858034.JPG,,ISIC_9453737.JPG,274,false,ll,keypress(f),0,true,456073.40000009537,456073.2000000477,449811.441,449817.8000000715,449828.359,456078.277,1,40,39,
sequence,flow.Sequence,8_38,2023-11-14T19:44:25.115Z,,,,,,,,,,6244.841000047687,completion,,,,,,,high,low,,,,,,false,,,,true,456073.5,456073.2000000477,449811.441,449817.8000000715,449828.359,456078.277,1,40,,
trial,html.Screen,8_39_0,2023-11-14T19:44:30.940Z,,,,2,0.0336891949856763,0.060314732178219,,true,lh,5819.123000095366,response,-0.3259318753021484,0.49498176287187207,-0.4735965495509123,0.5268541033080582,0.4499999999999994,-0.4999999999999994,low,high,,ISIC_6192289.JPG,,ISIC_4247149.JPG,260,false,lh,keypress(e),0,true,461897.7000000477,461897.40000009537,456061.44,456073.60000002384,456078.277,461911.684,1,40,40,
sequence,flow.Sequence,8_39,2023-11-14T19:44:30.940Z,,,,,,,,,,5819.123000095366,completion,,,,,,,low,high,,,,,,false,,,,true,461897.90000009537,461897.40000009537,456061.44,456073.60000002384,456078.277,461911.684,1,40,,
stair_loop,flow.Loop,8,2023-11-14T19:44:30.940Z,,,,,,,,,,219119.34300009537,completion,,,,,,,,,,,,,,false,,,,true,461898,461897.40000009537,242761.503,242777.20000004768,242778.057,461911.684,1,40,,
exp_instructions,html.Screen,9,2023-11-14T19:44:39.067Z,,,,,,,,,,8112.716000095359,response,,,,,,,,,,,,,,,continue,keypress(Space),,,470024.8000000715,470024.40000009537,461894.773,461898.2000000477,461911.684,470028.247,,,,
trial,html.Screen,10_0_0,2023-11-14T19:44:43.085Z,,,,1,-0.0348234368746005,0.0236866303880924,,true,ll,4015.253000000026,response,-0.4996236832406101,0.4690719752050043,-0.4896766522248589,-0.594029736179615,0.47999999999999937,-0.49749999999999944,low,low,,ISIC_0011099.JPG,9,ISIC_8287726.JPG,485,false,ll,keypress(f),0,false,474043.60000002384,474043.5,470011.346,470024.90000009537,470028.247,474062.598,4,500,1,
break,html.Screen,10_0_1,2023-11-14T19:44:43.086Z,,,,,,,,,,NaN,,,,,,,,low,low,,,,,,false,,,,false,474044,474043.90000009537,,474043.60000002384,,474062.598,4,500,,
break_continue,html.Screen,10_0_2,2023-11-14T19:44:43.086Z,,,,,,,,,,NaN,,,,,,,,low,low,,,,,,false,,,,false,474044.2000000477,474044.10000002384,,474044,,474062.598,4,500,,
sequence,flow.Sequence,10_0,2023-11-14T19:44:43.086Z,,,,,,,,,,4015.853000023868,completion,,,,,,,low,low,,,,,,false,,,,false,474044.2000000477,474044.10000002384,470011.346,470024.90000009537,470028.247,474062.598,4,500,,
trial,html.Screen,10_1_0,2023-11-14T19:44:47.195Z,,,,1,-0.0546386976779619,0.0448724759283131,,false,ll,4090.3020000953693,response,-0.3632852580882151,0.4690719752050043,-0.4896766522248589,-0.6177394719872319,0.47999999999999937,-0.49749999999999944,low,low,,ISIC_6722934.JPG,9,ISIC_2910705.JPG,485,false,hh,keypress(i),0,false,478153.10000002384,478152.90000009537,474028.241,474044.40000009537,474062.598,478161.656,4,500,2,
break,html.Screen,10_1_1,2023-11-14T19:44:47.195Z,,,,,,,,,,NaN,,,,,,,,low,low,,,,,,false,,,,false,478153.5,478153.40000009537,,478153.2000000477,,478161.656,4,500,,
break_continue,html.Screen,10_1_2,2023-11-14T19:44:47.196Z,,,,,,,,,,NaN,,,,,,,,low,low,,,,,,false,,,,false,478153.7000000477,478153.60000002384,,478153.60000002384,,478161.656,4,500,,
sequence,flow.Sequence,10_1,2023-11-14T19:44:47.196Z,,,,,,,,,,4091.0020000238437,completion,,,,,,,low,low,,,,,,false,,,,false,478153.7000000477,478153.60000002384,474028.241,474044.40000009537,474062.598,478161.656,4,500,,
trial,html.Screen,10_2_0,2023-11-14T19:44:50.634Z,,,,1,-0.0516762988734011,0.0130195499281172,,true,ll,3430.8439999999828,response,-0.4196608315785844,0.4690719752050043,-0.4896766522248589,-0.4096076975363641,0.47999999999999937,-0.49749999999999944,low,low,,ISIC_9978498.JPG,8,ISIC_2260249.JPG,485,false,ll,keypress(f),0,false,481592.60000002384,481592.5,478144.914,478153.8000000715,478161.656,481595.007,4,500,3,
break,html.Screen,10_2_1,2023-11-14T19:44:50.635Z,,,,,,,,,,NaN,,,,,,,,low,low,,,,,,false,,,,false,481593,481592.90000009537,,481592.7000000477,,481595.007,4,500,,
break_continue,html.Screen,10_2_2,2023-11-14T19:44:50.635Z,,,,,,,,,,NaN,,,,,,,,low,low,,,,,,false,,,,false,481593.2000000477,481593.10000002384,,481593,,481595.007,4,500,,
sequence,flow.Sequence,10_2,2023-11-14T19:44:50.635Z,,,,,,,,,,3431.4440000238246,completion,,,,,,,low,low,,,,,,false,,,,false,481593.2000000477,481593.10000002384,478144.914,478153.7000000477,478161.656,481595.007,4,500,,
trial,html.Screen,10_3_0,2023-11-14T19:44:54.555Z,,,,1,-0.0102460616775615,0.0309670599545429,,false,hl,3918.0930000238586,response,0.4984714219541096,0.4690719752050043,-0.4896766522248589,-0.4934141394852971,0.47999999999999937,-0.49749999999999944,high,low,,ISIC_0072041.JPG,10,ISIC_0016043.JPG,286,false,ll,keypress(f),0,false,485513.3000000715,485513.10000002384,481578.512,481593.3000000715,481595.007,485528.332,4,500,4,
break,html.Screen,10_3_1,2023-11-14T19:44:54.555Z,,,,,,,,,,NaN,,,,,,,,high,low,,,,,,false,,,,false,485513.8000000715,485513.8000000715,,485513.5,,485528.332,4,500,,
break_continue,html.Screen,10_3_2,2023-11-14T19:44:54.556Z,,,,,,,,,,NaN,,,,,,,,high,low,,,,,,false,,,,false,485514.10000002384,485514,,485513.90000009537,,485528.332,4,500,,
sequence,flow.Sequence,10_3,2023-11-14T19:44:54.556Z,,,,,,,,,,3918.9930000000168,completion,,,,,,,high,low,,,,,,false,,,,false,485514.2000000477,485514,481578.512,481593.2000000477,481595.007,485528.332,4,500,,
trial,html.Screen,10_4_0,2023-11-14T19:45:00.091Z,,,,1,-0.0737104822171846,0.0725320314728604,,true,hh,5520.868000047689,response,0.5871163132085091,0.4690719752050043,-0.4896766522248589,0.5253022164815413,0.47999999999999937,-0.49749999999999944,high,high,,ISIC_0002862.JPG,9,ISIC_2500254.JPG,408,false,hh,keypress(i),0,false,491049.3000000715,491049.2000000477,485511.663,485514.2000000477,485528.332,491061.643,4,500,5,
break,html.Screen,10_4_1,2023-11-14T19:45:00.091Z,,,,,,,,,,NaN,,,,,,,,high,high,,,,,,false,,,,false,491049.7000000477,491049.60000002384,,491049.40000009537,,491061.643,4,500,,
break_continue,html.Screen,10_4_2,2023-11-14T19:45:00.092Z,,,,,,,,,,NaN,,,,,,,,high,high,,,,,,false,,,,false,491049.90000009537,491049.8000000715,,491049.8000000715,,491061.643,4,500,,
sequence,flow.Sequence,10_4,2023-11-14T19:45:00.092Z,,,,,,,,,,5521.468000071531,completion,,,,,,,high,high,,,,,,false,,,,false,491050,491049.8000000715,485511.663,485514.2000000477,485528.332,491061.643,4,500,,
trial,html.Screen,10_5_0,2023-11-14T19:45:06.523Z,,,,1,-0.0149482827359613,0.0661630859332833,,false,hh,6419.95700002386,response,0.3654680925998517,0.4690719752050043,-0.4896766522248589,0.5904528626733562,0.47999999999999937,-0.49749999999999944,high,high,,ISIC_6815524.JPG,9,ISIC_9865097.JPG,408,false,hl,keypress(j),0,false,497481.8000000715,497481.60000002384,491044.953,491050,491061.643,497495.029,4,500,6,
break,html.Screen,10_5_1,2023-11-14T19:45:06.524Z,,,,,,,,,,NaN,,,,,,,,high,high,,,,,,false,,,,false,497482.5,497482.40000009537,,497482.10000002384,,497495.029,4,500,,
break_continue,html.Screen,10_5_2,2023-11-14T19:45:06.525Z,,,,,,,,,,NaN,,,,,,,,high,high,,,,,,false,,,,false,497482.90000009537,497482.8000000715,,497482.60000002384,,497495.029,4,500,,
sequence,flow.Sequence,10_5,2023-11-14T19:45:06.525Z,,,,,,,,,,6421.157000071544,completion,,,,,,,high,high,,,,,,false,,,,false,497483.10000002384,497482.8000000715,491044.953,491050,491061.643,497495.029,4,500,,
trial,html.Screen,10_6_0,2023-11-14T19:45:09.643Z,,,,1,-0.0097091270150747,0.0417921315885292,,false,hl,3106.0710000238614,response,0.2710739913045424,0.4690719752050043,-0.4896766522248589,-0.6469784776630937,0.47999999999999937,-0.49749999999999944,high,low,,ISIC_3967213.JPG,9,ISIC_8917755.JPG,286,false,hh,keypress(i),0,false,500601.2000000477,500601.10000002384,497478.277,497483.2000000477,497495.029,500611.97,4,500,7,
break,html.Screen,10_6_1,2023-11-14T19:45:09.643Z,,,,,,,,,,NaN,,,,,,,,high,low,,,,,,false,,,,false,500601.40000009537,500601.40000009537,,500601.3000000715,,500611.97,4,500,,
break_continue,html.Screen,10_6_2,2023-11-14T19:45:09.643Z,,,,,,,,,,NaN,,,,,,,,high,low,,,,,,false,,,,false,500601.7000000477,500601.60000002384,,500601.60000002384,,500611.97,4,500,,
sequence,flow.Sequence,10_6,2023-11-14T19:45:09.643Z,,,,,,,,,,3106.5710000238614,completion,,,,,,,high,low,,,,,,false,,,,false,500601.8000000715,500601.60000002384,497478.277,497483.2000000477,497495.029,500611.97,4,500,,
trial,html.Screen,10_7_0,2023-11-14T19:45:16.091Z,,,,1,-0.0691769743257167,0.0638501824668941,,true,ll,6437.3300000715535,response,-0.3054702873986648,0.4690719752050043,-0.4896766522248589,-0.4159205658803586,0.47999999999999937,-0.49749999999999944,low,low,,ISIC_0031914.JPG,9,ISIC_0031807.JPG,485,false,ll,keypress(f),0,false,507049.40000009537,507049.3000000715,500595.008,500601.8000000715,500611.97,507061.726,4,500,8,
break,html.Screen,10_7_1,2023-11-14T19:45:16.091Z,,,,,,,,,,NaN,,,,,,,,low,low,,,,,,false,,,,false,507049.8000000715,507049.7000000477,,507049.60000002384,,507061.726,4,500,,
break_continue,html.Screen,10_7_2,2023-11-14T19:45:16.092Z,,,,,,,,,,NaN,,,,,,,,low,low,,,,,,false,,,,false,507050,507050,,507049.90000009537,,507061.726,4,500,,
sequence,flow.Sequence,10_7,2023-11-14T19:45:16.092Z,,,,,,,,,,6438.030000000028,completion,,,,,,,low,low,,,,,,false,,,,false,507050.10000002384,507050,500595.008,500601.8000000715,500611.97,507061.726,4,500,,
trial,html.Screen,10_8_0,2023-11-14T19:45:22.555Z,,,,1,-0.0051189696037511,0.0396625911332438,,false,hl,6451.074000071501,response,0.56455440688264,0.4690719752050043,-0.4896766522248589,-0.5097890718794723,0.47999999999999937,-0.49749999999999944,high,low,,ISIC_9742891.JPG,10,ISIC_8108870.JPG,286,false,ll,keypress(f),0,false,513512.90000009537,513512.8000000715,507045.16,507050.2000000477,507061.726,513528.404,4,500,9,
break,html.Screen,10_8_1,2023-11-14T19:45:22.555Z,,,,,,,,,,NaN,,,,,,,,high,low,,,,,,false,,,,false,513513.3000000715,513513.2000000477,,513513,,513528.404,4,500,,
break_continue,html.Screen,10_8_2,2023-11-14T19:45:22.555Z,,,,,,,,,,NaN,,,,,,,,high,low,,,,,,false,,,,false,513513.5,513513.40000009537,,513513.40000009537,,513528.404,4,500,,
sequence,flow.Sequence,10_8,2023-11-14T19:45:22.555Z,,,,,,,,,,6451.674000095343,completion,,,,,,,high,low,,,,,,false,,,,false,513513.5,513513.40000009537,507045.16,507050.2000000477,507061.726,513528.404,4,500,,
trial,html.Screen,10_9_0,2023-11-14T19:45:30.331Z,,,,1,-0.0188047466661863,0.0288346930436979,,false,ll,7760.796000047703,response,-0.5721298477147291,0.4690719752050043,-0.4896766522248589,-0.3243671709837958,0.47999999999999937,-0.49749999999999944,low,low,,ISIC_0014157.JPG,10,ISIC_0054318.JPG,485,false,hl,keypress(j),0,false,521289.5,521289.2000000477,513511.811,513513.60000002384,513528.404,521295.002,4,500,10,
break,html.Screen,10_9_1,2023-11-14T19:45:30.332Z,,,,,,,,,,NaN,,,,,,,,low,low,,,,,,false,,,,false,521290,521289.8000000715,,521289.60000002384,,521295.002,4,500,,
break_continue,html.Screen,10_9_2,2023-11-14T19:45:30.332Z,,,,,,,,,,NaN,,,,,,,,low,low,,,,,,false,,,,false,521290.2000000477,521290.2000000477,,521290,,521295.002,4,500,,
sequence,flow.Sequence,10_9,2023-11-14T19:45:30.332Z,,,,,,,,,,7761.796000047703,completion,,,,,,,low,low,,,,,,false,,,,false,521290.40000009537,521290.2000000477,513511.811,513513.60000002384,513528.404,521295.002,4,500,,
trial,html.Screen,10_10_0,2023-11-14T19:45:35.482Z,,,,1,0.0363437082783146,0.0333332186217051,,false,hh,5145.698000047705,response,0.3645878698463521,0.4690719752050043,-0.4896766522248589,0.3733540154987655,0.47999999999999937,-0.49749999999999944,high,high,,ISIC_3314555.JPG,9,ISIC_6672654.JPG,408,false,lh,keypress(e),0,false,526440.8000000715,526440.7000000477,521278.268,521290.5,521295.002,526445.039,4,500,11,
break,html.Screen,10_10_1,2023-11-14T19:45:35.483Z,,,,,,,,,,NaN,,,,,,,,high,high,,,,,,false,,,,false,526441.2000000477,526441.1000000238,,526440.9000000954,,526445.039,4,500,,
break_continue,html.Screen,10_10_2,2023-11-14T19:45:35.483Z,,,,,,,,,,NaN,,,,,,,,high,high,,,,,,false,,,,false,526441.4000000954,526441.3000000715,,526441.2000000477,,526445.039,4,500,,
sequence,flow.Sequence,10_10,2023-11-14T19:45:35.483Z,,,,,,,,,,5146.298000071547,completion,,,,,,,high,high,,,,,,false,,,,false,526441.5,526441.3000000715,521278.268,521290.5,521295.002,526445.039,4,500,,
trial,html.Screen,10_11_0,2023-11-14T19:45:38.699Z,,,,1,-0.0565575423757561,-0.0394300226801425,,false,lh,3212.261000071536,response,-0.3252101592106969,0.4690719752050043,-0.4896766522248589,0.4431507150502006,0.47999999999999937,-0.49749999999999944,low,high,,ISIC_0046983.JPG,10,ISIC_9699728.JPG,253,false,ll,keypress(f),0,false,529657.4000000954,529657.3000000715,526428.32,526441.6000000238,526445.039,529661.669,4,500,12,
break,html.Screen,10_11_1,2023-11-14T19:45:38.699Z,,,,,,,,,,NaN,,,,,,,,low,high,,,,,,false,,,,false,529657.7000000477,529657.7000000477,,529657.5,,529661.669,4,500,,
break_continue,html.Screen,10_11_2,2023-11-14T19:45:38.700Z,,,,,,,,,,NaN,,,,,,,,low,high,,,,,,false,,,,false,529657.9000000954,529657.9000000954,,529657.9000000954,,529661.669,4,500,,
sequence,flow.Sequence,10_11,2023-11-14T19:45:38.700Z,,,,,,,,,,3212.8610000953777,completion,,,,,,,low,high,,,,,,false,,,,false,529658,529657.9000000954,526428.32,526441.6000000238,526445.039,529661.669,4,500,,
trial,html.Screen,10_12_0,2023-11-14T19:45:44.747Z,,,,1,-0.0112310719058792,0.0469047359904117,,true,hh,6043.131000071531,response,0.5115755898500449,0.4690719752050043,-0.4896766522248589,0.4400458565001724,0.47999999999999937,-0.49749999999999944,high,high,,ISIC_0068184.JPG,8,ISIC_0010414.JPG,408,false,hh,keypress(i),0,false,535704.9000000954,535704.8000000715,529644.954,529658.1000000238,529661.669,535711.689,4,500,13,
break,html.Screen,10_12_1,2023-11-14T19:45:44.747Z,,,,,,,,,,NaN,,,,,,,,high,high,,,,,,false,,,,false,535705.3000000715,535705.3000000715,,535705,,535711.689,4,500,,
break_continue,html.Screen,10_12_2,2023-11-14T19:45:44.747Z,,,,,,,,,,NaN,,,,,,,,high,high,,,,,,false,,,,false,535705.4000000954,535705.4000000954,,535705.3000000715,,535711.689,4,500,,
sequence,flow.Sequence,10_12,2023-11-14T19:45:44.747Z,,,,,,,,,,6043.731000095373,completion,,,,,,,high,high,,,,,,false,,,,false,535705.6000000238,535705.4000000954,529644.954,529658.1000000238,529661.669,535711.689,4,500,,
trial,html.Screen,10_13_0,2023-11-14T19:45:51.275Z,,,,1,-0.0051189696037511,0.0396625911332438,,false,hl,6521.411000023829,response,0.4048105393606648,0.4690719752050043,-0.4896766522248589,-0.3472616732151291,0.47999999999999937,-0.49749999999999944,high,low,,ISIC_9742891.JPG,8,ISIC_9210086.JPG,286,false,ll,keypress(f),0,false,542233.1000000238,542233.1000000238,535694.871,535705.6000000238,535711.689,542245.352,4,500,14,
break,html.Screen,10_13_1,2023-11-14T19:45:51.275Z,,,,,,,,,,NaN,,,,,,,,high,low,,,,,,false,,,,false,542233.5,542233.4000000954,,542233.3000000715,,542245.352,4,500,,
break_continue,html.Screen,10_13_2,2023-11-14T19:45:51.275Z,,,,,,,,,,NaN,,,,,,,,high,low,,,,,,false,,,,false,542233.7000000477,542233.6000000238,,542233.5,,542245.352,4,500,,
sequence,flow.Sequence,10_13,2023-11-14T19:45:51.275Z,,,,,,,,,,6521.911000023829,completion,,,,,,,high,low,,,,,,false,,,,false,542233.8000000715,542233.6000000238,535694.871,535705.6000000238,535711.689,542245.352,4,500,,
trial,html.Screen,10_14_0,2023-11-14T19:45:56.396Z,,,,1,0.0194167651857046,0.0726253809408601,,false,lh,5108.548000095412,response,-0.6447697707496328,0.4690719752050043,-0.4896766522248589,0.3432992822003991,0.47999999999999937,-0.49749999999999944,low,high,,ISIC_0056692.JPG,9,ISIC_0056900.JPG,253,false,hh,keypress(i),0,false,547354.1000000238,547353.9000000954,542228.603,542233.8000000715,542245.352,547361.731,4,500,15,
break,html.Screen,10_14_1,2023-11-14T19:45:56.396Z,,,,,,,,,,NaN,,,,,,,,low,high,,,,,,false,,,,false,547355.1000000238,547354.9000000954,,547354.5,,547361.731,4,500,,
break_continue,html.Screen,10_14_2,2023-11-14T19:45:56.397Z,,,,,,,,,,NaN,,,,,,,,low,high,,,,,,false,,,,false,547355.7000000477,547355.5,,547355.3000000715,,547361.731,4,500,,
sequence,flow.Sequence,10_14,2023-11-14T19:45:56.397Z,,,,,,,,,,5110.148000000045,completion,,,,,,,low,high,,,,,,false,,,,false,547356,547355.5,542228.603,542233.8000000715,542245.352,547361.731,4,500,,
trial,html.Screen,10_15_0,2023-11-14T19:46:04.986Z,,,,1,-0.0021038737988857,0.0570427519488725,,false,ll,8583.169000095339,response,-0.3702276760363279,0.4690719752050043,-0.4896766522248589,-0.6045952254527632,0.47999999999999937,-0.49749999999999944,low,low,,ISIC_3596927.JPG,9,ISIC_7888517.JPG,485,false,hl,keypress(j),0,false,555945.1000000238,555944.9000000954,547345.064,547356.3000000715,547361.731,555961.835,4,500,16,
break,html.Screen,10_15_1,2023-11-14T19:46:04.987Z,,,,,,,,,,NaN,,,,,,,,low,low,,,,,,false,,,,false,555945.6000000238,555945.4000000954,,555945.2000000477,,555961.835,4,500,,
break_continue,html.Screen,10_15_2,2023-11-14T19:46:04.987Z,,,,,,,,,,NaN,,,,,,,,low,low,,,,,,false,,,,false,555945.8000000715,555945.7000000477,,555945.6000000238,,555961.835,4,500,,
sequence,flow.Sequence,10_15,2023-11-14T19:46:04.987Z,,,,,,,,,,8583.969000047655,completion,,,,,,,low,low,,,,,,false,,,,false,555945.9000000954,555945.7000000477,547345.064,547356.3000000715,547361.731,555961.835,4,500,,
trial,html.Screen,10_16_0,2023-11-14T19:46:11.019Z,,,,1,-0.0220322185490382,-0.0740918837949419,,true,hh,6015.365000047721,response,0.6354936261668199,0.4690719752050043,-0.4896766522248589,0.4879369490023091,0.47999999999999937,-0.49749999999999944,high,high,,ISIC_8105020.JPG,9,ISIC_0015110.JPG,408,false,hh,keypress(i),0,false,561977.3000000715,561977.2000000477,555945.241,555946,555961.835,561996.072,4,500,17,
break,html.Screen,10_16_1,2023-11-14T19:46:11.019Z,,,,,,,,,,NaN,,,,,,,,high,high,,,,,,false,,,,false,561977.8000000715,561977.7000000477,,561977.4000000954,,561996.072,4,500,,
break_continue,html.Screen,10_16_2,2023-11-14T19:46:11.019Z,,,,,,,,,,NaN,,,,,,,,high,high,,,,,,false,,,,false,561977.9000000954,561977.9000000954,,561977.8000000715,,561996.072,4,500,,
sequence,flow.Sequence,10_16,2023-11-14T19:46:11.019Z,,,,,,,,,,6016.065000095405,completion,,,,,,,high,high,,,,,,false,,,,false,561978,561977.9000000954,555945.241,555946,555961.835,561996.072,4,500,,
trial,html.Screen,10_17_0,2023-11-14T19:46:17.595Z,,,,1,-0.0051189696037511,0.0396625911332438,,true,hl,6557.328000095324,response,0.6522963167509304,0.4690719752050043,-0.4896766522248589,-0.4240130649364615,0.47999999999999937,-0.49749999999999944,high,low,,ISIC_9742891.JPG,9,ISIC_0070422.JPG,286,false,hl,keypress(j),0,false,568553.5,568553.4000000954,561961.856,561978.1000000238,561996.072,568561.799,4,500,18,
break,html.Screen,10_17_1,2023-11-14T19:46:17.595Z,,,,,,,,,,NaN,,,,,,,,high,low,,,,,,false,,,,false,568553.8000000715,568553.7000000477,,568553.7000000477,,568561.799,4,500,,
break_continue,html.Screen,10_17_2,2023-11-14T19:46:17.595Z,,,,,,,,,,NaN,,,,,,,,high,low,,,,,,false,,,,false,568554.1000000238,568554,,568553.9000000954,,568561.799,4,500,,
sequence,flow.Sequence,10_17,2023-11-14T19:46:17.596Z,,,,,,,,,,6557.927999999956,completion,,,,,,,high,low,,,,,,false,,,,false,568554.2000000477,568554,561961.856,561978.1000000238,561996.072,568561.799,4,500,,
trial,html.Screen,10_18_0,2023-11-14T19:46:23.482Z,,,,1,-0.0409338693593207,0.0072462710499874,,false,lh,5879.201000000001,response,-0.4483806693642013,0.4690719752050043,-0.4896766522248589,0.6528125134540648,0.47999999999999937,-0.49749999999999944,low,high,,ISIC_3608788.JPG,9,ISIC_0058658.JPG,253,false,hh,keypress(i),0,false,574441,574441,568544.964,568554.2000000477,568561.799,574445.096,4,500,19,
break,html.Screen,10_18_1,2023-11-14T19:46:23.483Z,,,,,,,,,,NaN,,,,,,,,low,high,,,,,,false,,,,false,574441.4000000954,574441.4000000954,,574441.2000000477,,574445.096,4,500,,
break_continue,html.Screen,10_18_2,2023-11-14T19:46:23.483Z,,,,,,,,,,NaN,,,,,,,,low,high,,,,,,false,,,,false,574441.7000000477,574441.5,,574441.4000000954,,574445.096,4,500,,
sequence,flow.Sequence,10_18,2023-11-14T19:46:23.483Z,,,,,,,,,,5879.701000000001,completion,,,,,,,low,high,,,,,,false,,,,false,574441.7000000477,574441.5,568544.964,568554.2000000477,568561.799,574445.096,4,500,,
trial,html.Screen,10_19_0,2023-11-14T19:46:30.187Z,,,,1,0.0660839342637046,-0.0657899819532072,,false,hl,6700.004000023822,response,0.5831492592873474,0.4690719752050043,-0.4896766522248589,-0.5688781410705407,0.47999999999999937,-0.49749999999999944,high,low,,ISIC_0065477.JPG,9,ISIC_5526879.JPG,286,false,hh,keypress(i),0,false,581145.2000000477,581145.1000000238,574428.345,574441.8000000715,574445.096,581161.803,4,500,20,
break,html.Screen,10_19_1,2023-11-14T19:46:30.187Z,,,,,,,,,,NaN,,,,,,,,high,low,,,,,,false,,,,false,581145.5,581145.4000000954,,581145.2000000477,,581161.803,4,500,,
break_continue,html.Screen,10_19_2,2023-11-14T19:46:30.187Z,,,,,,,,,,NaN,,,,,,,,high,low,,,,,,false,,,,false,581145.7000000477,581145.7000000477,,581145.6000000238,,581161.803,4,500,,
sequence,flow.Sequence,10_19,2023-11-14T19:46:30.187Z,,,,,,,,,,6700.604000047664,completion,,,,,,,high,low,,,,,,false,,,,false,581145.8000000715,581145.7000000477,574428.345,574441.8000000715,574445.096,581161.803,4,500,,
trial,html.Screen,10_20_0,2023-11-14T19:46:38.442Z,,,,1,-0.0102460616775615,0.0309670599545429,,true,hh,8239.097000095411,response,0.399652142780152,0.4690719752050043,-0.4896766522248589,0.3031255860856687,0.47999999999999937,-0.49749999999999944,high,high,,ISIC_0072041.JPG,9,ISIC_1004416.JPG,408,false,hh,keypress(i),0,false,589401,589400.9000000954,581145.02,581145.9000000954,581161.803,589411.752,4,500,21,
break,html.Screen,10_20_1,2023-11-14T19:46:38.443Z,,,,,,,,,,NaN,,,,,,,,high,high,,,,,,false,,,,false,589401.4000000954,589401.3000000715,,589401.1000000238,,589411.752,4,500,,
break_continue,html.Screen,10_20_2,2023-11-14T19:46:38.443Z,,,,,,,,,,NaN,,,,,,,,high,high,,,,,,false,,,,false,589401.6000000238,589401.6000000238,,589401.5,,589411.752,4,500,,
sequence,flow.Sequence,10_20,2023-11-14T19:46:38.443Z,,,,,,,,,,8239.797000023886,completion,,,,,,,high,high,,,,,,false,,,,false,589401.7000000477,589401.6000000238,581145.02,581145.9000000954,581161.803,589411.752,4,500,,
trial,html.Screen,10_21_0,2023-11-14T19:46:42.682Z,,,,1,0.0640778296621707,0.0387686079545705,,false,hl,4228.848000023863,response,0.4478871369774912,0.4690719752050043,-0.4896766522248589,-0.4095005367278012,0.47999999999999937,-0.49749999999999944,high,low,,ISIC_0010124.JPG,9,ISIC_0009993.JPG,286,false,hh,keypress(i),0,false,593640.7000000477,593640.6000000238,589394.924,589401.8000000715,589411.752,593645.078,4,500,22,
break,html.Screen,10_21_1,2023-11-14T19:46:42.683Z,,,,,,,,,,NaN,,,,,,,,high,low,,,,,,false,,,,false,593641.1000000238,593641,,593640.9000000954,,593645.078,4,500,,
break_continue,html.Screen,10_21_2,2023-11-14T19:46:42.683Z,,,,,,,,,,NaN,,,,,,,,high,low,,,,,,false,,,,false,593641.3000000715,593641.3000000715,,593641.2000000477,,593645.078,4,500,,
sequence,flow.Sequence,10_21,2023-11-14T19:46:42.683Z,,,,,,,,,,4229.548000071547,completion,,,,,,,high,low,,,,,,false,,,,false,593641.4000000954,593641.3000000715,589394.924,589401.8000000715,589411.752,593645.078,4,500,,
trial,html.Screen,10_22_0,2023-11-14T19:46:47.834Z,,,,1,0.0450282431170921,,,false,lh,5147.822000095388,response,-0.6035095832778544,0.4690719752050043,-0.4896766522248589,0.3023217702297519,0.47999999999999937,-0.49749999999999944,low,high,,ISIC_1805163.JPG,9,ISIC_0028415.JPG,253,false,ll,keypress(f),0,false,598793.1000000238,598792.9000000954,593628.331,593641.5,593645.078,598795.128,4,500,23,
break,html.Screen,10_22_1,2023-11-14T19:46:47.835Z,,,,,,,,,,NaN,,,,,,,,low,high,,,,,,false,,,,false,598793.4000000954,598793.3000000715,,598793.2000000477,,598795.128,4,500,,
break_continue,html.Screen,10_22_2,2023-11-14T19:46:47.835Z,,,,,,,,,,NaN,,,,,,,,low,high,,,,,,false,,,,false,598793.7000000477,598793.6000000238,,598793.5,,598795.128,4,500,,
sequence,flow.Sequence,10_22,2023-11-14T19:46:47.835Z,,,,,,,,,,5148.522000023862,completion,,,,,,,low,high,,,,,,false,,,,false,598793.7000000477,598793.6000000238,593628.331,593641.5,593645.078,598795.128,4,500,,
trial,html.Screen,10_23_0,2023-11-14T19:46:54.506Z,,,,1,0.0456515796420274,-0.0273567130070961,,false,hl,6669.871999999974,response,0.5250189831182752,0.4690719752050043,-0.4896766522248589,-0.4259473507147961,0.47999999999999937,-0.49749999999999944,high,low,,ISIC_0068610.JPG,10,ISIC_0057898.JPG,286,false,ll,keypress(f),0,false,605465.2000000477,605465,598778.267,598793.8000000715,598795.128,605478.468,4,500,24,
break,html.Screen,10_23_1,2023-11-14T19:46:54.507Z,,,,,,,,,,NaN,,,,,,,,high,low,,,,,,false,,,,false,605465.5,605465.4000000954,,605465.3000000715,,605478.468,4,500,,
break_continue,html.Screen,10_23_2,2023-11-14T19:46:54.507Z,,,,,,,,,,NaN,,,,,,,,high,low,,,,,,false,,,,false,605465.7000000477,605465.7000000477,,605465.6000000238,,605478.468,4,500,,
sequence,flow.Sequence,10_23,2023-11-14T19:46:54.507Z,,,,,,,,,,6670.572000047658,completion,,,,,,,high,low,,,,,,false,,,,false,605465.7000000477,605465.7000000477,598778.267,598793.8000000715,598795.128,605478.468,4,500,,
trial,html.Screen,10_24_0,2023-11-14T19:46:57.195Z,,,,1,-0.0112310719058792,0.0469047359904117,,true,ll,2674.7320000476902,response,-0.3036348560229055,0.4690719752050043,-0.4896766522248589,-0.4306000970589971,0.47999999999999937,-0.49749999999999944,low,low,,ISIC_0068184.JPG,9,ISIC_0027842.JPG,485,false,ll,keypress(f),0,false,608153.3000000715,608153.2000000477,605461.721,605465.8000000715,605478.468,608161.784,4,500,25,
break,html.Screen,10_24_1,2023-11-14T19:46:57.195Z,,,,,,,,,,NaN,,,,,,,,low,low,,,,,,false,,,,false,608153.8000000715,608153.6000000238,,608153.5,,608161.784,4,500,,
break_continue,html.Screen,10_24_2,2023-11-14T19:46:57.195Z,,,,,,,,,,NaN,,,,,,,,low,low,,,,,,false,,,,false,608154,608153.9000000954,,608153.8000000715,,608161.784,4,500,,
sequence,flow.Sequence,10_24,2023-11-14T19:46:57.195Z,,,,,,,,,,2675.432000095374,completion,,,,,,,low,low,,,,,,false,,,,false,608154.2000000477,608153.9000000954,605461.721,605465.8000000715,605478.468,608161.784,4,500,,
trial,html.Screen,10_25_0,2023-11-14T19:47:00.634Z,,,,1,-0.0409338693593207,0.0072462710499874,,true,hh,3431.0160000715405,response,0.4941626073720817,0.4690719752050043,-0.4896766522248589,0.3621976662570163,0.47999999999999937,-0.49749999999999944,high,high,,ISIC_3608788.JPG,9,ISIC_0066358.JPG,408,false,hh,keypress(i),0,false,611592.9000000954,611592.8000000715,608145.024,608154.2000000477,608161.784,611595.109,4,500,26,
break,html.Screen,10_25_1,2023-11-14T19:47:00.634Z,,,,,,,,,,NaN,,,,,,,,high,high,,,,,,false,,,,false,611593.2000000477,611593.1000000238,,611593,,611595.109,4,500,,
break_continue,html.Screen,10_25_2,2023-11-14T19:47:00.635Z,,,,,,,,,,NaN,,,,,,,,high,high,,,,,,false,,,,false,611593.3000000715,611593.3000000715,,611593.2000000477,,611595.109,4,500,,
sequence,flow.Sequence,10_25,2023-11-14T19:47:00.635Z,,,,,,,,,,3431.5160000715405,completion,,,,,,,high,high,,,,,,false,,,,false,611593.4000000954,611593.3000000715,608145.024,608154.2000000477,608161.784,611595.109,4,500,,
trial,html.Screen,10_26_0,2023-11-14T19:47:07.867Z,,,,1,-0.0565575423757561,-0.0394300226801425,,false,lh,7230.091000047629,response,-0.4987447489690255,0.4690719752050043,-0.4896766522248589,0.4274848545361843,0.47999999999999937,-0.49749999999999944,low,high,,ISIC_0046983.JPG,9,ISIC_0065766.JPG,253,false,hl,keypress(j),0,false,618825.3000000715,618825.2000000477,611578.375,611593.5,611595.109,618828.479,4,500,27,
break,html.Screen,10_26_1,2023-11-14T19:47:07.867Z,,,,,,,,,,NaN,,,,,,,,low,high,,,,,,false,,,,false,618825.6000000238,618825.6000000238,,618825.4000000954,,618828.479,4,500,,
break_continue,html.Screen,10_26_2,2023-11-14T19:47:07.867Z,,,,,,,,,,NaN,,,,,,,,low,high,,,,,,false,,,,false,618825.7000000477,618825.7000000477,,618825.6000000238,,618828.479,4,500,,
sequence,flow.Sequence,10_26,2023-11-14T19:47:07.867Z,,,,,,,,,,7230.591000047629,completion,,,,,,,low,high,,,,,,false,,,,false,618825.8000000715,618825.7000000477,611578.375,611593.5,611595.109,618828.479,4,500,,
trial,html.Screen,10_27_0,2023-11-14T19:47:15.738Z,,,,1,-0.0277178575053843,0.0395587463147856,,true,ll,7868.221000047633,response,-0.3043919787221506,0.4690719752050043,-0.4896766522248589,-0.601899097476514,0.47999999999999937,-0.49749999999999944,low,low,,ISIC_0010807.JPG,9,ISIC_3814807.JPG,485,false,ll,keypress(f),0,false,626696.8000000715,626696.7000000477,618811.784,618825.9000000954,618828.479,626711.859,4,500,28,
break,html.Screen,10_27_1,2023-11-14T19:47:15.738Z,,,,,,,,,,NaN,,,,,,,,low,low,,,,,,false,,,,false,626697.1000000238,626697,,626696.9000000954,,626711.859,4,500,,
break_continue,html.Screen,10_27_2,2023-11-14T19:47:15.739Z,,,,,,,,,,NaN,,,,,,,,low,low,,,,,,false,,,,false,626697.3000000715,626697.2000000477,,626697.1000000238,,626711.859,4,500,,
sequence,flow.Sequence,10_27,2023-11-14T19:47:15.739Z,,,,,,,,,,7868.721000047633,completion,,,,,,,low,low,,,,,,false,,,,false,626697.3000000715,626697.2000000477,618811.784,618825.8000000715,618828.479,626711.859,4,500,,
trial,html.Screen,10_28_0,2023-11-14T19:47:24.138Z,,,,1,0.0401045651353626,0.053461375824197,,false,lh,8385.241000023787,response,-0.3612678802833676,0.4690719752050043,-0.4896766522248589,0.6564878592729257,0.47999999999999937,-0.49749999999999944,low,high,,ISIC_6483504.JPG,9,ISIC_8957571.JPG,253,false,hh,keypress(i),0,false,635097.2000000477,635097.1000000238,626694.912,626697.5,626711.859,635112.121,4,500,29,
break,html.Screen,10_28_1,2023-11-14T19:47:24.139Z,,,,,,,,,,NaN,,,,,,,,low,high,,,,,,false,,,,false,635097.5,635097.4000000954,,635097.3000000715,,635112.121,4,500,,
break_continue,html.Screen,10_28_2,2023-11-14T19:47:24.139Z,,,,,,,,,,NaN,,,,,,,,low,high,,,,,,false,,,,false,635097.8000000715,635097.7000000477,,635097.6000000238,,635112.121,4,500,,
sequence,flow.Sequence,10_28,2023-11-14T19:47:24.139Z,,,,,,,,,,8385.841000047629,completion,,,,,,,low,high,,,,,,false,,,,false,635097.8000000715,635097.7000000477,626694.912,626697.4000000954,626711.859,635112.121,4,500,,
trial,html.Screen,10_29_0,2023-11-14T19:47:28.459Z,,,,1,-0.0552031398781121,-0.0652612426529481,,false,lh,4305.179000071483,response,-0.4526749608500143,0.4690719752050043,-0.4896766522248589,0.5590460089572912,0.47999999999999937,-0.49749999999999944,low,high,,ISIC_0024226.JPG,10,ISIC_7180096.JPG,253,false,hh,keypress(i),0,false,639417.4000000954,639417.3000000715,635094.901,635097.9000000954,635112.121,639428.468,4,500,30,
break,html.Screen,10_29_1,2023-11-14T19:47:28.459Z,,,,,,,,,,NaN,,,,,,,,low,high,,,,,,false,,,,false,639417.9000000954,639417.8000000715,,639417.6000000238,,639428.468,4,500,,
break_continue,html.Screen,10_29_2,2023-11-14T19:47:28.459Z,,,,,,,,,,NaN,,,,,,,,low,high,,,,,,false,,,,false,639418.2000000477,639418.2000000477,,639418.1000000238,,639428.468,4,500,,
sequence,flow.Sequence,10_29,2023-11-14T19:47:28.460Z,,,,,,,,,,4306.079000047641,completion,,,,,,,low,high,,,,,,false,,,,false,639418.3000000715,639418.2000000477,635094.901,635097.9000000954,635112.121,639428.468,4,500,,
trial,html.Screen,10_30_0,2023-11-14T19:47:31.018Z,,,,1,,-0.0264544974620926,,true,hh,2548.332000071532,response,0.4116964256458953,0.4690719752050043,-0.4896766522248589,0.3547209754654499,0.47999999999999937,-0.49749999999999944,high,high,,ISIC_0056991.JPG,9,ISIC_0011698.JPG,408,false,hh,keypress(i),0,false,641976.9000000954,641976.8000000715,639411.768,639418.4000000954,639428.468,641978.49,4,500,31,
break,html.Screen,10_30_1,2023-11-14T19:47:31.019Z,,,,,,,,,,NaN,,,,,,,,high,high,,,,,,false,,,,false,641977.3000000715,641977.2000000477,,641977.1000000238,,641978.49,4,500,,
break_continue,html.Screen,10_30_2,2023-11-14T19:47:31.019Z,,,,,,,,,,NaN,,,,,,,,high,high,,,,,,false,,,,false,641977.5,641977.4000000954,,641977.4000000954,,641978.49,4,500,,
sequence,flow.Sequence,10_30,2023-11-14T19:47:31.019Z,,,,,,,,,,2548.932000095374,completion,,,,,,,high,high,,,,,,false,,,,false,641977.6000000238,641977.4000000954,639411.768,639418.4000000954,639428.468,641978.49,4,500,,
trial,html.Screen,10_31_0,2023-11-14T19:47:36.268Z,,,,1,-0.0292059717970335,-0.0718256867525069,,true,lh,5247.910000095377,response,-0.5702489659987551,0.4690719752050043,-0.4896766522248589,0.6614499784852,0.47999999999999937,-0.49749999999999944,low,high,,ISIC_1114966.JPG,10,ISIC_0054974.JPG,253,false,lh,keypress(e),0,false,647226.7000000477,647226.4000000954,641961.769,641977.7000000477,641978.49,647245.732,4,500,32,
break,html.Screen,10_31_1,2023-11-14T19:47:36.269Z,,,,,,,,,,NaN,,,,,,,,low,high,,,,,,false,,,,false,647227.7000000477,647227.4000000954,,647227.1000000238,,647245.732,4,500,,
break_continue,html.Screen,10_31_2,2023-11-14T19:47:36.270Z,,,,,,,,,,NaN,,,,,,,,low,high,,,,,,false,,,,false,647228.3000000715,647228.1000000238,,647227.9000000954,,647245.732,4,500,,
sequence,flow.Sequence,10_31,2023-11-14T19:47:36.270Z,,,,,,,,,,5249.610000023851,completion,,,,,,,low,high,,,,,,false,,,,false,647228.6000000238,647228.1000000238,641961.769,641977.7000000477,641978.49,647245.732,4,500,,
trial,html.Screen,10_32_0,2023-11-14T19:47:41.098Z,,,,1,-0.013431314305098,0.0140597582944232,,true,hh,4810.868000023882,response,0.5106644952101996,0.4690719752050043,-0.4896766522248589,0.3251298728624922,0.47999999999999937,-0.49749999999999944,high,high,,ISIC_0069617.JPG,10,ISIC_0032687.JPG,408,false,hh,keypress(i),0,false,652056.7000000477,652056.6000000238,647211.757,647228.7000000477,647245.732,652061.825,4,500,33,
break,html.Screen,10_32_1,2023-11-14T19:47:41.098Z,,,,,,,,,,NaN,,,,,,,,high,high,,,,,,false,,,,false,652057.1000000238,652056.9000000954,,652056.8000000715,,652061.825,4,500,,
break_continue,html.Screen,10_32_2,2023-11-14T19:47:41.098Z,,,,,,,,,,NaN,,,,,,,,high,high,,,,,,false,,,,false,652057.3000000715,652057.2000000477,,652057.1000000238,,652061.825,4,500,,
sequence,flow.Sequence,10_32,2023-11-14T19:47:41.099Z,,,,,,,,,,4811.468000047724,completion,,,,,,,high,high,,,,,,false,,,,false,652057.3000000715,652057.2000000477,647211.757,647228.7000000477,647245.732,652061.825,4,500,,
trial,html.Screen,10_33_0,2023-11-14T19:47:47.866Z,,,,1,0.007397293189458,0.0174716772037504,,false,hh,6763.075000095414,response,0.501587060193439,0.4690719752050043,-0.4896766522248589,0.5724988679476067,0.47999999999999937,-0.49749999999999944,high,high,,ISIC_0056226.JPG,10,ISIC_2856521.JPG,408,false,lh,keypress(e),0,false,658825,658824.9000000954,652045.157,652057.4000000954,652061.825,658828.528,4,500,34,
break,html.Screen,10_33_1,2023-11-14T19:47:47.867Z,,,,,,,,,,NaN,,,,,,,,high,high,,,,,,false,,,,false,658825.4000000954,658825.4000000954,,658825.2000000477,,658828.528,4,500,,
break_continue,html.Screen,10_33_2,2023-11-14T19:47:47.867Z,,,,,,,,,,NaN,,,,,,,,high,high,,,,,,false,,,,false,658825.6000000238,658825.6000000238,,658825.5,,658828.528,4,500,,
sequence,flow.Sequence,10_33,2023-11-14T19:47:47.867Z,,,,,,,,,,6763.775000023888,completion,,,,,,,high,high,,,,,,false,,,,false,658825.7000000477,658825.6000000238,652045.157,652057.3000000715,652061.825,658828.528,4,500,,
trial,html.Screen,10_34_0,2023-11-14T19:47:57.756Z,,,,1,0.0069555338059566,-0.0310100918136373,,true,hh,9885.572000023792,response,0.4319630061490295,0.4690719752050043,-0.4896766522248589,0.5102888118331591,0.47999999999999937,-0.49749999999999944,high,high,,ISIC_0011177.JPG,9,ISIC_6694724.JPG,408,false,hh,keypress(i),0,false,668714.4000000954,668714.1000000238,658811.745,658825.8000000715,658828.528,668745.201,4,500,35,
break,html.Screen,10_34_1,2023-11-14T19:47:57.757Z,,,,,,,,,,NaN,,,,,,,,high,high,,,,,,false,,,,false,668715.6000000238,668715.2000000477,,668714.8000000715,,668745.201,4,500,,
break_continue,html.Screen,10_34_2,2023-11-14T19:47:57.757Z,,,,,,,,,,NaN,,,,,,,,high,high,,,,,,false,,,,false,668716.3000000715,668716,,668715.7000000477,,668745.201,4,500,,
sequence,flow.Sequence,10_34,2023-11-14T19:47:57.758Z,,,,,,,,,,9887.47199999995,completion,,,,,,,high,high,,,,,,false,,,,false,668716.5,668716,658811.745,658825.8000000715,658828.528,668745.201,4,500,,
trial,html.Screen,10_35_0,2023-11-14T19:48:02.570Z,,,,1,-0.0688801591312476,-0.0185462113313342,,false,hl,4783.798999999999,response,0.5922029645979029,0.4690719752050043,-0.4896766522248589,-0.5605288330448321,0.47999999999999937,-0.49749999999999944,high,low,,ISIC_0067723.JPG,10,ISIC_0413173.JPG,286,false,hh,keypress(i),0,false,673529,673529,668728.54,668716.7000000477,668745.201,673545.196,4,500,36,
break,html.Screen,10_35_1,2023-11-14T19:48:02.570Z,,,,,,,,,,NaN,,,,,,,,high,low,,,,,,false,,,,false,673529.4000000954,673529.3000000715,,673529.1000000238,,673545.196,4,500,,
break_continue,html.Screen,10_35_2,2023-11-14T19:48:02.571Z,,,,,,,,,,NaN,,,,,,,,high,low,,,,,,false,,,,false,673529.6000000238,673529.6000000238,,673529.5,,673545.196,4,500,,
sequence,flow.Sequence,10_35,2023-11-14T19:48:02.571Z,,,,,,,,,,4784.399000023841,completion,,,,,,,high,low,,,,,,false,,,,false,673529.7000000477,673529.6000000238,668728.54,668716.7000000477,668745.201,673545.196,4,500,,
trial,html.Screen,10_36_0,2023-11-14T19:48:05.306Z,,,,1,0.0194167651857046,0.0726253809408601,,true,hh,2719.6040000715293,response,0.5330548358724723,0.4690719752050043,-0.4896766522248589,0.6153699602053757,0.47999999999999937,-0.49749999999999944,high,high,,ISIC_0056692.JPG,10,ISIC_0011126.JPG,408,false,hh,keypress(i),0,false,676264.8000000715,676264.8000000715,673528.375,673529.8000000715,673545.196,676278.581,4,500,37,
break,html.Screen,10_36_1,2023-11-14T19:48:05.306Z,,,,,,,,,,NaN,,,,,,,,high,high,,,,,,false,,,,false,676265.2000000477,676265.1000000238,,676265,,676278.581,4,500,,
break_continue,html.Screen,10_36_2,2023-11-14T19:48:05.306Z,,,,,,,,,,NaN,,,,,,,,high,high,,,,,,false,,,,false,676265.4000000954,676265.3000000715,,676265.2000000477,,676278.581,4,500,,
sequence,flow.Sequence,10_36,2023-11-14T19:48:05.307Z,,,,,,,,,,2720.1040000715293,completion,,,,,,,high,high,,,,,,false,,,,false,676265.4000000954,676265.3000000715,673528.375,673529.7000000477,673545.196,676278.581,4,500,,
trial,html.Screen,10_37_0,2023-11-14T19:48:13.755Z,,,,1,0.063045324701596,-0.0064789751878758,,false,hl,8435.019000023836,response,0.4259764539279427,0.4690719752050043,-0.4896766522248589,-0.3064774400861493,0.47999999999999937,-0.49749999999999944,high,low,,ISIC_5805349.JPG,10,ISIC_0013459.JPG,286,false,lh,keypress(e),0,false,684713.7000000477,684713.6000000238,676261.776,676265.4000000954,676278.581,684728.644,4,500,38,
break,html.Screen,10_37_1,2023-11-14T19:48:13.755Z,,,,,,,,,,NaN,,,,,,,,high,low,,,,,,false,,,,false,684714.2000000477,684714.1000000238,,684713.9000000954,,684728.644,4,500,,
break_continue,html.Screen,10_37_2,2023-11-14T19:48:13.756Z,,,,,,,,,,NaN,,,,,,,,high,low,,,,,,false,,,,false,684714.5,684714.4000000954,,684714.3000000715,,684728.644,4,500,,
sequence,flow.Sequence,10_37,2023-11-14T19:48:13.756Z,,,,,,,,,,8435.819000095362,completion,,,,,,,high,low,,,,,,false,,,,false,684714.7000000477,684714.4000000954,676261.776,676265.4000000954,676278.581,684728.644,4,500,,
trial,html.Screen,10_38_0,2023-11-14T19:48:19.338Z,,,,1,0.0363437082783146,0.0333332186217051,,false,hl,5568.156000071554,response,0.5768024581337869,0.4690719752050043,-0.4896766522248589,-0.6157552367370006,0.47999999999999937,-0.49749999999999944,high,low,,ISIC_3314555.JPG,10,ISIC_2861793.JPG,286,false,hh,keypress(i),0,false,690296.9000000954,690296.8000000715,684711.817,684714.8000000715,684728.644,690311.885,4,500,39,
break,html.Screen,10_38_1,2023-11-14T19:48:19.338Z,,,,,,,,,,NaN,,,,,,,,high,low,,,,,,false,,,,false,690297.4000000954,690297.3000000715,,690297,,690311.885,4,500,,
break_continue,html.Screen,10_38_2,2023-11-14T19:48:19.339Z,,,,,,,,,,NaN,,,,,,,,high,low,,,,,,false,,,,false,690297.6000000238,690297.5,,690297.5,,690311.885,4,500,,
sequence,flow.Sequence,10_38,2023-11-14T19:48:19.339Z,,,,,,,,,,5568.856000000029,completion,,,,,,,high,low,,,,,,false,,,,false,690297.7000000477,690297.5,684711.817,684714.7000000477,684728.644,690311.885,4,500,,
trial,html.Screen,10_39_0,2023-11-14T19:48:26.987Z,,,,1,-0.0265457942157377,-0.0704357137706731,,false,ll,7633.614999999991,response,-0.4298192926075084,0.4690719752050043,-0.4896766522248589,-0.4137275564006437,0.47999999999999937,-0.49749999999999944,low,low,,ISIC_3123377.JPG,9,ISIC_0071735.JPG,485,false,lh,keypress(e),0,false,697945.6000000238,697945.5,690295.032,690297.8000000715,690311.885,697961.969,4,500,40,
break,html.Screen,10_39_1,2023-11-14T19:48:26.987Z,,,,,,,,,,NaN,,,,,,,,low,low,,,,,,false,,,,false,697946.2000000477,697946.1000000238,,697945.8000000715,,697961.969,4,500,,
break_continue,html.Screen,10_39_2,2023-11-14T19:48:26.987Z,,,,,,,,,,NaN,,,,,,,,low,low,,,,,,false,,,,false,697946.4000000954,697946.3000000715,,697946.2000000477,,697961.969,4,500,,
sequence,flow.Sequence,10_39,2023-11-14T19:48:26.988Z,,,,,,,,,,7634.415000071516,completion,,,,,,,low,low,,,,,,false,,,,false,697946.6000000238,697946.3000000715,690295.032,690297.8000000715,690311.885,697961.969,4,500,,
trial,html.Screen,10_40_0,2023-11-14T19:48:37.274Z,,,,1,-0.0245376145053177,0.0436993426328401,,true,hl,10271.231000047643,response,0.3717477178585272,0.4690719752050043,-0.4896766522248589,-0.6427213128514158,0.47999999999999937,-0.49749999999999944,high,low,,ISIC_0056444.JPG,9,ISIC_3519679.JPG,286,false,hl,keypress(j),0,false,708233.3000000715,708233.2000000477,697945.416,697946.7000000477,697961.969,708245.461,4,500,41,
break,html.Screen,10_40_1,2023-11-14T19:48:37.275Z,,,,,,,,,,NaN,,,,,,,,high,low,,,,,,false,,,,false,708233.5,708233.5,,708233.3000000715,,708245.461,4,500,,
break_continue,html.Screen,10_40_2,2023-11-14T19:48:37.275Z,,,,,,,,,,NaN,,,,,,,,high,low,,,,,,false,,,,false,708233.7000000477,708233.6000000238,,708233.6000000238,,708245.461,4,500,,
sequence,flow.Sequence,10_40,2023-11-14T19:48:37.275Z,,,,,,,,,,10271.6310000238,completion,,,,,,,high,low,,,,,,false,,,,false,708233.7000000477,708233.6000000238,697945.416,697946.7000000477,697961.969,708245.461,4,500,,
trial,html.Screen,10_41_0,2023-11-14T19:48:46.346Z,,,,1,0.0544808612748248,-0.0240487075377862,,false,lh,9059.53899999999,response,-0.3351976379928723,0.4690719752050043,-0.4896766522248589,0.6586427416064558,0.47999999999999937,-0.49749999999999944,low,high,,ISIC_4606646.JPG,9,ISIC_4536709.JPG,253,false,ll,keypress(f),0,false,717305.1000000238,717305,708228.51,708233.8000000715,708245.461,717311.978,4,500,42,
break,html.Screen,10_41_1,2023-11-14T19:48:46.347Z,,,,,,,,,,NaN,,,,,,,,low,high,,,,,,false,,,,false,717305.4000000954,717305.4000000954,,717305.2000000477,,717311.978,4,500,,
break_continue,html.Screen,10_41_2,2023-11-14T19:48:46.347Z,,,,,,,,,,NaN,,,,,,,,low,high,,,,,,false,,,,false,717305.7000000477,717305.6000000238,,717305.5,,717311.978,4,500,,
sequence,flow.Sequence,10_41,2023-11-14T19:48:46.347Z,,,,,,,,,,9060.139000023832,completion,,,,,,,low,high,,,,,,false,,,,false,717305.7000000477,717305.6000000238,708228.51,708233.8000000715,708245.461,717311.978,4,500,,
trial,html.Screen,10_42_0,2023-11-14T19:48:51.098Z,,,,1,-0.0051189696037511,0.0396625911332438,,true,ll,4745.122000023839,response,-0.642728981864251,0.4690719752050043,-0.4896766522248589,-0.4529355077597162,0.47999999999999937,-0.49749999999999944,low,low,,ISIC_9742891.JPG,10,ISIC_4052597.JPG,485,false,ll,keypress(f),0,false,722057.2000000477,722057.1000000238,717294.926,717305.8000000715,717311.978,722061.963,4,500,43,
break,html.Screen,10_42_1,2023-11-14T19:48:51.099Z,,,,,,,,,,NaN,,,,,,,,low,low,,,,,,false,,,,false,722057.6000000238,722057.4000000954,,722057.3000000715,,722061.963,4,500,,
break_continue,html.Screen,10_42_2,2023-11-14T19:48:51.099Z,,,,,,,,,,NaN,,,,,,,,low,low,,,,,,false,,,,false,722057.7000000477,722057.6000000238,,722057.6000000238,,722061.963,4,500,,
sequence,flow.Sequence,10_42,2023-11-14T19:48:51.099Z,,,,,,,,,,4745.622000023839,completion,,,,,,,low,low,,,,,,false,,,,false,722057.8000000715,722057.6000000238,717294.926,717305.8000000715,717311.978,722061.963,4,500,,
trial,html.Screen,10_43_0,2023-11-14T19:48:54.938Z,,,,1,0.039728379742806,-0.0228701131373768,,false,hl,3834.8370000715367,response,0.3786695373513488,0.4690719752050043,-0.4896766522248589,-0.6829995078292201,0.47999999999999937,-0.49749999999999944,high,low,,ISIC_0054073.JPG,8,ISIC_0226072.JPG,286,false,ll,keypress(f),0,false,725897,725896.8000000715,722045.153,722057.8000000715,722061.963,725912.192,4,500,44,
break,html.Screen,10_43_1,2023-11-14T19:48:54.938Z,,,,,,,,,,NaN,,,,,,,,high,low,,,,,,false,,,,false,725897.3000000715,725897.2000000477,,725897,,725912.192,4,500,,
break_continue,html.Screen,10_43_2,2023-11-14T19:48:54.938Z,,,,,,,,,,NaN,,,,,,,,high,low,,,,,,false,,,,false,725897.5,725897.4000000954,,725897.4000000954,,725912.192,4,500,,
sequence,flow.Sequence,10_43,2023-11-14T19:48:54.938Z,,,,,,,,,,3835.4370000953786,completion,,,,,,,high,low,,,,,,false,,,,false,725897.6000000238,725897.4000000954,722045.153,722057.8000000715,722061.963,725912.192,4,500,,
trial,html.Screen,10_44_0,2023-11-14T19:49:05.937Z,,,,1,0.0057914759495055,0.0074667911845194,,,,11016.488999999943,timeout,-0.3535201363009281,0.4690719752050043,-0.4896766522248589,-0.6900637275306071,0.47999999999999937,-0.49749999999999944,low,low,,ISIC_0058723.JPG,9,ISIC_0029290.JPG,485,false,,,0,false,736895.7000000477,736895.6000000238,725895.418,725897.6000000238,725912.192,736928.681,4,500,45,
break,html.Screen,10_44_1,2023-11-14T19:49:05.937Z,,,,,,,,,,NaN,,,,,,,,low,low,,,,,,false,,,,false,736895.9000000954,736895.9000000954,,736895.8000000715,,736928.681,4,500,,
break_continue,html.Screen,10_44_2,2023-11-14T19:49:05.937Z,,,,,,,,,,NaN,,,,,,,,low,low,,,,,,false,,,,false,736896.2000000477,736896.1000000238,,736896.1000000238,,736928.681,4,500,,
sequence,flow.Sequence,10_44,2023-11-14T19:49:05.937Z,,,,,,,,,,10983.908000023803,completion,,,,,,,low,low,,,,,,false,,,,false,736896.3000000715,736896.1000000238,725895.418,725897.6000000238,725912.192,736928.681,4,500,,
trial,html.Screen,10_45_0,2023-11-14T19:49:12.859Z,,,,1,-0.013431314305098,0.0140597582944232,,false,hl,6888.819000000018,response,0.3058318742283739,0.4690719752050043,-0.4896766522248589,-0.3368462957947262,0.47999999999999937,-0.49749999999999944,high,low,,ISIC_0069617.JPG,10,ISIC_5305288.JPG,286,false,hh,keypress(i),0,false,743817.6000000238,743817.5,736911.969,736896.3000000715,736928.681,743828.644,4,500,46,
break,html.Screen,10_45_1,2023-11-14T19:49:12.859Z,,,,,,,,,,NaN,,,,,,,,high,low,,,,,,false,,,,false,743818,743817.9000000954,,743817.7000000477,,743828.644,4,500,,
break_continue,html.Screen,10_45_2,2023-11-14T19:49:12.859Z,,,,,,,,,,NaN,,,,,,,,high,low,,,,,,false,,,,false,743818.2000000477,743818.1000000238,,743818,,743828.644,4,500,,
sequence,flow.Sequence,10_45,2023-11-14T19:49:12.859Z,,,,,,,,,,6889.41900002386,completion,,,,,,,high,low,,,,,,false,,,,false,743818.3000000715,743818.1000000238,736911.969,736896.3000000715,736928.681,743828.644,4,500,,
trial,html.Screen,10_46_0,2023-11-14T19:49:17.451Z,,,,1,-0.0516762988734011,0.0130195499281172,,false,hl,4581.056000047713,response,0.4729151826910023,0.4690719752050043,-0.4896766522248589,-0.6116306329085605,0.47999999999999937,-0.49749999999999944,high,low,,ISIC_9978498.JPG,9,ISIC_6054977.JPG,286,false,ll,keypress(f),0,false,748409.8000000715,748409.7000000477,743812.055,743818.4000000954,743828.644,748411.965,4,500,47,
break,html.Screen,10_46_1,2023-11-14T19:49:17.451Z,,,,,,,,,,NaN,,,,,,,,high,low,,,,,,false,,,,false,748410.4000000954,748410.3000000715,,748410,,748411.965,4,500,,
break_continue,html.Screen,10_46_2,2023-11-14T19:49:17.452Z,,,,,,,,,,NaN,,,,,,,,high,low,,,,,,false,,,,false,748410.7000000477,748410.6000000238,,748410.5,,748411.965,4,500,,
sequence,flow.Sequence,10_46,2023-11-14T19:49:17.452Z,,,,,,,,,,4581.956000023871,completion,,,,,,,high,low,,,,,,false,,,,false,748410.9000000954,748410.6000000238,743812.055,743818.3000000715,743828.644,748411.965,4,500,,
trial,html.Screen,10_47_0,2023-11-14T19:49:20.490Z,,,,1,-0.0348234368746005,0.0236866303880924,,false,hh,3037.335000071558,response,0.4573486149879329,0.4690719752050043,-0.4896766522248589,0.6433833036756067,0.47999999999999937,-0.49749999999999944,high,high,,ISIC_0011099.JPG,8,ISIC_0068438.JPG,408,false,ll,keypress(f),0,false,751449.3000000715,751449.3000000715,748395.246,748411,748411.965,751462.254,4,500,48,
break,html.Screen,10_47_1,2023-11-14T19:49:20.491Z,,,,,,,,,,NaN,,,,,,,,high,high,,,,,,false,,,,false,751449.8000000715,751449.7000000477,,751449.5,,751462.254,4,500,,
break_continue,html.Screen,10_47_2,2023-11-14T19:49:20.491Z,,,,,,,,,,NaN,,,,,,,,high,high,,,,,,false,,,,false,751450.1000000238,751450,,751449.8000000715,,751462.254,4,500,,
sequence,flow.Sequence,10_47,2023-11-14T19:49:20.491Z,,,,,,,,,,3038.0350000000326,completion,,,,,,,high,high,,,,,,false,,,,false,751450.1000000238,751450,748395.246,748411,748411.965,751462.254,4,500,,
trial,html.Screen,10_48_0,2023-11-14T19:49:26.828Z,,,,1,0.0593670819812057,-0.0718390543903236,,false,hh,6324.446000047727,response,0.5224377237245682,0.4690719752050043,-0.4896766522248589,0.5598021357063001,0.47999999999999937,-0.49749999999999944,high,high,,ISIC_0062367.JPG,10,ISIC_0063655.JPG,408,false,lh,keypress(e),0,false,757787,757786.7000000477,751445.244,751450.2000000477,751462.254,757795.292,4,500,49,
break,html.Screen,10_48_1,2023-11-14T19:49:26.829Z,,,,,,,,,,NaN,,,,,,,,high,high,,,,,,false,,,,false,757788,757787.8000000715,,757787.3000000715,,757795.292,4,500,,
break_continue,html.Screen,10_48_2,2023-11-14T19:49:26.830Z,,,,,,,,,,NaN,,,,,,,,high,high,,,,,,false,,,,false,757788.6000000238,757788.4000000954,,757788.1000000238,,757795.292,4,500,,
sequence,flow.Sequence,10_48,2023-11-14T19:49:26.830Z,,,,,,,,,,6326.14600009541,completion,,,,,,,high,high,,,,,,false,,,,false,757788.8000000715,757788.4000000954,751445.244,751450.2000000477,751462.254,757795.292,4,500,,
trial,html.Screen,10_49_0,2023-11-14T19:49:35.002Z,,,,1,-0.0531672914703651,0.0074883925434357,,true,hl,8165.308000023826,response,0.5486380698387632,0.4690719752050043,-0.4896766522248589,-0.3781829226197447,0.47999999999999937,-0.49749999999999944,high,low,,ISIC_4177043.JPG,8,ISIC_7994337.JPG,286,false,hl,keypress(j),0,false,765960.8000000715,765960.6000000238,757778.443,757789,757795.292,765978.998,4,500,50,
break,html.Screen,10_49_1,2023-11-14T19:49:35.002Z,,,,,,,,,,NaN,,,,,,,,high,low,,,,,,false,,,,false,765961,765960.9000000954,,765960.8000000715,,765978.998,4,500,,
