sender,sender_type,sender_id,timestamp,meta,,age,blockNo,c1,c2,condition,correct,correctResponse,duration,ended_on,f1,f1_high,f1_low,f2,f2_high,f2_low,feature_level1,feature_level2,gender,img_left,img_reveal,img_right,n_target_images,practice,response,response_action,selection_duration,staircase,time_commit,time_end,time_render,time_run,time_show,time_switch,total_blocks,total_trials,trialNo,url
informed_consent,html.Screen,0,2023-11-14T19:38:02.083Z,"{""labjs_version"":""20.2.4"",""labjs_build"":{""flavor"":""development"",""commit"":""f5b4a49f956347addd546a832a3327688c2c0fef""},""location"":""https://labjs.felixhenninger.com/api/labjs_preview/index.html"",""userAgent"":""Mozilla/5.0 (Windows NT 10.0; Win64; x64) AppleWebKit/537.36 (KHTML, like Gecko) Chrome/119.0.0.0 Safari/537.36"",""platform"":""Win32"",""language"":""en-US"",""locale"":""en-US"",""timeZone"":""America/Chicago"",""timezoneOffset"":360,""screen_width"":1920,""screen_height"":1080,""scroll_width"":945,""scroll_height"":918,""window_innerWidth"":945,""window_innerHeight"":966,""devicePixelRatio"":1}",,,,,,,,,22221.03600001192,response,,,,,,,,,,,,,,,consent,click button,,,23080,23073.30000001192,835.583,960.5,852.264,22952.222,,,,{}
Demography form,html.Form,1,2023-11-14T19:38:09.507Z,,,19,,,,,,,7551.578000011919,form submission,,,,,,,,,male,,,,,,,,,,30504,30503.80000001192,22935.49,23080.30000001192,22952.222,30368.798,,,,
Welcome,html.Screen,2,2023-11-14T19:38:23.365Z,,,,,,,"[""asym"",""bor""]",,,13992.702000000001,response,,,,,,,,,,,,,,,continue,click button,,,44362.09999996424,44361.5,30352.406,30504,30368.798,44235.621,,,,
demo_instructions,html.Screen,3,2023-11-14T19:38:43.189Z,,,,,,,,,,19949.879,response,,,,,,,,,,,,,,,continue,click button,,,64186.19999998808,64185.5,44219.082,44362.30000001192,44235.621,64052.089,,,,
trial,html.Screen,4_0_0,2023-11-14T19:39:04.244Z,,,,0,0.991146183030456,-0.9949639823722534,,true,lh,21188.911,response,-0.8534691366511764,1.0499999999999998,-1.0499999999999998,1.03975580494588,1.0499999999999998,-1.0499999999999998,low,high,,ISIC_6342224.JPG,,ISIC_0056788.JPG,21,true,lh,keypress(e),100,false,85241.09999996424,85241,64035.43,64186.5,64052.089,85118.743,1,16,1,
sequence,flow.Sequence,4_0,2023-11-14T19:39:04.244Z,,,,,,,,,,21188.911,completion,,,,,,,low,high,,,,,,true,,,,false,85241.39999997616,85241,64035.43,64186.5,64052.089,85118.743,1,16,,
trial,html.Screen,4_1_0,2023-11-14T19:39:24.793Z,,,,0,0.9235571765207048,-1.0008081653938232,,true,lh,20671.256999999998,response,-0.9696118525781644,1.0499999999999998,-1.0499999999999998,0.9244148283103414,1.0499999999999998,-1.0499999999999998,low,high,,ISIC_8796632.JPG,,ISIC_7927525.JPG,21,true,lh,keypress(e),100,false,105790.30000001192,105790,85102.095,85241.5,85118.743,105669.154,1,16,2,
sequence,flow.Sequence,4_1,2023-11-14T19:39:24.793Z,,,,,,,,,,20671.256999999998,completion,,,,,,,low,high,,,,,,true,,,,false,105790.5,105790,85102.095,85241.5,85118.743,105669.154,1,16,,
trial,html.Screen,4_2_0,2023-11-14T19:39:42.957Z,,,,0,0.991146183030456,-0.9949639823722534,,true,lh,18284.146000011926,response,-0.9433720631499012,1.0499999999999998,-1.0499999999999998,1.0582071940347648,1.0499999999999998,-1.0499999999999998,low,high,,ISIC_6342224.JPG,,ISIC_4890201.JPG,21,true,lh,keypress(e),100,false,123953.5,123953.30000001192,105652.033,105790.5,105669.154,123835.368,1,16,3,
sequence,flow.Sequence,4_2,2023-11-14T19:39:42.958Z,,,,,,,,,,18284.146000011926,completion,,,,,,,low,high,,,,,,true,,,,false,123953.69999998808,123953.30000001192,105652.033,105790.5,105669.154,123835.368,1,16,,
trial,html.Screen,4_3_0,2023-11-14T19:39:53.984Z,,,,0,0.8655167308525522,-0.9298580423306444,,true,lh,11144.831999988077,response,-1.0865333402803938,1.0499999999999998,-1.0499999999999998,1.0542635307358266,1.0499999999999998,-1.0499999999999998,low,high,,ISIC_4603706.JPG,,ISIC_0034006.JPG,21,true,lh,keypress(e),100,false,134980.39999997616,134980.19999998808,123819.139,123953.69999998808,123835.368,134868.681,1,16,4,
sequence,flow.Sequence,4_3,2023-11-14T19:39:53.985Z,,,,,,,,,,11144.831999988077,completion,,,,,,,low,high,,,,,,true,,,,false,134980.5,134980.19999998808,123819.139,123953.69999998808,123835.368,134868.681,1,16,,
trial,html.Screen,4_4_0,2023-11-14T19:40:01.764Z,,,,0,1.2282561398079586,1.210457198775374,,true,ll,7890.918999964226,response,-0.913084438298574,1.0499999999999998,-1.0499999999999998,-1.135180301076722,1.0499999999999998,-1.0499999999999998,low,low,,ISIC_9141817.JPG,,ISIC_8637134.JPG,111,true,ll,keypress(f),100,false,142759.69999998808,142759.59999996424,134852.104,134980.69999998808,134868.681,142652.053,1,16,5,
sequence,flow.Sequence,4_4,2023-11-14T19:40:01.764Z,,,,,,,,,,7890.918999964226,completion,,,,,,,low,low,,,,,,true,,,,false,142759.89999997616,142759.59999996424,134852.104,134980.69999998808,134868.681,142652.053,1,16,,
trial,html.Screen,4_5_0,2023-11-14T19:40:05.866Z,,,,0,0.943978570218156,0.9420387258741144,,true,ll,4209.546999964223,response,-0.964746248973834,1.0499999999999998,-1.0499999999999998,-0.9069353065857808,1.0499999999999998,-1.0499999999999998,low,low,,ISIC_0011642.JPG,,ISIC_9896801.JPG,111,true,ll,keypress(f),100,false,146862.5,146861.59999996424,142635.602,142759.89999997616,142652.053,146752.075,1,16,6,
sequence,flow.Sequence,4_5,2023-11-14T19:40:05.867Z,,,,,,,,,,4209.546999964223,completion,,,,,,,low,low,,,,,,true,,,,false,146862.80000001192,146861.59999996424,142635.602,142759.89999997616,142652.053,146752.075,1,16,,
trial,html.Screen,4_6_0,2023-11-14T19:40:19.534Z,,,,0,1.1783311757907324,1.0915173513546716,,true,ll,13778.024999964226,response,-0.8513702094329779,1.0499999999999998,-1.0499999999999998,-0.8646686295881743,1.0499999999999998,-1.0499999999999998,low,low,,ISIC_8241457.JPG,,ISIC_1881133.JPG,111,true,ll,keypress(f),100,false,160530.30000001192,160530.09999996424,146735.594,146862.80000001192,146752.075,160418.911,1,16,7,
sequence,flow.Sequence,4_6,2023-11-14T19:40:19.534Z,,,,,,,,,,13778.024999964226,completion,,,,,,,low,low,,,,,,true,,,,false,160530.5,160530.09999996424,146735.594,146862.80000001192,146752.075,160418.911,1,16,,
trial,html.Screen,4_7_0,2023-11-14T19:40:26.689Z,,,,0,1.1135119625680223,0.8824045702297937,,true,ll,7266.188999964244,response,-1.0270718265914571,1.0499999999999998,-1.0499999999999998,-0.9536353804316964,1.0499999999999998,-1.0499999999999998,low,low,,ISIC_6899527.JPG,,ISIC_3431915.JPG,111,true,ll,keypress(f),100,false,167685.19999998808,167685.09999996424,160402.028,160530.5,160418.911,167568.804,1,16,8,
sequence,flow.Sequence,4_7,2023-11-14T19:40:26.689Z,,,,,,,,,,7266.188999964244,completion,,,,,,,low,low,,,,,,true,,,,false,167685.39999997616,167685.09999996424,160402.028,160530.5,160418.911,167568.804,1,16,,
trial,html.Screen,4_8_0,2023-11-14T19:40:46.918Z,,,,0,-0.9433720631499012,1.0582071940347648,,true,hl,20344.595999976154,response,0.8947611078712571,0.9499999999999997,-0.9499999999999997,-0.8960964505004638,0.9499999999999997,-0.9499999999999997,high,low,,ISIC_4890201.JPG,,ISIC_6441128.JPG,26,true,hl,keypress(j),100,false,187913.5,187913.39999997616,167552.192,167685.5,167568.804,187802.241,1,16,9,
sequence,flow.Sequence,4_8,2023-11-14T19:40:46.918Z,,,,,,,,,,20344.595999976154,completion,,,,,,,high,low,,,,,,true,,,,false,187913.69999998808,187913.39999997616,167552.192,167685.39999997616,167568.804,187802.241,1,16,,
trial,html.Screen,4_9_0,2023-11-14T19:40:57.369Z,,,,0,-1.1181734135756094,0.944560381774994,,true,hl,10561.858999964228,response,0.991146183030456,0.9499999999999997,-0.9499999999999997,-0.9949639823722534,0.9499999999999997,-0.9499999999999997,high,low,,ISIC_9688534.JPG,,ISIC_6342224.JPG,26,true,hl,keypress(j),100,false,198364.30000001192,198364.09999996424,187785.541,187913.69999998808,187802.241,198251.975,1,16,10,
sequence,flow.Sequence,4_9,2023-11-14T19:40:57.369Z,,,,,,,,,,10561.858999964228,completion,,,,,,,high,low,,,,,,true,,,,false,198364.5,198364.09999996424,187785.541,187913.69999998808,187802.241,198251.975,1,16,,
trial,html.Screen,4_10_0,2023-11-14T19:41:10.876Z,,,,0,-0.8860551570327019,0.8067116931297591,,true,hl,13619.024999999994,response,0.8816288864119318,0.9499999999999997,-0.9499999999999997,-0.801867301188093,0.9499999999999997,-0.9499999999999997,high,low,,ISIC_1457687.JPG,,ISIC_9196783.JPG,26,true,hl,keypress(j),100,false,211871.19999998808,211871,198235.452,198364.5,198251.975,211751.938,1,16,11,
sequence,flow.Sequence,4_10,2023-11-14T19:41:10.876Z,,,,,,,,,,13619.024999999994,completion,,,,,,,high,low,,,,,,true,,,,false,211871.39999997616,211871,198235.452,198364.5,198251.975,211751.938,1,16,,
trial,html.Screen,4_11_0,2023-11-14T19:41:19.855Z,,,,0,-1.0865333402803938,1.0542635307358266,,true,hl,9098.862000011926,response,1.0164576835546473,0.9499999999999997,-0.9499999999999997,-0.8120626538423016,0.9499999999999997,-0.9499999999999997,high,low,,ISIC_0034006.JPG,,ISIC_6002694.JPG,26,true,hl,keypress(j),100,false,220851,220850.80000001192,211735.36,211871.39999997616,211751.938,220735.339,1,16,12,
sequence,flow.Sequence,4_11,2023-11-14T19:41:19.855Z,,,,,,,,,,9098.862000011926,completion,,,,,,,high,low,,,,,,true,,,,false,220851.09999996424,220850.80000001192,211735.36,211871.39999997616,211751.938,220735.339,1,16,,
trial,html.Screen,4_12_0,2023-11-14T19:41:27.410Z,,,,0,-0.952434586184464,-0.870679752281305,,true,hh,7670.360999988072,response,0.7606790040467306,0.9499999999999997,-0.9499999999999997,0.915501688019354,0.9499999999999997,-0.9499999999999997,high,high,,ISIC_5791954.JPG,,ISIC_6557194.JPG,167,true,hh,keypress(i),100,false,228405.80000001192,228405.69999998808,220719.015,220851.19999998808,220735.339,228285.391,1,16,13,
sequence,flow.Sequence,4_12,2023-11-14T19:41:27.410Z,,,,,,,,,,7670.360999988072,completion,,,,,,,high,high,,,,,,true,,,,false,228406,228405.69999998808,220719.015,220851.09999996424,220735.339,228285.391,1,16,,
trial,html.Screen,4_13_0,2023-11-14T19:41:31.861Z,,,,0,-0.8513702094329779,-0.8646686295881743,,true,hh,4570.909000011918,response,0.944066353660726,0.9499999999999997,-0.9499999999999997,0.7979057924454982,0.9499999999999997,-0.9499999999999997,high,high,,ISIC_1881133.JPG,,ISIC_0060696.JPG,167,true,hh,keypress(i),100,false,232856.5,232856.30000001192,228268.571,228406.09999996424,228285.391,232735.501,1,16,14,
sequence,flow.Sequence,4_13,2023-11-14T19:41:31.861Z,,,,,,,,,,4570.909000011918,completion,,,,,,,high,high,,,,,,true,,,,false,232856.59999996424,232856.30000001192,228268.571,228406,228285.391,232735.501,1,16,,
trial,html.Screen,4_14_0,2023-11-14T19:41:35.047Z,,,,0,-0.9962130178668478,-1.0198919808587756,,true,hh,3307.098999964248,response,0.9106525024234248,0.9499999999999997,-0.9499999999999997,0.944391889009556,0.9499999999999997,-0.9499999999999997,high,high,,ISIC_0595080.JPG,,ISIC_0058676.JPG,167,true,hh,keypress(i),100,false,236042.69999998808,236042.59999996424,232718.571,232856.69999998808,232735.501,235935.43,1,16,15,
sequence,flow.Sequence,4_14,2023-11-14T19:41:35.047Z,,,,,,,,,,3307.098999964248,completion,,,,,,,high,high,,,,,,true,,,,false,236042.89999997616,236042.59999996424,232718.571,232856.69999998808,232735.501,235935.43,1,16,,
trial,html.Screen,4_15_0,2023-11-14T19:41:37.420Z,,,,0,-1.1011373150916248,-0.7816231038128233,,true,hh,2479.969999976165,response,1.021420495018506,0.9499999999999997,-0.9499999999999997,0.8195763659090913,0.9499999999999997,-0.9499999999999997,high,high,,ISIC_8477065.JPG,,ISIC_0011493.JPG,167,true,hh,keypress(i),100,false,238415.5,238415.39999997616,235918.815,236042.89999997616,235935.43,238302.331,1,16,16,
sequence,flow.Sequence,4_15,2023-11-14T19:41:37.420Z,,,,,,,,,,2479.969999976165,completion,,,,,,,high,high,,,,,,true,,,,false,238415.69999998808,238415.39999997616,235918.815,236042.89999997616,235935.43,238302.331,1,16,,
demonstration_loop,flow.Loop,4,2023-11-14T19:41:37.420Z,,,,,,,,,,174363.31099997615,completion,,,,,,,,,,,,,,true,,,,false,238415.80000001192,238415.39999997616,64035.43,64186.39999997616,64052.089,238302.331,1,16,,
practice_instructions,html.Screen,5,2023-11-14T19:42:10.213Z,,,,,,,,,,32898.76899996423,response,,,,,,,,,,,,,,,continue,click button,,,271207.8000000119,271201.09999996424,238285.237,238415.80000001192,238302.331,271068.505,,,,
trial,html.Screen,6_0_0,2023-11-14T19:42:21.199Z,,,,1,0.7911024675435955,-0.7975977016137676,,,,11016.684999999998,timeout,-0.8534691366511764,0.9499999999999997,-0.9499999999999997,1.03975580494588,0.9499999999999997,-0.9499999999999997,low,high,,ISIC_5813642.JPG,,ISIC_0056788.JPG,28,true,,,0,false,282194.09999996424,282194,271052.061,271208.09999996424,271068.505,282085.19,1,20,1,
sequence,flow.Sequence,6_0,2023-11-14T19:42:21.199Z,,,,,,,,,,11125.494999999995,completion,,,,,,,low,high,,,,,,true,,,,false,282194.1999999881,282194,271052.061,271208.09999996424,271068.505,282085.19,1,20,,
trial,html.Screen,6_1_0,2023-11-14T19:42:24.224Z,,,,1,0.887838744955182,-0.7545096650863988,,true,lh,3134.0099999880767,response,-1.020990671779317,0.9499999999999997,-0.9499999999999997,1.0116513850520903,0.9499999999999997,-0.9499999999999997,low,high,,ISIC_1488727.JPG,,ISIC_0011995.JPG,28,true,lh,keypress(e),0,false,285219.1999999881,285219.1999999881,282068.937,282194.3000000119,282085.19,285101.846,1,20,2,
sequence,flow.Sequence,6_1,2023-11-14T19:42:24.224Z,,,,,,,,,,3134.0099999880767,completion,,,,,,,low,high,,,,,,true,,,,false,285219.39999997616,285219.1999999881,282068.937,282194.3000000119,282085.19,285101.846,1,20,,
trial,html.Screen,6_2_0,2023-11-14T19:42:29.504Z,,,,1,-1.0769490291795207,-1.0174515954885954,,true,hh,5396.8539999880595,response,0.7597421372185947,0.9499999999999997,-0.9499999999999997,0.8314283330495001,0.9499999999999997,-0.9499999999999997,high,high,,ISIC_0028135.JPG,,ISIC_0009894.JPG,167,true,hh,keypress(i),0,false,290498.8000000119,290498.6999999881,285085.158,285219.5,285101.846,290368.931,1,20,3,
sequence,flow.Sequence,6_2,2023-11-14T19:42:29.504Z,,,,,,,,,,5396.8539999880595,completion,,,,,,,high,high,,,,,,true,,,,false,290498.89999997616,290498.6999999881,285085.158,285219.5,285101.846,290368.931,1,20,,
trial,html.Screen,6_3_0,2023-11-14T19:42:34.832Z,,,,1,-0.936668460603038,-1.058142123525081,,true,hh,5457.869000011939,response,1.1233838977156558,0.9499999999999997,-0.9499999999999997,0.8600511147636151,0.9499999999999997,-0.9499999999999997,high,high,,ISIC_5046340.JPG,,ISIC_0031965.JPG,167,true,hh,keypress(i),0,false,295827,295826.8000000119,290352.121,290499,290368.931,295701.946,1,20,4,
sequence,flow.Sequence,6_3,2023-11-14T19:42:34.832Z,,,,,,,,,,5457.869000011939,completion,,,,,,,high,high,,,,,,true,,,,false,295827,295826.8000000119,290352.121,290499,290368.931,295701.946,1,20,,
trial,html.Screen,6_4_0,2023-11-14T19:42:40.576Z,,,,1,-1.0026266089287914,1.0913275913920335,,true,hl,5868.653999964241,response,0.8623414234919863,0.9499999999999997,-0.9499999999999997,-0.782830143980698,0.9499999999999997,-0.9499999999999997,high,low,,ISIC_0033520.JPG,,ISIC_2727016.JPG,26,true,hl,keypress(j),0,false,301570.59999996424,301570.59999996424,295685.162,295827,295701.946,301435.159,1,20,5,
sequence,flow.Sequence,6_4,2023-11-14T19:42:40.576Z,,,,,,,,,,5868.653999964241,completion,,,,,,,high,low,,,,,,true,,,,false,301570.6999999881,301570.59999996424,295685.162,295827,295701.946,301435.159,1,20,,
trial,html.Screen,6_5_0,2023-11-14T19:42:47.567Z,,,,1,-0.8534691366511764,1.03975580494588,,true,hl,7127.240999976173,response,0.7723849213858904,0.9499999999999997,-0.9499999999999997,-0.888372424147899,0.9499999999999997,-0.9499999999999997,high,low,,ISIC_0056788.JPG,,ISIC_3884221.JPG,26,true,hl,keypress(j),0,false,308562.5,308562.39999997616,301418.509,301570.89999997616,301435.159,308435.333,1,20,6,
sequence,flow.Sequence,6_5,2023-11-14T19:42:47.568Z,,,,,,,,,,7127.240999976173,completion,,,,,,,high,low,,,,,,true,,,,false,308562.59999996424,308562.39999997616,301418.509,301570.8000000119,301435.159,308435.333,1,20,,
trial,html.Screen,6_6_0,2023-11-14T19:42:52.784Z,,,,1,-0.8579451262594331,0.9633172970727744,,true,hl,5343.366999988095,response,1.0213365328004047,0.9499999999999997,-0.9499999999999997,-1.088524359911891,0.9499999999999997,-0.9499999999999997,high,low,,ISIC_0067172.JPG,,ISIC_5434229.JPG,26,true,hl,keypress(j),0,false,313778.89999997616,313778.6999999881,308418.562,308562.59999996424,308435.333,313652.035,1,20,7,
sequence,flow.Sequence,6_6,2023-11-14T19:42:52.784Z,,,,,,,,,,5343.366999988095,completion,,,,,,,high,low,,,,,,true,,,,false,313778.89999997616,313778.6999999881,308418.562,308562.59999996424,308435.333,313652.035,1,20,,
trial,html.Screen,6_7_0,2023-11-14T19:42:56.608Z,,,,1,0.9585938767259125,0.8441404886756483,,true,ll,3950.7650000119465,response,-1.048330701104555,0.9499999999999997,-0.9499999999999997,-0.8086625502956353,0.9499999999999997,-0.9499999999999997,low,low,,ISIC_0055003.JPG,,ISIC_0030508.JPG,142,true,ll,keypress(f),0,false,317603,317602.8000000119,313635.134,313779,313652.035,317468.505,1,20,8,
sequence,flow.Sequence,6_7,2023-11-14T19:42:56.608Z,,,,,,,,,,3950.7650000119465,completion,,,,,,,low,low,,,,,,true,,,,false,317603,317602.8000000119,313635.134,313778.89999997616,313652.035,317468.505,1,20,,
trial,html.Screen,6_8_0,2023-11-14T19:43:05.488Z,,,,1,-0.8541581294181414,0.7637475587255248,,true,hl,9014.394999976153,response,0.948927472020595,0.9499999999999997,-0.9499999999999997,-1.0660437155921598,0.9499999999999997,-0.9499999999999997,high,low,,ISIC_0014782.JPG,,ISIC_5808758.JPG,26,true,hl,keypress(j),0,false,326483.09999996424,326482.89999997616,317451.956,317603,317468.505,326351.809,1,20,9,
sequence,flow.Sequence,6_8,2023-11-14T19:43:05.488Z,,,,,,,,,,9014.394999976153,completion,,,,,,,high,low,,,,,,true,,,,false,326483.09999996424,326482.89999997616,317451.956,317603,317468.505,326351.809,1,20,,
trial,html.Screen,6_9_0,2023-11-14T19:43:09.569Z,,,,1,0.8426401499140178,0.9561650569523902,,true,ll,4211.09099997615,response,-0.936668460603038,0.9499999999999997,-0.9499999999999997,-1.058142123525081,0.9499999999999997,-0.9499999999999997,low,low,,ISIC_0060380.JPG,,ISIC_5046340.JPG,142,true,ll,keypress(f),0,false,330563.09999996424,330562.89999997616,326335.072,326483.1999999881,326351.809,330435.373,1,20,10,
sequence,flow.Sequence,6_9,2023-11-14T19:43:09.569Z,,,,,,,,,,4211.09099997615,completion,,,,,,,low,low,,,,,,true,,,,false,330563.09999996424,330562.89999997616,326335.072,326483.09999996424,326351.809,330435.373,1,20,,
trial,html.Screen,6_10_0,2023-11-14T19:43:16.065Z,,,,1,-0.8670473182120986,-0.7813797649042047,,true,hh,6623.4270000118995,response,1.0931477426281198,0.9499999999999997,-0.9499999999999997,1.0028306951898116,0.9499999999999997,-0.9499999999999997,high,high,,ISIC_0069257.JPG,,ISIC_0026531.JPG,167,true,hh,keypress(i),0,false,337059,337058.8000000119,330418.596,330563.09999996424,330435.373,336935.301,1,20,11,
sequence,flow.Sequence,6_10,2023-11-14T19:43:16.065Z,,,,,,,,,,6623.4270000118995,completion,,,,,,,high,high,,,,,,true,,,,false,337059.09999996424,337058.8000000119,330418.596,330563.09999996424,330435.373,336935.301,1,20,,
trial,html.Screen,6_11_0,2023-11-14T19:43:20.160Z,,,,1,0.7942487684199633,0.7711092153701026,,true,ll,4219.199000000022,response,-0.8552639039862626,0.9499999999999997,-0.9499999999999997,-1.0982314620989122,0.9499999999999997,-0.9499999999999997,low,low,,ISIC_3810274.JPG,,ISIC_0026278.JPG,142,true,ll,keypress(f),0,false,341154.6999999881,341154.5,336918.231,337059.09999996424,336935.301,341018.467,1,20,12,
sequence,flow.Sequence,6_11,2023-11-14T19:43:20.160Z,,,,,,,,,,4219.199000000022,completion,,,,,,,low,low,,,,,,true,,,,false,341154.8000000119,341154.5,336918.231,337059.09999996424,336935.301,341018.467,1,20,,
trial,html.Screen,6_12_0,2023-11-14T19:43:26.992Z,,,,1,0.9873794329144926,-0.7991077882008257,,true,lh,6968.232999988075,response,-1.020990671779317,0.9499999999999997,-0.9499999999999997,1.0116513850520903,0.9499999999999997,-0.9499999999999997,low,high,,ISIC_0013498.JPG,,ISIC_0011995.JPG,28,true,lh,keypress(e),0,false,347986.8000000119,347986.6999999881,341001.909,341154.89999997616,341018.467,347851.762,1,20,13,
sequence,flow.Sequence,6_12,2023-11-14T19:43:26.993Z,,,,,,,,,,6968.232999988075,completion,,,,,,,low,high,,,,,,true,,,,false,347986.89999997616,347986.6999999881,341001.909,341154.89999997616,341018.467,347851.762,1,20,,
trial,html.Screen,6_13_0,2023-11-14T19:43:32.832Z,,,,1,0.987907971728555,0.7987724453125647,,true,ll,5974.837999964249,response,-0.8778348457214913,0.9499999999999997,-0.9499999999999997,-0.8379442136072591,0.9499999999999997,-0.9499999999999997,low,low,,ISIC_3613392.JPG,,ISIC_0013213.JPG,142,true,ll,keypress(f),0,false,353826.6999999881,353826.59999996424,347835.13,347986.89999997616,347851.762,353702.01,1,20,14,
sequence,flow.Sequence,6_13,2023-11-14T19:43:32.832Z,,,,,,,,,,5974.837999964249,completion,,,,,,,low,low,,,,,,true,,,,false,353826.89999997616,353826.59999996424,347835.13,347986.89999997616,347851.762,353702.01,1,20,,
trial,html.Screen,6_14_0,2023-11-14T19:43:39.328Z,,,,1,-0.7959241725897693,-1.0541742265379377,,true,hh,6620.790000011912,response,0.9152802917888962,0.9499999999999997,-0.9499999999999997,0.8414601987949015,0.9499999999999997,-0.9499999999999997,high,high,,ISIC_6646939.JPG,,ISIC_0060341.JPG,167,true,hh,keypress(i),0,false,360322.89999997616,360322.8000000119,353685.189,353826.89999997616,353702.01,360185.063,1,20,15,
sequence,flow.Sequence,6_14,2023-11-14T19:43:39.329Z,,,,,,,,,,6620.790000011912,completion,,,,,,,high,high,,,,,,true,,,,false,360322.89999997616,360322.8000000119,353685.189,353826.89999997616,353702.01,360185.063,1,20,,
trial,html.Screen,6_15_0,2023-11-14T19:43:42.576Z,,,,1,1.0931477426281198,1.0028306951898116,,true,ll,3385.6369999880553,response,-0.9102336581208296,0.9499999999999997,-0.9499999999999997,-1.0305113346799688,0.9499999999999997,-0.9499999999999997,low,low,,ISIC_0026531.JPG,,ISIC_0068530.JPG,142,true,ll,keypress(f),0,false,363570.8000000119,363570.6999999881,360168.472,360322.89999997616,360185.063,363435.069,1,20,16,
sequence,flow.Sequence,6_15,2023-11-14T19:43:42.577Z,,,,,,,,,,3385.6369999880553,completion,,,,,,,low,low,,,,,,true,,,,false,363570.89999997616,363570.6999999881,360168.472,360322.89999997616,360185.063,363435.069,1,20,,
trial,html.Screen,6_16_0,2023-11-14T19:43:48.864Z,,,,1,-0.952434586184464,-0.870679752281305,,true,hh,6423.630999988061,response,0.9079289924001074,0.9499999999999997,-0.9499999999999997,0.7922971602123134,0.9499999999999997,-0.9499999999999997,high,high,,ISIC_5791954.JPG,,ISIC_6644659.JPG,167,true,hh,keypress(i),0,false,369858.8000000119,369858.6999999881,363418.606,363571,363435.069,369735.271,1,20,17,
sequence,flow.Sequence,6_16,2023-11-14T19:43:48.865Z,,,,,,,,,,6423.630999988061,completion,,,,,,,high,high,,,,,,true,,,,false,369858.89999997616,369858.6999999881,363418.606,363571,363435.069,369735.271,1,20,,
trial,html.Screen,6_17_0,2023-11-14T19:43:56.769Z,,,,1,0.8947611078712571,-0.8960964505004638,,true,lh,8027.428999988071,response,-0.9696118525781644,0.9499999999999997,-0.9499999999999997,0.9244148283103414,0.9499999999999997,-0.9499999999999997,low,high,,ISIC_6441128.JPG,,ISIC_7927525.JPG,28,true,lh,keypress(e),0,false,377762.89999997616,377762.6999999881,369718.459,369858.89999997616,369735.271,377635.262,1,20,18,
sequence,flow.Sequence,6_17,2023-11-14T19:43:56.769Z,,,,,,,,,,8027.428999988071,completion,,,,,,,low,high,,,,,,true,,,,false,377763,377762.6999999881,369718.459,369858.89999997616,369735.271,377635.262,1,20,,
trial,html.Screen,6_18_0,2023-11-14T19:44:03.952Z,,,,1,0.991146183030456,-0.9949639823722534,,true,lh,7311.437999988091,response,-0.990489579313564,0.9499999999999997,-0.9499999999999997,0.7747897983133127,0.9499999999999997,-0.9499999999999997,low,high,,ISIC_6342224.JPG,,ISIC_7030404.JPG,28,true,lh,keypress(e),0,false,384946.8000000119,384946.6999999881,377618.609,377763,377635.262,384818.575,1,20,19,
sequence,flow.Sequence,6_18,2023-11-14T19:44:03.953Z,,,,,,,,,,7311.437999988091,completion,,,,,,,low,high,,,,,,true,,,,false,384946.89999997616,384946.6999999881,377618.609,377763,377635.262,384818.575,1,20,,
trial,html.Screen,6_19_0,2023-11-14T19:44:14.836Z,,,,1,-1.0656673213158945,0.8082541692781954,,,,10883.190000000002,timeout,0.7809949855371787,0.9499999999999997,-0.9499999999999997,-0.8493861117004308,0.9499999999999997,-0.9499999999999997,high,low,,ISIC_0033985.JPG,,ISIC_7450481.JPG,26,true,,,0,false,395829.6999999881,395829.6999999881,384801.743,384947,384818.575,395701.765,1,20,20,
sequence,flow.Sequence,6_19,2023-11-14T19:44:14.836Z,,,,,,,,,,11011.124999988067,completion,,,,,,,high,low,,,,,,true,,,,false,395829.8000000119,395829.6999999881,384801.743,384947,384818.575,395701.765,1,20,,
practice_loop,flow.Loop,6,2023-11-14T19:44:14.836Z,,,,,,,,,,124761.19499998807,completion,,,,,,,,,,,,,,true,,,,false,395829.89999997616,395829.6999999881,271052.061,271208.09999996424,271068.505,395701.765,1,20,,
stair_instructions,html.Screen,7,2023-11-14T19:44:44.519Z,,,,,,,,,,29811.035000011907,response,,,,,,,,,,,,,,,continue,click button,,,425513.3000000119,425512.8000000119,395685.12,395829.89999997616,395701.765,425401.644,,,,
trial,html.Screen,8_0_0,2023-11-14T19:44:51.619Z,,,,2,-0.0097091270150747,0.0417921315885292,,true,hh,7211.15600001195,response,0.8745213387814831,0.9499999999999997,-0.9499999999999997,0.7523163498880049,0.9499999999999997,-0.9499999999999997,high,high,,ISIC_3967213.JPG,,ISIC_0054677.JPG,167,false,hh,keypress(i),0,true,432613,432612.8000000119,425385.011,425513.39999997616,425401.644,432501.917,1,40,1,
sequence,flow.Sequence,8_0,2023-11-14T19:44:51.619Z,,,,,,,,,,7211.15600001195,completion,,,,,,,high,high,,,,,,false,,,,true,432613.09999996424,432612.8000000119,425385.011,425513.39999997616,425401.644,432501.917,1,40,,
trial,html.Screen,8_1_0,2023-11-14T19:44:59.569Z,,,,2,0.0660839342637046,-0.0657899819532072,,false,ll,8060.782999988063,response,-0.9449111496440944,0.8999999999999997,-0.8999999999999997,-1.0105459531634893,0.8999999999999997,-0.8999999999999997,low,low,,ISIC_0065477.JPG,,ISIC_0679494.JPG,175,false,hl,keypress(j),0,true,440562.8000000119,440562.6999999881,432485.248,432613.09999996424,432501.917,440435.239,1,40,2,
sequence,flow.Sequence,8_1,2023-11-14T19:44:59.569Z,,,,,,,,,,8060.782999988063,completion,,,,,,,low,low,,,,,,false,,,,true,440562.89999997616,440562.6999999881,432485.248,432613.09999996424,432501.917,440435.239,1,40,,
trial,html.Screen,8_2_0,2023-11-14T19:45:07.089Z,,,,2,-0.0367218428225813,-0.0700576547090477,,false,lh,7647.460999988078,response,-0.7059992451035046,0.8499999999999996,-0.8999999999999997,0.694550940341387,0.8499999999999996,-0.8999999999999997,low,high,,ISIC_7212271.JPG,,ISIC_0032320.JPG,47,false,hh,keypress(i),0,true,448082.6999999881,448082.6999999881,440418.303,440563,440435.239,447951.762,1,40,3,
sequence,flow.Sequence,8_2,2023-11-14T19:45:07.089Z,,,,,,,,,,7647.460999988078,completion,,,,,,,low,high,,,,,,false,,,,true,448082.89999997616,448082.6999999881,440418.303,440563,440435.239,447951.762,1,40,,
trial,html.Screen,8_3_0,2023-11-14T19:45:18.081Z,,,,2,-0.0113873532168551,-0.0054999201556291,,,,11016.521000000008,timeout,-1.034740231914001,0.7999999999999996,-0.8999999999999997,0.6844507507038213,0.8499999999999996,-0.8499999999999996,low,high,,ISIC_8812621.JPG,,ISIC_8569205.JPG,47,false,,,0,true,459075,459074.89999997616,447934.996,448082.89999997616,447951.762,458968.283,1,40,4,
sequence,flow.Sequence,8_3,2023-11-14T19:45:18.081Z,,,,,,,,,,11123.13799997617,completion,,,,,,,low,high,,,,,,false,,,,true,459075.1999999881,459074.89999997616,447934.996,448082.89999997616,447951.762,458968.283,1,40,,
trial,html.Screen,8_4_0,2023-11-14T19:45:22.883Z,,,,2,-0.0362376068089956,-0.047825070846155,,true,ll,4908.316999964241,response,-0.9962130178668478,0.7999999999999996,-0.8999999999999997,-1.0198919808587756,0.8499999999999996,-0.8499999999999996,low,low,,ISIC_6985114.JPG,,ISIC_0595080.JPG,193,false,ll,keypress(f),0,true,463876.6999999881,463876.59999996424,458952.069,459075.1999999881,458968.283,463751.801,1,40,5,
sequence,flow.Sequence,8_4,2023-11-14T19:45:22.883Z,,,,,,,,,,4908.316999964241,completion,,,,,,,low,low,,,,,,false,,,,true,463876.89999997616,463876.59999996424,458952.069,459075.1999999881,458968.283,463751.801,1,40,,
trial,html.Screen,8_5_0,2023-11-14T19:45:29.697Z,,,,2,0.0050679133050021,-0.0009714874637896,,false,ll,6938.999000011943,response,-0.8323753563397326,0.7499999999999996,-0.8499999999999996,-1.0355093302574103,0.7999999999999996,-0.9152189670111324,low,low,,ISIC_9848743.JPG,,ISIC_0046729.JPG,181,false,hl,keypress(j),0,true,470690.89999997616,470690.8000000119,463735.265,463876.89999997616,463751.801,470568.381,1,40,6,
sequence,flow.Sequence,8_5,2023-11-14T19:45:29.697Z,,,,,,,,,,6938.999000011943,completion,,,,,,,low,low,,,,,,false,,,,true,470691,470690.8000000119,463735.265,463876.89999997616,463751.801,470568.381,1,40,,
trial,html.Screen,8_6_0,2023-11-14T19:45:38.273Z,,,,2,-0.0367218428225813,-0.0700576547090477,,false,hl,8698.318999988085,response,0.6159110752639473,0.6999999999999995,-0.8499999999999996,-0.9608461034527604,0.7499999999999996,-0.9152189670111324,high,low,,ISIC_7212271.JPG,,ISIC_0025215.JPG,60,false,hh,keypress(i),0,true,479266.8000000119,479266.6999999881,470551.658,470691,470568.381,479134.905,1,40,7,
sequence,flow.Sequence,8_6,2023-11-14T19:45:38.273Z,,,,,,,,,,8698.318999988085,completion,,,,,,,high,low,,,,,,false,,,,true,479266.8000000119,479266.6999999881,470551.658,470691,470568.381,479134.905,1,40,,
trial,html.Screen,8_7_0,2023-11-14T19:45:44.945Z,,,,2,-0.0277178575053843,0.0395587463147856,,true,lh,6803.794999988051,response,-0.8245554507779774,0.6999999999999995,-0.7999999999999996,0.6385228105255385,0.6999999999999995,-0.9152189670111324,low,high,,ISIC_0010807.JPG,,ISIC_0010838.JPG,86,false,lh,keypress(e),0,true,485938.89999997616,485938.6999999881,479118.108,479266.89999997616,479134.905,485801.56,1,40,8,
sequence,flow.Sequence,8_7,2023-11-14T19:45:44.945Z,,,,,,,,,,6803.794999988051,completion,,,,,,,low,high,,,,,,false,,,,true,485938.89999997616,485938.6999999881,479118.108,479266.89999997616,479134.905,485801.56,1,40,,
trial,html.Screen,8_8_0,2023-11-14T19:45:51.233Z,,,,2,-0.0113873532168551,-0.0054999201556291,,false,lh,6424.940000000002,response,-0.6222166524938626,0.6499999999999995,-0.7499999999999996,0.3937305675530943,0.5665368754334626,-0.8652189670111323,low,high,,ISIC_8812621.JPG,,ISIC_3704157.JPG,127,false,ll,keypress(f),0,true,492226.59999996424,492226.5,485784.978,485939,485801.56,492101.765,1,40,9,
sequence,flow.Sequence,8_8,2023-11-14T19:45:51.233Z,,,,,,,,,,6424.940000000002,completion,,,,,,,low,high,,,,,,false,,,,true,492226.6999999881,492226.5,485784.978,485938.89999997616,485801.56,492101.765,1,40,,
trial,html.Screen,8_9_0,2023-11-14T19:45:55.569Z,,,,2,-0.0735635316240061,0.0537805418091709,,false,hl,4460.934999988065,response,0.658450997652008,0.5999999999999994,-0.7499999999999996,-0.8660404645096786,0.5665368754334626,-0.8152189670111323,high,low,,ISIC_1761799.JPG,,ISIC_6515546.JPG,102,false,hh,keypress(i),0,true,496562.8000000119,496562.6999999881,492084.791,492226.8000000119,492101.765,496435.015,1,40,10,
sequence,flow.Sequence,8_9,2023-11-14T19:45:55.569Z,,,,,,,,,,4460.934999988065,completion,,,,,,,high,low,,,,,,false,,,,true,496562.89999997616,496562.6999999881,492084.791,492226.6999999881,492101.765,496435.015,1,40,,
trial,html.Screen,8_10_0,2023-11-14T19:46:03.217Z,,,,2,0.0651705891246238,-0.0394586219902573,,false,lh,7775.484999999986,response,-0.6136231378133207,0.5999999999999994,-0.6999999999999995,0.6191393321114834,0.5165368754334626,-0.8152189670111323,low,high,,ISIC_0013491.JPG,,ISIC_0029570.JPG,163,false,ll,keypress(f),0,true,504210.59999996424,504210.5,496418.301,496562.89999997616,496435.015,504085.168,1,40,11,
sequence,flow.Sequence,8_10,2023-11-14T19:46:03.217Z,,,,,,,,,,7775.484999999986,completion,,,,,,,low,high,,,,,,false,,,,true,504210.6999999881,504210.5,496418.301,496562.89999997616,496435.015,504085.168,1,40,,
trial,html.Screen,8_11_0,2023-11-14T19:46:08.625Z,,,,2,-0.0134764727102299,-0.0033499036460912,,false,lh,5533.431999964232,response,-0.5062278573762197,0.5499999999999994,-0.6999999999999995,0.6560246526828526,0.5165368754334626,-0.7652189670111322,low,high,,ISIC_0009998.JPG,,ISIC_2203239.JPG,163,false,hh,keypress(i),0,true,509618.8000000119,509618.59999996424,504068.249,504210.6999999881,504085.168,509484.888,1,40,12,
sequence,flow.Sequence,8_11,2023-11-14T19:46:08.626Z,,,,,,,,,,5533.431999964232,completion,,,,,,,low,high,,,,,,false,,,,true,509618.89999997616,509618.59999996424,504068.249,504210.6999999881,504085.168,509484.888,1,40,,
trial,html.Screen,8_12_0,2023-11-14T19:46:17.249Z,,,,2,-0.0220322185490382,-0.0740918837949419,,false,lh,8757.511999976181,response,-0.7706378181230575,0.4999999999999994,-0.6999999999999995,0.5667176896269589,0.5165368754334626,-0.7152189670111322,low,high,,ISIC_8105020.JPG,,ISIC_9574101.JPG,163,false,hh,keypress(i),0,true,518242.5,518242.39999997616,509468.258,509618.89999997616,509484.888,518118.657,1,40,13,
sequence,flow.Sequence,8_12,2023-11-14T19:46:17.249Z,,,,,,,,,,8757.511999976181,completion,,,,,,,low,high,,,,,,false,,,,true,518242.59999996424,518242.39999997616,509468.258,509618.89999997616,509484.888,518118.657,1,40,,
trial,html.Screen,8_13_0,2023-11-14T19:46:25.617Z,,,,2,-0.0533723079251252,-0.0299718727255261,,false,hh,8492.042999988073,response,0.4012449916210717,0.4999999999999994,-0.6999999999999995,0.4033213268740173,0.5165368754334626,-0.6652189670111321,high,high,,ISIC_6562871.JPG,,ISIC_0609067.JPG,407,false,lh,keypress(e),0,true,526610.8000000119,526610.6999999881,518101.657,518242.6999999881,518118.657,526485.142,1,40,14,
sequence,flow.Sequence,8_13,2023-11-14T19:46:25.618Z,,,,,,,,,,8492.042999988073,completion,,,,,,,high,high,,,,,,false,,,,true,526610.8999999762,526610.6999999881,518101.657,518242.59999996424,518118.657,526485.142,1,40,,
trial,html.Screen,8_14_0,2023-11-14T19:46:31.233Z,,,,2,-0.000047919190197942736,-0.0462652940855003,,false,hh,5740.757999976166,response,0.4108603745557239,0.4999999999999994,-0.6499999999999995,0.6484370232069407,0.5165368754334626,-0.6152189670111321,high,high,,ISIC_0011507.JPG,,ISIC_7567699.JPG,407,false,lh,keypress(e),0,true,532226,532225.8999999762,526467.989,526610.8999999762,526485.142,532101.68,1,40,15,
sequence,flow.Sequence,8_14,2023-11-14T19:46:31.233Z,,,,,,,,,,5740.757999976166,completion,,,,,,,high,high,,,,,,false,,,,true,532226.1999999881,532225.8999999762,526467.989,526610.8999999762,526485.142,532101.68,1,40,,
trial,html.Screen,8_15_0,2023-11-14T19:46:37.649Z,,,,2,0.0217698886732706,-0.0410870915161425,,false,hl,6540.919999964186,response,0.4214577372483614,0.4999999999999994,-0.5999999999999994,-0.6692159813889706,0.5165368754334626,-0.5652189670111321,high,low,,ISIC_0072173.JPG,,ISIC_1495182.JPG,229,false,ll,keypress(f),0,true,538642.6999999881,538642.5999999642,532084.859,532226.1999999881,532101.68,538518.254,1,40,16,
sequence,flow.Sequence,8_15,2023-11-14T19:46:37.649Z,,,,,,,,,,6540.919999964186,completion,,,,,,,high,low,,,,,,false,,,,true,538642.8000000119,538642.5999999642,532084.859,532226.1999999881,532101.68,538518.254,1,40,,
trial,html.Screen,8_16_0,2023-11-14T19:46:45.840Z,,,,2,0.0085520978188085,-0.0464691161264081,,false,lh,8315.246000000043,response,-0.5609265012715516,0.4999999999999994,-0.5499999999999994,0.2855892572043879,0.4665368754334626,-0.5652189670111321,low,high,,ISIC_0758797.JPG,,ISIC_9103090.JPG,230,false,hl,keypress(j),0,true,546833.6999999881,546833.5,538501.445,538642.8999999762,538518.254,546701.586,1,40,17,
sequence,flow.Sequence,8_16,2023-11-14T19:46:45.840Z,,,,,,,,,,8315.246000000043,completion,,,,,,,low,high,,,,,,false,,,,true,546833.6999999881,546833.5,538501.445,538642.8999999762,538518.254,546701.586,1,40,,
trial,html.Screen,8_17_0,2023-11-14T19:46:53.249Z,,,,2,0.0511770300585718,0.029030243555971,,true,hh,7540.91399999999,response,0.4027000070849932,0.4999999999999994,-0.5499999999999994,0.594755887033248,0.4665368754334626,-0.515218967011132,high,high,,ISIC_6652978.JPG,,ISIC_0064692.JPG,406,false,hh,keypress(i),0,true,554242.5999999642,554242.5,546684.822,546833.6999999881,546701.586,554118.447,1,40,18,
sequence,flow.Sequence,8_17,2023-11-14T19:46:53.249Z,,,,,,,,,,7540.91399999999,completion,,,,,,,high,high,,,,,,false,,,,true,554242.6999999881,554242.5,546684.822,546833.6999999881,546701.586,554118.447,1,40,,
trial,html.Screen,8_18_0,2023-11-14T19:46:59.185Z,,,,2,-0.0546386976779619,0.0448724759283131,,true,hh,6059.552999999956,response,0.6659756082017932,0.4999999999999994,-0.4999999999999994,0.2820407513385539,0.4665368754334626,-0.465218967011132,high,high,,ISIC_6722934.JPG,,ISIC_0012049.JPG,406,false,hh,keypress(i),0,true,560178.0999999642,560178,554101.48,554242.8000000119,554118.447,560051.771,1,40,19,
sequence,flow.Sequence,8_18,2023-11-14T19:46:59.185Z,,,,,,,,,,6059.552999999956,completion,,,,,,,high,high,,,,,,false,,,,true,560178.1999999881,560178,554101.48,554242.6999999881,554118.447,560051.771,1,40,,
trial,html.Screen,8_19_0,2023-11-14T19:47:05.505Z,,,,2,0.0593670819812057,-0.0718390543903236,,false,hl,6446.529000011971,response,0.3719565130878325,0.48433780764339324,-0.4999999999999994,-0.3383643859083203,0.41653687543346263,-0.465218967011132,high,low,,ISIC_0062367.JPG,,ISIC_2241755.JPG,293,false,ll,keypress(f),0,true,566498.5,566498.3000000119,560034.959,560178.3000000119,560051.771,566368.253,1,40,20,
sequence,flow.Sequence,8_19,2023-11-14T19:47:05.505Z,,,,,,,,,,6446.529000011971,completion,,,,,,,high,low,,,,,,false,,,,true,566498.5999999642,566498.3000000119,560034.959,560178.3000000119,560051.771,566368.253,1,40,,
trial,html.Screen,8_20_0,2023-11-14T19:47:10.945Z,,,,2,0.0324770283903853,0.0249968632204382,,false,hl,5570.047000011895,response,0.5196972435476068,0.48433780764339324,-0.4999999999999994,-0.5060144578366853,0.41653687543346263,-0.465218967011132,high,low,,ISIC_7266462.JPG,,ISIC_4232756.JPG,293,false,ll,keypress(f),0,true,571938.3999999762,571938.3000000119,566351.482,566498.5999999642,566368.253,571801.46,1,40,21,
sequence,flow.Sequence,8_20,2023-11-14T19:47:10.946Z,,,,,,,,,,5570.047000011895,completion,,,,,,,high,low,,,,,,false,,,,true,571938.5999999642,571938.3000000119,566351.482,566498.5999999642,566368.253,571801.46,1,40,,
trial,html.Screen,8_21_0,2023-11-14T19:47:16.690Z,,,,2,-0.0533723079251252,-0.0299718727255261,,true,hl,5881.1399999642745,response,0.5288668382469074,0.48433780764339324,-0.4999999999999994,-0.2688102479826009,0.41653687543346263,-0.465218967011132,high,low,,ISIC_6562871.JPG,,ISIC_0055048.JPG,293,false,hl,keypress(j),0,true,577682.6999999881,577682.5999999642,571784.987,571938.5999999642,571801.46,577551.66,1,40,22,
sequence,flow.Sequence,8_21,2023-11-14T19:47:16.690Z,,,,,,,,,,5881.1399999642745,completion,,,,,,,high,low,,,,,,false,,,,true,577682.8000000119,577682.5999999642,571784.987,571938.5999999642,571801.46,577551.66,1,40,,
trial,html.Screen,8_22_0,2023-11-14T19:47:27.682Z,,,,2,-0.0693466529227737,-0.044703434393184,,,,11016.922999999952,timeout,-0.5615077257192704,0.48433780764339324,-0.4999999999999994,-0.4781448725072162,0.41653687543346263,-0.41521896701113203,low,low,,ISIC_0004217.JPG,,ISIC_5336007.JPG,496,false,,,0,true,588674.8000000119,588674.6999999881,577534.646,577682.8000000119,577551.66,588568.583,1,40,23,
sequence,flow.Sequence,8_22,2023-11-14T19:47:27.682Z,,,,,,,,,,11123.039999988046,completion,,,,,,,low,low,,,,,,false,,,,true,588674.8999999762,588674.6999999881,577534.646,577682.8000000119,577551.66,588568.583,1,40,,
trial,html.Screen,8_23_0,2023-11-14T19:47:33.521Z,,,,2,-0.0533723079251252,-0.0299718727255261,,false,ll,5945.616999988095,response,-0.6113293617697344,0.48433780764339324,-0.4999999999999994,-0.5842310640881038,0.41653687543346263,-0.41521896701113203,low,low,,ISIC_6562871.JPG,,ISIC_6023518.JPG,496,false,hl,keypress(j),0,true,594514.3000000119,594514.1999999881,588551.502,588674.8999999762,588568.583,594384.803,1,40,24,
sequence,flow.Sequence,8_23,2023-11-14T19:47:33.521Z,,,,,,,,,,5945.616999988095,completion,,,,,,,low,low,,,,,,false,,,,true,594514.3999999762,594514.1999999881,588551.502,588674.8999999762,588568.583,594384.803,1,40,,
trial,html.Screen,8_24_0,2023-11-14T19:47:43.458Z,,,,2,0.0057914759495055,0.0074667911845194,,false,ll,10065.596999976202,response,-0.6081508557669449,0.48433780764339324,-0.4999999999999994,-0.3856254834120778,0.41653687543346263,-0.465218967011132,low,low,,ISIC_0058723.JPG,,ISIC_0728350.JPG,491,false,hl,keypress(j),0,true,604450.5999999642,604450.3999999762,594368.101,594514.5,594384.803,604318.261,1,40,25,
sequence,flow.Sequence,8_24,2023-11-14T19:47:43.458Z,,,,,,,,,,10065.596999976202,completion,,,,,,,low,low,,,,,,false,,,,true,604450.6999999881,604450.3999999762,594368.101,594514.5,594384.803,604318.261,1,40,,
trial,html.Screen,8_25_0,2023-11-14T19:47:47.538Z,,,,2,,-0.0264544974620926,,false,hh,4212.238999999943,response,0.3493538992474897,0.48433780764339324,-0.4999999999999994,0.5284951492886306,0.41653687543346263,-0.465218967011132,high,high,,ISIC_0056991.JPG,,ISIC_0057531.JPG,413,false,hl,keypress(j),0,true,608530.5999999642,608530.5,604301.187,604450.6999999881,604318.261,608401.433,1,40,26,
sequence,flow.Sequence,8_25,2023-11-14T19:47:47.538Z,,,,,,,,,,4212.238999999943,completion,,,,,,,high,high,,,,,,false,,,,true,608530.6999999881,608530.5,604301.187,604450.6999999881,604318.261,608401.433,1,40,,
trial,html.Screen,8_26_0,2023-11-14T19:47:54.066Z,,,,2,-0.000047919190197942736,-0.0462652940855003,,false,lh,6657.067000000039,response,-0.4719397125237816,0.48433780764339324,-0.4999999999999994,0.3899780341755505,0.4665368754334626,-0.465218967011132,low,high,,ISIC_0011507.JPG,,ISIC_0067549.JPG,252,false,hl,keypress(j),0,true,615058.5999999642,615058.5,608384.669,608530.6999999881,608401.433,614934.974,1,40,27,
sequence,flow.Sequence,8_26,2023-11-14T19:47:54.066Z,,,,,,,,,,6657.067000000039,completion,,,,,,,low,high,,,,,,false,,,,true,615058.6999999881,615058.5,608384.669,608530.6999999881,608401.433,614934.974,1,40,,
trial,html.Screen,8_27_0,2023-11-14T19:47:58.098Z,,,,2,-0.0102460616775615,0.0309670599545429,,false,hl,4155.625999964192,response,0.6059129637892523,0.48433780764339324,-0.4999999999999994,-0.5480391050166944,0.4665368754334626,-0.465218967011132,high,low,,ISIC_0072041.JPG,,ISIC_2508901.JPG,293,false,ll,keypress(f),0,true,619090.5999999642,619090.5999999642,614917.912,615058.6999999881,614934.974,618968.535,1,40,28,
sequence,flow.Sequence,8_27,2023-11-14T19:47:58.098Z,,,,,,,,,,4155.625999964192,completion,,,,,,,high,low,,,,,,false,,,,true,619090.6999999881,619090.5999999642,614917.912,615058.6999999881,614934.974,618968.535,1,40,,
trial,html.Screen,8_28_0,2023-11-14T19:48:07.746Z,,,,2,-0.0644357632656846,-0.0501167370292348,,false,ll,9769.664999988046,response,-0.5089746342559943,0.48433780764339324,-0.4999999999999994,-0.5635306966596147,0.4665368754334626,-0.465218967011132,low,low,,ISIC_5207050.JPG,,ISIC_0001119.JPG,491,false,lh,keypress(e),0,true,628738.1999999881,628738.1999999881,618951.588,619090.8000000119,618968.535,628601.417,1,40,29,
sequence,flow.Sequence,8_28,2023-11-14T19:48:07.746Z,,,,,,,,,,9769.664999988046,completion,,,,,,,low,low,,,,,,false,,,,true,628738.3000000119,628738.1999999881,618951.588,619090.8000000119,618968.535,628601.417,1,40,,
trial,html.Screen,8_29_0,2023-11-14T19:48:12.722Z,,,,2,-0.0220322185490382,-0.0740918837949419,,true,hh,5112.982999976142,response,0.6727084251147597,0.48433780764339324,-0.4999999999999994,0.2708574385678568,0.4665368754334626,-0.465218967011132,high,high,,ISIC_8105020.JPG,,ISIC_7895093.JPG,407,false,hh,keypress(i),0,true,633714.5999999642,633714.3999999762,628584.544,628738.3999999762,628601.417,633585.02,1,40,30,
sequence,flow.Sequence,8_29,2023-11-14T19:48:12.722Z,,,,,,,,,,5112.982999976142,completion,,,,,,,high,high,,,,,,false,,,,true,633714.6999999881,633714.3999999762,628584.544,628738.3999999762,628601.417,633585.02,1,40,,
trial,html.Screen,8_30_0,2023-11-14T19:48:18.034Z,,,,2,-0.0021038737988857,0.0570427519488725,,true,hh,5441.3799999761395,response,0.5122549314685032,0.48433780764339324,-0.4999999999999994,0.5272722373490393,0.4665368754334626,-0.465218967011132,high,high,,ISIC_3596927.JPG,,ISIC_0033708.JPG,407,false,hh,keypress(i),0,true,639026.3999999762,639026.3999999762,633568.142,633714.6999999881,633585.02,638901.629,1,40,31,
sequence,flow.Sequence,8_30,2023-11-14T19:48:18.034Z,,,,,,,,,,5441.3799999761395,completion,,,,,,,high,high,,,,,,false,,,,true,639026.5999999642,639026.3999999762,633568.142,633714.6999999881,633585.02,638901.629,1,40,,
trial,html.Screen,8_31_0,2023-11-14T19:48:25.314Z,,,,2,0.0363437082783146,0.0333332186217051,,false,hh,7404.270999976201,response,0.5871163132085091,0.4924816782916314,-0.4999999999999994,0.5253022164815413,0.41653687543346263,-0.465218967011132,high,high,,ISIC_3314555.JPG,,ISIC_2500254.JPG,415,false,lh,keypress(e),0,true,646306.0999999642,646305.8999999762,638884.59,639026.5999999642,638901.629,646185.636,1,40,32,
sequence,flow.Sequence,8_31,2023-11-14T19:48:25.314Z,,,,,,,,,,7404.270999976201,completion,,,,,,,high,high,,,,,,false,,,,true,646306.1999999881,646305.8999999762,638884.59,639026.5999999642,638901.629,646185.636,1,40,,
trial,html.Screen,8_32_0,2023-11-14T19:48:32.258Z,,,,2,0.0544808612748248,-0.0240487075377862,,false,ll,7064.96399996418,response,-0.4138355784277554,0.4924816782916314,-0.4999999999999994,-0.3049484452407685,0.4665368754334626,-0.465218967011132,low,low,,ISIC_4606646.JPG,,ISIC_0773096.JPG,491,false,hh,keypress(i),0,true,653250.6999999881,653250.5999999642,646151.18,646306.1999999881,646185.636,653118.142,1,40,33,
sequence,flow.Sequence,8_32,2023-11-14T19:48:32.258Z,,,,,,,,,,7064.96399996418,completion,,,,,,,low,low,,,,,,false,,,,true,653250.8000000119,653250.5999999642,646151.18,646306.1999999881,646185.636,653118.142,1,40,,
trial,html.Screen,8_33_0,2023-11-14T19:48:39.474Z,,,,2,-0.0188047466661863,0.0288346930436979,,false,lh,7348.257999976166,response,-0.4913984223378476,0.4924816782916314,-0.4999999999999994,0.5011868349606486,0.4665368754334626,-0.465218967011132,low,high,,ISIC_0014157.JPG,,ISIC_2914160.JPG,252,false,hl,keypress(j),0,true,660466.5,660466.3999999762,653101.423,653250.8999999762,653118.142,660334.851,1,40,34,
sequence,flow.Sequence,8_33,2023-11-14T19:48:39.474Z,,,,,,,,,,7348.257999976166,completion,,,,,,,low,high,,,,,,false,,,,true,660466.5999999642,660466.3999999762,653101.423,653250.8999999762,653118.142,660334.851,1,40,,
trial,html.Screen,8_34_0,2023-11-14T19:48:50.342Z,,,,2,-0.0220322185490382,-0.0740918837949419,,,,10866.454999999958,timeout,-0.4144070208724231,0.4924816782916314,-0.4999999999999994,-0.3485758205853827,0.4665368754334626,-0.465218967011132,low,low,,ISIC_8105020.JPG,,ISIC_1226440.JPG,491,false,,,0,true,671334.6999999881,671334.5999999642,660318.075,660466.5999999642,660334.851,671201.306,1,40,35,
sequence,flow.Sequence,8_34,2023-11-14T19:48:50.342Z,,,,,,,,,,10999.748999964213,completion,,,,,,,low,low,,,,,,false,,,,true,671334.8999999762,671334.5999999642,660318.075,660466.5999999642,660334.851,671201.306,1,40,,
trial,html.Screen,8_35_0,2023-11-14T19:48:57.122Z,,,,2,0.0544808612748248,-0.0240487075377862,,false,hl,6913.093999976176,response,0.5338432228408309,0.4924816782916314,-0.4999999999999994,-0.3451775352527995,0.4665368754334626,-0.465218967011132,high,low,,ISIC_4606646.JPG,,ISIC_4900077.JPG,291,false,hh,keypress(i),0,true,678114.5,678114.3999999762,671184.694,671334.8999999762,671201.306,677984.68,1,40,36,
sequence,flow.Sequence,8_35,2023-11-14T19:48:57.122Z,,,,,,,,,,6913.093999976176,completion,,,,,,,high,low,,,,,,false,,,,true,678114.5,678114.3999999762,671184.694,671334.8999999762,671201.306,677984.68,1,40,,
trial,html.Screen,8_36_0,2023-11-14T19:49:00.802Z,,,,2,-0.009234249673026,-0.0627190878028592,,false,hl,3809.6200000118697,response,0.556921360150559,0.4924816782916314,-0.4999999999999994,-0.6403993747034228,0.4665368754334626,-0.465218967011132,high,low,,ISIC_0053760.JPG,,ISIC_0069150.JPG,291,false,hh,keypress(i),0,true,681794.3000000119,681794.3000000119,677967.817,678114.5999999642,677984.68,681668.308,1,40,37,
sequence,flow.Sequence,8_36,2023-11-14T19:49:00.802Z,,,,,,,,,,3809.6200000118697,completion,,,,,,,high,low,,,,,,false,,,,true,681794.3999999762,681794.3000000119,677967.817,678114.5999999642,677984.68,681668.308,1,40,,
trial,html.Screen,8_37_0,2023-11-14T19:49:09.346Z,,,,2,0.0057914759495055,0.0074667911845194,,true,ll,8670.091999976197,response,-0.404609657346472,0.4924816782916314,-0.4999999999999994,-0.3333374943928823,0.4665368754334626,-0.465218967011132,low,low,,ISIC_0058723.JPG,,ISIC_8168598.JPG,491,false,ll,keypress(f),0,true,690338.5,690338.3999999762,681651.422,681794.5,681668.308,690201.339,1,40,38,
sequence,flow.Sequence,8_37,2023-11-14T19:49:09.346Z,,,,,,,,,,8670.091999976197,completion,,,,,,,low,low,,,,,,false,,,,true,690338.5999999642,690338.3999999762,681651.422,681794.3999999762,681668.308,690201.339,1,40,,
trial,html.Screen,8_38_0,2023-11-14T19:49:14.945Z,,,,2,0.0085520978188085,-0.0464691161264081,,true,hh,5735.961000011885,response,0.3634323994619451,0.4924816782916314,-0.4999999999999994,0.5959653169013739,0.4665368754334626,-0.465218967011132,high,high,,ISIC_0758797.JPG,,ISIC_0010380.JPG,408,false,hh,keypress(i),0,true,695937.5,695937.3000000119,690184.661,690338.6999999881,690201.339,695801.284,1,40,39,
sequence,flow.Sequence,8_38,2023-11-14T19:49:14.945Z,,,,,,,,,,5735.961000011885,completion,,,,,,,high,high,,,,,,false,,,,true,695937.5999999642,695937.3000000119,690184.661,690338.6999999881,690201.339,695801.284,1,40,,
trial,html.Screen,8_39_0,2023-11-14T19:49:20.081Z,,,,2,-0.0688801591312476,-0.0185462113313342,,false,hl,5272.516000011936,response,0.5548316165445162,0.44248167829163143,-0.4999999999999994,-0.635613752484264,0.4665368754334626,-0.465218967011132,high,low,,ISIC_0067723.JPG,,ISIC_9005623.JPG,315,false,ll,keypress(f),0,true,701073.8999999762,701073.8000000119,695784.773,695937.5999999642,695801.284,700951.304,1,40,40,
sequence,flow.Sequence,8_39,2023-11-14T19:49:20.082Z,,,,,,,,,,5272.516000011936,completion,,,,,,,high,low,,,,,,false,,,,true,701074,701073.8000000119,695784.773,695937.5999999642,695801.284,700951.304,1,40,,
stair_loop,flow.Loop,8,2023-11-14T19:49:20.082Z,,,,,,,,,,275672.15600001195,completion,,,,,,,,,,,,,,false,,,,true,701074.0999999642,701073.8000000119,425385.011,425513.39999997616,425401.644,700951.304,1,40,,
exp_instructions,html.Screen,9,2023-11-14T19:49:37.586Z,,,,,,,,,,17626.595999976154,response,,,,,,,,,,,,,,,continue,keypress(Space),,,718578.3999999762,718577.8999999762,700934.465,701074.0999999642,700951.304,718451.436,,,,
trial,html.Screen,10_0_0,2023-11-14T19:49:45.924Z,,,,1,-0.0188047466661863,0.0288346930436979,,false,lh,8464.763999988092,response,-0.5196297800201162,0.4855025494351003,-0.4999999999999994,0.2875565493905511,0.44903687543346243,-0.460218967011132,low,high,,ISIC_0014157.JPG,8,ISIC_0010551.JPG,257,false,hh,keypress(i),0,false,726916.3000000119,726916.1999999881,718433.935,718578.3999999762,718451.436,726784.697,4,500,1,
break,html.Screen,10_0_1,2023-11-14T19:49:45.924Z,,,,,,,,,,NaN,,,,,,,,low,high,,,,,,false,,,,false,726916.6999999881,726916.5,,726916.3999999762,,726784.697,4,500,,
break_continue,html.Screen,10_0_2,2023-11-14T19:49:45.925Z,,,,,,,,,,NaN,,,,,,,,low,high,,,,,,false,,,,false,726916.8999999762,726916.8999999762,,726916.6999999881,,726784.697,4,500,,
sequence,flow.Sequence,10_0,2023-11-14T19:49:45.925Z,,,,,,,,,,8465.463999976171,completion,,,,,,,low,high,,,,,,false,,,,false,726916.8999999762,726916.8999999762,718433.935,718578.3999999762,718451.436,726784.697,4,500,,
trial,html.Screen,10_1_0,2023-11-14T19:49:50.578Z,,,,1,0.0329095507339554,-0.0382899749693245,,false,ll,4785.702999976114,response,-0.5960655956089538,0.4855025494351003,-0.4999999999999994,-0.6169256349188966,0.44903687543346243,-0.460218967011132,low,low,,ISIC_8812781.JPG,9,ISIC_1525284.JPG,491,false,hh,keypress(i),0,false,731570.5,731570.3999999762,726767.965,726917.0999999642,726784.697,731434.588,4,500,2,
break,html.Screen,10_1_1,2023-11-14T19:49:50.579Z,,,,,,,,,,NaN,,,,,,,,low,low,,,,,,false,,,,false,731570.8000000119,731570.6999999881,,731570.5999999642,,731434.588,4,500,,
break_continue,html.Screen,10_1_2,2023-11-14T19:49:50.579Z,,,,,,,,,,NaN,,,,,,,,low,low,,,,,,false,,,,false,731571,731570.8999999762,,731570.8999999762,,731434.588,4,500,,
sequence,flow.Sequence,10_1,2023-11-14T19:49:50.579Z,,,,,,,,,,4786.202999976114,completion,,,,,,,low,low,,,,,,false,,,,false,731571.0999999642,731570.8999999762,726767.965,726917,726784.697,731434.588,4,500,,
trial,html.Screen,10_2_0,2023-11-14T19:49:55.282Z,,,,1,-0.0688801591312476,-0.0185462113313342,,true,ll,4839.61199998809,response,-0.5301477929915612,0.4855025494351003,-0.4999999999999994,-0.4674757317769261,0.44903687543346243,-0.460218967011132,low,low,,ISIC_0067723.JPG,8,ISIC_9874512.JPG,491,false,ll,keypress(f),0,false,736274.1999999881,736274.1999999881,731418.091,731571.0999999642,731434.588,736151.558,4,500,3,
break,html.Screen,10_2_1,2023-11-14T19:49:55.282Z,,,,,,,,,,NaN,,,,,,,,low,low,,,,,,false,,,,false,736274.5999999642,736274.3999999762,,736274.3999999762,,736151.558,4,500,,
break_continue,html.Screen,10_2_2,2023-11-14T19:49:55.282Z,,,,,,,,,,NaN,,,,,,,,low,low,,,,,,false,,,,false,736274.6999999881,736274.6999999881,,736274.5999999642,,736151.558,4,500,,
sequence,flow.Sequence,10_2,2023-11-14T19:49:55.282Z,,,,,,,,,,4840.11199998809,completion,,,,,,,low,low,,,,,,false,,,,false,736274.8000000119,736274.6999999881,731418.091,731571.0999999642,731434.588,736151.558,4,500,,
trial,html.Screen,10_3_0,2023-11-14T19:50:00.258Z,,,,1,0.0544808612748248,-0.0240487075377862,,false,hl,5098.841999976197,response,0.4177799285511917,0.4855025494351003,-0.4999999999999994,-0.5392074540899288,0.44903687543346243,-0.460218967011132,high,low,,ISIC_4606646.JPG,9,ISIC_0057669.JPG,296,false,hh,keypress(i),0,false,741250.5,741250.3999999762,736134.717,736274.8000000119,736151.558,741118.046,4,500,4,
break,html.Screen,10_3_1,2023-11-14T19:50:00.258Z,,,,,,,,,,NaN,,,,,,,,high,low,,,,,,false,,,,false,741250.8999999762,741250.6999999881,,741250.5,,741118.046,4,500,,
break_continue,html.Screen,10_3_2,2023-11-14T19:50:00.259Z,,,,,,,,,,NaN,,,,,,,,high,low,,,,,,false,,,,false,741251,741250.8999999762,,741250.8999999762,,741118.046,4,500,,
sequence,flow.Sequence,10_3,2023-11-14T19:50:00.259Z,,,,,,,,,,5099.341999976197,completion,,,,,,,high,low,,,,,,false,,,,false,741251,741250.8999999762,736134.717,736274.8000000119,736151.558,741118.046,4,500,,
trial,html.Screen,10_4_0,2023-11-14T19:50:09.234Z,,,,1,0.0324770283903853,0.0249968632204382,,false,ll,9108.254000011948,response,-0.5695102191820279,0.4855025494351003,-0.4999999999999994,-0.578834247733116,0.44903687543346243,-0.460218967011132,low,low,,ISIC_7266462.JPG,8,ISIC_5300774.JPG,491,false,lh,keypress(e),0,false,750226.3999999762,750226.3000000119,741101.571,741251.0999999642,741118.046,750101.541,4,500,5,
break,html.Screen,10_4_1,2023-11-14T19:50:09.235Z,,,,,,,,,,NaN,,,,,,,,low,low,,,,,,false,,,,false,750226.8999999762,750226.6999999881,,750226.5,,750101.541,4,500,,
break_continue,html.Screen,10_4_2,2023-11-14T19:50:09.235Z,,,,,,,,,,NaN,,,,,,,,low,low,,,,,,false,,,,false,750227.0999999642,750226.8999999762,,750226.8999999762,,750101.541,4,500,,
sequence,flow.Sequence,10_4,2023-11-14T19:50:09.235Z,,,,,,,,,,9108.853999976185,completion,,,,,,,low,low,,,,,,false,,,,false,750227.0999999642,750226.8999999762,741101.571,741251.0999999642,741118.046,750101.541,4,500,,
trial,html.Screen,10_5_0,2023-11-14T19:50:20.118Z,,,,1,-0.0348234368746005,0.0236866303880924,,,,10883.324000000022,timeout,0.5459906861193687,0.4855025494351003,-0.4999999999999994,0.5723924693513213,0.44903687543346243,-0.460218967011132,high,high,,ISIC_0011099.JPG,9,ISIC_0313507.JPG,408,false,,,0,false,761109.8000000119,761109.6999999881,750084.715,750227.0999999642,750101.541,760984.865,4,500,6,
break,html.Screen,10_5_1,2023-11-14T19:50:20.118Z,,,,,,,,,,NaN,,,,,,,,high,high,,,,,,false,,,,false,761110.1999999881,761110,,761110,,760984.865,4,500,,
break_continue,html.Screen,10_5_2,2023-11-14T19:50:20.118Z,,,,,,,,,,NaN,,,,,,,,high,high,,,,,,false,,,,false,761110.5,761110.3999999762,,761110.3000000119,,760984.865,4,500,,
sequence,flow.Sequence,10_5,2023-11-14T19:50:20.118Z,,,,,,,,,,11008.85899997619,completion,,,,,,,high,high,,,,,,false,,,,false,761110.5,761110.3999999762,750084.715,750227.0999999642,750101.541,760984.865,4,500,,
trial,html.Screen,10_6_0,2023-11-14T19:50:26.562Z,,,,1,0.0415913596725838,-0.0543422987007948,,false,hh,6569.334999988088,response,0.4108603745557239,0.4855025494351003,-0.4999999999999994,0.6484370232069407,0.44903687543346243,-0.460218967011132,high,high,,ISIC_0027956.JPG,9,ISIC_7567699.JPG,408,false,lh,keypress(e),0,false,767554.3000000119,767554.1999999881,760968.191,761110.5,760984.865,767417.918,4,500,7,
break,html.Screen,10_6_1,2023-11-14T19:50:26.562Z,,,,,,,,,,NaN,,,,,,,,high,high,,,,,,false,,,,false,767554.5,767554.5,,767554.3000000119,,767417.918,4,500,,
break_continue,html.Screen,10_6_2,2023-11-14T19:50:26.563Z,,,,,,,,,,NaN,,,,,,,,high,high,,,,,,false,,,,false,767554.6999999881,767554.6999999881,,767554.5,,767417.918,4,500,,
sequence,flow.Sequence,10_6,2023-11-14T19:50:26.563Z,,,,,,,,,,6569.834999988088,completion,,,,,,,high,high,,,,,,false,,,,false,767554.6999999881,767554.6999999881,760968.191,761110.5,760984.865,767417.918,4,500,,
trial,html.Screen,10_7_0,2023-11-14T19:50:33.842Z,,,,1,0.0085520978188085,-0.0464691161264081,,true,ll,7416.382000011974,response,-0.5817271964643149,0.4855025494351003,-0.4999999999999994,-0.5024245210966175,0.44903687543346243,-0.460218967011132,low,low,,ISIC_0758797.JPG,9,ISIC_0016082.JPG,491,false,ll,keypress(f),0,false,774834.3999999762,774834.3000000119,767401.535,767554.8000000119,767417.918,774701.244,4,500,8,
break,html.Screen,10_7_1,2023-11-14T19:50:33.843Z,,,,,,,,,,NaN,,,,,,,,low,low,,,,,,false,,,,false,774834.6999999881,774834.5999999642,,774834.3999999762,,774701.244,4,500,,
break_continue,html.Screen,10_7_2,2023-11-14T19:50:33.843Z,,,,,,,,,,NaN,,,,,,,,low,low,,,,,,false,,,,false,774834.8999999762,774834.8999999762,,774834.8000000119,,774701.244,4,500,,
sequence,flow.Sequence,10_7,2023-11-14T19:50:33.843Z,,,,,,,,,,7416.981999976211,completion,,,,,,,low,low,,,,,,false,,,,false,774835,774834.8999999762,767401.535,767554.8000000119,767417.918,774701.244,4,500,,
trial,html.Screen,10_8_0,2023-11-14T19:50:40.386Z,,,,1,0.0538169356437535,-0.0113486191005169,,false,hl,6676.955999988131,response,0.335919404675279,0.4855025494351003,-0.4999999999999994,-0.5177907807707952,0.44903687543346243,-0.460218967011132,high,low,,ISIC_0009939.JPG,9,ISIC_3193774.JPG,296,false,lh,keypress(e),0,false,781378.3000000119,781378.1999999881,774684.689,774835.0999999642,774701.244,781251.459,4,500,9,
break,html.Screen,10_8_1,2023-11-14T19:50:40.387Z,,,,,,,,,,NaN,,,,,,,,high,low,,,,,,false,,,,false,781378.6999999881,781378.5,,781378.3999999762,,781251.459,4,500,,
break_continue,html.Screen,10_8_2,2023-11-14T19:50:40.387Z,,,,,,,,,,NaN,,,,,,,,high,low,,,,,,false,,,,false,781378.8999999762,781378.8000000119,,781378.6999999881,,781251.459,4,500,,
sequence,flow.Sequence,10_8,2023-11-14T19:50:40.387Z,,,,,,,,,,6677.556000011973,completion,,,,,,,high,low,,,,,,false,,,,false,781379,781378.8000000119,774684.689,774835,774701.244,781251.459,4,500,,
trial,html.Screen,10_9_0,2023-11-14T19:50:47.617Z,,,,1,0.0456515796420274,-0.0273567130070961,,false,lh,7357.9409999761265,response,-0.5709796414825712,0.4855025494351003,-0.4999999999999994,0.40565424846634,0.44903687543346243,-0.460218967011132,low,high,,ISIC_0068610.JPG,9,ISIC_6285076.JPG,257,false,hl,keypress(j),0,false,788609.5,788609.3999999762,781234.618,781379,781251.459,788484.556,4,500,10,
break,html.Screen,10_9_1,2023-11-14T19:50:47.618Z,,,,,,,,,,NaN,,,,,,,,low,high,,,,,,false,,,,false,788609.8000000119,788609.8000000119,,788609.5999999642,,788484.556,4,500,,
break_continue,html.Screen,10_9_2,2023-11-14T19:50:47.618Z,,,,,,,,,,NaN,,,,,,,,low,high,,,,,,false,,,,false,788610,788609.8999999762,,788609.8000000119,,788484.556,4,500,,
sequence,flow.Sequence,10_9,2023-11-14T19:50:47.618Z,,,,,,,,,,7358.4409999761265,completion,,,,,,,low,high,,,,,,false,,,,false,788610.0999999642,788609.8999999762,781234.618,781379,781251.459,788484.556,4,500,,
trial,html.Screen,10_10_0,2023-11-14T19:50:53.794Z,,,,1,0.0509970506474296,0.0744820958440291,,false,ll,6301.643999988097,response,-0.3949818886824495,0.4855025494351003,-0.4999999999999994,-0.4802906547990552,0.44903687543346243,-0.460218967011132,low,low,,ISIC_0009975.JPG,8,ISIC_0067156.JPG,491,false,hh,keypress(i),0,false,794786.3000000119,794786.1999999881,788468.188,788610.0999999642,788484.556,794651.195,4,500,11,
break,html.Screen,10_10_1,2023-11-14T19:50:53.795Z,,,,,,,,,,NaN,,,,,,,,low,low,,,,,,false,,,,false,794786.5999999642,794786.5,,794786.3000000119,,794651.195,4,500,,
break_continue,html.Screen,10_10_2,2023-11-14T19:50:53.795Z,,,,,,,,,,NaN,,,,,,,,low,low,,,,,,false,,,,false,794786.8999999762,794786.8000000119,,794786.5999999642,,794651.195,4,500,,
sequence,flow.Sequence,10_10,2023-11-14T19:50:53.795Z,,,,,,,,,,6302.244000011939,completion,,,,,,,low,low,,,,,,false,,,,false,794787,794786.8000000119,788468.188,788610.0999999642,788484.556,794651.195,4,500,,
trial,html.Screen,10_11_0,2023-11-14T19:51:01.522Z,,,,1,0.0329095507339554,-0.0382899749693245,,false,lh,7863.105000011972,response,-0.6680124261058262,0.4855025494351003,-0.4999999999999994,0.2919411562406507,0.44903687543346243,-0.460218967011132,low,high,,ISIC_8812781.JPG,8,ISIC_9913573.JPG,257,false,hh,keypress(i),0,false,802514.3999999762,802514.3000000119,794634.684,794787,794651.195,802384.7,4,500,12,
break,html.Screen,10_11_1,2023-11-14T19:51:01.523Z,,,,,,,,,,NaN,,,,,,,,low,high,,,,,,false,,,,false,802514.8000000119,802514.5999999642,,802514.5,,802384.7,4,500,,
break_continue,html.Screen,10_11_2,2023-11-14T19:51:01.523Z,,,,,,,,,,NaN,,,,,,,,low,high,,,,,,false,,,,false,802514.8999999762,802514.8999999762,,802514.8000000119,,802384.7,4,500,,
sequence,flow.Sequence,10_11,2023-11-14T19:51:01.523Z,,,,,,,,,,7863.704999976209,completion,,,,,,,low,high,,,,,,false,,,,false,802515,802514.8999999762,794634.684,794787,794651.195,802384.7,4,500,,
trial,html.Screen,10_12_0,2023-11-14T19:51:09.042Z,,,,1,-0.040191644178716,0.0622582668671422,,false,hh,7649.499999988126,response,0.3543773833691151,0.4855025494351003,-0.4999999999999994,0.5167287506732439,0.44903687543346243,-0.460218967011132,high,high,,ISIC_6207688.JPG,9,ISIC_0032152.JPG,408,false,lh,keypress(e),0,false,810034.1999999881,810034.1999999881,802367.917,802515.0999999642,802384.7,809901.212,4,500,13,
break,html.Screen,10_12_1,2023-11-14T19:51:09.043Z,,,,,,,,,,NaN,,,,,,,,high,high,,,,,,false,,,,false,810034.5,810034.3999999762,,810034.3000000119,,809901.212,4,500,,
break_continue,html.Screen,10_12_2,2023-11-14T19:51:09.043Z,,,,,,,,,,NaN,,,,,,,,high,high,,,,,,false,,,,false,810034.6999999881,810034.5999999642,,810034.5,,809901.212,4,500,,
sequence,flow.Sequence,10_12,2023-11-14T19:51:09.043Z,,,,,,,,,,7649.899999964284,completion,,,,,,,high,high,,,,,,false,,,,false,810034.6999999881,810034.5999999642,802367.917,802515,802384.7,809901.212,4,500,,
trial,html.Screen,10_13_0,2023-11-14T19:51:17.906Z,,,,1,-0.0277178575053843,0.0395587463147856,,false,ll,8996.787999999942,response,-0.6281689752377707,0.4855025494351003,-0.4999999999999994,-0.3615716668905642,0.44903687543346243,-0.460218967011132,low,low,,ISIC_0010807.JPG,9,ISIC_0061509.JPG,491,false,hh,keypress(i),0,false,818898.0999999642,818898,809884.344,810034.8000000119,809901.212,818767.83,4,500,14,
break,html.Screen,10_13_1,2023-11-14T19:51:17.907Z,,,,,,,,,,NaN,,,,,,,,low,low,,,,,,false,,,,false,818898.3999999762,818898.3000000119,,818898.1999999881,,818767.83,4,500,,
break_continue,html.Screen,10_13_2,2023-11-14T19:51:17.907Z,,,,,,,,,,NaN,,,,,,,,low,low,,,,,,false,,,,false,818898.5999999642,818898.5,,818898.5,,818767.83,4,500,,
sequence,flow.Sequence,10_13,2023-11-14T19:51:17.907Z,,,,,,,,,,8997.287999999942,completion,,,,,,,low,low,,,,,,false,,,,false,818898.6999999881,818898.5,809884.344,810034.8000000119,809901.212,818767.83,4,500,,
trial,html.Screen,10_14_0,2023-11-14T19:51:22.914Z,,,,1,0.0329095507339554,-0.0382899749693245,,true,lh,5138.269999964279,response,-0.3767924439652022,0.4855025494351003,-0.4999999999999994,0.3650992517549944,0.44903687543346243,-0.460218967011132,low,high,,ISIC_8812781.JPG,9,ISIC_0031953.JPG,257,false,lh,keypress(e),0,false,823906.1999999881,823906.0999999642,818751.206,818898.6999999881,818767.83,823785.036,4,500,15,
break,html.Screen,10_14_1,2023-11-14T19:51:22.915Z,,,,,,,,,,NaN,,,,,,,,low,high,,,,,,false,,,,false,823906.5,823906.3999999762,,823906.3000000119,,823785.036,4,500,,
break_continue,html.Screen,10_14_2,2023-11-14T19:51:22.915Z,,,,,,,,,,NaN,,,,,,,,low,high,,,,,,false,,,,false,823906.6999999881,823906.5,,823906.5,,823785.036,4,500,,
sequence,flow.Sequence,10_14,2023-11-14T19:51:22.915Z,,,,,,,,,,5138.670000000042,completion,,,,,,,low,high,,,,,,false,,,,false,823906.8000000119,823906.5,818751.206,818898.6999999881,818767.83,823785.036,4,500,,
trial,html.Screen,10_15_0,2023-11-14T19:51:30.370Z,,,,1,-0.0051189696037511,0.0396625911332438,,true,hl,7576.964000000036,response,0.3460547176279701,0.4855025494351003,-0.4999999999999994,-0.4080206260661628,0.44903687543346243,-0.460218967011132,high,low,,ISIC_9742891.JPG,8,ISIC_7533983.JPG,296,false,hl,keypress(j),0,false,831362.1999999881,831362,823751.477,823906.8000000119,823785.036,831234.518,4,500,16,
break,html.Screen,10_15_1,2023-11-14T19:51:30.371Z,,,,,,,,,,NaN,,,,,,,,high,low,,,,,,false,,,,false,831362.6999999881,831362.5999999642,,831362.3000000119,,831234.518,4,500,,
break_continue,html.Screen,10_15_2,2023-11-14T19:51:30.371Z,,,,,,,,,,NaN,,,,,,,,high,low,,,,,,false,,,,false,831362.8999999762,831362.8999999762,,831362.8000000119,,831234.518,4,500,,
sequence,flow.Sequence,10_15,2023-11-14T19:51:30.371Z,,,,,,,,,,7577.8639999761945,completion,,,,,,,high,low,,,,,,false,,,,false,831363,831362.8999999762,823751.477,823906.8000000119,823785.036,831234.518,4,500,,
trial,html.Screen,10_16_0,2023-11-14T19:51:36.627Z,,,,1,0.0608867680161491,0.0206384042070211,,false,ll,6383.881999976118,response,-0.6618874259210736,0.4855025494351003,-0.4999999999999994,-0.6449528069058487,0.44903687543346243,-0.460218967011132,low,low,,ISIC_0640806.JPG,10,ISIC_5807112.JPG,491,false,lh,keypress(e),0,false,837618.3999999762,837618.3999999762,831218.01,831363.0999999642,831234.518,837484.491,4,500,17,
break,html.Screen,10_16_1,2023-11-14T19:51:36.627Z,,,,,,,,,,NaN,,,,,,,,low,low,,,,,,false,,,,false,837618.6999999881,837618.5999999642,,837618.5999999642,,837484.491,4,500,,
break_continue,html.Screen,10_16_2,2023-11-14T19:51:36.627Z,,,,,,,,,,NaN,,,,,,,,low,low,,,,,,false,,,,false,837618.8999999762,837618.8999999762,,837618.8000000119,,837484.491,4,500,,
sequence,flow.Sequence,10_16,2023-11-14T19:51:36.627Z,,,,,,,,,,6384.381999976118,completion,,,,,,,low,low,,,,,,false,,,,false,837619,837618.8999999762,831218.01,831363,831234.518,837484.491,4,500,,
trial,html.Screen,10_17_0,2023-11-14T19:51:45.027Z,,,,1,-0.0552031398781121,-0.0652612426529481,,false,lh,8533.70899998804,response,-0.5466486654706088,0.4855025494351003,-0.4999999999999994,0.2879820677419532,0.44903687543346243,-0.460218967011132,low,high,,ISIC_0024226.JPG,9,ISIC_9788545.JPG,257,false,ll,keypress(f),0,false,846018.3000000119,846018.1999999881,837467.882,837619,837484.491,845884.542,4,500,18,
break,html.Screen,10_17_1,2023-11-14T19:51:45.027Z,,,,,,,,,,NaN,,,,,,,,low,high,,,,,,false,,,,false,846018.6999999881,846018.5999999642,,846018.5,,845884.542,4,500,,
break_continue,html.Screen,10_17_2,2023-11-14T19:51:45.027Z,,,,,,,,,,NaN,,,,,,,,low,high,,,,,,false,,,,false,846018.8000000119,846018.6999999881,,846018.6999999881,,845884.542,4,500,,
sequence,flow.Sequence,10_17,2023-11-14T19:51:45.027Z,,,,,,,,,,8534.20899998804,completion,,,,,,,low,high,,,,,,false,,,,false,846018.8999999762,846018.6999999881,837467.882,837619,837484.491,845884.542,4,500,,
trial,html.Screen,10_18_0,2023-11-14T19:51:55.894Z,,,,1,-0.0533723079251252,-0.0299718727255261,,,,10866.641999999993,timeout,0.6704884676468662,0.4855025494351003,-0.4999999999999994,0.4888740612581618,0.44903687543346243,-0.460218967011132,high,high,,ISIC_6562871.JPG,9,ISIC_0033700.JPG,408,false,,,0,false,856885.8000000119,856885.6999999881,845867.829,846019,845884.542,856751.184,4,500,19,
break,html.Screen,10_18_1,2023-11-14T19:51:55.894Z,,,,,,,,,,NaN,,,,,,,,high,high,,,,,,false,,,,false,856886.1999999881,856886.0999999642,,856885.8999999762,,856751.184,4,500,,
break_continue,html.Screen,10_18_2,2023-11-14T19:51:55.895Z,,,,,,,,,,NaN,,,,,,,,high,high,,,,,,false,,,,false,856886.3999999762,856886.3000000119,,856886.1999999881,,856751.184,4,500,,
sequence,flow.Sequence,10_18,2023-11-14T19:51:55.895Z,,,,,,,,,,11001.758000011905,completion,,,,,,,high,high,,,,,,false,,,,false,856886.5,856886.3000000119,845867.829,846018.8999999762,845884.542,856751.184,4,500,,
trial,html.Screen,10_19_0,2023-11-14T19:52:01.314Z,,,,1,-0.0348234368746005,0.0236866303880924,,false,ll,5554.915999964229,response,-0.5165332237196196,0.4855025494351003,-0.4999999999999994,-0.6030329614077719,0.44903687543346243,-0.460218967011132,low,low,,ISIC_0011099.JPG,8,ISIC_0799535.JPG,491,false,hh,keypress(i),0,false,862306.1999999881,862306.0999999642,856734.919,856886.5,856751.184,862185.013,4,500,20,
break,html.Screen,10_19_1,2023-11-14T19:52:01.315Z,,,,,,,,,,NaN,,,,,,,,low,low,,,,,,false,,,,false,862306.5,862306.3999999762,,862306.3000000119,,862185.013,4,500,,
break_continue,html.Screen,10_19_2,2023-11-14T19:52:01.315Z,,,,,,,,,,NaN,,,,,,,,low,low,,,,,,false,,,,false,862306.5999999642,862306.5999999642,,862306.5999999642,,862185.013,4,500,,
sequence,flow.Sequence,10_19,2023-11-14T19:52:01.315Z,,,,,,,,,,5555.415999964229,completion,,,,,,,low,low,,,,,,false,,,,false,862306.6999999881,862306.5999999642,856734.919,856886.5,856751.184,862185.013,4,500,,
trial,html.Screen,10_20_0,2023-11-14T19:52:07.091Z,,,,1,-0.0292059717970335,-0.0718256867525069,,true,hl,5897.2870000118855,response,0.4729151826910023,0.4855025494351003,-0.4999999999999994,-0.6116306329085605,0.44903687543346243,-0.460218967011132,high,low,,ISIC_1114966.JPG,10,ISIC_6054977.JPG,296,false,hl,keypress(j),0,false,868082.3000000119,868082.3000000119,862151.245,862306.6999999881,862185.013,867951.294,4,500,21,
break,html.Screen,10_20_1,2023-11-14T19:52:07.091Z,,,,,,,,,,NaN,,,,,,,,high,low,,,,,,false,,,,false,868082.6999999881,868082.5999999642,,868082.5,,867951.294,4,500,,
break_continue,html.Screen,10_20_2,2023-11-14T19:52:07.091Z,,,,,,,,,,NaN,,,,,,,,high,low,,,,,,false,,,,false,868082.8999999762,868082.8000000119,,868082.6999999881,,867951.294,4,500,,
sequence,flow.Sequence,10_20,2023-11-14T19:52:07.091Z,,,,,,,,,,5897.7870000118855,completion,,,,,,,high,low,,,,,,false,,,,false,868083,868082.8000000119,862151.245,862306.6999999881,862185.013,867951.294,4,500,,
trial,html.Screen,10_21_0,2023-11-14T19:52:14.162Z,,,,1,-0.0691769743257167,0.0638501824668941,,false,hl,7202.5060000119265,response,0.3695115795332759,0.4855025494351003,-0.4999999999999994,-0.470346991048548,0.44903687543346243,-0.460218967011132,high,low,,ISIC_0031914.JPG,8,ISIC_0070217.JPG,296,false,hh,keypress(i),0,false,875153.8999999762,875153.8000000119,867934.56,868083,867951.294,875017.777,4,500,22,
break,html.Screen,10_21_1,2023-11-14T19:52:14.163Z,,,,,,,,,,NaN,,,,,,,,high,low,,,,,,false,,,,false,875154.1999999881,875154.1999999881,,875154,,875017.777,4,500,,
break_continue,html.Screen,10_21_2,2023-11-14T19:52:14.163Z,,,,,,,,,,NaN,,,,,,,,high,low,,,,,,false,,,,false,875154.3999999762,875154.3000000119,,875154.1999999881,,875017.777,4,500,,
sequence,flow.Sequence,10_21,2023-11-14T19:52:14.163Z,,,,,,,,,,7203.0060000119265,completion,,,,,,,high,low,,,,,,false,,,,false,875154.3999999762,875154.3000000119,867934.56,868083,867951.294,875017.777,4,500,,
trial,html.Screen,10_22_0,2023-11-14T19:52:23.618Z,,,,1,-0.0367218428225813,-0.0700576547090477,,false,hh,9591.322999964235,response,0.5323839833704066,0.4855025494351003,-0.4999999999999994,0.5214415962196534,0.44903687543346243,-0.460218967011132,high,high,,ISIC_7212271.JPG,8,ISIC_0046741.JPG,408,false,lh,keypress(e),0,false,884609.1999999881,884609.0999999642,875001.27,875154.5,875017.777,884484.437,4,500,23,
break,html.Screen,10_22_1,2023-11-14T19:52:23.618Z,,,,,,,,,,NaN,,,,,,,,high,high,,,,,,false,,,,false,884609.5,884609.3999999762,,884609.1999999881,,884484.437,4,500,,
break_continue,html.Screen,10_22_2,2023-11-14T19:52:23.618Z,,,,,,,,,,NaN,,,,,,,,high,high,,,,,,false,,,,false,884609.6999999881,884609.5999999642,,884609.5999999642,,884484.437,4,500,,
sequence,flow.Sequence,10_22,2023-11-14T19:52:23.618Z,,,,,,,,,,9591.822999964235,completion,,,,,,,high,high,,,,,,false,,,,false,884609.6999999881,884609.5999999642,875001.27,875154.5,875017.777,884484.437,4,500,,
trial,html.Screen,10_23_0,2023-11-14T19:52:28.098Z,,,,1,0.0194167651857046,0.0726253809408601,,false,lh,4605.162999964203,response,-0.6164025980050356,0.4855025494351003,-0.4999999999999994,0.4605824020281795,0.44903687543346243,-0.460218967011132,low,high,,ISIC_0056692.JPG,8,ISIC_0071768.JPG,257,false,hh,keypress(i),0,false,889089.6999999881,889089.5999999642,884467.795,884609.8000000119,884484.437,888968.313,4,500,24,
break,html.Screen,10_23_1,2023-11-14T19:52:28.098Z,,,,,,,,,,NaN,,,,,,,,low,high,,,,,,false,,,,false,889090,889089.8999999762,,889089.6999999881,,888968.313,4,500,,
break_continue,html.Screen,10_23_2,2023-11-14T19:52:28.099Z,,,,,,,,,,NaN,,,,,,,,low,high,,,,,,false,,,,false,889090.0999999642,889090.0999999642,,889090,,888968.313,4,500,,
sequence,flow.Sequence,10_23,2023-11-14T19:52:28.099Z,,,,,,,,,,4605.662999964203,completion,,,,,,,low,high,,,,,,false,,,,false,889090.3000000119,889090.0999999642,884467.795,884609.8000000119,884484.437,888968.313,4,500,,
trial,html.Screen,10_24_0,2023-11-14T19:52:34.787Z,,,,1,0.0593670819812057,-0.0718390543903236,,false,hh,6809.8869999881135,response,0.3639356179190521,0.4855025494351003,-0.4999999999999994,0.4722450800570771,0.44903687543346243,-0.460218967011132,high,high,,ISIC_0062367.JPG,9,ISIC_0069996.JPG,408,false,lh,keypress(e),0,false,895778.3000000119,895778.1999999881,888934.324,889090.3000000119,888968.313,895651.289,4,500,25,
break,html.Screen,10_24_1,2023-11-14T19:52:34.787Z,,,,,,,,,,NaN,,,,,,,,high,high,,,,,,false,,,,false,895778.5,895778.5,,895778.3000000119,,895651.289,4,500,,
break_continue,html.Screen,10_24_2,2023-11-14T19:52:34.787Z,,,,,,,,,,NaN,,,,,,,,high,high,,,,,,false,,,,false,895778.6999999881,895778.6999999881,,895778.5,,895651.289,4,500,,
sequence,flow.Sequence,10_24,2023-11-14T19:52:34.787Z,,,,,,,,,,6810.3869999881135,completion,,,,,,,high,high,,,,,,false,,,,false,895778.6999999881,895778.6999999881,888934.324,889090.3000000119,888968.313,895651.289,4,500,,
trial,html.Screen,10_25_0,2023-11-14T19:52:40.067Z,,,,1,-0.0691769743257167,0.0638501824668941,,true,ll,5406.8109999642475,response,-0.343260854583605,0.4855025494351003,-0.4999999999999994,-0.5886145185466116,0.44903687543346243,-0.460218967011132,low,low,,ISIC_0031914.JPG,8,ISIC_6710082.JPG,491,false,ll,keypress(f),0,false,901058.3000000119,901058.0999999642,895634.828,895778.8000000119,895651.289,900934.705,4,500,26,
break,html.Screen,10_25_1,2023-11-14T19:52:40.067Z,,,,,,,,,,NaN,,,,,,,,low,low,,,,,,false,,,,false,901058.5,901058.3999999762,,901058.3000000119,,900934.705,4,500,,
break_continue,html.Screen,10_25_2,2023-11-14T19:52:40.067Z,,,,,,,,,,NaN,,,,,,,,low,low,,,,,,false,,,,false,901058.5999999642,901058.5999999642,,901058.5999999642,,900934.705,4,500,,
sequence,flow.Sequence,10_25,2023-11-14T19:52:40.067Z,,,,,,,,,,5407.3109999642475,completion,,,,,,,low,low,,,,,,false,,,,false,901058.6999999881,901058.5999999642,895634.828,895778.8000000119,895651.289,900934.705,4,500,,
trial,html.Screen,10_26_0,2023-11-14T19:52:45.811Z,,,,1,-0.0546386976779619,0.0448724759283131,,false,hl,5867.494999988121,response,0.3383251825799287,0.4855025494351003,-0.4999999999999994,-0.429990442953629,0.44903687543346243,-0.460218967011132,high,low,,ISIC_6722934.JPG,9,ISIC_0062025.JPG,296,false,lh,keypress(e),0,false,906802.3000000119,906802.1999999881,900917.863,901058.8000000119,900934.705,906667.789,4,500,27,
break,html.Screen,10_26_1,2023-11-14T19:52:45.811Z,,,,,,,,,,NaN,,,,,,,,high,low,,,,,,false,,,,false,906802.5999999642,906802.5,,906802.3000000119,,906667.789,4,500,,
break_continue,html.Screen,10_26_2,2023-11-14T19:52:45.811Z,,,,,,,,,,NaN,,,,,,,,high,low,,,,,,false,,,,false,906802.8000000119,906802.6999999881,,906802.5999999642,,906667.789,4,500,,
sequence,flow.Sequence,10_26,2023-11-14T19:52:45.811Z,,,,,,,,,,5867.994999988121,completion,,,,,,,high,low,,,,,,false,,,,false,906802.8999999762,906802.6999999881,900917.863,901058.6999999881,900934.705,906667.789,4,500,,
trial,html.Screen,10_27_0,2023-11-14T19:52:51.602Z,,,,1,-0.0087912446525382,-0.0619041869188676,,false,hh,5926.21100000001,response,0.4164610627052223,0.4855025494351003,-0.4999999999999994,0.5044689920503922,0.44903687543346243,-0.460218967011132,high,high,,ISIC_7185913.JPG,9,ISIC_0028898.JPG,408,false,lh,keypress(e),0,false,912594,912594,906651.316,906802.8999999762,906667.789,912468.195,4,500,28,
break,html.Screen,10_27_1,2023-11-14T19:52:51.603Z,,,,,,,,,,NaN,,,,,,,,high,high,,,,,,false,,,,false,912594.3000000119,912594.1999999881,,912594.0999999642,,912468.195,4,500,,
break_continue,html.Screen,10_27_2,2023-11-14T19:52:51.603Z,,,,,,,,,,NaN,,,,,,,,high,high,,,,,,false,,,,false,912594.5,912594.3999999762,,912594.3999999762,,912468.195,4,500,,
sequence,flow.Sequence,10_27,2023-11-14T19:52:51.603Z,,,,,,,,,,5926.610999976168,completion,,,,,,,high,high,,,,,,false,,,,false,912594.5,912594.3999999762,906651.316,906802.8999999762,906667.789,912468.195,4,500,,
trial,html.Screen,10_28_0,2023-11-14T19:52:59.507Z,,,,1,-0.0134764727102299,-0.0033499036460912,,false,ll,8030.00499998813,response,-0.6991763406347301,0.4855025494351003,-0.4999999999999994,-0.5962660985394783,0.44903687543346243,-0.460218967011132,low,low,,ISIC_0009998.JPG,8,ISIC_0001139.JPG,491,false,hh,keypress(i),0,false,920498.1999999881,920498.1999999881,912451.29,912594.6999999881,912468.195,920367.821,4,500,29,
break,html.Screen,10_28_1,2023-11-14T19:52:59.507Z,,,,,,,,,,NaN,,,,,,,,low,low,,,,,,false,,,,false,920498.5999999642,920498.5,,920498.3999999762,,920367.821,4,500,,
break_continue,html.Screen,10_28_2,2023-11-14T19:52:59.507Z,,,,,,,,,,NaN,,,,,,,,low,low,,,,,,false,,,,false,920498.8000000119,920498.6999999881,,920498.6999999881,,920367.821,4,500,,
sequence,flow.Sequence,10_28,2023-11-14T19:52:59.507Z,,,,,,,,,,8030.50499998813,completion,,,,,,,low,low,,,,,,false,,,,false,920498.8999999762,920498.6999999881,912451.29,912594.5999999642,912468.195,920367.821,4,500,,
trial,html.Screen,10_29_0,2023-11-14T19:53:05.491Z,,,,1,0.063045324701596,-0.0064789751878758,,false,ll,6114.378999988083,response,-0.4535564445174802,0.4855025494351003,-0.4999999999999994,-0.3400050591923759,0.44903687543346243,-0.460218967011132,low,low,,ISIC_5805349.JPG,9,ISIC_8504479.JPG,491,false,hl,keypress(j),0,false,926482.3000000119,926482.1999999881,920351.152,920498.8999999762,920367.821,926351.197,4,500,30,
break,html.Screen,10_29_1,2023-11-14T19:53:05.491Z,,,,,,,,,,NaN,,,,,,,,low,low,,,,,,false,,,,false,926482.5999999642,926482.5,,926482.3999999762,,926351.197,4,500,,
break_continue,html.Screen,10_29_2,2023-11-14T19:53:05.491Z,,,,,,,,,,NaN,,,,,,,,low,low,,,,,,false,,,,false,926482.6999999881,926482.6999999881,,926482.5999999642,,926351.197,4,500,,
sequence,flow.Sequence,10_29,2023-11-14T19:53:05.491Z,,,,,,,,,,6114.878999988083,completion,,,,,,,low,low,,,,,,false,,,,false,926482.6999999881,926482.6999999881,920351.152,920498.8999999762,920367.821,926351.197,4,500,,
trial,html.Screen,10_30_0,2023-11-14T19:53:13.699Z,,,,1,-0.0516762988734011,0.0130195499281172,,false,lh,8339.002999988035,response,-0.449156353027244,0.4855025494351003,-0.4999999999999994,0.3255683651634646,0.44903687543346243,-0.460218967011132,low,high,,ISIC_9978498.JPG,9,ISIC_9223156.JPG,257,false,hh,keypress(i),0,false,934690.1999999881,934690.1999999881,926334.25,926482.8000000119,926351.197,934567.9,4,500,31,
break,html.Screen,10_30_1,2023-11-14T19:53:13.699Z,,,,,,,,,,NaN,,,,,,,,low,high,,,,,,false,,,,false,934690.5999999642,934690.3999999762,,934690.3999999762,,934567.9,4,500,,
break_continue,html.Screen,10_30_2,2023-11-14T19:53:13.700Z,,,,,,,,,,NaN,,,,,,,,low,high,,,,,,false,,,,false,934690.8000000119,934690.8000000119,,934690.6999999881,,934567.9,4,500,,
sequence,flow.Sequence,10_30,2023-11-14T19:53:13.700Z,,,,,,,,,,8339.603000011877,completion,,,,,,,low,high,,,,,,false,,,,false,934691,934690.8000000119,926334.25,926482.8000000119,926351.197,934567.9,4,500,,
trial,html.Screen,10_31_0,2023-11-14T19:53:18.627Z,,,,1,0.0247880219471745,-0.0687761754603142,,false,lh,5050.099999999977,response,-0.3093108727952204,0.4855025494351003,-0.4999999999999994,0.5485494608222736,0.44903687543346243,-0.460218967011132,low,high,,ISIC_0031745.JPG,9,ISIC_0069361.JPG,257,false,hh,keypress(i),0,false,939618.0999999642,939618,934551.152,934691,934567.9,939484.344,4,500,32,
break,html.Screen,10_31_1,2023-11-14T19:53:18.627Z,,,,,,,,,,NaN,,,,,,,,low,high,,,,,,false,,,,false,939618.3999999762,939618.3000000119,,939618.1999999881,,939484.344,4,500,,
break_continue,html.Screen,10_31_2,2023-11-14T19:53:18.627Z,,,,,,,,,,NaN,,,,,,,,low,high,,,,,,false,,,,false,939618.5999999642,939618.5,,939618.3999999762,,939484.344,4,500,,
sequence,flow.Sequence,10_31,2023-11-14T19:53:18.627Z,,,,,,,,,,5050.599999999977,completion,,,,,,,low,high,,,,,,false,,,,false,939618.5999999642,939618.5,934551.152,934691,934567.9,939484.344,4,500,,
trial,html.Screen,10_32_0,2023-11-14T19:53:25.778Z,,,,1,0.0111354529246037,-0.0585810480909377,,false,ll,7285.255999964196,response,-0.5481534172157411,0.4855025494351003,-0.4999999999999994,-0.5085176617774038,0.44903687543346243,-0.460218967011132,low,low,,ISIC_7858034.JPG,9,ISIC_5874357.JPG,491,false,hh,keypress(i),0,false,946769.5999999642,946769.5999999642,939467.862,939618.6999999881,939484.344,946634.395,4,500,33,
break,html.Screen,10_32_1,2023-11-14T19:53:25.779Z,,,,,,,,,,NaN,,,,,,,,low,low,,,,,,false,,,,false,946770,946769.8999999762,,946769.8000000119,,946634.395,4,500,,
break_continue,html.Screen,10_32_2,2023-11-14T19:53:25.779Z,,,,,,,,,,NaN,,,,,,,,low,low,,,,,,false,,,,false,946770.0999999642,946770.0999999642,,946770,,946634.395,4,500,,
sequence,flow.Sequence,10_32,2023-11-14T19:53:25.779Z,,,,,,,,,,7285.755999964196,completion,,,,,,,low,low,,,,,,false,,,,false,946770.3000000119,946770.0999999642,939467.862,939618.6999999881,939484.344,946634.395,4,500,,
trial,html.Screen,10_33_0,2023-11-14T19:53:30.659Z,,,,1,0.0070725527271049,0.0049995141077508,,false,hl,5015.5049999761395,response,0.32195255270612,0.4855025494351003,-0.4999999999999994,-0.4062630820920622,0.44903687543346243,-0.460218967011132,high,low,,ISIC_6124481.JPG,10,ISIC_6260969.JPG,296,false,ll,keypress(f),0,false,951649.8999999762,951649.8999999762,946617.601,946770.3000000119,946634.395,951517.888,4,500,34,
break,html.Screen,10_33_1,2023-11-14T19:53:30.659Z,,,,,,,,,,NaN,,,,,,,,high,low,,,,,,false,,,,false,951650.3000000119,951650.1999999881,,951650,,951517.888,4,500,,
break_continue,html.Screen,10_33_2,2023-11-14T19:53:30.659Z,,,,,,,,,,NaN,,,,,,,,high,low,,,,,,false,,,,false,951650.3999999762,951650.3999999762,,951650.3000000119,,951517.888,4,500,,
sequence,flow.Sequence,10_33,2023-11-14T19:53:30.659Z,,,,,,,,,,5016.0049999761395,completion,,,,,,,high,low,,,,,,false,,,,false,951650.3999999762,951650.3999999762,946617.601,946770.3000000119,946634.395,951517.888,4,500,,
trial,html.Screen,10_34_0,2023-11-14T19:53:37.971Z,,,,1,-0.0565575423757561,-0.0394300226801425,,false,hh,7443.9120000118855,response,0.3388086034623466,0.4855025494351003,-0.4999999999999994,0.3333192093311946,0.44903687543346243,-0.460218967011132,high,high,,ISIC_0046983.JPG,9,ISIC_9852341.JPG,408,false,ll,keypress(f),0,false,958961.8999999762,958961.8000000119,951501.224,951650.5,951517.888,958834.543,4,500,35,
break,html.Screen,10_34_1,2023-11-14T19:53:37.971Z,,,,,,,,,,NaN,,,,,,,,high,high,,,,,,false,,,,false,958962.1999999881,958962.0999999642,,958962,,958834.543,4,500,,
break_continue,html.Screen,10_34_2,2023-11-14T19:53:37.971Z,,,,,,,,,,NaN,,,,,,,,high,high,,,,,,false,,,,false,958962.3000000119,958962.3000000119,,958962.3000000119,,958834.543,4,500,,
sequence,flow.Sequence,10_34,2023-11-14T19:53:37.971Z,,,,,,,,,,7444.4120000118855,completion,,,,,,,high,high,,,,,,false,,,,false,958962.3999999762,958962.3000000119,951501.224,951650.5,951517.888,958834.543,4,500,,
trial,html.Screen,10_35_0,2023-11-14T19:53:42.851Z,,,,1,-0.0149482827359613,0.0661630859332833,,false,ll,5007.356999976211,response,-0.452066811600015,0.4855025494351003,-0.4999999999999994,-0.3551765691628355,0.44903687543346243,-0.460218967011132,low,low,,ISIC_6815524.JPG,8,ISIC_0010995.JPG,491,false,lh,keypress(e),0,false,963842,963841.8999999762,958817.754,958962.5,958834.543,963717.946,4,500,36,
break,html.Screen,10_35_1,2023-11-14T19:53:42.851Z,,,,,,,,,,NaN,,,,,,,,low,low,,,,,,false,,,,false,963842.3000000119,963842.1999999881,,963842.1999999881,,963717.946,4,500,,
break_continue,html.Screen,10_35_2,2023-11-14T19:53:42.851Z,,,,,,,,,,NaN,,,,,,,,low,low,,,,,,false,,,,false,963842.5,963842.5,,963842.3999999762,,963717.946,4,500,,
sequence,flow.Sequence,10_35,2023-11-14T19:53:42.851Z,,,,,,,,,,5007.957000000053,completion,,,,,,,low,low,,,,,,false,,,,false,963842.5999999642,963842.5,958817.754,958962.3999999762,958834.543,963717.946,4,500,,
trial,html.Screen,10_36_0,2023-11-14T19:53:49.027Z,,,,1,-0.0735635316240061,0.0537805418091709,,true,hh,6300.153999964241,response,0.3493538992474897,0.4855025494351003,-0.4999999999999994,0.5284951492886306,0.44903687543346243,-0.460218967011132,high,high,,ISIC_1761799.JPG,9,ISIC_0057531.JPG,408,false,hh,keypress(i),0,false,970018.3000000119,970018.0999999642,963701.208,963842.5999999642,963717.946,969884.341,4,500,37,
break,html.Screen,10_36_1,2023-11-14T19:53:49.027Z,,,,,,,,,,NaN,,,,,,,,high,high,,,,,,false,,,,false,970018.5999999642,970018.5,,970018.3000000119,,969884.341,4,500,,
break_continue,html.Screen,10_36_2,2023-11-14T19:53:49.027Z,,,,,,,,,,NaN,,,,,,,,high,high,,,,,,false,,,,false,970018.8000000119,970018.5999999642,,970018.5999999642,,969884.341,4,500,,
sequence,flow.Sequence,10_36,2023-11-14T19:53:49.028Z,,,,,,,,,,6300.653999964241,completion,,,,,,,high,high,,,,,,false,,,,false,970018.8000000119,970018.5999999642,963701.208,963842.5999999642,963717.946,969884.341,4,500,,
trial,html.Screen,10_37_0,2023-11-14T19:53:55.555Z,,,,1,0.0107854985447517,0.0478010417136109,,false,lh,6661.959000011906,response,-0.3948808684140822,0.4855025494351003,-0.4999999999999994,0.6170709057349779,0.44903687543346243,-0.460218967011132,low,high,,ISIC_0010500.JPG,10,ISIC_0064941.JPG,257,false,hh,keypress(i),0,false,976546.3999999762,976546.3000000119,969867.816,970018.8000000119,969884.341,976418.11,4,500,38,
break,html.Screen,10_37_1,2023-11-14T19:53:55.555Z,,,,,,,,,,NaN,,,,,,,,low,high,,,,,,false,,,,false,976546.6999999881,976546.5999999642,,976546.3999999762,,976418.11,4,500,,
break_continue,html.Screen,10_37_2,2023-11-14T19:53:55.556Z,,,,,,,,,,NaN,,,,,,,,low,high,,,,,,false,,,,false,976546.8999999762,976546.6999999881,,976546.6999999881,,976418.11,4,500,,
sequence,flow.Sequence,10_37,2023-11-14T19:53:55.556Z,,,,,,,,,,6662.358999988064,completion,,,,,,,low,high,,,,,,false,,,,false,976546.8999999762,976546.6999999881,969867.816,970018.8000000119,969884.341,976418.11,4,500,,
trial,html.Screen,10_38_0,2023-11-14T19:53:59.491Z,,,,1,0.0107854985447517,0.0478010417136109,,true,hh,4063.890000000014,response,0.4360280671727652,0.4855025494351003,-0.4999999999999994,0.3387959583063719,0.44903687543346243,-0.460218967011132,high,high,,ISIC_0010500.JPG,9,ISIC_0066143.JPG,408,false,hh,keypress(i),0,false,980482.0999999642,980482,976401.16,976547,976418.11,980350.966,4,500,39,
break,html.Screen,10_38_1,2023-11-14T19:53:59.491Z,,,,,,,,,,NaN,,,,,,,,high,high,,,,,,false,,,,false,980482.3999999762,980482.3000000119,,980482.1999999881,,980350.966,4,500,,
break_continue,html.Screen,10_38_2,2023-11-14T19:53:59.491Z,,,,,,,,,,NaN,,,,,,,,high,high,,,,,,false,,,,false,980482.6999999881,980482.5,,980482.3999999762,,980350.966,4,500,,
sequence,flow.Sequence,10_38,2023-11-14T19:53:59.491Z,,,,,,,,,,4064.390000000014,completion,,,,,,,high,high,,,,,,false,,,,false,980482.6999999881,980482.5,976401.16,976546.8999999762,976418.11,980350.966,4,500,,
trial,html.Screen,10_39_0,2023-11-14T19:54:07.363Z,,,,1,0.0538169356437535,-0.0113486191005169,,false,hh,8002.834000011906,response,0.6305468090233488,0.4855025494351003,-0.4999999999999994,0.2869927104772443,0.44903687543346243,-0.460218967011132,high,high,,ISIC_0009939.JPG,9,ISIC_3750329.JPG,408,false,lh,keypress(e),0,false,988353.8000000119,988353.8000000119,980334.755,980482.6999999881,980350.966,988217.622,4,500,40,
break,html.Screen,10_39_1,2023-11-14T19:54:07.363Z,,,,,,,,,,NaN,,,,,,,,high,high,,,,,,false,,,,false,988354.1999999881,988354.0999999642,,988354,,988217.622,4,500,,
break_continue,html.Screen,10_39_2,2023-11-14T19:54:07.363Z,,,,,,,,,,NaN,,,,,,,,high,high,,,,,,false,,,,false,988354.3999999762,988354.3000000119,,988354.1999999881,,988217.622,4,500,,
sequence,flow.Sequence,10_39,2023-11-14T19:54:07.363Z,,,,,,,,,,8003.334000011906,completion,,,,,,,high,high,,,,,,false,,,,false,988354.3999999762,988354.3000000119,980334.755,980482.6999999881,980350.966,988217.622,4,500,,
trial,html.Screen,10_40_0,2023-11-14T19:54:12.915Z,,,,1,-0.0113873532168551,-0.0054999201556291,,false,lh,5688.577999988105,response,-0.3318153942497479,0.4855025494351003,-0.4999999999999994,0.4383965424646394,0.44903687543346243,-0.460218967011132,low,high,,ISIC_8812621.JPG,8,ISIC_0063234.JPG,257,false,hh,keypress(i),0,false,993906.3000000119,993906.1999999881,988201.132,988354.5,988217.622,993784.859,4,500,41,
break,html.Screen,10_40_1,2023-11-14T19:54:12.915Z,,,,,,,,,,NaN,,,,,,,,low,high,,,,,,false,,,,false,993906.5999999642,993906.5,,993906.3000000119,,993784.859,4,500,,
break_continue,html.Screen,10_40_2,2023-11-14T19:54:12.916Z,,,,,,,,,,NaN,,,,,,,,low,high,,,,,,false,,,,false,993906.8000000119,993906.6999999881,,993906.5999999642,,993784.859,4,500,,
sequence,flow.Sequence,10_40,2023-11-14T19:54:12.916Z,,,,,,,,,,5689.077999988105,completion,,,,,,,low,high,,,,,,false,,,,false,993906.8000000119,993906.6999999881,988201.132,988354.3999999762,988217.622,993784.859,4,500,,
trial,html.Screen,10_41_0,2023-11-14T19:54:18.387Z,,,,1,-0.0021038737988857,0.0570427519488725,,false,hl,5593.040999976103,response,0.5196972435476068,0.4855025494351003,-0.4999999999999994,-0.5060144578366853,0.44903687543346243,-0.460218967011132,high,low,,ISIC_3596927.JPG,9,ISIC_4232756.JPG,296,false,ll,keypress(f),0,false,999378,999377.8999999762,993751.036,993906.8000000119,993784.859,999250.943,4,500,42,
break,html.Screen,10_41_1,2023-11-14T19:54:18.387Z,,,,,,,,,,NaN,,,,,,,,high,low,,,,,,false,,,,false,999378.3000000119,999378.1999999881,,999378.0999999642,,999250.943,4,500,,
break_continue,html.Screen,10_41_2,2023-11-14T19:54:18.387Z,,,,,,,,,,NaN,,,,,,,,high,low,,,,,,false,,,,false,999378.5,999378.5,,999378.3999999762,,999250.943,4,500,,
sequence,flow.Sequence,10_41,2023-11-14T19:54:18.387Z,,,,,,,,,,5593.640999999945,completion,,,,,,,high,low,,,,,,false,,,,false,999378.5,999378.5,993751.036,993906.8000000119,993784.859,999250.943,4,500,,
trial,html.Screen,10_42_0,2023-11-14T19:54:24.771Z,,,,1,0.0456515796420274,-0.0273567130070961,,true,hh,6511.156999964267,response,0.626144952297645,0.4855025494351003,-0.4999999999999994,0.5440882514664583,0.44903687543346243,-0.460218967011132,high,high,,ISIC_0068610.JPG,9,ISIC_0011374.JPG,408,false,hh,keypress(i),0,false,1005762.1999999881,1005762.0999999642,999234.282,999378.5999999642,999250.943,1005634.58,4,500,43,
break,html.Screen,10_42_1,2023-11-14T19:54:24.772Z,,,,,,,,,,NaN,,,,,,,,high,high,,,,,,false,,,,false,1005762.5999999642,1005762.5,,1005762.3999999762,,1005634.58,4,500,,
break_continue,html.Screen,10_42_2,2023-11-14T19:54:24.772Z,,,,,,,,,,NaN,,,,,,,,high,high,,,,,,false,,,,false,1005762.8000000119,1005762.6999999881,,1005762.6999999881,,1005634.58,4,500,,
sequence,flow.Sequence,10_42,2023-11-14T19:54:24.772Z,,,,,,,,,,6511.756999988109,completion,,,,,,,high,high,,,,,,false,,,,false,1005762.8999999762,1005762.6999999881,999234.282,999378.5999999642,999250.943,1005634.58,4,500,,
trial,html.Screen,10_43_0,2023-11-14T19:54:30.419Z,,,,1,-0.0021038737988857,0.0570427519488725,,false,hl,5775.519999964279,response,0.3262338390420069,0.4855025494351003,-0.4999999999999994,-0.362033961483175,0.44903687543346243,-0.460218967011132,high,low,,ISIC_3596927.JPG,9,ISIC_4438786.JPG,296,false,ll,keypress(f),0,false,1011410.0999999642,1011410.0999999642,1005617.784,1005762.8999999762,1005634.58,1011284.556,4,500,44,
break,html.Screen,10_43_1,2023-11-14T19:54:30.419Z,,,,,,,,,,NaN,,,,,,,,high,low,,,,,,false,,,,false,1011410.5,1011410.3999999762,,1011410.3000000119,,1011284.556,4,500,,
break_continue,html.Screen,10_43_2,2023-11-14T19:54:30.420Z,,,,,,,,,,NaN,,,,,,,,high,low,,,,,,false,,,,false,1011410.6999999881,1011410.5999999642,,1011410.5,,1011284.556,4,500,,
sequence,flow.Sequence,10_43,2023-11-14T19:54:30.420Z,,,,,,,,,,5776.019999964279,completion,,,,,,,high,low,,,,,,false,,,,false,1011410.6999999881,1011410.5999999642,1005617.784,1005762.8999999762,1005634.58,1011284.556,4,500,,
trial,html.Screen,10_44_0,2023-11-14T19:54:37.667Z,,,,1,-0.0245585387483123,0.053462758614929,,false,hl,7373.543999964255,response,0.3527362164771869,0.4855025494351003,-0.4999999999999994,-0.3375277631962868,0.44903687543346243,-0.460218967011132,high,low,,ISIC_3389704.JPG,10,ISIC_0028626.JPG,296,false,hh,keypress(i),0,false,1018658.1999999881,1018658.0999999642,1011267.824,1011410.8000000119,1011284.556,1018534.483,4,500,45,
break,html.Screen,10_44_1,2023-11-14T19:54:37.667Z,,,,,,,,,,NaN,,,,,,,,high,low,,,,,,false,,,,false,1018658.5,1018658.3999999762,,1018658.3000000119,,1018534.483,4,500,,
break_continue,html.Screen,10_44_2,2023-11-14T19:54:37.668Z,,,,,,,,,,NaN,,,,,,,,high,low,,,,,,false,,,,false,1018658.6999999881,1018658.5999999642,,1018658.5,,1018534.483,4,500,,
sequence,flow.Sequence,10_44,2023-11-14T19:54:37.668Z,,,,,,,,,,7374.043999964255,completion,,,,,,,high,low,,,,,,false,,,,false,1018658.8000000119,1018658.5999999642,1011267.824,1011410.8000000119,1011284.556,1018534.483,4,500,,
trial,html.Screen,10_45_0,2023-11-14T19:54:44.499Z,,,,1,,-0.0264544974620926,,false,ll,6955.516999999993,response,-0.6735744314777818,0.4855025494351003,-0.4999999999999994,-0.5168658286523059,0.44903687543346243,-0.460218967011132,low,low,,ISIC_0056991.JPG,9,ISIC_6384906.JPG,491,false,hh,keypress(i),0,false,1025490,1025490,1018517.684,1018658.8000000119,1018534.483,1025384.286,4,500,46,
break,html.Screen,10_45_1,2023-11-14T19:54:44.499Z,,,,,,,,,,NaN,,,,,,,,low,low,,,,,,false,,,,false,1025490.3999999762,1025490.1999999881,,1025490.0999999642,,1025384.286,4,500,,
break_continue,html.Screen,10_45_2,2023-11-14T19:54:44.499Z,,,,,,,,,,NaN,,,,,,,,low,low,,,,,,false,,,,false,1025490.5,1025490.3999999762,,1025490.3999999762,,1025384.286,4,500,,
sequence,flow.Sequence,10_45,2023-11-14T19:54:44.499Z,,,,,,,,,,6955.916999976151,completion,,,,,,,low,low,,,,,,false,,,,false,1025490.5999999642,1025490.3999999762,1018517.684,1018658.8000000119,1018534.483,1025384.286,4,500,,
trial,html.Screen,10_46_0,2023-11-14T19:54:49.123Z,,,,1,-0.0292059717970335,-0.0718256867525069,,false,hl,4729.514000011957,response,0.4274910324731127,0.4855025494351003,-0.4999999999999994,-0.3439023425670339,0.44903687543346243,-0.460218967011132,high,low,,ISIC_1114966.JPG,8,ISIC_4973666.JPG,296,false,hh,keypress(i),0,false,1030113.8999999762,1030113.8000000119,1025367.877,1025490.5999999642,1025384.286,1029984.453,4,500,47,
break,html.Screen,10_46_1,2023-11-14T19:54:49.123Z,,,,,,,,,,NaN,,,,,,,,high,low,,,,,,false,,,,false,1030114.1999999881,1030114.1999999881,,1030114,,1029984.453,4,500,,
break_continue,html.Screen,10_46_2,2023-11-14T19:54:49.123Z,,,,,,,,,,NaN,,,,,,,,high,low,,,,,,false,,,,false,1030114.3999999762,1030114.3000000119,,1030114.1999999881,,1029984.453,4,500,,
sequence,flow.Sequence,10_46,2023-11-14T19:54:49.123Z,,,,,,,,,,4730.014000011957,completion,,,,,,,high,low,,,,,,false,,,,false,1030114.5,1030114.3000000119,1025367.877,1025490.5999999642,1025384.286,1029984.453,4,500,,
trial,html.Screen,10_47_0,2023-11-14T19:54:53.971Z,,,,1,-0.013431314305098,0.0140597582944232,,true,lh,4977.146999964258,response,-0.537949197559726,0.4855025494351003,-0.4999999999999994,0.266898007997037,0.44903687543346243,-0.460218967011132,low,high,,ISIC_0069617.JPG,9,ISIC_0025759.JPG,257,false,lh,keypress(e),0,false,1034961.6999999881,1034961.5999999642,1029967.816,1030114.5999999642,1029984.453,1034834.546,4,500,48,
break,html.Screen,10_47_1,2023-11-14T19:54:53.971Z,,,,,,,,,,NaN,,,,,,,,low,high,,,,,,false,,,,false,1034961.8999999762,1034961.8999999762,,1034961.8000000119,,1034834.546,4,500,,
break_continue,html.Screen,10_47_2,2023-11-14T19:54:53.971Z,,,,,,,,,,NaN,,,,,,,,low,high,,,,,,false,,,,false,1034962.1999999881,1034962.1999999881,,1034962.0999999642,,1034834.546,4,500,,
sequence,flow.Sequence,10_47,2023-11-14T19:54:53.971Z,,,,,,,,,,4977.7469999881,completion,,,,,,,low,high,,,,,,false,,,,false,1034962.3000000119,1034962.1999999881,1029967.816,1030114.5999999642,1029984.453,1034834.546,4,500,,
trial,html.Screen,10_48_0,2023-11-14T19:55:01.507Z,,,,1,0.0111354529246037,-0.0585810480909377,,false,hl,7663.653999988106,response,0.4550285616922008,0.4855025494351003,-0.4999999999999994,-0.536450961157385,0.44903687543346243,-0.460218967011132,high,low,,ISIC_7858034.JPG,9,ISIC_7131689.JPG,296,false,ll,keypress(f),0,false,1042498.3000000119,1042498.1999999881,1034817.636,1034962.3000000119,1034834.546,1042367.774,4,500,49,
break,html.Screen,10_48_1,2023-11-14T19:55:01.507Z,,,,,,,,,,NaN,,,,,,,,high,low,,,,,,false,,,,false,1042498.5,1042498.3999999762,,1042498.3000000119,,1042367.774,4,500,,
break_continue,html.Screen,10_48_2,2023-11-14T19:55:01.508Z,,,,,,,,,,NaN,,,,,,,,high,low,,,,,,false,,,,false,1042498.6999999881,1042498.5999999642,,1042498.5,,1042367.774,4,500,,
sequence,flow.Sequence,10_48,2023-11-14T19:55:01.508Z,,,,,,,,,,7664.053999964264,completion,,,,,,,high,low,,,,,,false,,,,false,1042498.6999999881,1042498.5999999642,1034817.636,1034962.3000000119,1034834.546,1042367.774,4,500,,
trial,html.Screen,10_49_0,2023-11-14T19:55:07.059Z,,,,1,0.0070725527271049,0.0049995141077508,,false,lh,5682.226000000024,response,-0.4723416190588823,0.4855025494351003,-0.4999999999999994,0.2769909763317684,0.44903687543346243,-0.460218967011132,low,high,,ISIC_6124481.JPG,9,ISIC_7186677.JPG,257,false,ll,keypress(f),0,false,1048050.0999999642,1048050,1042351.094,1042498.8000000119,1042367.774,1047917.724,4,500,50,
break,html.Screen,10_49_1,2023-11-14T19:55:07.059Z,,,,,,,,,,NaN,,,,,,,,low,high,,,,,,false,,,,false,1048050.3000000119,1048050.3000000119,,1048050.0999999642,,1047917.724,4,500,,
break_continue,html.Screen,10_49_2,2023-11-14T19:55:07.060Z,,,,,,,,,,NaN,,,,,,,,low,high,,,,,,false,,,,false,1048050.5,1048050.5,,1048050.3000000119,,1047917.724,4,500,,
sequence,flow.Sequence,10_49,2023-11-14T19:55:07.060Z,,,,,,,,,,5682.726000000024,completion,,,,,,,low,high,,,,,,false,,,,false,1048050.5999999642,1048050.5,1042351.094,1042498.6999999881,1042367.774,1047917.724,4,500,,
