sender,sender_type,sender_id,timestamp,meta,,age,blockNo,c1,c2,condition,correct,correctResponse,duration,ended_on,f1,f1_high,f1_low,f2,f2_high,f2_low,feature_level1,feature_level2,gender,img_left,img_reveal,img_right,n_target_images,practice,response,response_action,selection_duration,staircase,time_commit,time_end,time_render,time_run,time_show,time_switch,total_blocks,total_trials,trialNo,url
informed_consent,html.Screen,0,2023-11-14T20:37:21.595Z,"{""labjs_version"":""20.2.4"",""labjs_build"":{""flavor"":""development"",""commit"":""f5b4a49f956347addd546a832a3327688c2c0fef""},""location"":""https://labjs.felixhenninger.com/api/labjs_preview/index.html"",""userAgent"":""Mozilla/5.0 (Windows NT 10.0; Win64; x64) AppleWebKit/537.36 (KHTML, like Gecko) Chrome/119.0.0.0 Safari/537.36"",""platform"":""Win32"",""language"":""en-US"",""locale"":""en-US"",""timeZone"":""America/Chicago"",""timezoneOffset"":360,""screen_width"":1920,""screen_height"":1080,""scroll_width"":945,""scroll_height"":918,""window_innerWidth"":945,""window_innerHeight"":966,""devicePixelRatio"":1}",,,,,,,,,160070.83799999778,response,,,,,,,,,,,,,,,consent,click button,,,160749.59999999776,160741.09999999776,653.658,841,670.262,160553.166,,,,{}
Demography form,html.Form,1,2023-11-14T20:37:31.164Z,,,18,,,,,,,9764.433999997767,form submission,,,,,,,,,transgender,,,,,,,,,,170317.69999999925,170317.59999999776,160536.614,160749.8999999985,160553.166,170119.811,,,,
Welcome,html.Screen,2,2023-11-14T20:38:08.680Z,,,,,,,"[""asym"",""col""]",,,37702.58899999852,response,,,,,,,,,,,,,,,continue,keypress(Space),,,207834.19999999925,207822.3999999985,170103.342,170317.80000000075,170119.811,207636.376,,,,
demo_instructions,html.Screen,3,2023-11-14T20:38:44.988Z,,,,,,,,,,36505.424000000756,response,,,,,,,,,,,,,,,continue,keypress(Space),,,244142.19999999925,244141.80000000075,207619.477,207834.3999999985,207636.376,243952.945,,,,
trial,html.Screen,4_0_0,2023-11-14T20:38:58.749Z,,,,0,0.8087127179888679,-0.8480635840272462,,true,lh,13950.355000000738,response,-0.9013888878932071,0.9999999999999998,-0.9999999999999998,0.9328095253308732,0.9999999999999998,-0.9999999999999998,low,high,,ISIC_3941147.JPG,,ISIC_0068259.JPG,24,true,lh,keypress(e),100,false,257903.80000000075,257903.30000000075,243935.168,244142.30000000075,243952.945,257719.641,1,16,1,
sequence,flow.Sequence,4_0,2023-11-14T20:38:58.771Z,,,,,,,,,,13950.355000000738,completion,,,,,,,low,high,,,,,,true,,,,false,257926.09999999776,257903.30000000075,243935.168,244142.30000000075,243952.945,257719.641,1,16,,
trial,html.Screen,4_1_0,2023-11-14T20:39:10.618Z,,,,0,1.127346631538643,-0.8080854255453543,,true,lh,12052.659000000742,response,-1.0143509683988825,0.9999999999999998,-0.9999999999999998,1.0281980567462463,0.9999999999999998,-0.9999999999999998,low,high,,ISIC_0011045.JPG,,ISIC_0062031.JPG,24,true,lh,keypress(e),100,false,269772.69999999925,269772.30000000075,257703.006,257926.19999999925,257719.641,269603.004,1,16,2,
sequence,flow.Sequence,4_1,2023-11-14T20:39:10.619Z,,,,,,,,,,12052.659000000742,completion,,,,,,,low,high,,,,,,true,,,,false,269773.5,269772.30000000075,257703.006,257926.19999999925,257719.641,269603.004,1,16,,
trial,html.Screen,4_2_0,2023-11-14T20:39:17.301Z,,,,0,1.082730232773217,-0.8833175387485132,,true,lh,6852.495999999985,response,-0.8070820195894357,0.9999999999999998,-0.9999999999999998,0.8958120092147633,0.9999999999999998,-0.9999999999999998,low,high,,ISIC_0011933.JPG,,ISIC_0060585.JPG,24,true,lh,keypress(e),100,false,276455.8999999985,276455.5,269586.227,269773.80000000075,269603.004,276286.343,1,16,3,
sequence,flow.Sequence,4_2,2023-11-14T20:39:17.302Z,,,,,,,,,,6852.495999999985,completion,,,,,,,low,high,,,,,,true,,,,false,276456.69999999925,276455.5,269586.227,269773.69999999925,269603.004,276286.343,1,16,,
trial,html.Screen,4_3_0,2023-11-14T20:39:25.438Z,,,,0,0.9566823908868002,-0.9602125665128364,,true,lh,8305.856999999261,response,-1.064425982109969,0.9999999999999998,-0.9999999999999998,0.958564243697126,0.9999999999999998,-0.9999999999999998,low,high,,ISIC_0056784.JPG,,ISIC_3203344.JPG,24,true,lh,keypress(e),100,false,284592.30000000075,284592.19999999925,276269.724,276457.09999999776,276286.343,284419.535,1,16,4,
sequence,flow.Sequence,4_3,2023-11-14T20:39:25.438Z,,,,,,,,,,8305.856999999261,completion,,,,,,,low,high,,,,,,true,,,,false,284592.59999999776,284592.19999999925,276269.724,276456.8999999985,276286.343,284419.535,1,16,,
trial,html.Screen,4_4_0,2023-11-14T20:39:29.715Z,,,,0,0.8161955089001555,0.8163157349016503,,true,ll,4449.465000000026,response,-0.8626849314423831,0.9999999999999998,-0.9999999999999998,-1.0374085478567705,0.9999999999999998,-0.9999999999999998,low,low,,ISIC_0030139.JPG,,ISIC_0026371.JPG,111,true,ll,keypress(f),100,false,288869.3999999985,288869,284403.036,284592.69999999925,284419.535,288686.223,1,16,5,
sequence,flow.Sequence,4_4,2023-11-14T20:39:29.715Z,,,,,,,,,,4449.465000000026,completion,,,,,,,low,low,,,,,,true,,,,false,288870.09999999776,288869,284403.036,284592.69999999925,284419.535,288686.223,1,16,,
trial,html.Screen,4_5_0,2023-11-14T20:39:38.542Z,,,,0,1.0931477426281198,0.8421248340065566,,true,ll,9009.876999997767,response,-1.1510001454240106,0.9999999999999998,-0.9999999999999998,-1.132540312667795,0.9999999999999998,-0.9999999999999998,low,low,,ISIC_0026531.JPG,,ISIC_0009959.JPG,111,true,ll,keypress(f),100,false,297696.59999999776,297696.09999999776,288669.58,288870.3999999985,288686.223,297519.604,1,16,6,
sequence,flow.Sequence,4_5,2023-11-14T20:39:38.543Z,,,,,,,,,,9009.876999997767,completion,,,,,,,low,low,,,,,,true,,,,false,297697.19999999925,297696.09999999776,288669.58,288870.19999999925,288686.223,297519.604,1,16,,
trial,html.Screen,4_6_0,2023-11-14T20:39:42.664Z,,,,0,0.8050443016688825,0.9509237118003132,,true,ll,4299.196000000753,response,-0.8653812021405652,0.9999999999999998,-0.9999999999999998,-0.8152936881018393,0.9999999999999998,-0.9999999999999998,low,low,,ISIC_0000554.JPG,,ISIC_4631711.JPG,111,true,ll,keypress(f),100,false,301819.09999999776,301818.80000000075,297502.845,297697.5,297519.604,301636.409,1,16,7,
sequence,flow.Sequence,4_6,2023-11-14T20:39:42.665Z,,,,,,,,,,4299.196000000753,completion,,,,,,,low,low,,,,,,true,,,,false,301819.5,301818.80000000075,297502.845,297697.30000000075,297519.604,301636.409,1,16,,
trial,html.Screen,4_7_0,2023-11-14T20:39:51.761Z,,,,0,1.0857873435995111,0.8502716010726371,,true,ll,9277.990999998525,response,-0.9112756881807856,0.9999999999999998,-0.9999999999999998,-0.87743267531148,0.9999999999999998,-0.9999999999999998,low,low,,ISIC_2784664.JPG,,ISIC_0000387.JPG,111,true,ll,keypress(f),100,false,310914.8999999985,310914.3999999985,301619.545,301819.69999999925,301636.409,310736.135,1,16,8,
sequence,flow.Sequence,4_7,2023-11-14T20:39:51.762Z,,,,,,,,,,9277.990999998525,completion,,,,,,,low,low,,,,,,true,,,,false,310915.5,310914.3999999985,301619.545,301819.59999999776,301636.409,310736.135,1,16,,
trial,html.Screen,4_8_0,2023-11-14T20:40:00.189Z,,,,0,-1.1890109863264902,0.8867825318561365,,true,hl,8606.665000000736,response,0.8588347582642082,0.9999999999999998,-0.9999999999999998,-0.8899503828496784,0.9999999999999998,-0.9999999999999998,high,low,,ISIC_0072576.JPG,,ISIC_0174983.JPG,24,true,hl,keypress(j),100,false,319343.19999999925,319342.80000000075,310719.477,310915.69999999925,310736.135,319169.54,1,16,9,
sequence,flow.Sequence,4_8,2023-11-14T20:40:00.190Z,,,,,,,,,,8606.665000000736,completion,,,,,,,high,low,,,,,,true,,,,false,319343.69999999925,319342.80000000075,310719.477,310915.69999999925,310736.135,319169.54,1,16,,
trial,html.Screen,4_9_0,2023-11-14T20:40:10.312Z,,,,0,-0.8479396253253069,1.011054319516718,,true,hl,10295.659999999276,response,0.8561946552009824,0.9999999999999998,-0.9999999999999998,-0.9282171889213044,0.9999999999999998,-0.9999999999999998,high,low,,ISIC_0063521.JPG,,ISIC_3065032.JPG,24,true,hl,keypress(j),100,false,329465.5,329465.19999999925,319152.803,319344,319169.54,329286.03,1,16,10,
sequence,flow.Sequence,4_9,2023-11-14T20:40:10.312Z,,,,,,,,,,10295.659999999276,completion,,,,,,,high,low,,,,,,true,,,,false,329466,329465.19999999925,319152.803,319343.8999999985,319169.54,329286.03,1,16,,
trial,html.Screen,4_10_0,2023-11-14T20:40:13.090Z,,,,0,-0.9445114955578736,1.0054210059625863,,true,hl,2957.569999997737,response,1.127346631538643,0.9999999999999998,-0.9999999999999998,-0.8080854255453543,0.9999999999999998,-0.9999999999999998,high,low,,ISIC_0033807.JPG,,ISIC_0011045.JPG,24,true,hl,keypress(j),100,false,332243.59999999776,332243.59999999776,329269.478,329466.30000000075,329286.03,332069.396,1,16,11,
sequence,flow.Sequence,4_10,2023-11-14T20:40:13.090Z,,,,,,,,,,2957.569999997737,completion,,,,,,,high,low,,,,,,true,,,,false,332243.8999999985,332243.59999999776,329269.478,329466.30000000075,329286.03,332069.396,1,16,,
trial,html.Screen,4_11_0,2023-11-14T20:40:15.958Z,,,,0,-0.8591294258188253,0.870797302150167,,true,hl,3042.703999997757,response,0.9566823908868002,0.9999999999999998,-0.9999999999999998,-0.9602125665128364,0.9999999999999998,-0.9999999999999998,high,low,,ISIC_0055841.JPG,,ISIC_0056784.JPG,24,true,hl,keypress(j),100,false,335112.30000000075,335112.09999999776,332052.68,332243.8999999985,332069.396,334936.099,1,16,12,
sequence,flow.Sequence,4_11,2023-11-14T20:40:15.959Z,,,,,,,,,,3042.703999997757,completion,,,,,,,high,low,,,,,,true,,,,false,335112.80000000075,335112.09999999776,332052.68,332243.8999999985,332069.396,334936.099,1,16,,
trial,html.Screen,4_12_0,2023-11-14T20:40:22.126Z,,,,0,-0.913084438298574,-0.8279199409322678,,true,hh,6343.901000000013,response,1.042500842905652,0.9999999999999998,-0.9999999999999998,1.083053464502593,0.9999999999999998,-0.9999999999999998,high,high,,ISIC_8637134.JPG,,ISIC_0071135.JPG,154,true,hh,keypress(i),100,false,341280.30000000075,341280,334919.416,335113,334936.099,341102.861,1,16,13,
sequence,flow.Sequence,4_12,2023-11-14T20:40:22.127Z,,,,,,,,,,6343.901000000013,completion,,,,,,,high,high,,,,,,true,,,,false,341280.8999999985,341280,334919.416,335112.8999999985,334936.099,341102.861,1,16,,
trial,html.Screen,4_13_0,2023-11-14T20:40:26.410Z,,,,0,-0.8966918590347848,-1.078424090533439,,true,hh,4461.038999998535,response,0.931671223575063,0.9999999999999998,-0.9999999999999998,0.8221112671269014,0.9999999999999998,-0.9999999999999998,high,high,,ISIC_0034193.JPG,,ISIC_0000526.JPG,154,true,hh,keypress(i),100,false,345564.09999999776,345563.8999999985,341086.041,341281.09999999776,341102.861,345386.329,1,16,14,
sequence,flow.Sequence,4_13,2023-11-14T20:40:26.411Z,,,,,,,,,,4461.038999998535,completion,,,,,,,high,high,,,,,,true,,,,false,345564.59999999776,345563.8999999985,341086.041,341281,341102.861,345386.329,1,16,,
trial,html.Screen,4_14_0,2023-11-14T20:40:30.369Z,,,,0,-1.1581797104086708,-0.8335188945351617,,true,hh,4135.870999999228,response,0.9588812385345452,0.9999999999999998,-0.9999999999999998,0.9060043635318688,0.9999999999999998,-0.9999999999999998,high,high,,ISIC_4168757.JPG,,ISIC_0069986.JPG,154,true,hh,keypress(i),100,false,349522.5,349522.19999999925,345369.436,345564.80000000075,345386.329,349352.832,1,16,15,
sequence,flow.Sequence,4_14,2023-11-14T20:40:30.369Z,,,,,,,,,,4135.870999999228,completion,,,,,,,high,high,,,,,,true,,,,false,349523.09999999776,349522.19999999925,345369.436,345564.80000000075,345386.329,349352.832,1,16,,
trial,html.Screen,4_15_0,2023-11-14T20:40:34.683Z,,,,0,-1.1802887330422154,-1.0224375154810723,,true,hh,4483.96800000075,response,0.9738365957110542,0.9999999999999998,-0.9999999999999998,0.9145475604754156,0.9999999999999998,-0.9999999999999998,high,high,,ISIC_9225640.JPG,,ISIC_3435596.JPG,154,true,hh,keypress(i),100,false,353837.09999999776,353836.80000000075,349336.257,349523.5,349352.832,353652.651,1,16,16,
sequence,flow.Sequence,4_15,2023-11-14T20:40:34.684Z,,,,,,,,,,4483.96800000075,completion,,,,,,,high,high,,,,,,true,,,,false,353837.59999999776,353836.80000000075,349336.257,349523.30000000075,349352.832,353652.651,1,16,,
demonstration_loop,flow.Loop,4,2023-11-14T20:40:34.684Z,,,,,,,,,,109883.85500000074,completion,,,,,,,,,,,,,,true,,,,false,353837.80000000075,353836.80000000075,243935.168,244142.30000000075,243952.945,353652.651,1,16,,
practice_instructions,html.Screen,5,2023-11-14T20:41:23.119Z,,,,,,,,,,48609.34899999999,response,,,,,,,,,,,,,,,continue,keypress(Space),,,402274,402262,353636.278,353838,353652.651,402085.927,,,,
trial,html.Screen,6_0_0,2023-11-14T20:41:26.452Z,,,,1,1.1547137855907486,-1.0185275168641534,,true,lh,3520.6729999977397,response,-0.8779374983479176,0.9999999999999998,-0.9999999999999998,0.9745548032823428,0.9999999999999998,-0.9999999999999998,low,high,,ISIC_7604870.JPG,,ISIC_2991354.JPG,24,true,lh,keypress(e),0,false,405607,405606.59999999776,402067.629,402274.09999999776,402085.927,405419.141,1,20,1,
sequence,flow.Sequence,6_0,2023-11-14T20:41:26.453Z,,,,,,,,,,3520.6729999977397,completion,,,,,,,low,high,,,,,,true,,,,false,405607.3999999985,405606.59999999776,402067.629,402274.09999999776,402085.927,405419.141,1,20,,
trial,html.Screen,6_1_0,2023-11-14T20:41:29.379Z,,,,1,-1.0143509683988825,1.0281980567462463,,true,hl,3114.659000000742,response,1.155796217969438,0.9999999999999998,-0.9999999999999998,-1.1646564121743912,0.9999999999999998,-0.9999999999999998,high,low,,ISIC_0062031.JPG,,ISIC_2685523.JPG,24,true,hl,keypress(j),0,false,408533.8999999985,408533.80000000075,405402.66,405607.69999999925,405419.141,408335.842,1,20,2,
sequence,flow.Sequence,6_1,2023-11-14T20:41:29.379Z,,,,,,,,,,3114.659000000742,completion,,,,,,,high,low,,,,,,true,,,,false,408534.09999999776,408533.80000000075,405402.66,405607.59999999776,405419.141,408335.842,1,20,,
trial,html.Screen,6_2_0,2023-11-14T20:41:32.108Z,,,,1,1.000067575413479,0.963498103069642,,true,ll,2926.5579999985057,response,-0.8329154010765664,0.9999999999999998,-0.9999999999999998,-1.086658647698992,0.9999999999999998,-0.9999999999999998,low,low,,ISIC_0061531.JPG,,ISIC_7407847.JPG,111,true,ll,keypress(f),0,false,411262.59999999776,411262.3999999985,408319.109,408534.19999999925,408335.842,411069.152,1,20,3,
sequence,flow.Sequence,6_2,2023-11-14T20:41:32.108Z,,,,,,,,,,2926.5579999985057,completion,,,,,,,low,low,,,,,,true,,,,false,411262.80000000075,411262.3999999985,408319.109,408534.09999999776,408335.842,411069.152,1,20,,
trial,html.Screen,6_3_0,2023-11-14T20:41:34.053Z,,,,1,1.0822170028935367,-1.1654796154432183,,true,lh,2138.347999999998,response,-0.8644465729542988,0.9999999999999998,-0.9999999999999998,0.8679598285079457,0.9999999999999998,-0.9999999999999998,low,high,,ISIC_7288818.JPG,,ISIC_6718969.JPG,24,true,lh,keypress(e),0,false,413207.80000000075,413207.5,411052.571,411262.8999999985,411069.152,413019.193,1,20,4,
sequence,flow.Sequence,6_3,2023-11-14T20:41:34.054Z,,,,,,,,,,2138.347999999998,completion,,,,,,,low,high,,,,,,true,,,,false,413208.19999999925,413207.5,411052.571,411262.8999999985,411069.152,413019.193,1,20,,
trial,html.Screen,6_4_0,2023-11-14T20:41:35.987Z,,,,1,0.8471355550006346,0.9005344308932209,,true,ll,2122.5069999992265,response,-0.8867858784567559,0.9999999999999998,-0.9999999999999998,-0.8318206308101198,0.9999999999999998,-0.9999999999999998,low,low,,ISIC_0025744.JPG,,ISIC_0032494.JPG,111,true,ll,keypress(f),0,false,415141.8999999985,415141.69999999925,413002.431,413208.3999999985,413019.193,414952.684,1,20,5,
sequence,flow.Sequence,6_4,2023-11-14T20:41:35.987Z,,,,,,,,,,2122.5069999992265,completion,,,,,,,low,low,,,,,,true,,,,false,415142.09999999776,415141.69999999925,413002.431,413208.30000000075,413019.193,414952.684,1,20,,
trial,html.Screen,6_5_0,2023-11-14T20:41:37.837Z,,,,1,0.9110220836651584,0.9273440813991668,,true,ll,2038.7159999985015,response,-0.9139623794041906,0.9999999999999998,-0.9999999999999998,-0.80463334401576,0.9999999999999998,-0.9999999999999998,low,low,,ISIC_8290994.JPG,,ISIC_2797576.JPG,111,true,ll,keypress(f),0,false,416991.69999999925,416991.3999999985,414935.899,415142.19999999925,414952.684,416802.544,1,20,6,
sequence,flow.Sequence,6_5,2023-11-14T20:41:37.837Z,,,,,,,,,,2038.7159999985015,completion,,,,,,,low,low,,,,,,true,,,,false,416992.09999999776,416991.3999999985,414935.899,415142.19999999925,414952.684,416802.544,1,20,,
trial,html.Screen,6_6_0,2023-11-14T20:41:39.643Z,,,,1,-0.8129823105338526,0.9655386457143784,,true,hl,1994.9560000000056,response,1.127346631538643,0.9999999999999998,-0.9999999999999998,-0.8080854255453543,0.9999999999999998,-0.9999999999999998,high,low,,ISIC_8268025.JPG,,ISIC_0011045.JPG,24,true,hl,keypress(j),0,false,418797.59999999776,418797.5,416786.011,416992.3999999985,416802.544,418602.461,1,20,7,
sequence,flow.Sequence,6_6,2023-11-14T20:41:39.643Z,,,,,,,,,,1994.9560000000056,completion,,,,,,,high,low,,,,,,true,,,,false,418797.69999999925,418797.5,416786.011,416992.19999999925,416802.544,418602.461,1,20,,
trial,html.Screen,6_7_0,2023-11-14T20:41:41.444Z,,,,1,-0.8682521581029131,-1.187434999088787,,true,hh,1996.1389999977546,response,1.0667480038665316,0.9999999999999998,-0.9999999999999998,0.9195011628288464,0.9999999999999998,-0.9999999999999998,high,high,,ISIC_5772144.JPG,,ISIC_0062517.JPG,154,true,hh,keypress(i),0,false,420598.80000000075,420598.59999999776,418585.813,418797.69999999925,418602.461,420402.526,1,20,8,
sequence,flow.Sequence,6_7,2023-11-14T20:41:41.445Z,,,,,,,,,,1996.1389999977546,completion,,,,,,,high,high,,,,,,true,,,,false,420599.19999999925,420598.59999999776,418585.813,418797.69999999925,418602.461,420402.526,1,20,,
trial,html.Screen,6_8_0,2023-11-14T20:41:43.772Z,,,,1,-0.8329154010765664,-1.086658647698992,,true,hh,2523.9739999999874,response,0.918811733700349,0.9999999999999998,-0.9999999999999998,0.8487727309970138,0.9999999999999998,-0.9999999999999998,high,high,,ISIC_7407847.JPG,,ISIC_0028152.JPG,154,true,hh,keypress(i),0,false,422926.8999999985,422926.5,420386.004,420599.3999999985,420402.526,422735.983,1,20,9,
sequence,flow.Sequence,6_8,2023-11-14T20:41:43.773Z,,,,,,,,,,2523.9739999999874,completion,,,,,,,high,high,,,,,,true,,,,false,422927.30000000075,422926.5,420386.004,420599.30000000075,420402.526,422735.983,1,20,,
trial,html.Screen,6_9_0,2023-11-14T20:41:45.963Z,,,,1,-0.9087169856594104,0.8835647084207277,,true,hl,2381.2169999992475,response,1.0822170028935367,0.9999999999999998,-0.9999999999999998,-1.1654796154432183,0.9999999999999998,-0.9999999999999998,high,low,,ISIC_0000349.JPG,,ISIC_7288818.JPG,24,true,hl,keypress(j),0,false,425117.19999999925,425117.19999999925,422719.339,422927.3999999985,422735.983,424919.101,1,20,10,
sequence,flow.Sequence,6_9,2023-11-14T20:41:45.963Z,,,,,,,,,,2381.2169999992475,completion,,,,,,,high,low,,,,,,true,,,,false,425117.3999999985,425117.19999999925,422719.339,422927.3999999985,422735.983,424919.101,1,20,,
trial,html.Screen,6_10_0,2023-11-14T20:41:47.682Z,,,,1,-0.8093178584833343,-1.0139833925057518,,true,hh,1917.5989999992307,response,1.0282189783634048,0.9999999999999998,-0.9999999999999998,0.9341202222313458,0.9999999999999998,-0.9999999999999998,high,high,,ISIC_6171084.JPG,,ISIC_0027238.JPG,154,true,hh,keypress(i),0,false,426836.8999999985,426836.69999999925,424902.636,425117.3999999985,424919.101,426652.449,1,20,11,
sequence,flow.Sequence,6_10,2023-11-14T20:41:47.682Z,,,,,,,,,,1917.5989999992307,completion,,,,,,,high,high,,,,,,true,,,,false,426836.8999999985,426836.69999999925,424902.636,425117.3999999985,424919.101,426652.449,1,20,,
trial,html.Screen,6_11_0,2023-11-14T20:41:49.500Z,,,,1,-0.8653812021405652,-0.8152936881018393,,true,hh,2001.9509999984875,response,0.8797187572470211,0.9999999999999998,-0.9999999999999998,0.9573640085332544,0.9999999999999998,-0.9999999999999998,high,high,,ISIC_4631711.JPG,,ISIC_0010235.JPG,154,true,hh,keypress(i),0,false,428654.59999999776,428654.3999999985,426635.985,426837,426652.449,428469.137,1,20,12,
sequence,flow.Sequence,6_11,2023-11-14T20:41:49.500Z,,,,,,,,,,2001.9509999984875,completion,,,,,,,high,high,,,,,,true,,,,false,428655.09999999776,428654.3999999985,426635.985,426837,426652.449,428469.137,1,20,,
trial,html.Screen,6_12_0,2023-11-14T20:41:51.235Z,,,,1,1.082730232773217,-0.8833175387485132,,true,lh,1920.762999998522,response,-1.00615481805876,0.9999999999999998,-0.9999999999999998,0.8428903771195875,0.9999999999999998,-0.9999999999999998,low,high,,ISIC_0011933.JPG,,ISIC_0069970.JPG,24,true,lh,keypress(e),0,false,430390.09999999776,430389.8999999985,428452.489,428655.30000000075,428469.137,430202.522,1,20,13,
sequence,flow.Sequence,6_12,2023-11-14T20:41:51.236Z,,,,,,,,,,1920.762999998522,completion,,,,,,,low,high,,,,,,true,,,,false,430390.30000000075,430389.8999999985,428452.489,428655.19999999925,428469.137,430202.522,1,20,,
trial,html.Screen,6_13_0,2023-11-14T20:41:52.634Z,,,,1,-1.0003671514840182,0.8992716557663581,,true,hl,1586.1779999992577,response,1.082730232773217,0.9999999999999998,-0.9999999999999998,-0.8833175387485132,0.9999999999999998,-0.9999999999999998,high,low,,ISIC_0061749.JPG,,ISIC_0011933.JPG,24,true,hl,keypress(j),0,false,431788.80000000075,431788.69999999925,430185.861,430390.5,430202.522,431602.436,1,20,14,
sequence,flow.Sequence,6_13,2023-11-14T20:41:52.634Z,,,,,,,,,,1586.1779999992577,completion,,,,,,,high,low,,,,,,true,,,,false,431789,431788.69999999925,430185.861,430390.5,430202.522,431602.436,1,20,,
trial,html.Screen,6_14_0,2023-11-14T20:41:54.197Z,,,,1,-0.8966918590347848,-1.078424090533439,,true,hh,1749.064000000013,response,0.8588110989287362,0.9999999999999998,-0.9999999999999998,0.8116693976180469,0.9999999999999998,-0.9999999999999998,high,high,,ISIC_0034193.JPG,,ISIC_0066878.JPG,154,true,hh,keypress(i),0,false,433351.69999999925,433351.5,431585.839,431789,431602.436,433169.308,1,20,15,
sequence,flow.Sequence,6_14,2023-11-14T20:41:54.197Z,,,,,,,,,,1749.064000000013,completion,,,,,,,high,high,,,,,,true,,,,false,433352.19999999925,433351.5,431585.839,431789,431602.436,433169.308,1,20,,
trial,html.Screen,6_15_0,2023-11-14T20:41:55.629Z,,,,1,0.8588347582642082,-0.8899503828496784,,true,lh,1613.992000000726,response,-1.0003671514840182,0.9999999999999998,-0.9999999999999998,0.8992716557663581,0.9999999999999998,-0.9999999999999998,low,high,,ISIC_0174983.JPG,,ISIC_0061749.JPG,24,true,lh,keypress(e),0,false,434783.5,434783.30000000075,433152.656,433352.3999999985,433169.308,434585.778,1,20,16,
sequence,flow.Sequence,6_15,2023-11-14T20:41:55.629Z,,,,,,,,,,1613.992000000726,completion,,,,,,,low,high,,,,,,true,,,,false,434783.8999999985,434783.30000000075,433152.656,433352.30000000075,433169.308,434585.778,1,20,,
trial,html.Screen,6_16_0,2023-11-14T20:41:56.907Z,,,,1,0.8161955089001555,0.8163157349016503,,true,ll,1475.522000000754,response,-1.1198725483375875,0.9999999999999998,-0.9999999999999998,-0.8325245457585946,0.9999999999999998,-0.9999999999999998,low,low,,ISIC_0030139.JPG,,ISIC_6967143.JPG,111,true,ll,keypress(f),0,false,436061.5,436061.30000000075,434569.241,434784.09999999776,434585.778,435869.088,1,20,17,
sequence,flow.Sequence,6_16,2023-11-14T20:41:56.907Z,,,,,,,,,,1475.522000000754,completion,,,,,,,low,low,,,,,,true,,,,false,436061.59999999776,436061.30000000075,434569.241,434784,434585.778,435869.088,1,20,,
trial,html.Screen,6_17_0,2023-11-14T20:41:59.043Z,,,,1,0.8087127179888679,-0.8480635840272462,,true,lh,2328.011999997776,response,-0.8644465729542988,0.9999999999999998,-0.9999999999999998,0.8679598285079457,0.9999999999999998,-0.9999999999999998,low,high,,ISIC_3941147.JPG,,ISIC_6718969.JPG,24,true,lh,keypress(e),0,false,438197.30000000075,438197.09999999776,435852.56,436061.59999999776,435869.088,438002.415,1,20,18,
sequence,flow.Sequence,6_17,2023-11-14T20:41:59.043Z,,,,,,,,,,2328.011999997776,completion,,,,,,,low,high,,,,,,true,,,,false,438197.3999999985,438197.09999999776,435852.56,436061.59999999776,435869.088,438002.415,1,20,,
trial,html.Screen,6_18_0,2023-11-14T20:42:00.819Z,,,,1,-0.8479396253253069,1.011054319516718,,true,hl,1970.784999999276,response,1.0822170028935367,0.9999999999999998,-0.9999999999999998,-1.1654796154432183,0.9999999999999998,-0.9999999999999998,high,low,,ISIC_0063521.JPG,,ISIC_7288818.JPG,24,true,hl,keypress(j),0,false,439973.3999999985,439973.19999999925,437985.642,438197.3999999985,438002.415,439785.934,1,20,19,
sequence,flow.Sequence,6_18,2023-11-14T20:42:00.819Z,,,,,,,,,,1970.784999999276,completion,,,,,,,high,low,,,,,,true,,,,false,439973.3999999985,439973.19999999925,437985.642,438197.3999999985,438002.415,439785.934,1,20,,
trial,html.Screen,6_19_0,2023-11-14T20:42:02.373Z,,,,1,0.985420189652684,0.8921028806662099,,true,ll,1741.5659999999916,response,-1.1679182396424097,0.9999999999999998,-0.9999999999999998,-0.8971678181565197,0.9999999999999998,-0.9999999999999998,low,low,,ISIC_0014982.JPG,,ISIC_0025085.JPG,111,true,ll,keypress(f),0,false,441527.80000000075,441527.5,439769.191,439973.59999999776,439785.934,441335.683,1,20,20,
sequence,flow.Sequence,6_19,2023-11-14T20:42:02.374Z,,,,,,,,,,1741.5659999999916,completion,,,,,,,low,low,,,,,,true,,,,false,441528.19999999925,441527.5,439769.191,439973.5,439785.934,441335.683,1,20,,
practice_loop,flow.Loop,6,2023-11-14T20:42:02.374Z,,,,,,,,,,39441.572999999975,completion,,,,,,,,,,,,,,true,,,,false,441528.3999999985,441527.5,402067.629,402274,402085.927,441335.683,1,20,,
stair_instructions,html.Screen,7,2023-11-14T20:42:14.437Z,,,,,,,,,,12255.117000000726,response,,,,,,,,,,,,,,,continue,keypress(Space),,,453591.59999999776,453590.80000000075,441319.315,441528.59999999776,441335.683,453402.326,,,,
trial,html.Screen,8_0_0,2023-11-14T20:42:22.171Z,,,,2,0.0523524458062335,-0.0048771624512062,,false,hl,7923.573999998509,response,0.8561946552009824,0.9999999999999998,-0.9999999999999998,-0.9282171889213044,0.9999999999999998,-0.9999999999999998,high,low,,ISIC_0010379.JPG,,ISIC_3065032.JPG,24,false,ll,keypress(f),0,true,461326,461325.8999999985,453385.514,453591.8999999985,453402.326,461135.758,1,40,1,
sequence,flow.Sequence,8_0,2023-11-14T20:42:22.171Z,,,,,,,,,,7923.573999998509,completion,,,,,,,high,low,,,,,,false,,,,true,461326.19999999925,461325.8999999985,453385.514,453591.8999999985,453402.326,461135.758,1,40,,
trial,html.Screen,8_1_0,2023-11-14T20:42:27.934Z,,,,2,0.012020985739544,-0.0126097407389903,,true,ll,5951.941999999282,response,-1.0581281450494728,0.9999999999999998,-0.9499999999999997,-1.133169116569424,0.9499999999999997,-0.9999999999999998,low,low,,ISIC_0069379.JPG,,ISIC_5490352.JPG,113,false,ll,keypress(f),0,true,467088,467087.69999999925,461118.757,461326.19999999925,461135.758,466902.401,1,40,2,
sequence,flow.Sequence,8_1,2023-11-14T20:42:27.935Z,,,,,,,,,,5951.941999999282,completion,,,,,,,low,low,,,,,,false,,,,true,467088.30000000075,467087.69999999925,461118.757,461326.19999999925,461135.758,466902.401,1,40,,
trial,html.Screen,8_2_0,2023-11-14T20:42:38.414Z,,,,2,-0.0367218428225813,0.0026956749740767,,true,hl,10665.098999999987,response,0.8181754542205604,0.9499999999999997,-0.8999999999999997,-0.8285141543298179,0.8999999999999997,-0.9306931527453641,high,low,,ISIC_7212271.JPG,,ISIC_3812485.JPG,36,false,hl,keypress(j),0,true,477567.80000000075,477567.5,466885.554,467088.59999999776,466902.401,477402.399,1,40,3,
sequence,flow.Sequence,8_2,2023-11-14T20:42:38.414Z,,,,,,,,,,10665.098999999987,completion,,,,,,,high,low,,,,,,false,,,,true,477568.09999999776,477567.5,466885.554,467088.5,466902.401,477402.399,1,40,,
trial,html.Screen,8_3_0,2023-11-14T20:42:44.725Z,,,,2,0.0668201703083464,-0.0222223530621927,,false,ll,6476.200999997789,response,-0.7310269616214822,0.8999999999999997,-0.8499999999999996,-0.807916323364902,0.8499999999999996,-0.8806931527453641,low,low,,ISIC_8321148.JPG,,ISIC_2465895.JPG,189,false,lh,keypress(e),0,true,483878.8999999985,483878.59999999776,477386.198,477568.30000000075,477402.399,483685.62,1,40,4,
sequence,flow.Sequence,8_3,2023-11-14T20:42:44.726Z,,,,,,,,,,6476.200999997789,completion,,,,,,,low,low,,,,,,false,,,,true,483879.30000000075,483878.59999999776,477386.198,477568.19999999925,477402.399,483685.62,1,40,,
trial,html.Screen,8_4_0,2023-11-14T20:42:50.700Z,,,,2,0.0377791839943904,-0.0227626648172468,,false,ll,6167.880000000005,response,-0.7369800228521473,0.8499999999999996,-0.8499999999999996,-0.7263367239377666,0.7999999999999996,-0.8806931527453641,low,low,,ISIC_7167479.JPG,,ISIC_2034687.JPG,189,false,hh,keypress(i),0,true,489853.59999999776,489853.5,483669.027,483879.5,483685.62,489669.212,1,40,5,
sequence,flow.Sequence,8_4,2023-11-14T20:42:50.700Z,,,,,,,,,,6167.880000000005,completion,,,,,,,low,low,,,,,,false,,,,true,489853.69999999925,489853.5,483669.027,483879.5,483685.62,489669.212,1,40,,
trial,html.Screen,8_5_0,2023-11-14T20:42:56.075Z,,,,2,-0.0565575423757561,0.0536115913979284,,false,lh,5559.387999997765,response,-0.6719805058182452,0.7999999999999996,-0.8499999999999996,0.6130739978168066,0.7499999999999996,-0.8806931527453641,low,high,,ISIC_0046983.JPG,,ISIC_0033180.JPG,76,false,ll,keypress(f),0,true,495228.80000000075,495228.59999999776,489652.155,489853.69999999925,489669.212,495035.55,1,40,6,
sequence,flow.Sequence,8_5,2023-11-14T20:42:56.075Z,,,,,,,,,,5559.387999997765,completion,,,,,,,low,high,,,,,,false,,,,true,495229,495228.59999999776,489652.155,489853.69999999925,489669.212,495035.55,1,40,,
trial,html.Screen,8_6_0,2023-11-14T20:43:00.052Z,,,,2,0.0523524458062335,-0.0048771624512062,,true,ll,4170.250000000757,response,-0.8093178584833343,0.7499999999999996,-0.8499999999999996,-1.0139833925057518,0.7499999999999996,-0.830693152745364,low,low,,ISIC_0010379.JPG,,ISIC_6171084.JPG,219,false,ll,keypress(f),0,true,499205.80000000075,499205.80000000075,495018.767,495229,495035.55,499019.21,1,40,7,
sequence,flow.Sequence,8_6,2023-11-14T20:43:00.052Z,,,,,,,,,,4170.250000000757,completion,,,,,,,low,low,,,,,,false,,,,true,499205.8999999985,499205.80000000075,495018.767,495229,495035.55,499019.21,1,40,,
trial,html.Screen,8_7_0,2023-11-14T20:43:07.830Z,,,,2,0.0539169177295974,-0.039571352787207,,true,ll,7963.789999999979,response,-0.5499534794280461,0.6999999999999995,-0.6406491821507896,-0.6161657144274864,0.6999999999999995,-0.780693152745364,low,low,,ISIC_1076091.JPG,,ISIC_5288404.JPG,302,false,ll,keypress(f),0,true,506983.19999999925,506983,499002.363,499206.09999999776,499019.21,506785.624,1,40,8,
sequence,flow.Sequence,8_7,2023-11-14T20:43:07.830Z,,,,,,,,,,7963.789999999979,completion,,,,,,,low,low,,,,,,false,,,,true,506983.69999999925,506983,499002.363,499206.09999999776,499019.21,506785.624,1,40,,
trial,html.Screen,8_8_0,2023-11-14T20:43:13.741Z,,,,2,-0.0488365673064833,0.0229344142397166,,false,hh,6108.775999998499,response,0.4522140661126887,0.6499999999999995,-0.5906491821507895,0.7730616186864473,0.6499999999999995,-0.715074553466619,high,high,,ISIC_0056915.JPG,,ISIC_7074321.JPG,308,false,ll,keypress(f),0,true,512894.69999999925,512894.3999999985,506768.627,506983.8999999985,506785.624,512702.232,1,40,9,
sequence,flow.Sequence,8_8,2023-11-14T20:43:13.741Z,,,,,,,,,,6108.775999998499,completion,,,,,,,high,high,,,,,,false,,,,true,512895.09999999776,512894.3999999985,506768.627,506983.80000000075,506785.624,512702.232,1,40,,
trial,html.Screen,8_9_0,2023-11-14T20:43:20.171Z,,,,2,0.0377791839943904,-0.0227626648172468,,true,hl,6622.467999999237,response,0.5704560026547632,0.6499999999999995,-0.5406491821507895,-0.5600222844201803,0.6499999999999995,-0.6650745534666189,high,low,,ISIC_7167479.JPG,,ISIC_5746904.JPG,168,false,hl,keypress(j),0,true,519324.80000000075,519324.69999999925,512685.586,512895.30000000075,512702.232,519135.483,1,40,10,
sequence,flow.Sequence,8_9,2023-11-14T20:43:20.171Z,,,,,,,,,,6622.467999999237,completion,,,,,,,high,low,,,,,,false,,,,true,519325,519324.69999999925,512685.586,512895.30000000075,512702.232,519135.483,1,40,,
trial,html.Screen,8_10_0,2023-11-14T20:43:24.166Z,,,,2,0.0085520978188085,-0.0535296539628673,,true,hl,4183.416999998502,response,0.4326601161670867,0.5999999999999994,-0.4906491821507895,-0.670311863648015,0.5999999999999994,-0.6150745534666189,high,low,,ISIC_0758797.JPG,,ISIC_2266715.JPG,203,false,hl,keypress(j),0,true,523319.30000000075,523318.8999999985,519118.96,519325.09999999776,519135.483,523135.742,1,40,11,
sequence,flow.Sequence,8_10,2023-11-14T20:43:24.166Z,,,,,,,,,,4183.416999998502,completion,,,,,,,high,low,,,,,,false,,,,true,523319.69999999925,523318.8999999985,519118.96,519325.09999999776,519135.483,523135.742,1,40,,
trial,html.Screen,8_11_0,2023-11-14T20:43:29.622Z,,,,2,-0.0733425953790377,0.0558194585272655,,false,lh,5639.357999997737,response,-0.5271160933144481,0.4515580594109249,-0.4906491821507895,0.4476535191710415,0.5499999999999994,-0.5151670740340976,low,high,,ISIC_0026756.JPG,,ISIC_0062712.JPG,253,false,hh,keypress(i),0,true,528775.3999999985,528775.0999999978,523118.703,523319.80000000075,523135.742,528585.466,1,40,12,
sequence,flow.Sequence,8_11,2023-11-14T20:43:29.622Z,,,,,,,,,,5639.357999997737,completion,,,,,,,low,high,,,,,,false,,,,true,528775.8000000007,528775.0999999978,523118.703,523319.80000000075,523135.742,528585.466,1,40,,
trial,html.Screen,8_12_0,2023-11-14T20:43:39.926Z,,,,2,0.0023664502831079,0.0252784582169994,,false,lh,10494.23399999924,response,-0.4937285415904955,0.4515580594109249,-0.4906491821507895,0.4791081001138179,0.5499999999999994,-0.46516707403409757,low,high,,ISIC_4156010.JPG,,ISIC_7885531.JPG,253,false,hh,keypress(i),0,true,539079.8999999985,539079.6999999993,528568.722,528776,528585.466,538885.467,1,40,13,
sequence,flow.Sequence,8_12,2023-11-14T20:43:39.927Z,,,,,,,,,,10494.23399999924,completion,,,,,,,low,high,,,,,,false,,,,true,539080.3000000007,539079.6999999993,528568.722,528776,528585.466,538885.467,1,40,,
trial,html.Screen,8_13_0,2023-11-14T20:43:44.195Z,,,,2,-0.0245246789155119,0.0615355901813596,,true,hh,4463.033000000054,response,0.6066507471217834,0.4515580594109249,-0.4906491821507895,0.546332029272941,0.5499999999999994,-0.46516707403409757,high,high,,ISIC_0034144.JPG,,ISIC_0068215.JPG,368,false,hh,keypress(i),0,true,543348.5999999978,543348.5,538868.594,539080.5,538885.467,543152.092,1,40,14,
sequence,flow.Sequence,8_13,2023-11-14T20:43:44.195Z,,,,,,,,,,4463.033000000054,completion,,,,,,,high,high,,,,,,false,,,,true,543348.8000000007,543348.5,538868.594,539080.5,538885.467,543152.092,1,40,,
trial,html.Screen,8_14_0,2023-11-14T20:43:49.021Z,,,,2,0.0050679133050021,0.0174815595031679,,true,ll,5022.007999997819,response,-0.3522189954030421,0.4515580594109249,-0.4906491821507895,-0.3665042430080356,0.4627200646933794,-0.46516707403409757,low,low,,ISIC_9848743.JPG,,ISIC_6356522.JPG,460,false,ll,keypress(f),0,true,548174.0999999978,548174.0999999978,543135.564,543348.8000000007,543152.092,547985.526,1,40,15,
sequence,flow.Sequence,8_14,2023-11-14T20:43:49.021Z,,,,,,,,,,5022.007999997819,completion,,,,,,,low,low,,,,,,false,,,,true,548174.3000000007,548174.0999999978,543135.564,543348.8000000007,543152.092,547985.526,1,40,,
trial,html.Screen,8_15_0,2023-11-14T20:43:54.964Z,,,,2,0.0523524458062335,-0.0048771624512062,,true,ll,6131.673999999301,response,-0.3156212590477137,0.4515580594109249,-0.4906491821507895,-0.5158944472053768,0.4627200646933794,-0.46516707403409757,low,low,,ISIC_0010379.JPG,,ISIC_9350507.JPG,460,false,ll,keypress(f),0,true,554117.3000000007,554117.1999999993,547968.792,548174.3000000007,547985.526,553918.748,1,40,16,
sequence,flow.Sequence,8_15,2023-11-14T20:43:54.964Z,,,,,,,,,,6131.673999999301,completion,,,,,,,low,low,,,,,,false,,,,true,554117.3999999985,554117.1999999993,547968.792,548174.3000000007,547985.526,553918.748,1,40,,
trial,html.Screen,8_16_0,2023-11-14T20:44:03.252Z,,,,2,-0.0051046740562181,0.0178832721027728,,true,ll,8486.351999997743,response,-0.2511494225536109,0.4515580594109249,-0.4406491821507895,-0.4310973761368684,0.4627200646933794,-0.4151670740340976,low,low,,ISIC_9545819.JPG,,ISIC_8181142.JPG,482,false,ll,keypress(f),0,true,562405.1999999993,562405.0999999978,553901.896,554117.5,553918.748,562218.789,1,40,17,
sequence,flow.Sequence,8_16,2023-11-14T20:44:03.252Z,,,,,,,,,,8486.351999997743,completion,,,,,,,low,low,,,,,,false,,,,true,562405.3000000007,562405.0999999978,553901.896,554117.3999999985,553918.748,562218.789,1,40,,
trial,html.Screen,8_17_0,2023-11-14T20:44:11.491Z,,,,2,0.012810673904807,-0.00400964452501,,false,hl,8425.810999997775,response,0.3053979606409026,0.4515580594109249,-0.4406491821507895,-0.2215475292293715,0.4627200646933794,-0.4151670740340976,high,low,,ISIC_0064656.JPG,,ISIC_0063225.JPG,322,false,hh,keypress(i),0,true,570644.8000000007,570644.5999999978,562201.797,562405.3000000007,562218.789,570452.038,1,40,18,
sequence,flow.Sequence,8_17,2023-11-14T20:44:11.491Z,,,,,,,,,,8425.810999997775,completion,,,,,,,high,low,,,,,,false,,,,true,570644.8999999985,570644.5999999978,562201.797,562405.3000000007,562218.789,570452.038,1,40,,
trial,html.Screen,8_18_0,2023-11-14T20:44:15.917Z,,,,2,0.0077673378094614,0.0021810768579373,,false,hh,4618.161999999313,response,0.2539766974214254,0.4515580594109249,-0.4406491821507895,0.4769472565065959,0.4627200646933794,-0.46516707403409757,high,high,,ISIC_0067621.JPG,,ISIC_0070822.JPG,387,false,hl,keypress(j),0,true,575070.3999999985,575070.1999999993,570435.106,570645,570452.038,574885.343,1,40,19,
sequence,flow.Sequence,8_18,2023-11-14T20:44:15.917Z,,,,,,,,,,4618.161999999313,completion,,,,,,,high,high,,,,,,false,,,,true,575070.8000000007,575070.1999999993,570435.106,570644.8999999985,570452.038,574885.343,1,40,,
trial,html.Screen,8_19_0,2023-11-14T20:44:23.525Z,,,,2,-0.0733425953790377,0.0558194585272655,,false,hh,7792.957000000752,response,0.5343315006515573,0.4515580594109249,-0.4406491821507895,0.4416794055775316,0.4627200646933794,-0.46516707403409757,high,high,,ISIC_0026756.JPG,,ISIC_9935444.JPG,387,false,hl,keypress(j),0,true,582678.5,582678.3000000007,574868.806,575071.0999999978,574885.343,582485.335,1,40,20,
sequence,flow.Sequence,8_19,2023-11-14T20:44:23.525Z,,,,,,,,,,7792.957000000752,completion,,,,,,,high,high,,,,,,false,,,,true,582679,582678.3000000007,574868.806,575071,574885.343,582485.335,1,40,,
trial,html.Screen,8_20_0,2023-11-14T20:44:30.443Z,,,,2,0.0420795830016583,-0.0226772711905177,,true,hh,7111.564999998547,response,0.2653236263211747,0.4515580594109249,-0.4406491821507895,0.2918628098478505,0.4627200646933794,-0.46516707403409757,high,high,,ISIC_0638857.JPG,,ISIC_2445765.JPG,387,false,hh,keypress(i),0,true,589596.8999999985,589596.8999999985,582468.44,582679.0999999978,582485.335,589401.968,1,40,21,
sequence,flow.Sequence,8_20,2023-11-14T20:44:30.444Z,,,,,,,,,,7111.564999998547,completion,,,,,,,high,high,,,,,,false,,,,true,589597.0999999978,589596.8999999985,582468.44,582679.0999999978,582485.335,589401.968,1,40,,
trial,html.Screen,8_21_0,2023-11-14T20:44:34.925Z,,,,2,-0.019361072276763,-0.0523902345755568,,false,lh,4676.631999997771,response,-0.5442625287363303,0.40155805941092493,-0.4406491821507895,0.5912166923869037,0.4627200646933794,-0.46516707403409757,low,high,,ISIC_4066726.JPG,,ISIC_4985027.JPG,304,false,ll,keypress(f),0,true,594078.8999999985,594078.5999999978,589385.07,589597.0999999978,589401.968,593885.308,1,40,22,
sequence,flow.Sequence,8_21,2023-11-14T20:44:34.926Z,,,,,,,,,,4676.631999997771,completion,,,,,,,low,high,,,,,,false,,,,true,594079.3000000007,594078.5999999978,589385.07,589597.0999999978,589401.968,593885.308,1,40,,
trial,html.Screen,8_22_0,2023-11-14T20:44:38.244Z,,,,2,0.0560021488981517,-0.0058131881595011,,true,lh,3511.891999999294,response,-0.6425392131580541,0.40155805941092493,-0.4906491821507895,0.6408423774148257,0.4627200646933794,-0.46516707403409757,low,high,,ISIC_0000077.JPG,,ISIC_0031501.JPG,293,false,lh,keypress(e),0,true,597397.3000000007,597397.1999999993,593868.629,594079.5,593885.308,597202.047,1,40,23,
sequence,flow.Sequence,8_22,2023-11-14T20:44:38.244Z,,,,,,,,,,3511.891999999294,completion,,,,,,,low,high,,,,,,false,,,,true,597397.5,597397.1999999993,593868.629,594079.3999999985,593885.308,597202.047,1,40,,
trial,html.Screen,8_23_0,2023-11-14T20:44:46.028Z,,,,2,-0.0733425953790377,0.0558194585272655,,false,hl,7979.352999998489,response,0.4924972638824761,0.40155805941092493,-0.49340087094719215,-0.2948472016174505,0.4627200646933794,-0.46516707403409757,high,low,,ISIC_0026756.JPG,,ISIC_3232329.JPG,330,false,lh,keypress(e),0,true,605181.5999999978,605181.3999999985,597185.481,597397.5,597202.047,604985.297,1,40,24,
sequence,flow.Sequence,8_23,2023-11-14T20:44:46.028Z,,,,,,,,,,7979.352999998489,completion,,,,,,,high,low,,,,,,false,,,,true,605181.5999999978,605181.3999999985,597185.481,597397.5,597202.047,604985.297,1,40,,
trial,html.Screen,8_24_0,2023-11-14T20:44:50.869Z,,,,2,-0.0597592587797575,,,false,hh,5036.802999997744,response,0.4116964256458953,0.4515580594109249,-0.49340087094719215,0.5679233847855903,0.4627200646933794,-0.46516707403409757,high,high,,ISIC_0071367.JPG,,ISIC_0011698.JPG,387,false,hl,keypress(j),0,true,610022.3999999985,610022.0999999978,604968.599,605181.6999999993,604985.297,609835.482,1,40,25,
sequence,flow.Sequence,8_24,2023-11-14T20:44:50.869Z,,,,,,,,,,5036.802999997744,completion,,,,,,,high,high,,,,,,false,,,,true,610022.8000000007,610022.0999999978,604968.599,605181.6999999993,604985.297,609835.482,1,40,,
trial,html.Screen,8_25_0,2023-11-14T20:44:55.555Z,,,,2,-0.0311884318403233,0.0697810882761999,,true,hl,4873.318000000785,response,0.3670089907478547,0.4515580594109249,-0.49340087094719215,-0.5322247596510017,0.4627200646933794,-0.46516707403409757,high,low,,ISIC_4870676.JPG,,ISIC_2724278.JPG,310,false,hl,keypress(j),0,true,614709,614708.8000000007,609818.462,610023,609835.482,614518.576,1,40,26,
sequence,flow.Sequence,8_25,2023-11-14T20:44:55.556Z,,,,,,,,,,4873.318000000785,completion,,,,,,,high,low,,,,,,false,,,,true,614709.0999999978,614708.8000000007,609818.462,610022.8999999985,609835.482,614518.576,1,40,,
trial,html.Screen,8_26_0,2023-11-14T20:45:01.939Z,,,,2,0.0203374006918297,-0.0594475300019112,,true,ll,6573.823999998509,response,-0.6027967721347075,0.40155805941092493,-0.49340087094719215,-0.411206655417977,0.4627200646933794,-0.46516707403409757,low,low,,ISIC_0028579.JPG,,ISIC_7298784.JPG,456,false,ll,keypress(f),0,true,621092.5,621092.3999999985,614501.911,614709.0999999978,614518.576,620901.884,1,40,27,
sequence,flow.Sequence,8_26,2023-11-14T20:45:01.939Z,,,,,,,,,,6573.823999998509,completion,,,,,,,low,low,,,,,,false,,,,true,621092.5999999978,621092.3999999985,614501.911,614709.0999999978,614518.576,620901.884,1,40,,
trial,html.Screen,8_27_0,2023-11-14T20:45:05.692Z,,,,2,-0.0683185670328473,-0.0092332028949561,,false,lh,3943.4160000007832,response,-0.6741876485718082,0.40155805941092493,-0.49340087094719215,0.5077745631290093,0.4627200646933794,-0.4151670740340976,low,high,,ISIC_3652847.JPG,,ISIC_7539727.JPG,292,false,hh,keypress(i),0,true,624845.3999999985,624845.3000000007,620885.015,621092.5999999978,620901.884,624651.993,1,40,28,
sequence,flow.Sequence,8_27,2023-11-14T20:45:05.692Z,,,,,,,,,,3943.4160000007832,completion,,,,,,,low,high,,,,,,false,,,,true,624845.5,624845.3000000007,620885.015,621092.5999999978,620901.884,624651.993,1,40,,
trial,html.Screen,8_28_0,2023-11-14T20:45:09.501Z,,,,2,-0.0191999585302269,0.0745789212985316,,false,lh,4001.906999998493,response,-0.5832116939930702,0.40155805941092493,-0.49340087094719215,0.3172267993080966,0.4627200646933794,-0.4151670740340976,low,high,,ISIC_4024062.JPG,,ISIC_2826618.JPG,292,false,ll,keypress(f),0,true,628654.1999999993,628653.8999999985,624635.387,624845.5,624651.993,628468.798,1,40,29,
sequence,flow.Sequence,8_28,2023-11-14T20:45:09.501Z,,,,,,,,,,4001.906999998493,completion,,,,,,,low,high,,,,,,false,,,,true,628654.5999999978,628653.8999999985,624635.387,624845.5,624651.993,628468.798,1,40,,
trial,html.Screen,8_29_0,2023-11-14T20:45:13.693Z,,,,2,-0.0245246789155119,0.0615355901813596,,true,hh,4377.101999998558,response,0.3487048765261165,0.40155805941092493,-0.49340087094719215,0.5215334386689573,0.4627200646933794,-0.4151670740340976,high,high,,ISIC_0034144.JPG,,ISIC_0054963.JPG,389,false,hh,keypress(i),0,true,632846.0999999978,632845.8999999985,628451.773,628654.8000000007,628468.798,632651.87,1,40,30,
sequence,flow.Sequence,8_29,2023-11-14T20:45:13.693Z,,,,,,,,,,4377.101999998558,completion,,,,,,,high,high,,,,,,false,,,,true,632846.5,632845.8999999985,628451.773,628654.6999999993,628468.798,632651.87,1,40,,
trial,html.Screen,8_30_0,2023-11-14T20:45:24.483Z,,,,2,0.0060918352854008,-0.029032683404407,,,,10800.148999999976,timeout,0.4455937909179635,0.40155805941092493,-0.49340087094719215,0.6485110660078686,0.4627200646933794,-0.4151670740340976,high,high,,ISIC_8436194.JPG,,ISIC_6561111.JPG,389,false,,,0,true,643636.3999999985,643636.3000000007,632635.372,632846.6999999993,632651.87,643452.019,1,40,31,
sequence,flow.Sequence,8_30,2023-11-14T20:45:24.483Z,,,,,,,,,,10984.43000000075,completion,,,,,,,high,high,,,,,,false,,,,true,643636.5,643636.3000000007,632635.372,632846.5999999978,632651.87,643452.019,1,40,,
trial,html.Screen,8_31_0,2023-11-14T20:45:30.461Z,,,,2,-0.0367218428225813,0.0026956749740767,,false,hl,6162.380999998539,response,0.5094364930421867,0.40155805941092493,-0.49340087094719215,-0.5630408627721607,0.4627200646933794,-0.4151670740340976,high,low,,ISIC_7212271.JPG,,ISIC_1350519.JPG,345,false,ll,keypress(f),0,true,649614.6999999993,649614.3999999985,643435.345,643636.5999999978,643452.019,649418.578,1,40,32,
sequence,flow.Sequence,8_31,2023-11-14T20:45:30.462Z,,,,,,,,,,6162.380999998539,completion,,,,,,,high,low,,,,,,false,,,,true,649615.1999999993,649614.3999999985,643435.345,643636.5999999978,643452.019,649418.578,1,40,,
trial,html.Screen,8_32_0,2023-11-14T20:45:33.486Z,,,,2,0.00126575685933,0.0325046559638838,,false,hl,3220.4220000000205,response,0.281565213931402,0.4515580594109249,-0.49340087094719215,-0.4757201037822881,0.4627200646933794,-0.46516707403409757,high,low,,ISIC_5682259.JPG,,ISIC_0929483.JPG,310,false,lh,keypress(e),0,true,652639.3000000007,652639,649401.916,649615.3999999985,649418.578,652451.892,1,40,33,
sequence,flow.Sequence,8_32,2023-11-14T20:45:33.486Z,,,,,,,,,,3220.4220000000205,completion,,,,,,,high,low,,,,,,false,,,,true,652639.6999999993,652639,649401.916,649615.3000000007,649418.578,652451.892,1,40,,
trial,html.Screen,8_33_0,2023-11-14T20:45:37.781Z,,,,2,0.012020985739544,-0.0126097407389903,,true,ll,4482.007999998517,response,-0.4202878811699705,0.4515580594109249,-0.49340087094719215,-0.2968299513109589,0.4627200646933794,-0.46516707403409757,low,low,,ISIC_0069379.JPG,,ISIC_9011718.JPG,456,false,ll,keypress(f),0,true,656934.1999999993,656933.8999999985,652435.314,652639.8999999985,652451.892,656751.899,1,40,34,
sequence,flow.Sequence,8_33,2023-11-14T20:45:37.781Z,,,,,,,,,,4482.007999998517,completion,,,,,,,low,low,,,,,,false,,,,true,656934.5999999978,656933.8999999985,652435.314,652639.8000000007,652451.892,656751.899,1,40,,
trial,html.Screen,8_34_0,2023-11-14T20:45:43.678Z,,,,2,-0.0500182837729639,0.0231316228640781,,true,hl,6079.401000000769,response,0.393753190889694,0.4515580594109249,-0.45174978758152035,-0.3964589228750942,0.4627200646933794,-0.46516707403409757,high,low,,ISIC_2246150.JPG,,ISIC_0010788.JPG,310,false,hl,keypress(j),0,true,662831.5,662831.3000000007,656735.109,656934.8000000007,656751.899,662635.197,1,40,35,
sequence,flow.Sequence,8_34,2023-11-14T20:45:43.679Z,,,,,,,,,,6079.401000000769,completion,,,,,,,high,low,,,,,,false,,,,true,662832,662831.3000000007,656735.109,656934.8000000007,656751.899,662635.197,1,40,,
trial,html.Screen,8_35_0,2023-11-14T20:45:48.229Z,,,,2,-0.0127320821962457,0.0315308940184827,,false,lh,4746.802999999956,response,-0.5702489659987551,0.4515580594109249,-0.45174978758152035,0.3893696616370792,0.4627200646933794,-0.4151670740340976,low,high,,ISIC_8156101.JPG,,ISIC_0054974.JPG,304,false,hh,keypress(i),0,true,667382.3000000007,667382,662618.514,662832.1999999993,662635.197,667185.189,1,40,36,
sequence,flow.Sequence,8_35,2023-11-14T20:45:48.229Z,,,,,,,,,,4746.802999999956,completion,,,,,,,low,high,,,,,,false,,,,true,667382.5999999978,667382,662618.514,662832.1999999993,662635.197,667185.189,1,40,,
trial,html.Screen,8_36_0,2023-11-14T20:45:53.517Z,,,,2,-0.010035581303589,0.0100711721396864,,false,hh,5484.810999999987,response,0.3212248378419058,0.4515580594109249,-0.45174978758152035,0.5170469157926282,0.4627200646933794,-0.4151670740340976,high,high,,ISIC_0030592.JPG,,ISIC_0060934.JPG,387,false,hl,keypress(j),0,true,672670.1999999993,672670,667168.546,667382.8000000007,667185.189,672485.248,1,40,37,
sequence,flow.Sequence,8_36,2023-11-14T20:45:53.517Z,,,,,,,,,,5484.810999999987,completion,,,,,,,high,high,,,,,,false,,,,true,672670.6999999993,672670,667168.546,667382.8000000007,667185.189,672485.248,1,40,,
trial,html.Screen,8_37_0,2023-11-14T20:45:58.590Z,,,,2,0.0158987717472563,0.0292472192292015,,false,lh,5257.751999999979,response,-0.2834385167953806,0.4515580594109249,-0.45174978758152035,0.3360410670230601,0.4627200646933794,-0.4151670740340976,low,high,,ISIC_1366765.JPG,,ISIC_0005319.JPG,304,false,ll,keypress(f),0,true,677743.1999999993,677743,672468.281,672670.8000000007,672485.248,677551.747,1,40,38,
sequence,flow.Sequence,8_37,2023-11-14T20:45:58.590Z,,,,,,,,,,5257.751999999979,completion,,,,,,,low,high,,,,,,false,,,,true,677743.6999999993,677743,672468.281,672670.8000000007,672485.248,677551.747,1,40,,
trial,html.Screen,8_38_0,2023-11-14T20:46:02.795Z,,,,2,0.0702697127166421,0.0314752704888287,,true,lh,4396.852999997791,response,-0.5484062908126345,0.4515580594109249,-0.45174978758152035,0.2734990506930169,0.4627200646933794,-0.4151670740340976,low,high,,ISIC_0033881.JPG,,ISIC_1343433.JPG,304,false,lh,keypress(e),0,true,681948.6999999993,681948.5999999978,677535.159,677743.8999999985,677551.747,681751.722,1,40,39,
sequence,flow.Sequence,8_38,2023-11-14T20:46:02.795Z,,,,,,,,,,4396.852999997791,completion,,,,,,,low,high,,,,,,false,,,,true,681948.8000000007,681948.5999999978,677535.159,677743.8000000007,677551.747,681751.722,1,40,,
trial,html.Screen,8_39_0,2023-11-14T20:46:08.238Z,,,,2,0.0203374006918297,-0.0594475300019112,,true,hh,5639.177999998559,response,0.2937205996552065,0.4515580594109249,-0.40174978758152036,0.3063773238239808,0.4627200646933794,-0.4151670740340976,high,high,,ISIC_0028579.JPG,,ISIC_0062234.JPG,387,false,hh,keypress(i),0,true,687391.1999999993,687390.8999999985,681735.185,681948.8000000007,681751.722,687201.802,1,40,40,
sequence,flow.Sequence,8_39,2023-11-14T20:46:08.238Z,,,,,,,,,,5639.177999998559,completion,,,,,,,high,high,,,,,,false,,,,true,687391.5,687390.8999999985,681735.185,681948.8000000007,681751.722,687201.802,1,40,,
stair_loop,flow.Loop,8,2023-11-14T20:46:08.238Z,,,,,,,,,,233988.5739999985,completion,,,,,,,,,,,,,,false,,,,true,687391.6999999993,687390.8999999985,453385.514,453591.80000000075,453402.326,687201.802,1,40,,
exp_instructions,html.Screen,9,2023-11-14T20:46:10.339Z,,,,,,,,,,2289.89799999923,response,,,,,,,,,,,,,,,continue,keypress(Space),,,689492,689491.6999999993,687185.011,687392,687201.802,689301.729,,,,
trial,html.Screen,10_0_0,2023-11-14T20:46:18.371Z,,,,1,-0.0365381185115645,0.0498888424276865,,false,lh,8222.970999999205,response,-0.4811153020817457,0.42905805941092473,-0.47299279261803007,0.3116690118145538,0.4627200646933794,-0.44016707403409744,low,high,,ISIC_0682543.JPG,9,ISIC_0059722.JPG,299,false,ll,keypress(f),0,false,697524.6999999993,697524.6999999993,689285.124,689492.0999999978,689301.729,697335.107,4,500,1,
break,html.Screen,10_0_1,2023-11-14T20:46:18.372Z,,,,,,,,,,NaN,,,,,,,,low,high,,,,,,false,,,,false,697525.0999999978,697525,,697524.8999999985,,697335.107,4,500,,
break_continue,html.Screen,10_0_2,2023-11-14T20:46:18.372Z,,,,,,,,,,NaN,,,,,,,,low,high,,,,,,false,,,,false,697525.3999999985,697525.3000000007,,697525.1999999993,,697335.107,4,500,,
sequence,flow.Sequence,10_0,2023-11-14T20:46:18.372Z,,,,,,,,,,8223.571000000695,completion,,,,,,,low,high,,,,,,false,,,,false,697525.5,697525.3000000007,689285.124,689492.0999999978,689301.729,697335.107,4,500,,
trial,html.Screen,10_1_0,2023-11-14T20:46:21.894Z,,,,1,0.0534676262527691,0.0384996820289673,,true,hl,3711.592999999295,response,0.2886063421947229,0.42905805941092473,-0.47299279261803007,-0.352446945508158,0.4627200646933794,-0.44016707403409744,high,low,,ISIC_0030484.JPG,9,ISIC_0029322.JPG,329,false,hl,keypress(j),0,false,701046.8999999985,701046.6999999993,697318.319,697525.5,697335.107,700851.689,4,500,2,
break,html.Screen,10_1_1,2023-11-14T20:46:21.895Z,,,,,,,,,,NaN,,,,,,,,high,low,,,,,,false,,,,false,701047.8999999985,701047.6999999993,,701047.3000000007,,700851.689,4,500,,
break_continue,html.Screen,10_1_2,2023-11-14T20:46:21.895Z,,,,,,,,,,NaN,,,,,,,,high,low,,,,,,false,,,,false,701048.5,701048.3000000007,,701048.0999999978,,700851.689,4,500,,
sequence,flow.Sequence,10_1,2023-11-14T20:46:21.895Z,,,,,,,,,,3713.193000000785,completion,,,,,,,high,low,,,,,,false,,,,false,701048.6999999993,701048.3000000007,697318.319,697525.5,697335.107,700851.689,4,500,,
trial,html.Screen,10_2_0,2023-11-14T20:46:27.821Z,,,,1,-0.0001106800768269,0.0404747734408496,,false,hl,6122.611000000732,response,0.5526889739037698,0.42905805941092473,-0.47299279261803007,-0.5322642025342497,0.4627200646933794,-0.44016707403409744,high,low,,ISIC_5706192.JPG,9,ISIC_0770920.JPG,329,false,hh,keypress(i),0,false,706974.5999999978,706974.3000000007,700835.015,701048.8999999985,700851.689,706785.065,4,500,3,
break,html.Screen,10_2_1,2023-11-14T20:46:27.822Z,,,,,,,,,,NaN,,,,,,,,high,low,,,,,,false,,,,false,706975.5,706975.3000000007,,706974.8999999985,,706785.065,4,500,,
break_continue,html.Screen,10_2_2,2023-11-14T20:46:27.823Z,,,,,,,,,,NaN,,,,,,,,high,low,,,,,,false,,,,false,706976.0999999978,706975.8999999985,,706975.8000000007,,706785.065,4,500,,
sequence,flow.Sequence,10_2,2023-11-14T20:46:27.823Z,,,,,,,,,,6124.210999998497,completion,,,,,,,high,low,,,,,,false,,,,false,706976.3999999985,706975.8999999985,700835.015,701048.8999999985,700851.689,706785.065,4,500,,
trial,html.Screen,10_3_0,2023-11-14T20:46:31.093Z,,,,1,-0.0474755744799381,-0.0692210794081785,,true,lh,3460.935000000056,response,-0.2991404599754652,0.42905805941092473,-0.47299279261803007,0.3764156831780668,0.4627200646933794,-0.44016707403409744,low,high,,ISIC_8794567.JPG,8,ISIC_6072777.JPG,299,false,lh,keypress(e),0,false,710246.1999999993,710246,706768.217,706976.5999999978,706785.065,710051.669,4,500,4,
break,html.Screen,10_3_1,2023-11-14T20:46:31.094Z,,,,,,,,,,NaN,,,,,,,,low,high,,,,,,false,,,,false,710247.3000000007,710247,,710246.5,,710051.669,4,500,,
break_continue,html.Screen,10_3_2,2023-11-14T20:46:31.095Z,,,,,,,,,,NaN,,,,,,,,low,high,,,,,,false,,,,false,710247.8999999985,710247.6999999993,,710247.5,,710051.669,4,500,,
sequence,flow.Sequence,10_3,2023-11-14T20:46:31.095Z,,,,,,,,,,3462.634999999311,completion,,,,,,,low,high,,,,,,false,,,,false,710248.1999999993,710247.6999999993,706768.217,706976.5,706785.065,710051.669,4,500,,
trial,html.Screen,10_4_0,2023-11-14T20:46:34.781Z,,,,1,0.0700745968706567,0.013891147856594,,false,ll,3882.4309999977704,response,-0.6032934184291074,0.42905805941092473,-0.47299279261803007,-0.3633609013369636,0.4627200646933794,-0.44016707403409744,low,low,,ISIC_0054663.JPG,9,ISIC_0032001.JPG,471,false,lh,keypress(e),0,false,713934.3999999985,713934.0999999978,710035.164,710248.3000000007,710051.669,713768.393,4,500,5,
break,html.Screen,10_4_1,2023-11-14T20:46:34.782Z,,,,,,,,,,NaN,,,,,,,,low,low,,,,,,false,,,,false,713935.3999999985,713935.0999999978,,713934.6999999993,,713768.393,4,500,,
break_continue,html.Screen,10_4_2,2023-11-14T20:46:34.783Z,,,,,,,,,,NaN,,,,,,,,low,low,,,,,,false,,,,false,713935.8999999985,713935.6999999993,,713935.5,,713768.393,4,500,,
sequence,flow.Sequence,10_4,2023-11-14T20:46:34.783Z,,,,,,,,,,3884.0309999992605,completion,,,,,,,low,low,,,,,,false,,,,false,713936.0999999978,713935.6999999993,710035.164,710248.1999999993,710051.669,713768.393,4,500,,
trial,html.Screen,10_5_0,2023-11-14T20:46:40.293Z,,,,1,0.012810673904807,-0.00400964452501,,true,hl,5677.206999997725,response,0.3667984096886182,0.42905805941092473,-0.47299279261803007,-0.289843936609318,0.4627200646933794,-0.44016707403409744,high,low,,ISIC_0064656.JPG,9,ISIC_0069591.JPG,329,false,hl,keypress(j),0,false,719445.8999999985,719445.5999999978,713751.644,713936.3999999985,713768.393,719251.641,4,500,6,
break,html.Screen,10_5_1,2023-11-14T20:46:40.294Z,,,,,,,,,,NaN,,,,,,,,high,low,,,,,,false,,,,false,719446.8000000007,719446.5,,719446.0999999978,,719251.641,4,500,,
break_continue,html.Screen,10_5_2,2023-11-14T20:46:40.294Z,,,,,,,,,,NaN,,,,,,,,high,low,,,,,,false,,,,false,719447.3000000007,719447.0999999978,,719446.8999999985,,719251.641,4,500,,
sequence,flow.Sequence,10_5,2023-11-14T20:46:40.294Z,,,,,,,,,,5678.706999997725,completion,,,,,,,high,low,,,,,,false,,,,false,719447.5,719447.0999999978,713751.644,713936.3000000007,713768.393,719251.641,4,500,,
trial,html.Screen,10_6_0,2023-11-14T20:46:50.373Z,,,,1,-0.0207120852539861,-0.0589023744433183,,true,hl,10274.258999998565,response,0.5060123764076946,0.42905805941092473,-0.47299279261803007,-0.3566434514808389,0.4627200646933794,-0.44016707403409744,high,low,,ISIC_7973601.JPG,9,ISIC_6487809.JPG,329,false,hl,keypress(j),0,false,729526.1999999993,729525.8999999985,719235.053,719447.6999999993,719251.641,729334.896,4,500,7,
break,html.Screen,10_6_1,2023-11-14T20:46:50.374Z,,,,,,,,,,NaN,,,,,,,,high,low,,,,,,false,,,,false,729527.1999999993,729527,,729526.5999999978,,729334.896,4,500,,
break_continue,html.Screen,10_6_2,2023-11-14T20:46:50.375Z,,,,,,,,,,NaN,,,,,,,,high,low,,,,,,false,,,,false,729527.8000000007,729527.5999999978,,729527.3999999985,,729334.896,4,500,,
sequence,flow.Sequence,10_6,2023-11-14T20:46:50.375Z,,,,,,,,,,10275.95899999782,completion,,,,,,,high,low,,,,,,false,,,,false,729528.0999999978,729527.5999999978,719235.053,719447.6999999993,719251.641,729334.896,4,500,,
trial,html.Screen,10_7_0,2023-11-14T20:46:52.949Z,,,,1,0.0629926578251803,-0.0626296407938785,,false,hh,2767.00399999856,response,0.464499682703259,0.42905805941092473,-0.47299279261803007,0.4086037002864623,0.4627200646933794,-0.44016707403409744,high,high,,ISIC_0027043.JPG,9,ISIC_0032473.JPG,388,false,hl,keypress(j),0,false,732102.0999999978,732101.8999999985,729318.582,729528.3000000007,729334.896,731918.345,4,500,8,
break,html.Screen,10_7_1,2023-11-14T20:46:52.950Z,,,,,,,,,,NaN,,,,,,,,high,high,,,,,,false,,,,false,732103.0999999978,732102.8000000007,,732102.3999999985,,731918.345,4,500,,
break_continue,html.Screen,10_7_2,2023-11-14T20:46:52.950Z,,,,,,,,,,NaN,,,,,,,,high,high,,,,,,false,,,,false,732103.8000000007,732103.5,,732103.3000000007,,731918.345,4,500,,
sequence,flow.Sequence,10_7,2023-11-14T20:46:52.951Z,,,,,,,,,,2768.6040000000503,completion,,,,,,,high,high,,,,,,false,,,,false,732104,732103.5,729318.582,729528.3000000007,729334.896,731918.345,4,500,,
trial,html.Screen,10_8_0,2023-11-14T20:46:58.493Z,,,,1,-0.0729466326865927,0.0055109446314237,,true,ll,5727.655000000028,response,-0.5984188533756912,0.42905805941092473,-0.47299279261803007,-0.297887295518196,0.4627200646933794,-0.44016707403409744,low,low,,ISIC_0032597.JPG,9,ISIC_5959795.JPG,471,false,ll,keypress(f),0,false,737646.1999999993,737646,731901.756,732104.0999999978,731918.345,737451.593,4,500,9,
break,html.Screen,10_8_1,2023-11-14T20:46:58.494Z,,,,,,,,,,NaN,,,,,,,,low,low,,,,,,false,,,,false,737647,737646.6999999993,,737646.3000000007,,737451.593,4,500,,
break_continue,html.Screen,10_8_2,2023-11-14T20:46:58.494Z,,,,,,,,,,NaN,,,,,,,,low,low,,,,,,false,,,,false,737647.5999999978,737647.3999999985,,737647.1999999993,,737451.593,4,500,,
sequence,flow.Sequence,10_8,2023-11-14T20:46:58.495Z,,,,,,,,,,5729.054999998538,completion,,,,,,,low,low,,,,,,false,,,,false,737647.8000000007,737647.3999999985,731901.756,732104.0999999978,731918.345,737451.593,4,500,,
trial,html.Screen,10_9_0,2023-11-14T20:47:02.876Z,,,,1,-0.0365381185115645,0.0498888424276865,,false,hh,4577.6069999992615,response,0.533098062529072,0.42905805941092473,-0.47299279261803007,0.6421087556324416,0.4627200646933794,-0.44016707403409744,high,high,,ISIC_0682543.JPG,9,ISIC_0032993.JPG,388,false,lh,keypress(e),0,false,742029.1999999993,742029.1999999993,737434.846,737648,737451.593,741834.989,4,500,10,
break,html.Screen,10_9_1,2023-11-14T20:47:02.876Z,,,,,,,,,,NaN,,,,,,,,high,high,,,,,,false,,,,false,742029.5999999978,742029.5,,742029.3000000007,,741834.989,4,500,,
break_continue,html.Screen,10_9_2,2023-11-14T20:47:02.876Z,,,,,,,,,,NaN,,,,,,,,high,high,,,,,,false,,,,false,742029.6999999993,742029.5999999978,,742029.5999999978,,741834.989,4,500,,
sequence,flow.Sequence,10_9,2023-11-14T20:47:02.876Z,,,,,,,,,,4578.006999997771,completion,,,,,,,high,high,,,,,,false,,,,false,742029.6999999993,742029.5999999978,737434.846,737648,737451.593,741834.989,4,500,,
trial,html.Screen,10_10_0,2023-11-14T20:47:05.917Z,,,,1,0.040352316356354,0.0039626669358928,,false,ll,3235.011000000057,response,-0.4099598584619202,0.42905805941092473,-0.47299279261803007,-0.2581194570981224,0.4627200646933794,-0.44016707403409744,low,low,,ISIC_3018550.JPG,8,ISIC_3966064.JPG,471,false,lh,keypress(e),0,false,745070.0999999978,745070,741818.512,742029.8000000007,741834.989,744885.167,4,500,11,
break,html.Screen,10_10_1,2023-11-14T20:47:05.917Z,,,,,,,,,,NaN,,,,,,,,low,low,,,,,,false,,,,false,745070.3999999985,745070.3000000007,,745070.1999999993,,744885.167,4,500,,
break_continue,html.Screen,10_10_2,2023-11-14T20:47:05.917Z,,,,,,,,,,NaN,,,,,,,,low,low,,,,,,false,,,,false,745070.5999999978,745070.5,,745070.3999999985,,744885.167,4,500,,
sequence,flow.Sequence,10_10,2023-11-14T20:47:05.917Z,,,,,,,,,,3235.511000000057,completion,,,,,,,low,low,,,,,,false,,,,false,745070.5999999978,745070.5,741818.512,742029.8000000007,741834.989,744885.167,4,500,,
trial,html.Screen,10_11_0,2023-11-14T20:47:09.228Z,,,,1,-0.0565575423757561,0.0536115913979284,,false,hh,3496.032999999239,response,0.4362132014980217,0.42905805941092473,-0.47299279261803007,0.4749926790191278,0.4627200646933794,-0.44016707403409744,high,high,,ISIC_0046983.JPG,9,ISIC_0063544.JPG,388,false,lh,keypress(e),0,false,748381.3000000007,748381.1999999993,744868.184,745070.6999999993,744885.167,748184.913,4,500,12,
break,html.Screen,10_11_1,2023-11-14T20:47:09.228Z,,,,,,,,,,NaN,,,,,,,,high,high,,,,,,false,,,,false,748381.5999999978,748381.5999999978,,748381.3999999985,,748184.913,4,500,,
break_continue,html.Screen,10_11_2,2023-11-14T20:47:09.228Z,,,,,,,,,,NaN,,,,,,,,high,high,,,,,,false,,,,false,748381.8000000007,748381.6999999993,,748381.5999999978,,748184.913,4,500,,
sequence,flow.Sequence,10_11,2023-11-14T20:47:09.229Z,,,,,,,,,,3496.532999999239,completion,,,,,,,high,high,,,,,,false,,,,false,748381.8000000007,748381.6999999993,744868.184,745070.6999999993,744885.167,748184.913,4,500,,
trial,html.Screen,10_12_0,2023-11-14T20:47:14.134Z,,,,1,-0.0051046740562181,0.0178832721027728,,false,hl,5101.986999998568,response,0.3463842365868291,0.42905805941092473,-0.47299279261803007,-0.446831656905133,0.4627200646933794,-0.44016707403409744,high,low,,ISIC_9545819.JPG,10,ISIC_0062208.JPG,329,false,ll,keypress(f),0,false,753287.1999999993,753286.8999999985,748168.477,748381.8999999985,748184.913,753101.708,4,500,13,
break,html.Screen,10_12_1,2023-11-14T20:47:14.135Z,,,,,,,,,,NaN,,,,,,,,high,low,,,,,,false,,,,false,753288.3000000007,753287.8999999985,,753287.5,,753101.708,4,500,,
break_continue,html.Screen,10_12_2,2023-11-14T20:47:14.136Z,,,,,,,,,,NaN,,,,,,,,high,low,,,,,,false,,,,false,753289,753288.6999999993,,753288.5,,753101.708,4,500,,
sequence,flow.Sequence,10_12,2023-11-14T20:47:14.136Z,,,,,,,,,,5103.786999999313,completion,,,,,,,high,low,,,,,,false,,,,false,753289.1999999993,753288.6999999993,748168.477,748381.8999999985,748184.913,753101.708,4,500,,
trial,html.Screen,10_13_0,2023-11-14T20:47:18.933Z,,,,1,-0.0051046740562181,0.0178832721027728,,true,hl,4984.592000000761,response,0.3513025235700576,0.42905805941092473,-0.47299279261803007,-0.6113523326111633,0.4627200646933794,-0.44016707403409744,high,low,,ISIC_9545819.JPG,9,ISIC_0623284.JPG,329,false,hl,keypress(j),0,false,758086.5999999978,758086.3000000007,753085.122,753289.5,753101.708,757901.701,4,500,14,
break,html.Screen,10_13_1,2023-11-14T20:47:18.934Z,,,,,,,,,,NaN,,,,,,,,high,low,,,,,,false,,,,false,758087.3999999985,758087.3000000007,,758086.8999999985,,757901.701,4,500,,
break_continue,html.Screen,10_13_2,2023-11-14T20:47:18.935Z,,,,,,,,,,NaN,,,,,,,,high,low,,,,,,false,,,,false,758088,758087.8000000007,,758087.5999999978,,757901.701,4,500,,
sequence,flow.Sequence,10_13,2023-11-14T20:47:18.935Z,,,,,,,,,,4986.092000000761,completion,,,,,,,high,low,,,,,,false,,,,false,758088.1999999993,758087.8000000007,753085.122,753289.3999999985,753101.708,757901.701,4,500,,
trial,html.Screen,10_14_0,2023-11-14T20:47:25.837Z,,,,1,0.0572318562475973,0.0328299593216012,,false,hl,7088.099000000744,response,0.354371495533515,0.42905805941092473,-0.47299279261803007,-0.4682851389422111,0.4627200646933794,-0.44016707403409744,high,low,,ISIC_0397464.JPG,8,ISIC_0014501.JPG,329,false,lh,keypress(e),0,false,764990.0999999978,764989.8000000007,757885.007,758088.3999999985,757901.701,764801.579,4,500,15,
break,html.Screen,10_14_1,2023-11-14T20:47:25.838Z,,,,,,,,,,NaN,,,,,,,,high,low,,,,,,false,,,,false,764990.8000000007,764990.5999999978,,764990.3000000007,,764801.579,4,500,,
break_continue,html.Screen,10_14_2,2023-11-14T20:47:25.838Z,,,,,,,,,,NaN,,,,,,,,high,low,,,,,,false,,,,false,764991.1999999993,764991.0999999978,,764990.8999999985,,764801.579,4,500,,
sequence,flow.Sequence,10_14,2023-11-14T20:47:25.838Z,,,,,,,,,,7089.398999997764,completion,,,,,,,high,low,,,,,,false,,,,false,764991.5999999978,764991.0999999978,757885.007,758088.3000000007,757901.701,764801.579,4,500,,
trial,html.Screen,10_15_0,2023-11-14T20:47:34.309Z,,,,1,0.0362472736315994,0.0492979048777824,,false,ll,8660.721000000718,response,-0.520903562664232,0.42905805941092473,-0.47299279261803007,-0.3332621430635359,0.4627200646933794,-0.44016707403409744,low,low,,ISIC_5312584.JPG,9,ISIC_0028136.JPG,471,false,hh,keypress(i),0,false,773462.5999999978,773462.3000000007,764785.046,764991.8000000007,764801.579,773268.161,4,500,16,
break,html.Screen,10_15_1,2023-11-14T20:47:34.310Z,,,,,,,,,,NaN,,,,,,,,low,low,,,,,,false,,,,false,773463.5,773463.0999999978,,773462.8999999985,,773268.161,4,500,,
break_continue,html.Screen,10_15_2,2023-11-14T20:47:34.311Z,,,,,,,,,,NaN,,,,,,,,low,low,,,,,,false,,,,false,773464.0999999978,773464,,773463.6999999993,,773268.161,4,500,,
sequence,flow.Sequence,10_15,2023-11-14T20:47:34.311Z,,,,,,,,,,8662.420999999973,completion,,,,,,,low,low,,,,,,false,,,,false,773464.5,773464,764785.046,764991.6999999993,764801.579,773268.161,4,500,,
trial,html.Screen,10_16_0,2023-11-14T20:47:42.437Z,,,,1,-0.0207120852539861,-0.0589023744433183,,false,ll,8322.038999999291,response,-0.3527085462231071,0.42905805941092473,-0.47299279261803007,-0.5718110265586791,0.4627200646933794,-0.44016707403409744,low,low,,ISIC_7973601.JPG,9,ISIC_7246852.JPG,471,false,hh,keypress(i),0,false,781590.5,781590.1999999993,773251.321,773464.6999999993,773268.161,781401.469,4,500,17,
break,html.Screen,10_16_1,2023-11-14T20:47:42.438Z,,,,,,,,,,NaN,,,,,,,,low,low,,,,,,false,,,,false,781591.3999999985,781591.1999999993,,781590.8000000007,,781401.469,4,500,,
break_continue,html.Screen,10_16_2,2023-11-14T20:47:42.439Z,,,,,,,,,,NaN,,,,,,,,low,low,,,,,,false,,,,false,781591.8999999985,781591.6999999993,,781591.5,,781401.469,4,500,,
sequence,flow.Sequence,10_16,2023-11-14T20:47:42.439Z,,,,,,,,,,8323.538999999291,completion,,,,,,,low,low,,,,,,false,,,,false,781592.1999999993,781591.6999999993,773251.321,773464.5999999978,773268.161,781401.469,4,500,,
trial,html.Screen,10_17_0,2023-11-14T20:47:48.198Z,,,,1,0.0658785165472318,0.0638000940494709,,true,ll,5949.430999998469,response,-0.4819344494681788,0.42905805941092473,-0.47299279261803007,-0.3340333975247872,0.4627200646933794,-0.44016707403409744,low,low,,ISIC_0626501.JPG,9,ISIC_6981061.JPG,471,false,ll,keypress(f),0,false,787351.1999999993,787350.8999999985,781384.689,781592.3000000007,781401.469,787168.359,4,500,18,
break,html.Screen,10_17_1,2023-11-14T20:47:48.199Z,,,,,,,,,,NaN,,,,,,,,low,low,,,,,,false,,,,false,787352.1999999993,787351.8999999985,,787351.5,,787168.359,4,500,,
break_continue,html.Screen,10_17_2,2023-11-14T20:47:48.200Z,,,,,,,,,,NaN,,,,,,,,low,low,,,,,,false,,,,false,787352.8000000007,787352.5999999978,,787352.3999999985,,787168.359,4,500,,
sequence,flow.Sequence,10_17,2023-11-14T20:47:48.200Z,,,,,,,,,,5951.130999997724,completion,,,,,,,low,low,,,,,,false,,,,false,787353,787352.5999999978,781384.689,781592.3000000007,781401.469,787168.359,4,500,,
trial,html.Screen,10_18_0,2023-11-14T20:47:58.789Z,,,,1,-0.0050319651598106,0.047524453347389,,true,ll,10773.74099999771,response,-0.6385595041060306,0.42905805941092473,-0.47299279261803007,-0.5002094817828114,0.4627200646933794,-0.44016707403409744,low,low,,ISIC_0027081.JPG,9,ISIC_0005879.JPG,471,false,ll,keypress(f),0,false,797942.3000000007,797942.0999999978,787151.479,787353.1999999993,787168.359,797751.45,4,500,19,
break,html.Screen,10_18_1,2023-11-14T20:47:58.790Z,,,,,,,,,,NaN,,,,,,,,low,low,,,,,,false,,,,false,797942.8999999985,797942.8999999985,,797942.5999999978,,797751.45,4,500,,
break_continue,html.Screen,10_18_2,2023-11-14T20:47:58.790Z,,,,,,,,,,NaN,,,,,,,,low,low,,,,,,false,,,,false,797943.3999999985,797943.3000000007,,797943.0999999978,,797751.45,4,500,,
sequence,flow.Sequence,10_18,2023-11-14T20:47:58.790Z,,,,,,,,,,10774.94100000069,completion,,,,,,,low,low,,,,,,false,,,,false,797943.5999999978,797943.3000000007,787151.479,787353.1999999993,787168.359,797751.45,4,500,,
trial,html.Screen,10_19_0,2023-11-14T20:48:02.669Z,,,,1,0.0480684603309257,-0.0620119776873313,,true,hl,4070.3500000007916,response,0.3114671244970352,0.42905805941092473,-0.47299279261803007,-0.3612619143858615,0.4627200646933794,-0.44016707403409744,high,low,,ISIC_0645834.JPG,8,ISIC_6220625.JPG,329,false,hl,keypress(j),0,false,801822.1999999993,801821.8000000007,797734.995,797943.6999999993,797751.45,801634.8,4,500,20,
break,html.Screen,10_19_1,2023-11-14T20:48:02.670Z,,,,,,,,,,NaN,,,,,,,,high,low,,,,,,false,,,,false,801823.0999999978,801822.8999999985,,801822.5,,801634.8,4,500,,
break_continue,html.Screen,10_19_2,2023-11-14T20:48:02.670Z,,,,,,,,,,NaN,,,,,,,,high,low,,,,,,false,,,,false,801823.6999999993,801823.5,,801823.3000000007,,801634.8,4,500,,
sequence,flow.Sequence,10_19,2023-11-14T20:48:02.671Z,,,,,,,,,,4072.0500000000466,completion,,,,,,,high,low,,,,,,false,,,,false,801823.8999999985,801823.5,797734.995,797943.5999999978,797751.45,801634.8,4,500,,
trial,html.Screen,10_20_0,2023-11-14T20:48:07.421Z,,,,1,0.0420795830016583,-0.0226772711905177,,false,hl,4938.799999997718,response,0.3645573898520094,0.42905805941092473,-0.47299279261803007,-0.2648742948976914,0.4627200646933794,-0.44016707403409744,high,low,,ISIC_0638857.JPG,9,ISIC_6681802.JPG,329,false,hh,keypress(i),0,false,806573.8999999985,806573.5999999978,801618.248,801824.1999999993,801634.8,806384.747,4,500,21,
break,html.Screen,10_20_1,2023-11-14T20:48:07.422Z,,,,,,,,,,NaN,,,,,,,,high,low,,,,,,false,,,,false,806574.8000000007,806574.5999999978,,806574.0999999978,,806384.747,4,500,,
break_continue,html.Screen,10_20_2,2023-11-14T20:48:07.422Z,,,,,,,,,,NaN,,,,,,,,high,low,,,,,,false,,,,false,806575.3999999985,806575.1999999993,,806575,,806384.747,4,500,,
sequence,flow.Sequence,10_20,2023-11-14T20:48:07.422Z,,,,,,,,,,4940.399999999208,completion,,,,,,,high,low,,,,,,false,,,,false,806575.5999999978,806575.1999999993,801618.248,801824.0999999978,801634.8,806384.747,4,500,,
trial,html.Screen,10_21_0,2023-11-14T20:48:11.406Z,,,,1,0.0060918352854008,-0.029032683404407,,false,ll,4174.152999998536,response,-0.5191435595129181,0.42905805941092473,-0.47299279261803007,-0.3139197606762482,0.4627200646933794,-0.44016707403409744,low,low,,ISIC_8436194.JPG,9,ISIC_0015079.JPG,471,false,lh,keypress(e),0,false,810559.1999999993,810558.8999999985,806368.063,806575.8000000007,806384.747,810368.068,4,500,22,
break,html.Screen,10_21_1,2023-11-14T20:48:11.407Z,,,,,,,,,,NaN,,,,,,,,low,low,,,,,,false,,,,false,810560.1999999993,810560,,810559.5999999978,,810368.068,4,500,,
break_continue,html.Screen,10_21_2,2023-11-14T20:48:11.408Z,,,,,,,,,,NaN,,,,,,,,low,low,,,,,,false,,,,false,810560.8999999985,810560.6999999993,,810560.5,,810368.068,4,500,,
sequence,flow.Sequence,10_21,2023-11-14T20:48:11.408Z,,,,,,,,,,4175.952999999281,completion,,,,,,,low,low,,,,,,false,,,,false,810561.1999999993,810560.6999999993,806368.063,806575.8000000007,806384.747,810368.068,4,500,,
trial,html.Screen,10_22_0,2023-11-14T20:48:15.102Z,,,,1,0.0085520978188085,-0.0535296539628673,,false,ll,3886.6319999992847,response,-0.6281689752377707,0.42905805941092473,-0.47299279261803007,-0.420125830665695,0.4627200646933794,-0.44016707403409744,low,low,,ISIC_0758797.JPG,9,ISIC_0061509.JPG,471,false,lh,keypress(e),0,false,814255,814254.6999999993,810351.552,810561.3000000007,810368.068,814068.067,4,500,23,
break,html.Screen,10_22_1,2023-11-14T20:48:15.103Z,,,,,,,,,,NaN,,,,,,,,low,low,,,,,,false,,,,false,814256,814255.6999999993,,814255.3000000007,,814068.067,4,500,,
break_continue,html.Screen,10_22_2,2023-11-14T20:48:15.103Z,,,,,,,,,,NaN,,,,,,,,low,low,,,,,,false,,,,false,814256.5,814256.3000000007,,814256.0999999978,,814068.067,4,500,,
sequence,flow.Sequence,10_22,2023-11-14T20:48:15.104Z,,,,,,,,,,3888.232000000775,completion,,,,,,,low,low,,,,,,false,,,,false,814256.8000000007,814256.3000000007,810351.552,810561.1999999993,810368.068,814068.067,4,500,,
trial,html.Screen,10_23_0,2023-11-14T20:48:19.037Z,,,,1,-0.0127320821962457,0.0315308940184827,,true,hh,4121.632999999216,response,0.4058140072042295,0.42905805941092473,-0.47299279261803007,0.2836123662595369,0.4627200646933794,-0.44016707403409744,high,high,,ISIC_8156101.JPG,9,ISIC_0000163.JPG,388,false,hh,keypress(i),0,false,818189.8999999985,818189.6999999993,814051.354,814257,814068.067,818001.513,4,500,24,
break,html.Screen,10_23_1,2023-11-14T20:48:19.038Z,,,,,,,,,,NaN,,,,,,,,high,high,,,,,,false,,,,false,818190.8999999985,818190.6999999993,,818190.3000000007,,818001.513,4,500,,
break_continue,html.Screen,10_23_2,2023-11-14T20:48:19.038Z,,,,,,,,,,NaN,,,,,,,,high,high,,,,,,false,,,,false,818191.5,818191.3000000007,,818191.0999999978,,818001.513,4,500,,
sequence,flow.Sequence,10_23,2023-11-14T20:48:19.038Z,,,,,,,,,,4123.233000000706,completion,,,,,,,high,high,,,,,,false,,,,false,818191.6999999993,818191.3000000007,814051.354,814256.8999999985,814068.067,818001.513,4,500,,
trial,html.Screen,10_24_0,2023-11-14T20:48:24.692Z,,,,1,-0.0744767864787991,0.0482768027208112,,false,hh,5843.986999999965,response,0.3712479809609063,0.42905805941092473,-0.47299279261803007,0.5949590719462826,0.4627200646933794,-0.44016707403409744,high,high,,ISIC_0011482.JPG,9,ISIC_0070313.JPG,388,false,hl,keypress(j),0,false,823845.5,823845.5,817984.74,818191.8999999985,818001.513,823651.332,4,500,25,
break,html.Screen,10_24_1,2023-11-14T20:48:24.693Z,,,,,,,,,,NaN,,,,,,,,high,high,,,,,,false,,,,false,823845.8000000007,823845.6999999993,,823845.5999999978,,823651.332,4,500,,
break_continue,html.Screen,10_24_2,2023-11-14T20:48:24.693Z,,,,,,,,,,NaN,,,,,,,,high,high,,,,,,false,,,,false,823846,823845.8999999985,,823845.8000000007,,823651.332,4,500,,
sequence,flow.Sequence,10_24,2023-11-14T20:48:24.693Z,,,,,,,,,,5844.3869999984745,completion,,,,,,,high,high,,,,,,false,,,,false,823846,823845.8999999985,817984.74,818191.8999999985,818001.513,823651.332,4,500,,
trial,html.Screen,10_25_0,2023-11-14T20:48:27.901Z,,,,1,0.0560021488981517,-0.0058131881595011,,false,hh,3402.2679999977117,response,0.3480832947985312,0.42905805941092473,-0.47299279261803007,0.4175695624071949,0.4627200646933794,-0.44016707403409744,high,high,,ISIC_0000077.JPG,9,ISIC_1685962.JPG,388,false,hl,keypress(j),0,false,827053.8000000007,827053.5999999978,823634.828,823846.0999999978,823651.332,826868.054,4,500,26,
break,html.Screen,10_25_1,2023-11-14T20:48:27.902Z,,,,,,,,,,NaN,,,,,,,,high,high,,,,,,false,,,,false,827054.8000000007,827054.5,,827054.0999999978,,826868.054,4,500,,
break_continue,html.Screen,10_25_2,2023-11-14T20:48:27.902Z,,,,,,,,,,NaN,,,,,,,,high,high,,,,,,false,,,,false,827055.3999999985,827055.1999999993,,827054.8999999985,,826868.054,4,500,,
sequence,flow.Sequence,10_25,2023-11-14T20:48:27.903Z,,,,,,,,,,3403.867999999202,completion,,,,,,,high,high,,,,,,false,,,,false,827055.6999999993,827055.1999999993,823634.828,823846.0999999978,823651.332,826868.054,4,500,,
trial,html.Screen,10_26_0,2023-11-14T20:48:32.781Z,,,,1,0.0458738008498492,0.0084690422621415,,true,lh,5065.746000000741,response,-0.5904710565843588,0.42905805941092473,-0.47299279261803007,0.3199562806487943,0.4627200646933794,-0.44016707403409744,low,high,,ISIC_4026019.JPG,9,ISIC_9338761.JPG,299,false,lh,keypress(e),0,false,831934,831933.8000000007,826851.275,827055.8000000007,826868.054,831751.306,4,500,27,
break,html.Screen,10_26_1,2023-11-14T20:48:32.782Z,,,,,,,,,,NaN,,,,,,,,low,high,,,,,,false,,,,false,831935,831934.8000000007,,831934.3999999985,,831751.306,4,500,,
break_continue,html.Screen,10_26_2,2023-11-14T20:48:32.782Z,,,,,,,,,,NaN,,,,,,,,low,high,,,,,,false,,,,false,831935.5999999978,831935.3999999985,,831935.3000000007,,831751.306,4,500,,
sequence,flow.Sequence,10_26,2023-11-14T20:48:32.783Z,,,,,,,,,,5067.345999998506,completion,,,,,,,low,high,,,,,,false,,,,false,831935.8000000007,831935.3999999985,826851.275,827055.6999999993,826868.054,831751.306,4,500,,
trial,html.Screen,10_27_0,2023-11-14T20:48:37.365Z,,,,1,-0.0744767864787991,0.0482768027208112,,false,hh,4766.694000000018,response,0.3654680925998517,0.42905805941092473,-0.47299279261803007,0.4790939520090457,0.4627200646933794,-0.44016707403409744,high,high,,ISIC_0011482.JPG,9,ISIC_9865097.JPG,388,false,lh,keypress(e),0,false,836518.1999999993,836518,831734.565,831936,831751.306,836334.733,4,500,28,
break,html.Screen,10_27_1,2023-11-14T20:48:37.366Z,,,,,,,,,,NaN,,,,,,,,high,high,,,,,,false,,,,false,836519.1999999993,836519,,836518.5999999978,,836334.733,4,500,,
break_continue,html.Screen,10_27_2,2023-11-14T20:48:37.367Z,,,,,,,,,,NaN,,,,,,,,high,high,,,,,,false,,,,false,836519.8000000007,836519.5999999978,,836519.3999999985,,836334.733,4,500,,
sequence,flow.Sequence,10_27,2023-11-14T20:48:37.367Z,,,,,,,,,,4768.2939999977825,completion,,,,,,,high,high,,,,,,false,,,,false,836520.0999999978,836519.5999999978,831734.565,831936,831751.306,836334.733,4,500,,
trial,html.Screen,10_28_0,2023-11-14T20:48:43.461Z,,,,1,0.0050679133050021,0.0174815595031679,,false,hl,6278.666999998502,response,0.5212112358000693,0.42905805941092473,-0.47299279261803007,-0.2586271182910612,0.4627200646933794,-0.44016707403409744,high,low,,ISIC_9848743.JPG,10,ISIC_2030997.JPG,329,false,ll,keypress(f),0,false,842613.6999999993,842613.3999999985,836318.16,836520.3000000007,836334.733,842417.966,4,500,29,
break,html.Screen,10_28_1,2023-11-14T20:48:43.461Z,,,,,,,,,,NaN,,,,,,,,high,low,,,,,,false,,,,false,842614.5999999978,842614.3999999985,,842613.8999999985,,842417.966,4,500,,
break_continue,html.Screen,10_28_2,2023-11-14T20:48:43.462Z,,,,,,,,,,NaN,,,,,,,,high,low,,,,,,false,,,,false,842615.0999999978,842614.8999999985,,842614.6999999993,,842417.966,4,500,,
sequence,flow.Sequence,10_28,2023-11-14T20:48:43.462Z,,,,,,,,,,6280.166999998502,completion,,,,,,,high,low,,,,,,false,,,,false,842615.3999999985,842614.8999999985,836318.16,836520.3000000007,836334.733,842417.966,4,500,,
trial,html.Screen,10_29_0,2023-11-14T20:48:49.573Z,,,,1,0.0539169177295974,-0.039571352787207,,false,ll,6307.73399999924,response,-0.5833181265126877,0.42905805941092473,-0.47299279261803007,-0.2766411817549806,0.4627200646933794,-0.44016707403409744,low,low,,ISIC_1076091.JPG,8,ISIC_9764024.JPG,471,false,hh,keypress(i),0,false,848726,848725.6999999993,842401.558,842615.5,842417.966,848534.693,4,500,30,
break,html.Screen,10_29_1,2023-11-14T20:48:49.574Z,,,,,,,,,,NaN,,,,,,,,low,low,,,,,,false,,,,false,848726.8000000007,848726.6999999993,,848726.3000000007,,848534.693,4,500,,
break_continue,html.Screen,10_29_2,2023-11-14T20:48:49.574Z,,,,,,,,,,NaN,,,,,,,,low,low,,,,,,false,,,,false,848727.3000000007,848727.1999999993,,848727,,848534.693,4,500,,
sequence,flow.Sequence,10_29,2023-11-14T20:48:49.575Z,,,,,,,,,,6309.23399999924,completion,,,,,,,low,low,,,,,,false,,,,false,848727.6999999993,848727.1999999993,842401.558,842615.5,842417.966,848534.693,4,500,,
trial,html.Screen,10_30_0,2023-11-14T20:48:52.613Z,,,,1,0.0077673378094614,0.0021810768579373,,false,hh,3231.0069999992847,response,0.4545462287523354,0.42905805941092473,-0.47299279261803007,0.3896165303126859,0.4627200646933794,-0.44016707403409744,high,high,,ISIC_0067621.JPG,9,ISIC_0026348.JPG,388,false,lh,keypress(e),0,false,851765.8999999985,851765.6999999993,848517.921,848727.6999999993,848534.693,851567.981,4,500,31,
break,html.Screen,10_30_1,2023-11-14T20:48:52.614Z,,,,,,,,,,NaN,,,,,,,,high,high,,,,,,false,,,,false,851766.8999999985,851766.6999999993,,851766.3000000007,,851567.981,4,500,,
break_continue,html.Screen,10_30_2,2023-11-14T20:48:52.614Z,,,,,,,,,,NaN,,,,,,,,high,high,,,,,,false,,,,false,851767.5,851767.3000000007,,851767.0999999978,,851567.981,4,500,,
sequence,flow.Sequence,10_30,2023-11-14T20:48:52.615Z,,,,,,,,,,3232.607000000775,completion,,,,,,,high,high,,,,,,false,,,,false,851767.5999999978,851767.3000000007,848517.921,848727.6999999993,848534.693,851567.981,4,500,,
trial,html.Screen,10_31_0,2023-11-14T20:48:57.253Z,,,,1,-0.0189295602385628,-0.0128812415435153,,true,hl,4837.718999999226,response,0.5457231191084182,0.42905805941092473,-0.47299279261803007,-0.387791766824021,0.4627200646933794,-0.44016707403409744,high,low,,ISIC_0010372.JPG,8,ISIC_4130478.JPG,329,false,hl,keypress(j),0,false,856406.0999999978,856405.6999999993,851551.435,851767.8999999985,851567.981,856218.085,4,500,32,
break,html.Screen,10_31_1,2023-11-14T20:48:57.254Z,,,,,,,,,,NaN,,,,,,,,high,low,,,,,,false,,,,false,856406.8999999985,856406.6999999993,,856406.3999999985,,856218.085,4,500,,
break_continue,html.Screen,10_31_2,2023-11-14T20:48:57.254Z,,,,,,,,,,NaN,,,,,,,,high,low,,,,,,false,,,,false,856407.5,856407.3000000007,,856407.0999999978,,856218.085,4,500,,
sequence,flow.Sequence,10_31,2023-11-14T20:48:57.255Z,,,,,,,,,,4839.319000000716,completion,,,,,,,high,low,,,,,,false,,,,false,856407.8000000007,856407.3000000007,851551.435,851767.8000000007,851567.981,856218.085,4,500,,
trial,html.Screen,10_32_0,2023-11-14T20:49:01.549Z,,,,1,0.0350697500805515,0.0166617848231997,,true,lh,4483.715000000782,response,-0.5813706054986331,0.42905805941092473,-0.47299279261803007,0.3611802930945754,0.4627200646933794,-0.44016707403409744,low,high,,ISIC_0024423.JPG,9,ISIC_0046331.JPG,299,false,lh,keypress(e),0,false,860702.0999999978,860701.8000000007,856201.362,856408,856218.085,860518.15,4,500,33,
break,html.Screen,10_32_1,2023-11-14T20:49:01.550Z,,,,,,,,,,NaN,,,,,,,,low,high,,,,,,false,,,,false,860703,860702.6999999993,,860702.3000000007,,860518.15,4,500,,
break_continue,html.Screen,10_32_2,2023-11-14T20:49:01.550Z,,,,,,,,,,NaN,,,,,,,,low,high,,,,,,false,,,,false,860703.5,860703.3000000007,,860703.0999999978,,860518.15,4,500,,
sequence,flow.Sequence,10_32,2023-11-14T20:49:01.551Z,,,,,,,,,,4485.215000000782,completion,,,,,,,low,high,,,,,,false,,,,false,860703.6999999993,860703.3000000007,856201.362,856407.8999999985,856218.085,860518.15,4,500,,
trial,html.Screen,10_33_0,2023-11-14T20:49:06.325Z,,,,1,0.0362472736315994,0.0492979048777824,,false,ll,4959.650000000722,response,-0.5604669296516483,0.42905805941092473,-0.47299279261803007,-0.5926359604308636,0.4627200646933794,-0.44016707403409744,low,low,,ISIC_5312584.JPG,8,ISIC_9699615.JPG,471,false,lh,keypress(e),0,false,865478.1999999993,865477.8000000007,860501.188,860703.8999999985,860518.15,865284.582,4,500,34,
break,html.Screen,10_33_1,2023-11-14T20:49:06.326Z,,,,,,,,,,NaN,,,,,,,,low,low,,,,,,false,,,,false,865479.3000000007,865479,,865478.5999999978,,865284.582,4,500,,
break_continue,html.Screen,10_33_2,2023-11-14T20:49:06.327Z,,,,,,,,,,NaN,,,,,,,,low,low,,,,,,false,,,,false,865480,865479.8000000007,,865479.5,,865284.582,4,500,,
sequence,flow.Sequence,10_33,2023-11-14T20:49:06.327Z,,,,,,,,,,4961.650000000722,completion,,,,,,,low,low,,,,,,false,,,,false,865480.1999999993,865479.8000000007,860501.188,860703.8999999985,860518.15,865284.582,4,500,,
trial,html.Screen,10_34_0,2023-11-14T20:49:10.285Z,,,,1,0.0629926578251803,-0.0626296407938785,,false,hh,4152.917999999947,response,0.6108836956250653,0.42905805941092473,-0.47299279261803007,0.2688392644291886,0.4627200646933794,-0.44016707403409744,high,high,,ISIC_0027043.JPG,10,ISIC_0000522.JPG,388,false,hl,keypress(j),0,false,869437.8000000007,869437.5,865267.784,865480.3999999985,865284.582,869251.253,4,500,35,
break,html.Screen,10_34_1,2023-11-14T20:49:10.286Z,,,,,,,,,,NaN,,,,,,,,high,high,,,,,,false,,,,false,869438.6999999993,869438.5,,869438.0999999978,,869251.253,4,500,,
break_continue,html.Screen,10_34_2,2023-11-14T20:49:10.286Z,,,,,,,,,,NaN,,,,,,,,high,high,,,,,,false,,,,false,869439.3000000007,869439.0999999978,,869438.8999999985,,869251.253,4,500,,
sequence,flow.Sequence,10_34,2023-11-14T20:49:10.286Z,,,,,,,,,,4154.517999997712,completion,,,,,,,high,high,,,,,,false,,,,false,869439.5999999978,869439.0999999978,865267.784,865480.3999999985,865284.582,869251.253,4,500,,
trial,html.Screen,10_35_0,2023-11-14T20:49:18.717Z,,,,1,0.0402606077562393,-0.0233871780024155,,false,hl,8618.646999998484,response,0.4054814710050892,0.42905805941092473,-0.47299279261803007,-0.5227140125937078,0.4627200646933794,-0.44016707403409744,high,low,,ISIC_0024401.JPG,9,ISIC_7564545.JPG,329,false,hh,keypress(i),0,false,877870.1999999993,877869.8999999985,869234.734,869439.8000000007,869251.253,877684.614,4,500,36,
break,html.Screen,10_35_1,2023-11-14T20:49:18.718Z,,,,,,,,,,NaN,,,,,,,,high,low,,,,,,false,,,,false,877871.0999999978,877870.8999999985,,877870.5,,877684.614,4,500,,
break_continue,html.Screen,10_35_2,2023-11-14T20:49:18.718Z,,,,,,,,,,NaN,,,,,,,,high,low,,,,,,false,,,,false,877871.5999999978,877871.3999999985,,877871.1999999993,,877684.614,4,500,,
sequence,flow.Sequence,10_35,2023-11-14T20:49:18.719Z,,,,,,,,,,8620.146999998484,completion,,,,,,,high,low,,,,,,false,,,,false,877871.8000000007,877871.3999999985,869234.734,869439.6999999993,869251.253,877684.614,4,500,,
trial,html.Screen,10_36_0,2023-11-14T20:49:21.541Z,,,,1,-0.0488365673064833,0.0229344142397166,,false,ll,3009.0859999993118,response,-0.295565282740873,0.42905805941092473,-0.47299279261803007,-0.6312271041680068,0.4627200646933794,-0.44016707403409744,low,low,,ISIC_0056915.JPG,8,ISIC_6471212.JPG,471,false,hl,keypress(j),0,false,880693.8999999985,880693.6999999993,877668.06,877872,877684.614,880501.177,4,500,37,
break,html.Screen,10_36_1,2023-11-14T20:49:21.542Z,,,,,,,,,,NaN,,,,,,,,low,low,,,,,,false,,,,false,880694.8999999985,880694.6999999993,,880694.1999999993,,880501.177,4,500,,
break_continue,html.Screen,10_36_2,2023-11-14T20:49:21.542Z,,,,,,,,,,NaN,,,,,,,,low,low,,,,,,false,,,,false,880695.3999999985,880695.1999999993,,880695,,880501.177,4,500,,
sequence,flow.Sequence,10_36,2023-11-14T20:49:21.543Z,,,,,,,,,,3010.5859999993118,completion,,,,,,,low,low,,,,,,false,,,,false,880695.5999999978,880695.1999999993,877668.06,877871.8999999985,877684.614,880501.177,4,500,,
trial,html.Screen,10_37_0,2023-11-14T20:49:26.102Z,,,,1,-0.0744767864787991,0.0482768027208112,,false,lh,4753.12300000072,response,-0.3157012912067582,0.42905805941092473,-0.47299279261803007,0.5608787550961193,0.4627200646933794,-0.44016707403409744,low,high,,ISIC_0011482.JPG,8,ISIC_2682861.JPG,299,false,hl,keypress(j),0,false,885254.5,885254.3000000007,880484.763,880695.8999999985,880501.177,885068.098,4,500,38,
break,html.Screen,10_37_1,2023-11-14T20:49:26.103Z,,,,,,,,,,NaN,,,,,,,,low,high,,,,,,false,,,,false,885255.5,885255.3000000007,,885254.8999999985,,885068.098,4,500,,
break_continue,html.Screen,10_37_2,2023-11-14T20:49:26.103Z,,,,,,,,,,NaN,,,,,,,,low,high,,,,,,false,,,,false,885256.0999999978,885255.8999999985,,885255.6999999993,,885068.098,4,500,,
sequence,flow.Sequence,10_37,2023-11-14T20:49:26.103Z,,,,,,,,,,4754.722999998485,completion,,,,,,,low,high,,,,,,false,,,,false,885256.3999999985,885255.8999999985,880484.763,880695.8000000007,880501.177,885068.098,4,500,,
trial,html.Screen,10_38_0,2023-11-14T20:49:32.717Z,,,,1,-0.0729466326865927,0.0055109446314237,,false,hh,6801.902000000002,response,0.3880846862486857,0.42905805941092473,-0.47299279261803007,0.333587753947889,0.4627200646933794,-0.44016707403409744,high,high,,ISIC_0032597.JPG,9,ISIC_3586669.JPG,388,false,ll,keypress(f),0,false,891870.3000000007,891870,885051.313,885256.5,885068.098,891684.596,4,500,39,
break,html.Screen,10_38_1,2023-11-14T20:49:32.718Z,,,,,,,,,,NaN,,,,,,,,high,high,,,,,,false,,,,false,891871.3000000007,891871,,891870.5999999978,,891684.596,4,500,,
break_continue,html.Screen,10_38_2,2023-11-14T20:49:32.719Z,,,,,,,,,,NaN,,,,,,,,high,high,,,,,,false,,,,false,891871.8000000007,891871.5999999978,,891871.3999999985,,891684.596,4,500,,
sequence,flow.Sequence,10_38,2023-11-14T20:49:32.719Z,,,,,,,,,,6803.501999997767,completion,,,,,,,high,high,,,,,,false,,,,false,891872,891871.5999999978,885051.313,885256.5,885068.098,891684.596,4,500,,
trial,html.Screen,10_39_0,2023-11-14T20:49:35.638Z,,,,1,0.0523524458062335,-0.0048771624512062,,false,ll,3106.0039999977453,response,-0.3753938790171454,0.42905805941092473,-0.47299279261803007,-0.3284956736883813,0.4627200646933794,-0.44016707403409744,low,low,,ISIC_0010379.JPG,9,ISIC_0046450.JPG,471,false,lh,keypress(e),0,false,894790.8999999985,894790.5999999978,891668.015,891872.3000000007,891684.596,894601.236,4,500,40,
break,html.Screen,10_39_1,2023-11-14T20:49:35.639Z,,,,,,,,,,NaN,,,,,,,,low,low,,,,,,false,,,,false,894791.8999999985,894791.5999999978,,894791.1999999993,,894601.236,4,500,,
break_continue,html.Screen,10_39_2,2023-11-14T20:49:35.640Z,,,,,,,,,,NaN,,,,,,,,low,low,,,,,,false,,,,false,894792.5,894792.3000000007,,894792.0999999978,,894601.236,4,500,,
sequence,flow.Sequence,10_39,2023-11-14T20:49:35.640Z,,,,,,,,,,3107.7040000007255,completion,,,,,,,low,low,,,,,,false,,,,false,894792.6999999993,894792.3000000007,891668.015,891872.1999999993,891684.596,894601.236,4,500,,
trial,html.Screen,10_40_0,2023-11-14T20:49:45.819Z,,,,1,-0.0001106800768269,0.0404747734408496,,false,hl,10370.963999999221,response,0.2769373414312472,0.42905805941092473,-0.47299279261803007,-0.5432700236434715,0.4627200646933794,-0.44016707403409744,high,low,,ISIC_5706192.JPG,9,ISIC_8207162.JPG,329,false,ll,keypress(f),0,false,904972.1999999993,904972.1999999993,894584.624,894793,894601.236,904784.461,4,500,41,
break,html.Screen,10_40_1,2023-11-14T20:49:45.820Z,,,,,,,,,,NaN,,,,,,,,high,low,,,,,,false,,,,false,904972.5,904972.5,,904972.3000000007,,904784.461,4,500,,
break_continue,html.Screen,10_40_2,2023-11-14T20:49:45.820Z,,,,,,,,,,NaN,,,,,,,,high,low,,,,,,false,,,,false,904972.6999999993,904972.6999999993,,904972.6999999993,,904784.461,4,500,,
sequence,flow.Sequence,10_40,2023-11-14T20:49:45.820Z,,,,,,,,,,10371.463999999221,completion,,,,,,,high,low,,,,,,false,,,,false,904972.8000000007,904972.6999999993,894584.624,894792.8999999985,894601.236,904784.461,4,500,,
trial,html.Screen,10_41_0,2023-11-14T20:49:48.870Z,,,,1,0.0742149355137113,0.0423516069066019,,true,lh,3238.0389999999898,response,-0.3534721983355616,0.42905805941092473,-0.47299279261803007,0.657479477259629,0.4627200646933794,-0.44016707403409744,low,high,,ISIC_0011483.JPG,9,ISIC_7788318.JPG,299,false,lh,keypress(e),0,false,908022.8000000007,908022.5,904768.063,904972.8000000007,904784.461,907834.535,4,500,42,
break,html.Screen,10_41_1,2023-11-14T20:49:48.871Z,,,,,,,,,,NaN,,,,,,,,low,high,,,,,,false,,,,false,908023.8999999985,908023.5999999978,,908023.1999999993,,907834.535,4,500,,
break_continue,html.Screen,10_41_2,2023-11-14T20:49:48.872Z,,,,,,,,,,NaN,,,,,,,,low,high,,,,,,false,,,,false,908024.3999999985,908024.3000000007,,908024.0999999978,,907834.535,4,500,,
sequence,flow.Sequence,10_41,2023-11-14T20:49:48.872Z,,,,,,,,,,3239.839000000735,completion,,,,,,,low,high,,,,,,false,,,,false,908024.6999999993,908024.3000000007,904768.063,904972.8000000007,904784.461,907834.535,4,500,,
trial,html.Screen,10_42_0,2023-11-14T20:49:59.158Z,,,,1,0.0539169177295974,-0.039571352787207,,true,lh,10475.864999998477,response,-0.6113293617697344,0.42905805941092473,-0.47299279261803007,0.620374348946215,0.4627200646933794,-0.44016707403409744,low,high,,ISIC_1076091.JPG,9,ISIC_6023518.JPG,299,false,lh,keypress(e),0,false,918310.6999999993,918310.3999999985,907817.981,908024.8999999985,907834.535,918117.764,4,500,43,
break,html.Screen,10_42_1,2023-11-14T20:49:59.159Z,,,,,,,,,,NaN,,,,,,,,low,high,,,,,,false,,,,false,918311.5,918311.3000000007,,918311,,918117.764,4,500,,
break_continue,html.Screen,10_42_2,2023-11-14T20:49:59.159Z,,,,,,,,,,NaN,,,,,,,,low,high,,,,,,false,,,,false,918312.0999999978,918311.8999999985,,918311.5999999978,,918117.764,4,500,,
sequence,flow.Sequence,10_42,2023-11-14T20:49:59.159Z,,,,,,,,,,10477.364999998477,completion,,,,,,,low,high,,,,,,false,,,,false,918312.3000000007,918311.8999999985,907817.981,908024.8999999985,907834.535,918117.764,4,500,,
trial,html.Screen,10_43_0,2023-11-14T20:50:04.739Z,,,,1,0.0420795830016583,-0.0226772711905177,,true,hl,5774.536000000779,response,0.5030934266501653,0.42905805941092473,-0.47299279261803007,-0.4748455916954994,0.4627200646933794,-0.44016707403409744,high,low,,ISIC_0638857.JPG,8,ISIC_6026759.JPG,329,false,hl,keypress(j),0,false,923892.3999999985,923892.3000000007,918101.382,918312.3999999985,918117.764,923701.153,4,500,44,
break,html.Screen,10_43_1,2023-11-14T20:50:04.740Z,,,,,,,,,,NaN,,,,,,,,high,low,,,,,,false,,,,false,923892.6999999993,923892.5999999978,,923892.5,,923701.153,4,500,,
break_continue,html.Screen,10_43_2,2023-11-14T20:50:04.740Z,,,,,,,,,,NaN,,,,,,,,high,low,,,,,,false,,,,false,923892.8999999985,923892.8000000007,,923892.6999999993,,923701.153,4,500,,
sequence,flow.Sequence,10_43,2023-11-14T20:50:04.740Z,,,,,,,,,,5775.036000000779,completion,,,,,,,high,low,,,,,,false,,,,false,923892.8999999985,923892.8000000007,918101.382,918312.3999999985,918117.764,923701.153,4,500,,
trial,html.Screen,10_44_0,2023-11-14T20:50:08.612Z,,,,1,0.0480684603309257,-0.0620119776873313,,true,hh,4063.2469999984605,response,0.233973004490207,0.42905805941092473,-0.47299279261803007,0.3182701816000083,0.4627200646933794,-0.44016707403409744,high,high,,ISIC_0645834.JPG,9,ISIC_0064623.JPG,388,false,hh,keypress(i),0,false,927764.5,927764.3999999985,923684.441,923893,923701.153,927567.708,4,500,45,
break,html.Screen,10_44_1,2023-11-14T20:50:08.612Z,,,,,,,,,,NaN,,,,,,,,high,high,,,,,,false,,,,false,927764.8999999985,927764.8000000007,,927764.6999999993,,927567.708,4,500,,
break_continue,html.Screen,10_44_2,2023-11-14T20:50:08.612Z,,,,,,,,,,NaN,,,,,,,,high,high,,,,,,false,,,,false,927765,927764.8999999985,,927764.8999999985,,927567.708,4,500,,
sequence,flow.Sequence,10_44,2023-11-14T20:50:08.612Z,,,,,,,,,,4063.7469999984605,completion,,,,,,,high,high,,,,,,false,,,,false,927765.0999999978,927764.8999999985,923684.441,923893,923701.153,927567.708,4,500,,
trial,html.Screen,10_45_0,2023-11-14T20:50:14.820Z,,,,1,0.0560021488981517,-0.0058131881595011,,false,hl,6404.891999997781,response,0.4268214624036824,0.42905805941092473,-0.47299279261803007,-0.4266060527385459,0.4627200646933794,-0.44016707403409744,high,low,,ISIC_0000077.JPG,9,ISIC_6254731.JPG,329,false,ll,keypress(f),0,false,933972.5999999978,933972.5999999978,927551.246,927765.0999999978,927567.708,933784.647,4,500,46,
break,html.Screen,10_45_1,2023-11-14T20:50:14.820Z,,,,,,,,,,NaN,,,,,,,,high,low,,,,,,false,,,,false,933973,933972.8000000007,,933972.8000000007,,933784.647,4,500,,
break_continue,html.Screen,10_45_2,2023-11-14T20:50:14.820Z,,,,,,,,,,NaN,,,,,,,,high,low,,,,,,false,,,,false,933973.0999999978,933973,,933973,,933784.647,4,500,,
sequence,flow.Sequence,10_45,2023-11-14T20:50:14.820Z,,,,,,,,,,6405.292000000016,completion,,,,,,,high,low,,,,,,false,,,,false,933973.1999999993,933973,927551.246,927765.0999999978,927567.708,933784.647,4,500,,
trial,html.Screen,10_46_0,2023-11-14T20:50:18.564Z,,,,1,-0.0029978997915594,0.0736178673732526,,false,hh,3931.653000000748,response,0.3661234594820217,0.42905805941092473,-0.47299279261803007,0.6564062772821055,0.4627200646933794,-0.44016707403409744,high,high,,ISIC_9745038.JPG,9,ISIC_0058206.JPG,388,false,hl,keypress(j),0,false,937716.3999999985,937716.3000000007,933767.989,933973.3000000007,933784.647,937534.897,4,500,47,
break,html.Screen,10_46_1,2023-11-14T20:50:18.564Z,,,,,,,,,,NaN,,,,,,,,high,high,,,,,,false,,,,false,937716.8999999985,937716.8000000007,,937716.5999999978,,937534.897,4,500,,
break_continue,html.Screen,10_46_2,2023-11-14T20:50:18.564Z,,,,,,,,,,NaN,,,,,,,,high,high,,,,,,false,,,,false,937717.1999999993,937717.0999999978,,937717,,937534.897,4,500,,
sequence,flow.Sequence,10_46,2023-11-14T20:50:18.564Z,,,,,,,,,,3932.4529999977676,completion,,,,,,,high,high,,,,,,false,,,,false,937717.3000000007,937717.0999999978,933767.989,933973.3000000007,933784.647,937534.897,4,500,,
trial,html.Screen,10_47_0,2023-11-14T20:50:23.773Z,,,,1,0.0203374006918297,-0.0594475300019112,,false,lh,5389.103000000003,response,-0.6700465000523156,0.42905805941092473,-0.47299279261803007,0.3327442763942526,0.4627200646933794,-0.44016707403409744,low,high,,ISIC_0028579.JPG,9,ISIC_0001057.JPG,299,false,ll,keypress(f),0,false,942924.1999999993,942924,937501.203,937717.3000000007,937534.897,942734.338,4,500,48,
break,html.Screen,10_47_1,2023-11-14T20:50:23.773Z,,,,,,,,,,NaN,,,,,,,,low,high,,,,,,false,,,,false,942924.5999999978,942924.3999999985,,942924.3000000007,,942734.338,4,500,,
break_continue,html.Screen,10_47_2,2023-11-14T20:50:23.773Z,,,,,,,,,,NaN,,,,,,,,low,high,,,,,,false,,,,false,942924.6999999993,942924.6999999993,,942924.5999999978,,942734.338,4,500,,
sequence,flow.Sequence,10_47,2023-11-14T20:50:23.774Z,,,,,,,,,,5389.802999999258,completion,,,,,,,low,high,,,,,,false,,,,false,942924.8000000007,942924.6999999993,937501.203,937717.3000000007,937534.897,942734.338,4,500,,
trial,html.Screen,10_48_0,2023-11-14T20:50:30.311Z,,,,1,-0.0321039635696159,-0.020496766286318,,false,lh,6727.861999999266,response,-0.4377803129500727,0.42905805941092473,-0.47299279261803007,0.3934412579644639,0.4627200646933794,-0.44016707403409744,low,high,,ISIC_0058063.JPG,10,ISIC_3856662.JPG,299,false,ll,keypress(f),0,false,949462.5,949462.1999999993,942717.798,942924.8000000007,942734.338,949267.681,4,500,49,
break,html.Screen,10_48_1,2023-11-14T20:50:30.312Z,,,,,,,,,,NaN,,,,,,,,low,high,,,,,,false,,,,false,949463.5,949463.1999999993,,949462.8000000007,,949267.681,4,500,,
break_continue,html.Screen,10_48_2,2023-11-14T20:50:30.313Z,,,,,,,,,,NaN,,,,,,,,low,high,,,,,,false,,,,false,949464.0999999978,949463.8999999985,,949463.5999999978,,949267.681,4,500,,
sequence,flow.Sequence,10_48,2023-11-14T20:50:30.313Z,,,,,,,,,,6729.561999998521,completion,,,,,,,low,high,,,,,,false,,,,false,949464.3000000007,949463.8999999985,942717.798,942924.8000000007,942734.338,949267.681,4,500,,
trial,html.Screen,10_49_0,2023-11-14T20:50:34.479Z,,,,1,0.0539169177295974,-0.039571352787207,,false,lh,4362.619000000763,response,-0.5412990398989956,0.42905805941092473,-0.47299279261803007,0.3157857988944514,0.4627200646933794,-0.44016707403409744,low,high,,ISIC_1076091.JPG,10,ISIC_2702929.JPG,299,false,hh,keypress(i),0,false,953630.5999999978,953630.3000000007,949251.131,949464.5,949267.681,953434.327,4,500,50,
break,html.Screen,10_49_1,2023-11-14T20:50:34.480Z,,,,,,,,,,NaN,,,,,,,,low,high,,,,,,false,,,,false,953631.5,953631.3000000007,,953630.8999999985,,953434.327,4,500,,
break_continue,html.Screen,10_49_2,2023-11-14T20:50:34.481Z,,,,,,,,,,NaN,,,,,,,,low,high,,,,,,false,,,,false,953632.1999999993,953632,,953631.6999999993,,953434.327,4,500,,
