sender,sender_type,sender_id,timestamp,meta,,age,blockNo,c1,c2,condition,correct,correctResponse,duration,ended_on,f1,f1_high,f1_low,f2,f2_high,f2_low,feature_level1,feature_level2,gender,img_left,img_reveal,img_right,n_target_images,practice,response,response_action,selection_duration,staircase,time_commit,time_end,time_render,time_run,time_show,time_switch,total_blocks,total_trials,trialNo,url
informed_consent,html.Screen,0,2023-11-14T22:32:56.169Z,"{""labjs_version"":""20.2.4"",""labjs_build"":{""flavor"":""development"",""commit"":""f5b4a49f956347addd546a832a3327688c2c0fef""},""location"":""https://labjs.felixhenninger.com/api/labjs_preview/index.html"",""userAgent"":""Mozilla/5.0 (Windows NT 10.0; Win64; x64) AppleWebKit/537.36 (KHTML, like Gecko) Chrome/119.0.0.0 Safari/537.36"",""platform"":""Win32"",""language"":""en-US"",""locale"":""en-US"",""timeZone"":""America/Chicago"",""timezoneOffset"":360,""screen_width"":1680,""screen_height"":1050,""scroll_width"":825,""scroll_height"":888,""window_innerWidth"":825,""window_innerHeight"":936,""devicePixelRatio"":1}",,,,,,,,,22536.22499999404,response,,,,,,,,,,,,,,,consent,click button,,,23123.79999999702,23114.59999999404,561.684,561.2999999970198,578.375,23122.229,,,,{}
Demography form,html.Form,1,2023-11-14T22:33:16.841Z,,,18,,,,,,,20673.47100000298,form submission,,,,,,,,,female,,,,,,,,,,43795.79999999702,43795.70000000298,23105.523,23124.09999999404,23122.229,43812.678,,,,
Welcome,html.Screen,2,2023-11-14T22:33:30.184Z,,,,,,,"[""asym"",""bor""]",,,13325.92199999404,response,,,,,,,,,,,,,,,continue,click button,,,57139.20000000298,57138.59999999404,43795.806,43796.09999999404,43812.678,57155.407,,,,
demo_instructions,html.Screen,3,2023-11-14T22:34:15.027Z,,,,,,,,,,44823.29300000298,response,,,,,,,,,,,,,,,continue,click button,,,101979.29999999702,101978.70000000298,57138.713,57139.29999999702,57155.407,101992.415,,,,
trial,html.Screen,4_0_0,2023-11-14T22:34:20.518Z,,,,0,0.8947611078712571,-0.8960964505004638,,true,lh,5477.484999991066,response,-1.0751036484083878,1.0499999999999998,-1.0499999999999998,1.143906455483852,1.0499999999999998,-1.0499999999999998,low,high,,ISIC_6441128.JPG,,ISIC_0064406.JPG,21,true,lh,keypress(e),100,false,107470.39999999106,107469.89999999106,101975.835,101979.5,101992.415,107486.482,1,16,1,
sequence,flow.Sequence,4_0,2023-11-14T22:34:20.534Z,,,,,,,,,,5477.484999991066,completion,,,,,,,low,high,,,,,,true,,,,false,107485.89999999106,107469.89999999106,101975.835,101979.5,101992.415,107486.482,1,16,,
trial,html.Screen,4_1_0,2023-11-14T22:34:23.674Z,,,,0,0.991146183030456,-0.9949639823722534,,true,lh,3138.817999997016,response,-0.991282840649944,1.0499999999999998,-1.0499999999999998,0.9397921099839784,1.0499999999999998,-1.0499999999999998,low,high,,ISIC_6342224.JPG,,ISIC_0000463.JPG,21,true,lh,keypress(e),100,false,110625.79999999702,110625.29999999702,107469.858,107486,107486.482,110642.687,1,16,2,
sequence,flow.Sequence,4_1,2023-11-14T22:34:23.675Z,,,,,,,,,,3138.817999997016,completion,,,,,,,low,high,,,,,,true,,,,false,110626.79999999702,110625.29999999702,107469.858,107486,107486.482,110642.687,1,16,,
trial,html.Screen,4_2_0,2023-11-14T22:34:26.454Z,,,,0,0.8947611078712571,-0.8960964505004638,,true,lh,2763.3129999999946,response,-0.879102500583965,1.0499999999999998,-1.0499999999999998,1.0933081951979773,1.0499999999999998,-1.0499999999999998,low,high,,ISIC_6441128.JPG,,ISIC_0046223.JPG,21,true,lh,keypress(e),100,false,113406.5,113406,110626.007,110627.20000000298,110642.687,113431.536,1,16,3,
sequence,flow.Sequence,4_2,2023-11-14T22:34:26.455Z,,,,,,,,,,2763.3129999999946,completion,,,,,,,low,high,,,,,,true,,,,false,113407.09999999404,113406,110626.007,110627,110642.687,113431.536,1,16,,
trial,html.Screen,4_3_0,2023-11-14T22:34:28.754Z,,,,0,1.0213365328004047,-1.088524359911891,,true,lh,2273.8639999910665,response,-1.2364994561934892,1.0499999999999998,-1.0499999999999998,0.9174173651516624,1.0499999999999998,-1.0499999999999998,low,high,,ISIC_5434229.JPG,,ISIC_3481133.JPG,21,true,lh,keypress(e),100,false,115705.89999999106,115705.39999999106,113414.763,113407.5,113431.536,115735.903,1,16,4,
sequence,flow.Sequence,4_3,2023-11-14T22:34:28.754Z,,,,,,,,,,2273.8639999910665,completion,,,,,,,low,high,,,,,,true,,,,false,115706.59999999404,115705.39999999106,113414.763,113407.29999999702,113431.536,115735.903,1,16,,
trial,html.Screen,4_4_0,2023-11-14T22:34:31.276Z,,,,0,1.2071341803968807,1.235960269089932,,true,ll,2491.4969999910536,response,-1.1769240543102173,1.0499999999999998,-1.0499999999999998,-0.8561928086854821,1.0499999999999998,-1.0499999999999998,low,low,,ISIC_0058174.JPG,,ISIC_0919467.JPG,111,true,ll,keypress(f),100,false,118227.89999999106,118227.39999999106,115719.397,115707,115735.903,118257.494,1,16,5,
sequence,flow.Sequence,4_4,2023-11-14T22:34:31.277Z,,,,,,,,,,2491.4969999910536,completion,,,,,,,low,low,,,,,,true,,,,false,118228.79999999702,118227.39999999106,115719.397,115706.79999999702,115735.903,118257.494,1,16,,
trial,html.Screen,4_5_0,2023-11-14T22:34:34.326Z,,,,0,0.9209488961172596,0.9916011869447884,,true,ll,3019.8059999970137,response,-0.898110633304784,1.0499999999999998,-1.0499999999999998,-0.9140284419528476,1.0499999999999998,-1.0499999999999998,low,low,,ISIC_3338629.JPG,,ISIC_7210119.JPG,111,true,ll,keypress(f),100,false,121277.79999999702,121277.29999999702,118240.987,118229.20000000298,118257.494,121296.867,1,16,6,
sequence,flow.Sequence,4_5,2023-11-14T22:34:34.326Z,,,,,,,,,,3019.8059999970137,completion,,,,,,,low,low,,,,,,true,,,,false,121278.5,121277.29999999702,118240.987,118229.09999999404,118257.494,121296.867,1,16,,
trial,html.Screen,4_6_0,2023-11-14T22:34:36.822Z,,,,0,0.9455512119785764,0.9818230031674032,,true,ll,2474.232999994041,response,-1.0717785279820962,1.0499999999999998,-1.0499999999999998,-1.1267239445830604,1.0499999999999998,-1.0499999999999998,low,low,,ISIC_0057286.JPG,,ISIC_9948815.JPG,111,true,ll,keypress(f),100,false,123771.39999999106,123771.09999999404,121280.066,121278.70000000298,121296.867,123801.625,1,16,7,
sequence,flow.Sequence,4_6,2023-11-14T22:34:36.823Z,,,,,,,,,,2474.232999994041,completion,,,,,,,low,low,,,,,,true,,,,false,123772.09999999404,123771.09999999404,121280.066,121278.70000000298,121296.867,123801.625,1,16,,
trial,html.Screen,4_7_0,2023-11-14T22:34:39.010Z,,,,0,1.110766057559199,1.0312818210504362,,true,ll,2157.2749999910593,response,-0.9991910338212396,1.0499999999999998,-1.0499999999999998,-0.9242629064104082,1.0499999999999998,-1.0499999999999998,low,low,,ISIC_0069620.JPG,,ISIC_7795549.JPG,111,true,ll,keypress(f),100,false,125959.20000000298,125958.89999999106,123785.086,123772.5,123801.625,125989.185,1,16,8,
sequence,flow.Sequence,4_7,2023-11-14T22:34:39.011Z,,,,,,,,,,2157.2749999910593,completion,,,,,,,low,low,,,,,,true,,,,false,125960,125958.89999999106,123785.086,123772.39999999106,123801.625,125989.185,1,16,,
trial,html.Screen,4_8_0,2023-11-14T22:34:41.408Z,,,,0,-0.869932994914832,0.8880533324432531,,true,hl,2367.614999997022,response,0.7871162143493278,0.9499999999999997,-0.9499999999999997,-0.8429329800778957,0.9499999999999997,-0.9499999999999997,high,low,,ISIC_8617084.JPG,,ISIC_3439215.JPG,26,true,hl,keypress(j),100,false,128357.29999999702,128356.79999999702,125972.491,125960.20000000298,125989.185,128377.358,1,16,9,
sequence,flow.Sequence,4_8,2023-11-14T22:34:41.409Z,,,,,,,,,,2367.614999997022,completion,,,,,,,high,low,,,,,,true,,,,false,128358,128356.79999999702,125972.491,125960.09999999404,125989.185,128377.358,1,16,,
trial,html.Screen,4_9_0,2023-11-14T22:34:43.181Z,,,,0,-0.8487429103619056,0.9778257804233036,,true,hl,1752.3420000029873,response,0.8200962008791046,0.9499999999999997,-0.9499999999999997,-0.7936051642828523,0.9499999999999997,-0.9499999999999997,high,low,,ISIC_4554863.JPG,,ISIC_0027031.JPG,26,true,hl,keypress(j),100,false,130130,130129.70000000298,128360.519,128358.29999999702,128377.358,130147.514,1,16,10,
sequence,flow.Sequence,4_9,2023-11-14T22:34:43.181Z,,,,,,,,,,1752.3420000029873,completion,,,,,,,high,low,,,,,,true,,,,false,130130.5,130129.70000000298,128360.519,128358.20000000298,128377.358,130147.514,1,16,,
trial,html.Screen,4_10_0,2023-11-14T22:34:45.221Z,,,,0,-0.8487429103619056,0.9778257804233036,,true,hl,2022.6860000029847,response,1.0164576835546473,0.9499999999999997,-0.9499999999999997,-0.8120626538423016,0.9499999999999997,-0.9499999999999997,high,low,,ISIC_4554863.JPG,,ISIC_6002694.JPG,26,true,hl,keypress(j),100,false,132170.39999999106,132170.20000000298,130130.634,130130.79999999702,130147.514,132201.482,1,16,11,
sequence,flow.Sequence,4_10,2023-11-14T22:34:45.222Z,,,,,,,,,,2022.6860000029847,completion,,,,,,,high,low,,,,,,true,,,,false,132170.70000000298,132170.20000000298,130130.634,130130.70000000298,130147.514,132201.482,1,16,,
trial,html.Screen,4_11_0,2023-11-14T22:34:47.483Z,,,,0,-0.8860551570327019,0.8067116931297591,,true,hl,2230.4179999910702,response,1.0115965332688306,0.9499999999999997,-0.9499999999999997,-0.8282633603842442,0.9499999999999997,-0.9499999999999997,high,low,,ISIC_1457687.JPG,,ISIC_1069587.JPG,26,true,hl,keypress(j),100,false,134432.09999999404,134431.89999999106,132184.783,132170.89999999106,132201.482,134455.64,1,16,12,
sequence,flow.Sequence,4_11,2023-11-14T22:34:47.483Z,,,,,,,,,,2230.4179999910702,completion,,,,,,,high,low,,,,,,true,,,,false,134432.39999999106,134431.89999999106,132184.783,132170.79999999702,132201.482,134455.64,1,16,,
trial,html.Screen,4_12_0,2023-11-14T22:34:49.489Z,,,,0,-1.0275060871969903,-0.8666323445825409,,true,hh,1982.0600000029663,response,0.8331144817673659,0.9499999999999997,-0.9499999999999997,0.9687545919760946,0.9499999999999997,-0.9499999999999997,high,high,,ISIC_9155028.JPG,,ISIC_0028075.JPG,167,true,hh,keypress(i),100,false,136438,136437.70000000298,134439.06,134432.59999999404,134455.64,136459.687,1,16,13,
sequence,flow.Sequence,4_12,2023-11-14T22:34:49.489Z,,,,,,,,,,1982.0600000029663,completion,,,,,,,high,high,,,,,,true,,,,false,136438.5,136437.70000000298,134439.06,134432.5,134455.64,136459.687,1,16,,
trial,html.Screen,4_13_0,2023-11-14T22:34:51.115Z,,,,0,-0.7543493127539531,-0.9452304370934528,,true,hh,1603.6129999970144,response,0.8990371936242809,0.9499999999999997,-0.9499999999999997,0.9654850730344297,0.9499999999999997,-0.9499999999999997,high,high,,ISIC_0029017.JPG,,ISIC_0010308.JPG,167,true,hh,keypress(i),100,false,138063.79999999702,138063.29999999702,136442.922,136438.70000000298,136459.687,138079.625,1,16,14,
sequence,flow.Sequence,4_13,2023-11-14T22:34:51.115Z,,,,,,,,,,1603.6129999970144,completion,,,,,,,high,high,,,,,,true,,,,false,138064.39999999106,138063.29999999702,136442.922,136438.70000000298,136459.687,138079.625,1,16,,
trial,html.Screen,4_14_0,2023-11-14T22:34:53.718Z,,,,0,-0.8778348457214913,-0.8379442136072591,,true,hh,2587.0750000029802,response,0.9307420457704906,0.9499999999999997,-0.9499999999999997,1.0040662939937806,0.9499999999999997,-0.9499999999999997,high,high,,ISIC_0013213.JPG,,ISIC_4508878.JPG,167,true,hh,keypress(i),100,false,140667,140666.70000000298,138062.966,138064.70000000298,138079.625,140684.667,1,16,15,
sequence,flow.Sequence,4_14,2023-11-14T22:34:53.718Z,,,,,,,,,,2587.0750000029802,completion,,,,,,,high,high,,,,,,true,,,,false,140667.5,140666.70000000298,138062.966,138064.59999999404,138079.625,140684.667,1,16,,
trial,html.Screen,4_15_0,2023-11-14T22:34:55.471Z,,,,0,-0.7798182602765784,-0.8643036808931337,,true,hh,1734.632999997033,response,0.9262674596267249,0.9499999999999997,-0.9499999999999997,1.0275767908572495,0.9499999999999997,-0.9499999999999997,high,high,,ISIC_6703027.JPG,,ISIC_5415749.JPG,167,true,hh,keypress(i),100,false,142419.70000000298,142419.29999999702,140667.812,140667.79999999702,140684.667,142437.825,1,16,16,
sequence,flow.Sequence,4_15,2023-11-14T22:34:55.471Z,,,,,,,,,,1734.632999997033,completion,,,,,,,high,high,,,,,,true,,,,false,142420.20000000298,142419.29999999702,140667.812,140667.59999999404,140684.667,142437.825,1,16,,
demonstration_loop,flow.Loop,4,2023-11-14T22:34:55.472Z,,,,,,,,,,40426.884999997026,completion,,,,,,,,,,,,,,true,,,,false,142420.59999999404,142419.29999999702,101975.835,101979.5,101992.415,142437.825,1,16,,
practice_instructions,html.Screen,5,2023-11-14T22:34:58.838Z,,,,,,,,,,3348.8750000029686,response,,,,,,,,,,,,,,,continue,click button,,,145787.29999999702,145786.70000000298,142421.225,142420.79999999702,142437.825,145794.313,,,,
trial,html.Screen,6_0_0,2023-11-14T22:35:02.057Z,,,,1,-0.8541581294181414,0.7637475587255248,,true,hl,3204.486999997025,response,0.7871162143493278,0.9499999999999997,-0.9499999999999997,-0.8429329800778957,0.9499999999999997,-0.9499999999999997,high,low,,ISIC_0014782.JPG,,ISIC_3439215.JPG,26,true,hl,keypress(j),0,false,149006.09999999404,148998.79999999702,145777.734,145787.5,145794.313,149017.493,1,20,1,
sequence,flow.Sequence,6_0,2023-11-14T22:35:02.057Z,,,,,,,,,,3204.486999997025,completion,,,,,,,high,low,,,,,,true,,,,false,149006.29999999702,148998.79999999702,145777.734,145787.39999999106,145794.313,149017.493,1,20,,
trial,html.Screen,6_1_0,2023-11-14T22:35:05.039Z,,,,1,-0.8755959065262388,-1.093284184366194,,true,hh,2970.606999994052,response,1.0470490803707713,0.9499999999999997,-0.9499999999999997,0.9267385554195492,0.9499999999999997,-0.9499999999999997,high,high,,ISIC_8096177.JPG,,ISIC_0058649.JPG,167,true,hh,keypress(i),0,false,151988.5,151988.09999999404,149000.587,149006.29999999702,149017.493,152006.673,1,20,2,
sequence,flow.Sequence,6_1,2023-11-14T22:35:05.040Z,,,,,,,,,,2970.606999994052,completion,,,,,,,high,high,,,,,,true,,,,false,151989.09999999404,151988.09999999404,149000.587,149006.29999999702,149017.493,152006.673,1,20,,
trial,html.Screen,6_2_0,2023-11-14T22:35:07.664Z,,,,1,0.7916641003387539,0.8795523971208432,,true,ll,2605.62699999701,response,-0.7504722488504932,0.9499999999999997,-0.9499999999999997,-1.117673118196769,0.9499999999999997,-0.9499999999999997,low,low,,ISIC_0069635.JPG,,ISIC_0028027.JPG,142,true,ll,keypress(f),0,false,154612.70000000298,154612.29999999702,151973.243,151989.20000000298,152006.673,154628.383,1,20,3,
sequence,flow.Sequence,6_2,2023-11-14T22:35:07.664Z,,,,,,,,,,2605.62699999701,completion,,,,,,,low,low,,,,,,true,,,,false,154613.09999999404,154612.29999999702,151973.243,151989.20000000298,152006.673,154628.383,1,20,,
trial,html.Screen,6_3_0,2023-11-14T22:35:09.656Z,,,,1,0.8655167308525522,-0.9298580423306444,,true,lh,1976.216999994038,response,-0.879102500583965,0.9499999999999997,-0.9499999999999997,1.0933081951979773,0.9499999999999997,-0.9499999999999997,low,high,,ISIC_4603706.JPG,,ISIC_0046223.JPG,28,true,lh,keypress(e),0,false,156604.89999999106,156604.59999999404,154611.66,154613.39999999106,154628.383,156615.65,1,20,4,
sequence,flow.Sequence,6_3,2023-11-14T22:35:09.656Z,,,,,,,,,,1976.216999994038,completion,,,,,,,low,high,,,,,,true,,,,false,156605.39999999106,156604.59999999404,154611.66,154613.29999999702,154628.383,156615.65,1,20,,
trial,html.Screen,6_4_0,2023-11-14T22:35:12.688Z,,,,1,1.0474638406367112,0.821358930964015,,true,ll,3020.6499999970256,response,-0.8529242055711017,0.9499999999999997,-0.9499999999999997,-0.9691635021928308,0.9499999999999997,-0.9499999999999997,low,low,,ISIC_0025277.JPG,,ISIC_8169564.JPG,142,true,ll,keypress(f),0,false,159636.59999999404,159636.29999999702,156598.865,156605.59999999404,156615.65,159654.67,1,20,5,
sequence,flow.Sequence,6_4,2023-11-14T22:35:12.688Z,,,,,,,,,,3020.6499999970256,completion,,,,,,,low,low,,,,,,true,,,,false,159637.09999999404,159636.29999999702,156598.865,156605.59999999404,156615.65,159654.67,1,20,,
trial,html.Screen,6_5_0,2023-11-14T22:35:14.182Z,,,,1,-0.7798182602765784,-0.8643036808931337,,true,hh,1476.4299999940267,response,0.9303292478996148,0.9499999999999997,-0.9499999999999997,1.0396291493634244,0.9499999999999997,-0.9499999999999997,high,high,,ISIC_6703027.JPG,,ISIC_0068580.JPG,167,true,hh,keypress(i),0,false,161131.29999999702,161131.09999999404,159621.468,159637.39999999106,159654.67,161141.124,1,20,6,
sequence,flow.Sequence,6_5,2023-11-14T22:35:14.182Z,,,,,,,,,,1476.4299999940267,completion,,,,,,,high,high,,,,,,true,,,,false,161131.5,161131.09999999404,159621.468,159637.29999999702,159654.67,161141.124,1,20,,
trial,html.Screen,6_6_0,2023-11-14T22:35:16.031Z,,,,1,-0.7836356408583546,1.1197925594706428,,true,hl,1838.9759999940288,response,1.0122398223568725,0.9499999999999997,-0.9499999999999997,-0.7505228537454216,0.9499999999999997,-0.9499999999999997,high,low,,ISIC_0024961.JPG,,ISIC_0033802.JPG,26,true,hl,keypress(j),0,false,162980.5,162980.09999999404,161124.396,161131.5,161141.124,162994.486,1,20,7,
sequence,flow.Sequence,6_6,2023-11-14T22:35:16.032Z,,,,,,,,,,1838.9759999940288,completion,,,,,,,high,low,,,,,,true,,,,false,162981,162980.09999999404,161124.396,161131.5,161141.124,162994.486,1,20,,
trial,html.Screen,6_7_0,2023-11-14T22:35:18.143Z,,,,1,-0.8003549678836777,-0.7922238790731763,,true,hh,2097.613999994035,response,0.8574426517835552,0.9499999999999997,-0.9499999999999997,1.1207578827801843,0.9499999999999997,-0.9499999999999997,high,high,,ISIC_0028780.JPG,,ISIC_0030423.JPG,167,true,hh,keypress(i),0,false,165092.29999999702,165092.09999999404,162978.004,162981.20000000298,162994.486,165098.663,1,20,8,
sequence,flow.Sequence,6_7,2023-11-14T22:35:18.143Z,,,,,,,,,,2097.613999994035,completion,,,,,,,high,high,,,,,,true,,,,false,165092.39999999106,165092.09999999404,162978.004,162981.09999999404,162994.486,165098.663,1,20,,
trial,html.Screen,6_8_0,2023-11-14T22:35:20.024Z,,,,1,1.00170887975541,0.8949188450526304,,true,ll,1873.8369999999995,response,-0.8728834820669534,0.9499999999999997,-0.9499999999999997,-0.9788202580034188,0.9499999999999997,-0.9499999999999997,low,low,,ISIC_0057067.JPG,,ISIC_7519627.JPG,142,true,ll,keypress(f),0,false,166972.89999999106,166972.5,165082.045,165092.5,165098.663,166985.663,1,20,9,
sequence,flow.Sequence,6_8,2023-11-14T22:35:20.024Z,,,,,,,,,,1873.8369999999995,completion,,,,,,,low,low,,,,,,true,,,,false,166973.39999999106,166972.5,165082.045,165092.5,165098.663,166985.663,1,20,,
trial,html.Screen,6_9_0,2023-11-14T22:35:22.648Z,,,,1,-0.8671772321064484,-1.0212529379514277,,true,hh,2610.936999994039,response,0.9090432487160188,0.9499999999999997,-0.9499999999999997,1.033319341099857,0.9499999999999997,-0.9499999999999997,high,high,,ISIC_0004352.JPG,,ISIC_4119029.JPG,167,true,hh,keypress(i),0,false,169597.09999999404,169596.59999999404,166969.143,166973.59999999404,166985.663,169607.399,1,20,10,
sequence,flow.Sequence,6_9,2023-11-14T22:35:22.649Z,,,,,,,,,,2610.936999994039,completion,,,,,,,high,high,,,,,,true,,,,false,169597.5,169596.59999999404,166969.143,166973.59999999404,166985.663,169607.399,1,20,,
trial,html.Screen,6_10_0,2023-11-14T22:35:24.648Z,,,,1,0.7951907368136324,0.8943547811786065,,true,ll,1988.9009999970149,response,-0.9493297220358412,0.9499999999999997,-0.9499999999999997,-0.9126122723623854,0.9499999999999997,-0.9499999999999997,low,low,,ISIC_0071771.JPG,,ISIC_9738202.JPG,142,true,ll,keypress(f),0,false,171596.70000000298,171596.29999999702,169590.649,169597.79999999702,169607.399,171611.518,1,20,11,
sequence,flow.Sequence,6_10,2023-11-14T22:35:24.648Z,,,,,,,,,,1988.9009999970149,completion,,,,,,,low,low,,,,,,true,,,,false,171597.09999999404,171596.29999999702,169590.649,169597.79999999702,169607.399,171611.518,1,20,,
trial,html.Screen,6_11_0,2023-11-14T22:35:27.144Z,,,,1,0.7638895244791114,-0.7780412100090998,,true,lh,2480.8819999910484,response,-0.8487429103619056,0.9499999999999997,-0.9499999999999997,0.9778257804233036,0.9499999999999997,-0.9499999999999997,low,high,,ISIC_0026516.JPG,,ISIC_4554863.JPG,28,true,lh,keypress(e),0,false,174092.70000000298,174092.39999999106,171594.811,171597.39999999106,171611.518,174099.43,1,20,12,
sequence,flow.Sequence,6_11,2023-11-14T22:35:27.144Z,,,,,,,,,,2480.8819999910484,completion,,,,,,,low,high,,,,,,true,,,,false,174093.09999999404,174092.39999999106,171594.811,171597.29999999702,171611.518,174099.43,1,20,,
trial,html.Screen,6_12_0,2023-11-14T22:35:30.224Z,,,,1,-0.9454713230140772,0.9245167441969216,,true,hl,3073.1699999940465,response,0.7809949855371787,0.9499999999999997,-0.9499999999999997,-0.8493861117004308,0.9499999999999997,-0.9499999999999997,high,low,,ISIC_9101055.JPG,,ISIC_7450481.JPG,26,true,hl,keypress(j),0,false,177172.89999999106,177172.59999999404,174082.736,174093.5,174099.43,177188.984,1,20,13,
sequence,flow.Sequence,6_12,2023-11-14T22:35:30.224Z,,,,,,,,,,3073.1699999940465,completion,,,,,,,high,low,,,,,,true,,,,false,177173.5,177172.59999999404,174082.736,174093.39999999106,174099.43,177188.984,1,20,,
trial,html.Screen,6_13_0,2023-11-14T22:35:32.520Z,,,,1,0.7911024675435955,-0.7975977016137676,,true,lh,2279.315999997023,response,-0.9454713230140772,0.9499999999999997,-0.9499999999999997,0.9245167441969216,0.9499999999999997,-0.9499999999999997,low,high,,ISIC_5813642.JPG,,ISIC_9101055.JPG,28,true,lh,keypress(e),0,false,179468.59999999404,179468.29999999702,177172.355,177173.70000000298,177188.984,179476.748,1,20,14,
sequence,flow.Sequence,6_13,2023-11-14T22:35:32.520Z,,,,,,,,,,2279.315999997023,completion,,,,,,,low,high,,,,,,true,,,,false,179469.09999999404,179468.29999999702,177172.355,177173.59999999404,177188.984,179476.748,1,20,,
trial,html.Screen,6_14_0,2023-11-14T22:35:34.992Z,,,,1,-0.991282840649944,0.9397921099839784,,true,hl,2463.452000002988,response,0.7870237732709365,0.9499999999999997,-0.9499999999999997,-0.9172955251119376,0.9499999999999997,-0.9499999999999997,high,low,,ISIC_0000463.JPG,,ISIC_0057716.JPG,26,true,hl,keypress(j),0,false,181940.5,181940.20000000298,179459.904,179469.39999999106,179476.748,181948.062,1,20,15,
sequence,flow.Sequence,6_14,2023-11-14T22:35:34.992Z,,,,,,,,,,2463.452000002988,completion,,,,,,,high,low,,,,,,true,,,,false,181941.09999999404,181940.20000000298,179459.904,179469.29999999702,179476.748,181948.062,1,20,,
trial,html.Screen,6_15_0,2023-11-14T22:35:37.306Z,,,,1,-1.0955230579285264,-0.8842300616754196,,true,hh,2304.037999994034,response,1.0522062210008176,0.9499999999999997,-0.9499999999999997,0.7537341061655476,0.9499999999999997,-0.9499999999999997,high,high,,ISIC_4148086.JPG,,ISIC_0013588.JPG,167,true,hh,keypress(i),0,false,184252.39999999106,184252.09999999404,181931.532,181941.20000000298,181948.062,184269.476,1,20,16,
sequence,flow.Sequence,6_15,2023-11-14T22:35:37.307Z,,,,,,,,,,2304.037999994034,completion,,,,,,,high,high,,,,,,true,,,,false,184252.89999999106,184252.09999999404,181931.532,181941.20000000298,181948.062,184269.476,1,20,,
trial,html.Screen,6_16_0,2023-11-14T22:35:39.234Z,,,,1,0.7833710010171356,-0.9315588090336896,,true,lh,1910.8239999970247,response,-0.7836356408583546,0.9499999999999997,-0.9499999999999997,1.1197925594706428,0.9499999999999997,-0.9499999999999997,low,high,,ISIC_3826102.JPG,,ISIC_0024961.JPG,28,true,lh,keypress(e),0,false,186180.59999999404,186180.29999999702,184252.623,184253.20000000298,184269.476,186189.724,1,20,17,
sequence,flow.Sequence,6_16,2023-11-14T22:35:39.235Z,,,,,,,,,,1910.8239999970247,completion,,,,,,,low,high,,,,,,true,,,,false,186181.09999999404,186180.29999999702,184252.623,184253.09999999404,184269.476,186189.724,1,20,,
trial,html.Screen,6_17_0,2023-11-14T22:35:41.569Z,,,,1,-0.8487429103619056,0.9778257804233036,,true,hl,2325.476000002993,response,1.0022829373011404,0.9499999999999997,-0.9499999999999997,-0.8311726972863814,0.9499999999999997,-0.9499999999999997,high,low,,ISIC_4554863.JPG,,ISIC_0033287.JPG,26,true,hl,keypress(j),0,false,188515.29999999702,188515.20000000298,186173.176,186181.29999999702,186189.724,188527.749,1,20,18,
sequence,flow.Sequence,6_17,2023-11-14T22:35:41.569Z,,,,,,,,,,2325.476000002993,completion,,,,,,,high,low,,,,,,true,,,,false,188515.5,188515.20000000298,186173.176,186181.29999999702,186189.724,188527.749,1,20,,
trial,html.Screen,6_18_0,2023-11-14T22:35:43.410Z,,,,1,0.9991183219041097,1.0098382533872188,,true,ll,1828.3509999940288,response,-1.1217390688497193,0.9499999999999997,-0.9499999999999997,-0.8482399573167824,0.9499999999999997,-0.9499999999999997,low,low,,ISIC_0010415.JPG,,ISIC_0026344.JPG,142,true,ll,keypress(f),0,false,190356.5,190356.09999999404,188510.841,188515.5,188527.749,190364.501,1,20,19,
sequence,flow.Sequence,6_18,2023-11-14T22:35:43.411Z,,,,,,,,,,1828.3509999940288,completion,,,,,,,low,low,,,,,,true,,,,false,190357,190356.09999999404,188510.841,188515.5,188527.749,190364.501,1,20,,
trial,html.Screen,6_19_0,2023-11-14T22:35:45.258Z,,,,1,0.9873794329144926,-0.7991077882008257,,true,lh,1839.89899999107,response,-0.7933921755497018,0.9499999999999997,-0.9499999999999997,0.7692916291112835,0.9499999999999997,-0.9499999999999997,low,high,,ISIC_0013498.JPG,,ISIC_7844825.JPG,28,true,lh,keypress(e),0,false,192204.70000000298,192204.39999999106,190347.967,190357.20000000298,190364.501,192218.125,1,20,20,
sequence,flow.Sequence,6_19,2023-11-14T22:35:45.259Z,,,,,,,,,,1839.89899999107,completion,,,,,,,low,high,,,,,,true,,,,false,192205.29999999702,192204.39999999106,190347.967,190357.09999999404,190364.501,192218.125,1,20,,
practice_loop,flow.Loop,6,2023-11-14T22:35:45.259Z,,,,,,,,,,46410.086999991065,completion,,,,,,,,,,,,,,true,,,,false,192205.59999999404,192204.39999999106,145777.734,145787.39999999106,145794.313,192218.125,1,20,,
stair_instructions,html.Screen,7,2023-11-14T22:35:47.601Z,,,,,,,,,,2328.2749999910593,response,,,,,,,,,,,,,,,continue,click button,,,194547,194546.39999999106,192201.555,192205.79999999702,192218.125,194555.95,,,,
trial,html.Screen,8_0_0,2023-11-14T22:35:55.801Z,,,,2,-0.0546386976779619,0.0448724759283131,,false,hl,8190.849999997008,response,0.796241477082623,0.9499999999999997,-0.9499999999999997,-0.9017449335975743,0.9499999999999997,-0.9499999999999997,high,low,,ISIC_6722934.JPG,,ISIC_8588033.JPG,26,false,hh,keypress(i),0,true,202746.89999999106,202746.79999999702,194539.435,194547.09999999404,194555.95,202772.145,1,40,1,
sequence,flow.Sequence,8_0,2023-11-14T22:35:55.801Z,,,,,,,,,,8190.849999997008,completion,,,,,,,high,low,,,,,,false,,,,true,202747,202746.79999999702,194539.435,194547.09999999404,194555.95,202772.145,1,40,,
trial,html.Screen,8_1_0,2023-11-14T22:36:00.786Z,,,,2,-0.0691769743257167,0.0638501824668941,,false,ll,4960.25499999107,response,-0.8626849314423831,0.9499999999999997,-0.8999999999999997,-0.8919402924145458,0.8999999999999997,-0.9499999999999997,low,low,,ISIC_0031914.JPG,,ISIC_0026371.JPG,157,false,hl,keypress(j),0,true,207732.59999999404,207732.39999999106,202755.466,202747.09999999404,202772.145,207748.443,1,40,2,
sequence,flow.Sequence,8_1,2023-11-14T22:36:00.787Z,,,,,,,,,,4960.25499999107,completion,,,,,,,low,low,,,,,,false,,,,true,207733.09999999404,207732.39999999106,202755.466,202747.09999999404,202772.145,207748.443,1,40,,
trial,html.Screen,8_2_0,2023-11-14T22:36:06.923Z,,,,2,0.0116094682222121,-0.0258434522530318,,false,lh,6120.557000000001,response,-0.8860551570327019,0.8999999999999997,-0.8999999999999997,0.8067116931297591,0.8499999999999996,-0.9499999999999997,low,high,,ISIC_9239632.JPG,,ISIC_1457687.JPG,47,false,ll,keypress(f),0,true,213869.29999999702,213869,207731.614,207733.39999999106,207748.443,213876.864,1,40,3,
sequence,flow.Sequence,8_2,2023-11-14T22:36:06.923Z,,,,,,,,,,6120.557000000001,completion,,,,,,,low,high,,,,,,false,,,,true,213869.79999999702,213869,207731.614,207733.29999999702,207748.443,213876.864,1,40,,
trial,html.Screen,8_3_0,2023-11-14T22:36:10.897Z,,,,2,0.0070725527271049,0.0049995141077508,,true,ll,3966.4359999970184,response,-1.0969203109789527,0.8499999999999996,-0.8999999999999997,-0.8758990386796874,0.8499999999999996,-0.8999999999999997,low,low,,ISIC_6124481.JPG,,ISIC_2800198.JPG,175,false,ll,keypress(f),0,true,217843.5,217843.29999999702,213860.228,213870.09999999404,213876.864,217851.351,1,40,4,
sequence,flow.Sequence,8_3,2023-11-14T22:36:10.897Z,,,,,,,,,,3966.4359999970184,completion,,,,,,,low,low,,,,,,false,,,,true,217843.5,217843.29999999702,213860.228,213870,213876.864,217851.351,1,40,,
trial,html.Screen,8_4_0,2023-11-14T22:36:14.137Z,,,,2,0.039728379742806,-0.0228701131373768,,true,hh,3231.649000000005,response,0.838482148534353,0.7999999999999996,-0.8914877340058271,0.8179691667073062,0.7999999999999996,-0.7839196655471166,high,high,,ISIC_0054073.JPG,,ISIC_0055079.JPG,239,false,hh,keypress(i),0,true,221083.09999999404,221083,217834.788,217843.59999999404,217851.351,221090.927,1,40,5,
sequence,flow.Sequence,8_4,2023-11-14T22:36:14.137Z,,,,,,,,,,3231.649000000005,completion,,,,,,,high,high,,,,,,false,,,,true,221083.09999999404,221083,217834.788,217843.59999999404,217851.351,221090.927,1,40,,
trial,html.Screen,8_5_0,2023-11-14T22:36:22.147Z,,,,2,,-0.0264544974620926,,true,lh,8002.073000000004,response,-0.9696118525781644,0.717361812808488,-0.8414877340058271,0.9244148283103414,0.7499999999999996,-0.7339196655471165,low,high,,ISIC_0056991.JPG,,ISIC_7927525.JPG,69,false,lh,keypress(e),0,true,229093.29999999702,229093,221074.352,221083.20000000298,221090.927,229106.726,1,40,6,
sequence,flow.Sequence,8_5,2023-11-14T22:36:22.148Z,,,,,,,,,,8002.073000000004,completion,,,,,,,low,high,,,,,,false,,,,true,229093.89999999106,229093,221074.352,221083.20000000298,221090.927,229106.726,1,40,,
trial,html.Screen,8_6_0,2023-11-14T22:36:24.874Z,,,,2,-0.0735635316240061,0.0537805418091709,,false,hl,2713.673999991064,response,0.5161138378823259,0.6673618128084879,-0.7914877340058271,-0.6831767606243289,0.7711919975088237,-0.6839196655471165,high,low,,ISIC_1761799.JPG,,ISIC_4966865.JPG,119,false,hh,keypress(i),0,true,231820.70000000298,231820.39999999106,229089.876,229094.20000000298,229106.726,231828.535,1,40,7,
sequence,flow.Sequence,8_6,2023-11-14T22:36:24.875Z,,,,,,,,,,2713.673999991064,completion,,,,,,,high,low,,,,,,false,,,,true,231821.20000000298,231820.39999999106,229089.876,229094.09999999404,229106.726,231828.535,1,40,,
trial,html.Screen,8_7_0,2023-11-14T22:36:29.179Z,,,,2,0.0593670819812057,-0.0718390543903236,,false,lh,4295.9649999999965,response,-0.8575080546336467,0.6673618128084879,-0.741487734005827,0.5510190807933127,0.7211919975088237,-0.6839196655471165,low,high,,ISIC_0062367.JPG,,ISIC_0033549.JPG,87,false,ll,keypress(f),0,true,236124.79999999702,236124.5,231811.996,231821.5,231828.535,236137.081,1,40,8,
sequence,flow.Sequence,8_7,2023-11-14T22:36:29.179Z,,,,,,,,,,4295.9649999999965,completion,,,,,,,low,high,,,,,,false,,,,true,236125.39999999106,236124.5,231811.996,231821.29999999702,231828.535,236137.081,1,40,,
trial,html.Screen,8_8_0,2023-11-14T22:36:37.702Z,,,,2,-0.0516762988734011,0.0130195499281172,,true,hh,8507.818999991054,response,0.6307113601677471,0.6173618128084879,-0.741487734005827,0.8351262413411394,0.7211919975088237,-0.6339196655471164,high,high,,ISIC_9978498.JPG,,ISIC_0029363.JPG,309,false,hh,keypress(i),0,true,244645.29999999702,244644.89999999106,236120.341,236125.59999999404,236137.081,244653.447,1,40,9,
sequence,flow.Sequence,8_8,2023-11-14T22:36:37.703Z,,,,,,,,,,8507.818999991054,completion,,,,,,,high,high,,,,,,false,,,,true,244645.79999999702,244644.89999999106,236120.341,236125.5,236137.081,244653.447,1,40,,
trial,html.Screen,8_9_0,2023-11-14T22:36:43.118Z,,,,2,-0.0134764727102299,-0.0033499036460912,,false,lh,5407.152999994054,response,-0.8146088897683552,0.47341259902503646,-0.691487734005827,0.5340499057158709,0.6711919975088236,-0.5839196655471164,low,high,,ISIC_0009998.JPG,,ISIC_0070814.JPG,112,false,ll,keypress(f),0,true,250060.89999999106,250060.59999999404,244636.801,244646,244653.447,250064.017,1,40,10,
sequence,flow.Sequence,8_9,2023-11-14T22:36:43.118Z,,,,,,,,,,5407.152999994054,completion,,,,,,,low,high,,,,,,false,,,,true,250061.39999999106,250060.59999999404,244636.801,244646,244653.447,250064.017,1,40,,
trial,html.Screen,8_10_0,2023-11-14T22:36:52.838Z,,,,2,-0.0691769743257167,0.0638501824668941,,false,hl,9716.782999997027,response,0.5149384868945606,0.47341259902503646,-0.691487734005827,-0.3671409261443313,0.6711919975088236,-0.5339196655471163,high,low,,ISIC_0031914.JPG,,ISIC_0032425.JPG,258,false,hh,keypress(i),0,true,259781.09999999404,259780.79999999702,250047.387,250061.70000000298,250064.017,259800.123,1,40,11,
sequence,flow.Sequence,8_10,2023-11-14T22:36:52.839Z,,,,,,,,,,9716.782999997027,completion,,,,,,,high,low,,,,,,false,,,,true,259781.70000000298,259780.79999999702,250047.387,250061.59999999404,250064.017,259800.123,1,40,,
trial,html.Screen,8_11_0,2023-11-14T22:36:58.662Z,,,,2,-0.0691769743257167,0.0638501824668941,,true,ll,5804.676999997027,response,-0.4518124764048459,0.47341259902503646,-0.6414877340058269,-0.7035447239153747,0.6211919975088236,-0.5339196655471163,low,low,,ISIC_0031914.JPG,,ISIC_4553633.JPG,425,false,ll,keypress(f),0,true,265605.09999999404,265604.799999997,259766.159,259781.89999999106,259800.123,265610.906,1,40,12,
sequence,flow.Sequence,8_11,2023-11-14T22:36:58.663Z,,,,,,,,,,5804.676999997027,completion,,,,,,,low,low,,,,,,false,,,,true,265605.5,265604.799999997,259766.159,259781.79999999702,259800.123,265610.906,1,40,,
trial,html.Screen,8_12_0,2023-11-14T22:37:03.951Z,,,,2,-0.0188047466661863,0.0288346930436979,,false,hh,5282.693999994022,response,0.4917058542172988,0.47341259902503646,-0.5332106830866005,0.4078101120503515,0.5711919975088235,-0.48391966554711635,high,high,,ISIC_0014157.JPG,,ISIC_8692218.JPG,386,false,ll,keypress(f),0,true,270894,270893.59999999404,265594.367,265605.799999997,265610.906,270904.639,1,40,13,
sequence,flow.Sequence,8_12,2023-11-14T22:37:03.951Z,,,,,,,,,,5282.693999994022,completion,,,,,,,high,high,,,,,,false,,,,true,270894.39999999106,270893.59999999404,265594.367,265605.700000003,265610.906,270904.639,1,40,,
trial,html.Screen,8_13_0,2023-11-14T22:37:12.382Z,,,,2,-0.0087912446525382,-0.0619041869188676,,false,lh,8419.860999999975,response,-0.4445101907867155,0.47341259902503646,-0.4832106830866005,0.6256922378239274,0.5711919975088235,-0.48391966554711635,low,high,,ISIC_7185913.JPG,,ISIC_0033174.JPG,203,false,ll,keypress(f),0,true,279324.799999997,279324.5,270887.79,270894.59999999404,270904.639,279337.617,1,40,14,
sequence,flow.Sequence,8_13,2023-11-14T22:37:12.382Z,,,,,,,,,,8419.860999999975,completion,,,,,,,low,high,,,,,,false,,,,true,279325.299999997,279324.5,270887.79,270894.5,270904.639,279337.617,1,40,,
trial,html.Screen,8_14_0,2023-11-14T22:37:17.189Z,,,,2,-0.0292059717970335,-0.0718256867525069,,false,hl,4793.8829999999725,response,0.4585363299530463,0.47341259902503646,-0.4832106830866005,-0.3556020857992667,0.5711919975088235,-0.48391966554711635,high,low,,ISIC_1114966.JPG,,ISIC_5170766.JPG,288,false,hh,keypress(i),0,true,284131.59999999404,284131.5,279321,279325.5,279337.617,284147.242,1,40,15,
sequence,flow.Sequence,8_14,2023-11-14T22:37:17.189Z,,,,,,,,,,4793.8829999999725,completion,,,,,,,high,low,,,,,,false,,,,true,284131.799999997,284131.5,279321,279325.5,279337.617,284147.242,1,40,,
trial,html.Screen,8_15_0,2023-11-14T22:37:27.142Z,,,,2,-0.0644357632656846,-0.0501167370292348,,true,hl,9937.357999994012,response,0.6483295437182732,0.47341259902503646,-0.4832106830866005,-0.3669438672810321,0.5211919975088235,-0.48391966554711635,high,low,,ISIC_5207050.JPG,,ISIC_0010850.JPG,288,false,hl,keypress(j),0,true,294084.799999997,294084.59999999404,284130.467,284131.799999997,284147.242,294099.923,1,40,16,
sequence,flow.Sequence,8_15,2023-11-14T22:37:27.142Z,,,,,,,,,,9937.357999994012,completion,,,,,,,high,low,,,,,,false,,,,true,294085.299999997,294084.59999999404,284130.467,284131.799999997,284147.242,294099.923,1,40,,
trial,html.Screen,8_16_0,2023-11-14T22:37:29.892Z,,,,2,0.0640778296621707,0.0387686079545705,,true,hh,2734.9769999910495,response,0.2640544901234584,0.4534329368356597,-0.4832106830866005,0.2835116387786398,0.4711919975088235,-0.48391966554711635,high,high,,ISIC_0010124.JPG,,ISIC_9547089.JPG,414,false,hh,keypress(i),0,true,296835.09999999404,296834.89999999106,294083.139,294085.5,294099.923,296838.37,1,40,17,
sequence,flow.Sequence,8_16,2023-11-14T22:37:29.892Z,,,,,,,,,,2734.9769999910495,completion,,,,,,,high,high,,,,,,false,,,,true,296835.200000003,296834.89999999106,294083.139,294085.5,294099.923,296838.37,1,40,,
trial,html.Screen,8_17_0,2023-11-14T22:37:35.984Z,,,,2,-0.0688801591312476,-0.0185462113313342,,true,hl,6086.330000002985,response,0.4741156682703121,0.4534329368356597,-0.4832106830866005,-0.2982843152273911,0.4711919975088235,-0.48391966554711635,high,low,,ISIC_0067723.JPG,,ISIC_8380904.JPG,306,false,hl,keypress(j),0,true,302925,302924.700000003,296821.881,296835.200000003,296838.37,302933.542,1,40,18,
sequence,flow.Sequence,8_17,2023-11-14T22:37:35.985Z,,,,,,,,,,6086.330000002985,completion,,,,,,,high,low,,,,,,false,,,,true,302925.39999999106,302924.700000003,296821.881,296835.200000003,296838.37,302933.542,1,40,,
trial,html.Screen,8_18_0,2023-11-14T22:37:40.023Z,,,,2,-0.0113873532168551,-0.0054999201556291,,false,lh,4029.8579999910435,response,-0.6680124261058262,0.40343293683565973,-0.4832106830866005,0.2919411562406507,0.4711919975088235,-0.43391966554711636,low,high,,ISIC_8812621.JPG,,ISIC_9913573.JPG,252,false,ll,keypress(f),0,true,306963.59999999404,306963.39999999106,302917.08,302925.700000003,302933.542,306974.771,1,40,19,
sequence,flow.Sequence,8_18,2023-11-14T22:37:40.023Z,,,,,,,,,,4029.8579999910435,completion,,,,,,,low,high,,,,,,false,,,,true,306963.700000003,306963.39999999106,302917.08,302925.59999999404,302933.542,306974.771,1,40,,
trial,html.Screen,8_19_0,2023-11-14T22:37:42.504Z,,,,2,-0.0113873532168551,-0.0054999201556291,,true,ll,2469.8289999940316,response,-0.4298192926075084,0.40343293683565973,-0.4832106830866005,-0.4137275564006437,0.4711919975088235,-0.43391966554711636,low,low,,ISIC_8812621.JPG,,ISIC_0071735.JPG,507,false,ll,keypress(f),0,true,309444.89999999106,309444.59999999404,306958.219,306963.799999997,306974.771,309463.191,1,40,20,
sequence,flow.Sequence,8_19,2023-11-14T22:37:42.505Z,,,,,,,,,,2469.8289999940316,completion,,,,,,,low,low,,,,,,false,,,,true,309445.39999999106,309444.59999999404,306958.219,306963.799999997,306974.771,309463.191,1,40,,
trial,html.Screen,8_20_0,2023-11-14T22:37:46.823Z,,,,2,0.0111354529246037,-0.0585810480909377,,false,hh,4300.608999997028,response,0.5258982733724044,0.40343293683565973,-0.4989158593566673,0.3286173860112056,0.4711919975088235,-0.43391966554711636,high,high,,ISIC_7858034.JPG,,ISIC_0056984.JPG,410,false,hl,keypress(j),0,true,313763.89999999106,313763.799999997,309429.755,309445.59999999404,309463.191,313771.396,1,40,21,
sequence,flow.Sequence,8_20,2023-11-14T22:37:46.824Z,,,,,,,,,,4300.608999997028,completion,,,,,,,high,high,,,,,,false,,,,true,313764.299999997,313763.799999997,309429.755,309445.59999999404,309463.191,313771.396,1,40,,
trial,html.Screen,8_21_0,2023-11-14T22:37:49.688Z,,,,2,-0.0348234368746005,0.0236866303880924,,true,hh,2857.3040000029723,response,0.4904062682624132,0.4534329368356597,-0.4989158593566673,0.6509219939365475,0.4711919975088235,-0.43391966554711636,high,high,,ISIC_0011099.JPG,,ISIC_7327423.JPG,414,false,hh,keypress(i),0,true,316628.89999999106,316628.700000003,313754.609,313764.39999999106,313771.396,316643.755,1,40,22,
sequence,flow.Sequence,8_21,2023-11-14T22:37:49.689Z,,,,,,,,,,2857.3040000029723,completion,,,,,,,high,high,,,,,,false,,,,true,316629.39999999106,316628.700000003,313754.609,313764.39999999106,313771.396,316643.755,1,40,,
trial,html.Screen,8_22_0,2023-11-14T22:37:54.064Z,,,,2,-0.0367218428225813,-0.0700576547090477,,true,hh,4361.144999991055,response,0.524515057582433,0.4581522708174088,-0.4989158593566673,0.5337441555444427,0.4711919975088235,-0.43391966554711636,high,high,,ISIC_7212271.JPG,,ISIC_0011114.JPG,411,false,hh,keypress(i),0,true,321005.200000003,321004.89999999106,316627.116,316629.700000003,316643.755,321018.912,1,40,23,
sequence,flow.Sequence,8_22,2023-11-14T22:37:54.065Z,,,,,,,,,,4361.144999991055,completion,,,,,,,high,high,,,,,,false,,,,true,321005.700000003,321004.89999999106,316627.116,316629.700000003,316643.755,321018.912,1,40,,
trial,html.Screen,8_23_0,2023-11-14T22:37:59.056Z,,,,2,-0.0245376145053177,0.0436993426328401,,false,lh,4977.788000002969,response,-0.404290627251845,0.4581522708174088,-0.4989158593566673,0.6694866837495268,0.4923330747404951,-0.43391966554711636,low,high,,ISIC_0056444.JPG,,ISIC_0027356.JPG,243,false,hl,keypress(j),0,true,325997,325996.700000003,321002.236,321005.89999999106,321018.912,326011.889,1,40,24,
sequence,flow.Sequence,8_23,2023-11-14T22:37:59.057Z,,,,,,,,,,4977.788000002969,completion,,,,,,,low,high,,,,,,false,,,,true,325997.5,325996.700000003,321002.236,321005.89999999106,321018.912,326011.889,1,40,,
trial,html.Screen,8_24_0,2023-11-14T22:38:05.904Z,,,,2,0.0456515796420274,-0.0273567130070961,,false,ll,6832.710999994015,response,-0.3762617816319452,0.4581522708174088,-0.4989158593566673,-0.5104393612999952,0.4923330747404951,-0.43391966554711636,low,low,,ISIC_0068610.JPG,,ISIC_0067008.JPG,494,false,hh,keypress(i),0,true,332844.799999997,332844.59999999404,325995.299,325997.700000003,326011.889,332858.569,1,40,25,
sequence,flow.Sequence,8_24,2023-11-14T22:38:05.905Z,,,,,,,,,,6832.710999994015,completion,,,,,,,low,low,,,,,,false,,,,true,332845.39999999106,332844.59999999404,325995.299,325997.700000003,326011.889,332858.569,1,40,,
trial,html.Screen,8_25_0,2023-11-14T22:38:15.672Z,,,,2,-0.0367218428225813,-0.0700576547090477,,false,hl,9753.830999991042,response,0.3028722997704,0.4581522708174088,-0.4989158593566673,-0.4316244208901549,0.4923330747404951,-0.48391966554711635,high,low,,ISIC_7212271.JPG,,ISIC_7822725.JPG,303,false,hh,keypress(i),0,true,342612.700000003,342612.39999999106,332841.825,332845.5,332858.569,342627.631,1,40,26,
sequence,flow.Sequence,8_25,2023-11-14T22:38:15.672Z,,,,,,,,,,9753.830999991042,completion,,,,,,,high,low,,,,,,false,,,,true,342613.200000003,342612.39999999106,332841.825,332845.5,332858.569,342627.631,1,40,,
trial,html.Screen,8_26_0,2023-11-14T22:38:18.697Z,,,,2,-0.0516762988734011,0.0130195499281172,,true,ll,3009.369000000006,response,-0.4099598584619202,0.4581522708174088,-0.4989158593566673,-0.4809555343897574,0.4923330747404951,-0.48391966554711635,low,low,,ISIC_9978498.JPG,,ISIC_3966064.JPG,480,false,ll,keypress(f),0,true,345637.299999997,345637,342610.918,342613.39999999106,342627.631,345650.118,1,40,27,
sequence,flow.Sequence,8_26,2023-11-14T22:38:18.697Z,,,,,,,,,,3009.369000000006,completion,,,,,,,low,low,,,,,,false,,,,true,345637.799999997,345637,342610.918,342613.299999997,342627.631,345650.118,1,40,,
trial,html.Screen,8_27_0,2023-11-14T22:38:21.960Z,,,,2,0.0107854985447517,0.0478010417136109,,true,hh,3250.5820000029635,response,0.5354770690673951,0.4581522708174088,-0.4989158593566673,0.6468172406502514,0.4923330747404951,-0.48391966554711635,high,high,,ISIC_0010500.JPG,,ISIC_0010319.JPG,408,false,hh,keypress(i),0,true,348900.89999999106,348900.700000003,345633.54,345638,345650.118,348906.372,1,40,28,
sequence,flow.Sequence,8_27,2023-11-14T22:38:21.961Z,,,,,,,,,,3250.5820000029635,completion,,,,,,,high,high,,,,,,false,,,,true,348901.39999999106,348900.700000003,345633.54,345638,345650.118,348906.372,1,40,,
trial,html.Screen,8_28_0,2023-11-14T22:38:25.224Z,,,,2,-0.0087912446525382,-0.0619041869188676,,false,lh,3258.2279999940656,response,-0.5216509933923714,0.4081522708174088,-0.4989158593566673,0.4402525080653546,0.4923330747404951,-0.48391966554711635,low,high,,ISIC_7185913.JPG,,ISIC_0026150.JPG,243,false,hl,keypress(j),0,true,352164.89999999106,352164.59999999404,348889.886,348901.59999999404,348906.372,352179.656,1,40,29,
sequence,flow.Sequence,8_28,2023-11-14T22:38:25.225Z,,,,,,,,,,3258.2279999940656,completion,,,,,,,low,high,,,,,,false,,,,true,352165.39999999106,352164.59999999404,348889.886,348901.59999999404,348906.372,352179.656,1,40,,
trial,html.Screen,8_29_0,2023-11-14T22:38:28.480Z,,,,2,-0.0292059717970335,-0.0718256867525069,,false,ll,3240.8439999999828,response,-0.3753938790171454,0.4081522708174088,-0.4989158593566673,-0.5491360025700199,0.4923330747404951,-0.48391966554711635,low,low,,ISIC_1114966.JPG,,ISIC_0046450.JPG,480,false,hl,keypress(j),0,true,355420.799999997,355420.5,352162.807,352165.5,352179.656,355435.984,1,40,30,
sequence,flow.Sequence,8_29,2023-11-14T22:38:28.481Z,,,,,,,,,,3240.8439999999828,completion,,,,,,,low,low,,,,,,false,,,,true,355421.299999997,355420.5,352162.807,352165.5,352179.656,355435.984,1,40,,
trial,html.Screen,8_30_0,2023-11-14T22:38:32.208Z,,,,2,0.0057914759495055,0.0074667911845194,,false,lh,3712.9159999910626,response,-0.6861622325603302,0.4081522708174088,-0.4989158593566673,0.3514440089680511,0.4923330747404951,-0.48391966554711635,low,high,,ISIC_0058723.JPG,,ISIC_0259179.JPG,243,false,ll,keypress(f),0,true,359149.200000003,359148.89999999106,355419.245,355421.5,355435.984,359159.815,1,40,31,
sequence,flow.Sequence,8_30,2023-11-14T22:38:32.209Z,,,,,,,,,,3712.9159999910626,completion,,,,,,,low,high,,,,,,false,,,,true,359149.59999999404,359148.89999999106,355419.245,355421.5,355435.984,359159.815,1,40,,
trial,html.Screen,8_31_0,2023-11-14T22:38:38.642Z,,,,2,-0.0051189696037511,0.0396625911332438,,true,ll,6420.684999999998,response,-0.3812810769538953,0.4081522708174088,-0.4989158593566673,-0.4144757228087247,0.4923330747404951,-0.48391966554711635,low,low,,ISIC_9742891.JPG,,ISIC_0644590.JPG,480,false,ll,keypress(f),0,true,365580.799999997,365580.5,359142.969,359149.89999999106,359159.815,365588.838,1,40,32,
sequence,flow.Sequence,8_31,2023-11-14T22:38:38.643Z,,,,,,,,,,6420.684999999998,completion,,,,,,,low,low,,,,,,false,,,,true,365581.200000003,365580.5,359142.969,359149.799999997,359159.815,365588.838,1,40,,
trial,html.Screen,8_32_0,2023-11-14T22:38:45.858Z,,,,2,0.007397293189458,0.0174716772037504,,false,ll,7207.961999997031,response,-0.4298192926075084,0.4081522708174088,-0.48372165475711276,-0.4137275564006437,0.4923330747404951,-0.43391966554711636,low,low,,ISIC_0056226.JPG,,ISIC_0071735.JPG,507,false,hl,keypress(j),0,true,372797.09999999404,372796.799999997,365572.096,365581.59999999404,365588.838,372802.883,1,40,33,
sequence,flow.Sequence,8_32,2023-11-14T22:38:45.859Z,,,,,,,,,,7207.961999997031,completion,,,,,,,low,low,,,,,,false,,,,true,372797.59999999404,372796.799999997,365572.096,365581.5,365588.838,372802.883,1,40,,
trial,html.Screen,8_33_0,2023-11-14T22:38:48.674Z,,,,2,-0.000047919190197942736,-0.0462652940855003,,false,hl,2809.8170000030077,response,0.4621230965266978,0.4081522708174088,-0.48372165475711276,-0.2872128514625031,0.4923330747404951,-0.48391966554711635,high,low,,ISIC_0011507.JPG,,ISIC_5039396.JPG,323,false,hh,keypress(i),0,true,375613,375612.700000003,372786.339,372797.799999997,372802.883,375625.293,1,40,34,
sequence,flow.Sequence,8_33,2023-11-14T22:38:48.675Z,,,,,,,,,,2809.8170000030077,completion,,,,,,,high,low,,,,,,false,,,,true,375613.39999999106,375612.700000003,372786.339,372797.700000003,372802.883,375625.293,1,40,,
trial,html.Screen,8_34_0,2023-11-14T22:38:52.794Z,,,,2,-0.013431314305098,0.0140597582944232,,false,hl,4107.306999994034,response,0.3920415264229076,0.4581522708174088,-0.48372165475711276,-0.509078554188922,0.4923330747404951,-0.48391966554711635,high,low,,ISIC_0069617.JPG,,ISIC_6385074.JPG,303,false,hh,keypress(i),0,true,379732.799999997,379732.59999999404,375608.504,375613.700000003,375625.293,379749.894,1,40,35,
sequence,flow.Sequence,8_34,2023-11-14T22:38:52.795Z,,,,,,,,,,4107.306999994034,completion,,,,,,,high,low,,,,,,false,,,,true,379733.39999999106,379732.59999999404,375608.504,375613.700000003,375625.293,379749.894,1,40,,
trial,html.Screen,8_35_0,2023-11-14T22:38:55.138Z,,,,2,0.0389988030702649,0.0143212271490256,,true,hh,2326.606000000029,response,0.5354770690673951,0.4581522708174088,-0.48372165475711276,0.6468172406502514,0.4923330747404951,-0.48391966554711635,high,high,,ISIC_0064669.JPG,,ISIC_0010319.JPG,408,false,hh,keypress(i),0,true,382076.89999999106,382076.5,379733.224,379733.59999999404,379749.894,382087.799,1,40,36,
sequence,flow.Sequence,8_35,2023-11-14T22:38:55.139Z,,,,,,,,,,2326.606000000029,completion,,,,,,,high,high,,,,,,false,,,,true,382077.299999997,382076.5,379733.224,379733.5,379749.894,382087.799,1,40,,
trial,html.Screen,8_36_0,2023-11-14T22:38:59.339Z,,,,2,-0.040191644178716,0.0622582668671422,,false,lh,4189.10099999106,response,-0.3189568294835654,0.4081522708174088,-0.48372165475711276,0.4021677417920157,0.4923330747404951,-0.48391966554711635,low,high,,ISIC_6207688.JPG,,ISIC_0217267.JPG,243,false,hh,keypress(i),0,true,386277.200000003,386276.89999999106,382071.045,382077.59999999404,382087.799,386296.265,1,40,37,
sequence,flow.Sequence,8_36,2023-11-14T22:38:59.339Z,,,,,,,,,,4189.10099999106,completion,,,,,,,low,high,,,,,,false,,,,true,386277.700000003,386276.89999999106,382071.045,382077.5,382087.799,386296.265,1,40,,
trial,html.Screen,8_37_0,2023-11-14T22:39:04.554Z,,,,2,-0.0102460616775615,0.0309670599545429,,true,hh,5196.134999991045,response,0.2440188532965275,0.4081522708174088,-0.48372165475711276,0.3653776171867179,0.4923330747404951,-0.48391966554711635,high,high,,ISIC_0072041.JPG,,ISIC_0046828.JPG,406,false,hh,keypress(i),0,true,391492.700000003,391492.39999999106,386262.468,386277.89999999106,386296.265,391506.204,1,40,38,
sequence,flow.Sequence,8_37,2023-11-14T22:39:04.555Z,,,,,,,,,,5196.134999991045,completion,,,,,,,high,high,,,,,,false,,,,true,391493.09999999404,391492.39999999106,386262.468,386277.799999997,386296.265,391506.204,1,40,,
trial,html.Screen,8_38_0,2023-11-14T22:39:13.650Z,,,,2,0.0324770283903853,0.0249968632204382,,false,ll,9082.496000002953,response,-0.3081705393570735,0.4081522708174088,-0.48372165475711276,-0.4768380793089988,0.4423330747404951,-0.48391966554711635,low,low,,ISIC_7266462.JPG,,ISIC_0009236.JPG,495,false,hh,keypress(i),0,true,400589,400588.700000003,391489.261,391493.299999997,391506.204,400623.789,1,40,39,
sequence,flow.Sequence,8_38,2023-11-14T22:39:13.651Z,,,,,,,,,,9082.496000002953,completion,,,,,,,low,low,,,,,,false,,,,true,400589.5,400588.700000003,391489.261,391493.299999997,391506.204,400623.789,1,40,,
trial,html.Screen,8_39_0,2023-11-14T22:39:15.841Z,,,,2,0.0544808612748248,-0.0240487075377862,,false,hl,2155.31099999405,response,0.4955254286241861,0.4081522708174088,-0.48372165475711276,-0.2867414639159831,0.4423330747404951,-0.48391966554711635,high,low,,ISIC_4606646.JPG,,ISIC_0025105.JPG,323,false,hh,keypress(i),0,true,402779.200000003,402779.09999999404,400607.259,400589.700000003,400623.789,402794.624,1,40,40,
sequence,flow.Sequence,8_39,2023-11-14T22:39:15.841Z,,,,,,,,,,2155.31099999405,completion,,,,,,,high,low,,,,,,false,,,,true,402779.39999999106,402779.09999999404,400607.259,400589.700000003,400623.789,402794.624,1,40,,
stair_loop,flow.Loop,8,2023-11-14T22:39:15.841Z,,,,,,,,,,208223.14999999403,completion,,,,,,,,,,,,,,false,,,,true,402779.39999999106,402779.09999999404,194539.435,194547.09999999404,194555.95,402794.624,1,40,,
exp_instructions,html.Screen,9,2023-11-14T22:39:26.194Z,,,,,,,,,,10337.175999997009,response,,,,,,,,,,,,,,,continue,keypress(Space),,,413132.59999999404,413131.799999997,402778.177,402779.5,402794.624,413148.091,,,,
trial,html.Screen,10_0_0,2023-11-14T22:39:33.887Z,,,,1,0.007397293189458,0.0174716772037504,,true,hh,7677.308999991044,response,0.6224679810838276,0.4301803374192338,-0.49283817751684555,0.5259517943886952,0.4841619131557443,-0.46891966554711634,high,high,,ISIC_0056226.JPG,9,ISIC_0001148.JPG,421,false,hh,keypress(i),0,false,420825.59999999404,420825.39999999106,413131.48,413132.89999999106,413148.091,420829.718,4,500,1,
break,html.Screen,10_0_1,2023-11-14T22:39:33.888Z,,,,,,,,,,NaN,,,,,,,,high,high,,,,,,false,,,,false,420826.39999999106,420826.200000003,,420825.799999997,,420829.718,4,500,,
break_continue,html.Screen,10_0_2,2023-11-14T22:39:33.888Z,,,,,,,,,,NaN,,,,,,,,high,high,,,,,,false,,,,false,420826.89999999106,420826.700000003,,420826.5,,420829.718,4,500,,
sequence,flow.Sequence,10_0,2023-11-14T22:39:33.888Z,,,,,,,,,,7678.609000002965,completion,,,,,,,high,high,,,,,,false,,,,false,420827.09999999404,420826.700000003,413131.48,413132.799999997,413148.091,420829.718,4,500,,
trial,html.Screen,10_1_0,2023-11-14T22:39:38.437Z,,,,1,-0.040191644178716,0.0622582668671422,,false,hh,4543.181999991066,response,0.2919426892079227,0.4301803374192338,-0.49283817751684555,0.5918942242478449,0.4841619131557443,-0.46891966554711634,high,high,,ISIC_6207688.JPG,8,ISIC_0403458.JPG,421,false,hl,keypress(j),0,false,425373.299999997,425372.89999999106,420813.218,420827.200000003,420829.718,425388.751,4,500,2,
break,html.Screen,10_1_1,2023-11-14T22:39:38.438Z,,,,,,,,,,NaN,,,,,,,,high,high,,,,,,false,,,,false,425374.5,425374.200000003,,425373.700000003,,425388.751,4,500,,
break_continue,html.Screen,10_1_2,2023-11-14T22:39:38.439Z,,,,,,,,,,NaN,,,,,,,,high,high,,,,,,false,,,,false,425375.200000003,425374.89999999106,,425374.700000003,,425388.751,4,500,,
sequence,flow.Sequence,10_1,2023-11-14T22:39:38.439Z,,,,,,,,,,4545.181999991066,completion,,,,,,,high,high,,,,,,false,,,,false,425375.5,425374.89999999106,420813.218,420827.200000003,420829.718,425388.751,4,500,,
trial,html.Screen,10_2_0,2023-11-14T22:39:44.836Z,,,,1,0.0050679133050021,-0.0009714874637896,,true,ll,6383.749000000011,response,-0.3268366565981249,0.4301803374192338,-0.49283817751684555,-0.5106251564481665,0.4841619131557443,-0.46891966554711634,low,low,,ISIC_9848743.JPG,8,ISIC_7128007.JPG,491,false,ll,keypress(f),0,false,431772.799999997,431772.5,425372.07,425375.700000003,425388.751,431784.395,4,500,3,
break,html.Screen,10_2_1,2023-11-14T22:39:44.837Z,,,,,,,,,,NaN,,,,,,,,low,low,,,,,,false,,,,false,431774,431773.700000003,,431773.200000003,,431784.395,4,500,,
break_continue,html.Screen,10_2_2,2023-11-14T22:39:44.838Z,,,,,,,,,,NaN,,,,,,,,low,low,,,,,,false,,,,false,431774.700000003,431774.5,,431774.200000003,,431784.395,4,500,,
sequence,flow.Sequence,10_2,2023-11-14T22:39:44.838Z,,,,,,,,,,6385.749000000011,completion,,,,,,,low,low,,,,,,false,,,,false,431775,431774.5,425372.07,425375.700000003,425388.751,431784.395,4,500,,
trial,html.Screen,10_3_0,2023-11-14T22:39:47.429Z,,,,1,-0.0112310719058792,0.0469047359904117,,false,ll,2580.3050000029616,response,-0.3460346425740699,0.4301803374192338,-0.49283817751684555,-0.5890046841955819,0.4841619131557443,-0.46891966554711634,low,low,,ISIC_0068184.JPG,10,ISIC_9087221.JPG,491,false,lh,keypress(e),0,false,434365.09999999404,434364.700000003,431767.854,431775.200000003,431784.395,434372.73,4,500,4,
break,html.Screen,10_3_1,2023-11-14T22:39:47.430Z,,,,,,,,,,NaN,,,,,,,,low,low,,,,,,false,,,,false,434366.299999997,434365.89999999106,,434365.39999999106,,434372.73,4,500,,
break_continue,html.Screen,10_3_2,2023-11-14T22:39:47.431Z,,,,,,,,,,NaN,,,,,,,,low,low,,,,,,false,,,,false,434367,434366.799999997,,434366.5,,434372.73,4,500,,
sequence,flow.Sequence,10_3,2023-11-14T22:39:47.431Z,,,,,,,,,,2582.404999997001,completion,,,,,,,low,low,,,,,,false,,,,false,434367.299999997,434366.799999997,431767.854,431775.200000003,431784.395,434372.73,4,500,,
trial,html.Screen,10_4_0,2023-11-14T22:39:50.629Z,,,,1,-0.0565575423757561,-0.0394300226801425,,false,hl,3192.0699999970384,response,0.3295103148497169,0.4301803374192338,-0.49283817751684555,-0.4737320947051506,0.4841619131557443,-0.46891966554711634,high,low,,ISIC_0046983.JPG,15,ISIC_3246746.JPG,315,false,hh,keypress(i),0,false,437565.200000003,437564.799999997,434356.243,434367.59999999404,434372.73,437579.058,4,500,5,
break,html.Screen,10_4_1,2023-11-14T22:39:50.630Z,,,,,,,,,,NaN,,,,,,,,high,low,,,,,,false,,,,false,437566.39999999106,437566,,437565.59999999404,,437579.058,4,500,,
break_continue,html.Screen,10_4_2,2023-11-14T22:39:50.631Z,,,,,,,,,,NaN,,,,,,,,high,low,,,,,,false,,,,false,437567.09999999404,437566.89999999106,,437566.700000003,,437579.058,4,500,,
sequence,flow.Sequence,10_4,2023-11-14T22:39:50.631Z,,,,,,,,,,3194.169999991078,completion,,,,,,,high,low,,,,,,false,,,,false,437567.5,437566.89999999106,434356.243,434367.5,434372.73,437579.058,4,500,,
trial,html.Screen,10_5_0,2023-11-14T22:39:59.668Z,,,,1,-0.0112310719058792,0.0469047359904117,,false,ll,9025.54199999402,response,-0.6320634994876633,0.4301803374192338,-0.49283817751684555,-0.5186615345425595,0.4841619131557443,-0.46891966554711634,low,low,,ISIC_0068184.JPG,10,ISIC_9086288.JPG,491,false,lh,keypress(e),0,false,446604.89999999106,446604.59999999404,437562.48,437567.700000003,437579.058,446613.21,4,500,6,
break,html.Screen,10_5_1,2023-11-14T22:39:59.670Z,,,,,,,,,,NaN,,,,,,,,low,low,,,,,,false,,,,false,446606.09999999404,446605.799999997,,446605.299999997,,446613.21,4,500,,
break_continue,html.Screen,10_5_2,2023-11-14T22:39:59.670Z,,,,,,,,,,NaN,,,,,,,,low,low,,,,,,false,,,,false,446606.799999997,446606.59999999404,,446606.39999999106,,446613.21,4,500,,
sequence,flow.Sequence,10_5,2023-11-14T22:39:59.671Z,,,,,,,,,,9027.54199999402,completion,,,,,,,low,low,,,,,,false,,,,false,446607.09999999404,446606.59999999404,437562.48,437567.59999999404,437579.058,446613.21,4,500,,
trial,html.Screen,10_6_0,2023-11-14T22:40:03.595Z,,,,1,-0.0188047466661863,0.0288346930436979,,true,ll,3918.1899999910383,response,-0.5415906991844043,0.4301803374192338,-0.49283817751684555,-0.6526724457046548,0.4841619131557443,-0.46891966554711634,low,low,,ISIC_0014157.JPG,9,ISIC_4876193.JPG,491,false,ll,keypress(f),0,false,450531.59999999404,450531.39999999106,446596.709,446607.299999997,446613.21,450537.492,4,500,7,
break,html.Screen,10_6_1,2023-11-14T22:40:03.595Z,,,,,,,,,,NaN,,,,,,,,low,low,,,,,,false,,,,false,450532,450531.799999997,,450531.700000003,,450537.492,4,500,,
break_continue,html.Screen,10_6_2,2023-11-14T22:40:03.596Z,,,,,,,,,,NaN,,,,,,,,low,low,,,,,,false,,,,false,450532.200000003,450532.09999999404,,450532,,450537.492,4,500,,
sequence,flow.Sequence,10_6,2023-11-14T22:40:03.596Z,,,,,,,,,,3918.8899999940186,completion,,,,,,,low,low,,,,,,false,,,,false,450532.299999997,450532.09999999404,446596.709,446607.299999997,446613.21,450537.492,4,500,,
trial,html.Screen,10_7_0,2023-11-14T22:40:07.395Z,,,,1,-0.0292059717970335,-0.0718256867525069,,true,ll,3794.2080000029528,response,-0.3488947564731158,0.4301803374192338,-0.49283817751684555,-0.3170750253263091,0.4841619131557443,-0.46891966554711634,low,low,,ISIC_1114966.JPG,10,ISIC_0030437.JPG,491,false,ll,keypress(f),0,false,454331.89999999106,454331.700000003,450520.971,450532.39999999106,450537.492,454344.993,4,500,8,
break,html.Screen,10_7_1,2023-11-14T22:40:07.396Z,,,,,,,,,,NaN,,,,,,,,low,low,,,,,,false,,,,false,454332.700000003,454332.5,,454332.200000003,,454344.993,4,500,,
break_continue,html.Screen,10_7_2,2023-11-14T22:40:07.397Z,,,,,,,,,,NaN,,,,,,,,low,low,,,,,,false,,,,false,454333.200000003,454333,,454332.799999997,,454344.993,4,500,,
sequence,flow.Sequence,10_7,2023-11-14T22:40:07.397Z,,,,,,,,,,3795.5079999999725,completion,,,,,,,low,low,,,,,,false,,,,false,454333.299999997,454333,450520.971,450532.299999997,450537.492,454344.993,4,500,,
trial,html.Screen,10_8_0,2023-11-14T22:40:11.947Z,,,,1,0.0456515796420274,-0.0273567130070961,,false,lh,4538.7070000029635,response,-0.5451328372282638,0.4301803374192338,-0.49283817751684555,0.4184047740205993,0.4841619131557443,-0.46891966554711634,low,high,,ISIC_0068610.JPG,9,ISIC_0034052.JPG,251,false,hl,keypress(j),0,false,458883.89999999106,458883.700000003,454328.205,454333.5,454344.993,458887.115,4,500,9,
break,html.Screen,10_8_1,2023-11-14T22:40:11.948Z,,,,,,,,,,NaN,,,,,,,,low,high,,,,,,false,,,,false,458884.299999997,458884.200000003,,458884,,458887.115,4,500,,
break_continue,html.Screen,10_8_2,2023-11-14T22:40:11.948Z,,,,,,,,,,NaN,,,,,,,,low,high,,,,,,false,,,,false,458884.59999999404,458884.5,,458884.39999999106,,458887.115,4,500,,
sequence,flow.Sequence,10_8,2023-11-14T22:40:11.948Z,,,,,,,,,,4539.506999999983,completion,,,,,,,low,high,,,,,,false,,,,false,458884.700000003,458884.5,454328.205,454333.39999999106,454344.993,458887.115,4,500,,
trial,html.Screen,10_9_0,2023-11-14T22:40:17.965Z,,,,1,0.0363437082783146,0.0333332186217051,,false,lh,6013.885000000009,response,-0.4418038757967581,0.4301803374192338,-0.49283817751684555,0.4903889517776406,0.4841619131557443,-0.46891966554711634,low,high,,ISIC_3314555.JPG,9,ISIC_0033496.JPG,251,false,hl,keypress(j),0,false,464901.39999999106,464901,458870.508,458884.799999997,458887.115,464915.6,4,500,10,
break,html.Screen,10_9_1,2023-11-14T22:40:17.966Z,,,,,,,,,,NaN,,,,,,,,low,high,,,,,,false,,,,false,464902.700000003,464902.299999997,,464901.799999997,,464915.6,4,500,,
break_continue,html.Screen,10_9_2,2023-11-14T22:40:17.967Z,,,,,,,,,,NaN,,,,,,,,low,high,,,,,,false,,,,false,464903.5,464903.09999999404,,464902.89999999106,,464915.6,4,500,,
sequence,flow.Sequence,10_9,2023-11-14T22:40:17.967Z,,,,,,,,,,6015.984999994049,completion,,,,,,,low,high,,,,,,false,,,,false,464903.799999997,464903.09999999404,458870.508,458884.700000003,458887.115,464915.6,4,500,,
trial,html.Screen,10_10_0,2023-11-14T22:40:20.107Z,,,,1,-0.0134764727102299,-0.0033499036460912,,false,lh,2127.699999997043,response,-0.5580542460628488,0.4301803374192338,-0.49283817751684555,0.534539778828974,0.4841619131557443,-0.46891966554711634,low,high,,ISIC_0009998.JPG,10,ISIC_8521610.JPG,251,false,hh,keypress(i),0,false,467043.39999999106,467043.299999997,464899.031,464904,464915.6,467053.034,4,500,11,
break,html.Screen,10_10_1,2023-11-14T22:40:20.107Z,,,,,,,,,,NaN,,,,,,,,low,high,,,,,,false,,,,false,467043.89999999106,467043.700000003,,467043.59999999404,,467053.034,4,500,,
break_continue,html.Screen,10_10_2,2023-11-14T22:40:20.108Z,,,,,,,,,,NaN,,,,,,,,low,high,,,,,,false,,,,false,467044,467044,,467043.89999999106,,467053.034,4,500,,
sequence,flow.Sequence,10_10,2023-11-14T22:40:20.108Z,,,,,,,,,,2128.4000000000233,completion,,,,,,,low,high,,,,,,false,,,,false,467044.09999999404,467044,464899.031,464903.89999999106,464915.6,467053.034,4,500,,
trial,html.Screen,10_11_0,2023-11-14T22:40:30.813Z,,,,1,-0.0051189696037511,0.0396625911332438,,true,hl,10695.966000000015,response,0.3124169254057999,0.4301803374192338,-0.49283817751684555,-0.5972072968514816,0.4841619131557443,-0.46891966554711634,high,low,,ISIC_9742891.JPG,8,ISIC_0030952.JPG,315,false,hl,keypress(j),0,false,477749.39999999106,477749,467036.323,467044.200000003,467053.034,477757.163,4,500,12,
break,html.Screen,10_11_1,2023-11-14T22:40:30.814Z,,,,,,,,,,NaN,,,,,,,,high,low,,,,,,false,,,,false,477750.5,477750.299999997,,477749.799999997,,477757.163,4,500,,
break_continue,html.Screen,10_11_2,2023-11-14T22:40:30.815Z,,,,,,,,,,NaN,,,,,,,,high,low,,,,,,false,,,,false,477751.200000003,477751,,477750.799999997,,477757.163,4,500,,
sequence,flow.Sequence,10_11,2023-11-14T22:40:30.815Z,,,,,,,,,,10697.966000000015,completion,,,,,,,high,low,,,,,,false,,,,false,477751.59999999404,477751,467036.323,467044.09999999404,467053.034,477757.163,4,500,,
trial,html.Screen,10_12_0,2023-11-14T22:40:34.643Z,,,,1,0.0329095507339554,-0.0382899749693245,,true,ll,3822.236999991059,response,-0.393713661942331,0.4301803374192338,-0.49283817751684555,-0.2971614629418697,0.4841619131557443,-0.46891966554711634,low,low,,ISIC_8812781.JPG,8,ISIC_0033508.JPG,491,false,ll,keypress(f),0,false,481579.59999999404,481579.39999999106,477740.715,477751.799999997,477757.163,481581.284,4,500,13,
break,html.Screen,10_12_1,2023-11-14T22:40:34.643Z,,,,,,,,,,NaN,,,,,,,,low,low,,,,,,false,,,,false,481579.89999999106,481579.799999997,,481579.700000003,,481581.284,4,500,,
break_continue,html.Screen,10_12_2,2023-11-14T22:40:34.644Z,,,,,,,,,,NaN,,,,,,,,low,low,,,,,,false,,,,false,481580,481580,,481579.89999999106,,481581.284,4,500,,
sequence,flow.Sequence,10_12,2023-11-14T22:40:34.644Z,,,,,,,,,,3822.8369999999995,completion,,,,,,,low,low,,,,,,false,,,,false,481580.09999999404,481580,477740.715,477751.700000003,477757.163,481581.284,4,500,,
trial,html.Screen,10_13_0,2023-11-14T22:40:41.423Z,,,,1,-0.0693466529227737,-0.044703434393184,,false,lh,6775.716000000015,response,-0.3666493834544435,0.4301803374192338,-0.49283817751684555,0.417550755057085,0.4841619131557443,-0.46891966554711634,low,high,,ISIC_0004217.JPG,11,ISIC_3105136.JPG,251,false,hl,keypress(j),0,false,488357.299999997,488357,481564.766,481580.09999999404,481581.284,488361.238,4,500,14,
break,html.Screen,10_13_1,2023-11-14T22:40:41.424Z,,,,,,,,,,NaN,,,,,,,,low,high,,,,,,false,,,,false,488358.5,488358.200000003,,488357.700000003,,488361.238,4,500,,
break_continue,html.Screen,10_13_2,2023-11-14T22:40:41.425Z,,,,,,,,,,NaN,,,,,,,,low,high,,,,,,false,,,,false,488359.200000003,488358.89999999106,,488358.700000003,,488361.238,4,500,,
sequence,flow.Sequence,10_13,2023-11-14T22:40:41.425Z,,,,,,,,,,6777.615999991074,completion,,,,,,,low,high,,,,,,false,,,,false,488359.5,488358.89999999106,481564.766,481580.09999999404,481581.284,488361.238,4,500,,
trial,html.Screen,10_14_0,2023-11-14T22:40:48.327Z,,,,1,0.0593670819812057,-0.0718390543903236,,false,lh,6899.661999991047,response,-0.3614888058435189,0.4301803374192338,-0.49283817751684555,0.4801172937216654,0.4841619131557443,-0.46891966554711634,low,high,,ISIC_0062367.JPG,8,ISIC_0032602.JPG,251,false,ll,keypress(f),0,false,495261.299999997,495260.89999999106,488344.627,488359.700000003,488361.238,495274.638,4,500,15,
break,html.Screen,10_14_1,2023-11-14T22:40:48.328Z,,,,,,,,,,NaN,,,,,,,,low,high,,,,,,false,,,,false,495262.39999999106,495262.09999999404,,495261.59999999404,,495274.638,4,500,,
break_continue,html.Screen,10_14_2,2023-11-14T22:40:48.329Z,,,,,,,,,,NaN,,,,,,,,low,high,,,,,,false,,,,false,495263.200000003,495262.89999999106,,495262.59999999404,,495274.638,4,500,,
sequence,flow.Sequence,10_14,2023-11-14T22:40:48.329Z,,,,,,,,,,6901.661999991047,completion,,,,,,,low,high,,,,,,false,,,,false,495263.59999999404,495262.89999999106,488344.627,488359.59999999404,488361.238,495274.638,4,500,,
trial,html.Screen,10_15_0,2023-11-14T22:40:52.551Z,,,,1,0.0415913596725838,-0.0543422987007948,,false,hl,4210.461999994062,response,0.5983482959094698,0.4301803374192338,-0.49283817751684555,-0.3871685589473045,0.4841619131557443,-0.46891966554711634,high,low,,ISIC_0027956.JPG,8,ISIC_0013634.JPG,315,false,hh,keypress(i),0,false,499485.39999999106,499485.09999999404,495258.101,495263.89999999106,495274.638,499499.58,4,500,16,
break,html.Screen,10_15_1,2023-11-14T22:40:52.552Z,,,,,,,,,,NaN,,,,,,,,high,low,,,,,,false,,,,false,499486.700000003,499486.299999997,,499485.89999999106,,499499.58,4,500,,
break_continue,html.Screen,10_15_2,2023-11-14T22:40:52.553Z,,,,,,,,,,NaN,,,,,,,,high,low,,,,,,false,,,,false,499487.799999997,499487.5,,499487.09999999404,,499499.58,4,500,,
sequence,flow.Sequence,10_15,2023-11-14T22:40:52.554Z,,,,,,,,,,4212.862000000023,completion,,,,,,,high,low,,,,,,false,,,,false,499488.39999999106,499487.5,495258.101,495263.799999997,495274.638,499499.58,4,500,,
trial,html.Screen,10_16_0,2023-11-14T22:41:00.709Z,,,,1,0.0336891949856763,0.060314732178219,,false,hh,8143.819999991043,response,0.274428390227145,0.4301803374192338,-0.49283817751684555,0.3188781449988066,0.4841619131557443,-0.46891966554711634,high,high,,ISIC_6192289.JPG,9,ISIC_0054941.JPG,421,false,ll,keypress(f),0,false,507643.59999999404,507643.39999999106,499482.995,499488.700000003,499499.58,507648.679,4,500,17,
break,html.Screen,10_16_1,2023-11-14T22:41:00.710Z,,,,,,,,,,NaN,,,,,,,,high,high,,,,,,false,,,,false,507644.200000003,507644,,507643.799999997,,507648.679,4,500,,
break_continue,html.Screen,10_16_2,2023-11-14T22:41:00.710Z,,,,,,,,,,NaN,,,,,,,,high,high,,,,,,false,,,,false,507644.39999999106,507644.299999997,,507644.200000003,,507648.679,4,500,,
sequence,flow.Sequence,10_16,2023-11-14T22:41:00.710Z,,,,,,,,,,8144.7199999970035,completion,,,,,,,high,high,,,,,,false,,,,false,507644.5,507644.299999997,499482.995,499488.5,499499.58,507648.679,4,500,,
trial,html.Screen,10_17_0,2023-11-14T22:41:04.151Z,,,,1,-0.0546386976779619,0.0448724759283131,,true,hh,3436.420999994036,response,0.5478906800977534,0.4301803374192338,-0.49283817751684555,0.4798580256847607,0.4841619131557443,-0.46891966554711634,high,high,,ISIC_6722934.JPG,8,ISIC_0011247.JPG,421,false,hh,keypress(i),0,false,511085.5,511085.09999999404,507632.198,507644.59999999404,507648.679,511088.725,4,500,18,
break,html.Screen,10_17_1,2023-11-14T22:41:04.152Z,,,,,,,,,,NaN,,,,,,,,high,high,,,,,,false,,,,false,511086.700000003,511086.299999997,,511085.799999997,,511088.725,4,500,,
break_continue,html.Screen,10_17_2,2023-11-14T22:41:04.153Z,,,,,,,,,,NaN,,,,,,,,high,high,,,,,,false,,,,false,511087.5,511087.200000003,,511086.89999999106,,511088.725,4,500,,
sequence,flow.Sequence,10_17,2023-11-14T22:41:04.153Z,,,,,,,,,,3438.5210000029765,completion,,,,,,,high,high,,,,,,false,,,,false,511087.700000003,511087.200000003,507632.198,507644.59999999404,507648.679,511088.725,4,500,,
trial,html.Screen,10_18_0,2023-11-14T22:41:08.957Z,,,,1,0.0057914759495055,0.0074667911845194,,true,hh,4802.674999991083,response,0.5727269620558624,0.4301803374192338,-0.49283817751684555,0.5721024689832612,0.4841619131557443,-0.46891966554711634,high,high,,ISIC_0058723.JPG,9,ISIC_0010797.JPG,421,false,hh,keypress(i),0,false,515891.5,515891.39999999106,511072.145,511088,511088.725,515898.16,4,500,19,
break,html.Screen,10_18_1,2023-11-14T22:41:08.957Z,,,,,,,,,,NaN,,,,,,,,high,high,,,,,,false,,,,false,515891.799999997,515891.799999997,,515891.59999999404,,515898.16,4,500,,
break_continue,html.Screen,10_18_2,2023-11-14T22:41:08.958Z,,,,,,,,,,NaN,,,,,,,,high,high,,,,,,false,,,,false,515891.89999999106,515891.89999999106,,515891.89999999106,,515898.16,4,500,,
sequence,flow.Sequence,10_18,2023-11-14T22:41:08.958Z,,,,,,,,,,4803.174999991083,completion,,,,,,,high,high,,,,,,false,,,,false,515892,515891.89999999106,511072.145,511087.89999999106,511088.725,515898.16,4,500,,
trial,html.Screen,10_19_0,2023-11-14T22:41:14.597Z,,,,1,0.0111354529246037,-0.0585810480909377,,false,hl,5633.040000003006,response,0.5403753585963319,0.4301803374192338,-0.49283817751684555,-0.4059294368820627,0.4841619131557443,-0.46891966554711634,high,low,,ISIC_7858034.JPG,8,ISIC_0002258.JPG,315,false,ll,keypress(f),0,false,521531.39999999106,521531.200000003,515881.612,515892.09999999404,515898.16,521542.419,4,500,20,
break,html.Screen,10_19_1,2023-11-14T22:41:14.597Z,,,,,,,,,,NaN,,,,,,,,high,low,,,,,,false,,,,false,521531.700000003,521531.59999999404,,521531.39999999106,,521542.419,4,500,,
break_continue,html.Screen,10_19_2,2023-11-14T22:41:14.598Z,,,,,,,,,,NaN,,,,,,,,high,low,,,,,,false,,,,false,521532,521531.89999999106,,521531.799999997,,521542.419,4,500,,
sequence,flow.Sequence,10_19,2023-11-14T22:41:14.598Z,,,,,,,,,,5633.739999991085,completion,,,,,,,high,low,,,,,,false,,,,false,521532,521531.89999999106,515881.612,515892.09999999404,515898.16,521542.419,4,500,,
trial,html.Screen,10_20_0,2023-11-14T22:41:18.221Z,,,,1,0.0329095507339554,-0.0382899749693245,,true,hh,3613.281000002986,response,0.3894212379864515,0.4301803374192338,-0.49283817751684555,0.4615365482035733,0.4841619131557443,-0.46891966554711634,high,high,,ISIC_8812781.JPG,8,ISIC_0010550.JPG,421,false,hh,keypress(i),0,false,525155.799999997,525155.700000003,521525.903,521532.09999999404,521542.419,525166.163,4,500,21,
break,html.Screen,10_20_1,2023-11-14T22:41:18.222Z,,,,,,,,,,NaN,,,,,,,,high,high,,,,,,false,,,,false,525156.200000003,525156.099999994,,525155.8999999911,,525166.163,4,500,,
break_continue,html.Screen,10_20_2,2023-11-14T22:41:18.222Z,,,,,,,,,,NaN,,,,,,,,high,high,,,,,,false,,,,false,525156.3999999911,525156.3999999911,,525156.200000003,,525166.163,4,500,,
sequence,flow.Sequence,10_20,2023-11-14T22:41:18.222Z,,,,,,,,,,3613.980999991065,completion,,,,,,,high,high,,,,,,false,,,,false,525156.5,525156.3999999911,521525.903,521532.09999999404,521542.419,525166.163,4,500,,
trial,html.Screen,10_21_0,2023-11-14T22:41:24.719Z,,,,1,0.0116094682222121,-0.0258434522530318,,true,hh,6486.736999991117,response,0.4292942418656199,0.4301803374192338,-0.49283817751684555,0.6373611388712699,0.4841619131557443,-0.46891966554711634,high,high,,ISIC_9239632.JPG,9,ISIC_0059065.JPG,421,false,hh,keypress(i),0,false,531653.099999994,531652.8999999911,525149.534,525156.599999994,525166.163,531662.134,4,500,22,
break,html.Screen,10_21_1,2023-11-14T22:41:24.720Z,,,,,,,,,,NaN,,,,,,,,high,high,,,,,,false,,,,false,531654.299999997,531654,,531653.599999994,,531662.134,4,500,,
break_continue,html.Screen,10_21_2,2023-11-14T22:41:24.721Z,,,,,,,,,,NaN,,,,,,,,high,high,,,,,,false,,,,false,531655,531654.799999997,,531654.5,,531662.134,4,500,,
sequence,flow.Sequence,10_21,2023-11-14T22:41:24.721Z,,,,,,,,,,6488.6369999970775,completion,,,,,,,high,high,,,,,,false,,,,false,531655.299999997,531654.799999997,525149.534,525156.5,525166.163,531662.134,4,500,,
trial,html.Screen,10_22_0,2023-11-14T22:41:34.823Z,,,,1,0.0593670819812057,-0.0718390543903236,,false,hh,10094.765999991097,response,0.5258982733724044,0.4301803374192338,-0.49283817751684555,0.3286173860112056,0.4841619131557443,-0.46891966554711634,high,high,,ISIC_0062367.JPG,9,ISIC_0056984.JPG,421,false,lh,keypress(e),0,false,541757.200000003,541756.8999999911,531645.596,531655.5,531662.134,541765.106,4,500,23,
break,html.Screen,10_22_1,2023-11-14T22:41:34.824Z,,,,,,,,,,NaN,,,,,,,,high,high,,,,,,false,,,,false,541758.200000003,541758,,541757.599999994,,541765.106,4,500,,
break_continue,html.Screen,10_22_2,2023-11-14T22:41:34.824Z,,,,,,,,,,NaN,,,,,,,,high,high,,,,,,false,,,,false,541758.799999997,541758.700000003,,541758.3999999911,,541765.106,4,500,,
sequence,flow.Sequence,10_22,2023-11-14T22:41:34.825Z,,,,,,,,,,10096.566000003018,completion,,,,,,,high,high,,,,,,false,,,,false,541759.099999994,541758.700000003,531645.596,531655.3999999911,531662.134,541765.106,4,500,,
trial,html.Screen,10_23_0,2023-11-14T22:41:37.905Z,,,,1,0.0329095507339554,-0.0382899749693245,,true,hh,3071.7939999910304,response,0.4419169442820043,0.4301803374192338,-0.49283817751684555,0.5005209004373625,0.4841619131557443,-0.46891966554711634,high,high,,ISIC_8812781.JPG,11,ISIC_0014079.JPG,421,false,hh,keypress(i),0,false,544837.099999994,544836.8999999911,541748.666,541759.299999997,541765.106,544854.606,4,500,24,
break,html.Screen,10_23_1,2023-11-14T22:41:37.906Z,,,,,,,,,,NaN,,,,,,,,high,high,,,,,,false,,,,false,544838.3999999911,544838.099999994,,544837.5,,544854.606,4,500,,
break_continue,html.Screen,10_23_2,2023-11-14T22:41:37.907Z,,,,,,,,,,NaN,,,,,,,,high,high,,,,,,false,,,,false,544839.200000003,544838.8999999911,,544838.599999994,,544854.606,4,500,,
sequence,flow.Sequence,10_23,2023-11-14T22:41:37.907Z,,,,,,,,,,3073.7939999910304,completion,,,,,,,high,high,,,,,,false,,,,false,544839.5,544838.8999999911,541748.666,541759.299999997,541765.106,544854.606,4,500,,
trial,html.Screen,10_24_0,2023-11-14T22:41:44.009Z,,,,1,0.0329095507339554,-0.0382899749693245,,true,hh,6086.094000002951,response,0.5973065439751417,0.4301803374192338,-0.49283817751684555,0.65017924396646,0.4841619131557443,-0.46891966554711634,high,high,,ISIC_8812781.JPG,9,ISIC_9134566.JPG,421,false,hh,keypress(i),0,false,550940.8999999911,550940.700000003,544837.968,544839.700000003,544854.606,550949.712,4,500,25,
break,html.Screen,10_24_1,2023-11-14T22:41:44.010Z,,,,,,,,,,NaN,,,,,,,,high,high,,,,,,false,,,,false,550941.8999999911,550941.599999994,,550941.200000003,,550949.712,4,500,,
break_continue,html.Screen,10_24_2,2023-11-14T22:41:44.010Z,,,,,,,,,,NaN,,,,,,,,high,high,,,,,,false,,,,false,550942.3999999911,550942.200000003,,550942.099999994,,550949.712,4,500,,
sequence,flow.Sequence,10_24,2023-11-14T22:41:44.010Z,,,,,,,,,,6087.594000002951,completion,,,,,,,high,high,,,,,,false,,,,false,550942.700000003,550942.200000003,544837.968,544839.599999994,544854.606,550949.712,4,500,,
trial,html.Screen,10_25_0,2023-11-14T22:41:55.007Z,,,,1,-0.0688801591312476,-0.0185462113313342,,,,11021.54999999993,timeout,0.622310382030084,0.4301803374192338,-0.49283817751684555,0.4692147522668944,0.4841619131557443,-0.46891966554711634,high,high,,ISIC_0067723.JPG,10,ISIC_4436342.JPG,421,false,,,0,false,561939,561938.5,550933.105,550942.8999999911,550949.712,561971.262,4,500,26,
break,html.Screen,10_25_1,2023-11-14T22:41:55.008Z,,,,,,,,,,NaN,,,,,,,,high,high,,,,,,false,,,,false,561940.099999994,561939.8999999911,,561939.299999997,,561971.262,4,500,,
break_continue,html.Screen,10_25_2,2023-11-14T22:41:55.009Z,,,,,,,,,,NaN,,,,,,,,high,high,,,,,,false,,,,false,561940.799999997,561940.5,,561940.3999999911,,561971.262,4,500,,
sequence,flow.Sequence,10_25,2023-11-14T22:41:55.009Z,,,,,,,,,,10990.787999999942,completion,,,,,,,high,high,,,,,,false,,,,false,561941.099999994,561940.5,550933.105,550942.799999997,550949.712,561971.262,4,500,,
trial,html.Screen,10_26_0,2023-11-14T22:42:00.951Z,,,,1,-0.0546386976779619,0.0448724759283131,,false,hl,5912.037999997032,response,0.3688177955720437,0.4301803374192338,-0.49283817751684555,-0.292414743668819,0.4841619131557443,-0.46891966554711634,high,low,,ISIC_6722934.JPG,9,ISIC_0010304.JPG,315,false,hh,keypress(i),0,false,567883.3999999911,567883.299999997,561954.383,561941.299999997,561971.262,567899.309,4,500,27,
break,html.Screen,10_26_1,2023-11-14T22:42:00.952Z,,,,,,,,,,NaN,,,,,,,,high,low,,,,,,false,,,,false,567883.799999997,567883.700000003,,567883.599999994,,567899.309,4,500,,
break_continue,html.Screen,10_26_2,2023-11-14T22:42:00.952Z,,,,,,,,,,NaN,,,,,,,,high,low,,,,,,false,,,,false,567884,567884,,567883.8999999911,,567899.309,4,500,,
sequence,flow.Sequence,10_26,2023-11-14T22:42:00.952Z,,,,,,,,,,5912.738000000012,completion,,,,,,,high,low,,,,,,false,,,,false,567884.099999994,567884,561954.383,561941.200000003,561971.262,567899.309,4,500,,
trial,html.Screen,10_27_0,2023-11-14T22:42:05.417Z,,,,1,-0.0087912446525382,-0.0619041869188676,,false,hl,4449.490999997011,response,0.2335927753602867,0.4301803374192338,-0.49283817751684555,-0.4400068452722644,0.4841619131557443,-0.46891966554711634,high,low,,ISIC_7185913.JPG,9,ISIC_6425888.JPG,315,false,ll,keypress(f),0,false,572349.099999994,572348.799999997,567882.764,567884.099999994,567899.309,572358.051,4,500,28,
break,html.Screen,10_27_1,2023-11-14T22:42:05.418Z,,,,,,,,,,NaN,,,,,,,,high,low,,,,,,false,,,,false,572350.200000003,572350,,572349.5,,572358.051,4,500,,
break_continue,html.Screen,10_27_2,2023-11-14T22:42:05.419Z,,,,,,,,,,NaN,,,,,,,,high,low,,,,,,false,,,,false,572351,572350.700000003,,572350.3999999911,,572358.051,4,500,,
sequence,flow.Sequence,10_27,2023-11-14T22:42:05.419Z,,,,,,,,,,4451.391000002972,completion,,,,,,,high,low,,,,,,false,,,,false,572351.200000003,572350.700000003,567882.764,567884.099999994,567899.309,572358.051,4,500,,
trial,html.Screen,10_28_0,2023-11-14T22:42:08.737Z,,,,1,0.0070725527271049,0.0049995141077508,,false,hh,3310.6490000030026,response,0.5976546834758864,0.4301803374192338,-0.49283817751684555,0.5878789103304864,0.4841619131557443,-0.46891966554711634,high,high,,ISIC_6124481.JPG,10,ISIC_0030373.JPG,421,false,lh,keypress(e),0,false,575669,575668.700000003,572341.513,572351.5,572358.051,575681.154,4,500,29,
break,html.Screen,10_28_1,2023-11-14T22:42:08.738Z,,,,,,,,,,NaN,,,,,,,,high,high,,,,,,false,,,,false,575670.200000003,575669.799999997,,575669.3999999911,,575681.154,4,500,,
break_continue,html.Screen,10_28_2,2023-11-14T22:42:08.739Z,,,,,,,,,,NaN,,,,,,,,high,high,,,,,,false,,,,false,575670.799999997,575670.700000003,,575670.3999999911,,575681.154,4,500,,
sequence,flow.Sequence,10_28,2023-11-14T22:42:08.739Z,,,,,,,,,,3312.6490000030026,completion,,,,,,,high,high,,,,,,false,,,,false,575671.099999994,575670.700000003,572341.513,572351.3999999911,572358.051,575681.154,4,500,,
trial,html.Screen,10_29_0,2023-11-14T22:42:15.969Z,,,,1,0.0116094682222121,-0.0258434522530318,,false,hh,7220.145999997039,response,0.5532780657682688,0.4301803374192338,-0.49283817751684555,0.355035692146022,0.4841619131557443,-0.46891966554711634,high,high,,ISIC_9239632.JPG,8,ISIC_4428769.JPG,421,false,hl,keypress(j),0,false,582901.700000003,582901.299999997,575664.562,575671.299999997,575681.154,582911.929,4,500,30,
break,html.Screen,10_29_1,2023-11-14T22:42:15.971Z,,,,,,,,,,NaN,,,,,,,,high,high,,,,,,false,,,,false,582902.799999997,582902.5,,582902.099999994,,582911.929,4,500,,
break_continue,html.Screen,10_29_2,2023-11-14T22:42:15.971Z,,,,,,,,,,NaN,,,,,,,,high,high,,,,,,false,,,,false,582903.5,582903.200000003,,582903,,582911.929,4,500,,
sequence,flow.Sequence,10_29,2023-11-14T22:42:15.972Z,,,,,,,,,,7222.046000003,completion,,,,,,,high,high,,,,,,false,,,,false,582903.799999997,582903.200000003,575664.562,575671.299999997,575681.154,582911.929,4,500,,
trial,html.Screen,10_30_0,2023-11-14T22:42:21.073Z,,,,1,-0.0546386976779619,0.0448724759283131,,false,hl,5092.570999999996,response,0.4458826661587183,0.4301803374192338,-0.49283817751684555,-0.5578354408508867,0.4841619131557443,-0.46891966554711634,high,low,,ISIC_6722934.JPG,9,ISIC_7789452.JPG,315,false,hh,keypress(i),0,false,588004.8999999911,588004.5,582895.434,582904,582911.929,588021.822,4,500,31,
break,html.Screen,10_30_1,2023-11-14T22:42:21.074Z,,,,,,,,,,NaN,,,,,,,,high,low,,,,,,false,,,,false,588006,588005.700000003,,588005.299999997,,588021.822,4,500,,
break_continue,html.Screen,10_30_2,2023-11-14T22:42:21.074Z,,,,,,,,,,NaN,,,,,,,,high,low,,,,,,false,,,,false,588006.700000003,588006.5,,588006.200000003,,588021.822,4,500,,
sequence,flow.Sequence,10_30,2023-11-14T22:42:21.075Z,,,,,,,,,,5094.570999999996,completion,,,,,,,high,low,,,,,,false,,,,false,588006.8999999911,588006.5,582895.434,582904,582911.929,588021.822,4,500,,
trial,html.Screen,10_31_0,2023-11-14T22:42:28.671Z,,,,1,0.007397293189458,0.0174716772037504,,false,ll,7581.5779999910155,response,-0.6097666782598118,0.4301803374192338,-0.49283817751684555,-0.5550165278058012,0.4841619131557443,-0.46891966554711634,low,low,,ISIC_0056226.JPG,8,ISIC_3590167.JPG,491,false,lh,keypress(e),0,false,595603.5,595603.3999999911,588005.354,588007.099999994,588021.822,595619.965,4,500,32,
break,html.Screen,10_31_1,2023-11-14T22:42:28.672Z,,,,,,,,,,NaN,,,,,,,,low,low,,,,,,false,,,,false,595603.8999999911,595603.799999997,,595603.599999994,,595619.965,4,500,,
break_continue,html.Screen,10_31_2,2023-11-14T22:42:28.672Z,,,,,,,,,,NaN,,,,,,,,low,low,,,,,,false,,,,false,595604.200000003,595604.099999994,,595604,,595619.965,4,500,,
sequence,flow.Sequence,10_31,2023-11-14T22:42:28.672Z,,,,,,,,,,7582.277999993996,completion,,,,,,,low,low,,,,,,false,,,,false,595604.200000003,595604.099999994,588005.354,588007.099999994,588021.822,595619.965,4,500,,
trial,html.Screen,10_32_0,2023-11-14T22:42:36.145Z,,,,1,-0.0277178575053843,0.0395587463147856,,false,ll,7455.934999991092,response,-0.5142116754240547,0.4301803374192338,-0.49283817751684555,-0.4008578318132855,0.4841619131557443,-0.46891966554711634,low,low,,ISIC_0010807.JPG,9,ISIC_9007206.JPG,491,false,hh,keypress(i),0,false,603076.099999994,603075.8999999911,595603.439,595604.299999997,595619.965,603084.516,4,500,33,
break,html.Screen,10_32_1,2023-11-14T22:42:36.146Z,,,,,,,,,,NaN,,,,,,,,low,low,,,,,,false,,,,false,603076.599999994,603076.3999999911,,603076.200000003,,603084.516,4,500,,
break_continue,html.Screen,10_32_2,2023-11-14T22:42:36.146Z,,,,,,,,,,NaN,,,,,,,,low,low,,,,,,false,,,,false,603076.799999997,603076.799999997,,603076.700000003,,603084.516,4,500,,
sequence,flow.Sequence,10_32,2023-11-14T22:42:36.146Z,,,,,,,,,,7456.834999997052,completion,,,,,,,low,low,,,,,,false,,,,false,603076.8999999911,603076.799999997,595603.439,595604.200000003,595619.965,603084.516,4,500,,
trial,html.Screen,10_33_0,2023-11-14T22:42:39.947Z,,,,1,0.0116094682222121,-0.0258434522530318,,true,ll,3792.7839999970747,response,-0.6245887649601545,0.4301803374192338,-0.49283817751684555,-0.4290146484115201,0.4841619131557443,-0.46891966554711634,low,low,,ISIC_9239632.JPG,9,ISIC_2482653.JPG,491,false,ll,keypress(f),0,false,606877.599999994,606877.299999997,603067.7,603077,603084.516,606891.874,4,500,34,
break,html.Screen,10_33_1,2023-11-14T22:42:39.948Z,,,,,,,,,,NaN,,,,,,,,low,low,,,,,,false,,,,false,606878.700000003,606878.5,,606878,,606891.874,4,500,,
break_continue,html.Screen,10_33_2,2023-11-14T22:42:39.949Z,,,,,,,,,,NaN,,,,,,,,low,low,,,,,,false,,,,false,606879.5,606879.299999997,,606878.8999999911,,606891.874,4,500,,
sequence,flow.Sequence,10_33,2023-11-14T22:42:39.949Z,,,,,,,,,,3794.7839999970747,completion,,,,,,,low,low,,,,,,false,,,,false,606879.799999997,606879.299999997,603067.7,603077,603084.516,606891.874,4,500,,
trial,html.Screen,10_34_0,2023-11-14T22:42:44.034Z,,,,1,0.0401045651353626,0.053461375824197,,false,ll,4073.025999991107,response,-0.5257405912500487,0.4301803374192338,-0.49283817751684555,-0.4416662999093864,0.4841619131557443,-0.46891966554711634,low,low,,ISIC_6483504.JPG,9,ISIC_4129376.JPG,491,false,lh,keypress(e),0,false,610965.200000003,610964.8999999911,606875.143,606880,606891.874,610983.744,4,500,35,
break,html.Screen,10_34_1,2023-11-14T22:42:44.036Z,,,,,,,,,,NaN,,,,,,,,low,low,,,,,,false,,,,false,610966.3999999911,610966.200000003,,610965.5,,610983.744,4,500,,
break_continue,html.Screen,10_34_2,2023-11-14T22:42:44.036Z,,,,,,,,,,NaN,,,,,,,,low,low,,,,,,false,,,,false,610967.099999994,610966.8999999911,,610966.599999994,,610983.744,4,500,,
sequence,flow.Sequence,10_34,2023-11-14T22:42:44.037Z,,,,,,,,,,4075.025999991107,completion,,,,,,,low,low,,,,,,false,,,,false,610967.299999997,610966.8999999911,606875.143,606879.8999999911,606891.874,610983.744,4,500,,
trial,html.Screen,10_35_0,2023-11-14T22:42:50.315Z,,,,1,0.0111354529246037,-0.0585810480909377,,false,hh,6261.256000000052,response,0.5263696244820704,0.4301803374192338,-0.49283817751684555,0.4493074957079215,0.4841619131557443,-0.46891966554711634,high,high,,ISIC_7858034.JPG,9,ISIC_0070061.JPG,421,false,hl,keypress(j),0,false,617245.299999997,617245,610949.975,610967.5,610983.744,617262.159,4,500,36,
break,html.Screen,10_35_1,2023-11-14T22:42:50.316Z,,,,,,,,,,NaN,,,,,,,,high,high,,,,,,false,,,,false,617246.3999999911,617246.099999994,,617245.599999994,,617262.159,4,500,,
break_continue,html.Screen,10_35_2,2023-11-14T22:42:50.316Z,,,,,,,,,,NaN,,,,,,,,high,high,,,,,,false,,,,false,617247.099999994,617246.799999997,,617246.599999994,,617262.159,4,500,,
sequence,flow.Sequence,10_35,2023-11-14T22:42:50.317Z,,,,,,,,,,6263.055999997072,completion,,,,,,,high,high,,,,,,false,,,,false,617247.299999997,617246.799999997,610949.975,610967.5,610983.744,617262.159,4,500,,
trial,html.Screen,10_36_0,2023-11-14T22:42:52.834Z,,,,1,-0.0292059717970335,-0.0718256867525069,,true,hh,2502.740999991074,response,0.4873409179484521,0.4301803374192338,-0.49283817751684555,0.6553198361774192,0.4841619131557443,-0.46891966554711634,high,high,,ISIC_1114966.JPG,9,ISIC_0033947.JPG,421,false,hh,keypress(i),0,false,619765.200000003,619764.8999999911,617245.501,617247.599999994,617262.159,619784.227,4,500,37,
break,html.Screen,10_36_1,2023-11-14T22:42:52.836Z,,,,,,,,,,NaN,,,,,,,,high,high,,,,,,false,,,,false,619766.3999999911,619766.099999994,,619765.599999994,,619784.227,4,500,,
break_continue,html.Screen,10_36_2,2023-11-14T22:42:52.836Z,,,,,,,,,,NaN,,,,,,,,high,high,,,,,,false,,,,false,619767.099999994,619766.8999999911,,619766.599999994,,619784.227,4,500,,
sequence,flow.Sequence,10_36,2023-11-14T22:42:52.837Z,,,,,,,,,,2504.740999991074,completion,,,,,,,high,high,,,,,,false,,,,false,619767.3999999911,619766.8999999911,617245.501,617247.5,617262.159,619784.227,4,500,,
trial,html.Screen,10_37_0,2023-11-14T22:42:56.139Z,,,,1,-0.0735635316240061,0.0537805418091709,,false,hl,3284.8729999940842,response,0.363784354844004,0.4301803374192338,-0.49283817751684555,-0.3571176069492273,0.4841619131557443,-0.46891966554711634,high,low,,ISIC_1761799.JPG,9,ISIC_0000035.JPG,315,false,ll,keypress(f),0,false,623069.3999999911,623069.099999994,619750.334,619767.599999994,619784.227,623073.458,4,500,38,
break,html.Screen,10_37_1,2023-11-14T22:42:56.140Z,,,,,,,,,,NaN,,,,,,,,high,low,,,,,,false,,,,false,623070.599999994,623070.3999999911,,623069.8999999911,,623073.458,4,500,,
break_continue,html.Screen,10_37_2,2023-11-14T22:42:56.141Z,,,,,,,,,,NaN,,,,,,,,high,low,,,,,,false,,,,false,623071.3999999911,623071.099999994,,623070.799999997,,623073.458,4,500,,
sequence,flow.Sequence,10_37,2023-11-14T22:42:56.141Z,,,,,,,,,,3286.8729999940842,completion,,,,,,,high,low,,,,,,false,,,,false,623071.700000003,623071.099999994,619750.334,619767.599999994,619784.227,623073.458,4,500,,
trial,html.Screen,10_38_0,2023-11-14T22:43:01.553Z,,,,1,-0.0245585387483123,0.053462758614929,,false,hh,5410.341999997036,response,0.4792952852320404,0.4301803374192338,-0.49283817751684555,0.4641227898837866,0.4841619131557443,-0.46891966554711634,high,high,,ISIC_3389704.JPG,9,ISIC_0064307.JPG,421,false,ll,keypress(f),0,false,628483.799999997,628483.799999997,623056.691,623071.8999999911,623073.458,628500.629,4,500,39,
break,html.Screen,10_38_1,2023-11-14T22:43:01.553Z,,,,,,,,,,NaN,,,,,,,,high,high,,,,,,false,,,,false,628484.200000003,628484.099999994,,628484,,628500.629,4,500,,
break_continue,html.Screen,10_38_2,2023-11-14T22:43:01.554Z,,,,,,,,,,NaN,,,,,,,,high,high,,,,,,false,,,,false,628484.5,628484.3999999911,,628484.299999997,,628500.629,4,500,,
sequence,flow.Sequence,10_38,2023-11-14T22:43:01.554Z,,,,,,,,,,5410.941999991075,completion,,,,,,,high,high,,,,,,false,,,,false,628484.5,628484.3999999911,623056.691,623071.799999997,623073.458,628500.629,4,500,,
trial,html.Screen,10_39_0,2023-11-14T22:43:08.273Z,,,,1,0.0593670819812057,-0.0718390543903236,,false,lh,6702.670999997063,response,-0.6447238820281644,0.4301803374192338,-0.49283817751684555,0.3010927489825818,0.4841619131557443,-0.46891966554711634,low,high,,ISIC_0062367.JPG,9,ISIC_4368650.JPG,251,false,hh,keypress(i),0,false,635203.3999999911,635203.299999997,628484.04,628484.599999994,628500.629,635213.682,4,500,40,
break,html.Screen,10_39_1,2023-11-14T22:43:08.273Z,,,,,,,,,,NaN,,,,,,,,low,high,,,,,,false,,,,false,635203.799999997,635203.700000003,,635203.599999994,,635213.682,4,500,,
break_continue,html.Screen,10_39_2,2023-11-14T22:43:08.273Z,,,,,,,,,,NaN,,,,,,,,low,high,,,,,,false,,,,false,635204,635204,,635203.8999999911,,635213.682,4,500,,
sequence,flow.Sequence,10_39,2023-11-14T22:43:08.273Z,,,,,,,,,,6703.371000000043,completion,,,,,,,low,high,,,,,,false,,,,false,635204.099999994,635204,628484.04,628484.599999994,628500.629,635213.682,4,500,,
trial,html.Screen,10_40_0,2023-11-14T22:43:14.937Z,,,,1,0.0456515796420274,-0.0273567130070961,,false,hh,6654.2179999910295,response,0.4792703311588016,0.4301803374192338,-0.49283817751684555,0.5019358086366322,0.4841619131557443,-0.46891966554711634,high,high,,ISIC_0068610.JPG,8,ISIC_0063493.JPG,421,false,lh,keypress(e),0,false,641868.099999994,641867.8999999911,635197.22,635204.200000003,635213.682,641876.703,4,500,41,
break,html.Screen,10_40_1,2023-11-14T22:43:14.938Z,,,,,,,,,,NaN,,,,,,,,high,high,,,,,,false,,,,false,641868.5,641868.3999999911,,641868.099999994,,641876.703,4,500,,
break_continue,html.Screen,10_40_2,2023-11-14T22:43:14.938Z,,,,,,,,,,NaN,,,,,,,,high,high,,,,,,false,,,,false,641868.700000003,641868.700000003,,641868.5,,641876.703,4,500,,
sequence,flow.Sequence,10_40,2023-11-14T22:43:14.938Z,,,,,,,,,,6655.01800000295,completion,,,,,,,high,high,,,,,,false,,,,false,641868.8999999911,641868.700000003,635197.22,635204.200000003,635213.682,641876.703,4,500,,
trial,html.Screen,10_41_0,2023-11-14T22:43:20.827Z,,,,1,0.0116094682222121,-0.0258434522530318,,true,hh,5880.59699999704,response,0.3616229012242534,0.4301803374192338,-0.49283817751684555,0.4343243480445005,0.4841619131557443,-0.46891966554711634,high,high,,ISIC_9239632.JPG,8,ISIC_0013525.JPG,421,false,hh,keypress(i),0,false,647757.700000003,647757.299999997,641860.048,641869,641876.703,647771.529,4,500,42,
break,html.Screen,10_41_1,2023-11-14T22:43:20.828Z,,,,,,,,,,NaN,,,,,,,,high,high,,,,,,false,,,,false,647758.700000003,647758.5,,647758,,647771.529,4,500,,
break_continue,html.Screen,10_41_2,2023-11-14T22:43:20.829Z,,,,,,,,,,NaN,,,,,,,,high,high,,,,,,false,,,,false,647759.3999999911,647759.200000003,,647759,,647771.529,4,500,,
sequence,flow.Sequence,10_41,2023-11-14T22:43:20.829Z,,,,,,,,,,5882.497000003001,completion,,,,,,,high,high,,,,,,false,,,,false,647759.799999997,647759.200000003,641860.048,641868.8999999911,641876.703,647771.529,4,500,,
trial,html.Screen,10_42_0,2023-11-14T22:43:27.162Z,,,,1,-0.0644357632656846,-0.0501167370292348,,false,hh,6320.770999997039,response,0.6243137808170693,0.4301803374192338,-0.49283817751684555,0.6129525195571941,0.4841619131557443,-0.46891966554711634,high,high,,ISIC_5207050.JPG,9,ISIC_0026089.JPG,421,false,hl,keypress(j),0,false,654092.5,654092.299999997,647754.777,647760,647771.529,654100.442,4,500,43,
break,html.Screen,10_42_1,2023-11-14T22:43:27.163Z,,,,,,,,,,NaN,,,,,,,,high,high,,,,,,false,,,,false,654093.3999999911,654093.200000003,,654092.799999997,,654100.442,4,500,,
break_continue,html.Screen,10_42_2,2023-11-14T22:43:27.163Z,,,,,,,,,,NaN,,,,,,,,high,high,,,,,,false,,,,false,654093.799999997,654093.799999997,,654093.5,,654100.442,4,500,,
sequence,flow.Sequence,10_42,2023-11-14T22:43:27.163Z,,,,,,,,,,6322.270999997039,completion,,,,,,,high,high,,,,,,false,,,,false,654094.099999994,654093.799999997,647754.777,647760,647771.529,654100.442,4,500,,
trial,html.Screen,10_43_0,2023-11-14T22:43:31.970Z,,,,1,0.0247880219471745,-0.0687761754603142,,false,lh,4800.357999996981,response,-0.6644564772440529,0.4301803374192338,-0.49283817751684555,0.3050375977194207,0.4841619131557443,-0.46891966554711634,low,high,,ISIC_0031745.JPG,9,ISIC_0327406.JPG,251,false,ll,keypress(f),0,false,658901,658900.799999997,654083.934,654094.200000003,654100.442,658909.768,4,500,44,
break,html.Screen,10_43_1,2023-11-14T22:43:31.971Z,,,,,,,,,,NaN,,,,,,,,low,high,,,,,,false,,,,false,658902,658901.799999997,,658901.3999999911,,658909.768,4,500,,
break_continue,html.Screen,10_43_2,2023-11-14T22:43:31.972Z,,,,,,,,,,NaN,,,,,,,,low,high,,,,,,false,,,,false,658902.799999997,658902.599999994,,658902.3999999911,,658909.768,4,500,,
sequence,flow.Sequence,10_43,2023-11-14T22:43:31.972Z,,,,,,,,,,4802.157999994,completion,,,,,,,low,high,,,,,,false,,,,false,658903.099999994,658902.599999994,654083.934,654094.200000003,654100.442,658909.768,4,500,,
trial,html.Screen,10_44_0,2023-11-14T22:43:36.908Z,,,,1,-0.0737104822171846,0.0725320314728604,,false,lh,4927.3319999939995,response,-0.3374276138118832,0.4301803374192338,-0.49283817751684555,0.3157479238867785,0.4841619131557443,-0.46891966554711634,low,high,,ISIC_0002862.JPG,9,ISIC_3009493.JPG,251,false,ll,keypress(f),0,false,663837.5,663837.099999994,658893.34,658903.299999997,658909.768,663852.907,4,500,45,
break,html.Screen,10_44_1,2023-11-14T22:43:36.910Z,,,,,,,,,,NaN,,,,,,,,low,high,,,,,,false,,,,false,663838.700000003,663838.299999997,,663837.8999999911,,663852.907,4,500,,
break_continue,html.Screen,10_44_2,2023-11-14T22:43:36.910Z,,,,,,,,,,NaN,,,,,,,,low,high,,,,,,false,,,,false,663839.3999999911,663839.200000003,,663838.8999999911,,663852.907,4,500,,
sequence,flow.Sequence,10_44,2023-11-14T22:43:36.911Z,,,,,,,,,,4929.43200000294,completion,,,,,,,low,high,,,,,,false,,,,false,663839.700000003,663839.200000003,658893.34,658903.299999997,658909.768,663852.907,4,500,,
trial,html.Screen,10_45_0,2023-11-14T22:43:39.892Z,,,,1,0.0415913596725838,-0.0543422987007948,,true,hh,2968.2930000029737,response,0.6063337255676071,0.4301803374192338,-0.49283817751684555,0.4257984114692941,0.4841619131557443,-0.46891966554711634,high,high,,ISIC_0027956.JPG,9,ISIC_5396394.JPG,421,false,hh,keypress(i),0,false,666821.3999999911,666821.200000003,663836.128,663839.8999999911,663852.907,666825.184,4,500,46,
break,html.Screen,10_45_1,2023-11-14T22:43:39.893Z,,,,,,,,,,NaN,,,,,,,,high,high,,,,,,false,,,,false,666822.5,666822.299999997,,666821.799999997,,666825.184,4,500,,
break_continue,html.Screen,10_45_2,2023-11-14T22:43:39.894Z,,,,,,,,,,NaN,,,,,,,,high,high,,,,,,false,,,,false,666823.200000003,666823,,666822.700000003,,666825.184,4,500,,
sequence,flow.Sequence,10_45,2023-11-14T22:43:39.894Z,,,,,,,,,,2970.0929999999935,completion,,,,,,,high,high,,,,,,false,,,,false,666823.5,666823,663836.128,663839.799999997,663852.907,666825.184,4,500,,
trial,html.Screen,10_46_0,2023-11-14T22:43:44.554Z,,,,1,0.007397293189458,0.0174716772037504,,true,ll,4658.115999997011,response,-0.3517062969535079,0.4301803374192338,-0.49283817751684555,-0.5230680436523636,0.4841619131557443,-0.46891966554711634,low,low,,ISIC_0056226.JPG,9,ISIC_8863344.JPG,491,false,ll,keypress(f),0,false,671483.5,671483.299999997,666808.55,666823.700000003,666825.184,671501.895,4,500,47,
break,html.Screen,10_46_1,2023-11-14T22:43:44.555Z,,,,,,,,,,NaN,,,,,,,,low,low,,,,,,false,,,,false,671483.799999997,671483.700000003,,671483.5,,671501.895,4,500,,
break_continue,html.Screen,10_46_2,2023-11-14T22:43:44.555Z,,,,,,,,,,NaN,,,,,,,,low,low,,,,,,false,,,,false,671483.8999999911,671483.8999999911,,671483.799999997,,671501.895,4,500,,
sequence,flow.Sequence,10_46,2023-11-14T22:43:44.555Z,,,,,,,,,,4658.715999991051,completion,,,,,,,low,low,,,,,,false,,,,false,671484,671483.8999999911,666808.55,666823.700000003,666825.184,671501.895,4,500,,
trial,html.Screen,10_47_0,2023-11-14T22:43:49.580Z,,,,1,0.0194167651857046,0.0726253809408601,,true,hl,5007.305000002962,response,0.2609452934218987,0.4301803374192338,-0.49283817751684555,-0.3953811749134843,0.4841619131557443,-0.46891966554711634,high,low,,ISIC_0056692.JPG,9,ISIC_0025324.JPG,315,false,hl,keypress(j),0,false,676509.599999994,676509.200000003,671467.655,671484,671501.895,676544.375,4,500,48,
break,html.Screen,10_47_1,2023-11-14T22:43:49.582Z,,,,,,,,,,NaN,,,,,,,,high,low,,,,,,false,,,,false,676510.700000003,676510.5,,676510,,676544.375,4,500,,
break_continue,html.Screen,10_47_2,2023-11-14T22:43:49.582Z,,,,,,,,,,NaN,,,,,,,,high,low,,,,,,false,,,,false,676511.3999999911,676511.200000003,,676510.8999999911,,676544.375,4,500,,
sequence,flow.Sequence,10_47,2023-11-14T22:43:49.583Z,,,,,,,,,,5009.305000002962,completion,,,,,,,high,low,,,,,,false,,,,false,676511.599999994,676511.200000003,671467.655,671484,671501.895,676544.375,4,500,,
trial,html.Screen,10_48_0,2023-11-14T22:43:54.579Z,,,,1,0.0194167651857046,0.0726253809408601,,false,lh,4963.42499999702,response,-0.4202878811699705,0.4301803374192338,-0.49283817751684555,0.4445974730929796,0.4841619131557443,-0.46891966554711634,low,high,,ISIC_0056692.JPG,9,ISIC_9011718.JPG,251,false,hh,keypress(i),0,false,681507.8999999911,681507.799999997,676527.452,676511.8999999911,676544.375,681520.472,4,500,49,
break,html.Screen,10_48_1,2023-11-14T22:43:54.579Z,,,,,,,,,,NaN,,,,,,,,low,high,,,,,,false,,,,false,681508.200000003,681508.099999994,,681508,,681520.472,4,500,,
break_continue,html.Screen,10_48_2,2023-11-14T22:43:54.579Z,,,,,,,,,,NaN,,,,,,,,low,high,,,,,,false,,,,false,681508.3999999911,681508.299999997,,681508.200000003,,681520.472,4,500,,
sequence,flow.Sequence,10_48,2023-11-14T22:43:54.579Z,,,,,,,,,,4963.92499999702,completion,,,,,,,low,high,,,,,,false,,,,false,681508.3999999911,681508.299999997,676527.452,676511.799999997,676544.375,681520.472,4,500,,
trial,html.Screen,10_49_0,2023-11-14T22:43:59.812Z,,,,1,-0.0134764727102299,-0.0033499036460912,,false,ll,5220.72800000303,response,-0.6673275088080878,0.4301803374192338,-0.49283817751684555,-0.3878495525363343,0.4841619131557443,-0.46891966554711634,low,low,,ISIC_0009998.JPG,9,ISIC_9395707.JPG,491,false,hl,keypress(j),0,false,686741.599999994,686741.200000003,681504.028,681508.3999999911,681520.472,686747.295,4,500,50,
break,html.Screen,10_49_1,2023-11-14T22:43:59.814Z,,,,,,,,,,NaN,,,,,,,,low,low,,,,,,false,,,,false,686742.8999999911,686742.5,,686742.099999994,,686747.295,4,500,,
break_continue,html.Screen,10_49_2,2023-11-14T22:43:59.814Z,,,,,,,,,,NaN,,,,,,,,low,low,,,,,,false,,,,false,686743.599999994,686743.299999997,,686743,,686747.295,4,500,,
sequence,flow.Sequence,10_49,2023-11-14T22:43:59.815Z,,,,,,,,,,5222.827999997069,completion,,,,,,,low,low,,,,,,false,,,,false,686743.8999999911,686743.299999997,681504.028,681508.3999999911,681520.472,686747.295,4,500,,
