sender,sender_type,sender_id,timestamp,meta,,age,blockNo,c1,c2,condition,correct,correctResponse,duration,ended_on,f1,f1_high,f1_low,f2,f2_high,f2_low,feature_level1,feature_level2,gender,img_left,img_reveal,img_right,n_target_images,practice,response,response_action,selection_duration,staircase,time_commit,time_end,time_render,time_run,time_show,time_switch,total_blocks,total_trials,trialNo,url
informed_consent,html.Screen,0,2023-11-14T19:37:15.841Z,"{""labjs_version"":""20.2.4"",""labjs_build"":{""flavor"":""development"",""commit"":""f5b4a49f956347addd546a832a3327688c2c0fef""},""location"":""https://labjs.felixhenninger.com/api/labjs_preview/index.html"",""userAgent"":""Mozilla/5.0 (Windows NT 10.0; Win64; x64) AppleWebKit/537.36 (KHTML, like Gecko) Chrome/119.0.0.0 Safari/537.36"",""platform"":""Win32"",""language"":""en-US"",""locale"":""en-US"",""timeZone"":""America/Chicago"",""timezoneOffset"":360,""screen_width"":1920,""screen_height"":1080,""scroll_width"":945,""scroll_height"":918,""window_innerWidth"":945,""window_innerHeight"":966,""devicePixelRatio"":1}",,,,,,,,,20775.699999999255,response,,,,,,,,,,,,,,,consent,click button,,,21445,21436.199999999255,643.877,633.1999999992549,660.5,21443.795,,,,{}
Demography form,html.Form,1,2023-11-14T19:37:22.609Z,,,20,,,,,,,6768.705000000002,form submission,,,,,,,,,female,,,,,,,,,,28212.699999999255,28212.5,21427.374,21445.300000000745,21443.795,28227.326,,,,
Welcome,html.Screen,2,2023-11-14T19:37:43.921Z,,,,,,,"[""bor"",""col""]",,,21296.474000000744,response,,,,,,,,,,,,,,,continue,click button,,,49524.300000000745,49523.800000000745,28210.432,28212.800000000745,28227.326,49543.748,,,,
demo_instructions,html.Screen,3,2023-11-14T19:38:19.802Z,,,,,,,,,,35860.052000000745,response,,,,,,,,,,,,,,,continue,click button,,,85404.39999999851,85403.80000000075,49527.02,49524.5,49543.748,85410.247,,,,
trial,html.Screen,4_0_0,2023-11-14T19:38:37.118Z,,,,0,0.9662688541319592,-0.929746784178986,,true,lh,17309.652999998507,response,-0.8472024037189965,0.8999999999999997,-0.8999999999999997,0.986370061404882,0.8999999999999997,-0.8999999999999997,low,high,,ISIC_0011077.JPG,,ISIC_0054355.JPG,29,true,lh,keypress(e),100,false,102720.39999999851,102719.89999999851,85393.837,85404.5,85410.247,102743.679,1,16,1,
sequence,flow.Sequence,4_0,2023-11-14T19:38:37.118Z,,,,,,,,,,17309.652999998507,completion,,,,,,,low,high,,,,,,true,,,,false,102721,102719.89999999851,85393.837,85404.5,85410.247,102743.679,1,16,,
trial,html.Screen,4_1_0,2023-11-14T19:38:49.880Z,,,,0,0.8500530224490773,-1.0893360711742854,,true,lh,12738.921000001486,response,-0.8954803463300026,0.8999999999999997,-0.8999999999999997,0.7071819047913821,0.8999999999999997,-0.8999999999999997,low,high,,ISIC_2998367.JPG,,ISIC_0033071.JPG,29,true,lh,keypress(e),100,false,115483,115482.60000000149,102726.947,102721.19999999925,102743.679,115510.286,1,16,2,
sequence,flow.Sequence,4_1,2023-11-14T19:38:49.881Z,,,,,,,,,,12738.921000001486,completion,,,,,,,low,high,,,,,,true,,,,false,115483.60000000149,115482.60000000149,102726.947,102721.19999999925,102743.679,115510.286,1,16,,
trial,html.Screen,4_2_0,2023-11-14T19:39:00.770Z,,,,0,0.7079689798840642,-0.9053957126199562,,true,lh,10862.113999998517,response,-0.7411887874358276,0.8999999999999997,-0.8999999999999997,0.7869222465141029,0.8999999999999997,-0.8999999999999997,low,high,,ISIC_0058863.JPG,,ISIC_6255113.JPG,29,true,lh,keypress(e),100,false,126372.89999999851,126372.39999999851,115493.631,115484,115510.286,126393.672,1,16,3,
sequence,flow.Sequence,4_2,2023-11-14T19:39:00.771Z,,,,,,,,,,10862.113999998517,completion,,,,,,,low,high,,,,,,true,,,,false,126373.60000000149,126372.39999999851,115493.631,115483.80000000075,115510.286,126393.672,1,16,,
trial,html.Screen,4_3_0,2023-11-14T19:39:06.589Z,,,,0,0.7468466922606799,-0.7486692996330936,,true,lh,5797.527999999249,response,-0.8034318937720549,0.8999999999999997,-0.8999999999999997,1.0024917298189338,0.8999999999999997,-0.8999999999999997,low,high,,ISIC_0025508.JPG,,ISIC_0032766.JPG,29,true,lh,keypress(e),100,false,132191.69999999925,132191.19999999925,126376.875,126374,126393.672,132210.293,1,16,4,
sequence,flow.Sequence,4_3,2023-11-14T19:39:06.590Z,,,,,,,,,,5797.527999999249,completion,,,,,,,low,high,,,,,,true,,,,false,132192.3999999985,132191.19999999925,126376.875,126373.80000000075,126393.672,132210.293,1,16,,
trial,html.Screen,4_4_0,2023-11-14T19:39:18.296Z,,,,0,0.969783065011348,0.7406267166574104,,true,ll,11688.706999999995,response,-1.0190532895055715,0.8999999999999997,-0.8999999999999997,-0.7834576930584719,0.8999999999999997,-0.8999999999999997,low,low,,ISIC_0064907.JPG,,ISIC_5798015.JPG,169,true,ll,keypress(f),100,false,143899.5,143899,132193.585,132192.80000000075,132210.293,143926.791,1,16,5,
sequence,flow.Sequence,4_4,2023-11-14T19:39:18.297Z,,,,,,,,,,11688.706999999995,completion,,,,,,,low,low,,,,,,true,,,,false,143900.1000000015,143899,132193.585,132192.69999999925,132210.293,143926.791,1,16,,
trial,html.Screen,4_5_0,2023-11-14T19:39:22.243Z,,,,0,1.0679712388489528,1.0509600192807842,,true,ll,3919.1089999985124,response,-0.9402130139680346,0.8999999999999997,-0.8999999999999997,-0.7812904751512695,0.8999999999999997,-0.8999999999999997,low,low,,ISIC_0015180.JPG,,ISIC_8956001.JPG,169,true,ll,keypress(f),100,false,147846.30000000075,147845.8999999985,143910.127,143900.3999999985,143926.791,147876.855,1,16,6,
sequence,flow.Sequence,4_5,2023-11-14T19:39:22.244Z,,,,,,,,,,3919.1089999985124,completion,,,,,,,low,low,,,,,,true,,,,false,147846.69999999925,147845.8999999985,143910.127,143900.30000000075,143926.791,147876.855,1,16,,
trial,html.Screen,4_6_0,2023-11-14T19:39:26.699Z,,,,0,0.985308473785524,0.958447814554682,,true,ll,4425.044999998499,response,-0.7945270488878992,0.8999999999999997,-0.8999999999999997,-0.9054354695775536,0.8999999999999997,-0.8999999999999997,low,low,,ISIC_0054914.JPG,,ISIC_5820693.JPG,169,true,ll,keypress(f),100,false,152302.19999999925,152301.8999999985,147860.401,147846.8999999985,147876.855,152326.963,1,16,7,
sequence,flow.Sequence,4_6,2023-11-14T19:39:26.700Z,,,,,,,,,,4425.044999998499,completion,,,,,,,low,low,,,,,,true,,,,false,152302.80000000075,152301.8999999985,147860.401,147846.8999999985,147876.855,152326.963,1,16,,
trial,html.Screen,4_7_0,2023-11-14T19:39:29.990Z,,,,0,1.0437879361189135,1.0467954238943018,,true,ll,3265.537000000011,response,-0.9394358755892184,0.8999999999999997,-0.8999999999999997,-1.0256934713188917,0.8999999999999997,-0.8999999999999997,low,low,,ISIC_0011626.JPG,,ISIC_4264600.JPG,169,true,ll,keypress(f),100,false,155592.80000000075,155592.5,152310.153,152303,152326.963,155610.363,1,16,8,
sequence,flow.Sequence,4_7,2023-11-14T19:39:29.990Z,,,,,,,,,,3265.537000000011,completion,,,,,,,low,low,,,,,,true,,,,false,155593.30000000075,155592.5,152310.153,152303,152326.963,155610.363,1,16,,
trial,html.Screen,4_8_0,2023-11-14T19:39:39.533Z,,,,0,-0.7308116448711435,0.908713834988551,,true,hl,9525.836999999243,response,1.0116417541846066,0.8999999999999997,-0.8999999999999997,-1.033442916947398,0.8999999999999997,-0.8999999999999997,high,low,,ISIC_7811951.JPG,,ISIC_0031389.JPG,43,true,hl,keypress(j),100,false,165136.3999999985,165136.19999999925,155593.533,155593.5,155610.363,165160.089,1,16,9,
sequence,flow.Sequence,4_8,2023-11-14T19:39:39.534Z,,,,,,,,,,9525.836999999243,completion,,,,,,,high,low,,,,,,true,,,,false,165136.69999999925,165136.19999999925,155593.533,155593.5,155610.363,165160.089,1,16,,
trial,html.Screen,4_9_0,2023-11-14T19:39:42.913Z,,,,0,-0.8830264383952469,0.8635562538060516,,true,hl,3355.511000001483,response,0.9752130063130028,0.8999999999999997,-0.8999999999999997,-0.7248550908059443,0.8999999999999997,-0.8999999999999997,high,low,,ISIC_0032258.JPG,,ISIC_5190484.JPG,43,true,hl,keypress(j),100,false,168515.80000000075,168515.6000000015,165143.567,165136.80000000075,165160.089,168543.404,1,16,10,
sequence,flow.Sequence,4_9,2023-11-14T19:39:42.913Z,,,,,,,,,,3355.511000001483,completion,,,,,,,high,low,,,,,,true,,,,false,168516.1000000015,168515.6000000015,165143.567,165136.80000000075,165160.089,168543.404,1,16,,
trial,html.Screen,4_10_0,2023-11-14T19:39:49.077Z,,,,0,-0.8110121381849364,0.7563142141851558,,true,hl,6136.696000001481,response,0.7856143618373893,0.8999999999999997,-0.8999999999999997,-1.0273608829432213,0.8999999999999997,-0.8999999999999997,high,low,,ISIC_0033605.JPG,,ISIC_9303849.JPG,43,true,hl,keypress(j),100,false,174680.5,174680.1000000015,168526.732,168516.30000000075,168543.404,174710.098,1,16,11,
sequence,flow.Sequence,4_10,2023-11-14T19:39:49.078Z,,,,,,,,,,6136.696000001481,completion,,,,,,,high,low,,,,,,true,,,,false,174681,174680.1000000015,168526.732,168516.30000000075,168543.404,174710.098,1,16,,
trial,html.Screen,4_11_0,2023-11-14T19:39:53.393Z,,,,0,-0.8719231363109603,0.7704280220140033,,true,hl,4285.801999998512,response,0.7438008784971919,0.8999999999999997,-0.8999999999999997,-0.7701607600068142,0.8999999999999997,-0.8999999999999997,high,low,,ISIC_0029453.JPG,,ISIC_8493108.JPG,43,true,hl,keypress(j),100,false,178996.30000000075,178995.8999999985,174693.494,174681.30000000075,174710.098,179026.95,1,16,12,
sequence,flow.Sequence,4_11,2023-11-14T19:39:53.394Z,,,,,,,,,,4285.801999998512,completion,,,,,,,high,low,,,,,,true,,,,false,178997,178995.8999999985,174693.494,174681.1000000015,174710.098,179026.95,1,16,,
trial,html.Screen,4_12_0,2023-11-14T19:40:00.713Z,,,,0,-1.001866590114321,-1.080719641270871,,true,hh,7288.850000000733,response,0.8657346220870833,0.8999999999999997,-0.8999999999999997,0.8760088166744258,0.8999999999999997,-0.8999999999999997,high,high,,ISIC_0663941.JPG,,ISIC_0029433.JPG,184,true,hh,keypress(i),100,false,186316.1000000015,186315.80000000075,179010.311,178997.3999999985,179026.95,186343.372,1,16,13,
sequence,flow.Sequence,4_12,2023-11-14T19:40:00.714Z,,,,,,,,,,7288.850000000733,completion,,,,,,,high,high,,,,,,true,,,,false,186316.80000000075,186315.80000000075,179010.311,178997.30000000075,179026.95,186343.372,1,16,,
trial,html.Screen,4_13_0,2023-11-14T19:40:05.748Z,,,,0,-0.8571747957352402,-0.9896604996768869,,true,hh,5007.627999999997,response,0.9737567085091248,0.8999999999999997,-0.8999999999999997,0.9013996680304692,0.8999999999999997,-0.8999999999999997,high,high,,ISIC_5363229.JPG,,ISIC_2483825.JPG,184,true,hh,keypress(i),100,false,191351.1000000015,191351,186326.731,186317,186343.372,191376.674,1,16,14,
sequence,flow.Sequence,4_13,2023-11-14T19:40:05.748Z,,,,,,,,,,5007.627999999997,completion,,,,,,,high,high,,,,,,true,,,,false,191351.30000000075,191351,186326.731,186316.8999999985,186343.372,191376.674,1,16,,
trial,html.Screen,4_14_0,2023-11-14T19:40:09.432Z,,,,0,-0.8363634080775226,-0.899694322339037,,true,hh,3658.426000001491,response,0.75996191963944,0.8999999999999997,-0.8999999999999997,0.892224452814347,0.8999999999999997,-0.8999999999999997,high,high,,ISIC_0007257.JPG,,ISIC_0064997.JPG,184,true,hh,keypress(i),100,false,195035.3999999985,195035.1000000015,191360.218,191351.3999999985,191376.674,195059.995,1,16,15,
sequence,flow.Sequence,4_14,2023-11-14T19:40:09.433Z,,,,,,,,,,3658.426000001491,completion,,,,,,,high,high,,,,,,true,,,,false,195035.8999999985,195035.1000000015,191360.218,191351.3999999985,191376.674,195059.995,1,16,,
trial,html.Screen,4_15_0,2023-11-14T19:40:12.385Z,,,,0,-1.0348000491894005,-0.7770667763745356,,true,hh,2926.8050000007497,response,0.8795523971208432,0.8999999999999997,-0.8999999999999997,1.035069030839197,0.8999999999999997,-0.8999999999999997,high,high,,ISIC_2565154.JPG,,ISIC_0069635.JPG,184,true,hh,keypress(i),100,false,197986.8999999985,197986.80000000075,195043.36,195036.1000000015,195059.995,198009.987,1,16,16,
sequence,flow.Sequence,4_15,2023-11-14T19:40:12.385Z,,,,,,,,,,2926.8050000007497,completion,,,,,,,high,high,,,,,,true,,,,false,197987.1000000015,197986.80000000075,195043.36,195036,195059.995,198009.987,1,16,,
demonstration_loop,flow.Loop,4,2023-11-14T19:40:12.385Z,,,,,,,,,,112576.55300000074,completion,,,,,,,,,,,,,,true,,,,false,197987.19999999925,197986.80000000075,85393.837,85404.39999999851,85410.247,198009.987,1,16,,
practice_instructions,html.Screen,5,2023-11-14T19:40:18.394Z,,,,,,,,,,5977.712999999261,response,,,,,,,,,,,,,,,continue,click button,,,203995.6000000015,203987.69999999925,197993.295,197987.30000000075,198009.987,203993.279,,,,
trial,html.Screen,6_0_0,2023-11-14T19:40:25.033Z,,,,1,0.7648337515968654,1.0074582761138169,,true,ll,6634.6209999985,response,-1.000073518730644,0.8999999999999997,-0.8999999999999997,-0.7557291255005921,0.8999999999999997,-0.8999999999999997,low,low,,ISIC_0011422.JPG,,ISIC_0028462.JPG,169,true,ll,keypress(f),0,false,210635,210627.8999999985,203976.85,203995.80000000075,203993.279,210643.264,1,20,1,
sequence,flow.Sequence,6_0,2023-11-14T19:40:25.033Z,,,,,,,,,,6634.6209999985,completion,,,,,,,low,low,,,,,,true,,,,false,210635.1000000015,210627.8999999985,203976.85,203995.69999999925,203993.279,210643.264,1,20,,
trial,html.Screen,6_1_0,2023-11-14T19:40:36.026Z,,,,1,0.7692916291112835,-0.7818604706992622,,,,11016.697000000015,timeout,-0.8472024037189965,0.8999999999999997,-0.8999999999999997,0.986370061404882,0.8999999999999997,-0.8999999999999997,low,high,,ISIC_7844825.JPG,,ISIC_0054355.JPG,29,true,,,0,false,221627.8999999985,221627.6000000015,210626.551,210635.1000000015,210643.264,221659.961,1,20,2,
sequence,flow.Sequence,6_1,2023-11-14T19:40:36.026Z,,,,,,,,,,10984.336000001495,completion,,,,,,,low,high,,,,,,true,,,,false,221628.30000000075,221627.6000000015,210626.551,210635.1000000015,210643.264,221659.961,1,20,,
trial,html.Screen,6_2_0,2023-11-14T19:40:40.948Z,,,,1,-0.771782427598807,-1.0831630135341803,,true,hh,4890.13900000148,response,1.071312313440387,0.8999999999999997,-0.8999999999999997,1.0935391476164529,0.8999999999999997,-0.8999999999999997,high,high,,ISIC_7340247.JPG,,ISIC_0063680.JPG,184,true,hh,keypress(i),0,false,226550.3999999985,226550.1000000015,221643.373,221628.5,221659.961,226559.941,1,20,3,
sequence,flow.Sequence,6_2,2023-11-14T19:40:40.949Z,,,,,,,,,,4890.13900000148,completion,,,,,,,high,high,,,,,,true,,,,false,226550.80000000075,226550.1000000015,221643.373,221628.3999999985,221659.961,226559.941,1,20,,
trial,html.Screen,6_3_0,2023-11-14T19:40:46.851Z,,,,1,0.8303988931124209,0.7584196520116688,,true,ll,5892.859000000753,response,-0.8919402924145458,0.8999999999999997,-0.8999999999999997,-1.0374085478567705,0.8999999999999997,-0.8999999999999997,low,low,,ISIC_0011484.JPG,,ISIC_0026371.JPG,169,true,ll,keypress(f),0,false,232453,232452.80000000075,226543.265,226551,226559.941,232459.848,1,20,4,
sequence,flow.Sequence,6_3,2023-11-14T19:40:46.851Z,,,,,,,,,,5892.859000000753,completion,,,,,,,low,low,,,,,,true,,,,false,232453.19999999925,232452.80000000075,226543.265,226551,226559.941,232459.848,1,20,,
trial,html.Screen,6_4_0,2023-11-14T19:40:56.349Z,,,,1,-0.904926943774141,-0.8630923941752319,,true,hh,9491.051999998512,response,0.9836672814341636,0.8999999999999997,-0.8999999999999997,1.0629122718286683,0.8999999999999997,-0.8999999999999997,high,high,,ISIC_4573624.JPG,,ISIC_0062161.JPG,184,true,hh,keypress(i),0,false,241951.1000000015,241950.8999999985,232442.994,232453.3999999985,232459.848,241959.904,1,20,5,
sequence,flow.Sequence,6_4,2023-11-14T19:40:56.350Z,,,,,,,,,,9491.051999998512,completion,,,,,,,high,high,,,,,,true,,,,false,241951.5,241950.8999999985,232442.994,232453.30000000075,232459.848,241959.904,1,20,,
trial,html.Screen,6_5_0,2023-11-14T19:41:03.100Z,,,,1,1.0789425085962503,0.7554447571704619,,true,ll,6741.9959999985,response,-1.00975234958099,0.8999999999999997,-0.8999999999999997,-0.958677033057289,0.8999999999999997,-0.8999999999999997,low,low,,ISIC_9797578.JPG,,ISIC_0976232.JPG,169,true,ll,keypress(f),0,false,248702.19999999925,248701.8999999985,241942.86,241951.69999999925,241959.904,248709.801,1,20,6,
sequence,flow.Sequence,6_5,2023-11-14T19:41:03.101Z,,,,,,,,,,6741.9959999985,completion,,,,,,,low,low,,,,,,true,,,,false,248702.6000000015,248701.8999999985,241942.86,241951.69999999925,241959.904,248709.801,1,20,,
trial,html.Screen,6_6_0,2023-11-14T19:41:07.892Z,,,,1,-0.8614312505426347,-1.0055649935805588,,true,hh,4783.999000000738,response,1.0918237468930412,0.8999999999999997,-0.8999999999999997,1.0199940959248062,0.8999999999999997,-0.8999999999999997,high,high,,ISIC_6946260.JPG,,ISIC_0064120.JPG,184,true,hh,keypress(i),0,false,253494,253493.80000000075,248693.083,248702.80000000075,248709.801,253509.866,1,20,7,
sequence,flow.Sequence,6_6,2023-11-14T19:41:07.892Z,,,,,,,,,,4783.999000000738,completion,,,,,,,high,high,,,,,,true,,,,false,253494.3999999985,253493.80000000075,248693.083,248702.80000000075,248709.801,253509.866,1,20,,
trial,html.Screen,6_7_0,2023-11-14T19:41:12.980Z,,,,1,-0.9876902672925608,-0.7493151990739595,,true,hh,5071.133999999991,response,0.9688707770680516,0.8999999999999997,-0.8999999999999997,0.9499175879831224,0.8999999999999997,-0.8999999999999997,high,high,,ISIC_2259190.JPG,,ISIC_0024962.JPG,184,true,hh,keypress(i),0,false,258581.1000000015,258581,253493.125,253494.6000000015,253509.866,258593.198,1,20,8,
sequence,flow.Sequence,6_7,2023-11-14T19:41:12.980Z,,,,,,,,,,5071.133999999991,completion,,,,,,,high,high,,,,,,true,,,,false,258581.30000000075,258581,253493.125,253494.6000000015,253509.866,258593.198,1,20,,
trial,html.Screen,6_8_0,2023-11-14T19:41:17.525Z,,,,1,-0.9653573371180936,0.854766800381037,,true,hl,4533.201999998506,response,0.7396001261916139,0.8999999999999997,-0.8999999999999997,-0.9901017340796716,0.8999999999999997,-0.8999999999999997,high,low,,ISIC_9640145.JPG,,ISIC_8679617.JPG,43,true,hl,keypress(j),0,false,263126.69999999925,263126.3999999985,258576.325,258581.30000000075,258593.198,263143.296,1,20,9,
sequence,flow.Sequence,6_8,2023-11-14T19:41:17.525Z,,,,,,,,,,4533.201999998506,completion,,,,,,,high,low,,,,,,true,,,,false,263127.1000000015,263126.3999999985,258576.325,258581.30000000075,258593.198,263143.296,1,20,,
trial,html.Screen,6_9_0,2023-11-14T19:41:23.661Z,,,,1,0.7331902152638365,0.9466874538814276,,true,ll,6119.304000001517,response,-0.9473579617457568,0.8999999999999997,-0.8999999999999997,-0.7787784704155521,0.8999999999999997,-0.8999999999999997,low,low,,ISIC_0012107.JPG,,ISIC_0012037.JPG,169,true,ll,keypress(f),0,false,269262.8999999985,269262.6000000015,263126.538,263127.19999999925,263143.296,269276.508,1,20,10,
sequence,flow.Sequence,6_9,2023-11-14T19:41:23.662Z,,,,,,,,,,6119.304000001517,completion,,,,,,,low,low,,,,,,true,,,,false,269263.30000000075,269262.6000000015,263126.538,263127.19999999925,263143.296,269276.508,1,20,,
trial,html.Screen,6_10_0,2023-11-14T19:41:32.781Z,,,,1,-0.7010101889216934,0.9022783418178474,,true,hl,9105.891999998537,response,0.9244148283103414,0.8999999999999997,-0.8999999999999997,-0.9712966348713286,0.8999999999999997,-0.8999999999999997,high,low,,ISIC_0057858.JPG,,ISIC_7927525.JPG,43,true,hl,keypress(j),0,false,278382.69999999925,278382.3999999985,269259.681,269263.5,269276.508,278393.092,1,20,11,
sequence,flow.Sequence,6_10,2023-11-14T19:41:32.781Z,,,,,,,,,,9105.891999998537,completion,,,,,,,high,low,,,,,,true,,,,false,278383.1000000015,278382.3999999985,269259.681,269263.3999999985,269276.508,278393.092,1,20,,
trial,html.Screen,6_11_0,2023-11-14T19:41:38.203Z,,,,1,-0.8110121381849364,0.7563142141851558,,true,hl,5411.607999999251,response,0.8987343013179191,0.8999999999999997,-0.8999999999999997,-0.8149073454566363,0.8999999999999997,-0.8999999999999997,high,low,,ISIC_0033605.JPG,,ISIC_0472513.JPG,43,true,hl,keypress(j),0,false,283804.69999999925,283804.69999999925,278376.115,278383.30000000075,278393.092,283809.745,1,20,12,
sequence,flow.Sequence,6_11,2023-11-14T19:41:38.203Z,,,,,,,,,,5411.607999999251,completion,,,,,,,high,low,,,,,,true,,,,false,283804.8999999985,283804.69999999925,278376.115,278383.30000000075,278393.092,283809.745,1,20,,
trial,html.Screen,6_12_0,2023-11-14T19:41:46.404Z,,,,1,1.0116417541846066,-1.033442916947398,,true,lh,8195.654999998515,response,-1.058275612142778,0.8999999999999997,-0.8999999999999997,0.7824898568540655,0.8999999999999997,-0.8999999999999997,low,high,,ISIC_0031389.JPG,,ISIC_4906385.JPG,29,true,lh,keypress(e),0,false,292005.6000000015,292005.3999999985,283793.136,283805,283809.745,292009.76,1,20,13,
sequence,flow.Sequence,6_12,2023-11-14T19:41:46.404Z,,,,,,,,,,8195.654999998515,completion,,,,,,,low,high,,,,,,true,,,,false,292006.1000000015,292005.3999999985,283793.136,283804.8999999985,283809.745,292009.76,1,20,,
trial,html.Screen,6_13_0,2023-11-14T19:41:51.404Z,,,,1,0.9089402323867112,-0.8034544077281132,,true,lh,4995.939999999246,response,-0.9653573371180936,0.8999999999999997,-0.8999999999999997,0.854766800381037,0.8999999999999997,-0.8999999999999997,low,high,,ISIC_3585381.JPG,,ISIC_9640145.JPG,29,true,lh,keypress(e),0,false,297006,297005.69999999925,291992.937,292006.30000000075,292009.76,297009.745,1,20,14,
sequence,flow.Sequence,6_13,2023-11-14T19:41:51.405Z,,,,,,,,,,4995.939999999246,completion,,,,,,,low,high,,,,,,true,,,,false,297006.3999999985,297005.69999999925,291992.937,292006.19999999925,292009.76,297009.745,1,20,,
trial,html.Screen,6_14_0,2023-11-14T19:41:56.853Z,,,,1,0.7552468233268477,-0.71846037114465,,true,lh,5444.255000000005,response,-0.8926515927689261,0.8999999999999997,-0.8999999999999997,0.7935960767768927,0.8999999999999997,-0.8999999999999997,low,high,,ISIC_2354070.JPG,,ISIC_8901371.JPG,29,true,lh,keypress(e),0,false,302454.30000000075,302454,296992.858,297006.5,297009.745,302459.671,1,20,15,
sequence,flow.Sequence,6_14,2023-11-14T19:41:56.853Z,,,,,,,,,,5444.255000000005,completion,,,,,,,low,high,,,,,,true,,,,false,302454.6000000015,302454,296992.858,297006.3999999985,297009.745,302459.671,1,20,,
trial,html.Screen,6_15_0,2023-11-14T19:42:03.684Z,,,,1,-0.8034318937720549,1.0024917298189338,,true,hl,6826.129000000772,response,0.7629099401226335,0.8999999999999997,-0.8999999999999997,-0.8515956627075536,0.8999999999999997,-0.8999999999999997,high,low,,ISIC_0032766.JPG,,ISIC_0028718.JPG,43,true,hl,keypress(j),0,false,309286.1000000015,309285.80000000075,302442.903,302454.80000000075,302459.671,309292.988,1,20,16,
sequence,flow.Sequence,6_15,2023-11-14T19:42:03.685Z,,,,,,,,,,6826.129000000772,completion,,,,,,,high,low,,,,,,true,,,,false,309286.5,309285.80000000075,302442.903,302454.80000000075,302459.671,309292.988,1,20,,
trial,html.Screen,6_16_0,2023-11-14T19:42:08.540Z,,,,1,-0.9802565668865412,-0.7107803735101691,,true,hh,4848.511999999988,response,1.0980226451001782,0.8999999999999997,-0.8999999999999997,0.9421419207281913,0.8999999999999997,-0.8999999999999997,high,high,,ISIC_0024683.JPG,,ISIC_0060481.JPG,184,true,hh,keypress(i),0,false,314141.80000000075,314141.5,309276.158,309286.6000000015,309292.988,314176.558,1,20,17,
sequence,flow.Sequence,6_16,2023-11-14T19:42:08.541Z,,,,,,,,,,4848.511999999988,completion,,,,,,,high,high,,,,,,true,,,,false,314142.19999999925,314141.5,309276.158,309286.6000000015,309292.988,314176.558,1,20,,
trial,html.Screen,6_17_0,2023-11-14T19:42:12.989Z,,,,1,0.900981242677363,0.8834104283484265,,true,ll,4413.141999999236,response,-0.8964123098193706,0.8999999999999997,-0.8999999999999997,-0.7808381857299823,0.8999999999999997,-0.8999999999999997,low,low,,ISIC_7236365.JPG,,ISIC_2633745.JPG,169,true,ll,keypress(f),0,false,318589.8999999985,318589.69999999925,314159.857,314142.30000000075,314176.558,318592.986,1,20,18,
sequence,flow.Sequence,6_17,2023-11-14T19:42:12.990Z,,,,,,,,,,4413.141999999236,completion,,,,,,,low,low,,,,,,true,,,,false,318590.30000000075,318589.69999999925,314159.857,314142.30000000075,314176.558,318592.986,1,20,,
trial,html.Screen,6_18_0,2023-11-14T19:42:19.718Z,,,,1,-0.8830264383952469,0.8635562538060516,,true,hl,6724.913999998535,response,0.7612472458680769,0.8999999999999997,-0.8999999999999997,-0.729960233427452,0.8999999999999997,-0.8999999999999997,high,low,,ISIC_0032258.JPG,,ISIC_5307210.JPG,43,true,hl,keypress(j),0,false,325318.19999999925,325317.8999999985,318576.318,318590.6000000015,318592.986,325326.307,1,20,19,
sequence,flow.Sequence,6_18,2023-11-14T19:42:19.718Z,,,,,,,,,,6724.913999998535,completion,,,,,,,high,low,,,,,,true,,,,false,325318.6000000015,325317.8999999985,318576.318,318590.5,318592.986,325326.307,1,20,,
trial,html.Screen,6_19_0,2023-11-14T19:42:26.782Z,,,,1,0.9111352818043872,-0.7517932332411794,,true,lh,7056.092999998538,response,-0.7991459998473059,0.8999999999999997,-0.8999999999999997,1.0280788723474688,0.8999999999999997,-0.8999999999999997,low,high,,ISIC_3346045.JPG,,ISIC_7951202.JPG,29,true,lh,keypress(e),0,false,332382.6000000015,332382.3999999985,325309.529,325318.69999999925,325326.307,332392.923,1,20,20,
sequence,flow.Sequence,6_19,2023-11-14T19:42:26.782Z,,,,,,,,,,7056.092999998538,completion,,,,,,,low,high,,,,,,true,,,,false,332383.1000000015,332382.3999999985,325309.529,325318.6000000015,325326.307,332392.923,1,20,,
practice_loop,flow.Loop,6,2023-11-14T19:42:26.783Z,,,,,,,,,,128389.1209999985,completion,,,,,,,,,,,,,,true,,,,false,332383.30000000075,332382.3999999985,203976.85,203995.69999999925,203993.279,332392.923,1,20,,
stair_instructions,html.Screen,7,2023-11-14T19:42:30.355Z,,,,,,,,,,3562.3770000007353,response,,,,,,,,,,,,,,,continue,click button,,,335955.69999999925,335955.30000000075,332376.241,332383.3999999985,332392.923,335959.59,,,,
trial,html.Screen,8_0_0,2023-11-14T19:42:38.060Z,,,,2,-0.0220026381002083,0.0170756452911772,,false,ll,7700.309999998484,response,-0.7420699937090495,0.8999999999999997,-0.8999999999999997,-1.0200778943729398,0.8999999999999997,-0.8999999999999997,low,low,,ISIC_5347806.JPG,,ISIC_8785329.JPG,169,false,hl,keypress(j),0,true,343660,343659.8999999985,335942.984,335955.8999999985,335959.59,343676.371,1,40,1,
sequence,flow.Sequence,8_0,2023-11-14T19:42:38.060Z,,,,,,,,,,7700.309999998484,completion,,,,,,,low,low,,,,,,false,,,,true,343660.19999999925,343659.8999999985,335942.984,335955.8999999985,335959.59,343676.371,1,40,,
trial,html.Screen,8_1_0,2023-11-14T19:42:47.791Z,,,,2,0.0074667911845194,-0.018500200317654,,false,lh,9714.528999998525,response,-0.930804711032185,0.8499999999999996,-0.8999999999999997,0.7294067991476295,0.8499999999999996,-0.8999999999999997,low,high,,ISIC_0058723.JPG,,ISIC_5067317.JPG,35,false,hl,keypress(j),0,true,353391.1000000015,353390.8999999985,343659.56,343660.30000000075,343676.371,353410.958,1,40,2,
sequence,flow.Sequence,8_1,2023-11-14T19:42:47.791Z,,,,,,,,,,9714.528999998525,completion,,,,,,,low,high,,,,,,false,,,,true,353391.5,353390.8999999985,343659.56,343660.19999999925,343676.371,353410.958,1,40,,
trial,html.Screen,8_2_0,2023-11-14T19:42:55.374Z,,,,2,0.0107170641394226,-0.0596294643429623,,false,hl,7562.941999998526,response,0.8987343013179191,0.7999999999999996,-0.8999999999999997,-0.8149073454566363,0.8499999999999996,-0.8499999999999996,high,low,,ISIC_0005291.JPG,,ISIC_0472513.JPG,63,false,lh,keypress(e),0,true,360974.1000000015,360973.8999999985,353376.033,353391.69999999925,353410.958,360994.09,1,40,3,
sequence,flow.Sequence,8_2,2023-11-14T19:42:55.374Z,,,,,,,,,,7562.941999998526,completion,,,,,,,high,low,,,,,,false,,,,true,360974.5,360973.8999999985,353376.033,353391.69999999925,353410.958,360994.09,1,40,,
trial,html.Screen,8_3_0,2023-11-14T19:43:02.955Z,,,,2,-0.0267918352484299,-0.0630167830859455,,false,hl,7561.809999998484,response,0.6509219939365475,0.7999999999999996,-0.8499999999999996,-0.9237108371448416,0.7999999999999996,-0.8499999999999996,high,low,,ISIC_0064874.JPG,,ISIC_7327423.JPG,63,false,hh,keypress(i),0,true,368556,368555.8999999985,360959.385,360974.80000000075,360994.09,368559.476,1,40,4,
sequence,flow.Sequence,8_3,2023-11-14T19:43:02.956Z,,,,,,,,,,7561.809999998484,completion,,,,,,,high,low,,,,,,false,,,,true,368556.1000000015,368555.8999999985,360959.385,360974.69999999925,360994.09,368559.476,1,40,,
trial,html.Screen,8_4_0,2023-11-14T19:43:09.684Z,,,,2,-0.0715931084231032,0.011427878877272,,false,hh,6725.223999999231,response,0.7452700151122865,0.7999999999999996,-0.7999999999999996,0.7438857109222746,0.7499999999999996,-0.8499999999999996,high,high,,ISIC_1470250.JPG,,ISIC_0027067.JPG,264,false,hl,keypress(j),0,true,375284.69999999925,375284.69999999925,368542.823,368556.1000000015,368559.476,375292.864,1,40,5,
sequence,flow.Sequence,8_4,2023-11-14T19:43:09.684Z,,,,,,,,,,6725.223999999231,completion,,,,,,,high,high,,,,,,false,,,,true,375284.8999999985,375284.69999999925,368542.823,368556.1000000015,368559.476,375292.864,1,40,,
trial,html.Screen,8_5_0,2023-11-14T19:43:14.054Z,,,,2,-0.0085390023861227,-0.051110950799465,,false,hl,4359.5359999985085,response,0.6700895381759688,0.7999999999999996,-0.7499999999999996,-0.6413536102571755,0.7499999999999996,-0.7999999999999996,high,low,,ISIC_6268546.JPG,,ISIC_0066149.JPG,74,false,lh,keypress(e),0,true,379652.5,379652.3999999985,375276.04,375284.8999999985,375292.864,379659.453,1,40,6,
sequence,flow.Sequence,8_5,2023-11-14T19:43:14.054Z,,,,,,,,,,4359.5359999985085,completion,,,,,,,high,low,,,,,,false,,,,true,379652.69999999925,379652.3999999985,375276.04,375284.8999999985,375292.864,379659.453,1,40,,
trial,html.Screen,8_6_0,2023-11-14T19:43:17.727Z,,,,2,-0.0044063257337227,-0.0172548282859886,,false,hl,3665.8470000007655,response,0.691415026399502,0.7999999999999996,-0.6999999999999995,-0.7239470583170381,0.6999999999999995,-0.7999999999999996,high,low,,ISIC_7413786.JPG,,ISIC_0011051.JPG,74,false,ll,keypress(f),0,true,383325.5,383325.30000000075,379642.908,379652.69999999925,379659.453,383342.895,1,40,7,
sequence,flow.Sequence,8_6,2023-11-14T19:43:17.727Z,,,,,,,,,,3665.8470000007655,completion,,,,,,,high,low,,,,,,false,,,,true,383325.8999999985,383325.30000000075,379642.908,379652.69999999925,379659.453,383342.895,1,40,,
trial,html.Screen,8_7_0,2023-11-14T19:43:28.374Z,,,,2,-0.0480293506029756,-0.0744454320613987,,false,ll,10629.804999999236,response,-0.519515457304867,0.7999999999999996,-0.6499999999999995,-0.7204370868972801,0.6499999999999995,-0.7999999999999996,low,low,,ISIC_1798471.JPG,,ISIC_5650816.JPG,307,false,hl,keypress(j),0,true,393972.80000000075,393972.69999999925,383326.1,383326,383342.895,393976.041,1,40,8,
sequence,flow.Sequence,8_7,2023-11-14T19:43:28.374Z,,,,,,,,,,10629.804999999236,completion,,,,,,,low,low,,,,,,false,,,,true,393972.8999999985,393972.69999999925,383326.1,383325.8999999985,383342.895,393976.041,1,40,,
trial,html.Screen,8_8_0,2023-11-14T19:43:34.042Z,,,,2,0.049790040126711,-0.0195291725171472,,true,ll,5664.158999999228,response,-0.6586023162435624,0.7499999999999996,-0.6499999999999995,-0.8982755784346272,0.5999999999999994,-0.7999999999999996,low,low,,ISIC_0372902.JPG,,ISIC_4829706.JPG,307,false,ll,keypress(f),0,true,399640.30000000075,399640.19999999925,393959.147,393972.8999999985,393976.041,399642.737,1,40,9,
sequence,flow.Sequence,8_8,2023-11-14T19:43:34.042Z,,,,,,,,,,5664.158999999228,completion,,,,,,,low,low,,,,,,false,,,,true,399640.3999999985,399640.19999999925,393959.147,393972.8999999985,393976.041,399642.737,1,40,,
trial,html.Screen,8_9_0,2023-11-14T19:43:39.503Z,,,,2,-0.068830656047477,0.0471494209282208,,false,hl,5458.962999999232,response,0.5900279179664503,0.6999999999999995,-0.5999999999999994,-0.5829538557662716,0.5499999999999994,-0.7093563326659535,high,low,,ISIC_0029982.JPG,,ISIC_0001134.JPG,110,false,lh,keypress(e),0,true,405101.8999999985,405101.69999999925,399625.892,399640.3999999985,399642.737,405126.089,1,40,10,
sequence,flow.Sequence,8_9,2023-11-14T19:43:39.504Z,,,,,,,,,,5458.962999999232,completion,,,,,,,high,low,,,,,,false,,,,true,405102.30000000075,405101.69999999925,399625.892,399640.3999999985,399642.737,405126.089,1,40,,
trial,html.Screen,8_10_0,2023-11-14T19:43:43.303Z,,,,2,-0.0105349256029223,0.0723574625425557,,true,lh,3775.211000000767,response,-0.7278437817104656,0.6999999999999995,-0.5499999999999994,0.5510424329842739,0.4999999999999994,-0.7093563326659535,low,high,,ISIC_0058998.JPG,,ISIC_0032907.JPG,231,false,lh,keypress(e),0,true,408901.5,408901.30000000075,405092.745,405102.5,405126.089,408909.442,1,40,11,
sequence,flow.Sequence,8_10,2023-11-14T19:43:43.303Z,,,,,,,,,,3775.211000000767,completion,,,,,,,low,high,,,,,,false,,,,true,408901.8999999985,408901.30000000075,405092.745,405102.5,405126.089,408909.442,1,40,,
trial,html.Screen,8_11_0,2023-11-14T19:43:48.142Z,,,,2,-0.0501343550751953,-0.0101991443736165,,true,hl,4831.058000000019,response,0.6643447176725599,0.6499999999999995,-0.5932230489770138,-0.4892126106277982,0.4999999999999994,-0.6593563326659535,high,low,,ISIC_4232761.JPG,,ISIC_8901133.JPG,135,false,hl,keypress(j),0,true,413740.6000000015,413740.5,408892.726,408902.1000000015,408909.442,413742.67,1,40,12,
sequence,flow.Sequence,8_11,2023-11-14T19:43:48.142Z,,,,,,,,,,4831.058000000019,completion,,,,,,,high,low,,,,,,false,,,,true,413740.69999999925,413740.5,408892.726,408902.1000000015,408909.442,413742.67,1,40,,
trial,html.Screen,8_12_0,2023-11-14T19:43:53.024Z,,,,2,0.0326050223870869,0.0579165897319751,,false,ll,4880.029999999271,response,-0.6190748068479168,0.5999999999999994,-0.5432230489770138,-0.7094898545347617,0.4999999999999994,-0.6093563326659535,low,low,,ISIC_4570724.JPG,,ISIC_7059794.JPG,413,false,hl,keypress(j),0,true,418622.80000000075,418622.69999999925,413726.059,413740.69999999925,413742.67,418626.081,1,40,13,
sequence,flow.Sequence,8_12,2023-11-14T19:43:53.025Z,,,,,,,,,,4880.029999999271,completion,,,,,,,low,low,,,,,,false,,,,true,418623.30000000075,418622.69999999925,413726.059,413740.69999999925,413742.67,418626.081,1,40,,
trial,html.Screen,8_13_0,2023-11-14T19:43:56.775Z,,,,2,-0.0394300226801425,0.0536115913979284,,false,ll,3747.3189999985043,response,-0.6638243397950727,0.5499999999999994,-0.5432230489770138,-0.7225018190744066,0.4999999999999994,-0.6093563326659535,low,low,,ISIC_0046983.JPG,,ISIC_0033320.JPG,413,false,lh,keypress(e),0,true,422373.6000000015,422373.3999999985,418609.344,418623.6000000015,418626.081,422376.009,1,40,14,
sequence,flow.Sequence,8_13,2023-11-14T19:43:56.775Z,,,,,,,,,,3747.3189999985043,completion,,,,,,,low,low,,,,,,false,,,,true,422373.8999999985,422373.3999999985,418609.344,418623.3999999985,418626.081,422376.009,1,40,,
trial,html.Screen,8_14_0,2023-11-14T19:44:03.999Z,,,,2,0.0367060100866019,0.0630207980628495,,true,hh,7221.690999999235,response,0.6968300174614582,0.4999999999999994,-0.5432230489770138,0.5801062445475322,0.4999999999999994,-0.6093563326659535,high,high,,ISIC_0028396.JPG,,ISIC_0058607.JPG,398,false,hh,keypress(i),0,true,429598,429597.69999999925,422359.235,422374.19999999925,422376.009,429609.387,1,40,15,
sequence,flow.Sequence,8_14,2023-11-14T19:44:04.000Z,,,,,,,,,,7221.690999999235,completion,,,,,,,high,high,,,,,,false,,,,true,429598.5,429597.69999999925,422359.235,422374.1000000015,422376.009,429609.387,1,40,,
trial,html.Screen,8_15_0,2023-11-14T19:44:11.744Z,,,,2,-0.0480293506029756,-0.0744454320613987,,false,ll,7730.913000000757,response,-0.5706921180014212,0.580587367567009,-0.4932230489770138,-0.6603271752494263,0.4655743387659031,-0.5593563326659534,low,low,,ISIC_1798471.JPG,,ISIC_3685955.JPG,429,false,hl,keypress(j),0,true,437340.5,437340.30000000075,429592.648,429598.6000000015,429609.387,437342.609,1,40,16,
sequence,flow.Sequence,8_15,2023-11-14T19:44:11.744Z,,,,,,,,,,7730.913000000757,completion,,,,,,,low,low,,,,,,false,,,,true,437340.6000000015,437340.30000000075,429592.648,429598.6000000015,429609.387,437342.609,1,40,,
trial,html.Screen,8_16_0,2023-11-14T19:44:16.993Z,,,,2,-0.0606387586319451,-0.0283716809868572,,false,lh,5246.790999998513,response,-0.4621870881672764,0.530587367567009,-0.4932230489770138,0.2724618520721065,0.4655743387659031,-0.5593563326659534,low,high,,ISIC_0061158.JPG,,ISIC_9458746.JPG,256,false,hl,keypress(j),0,true,442589.69999999925,442589.3999999985,437325.748,437340.69999999925,437342.609,442592.659,1,40,17,
sequence,flow.Sequence,8_16,2023-11-14T19:44:16.993Z,,,,,,,,,,5246.790999998513,completion,,,,,,,low,high,,,,,,false,,,,true,442590.1000000015,442589.3999999985,437325.748,437340.6000000015,437342.609,442592.659,1,40,,
trial,html.Screen,8_17_0,2023-11-14T19:44:22.376Z,,,,2,-0.0367706518941078,0.0161069838272154,,true,lh,5380.341000000015,response,-0.5587976267350308,0.480587367567009,-0.4932230489770138,0.3313759989062924,0.4655743387659031,-0.5093563326659534,low,high,,ISIC_0033419.JPG,,ISIC_0026426.JPG,256,false,lh,keypress(e),0,true,447973.19999999925,447973,442576.013,442590.19999999925,442592.659,447976,1,40,18,
sequence,flow.Sequence,8_17,2023-11-14T19:44:22.377Z,,,,,,,,,,5380.341000000015,completion,,,,,,,low,high,,,,,,false,,,,true,447973.69999999925,447973,442576.013,442590.19999999925,442592.659,447976,1,40,,
trial,html.Screen,8_18_0,2023-11-14T19:44:25.873Z,,,,2,-0.0200295718112167,-0.0155559071275806,,false,lh,3493.300000000745,response,-0.5167748770275812,0.480587367567009,-0.4932230489770138,0.4311382035806604,0.4655743387659031,-0.4593563326659534,low,high,,ISIC_0061343.JPG,,ISIC_7100755.JPG,256,false,hl,keypress(j),0,true,451469.6000000015,451469.30000000075,447959.174,447973.8999999985,447976,451476.006,1,40,19,
sequence,flow.Sequence,8_18,2023-11-14T19:44:25.873Z,,,,,,,,,,3493.300000000745,completion,,,,,,,low,high,,,,,,false,,,,true,451470.1000000015,451469.30000000075,447959.174,447973.8999999985,447976,451476.006,1,40,,
trial,html.Screen,8_19_0,2023-11-14T19:44:36.863Z,,,,2,-0.0394300226801425,0.0536115913979284,,false,,11016.788,timeout,-0.3310234999811019,0.480587367567009,-0.4932230489770138,0.3833035075745458,0.4655743387659031,-0.4593563326659534,low,high,,ISIC_0046983.JPG,,ISIC_0029970.JPG,256,false,,,0,true,462459.69999999925,462459.6000000015,451459.171,451470.30000000075,451476.006,462492.794,1,40,20,
sequence,flow.Sequence,8_19,2023-11-14T19:44:36.863Z,,,,,,,,,,10983.594000001496,completion,,,,,,,low,high,,,,,,false,,,,true,462459.80000000075,462459.6000000015,451459.171,451470.19999999925,451476.006,462492.794,1,40,,
trial,html.Screen,8_20_0,2023-11-14T19:44:41.153Z,,,,2,-0.0076984477620101,-0.0069458408496562,,false,hh,4256.806000001496,response,0.395098893519488,0.480587367567009,-0.4932230489770138,0.4456359380901787,0.4655743387659031,-0.4593563326659534,high,high,,ISIC_0000434.JPG,,ISIC_0028949.JPG,413,false,lh,keypress(e),0,true,466749.8999999985,466749.6000000015,462476.101,462459.8999999985,462492.794,466759.245,1,40,21,
sequence,flow.Sequence,8_20,2023-11-14T19:44:41.153Z,,,,,,,,,,4256.806000001496,completion,,,,,,,high,high,,,,,,false,,,,true,466750.30000000075,466749.6000000015,462476.101,462459.8999999985,462492.794,466759.245,1,40,,
trial,html.Screen,8_21_0,2023-11-14T19:44:45.474Z,,,,2,0.0146597765042814,0.06222227493177,,false,ll,4310.95499999926,response,-0.4075003431455253,0.480587367567009,-0.4932230489770138,-0.6113523326111633,0.4655743387659031,-0.4593563326659534,low,low,,ISIC_5982769.JPG,,ISIC_0623284.JPG,469,false,hl,keypress(j),0,true,471070.3999999985,471070.19999999925,466742.658,466750.5,466759.245,471075.875,1,40,22,
sequence,flow.Sequence,8_21,2023-11-14T19:44:45.474Z,,,,,,,,,,4310.95499999926,completion,,,,,,,low,low,,,,,,false,,,,true,471070.8999999985,471070.19999999925,466742.658,466750.3999999985,466759.245,471075.875,1,40,,
trial,html.Screen,8_22_0,2023-11-14T19:44:48.817Z,,,,2,0.0088741920055285,0.0058246074740588,,false,ll,3337.324999999255,response,-0.3135205101219723,0.480587367567009,-0.4932230489770138,-0.3184390680978707,0.4655743387659031,-0.4593563326659534,low,low,,ISIC_4136663.JPG,,ISIC_4566439.JPG,469,false,lh,keypress(e),0,true,474413.5,474413.19999999925,471059.35,471071,471075.875,474426.126,1,40,23,
sequence,flow.Sequence,8_22,2023-11-14T19:44:48.817Z,,,,,,,,,,3337.324999999255,completion,,,,,,,low,low,,,,,,false,,,,true,474413.8999999985,474413.19999999925,471059.35,471071,471075.875,474426.126,1,40,,
trial,html.Screen,8_23_0,2023-11-14T19:44:53.177Z,,,,2,-0.0119001144851157,0.0063430114540141,,false,hl,4347.073999999266,response,0.3651150440835463,0.480587367567009,-0.4932230489770138,-0.2623182524023944,0.4655743387659031,-0.4593563326659534,high,low,,ISIC_0003822.JPG,,ISIC_0009883.JPG,283,false,lh,keypress(e),0,true,478773.5,478773.19999999925,474409.377,474414.1000000015,474426.126,478775.913,1,40,24,
sequence,flow.Sequence,8_23,2023-11-14T19:44:53.177Z,,,,,,,,,,4347.073999999266,completion,,,,,,,high,low,,,,,,false,,,,true,478773.8999999985,478773.19999999925,474409.377,474414.1000000015,474426.126,478775.913,1,40,,
trial,html.Screen,8_24_0,2023-11-14T19:44:56.617Z,,,,2,-0.0308384937406319,0.0038396364323947,,false,hl,3438.1870000014897,response,0.5357689684524589,0.480587367567009,-0.4932230489770138,-0.2785762452092483,0.4655743387659031,-0.4593563326659534,high,low,,ISIC_0029825.JPG,,ISIC_0056413.JPG,283,false,hh,keypress(i),0,true,482214.30000000075,482214.1000000015,478759.042,478774.1000000015,478775.913,482225.925,1,40,25,
sequence,flow.Sequence,8_24,2023-11-14T19:44:56.618Z,,,,,,,,,,3438.1870000014897,completion,,,,,,,high,low,,,,,,false,,,,true,482214.69999999925,482214.1000000015,478759.042,478774,478775.913,482225.925,1,40,,
trial,html.Screen,8_25_0,2023-11-14T19:44:59.593Z,,,,2,-0.0715931084231032,0.011427878877272,,true,hl,2963.4749999985215,response,0.5115711294616178,0.480587367567009,-0.4932230489770138,-0.3540277018115573,0.4655743387659031,-0.4593563326659534,high,low,,ISIC_1470250.JPG,,ISIC_0001137.JPG,283,false,hl,keypress(j),0,true,485189.69999999925,485189.3999999985,482209.399,482214.8999999985,482225.925,485192.544,1,40,26,
sequence,flow.Sequence,8_25,2023-11-14T19:44:59.593Z,,,,,,,,,,2963.4749999985215,completion,,,,,,,high,low,,,,,,false,,,,true,485190.1000000015,485189.3999999985,482209.399,482214.8999999985,482225.925,485192.544,1,40,,
trial,html.Screen,8_26_0,2023-11-14T19:45:05.401Z,,,,2,-0.0267918352484299,-0.0630167830859455,,false,lh,5804.756000000751,response,-0.6896174535758711,0.4736700489570383,-0.4932230489770138,0.3582066561910394,0.4655743387659031,-0.4593563326659534,low,high,,ISIC_0064874.JPG,,ISIC_7746479.JPG,256,false,hl,keypress(j),0,true,490997.5,490997.30000000075,485175.947,485190.30000000075,485192.544,491009.3,1,40,27,
sequence,flow.Sequence,8_26,2023-11-14T19:45:05.401Z,,,,,,,,,,5804.756000000751,completion,,,,,,,low,high,,,,,,false,,,,true,490997.8999999985,490997.30000000075,485175.947,485190.19999999925,485192.544,491009.3,1,40,,
trial,html.Screen,8_27_0,2023-11-14T19:45:10.539Z,,,,2,0.0395587463147856,-0.0645068093068572,,false,ll,5124.000000000757,response,-0.6061265768304474,0.4736700489570383,-0.4932230489770138,-0.2648742948976914,0.4655743387659031,-0.4593563326659534,low,low,,ISIC_0010807.JPG,,ISIC_6681802.JPG,469,false,hl,keypress(j),0,true,496133.5,496133.30000000075,490992.398,490998.1000000015,491009.3,496142.535,1,40,28,
sequence,flow.Sequence,8_27,2023-11-14T19:45:10.539Z,,,,,,,,,,5124.000000000757,completion,,,,,,,low,low,,,,,,false,,,,true,496133.8999999985,496133.30000000075,490992.398,490998.1000000015,491009.3,496142.535,1,40,,
trial,html.Screen,8_28_0,2023-11-14T19:45:14.427Z,,,,2,0.0080817964357627,-0.0444435264307931,,false,hh,3879.6649999992806,response,0.6550315423873381,0.4736700489570383,-0.4932230489770138,0.5515848510840002,0.4655743387659031,-0.4593563326659534,high,high,,ISIC_0013165.JPG,,ISIC_0055491.JPG,417,false,hl,keypress(j),0,true,500022.3999999985,500022.19999999925,496125.722,496134.1000000015,496142.535,500025.852,1,40,29,
sequence,flow.Sequence,8_28,2023-11-14T19:45:14.428Z,,,,,,,,,,3879.6649999992806,completion,,,,,,,high,high,,,,,,false,,,,true,500022.80000000075,500022.19999999925,496125.722,496134.1000000015,496142.535,500025.852,1,40,,
trial,html.Screen,8_29_0,2023-11-14T19:45:20.356Z,,,,2,0.0632965338582772,0.0107588824722911,,false,hh,5924.347999999241,response,0.5793145978395884,0.4736700489570383,-0.4932230489770138,0.3609917970872323,0.4655743387659031,-0.4593563326659534,high,high,,ISIC_1265755.JPG,,ISIC_7010552.JPG,417,false,lh,keypress(e),0,true,505950.6000000015,505950.19999999925,500009.263,500023,500025.852,505959.156,1,40,30,
sequence,flow.Sequence,8_29,2023-11-14T19:45:20.356Z,,,,,,,,,,5924.347999999241,completion,,,,,,,high,high,,,,,,false,,,,true,505951,505950.19999999925,500009.263,500022.8999999985,500025.852,505959.156,1,40,,
trial,html.Screen,8_30_0,2023-11-14T19:45:24.666Z,,,,2,0.0326050223870869,0.0579165897319751,,false,hh,4301.944000001473,response,0.3945326584949253,0.4736700489570383,-0.4932230489770138,0.3756678541156951,0.4655743387659031,-0.4593563326659534,high,high,,ISIC_4570724.JPG,,ISIC_8484660.JPG,417,false,ll,keypress(f),0,true,510261.3999999985,510261.1000000015,505942.459,505951.1000000015,505959.156,510275.918,1,40,31,
sequence,flow.Sequence,8_30,2023-11-14T19:45:24.667Z,,,,,,,,,,4301.944000001473,completion,,,,,,,high,high,,,,,,false,,,,true,510261.80000000075,510261.1000000015,505942.459,505951,505959.156,510275.918,1,40,,
trial,html.Screen,8_31_0,2023-11-14T19:45:28.596Z,,,,2,0.0145962222125655,0.0525495878509009,,false,hl,3914.28199999925,response,0.5808464311831697,0.4736700489570383,-0.4932230489770138,-0.3979641358827216,0.4655743387659031,-0.4593563326659534,high,low,,ISIC_4248013.JPG,,ISIC_8194371.JPG,294,false,ll,keypress(f),0,true,514190.5,514190.19999999925,510259.215,510262,510275.918,514209.705,1,40,32,
sequence,flow.Sequence,8_31,2023-11-14T19:45:28.596Z,,,,,,,,,,3914.28199999925,completion,,,,,,,high,low,,,,,,false,,,,true,514190.8999999985,514190.19999999925,510259.215,510261.8999999985,510275.918,514209.705,1,40,,
trial,html.Screen,8_32_0,2023-11-14T19:45:32.721Z,,,,2,0.0065172941585523,-0.0118857043117315,,true,hh,4106.095000000729,response,0.5793145978395884,0.4736700489570383,-0.4932230489770138,0.3609917970872323,0.4655743387659031,-0.4593563326659534,high,high,,ISIC_6119202.JPG,,ISIC_7010552.JPG,417,false,hh,keypress(i),0,true,518315.80000000075,518315.80000000075,514175.895,514191.19999999925,514209.705,518325.735,1,40,33,
sequence,flow.Sequence,8_32,2023-11-14T19:45:32.721Z,,,,,,,,,,4106.095000000729,completion,,,,,,,high,high,,,,,,false,,,,true,518316,518315.80000000075,514175.895,514191.1000000015,514209.705,518325.735,1,40,,
trial,html.Screen,8_33_0,2023-11-14T19:45:37.858Z,,,,2,0.0109416414475118,0.005246498750811,,true,ll,5127.565000000759,response,-0.4966637278318083,0.4736700489570383,-0.4932230489770138,-0.343431400409611,0.4655743387659031,-0.4593563326659534,low,low,,ISIC_0064279.JPG,,ISIC_3689759.JPG,469,false,ll,keypress(f),0,true,523453.5,523453.30000000075,518309.267,518316,518325.735,523459.071,1,40,34,
sequence,flow.Sequence,8_33,2023-11-14T19:45:37.859Z,,,,,,,,,,5127.565000000759,completion,,,,,,,low,low,,,,,,false,,,,true,523453.8999999985,523453.30000000075,518309.267,518316,518325.735,523459.071,1,40,,
trial,html.Screen,8_34_0,2023-11-14T19:45:44.209Z,,,,2,0.039520186367207,0.0377961575607372,,true,hh,6344.929000000004,response,0.3256071011710101,0.4736700489570383,-0.4932230489770138,0.3396825465846745,0.4655743387659031,-0.4093563326659534,high,high,,ISIC_6356149.JPG,,ISIC_0029626.JPG,417,false,hh,keypress(i),0,true,529804.1000000015,529804,523442.359,523454.1000000015,523459.071,529809.027,1,40,35,
sequence,flow.Sequence,8_34,2023-11-14T19:45:44.209Z,,,,,,,,,,6344.929000000004,completion,,,,,,,high,high,,,,,,false,,,,true,529804.1999999993,529804,523442.359,523454.1000000015,523459.071,529809.027,1,40,,
trial,html.Screen,8_35_0,2023-11-14T19:45:49.923Z,,,,2,-0.0257631352671967,-0.0202837002774028,,false,hh,5708.872999998508,response,0.5692769715601133,0.4236700489570383,-0.4932230489770138,0.337286718475116,0.4155743387659031,-0.4093563326659534,high,high,,ISIC_0032797.JPG,,ISIC_9568138.JPG,429,false,hl,keypress(j),0,true,535518.1999999993,535517.8999999985,529792.363,529804.3000000007,529809.027,535525.666,1,40,36,
sequence,flow.Sequence,8_35,2023-11-14T19:45:49.924Z,,,,,,,,,,5708.872999998508,completion,,,,,,,high,high,,,,,,false,,,,true,535518.5,535517.8999999985,529792.363,529804.1999999993,529809.027,535525.666,1,40,,
trial,html.Screen,8_36_0,2023-11-14T19:45:55.387Z,,,,2,0.0644356642124594,-0.0565130492997401,,false,lh,5455.934000001522,response,-0.5167748770275812,0.4736700489570383,-0.4932230489770138,0.4311382035806604,0.4655743387659031,-0.4093563326659534,low,high,,ISIC_7520843.JPG,,ISIC_7100755.JPG,256,false,hl,keypress(j),0,true,540981.8999999985,540981.6000000015,535509.151,535518.6999999993,535525.666,540992.389,1,40,37,
sequence,flow.Sequence,8_36,2023-11-14T19:45:55.387Z,,,,,,,,,,5455.934000001522,completion,,,,,,,low,high,,,,,,false,,,,true,540982.1999999993,540981.6000000015,535509.151,535518.6999999993,535525.666,540992.389,1,40,,
trial,html.Screen,8_37_0,2023-11-14T19:45:58.619Z,,,,2,0.0478761683145946,-0.012927090508672,,true,lh,3221.1110000000335,response,-0.6492245176203351,0.4736700489570383,-0.4932230489770138,0.5197301906399471,0.4655743387659031,-0.4093563326659534,low,high,,ISIC_9631669.JPG,,ISIC_8082988.JPG,256,false,lh,keypress(e),0,true,544213.6999999993,544213.5,540975.617,540982.5,540992.389,544225.885,1,40,38,
sequence,flow.Sequence,8_37,2023-11-14T19:45:58.619Z,,,,,,,,,,3221.1110000000335,completion,,,,,,,low,high,,,,,,false,,,,true,544214.1000000015,544213.5,540975.617,540982.3000000007,540992.389,544225.885,1,40,,
trial,html.Screen,8_38_0,2023-11-14T19:46:02.434Z,,,,2,0.039520186367207,0.0377961575607372,,false,lh,3802.9150000007357,response,-0.4700735722283845,0.4736700489570383,-0.4932230489770138,0.4803987828763377,0.4655743387659031,-0.4093563326659534,low,high,,ISIC_6356149.JPG,,ISIC_7144739.JPG,256,false,ll,keypress(f),0,true,548029.1000000015,548028.8000000007,544209.209,544214.3999999985,544225.885,548042.614,1,40,39,
sequence,flow.Sequence,8_38,2023-11-14T19:46:02.434Z,,,,,,,,,,3802.9150000007357,completion,,,,,,,low,high,,,,,,false,,,,true,548029.5,548028.8000000007,544209.209,544214.3000000007,544225.885,548042.614,1,40,,
trial,html.Screen,8_39_0,2023-11-14T19:46:06.715Z,,,,2,0.0374659946425444,0.0086043094957617,,false,hh,4267.585999999312,response,0.4921073699451551,0.4736700489570383,-0.4932230489770138,0.5535712185937799,0.4655743387659031,-0.4093563326659534,high,high,,ISIC_0033051.JPG,,ISIC_8153123.JPG,417,false,hl,keypress(j),0,true,552310.3999999985,552310.1999999993,548025.765,548029.6000000015,548042.614,552325.91,1,40,40,
sequence,flow.Sequence,8_39,2023-11-14T19:46:06.716Z,,,,,,,,,,4267.585999999312,completion,,,,,,,high,high,,,,,,false,,,,true,552310.8000000007,552310.1999999993,548025.765,548029.6000000015,548042.614,552325.91,1,40,,
stair_loop,flow.Loop,8,2023-11-14T19:46:06.716Z,,,,,,,,,,216350.60999999923,completion,,,,,,,,,,,,,,false,,,,true,552311.1000000015,552310.1999999993,335942.984,335955.80000000075,335959.59,552325.91,1,40,,
exp_instructions,html.Screen,9,2023-11-14T19:46:23.748Z,,,,,,,,,,17014.289999999222,response,,,,,,,,,,,,,,,continue,keypress(Space),,,569341,569340.1999999993,552308.947,552311.1000000015,552325.91,569375.655,,,,
trial,html.Screen,10_0_0,2023-11-14T19:46:27.189Z,,,,1,0.0123274848503577,-0.0516828290734233,,false,hh,3406.544999999227,response,0.3871182236128976,0.4732452445400296,-0.4932230489770138,0.3559835267508731,0.4630743387659032,-0.4443563326659534,high,high,,ISIC_0056790.JPG,9,ISIC_3686179.JPG,415,false,hl,keypress(j),0,false,572782.5,572782.1999999993,569360.254,569341.3000000007,569375.655,572792.349,4,500,1,
break,html.Screen,10_0_1,2023-11-14T19:46:27.190Z,,,,,,,,,,NaN,,,,,,,,high,high,,,,,,false,,,,false,572783.8000000007,572783.5,,572782.8000000007,,572792.349,4,500,,
break_continue,html.Screen,10_0_2,2023-11-14T19:46:27.191Z,,,,,,,,,,NaN,,,,,,,,high,high,,,,,,false,,,,false,572784.6999999993,572784.3000000007,,572784,,572792.349,4,500,,
sequence,flow.Sequence,10_0,2023-11-14T19:46:27.192Z,,,,,,,,,,3408.645000000717,completion,,,,,,,high,high,,,,,,false,,,,false,572785,572784.3000000007,569360.254,569341.1999999993,569375.655,572792.349,4,500,,
trial,html.Screen,10_1_0,2023-11-14T19:46:31.460Z,,,,1,0.0273175221875807,0.0515126441328492,,false,hl,4260.650999999954,response,0.3920952722281022,0.4732452445400296,-0.4932230489770138,-0.467870452146819,0.4630743387659032,-0.4443563326659534,high,low,,ISIC_0064034.JPG,9,ISIC_0008621.JPG,300,false,ll,keypress(f),0,false,577053.3000000007,577053,572775.752,572785.1999999993,572792.349,577058.895,4,500,2,
break,html.Screen,10_1_1,2023-11-14T19:46:31.461Z,,,,,,,,,,NaN,,,,,,,,high,low,,,,,,false,,,,false,577054.3000000007,577054,,577053.6999999993,,577058.895,4,500,,
break_continue,html.Screen,10_1_2,2023-11-14T19:46:31.462Z,,,,,,,,,,NaN,,,,,,,,high,low,,,,,,false,,,,false,577055,577054.6999999993,,577054.3999999985,,577058.895,4,500,,
sequence,flow.Sequence,10_1,2023-11-14T19:46:31.462Z,,,,,,,,,,4262.350999999209,completion,,,,,,,high,low,,,,,,false,,,,false,577055.1000000015,577054.6999999993,572775.752,572785.1999999993,572792.349,577058.895,4,500,,
trial,html.Screen,10_2_0,2023-11-14T19:46:37.020Z,,,,1,0.0418938536494534,-0.0678614270583654,,false,lh,5554.104999999981,response,-0.4486073911400428,0.4732452445400296,-0.4932230489770138,0.2864755917223662,0.4630743387659032,-0.4443563326659534,low,high,,ISIC_0027573.JPG,9,ISIC_4099428.JPG,254,false,hh,keypress(i),0,false,582613.1999999993,582613,577042.383,577055.3999999985,577058.895,582625.75,4,500,3,
break,html.Screen,10_2_1,2023-11-14T19:46:37.021Z,,,,,,,,,,NaN,,,,,,,,low,high,,,,,,false,,,,false,582614.3000000007,582614,,582613.5,,582625.75,4,500,,
break_continue,html.Screen,10_2_2,2023-11-14T19:46:37.022Z,,,,,,,,,,NaN,,,,,,,,low,high,,,,,,false,,,,false,582615.3000000007,582614.8000000007,,582614.6000000015,,582625.75,4,500,,
sequence,flow.Sequence,10_2,2023-11-14T19:46:37.022Z,,,,,,,,,,5555.905000000726,completion,,,,,,,low,high,,,,,,false,,,,false,582615.6999999993,582614.8000000007,577042.383,577055.3000000007,577058.895,582625.75,4,500,,
trial,html.Screen,10_3_0,2023-11-14T19:46:39.939Z,,,,1,-0.0257631352671967,-0.0202837002774028,,false,lh,2906.85000000149,response,-0.3149358605749183,0.4732452445400296,-0.4932230489770138,0.6355709348098287,0.4630743387659032,-0.4443563326659534,low,high,,ISIC_0032797.JPG,9,ISIC_0030211.JPG,254,false,hh,keypress(i),0,false,585532.8999999985,585532.6000000015,582608.788,582616,582625.75,585542.308,4,500,4,
break,html.Screen,10_3_1,2023-11-14T19:46:39.940Z,,,,,,,,,,NaN,,,,,,,,low,high,,,,,,false,,,,false,585533.8000000007,585533.6000000015,,585533.1999999993,,585542.308,4,500,,
break_continue,html.Screen,10_3_2,2023-11-14T19:46:39.941Z,,,,,,,,,,NaN,,,,,,,,low,high,,,,,,false,,,,false,585534.5,585534.1999999993,,585534,,585542.308,4,500,,
sequence,flow.Sequence,10_3,2023-11-14T19:46:39.941Z,,,,,,,,,,2908.449999999255,completion,,,,,,,low,high,,,,,,false,,,,false,585534.6999999993,585534.1999999993,582608.788,582615.8999999985,582625.75,585542.308,4,500,,
trial,html.Screen,10_4_0,2023-11-14T19:46:43.260Z,,,,1,0.0478761683145946,-0.012927090508672,,false,hh,3310.591999998549,response,0.6134419652627128,0.4732452445400296,-0.4932230489770138,0.4881296649069043,0.4630743387659032,-0.4443563326659534,high,high,,ISIC_9631669.JPG,9,ISIC_0031517.JPG,415,false,lh,keypress(e),0,false,588853.1000000015,588852.8999999985,585525.497,585534.8999999985,585542.308,588858.891,4,500,5,
break,html.Screen,10_4_1,2023-11-14T19:46:43.261Z,,,,,,,,,,NaN,,,,,,,,high,high,,,,,,false,,,,false,588854.1000000015,588854,,588853.5,,588858.891,4,500,,
break_continue,html.Screen,10_4_2,2023-11-14T19:46:43.261Z,,,,,,,,,,NaN,,,,,,,,high,high,,,,,,false,,,,false,588854.8999999985,588854.5,,588854.3000000007,,588858.891,4,500,,
sequence,flow.Sequence,10_4,2023-11-14T19:46:43.262Z,,,,,,,,,,3312.192000000039,completion,,,,,,,high,high,,,,,,false,,,,false,588855.1999999993,588854.5,585525.497,585534.8000000007,585542.308,588858.891,4,500,,
trial,html.Screen,10_5_0,2023-11-14T19:46:46.947Z,,,,1,0.0586587895724749,0.0220047273041276,,true,ll,3681.4090000008,response,-0.4629464368308342,0.4732452445400296,-0.4932230489770138,-0.2599800973952941,0.4630743387659032,-0.4443563326659534,low,low,,ISIC_0028320.JPG,9,ISIC_0026364.JPG,473,false,ll,keypress(f),0,false,592540.3000000007,592540.3000000007,588842.363,588855.3999999985,588858.891,592558.965,4,500,6,
break,html.Screen,10_5_1,2023-11-14T19:46:46.947Z,,,,,,,,,,NaN,,,,,,,,low,low,,,,,,false,,,,false,592540.6000000015,592540.5,,592540.3999999985,,592558.965,4,500,,
break_continue,html.Screen,10_5_2,2023-11-14T19:46:46.947Z,,,,,,,,,,NaN,,,,,,,,low,low,,,,,,false,,,,false,592540.8000000007,592540.6999999993,,592540.6999999993,,592558.965,4,500,,
sequence,flow.Sequence,10_5,2023-11-14T19:46:46.947Z,,,,,,,,,,3681.80899999931,completion,,,,,,,low,low,,,,,,false,,,,false,592540.8999999985,592540.6999999993,588842.363,588855.3000000007,588858.891,592558.965,4,500,,
trial,html.Screen,10_6_0,2023-11-14T19:46:49.677Z,,,,1,0.055893254685579,0.0187125006410995,,false,hh,2711.2349999992875,response,0.4513975171733412,0.4732452445400296,-0.4932230489770138,0.410903857284249,0.4630743387659032,-0.4443563326659534,high,high,,ISIC_0011779.JPG,9,ISIC_0000213.JPG,415,false,ll,keypress(f),0,false,595270.3999999985,595270.1999999993,592542.19,592540.8999999985,592558.965,595275.536,4,500,7,
break,html.Screen,10_6_1,2023-11-14T19:46:49.678Z,,,,,,,,,,NaN,,,,,,,,high,high,,,,,,false,,,,false,595271.3999999985,595271.1999999993,,595270.8000000007,,595275.536,4,500,,
break_continue,html.Screen,10_6_2,2023-11-14T19:46:49.679Z,,,,,,,,,,NaN,,,,,,,,high,high,,,,,,false,,,,false,595272.1000000015,595271.8999999985,,595271.6999999993,,595275.536,4,500,,
sequence,flow.Sequence,10_6,2023-11-14T19:46:49.679Z,,,,,,,,,,2712.9349999985425,completion,,,,,,,high,high,,,,,,false,,,,false,595272.3000000007,595271.8999999985,592542.19,592540.8999999985,592558.965,595275.536,4,500,,
trial,html.Screen,10_7_0,2023-11-14T19:46:53.930Z,,,,1,0.0145962222125655,0.0525495878509009,,false,ll,4247.564000001526,response,-0.5043200201532193,0.4732452445400296,-0.4932230489770138,-0.4200277753050943,0.4630743387659032,-0.4443563326659534,low,low,,ISIC_4248013.JPG,9,ISIC_0061884.JPG,473,false,hl,keypress(j),0,false,599523.3000000007,599523.1000000015,595259.087,595272.6000000015,595275.536,599525.53,4,500,8,
break,html.Screen,10_7_1,2023-11-14T19:46:53.930Z,,,,,,,,,,NaN,,,,,,,,low,low,,,,,,false,,,,false,599523.6000000015,599523.3999999985,,599523.3000000007,,599525.53,4,500,,
break_continue,html.Screen,10_7_2,2023-11-14T19:46:53.930Z,,,,,,,,,,NaN,,,,,,,,low,low,,,,,,false,,,,false,599523.8999999985,599523.8000000007,,599523.6000000015,,599525.53,4,500,,
sequence,flow.Sequence,10_7,2023-11-14T19:46:53.931Z,,,,,,,,,,4248.264000000781,completion,,,,,,,low,low,,,,,,false,,,,false,599523.8999999985,599523.8000000007,595259.087,595272.5,595275.536,599525.53,4,500,,
trial,html.Screen,10_8_0,2023-11-14T19:46:57.501Z,,,,1,-0.0447960916594447,-0.0451557856659748,,true,hh,3568.270000000717,response,0.6558147820306179,0.4732452445400296,-0.4932230489770138,0.6236288824843776,0.4630743387659032,-0.4443563326659534,high,high,,ISIC_1379405.JPG,9,ISIC_0014973.JPG,415,false,hh,keypress(i),0,false,603094.1999999993,603093.8000000007,599509.029,599524,599525.53,603109.129,4,500,9,
break,html.Screen,10_8_1,2023-11-14T19:46:57.502Z,,,,,,,,,,NaN,,,,,,,,high,high,,,,,,false,,,,false,603095.1999999993,603094.8999999985,,603094.3999999985,,603109.129,4,500,,
break_continue,html.Screen,10_8_2,2023-11-14T19:46:57.503Z,,,,,,,,,,NaN,,,,,,,,high,high,,,,,,false,,,,false,603096,603095.6000000015,,603095.3999999985,,603109.129,4,500,,
sequence,flow.Sequence,10_8,2023-11-14T19:46:57.503Z,,,,,,,,,,3570.070000001462,completion,,,,,,,high,high,,,,,,false,,,,false,603096.3000000007,603095.6000000015,599509.029,599524,599525.53,603109.129,4,500,,
trial,html.Screen,10_9_0,2023-11-14T19:47:01.260Z,,,,1,-0.0200295718112167,-0.0155559071275806,,true,hh,3744.171000000788,response,0.5351825726940805,0.4732452445400296,-0.4932230489770138,0.535796680225762,0.4630743387659032,-0.4443563326659534,high,high,,ISIC_0061343.JPG,10,ISIC_0055714.JPG,415,false,hh,keypress(i),0,false,606853.6000000015,606853.3000000007,603092.411,603096.5,603109.129,606858.82,4,500,10,
break,html.Screen,10_9_1,2023-11-14T19:47:01.261Z,,,,,,,,,,NaN,,,,,,,,high,high,,,,,,false,,,,false,606854.5,606854.1999999993,,606853.8999999985,,606858.82,4,500,,
break_continue,html.Screen,10_9_2,2023-11-14T19:47:01.262Z,,,,,,,,,,NaN,,,,,,,,high,high,,,,,,false,,,,false,606855.1999999993,606854.8999999985,,606854.6999999993,,606858.82,4,500,,
sequence,flow.Sequence,10_9,2023-11-14T19:47:01.262Z,,,,,,,,,,3745.7709999985527,completion,,,,,,,high,high,,,,,,false,,,,false,606855.5,606854.8999999985,603092.411,603096.5,603109.129,606858.82,4,500,,
trial,html.Screen,10_10_0,2023-11-14T19:47:05.813Z,,,,1,-0.0283578106329894,0.0088840758711548,,false,hl,4546.980000000796,response,0.4758856450150283,0.4732452445400296,-0.4932230489770138,-0.2790547892088486,0.4630743387659032,-0.4443563326659534,high,low,,ISIC_0060707.JPG,9,ISIC_0011717.JPG,300,false,hh,keypress(i),0,false,611406,611405.8000000007,606842.348,606855.6999999993,606858.82,611408.877,4,500,11,
break,html.Screen,10_10_1,2023-11-14T19:47:05.814Z,,,,,,,,,,NaN,,,,,,,,high,low,,,,,,false,,,,false,611407.1000000015,611406.8000000007,,611406.3999999985,,611408.877,4,500,,
break_continue,html.Screen,10_10_2,2023-11-14T19:47:05.815Z,,,,,,,,,,NaN,,,,,,,,high,low,,,,,,false,,,,false,611407.8999999985,611407.5,,611407.3000000007,,611408.877,4,500,,
sequence,flow.Sequence,10_10,2023-11-14T19:47:05.815Z,,,,,,,,,,4548.680000000051,completion,,,,,,,high,low,,,,,,false,,,,false,611408.1999999993,611407.5,606842.348,606855.6000000015,606858.82,611408.877,4,500,,
trial,html.Screen,10_11_0,2023-11-14T19:47:09.765Z,,,,1,-0.0367706518941078,0.0161069838272154,,true,lh,3948.9230000007665,response,-0.4924349721293655,0.4732452445400296,-0.4932230489770138,0.5426781779846185,0.4630743387659032,-0.4443563326659534,low,high,,ISIC_0033419.JPG,9,ISIC_8654660.JPG,254,false,lh,keypress(e),0,false,615358.1000000015,615357.8000000007,611392.366,611408.3999999985,611408.877,615375.763,4,500,12,
break,html.Screen,10_11_1,2023-11-14T19:47:09.766Z,,,,,,,,,,NaN,,,,,,,,low,high,,,,,,false,,,,false,615359.1999999993,615358.8000000007,,615358.5,,615375.763,4,500,,
break_continue,html.Screen,10_11_2,2023-11-14T19:47:09.766Z,,,,,,,,,,NaN,,,,,,,,low,high,,,,,,false,,,,false,615359.8999999985,615359.5,,615359.3000000007,,615375.763,4,500,,
sequence,flow.Sequence,10_11,2023-11-14T19:47:09.767Z,,,,,,,,,,3950.6230000000214,completion,,,,,,,low,high,,,,,,false,,,,false,615360.1000000015,615359.5,611392.366,611408.3999999985,611408.877,615375.763,4,500,,
trial,html.Screen,10_12_0,2023-11-14T19:47:14.908Z,,,,1,0.0145962222125655,0.0525495878509009,,true,hh,5125.236999999965,response,0.3176339425900203,0.4732452445400296,-0.4932230489770138,0.4751131311251822,0.4630743387659032,-0.4443563326659534,high,high,,ISIC_4248013.JPG,9,ISIC_0055776.JPG,415,false,hh,keypress(i),0,false,620501.1999999993,620501,615358.926,615360.3000000007,615375.763,620508.788,4,500,13,
break,html.Screen,10_12_1,2023-11-14T19:47:14.909Z,,,,,,,,,,NaN,,,,,,,,high,high,,,,,,false,,,,false,620502.1000000015,620501.8999999985,,620501.5,,620508.788,4,500,,
break_continue,html.Screen,10_12_2,2023-11-14T19:47:14.909Z,,,,,,,,,,NaN,,,,,,,,high,high,,,,,,false,,,,false,620502.8000000007,620502.3999999985,,620502.3000000007,,620508.788,4,500,,
sequence,flow.Sequence,10_12,2023-11-14T19:47:14.910Z,,,,,,,,,,5126.6369999984745,completion,,,,,,,high,high,,,,,,false,,,,false,620503,620502.3999999985,615358.926,615360.3000000007,615375.763,620508.788,4,500,,
trial,html.Screen,10_13_0,2023-11-14T19:47:18.789Z,,,,1,0.0395587463147856,-0.0645068093068572,,true,hl,3872.9119999993127,response,0.4321037441250704,0.4732452445400296,-0.4932230489770138,-0.2770814336411741,0.4630743387659032,-0.4443563326659534,high,low,,ISIC_0010807.JPG,9,ISIC_0056938.JPG,300,false,hl,keypress(j),0,false,624381.8999999985,624381.6999999993,620492.264,620503.1999999993,620508.788,624392.195,4,500,14,
break,html.Screen,10_13_1,2023-11-14T19:47:18.789Z,,,,,,,,,,NaN,,,,,,,,high,low,,,,,,false,,,,false,624382.8999999985,624382.6000000015,,624382.3000000007,,624392.195,4,500,,
break_continue,html.Screen,10_13_2,2023-11-14T19:47:18.790Z,,,,,,,,,,NaN,,,,,,,,high,low,,,,,,false,,,,false,624383.6000000015,624383.3000000007,,624383,,624392.195,4,500,,
sequence,flow.Sequence,10_13,2023-11-14T19:47:18.790Z,,,,,,,,,,3874.512000000803,completion,,,,,,,high,low,,,,,,false,,,,false,624383.8999999985,624383.3000000007,620492.264,620503.1000000015,620508.788,624392.195,4,500,,
trial,html.Screen,10_14_0,2023-11-14T19:47:24.391Z,,,,1,0.0175203912019758,0.0427513576747051,,false,hh,5589.605000000796,response,0.6572205762299792,0.4732452445400296,-0.4932230489770138,0.5667119422987986,0.4630743387659032,-0.4443563326659534,high,high,,ISIC_0056292.JPG,8,ISIC_8007849.JPG,415,false,lh,keypress(e),0,false,629982.1000000015,629981.8000000007,624375.62,624384,624392.195,629992.184,4,500,15,
break,html.Screen,10_14_1,2023-11-14T19:47:24.392Z,,,,,,,,,,NaN,,,,,,,,high,high,,,,,,false,,,,false,629983,629982.8000000007,,629982.3999999985,,629992.184,4,500,,
break_continue,html.Screen,10_14_2,2023-11-14T19:47:24.392Z,,,,,,,,,,NaN,,,,,,,,high,high,,,,,,false,,,,false,629983.6999999993,629983.3999999985,,629983.1999999993,,629992.184,4,500,,
sequence,flow.Sequence,10_14,2023-11-14T19:47:24.393Z,,,,,,,,,,5591.204999998561,completion,,,,,,,high,high,,,,,,false,,,,false,629984,629983.3999999985,624375.62,624384,624392.195,629992.184,4,500,,
trial,html.Screen,10_15_0,2023-11-14T19:47:28.454Z,,,,1,0.044991036470624,-0.0185124638005965,,false,hh,4052.9160000014817,response,0.449053587939904,0.4732452445400296,-0.4932230489770138,0.5287141133857417,0.4630743387659032,-0.4443563326659534,high,high,,ISIC_2457859.JPG,8,ISIC_0032836.JPG,415,false,lh,keypress(e),0,false,634045.3999999985,634045.1000000015,629975.475,629984.1999999993,629992.184,634058.93,4,500,16,
break,html.Screen,10_15_1,2023-11-14T19:47:28.455Z,,,,,,,,,,NaN,,,,,,,,high,high,,,,,,false,,,,false,634046.3999999985,634046.1000000015,,634045.6999999993,,634058.93,4,500,,
break_continue,html.Screen,10_15_2,2023-11-14T19:47:28.456Z,,,,,,,,,,NaN,,,,,,,,high,high,,,,,,false,,,,false,634047.6000000015,634047.1000000015,,634046.8000000007,,634058.93,4,500,,
sequence,flow.Sequence,10_15,2023-11-14T19:47:28.457Z,,,,,,,,,,4054.9160000014817,completion,,,,,,,high,high,,,,,,false,,,,false,634047.8999999985,634047.1000000015,629975.475,629984.1999999993,629992.184,634058.93,4,500,,
trial,html.Screen,10_16_0,2023-11-14T19:47:34.078Z,,,,1,0.0395587463147856,-0.0645068093068572,,false,lh,5609.870000000694,response,-0.3465680854477785,0.4732452445400296,-0.4932230489770138,0.3437059677495516,0.4630743387659032,-0.4443563326659534,low,high,,ISIC_0010807.JPG,9,ISIC_0031463.JPG,254,false,ll,keypress(f),0,false,639669.1999999993,639668.8000000007,634042.218,634048.1000000015,634058.93,639675.486,4,500,17,
break,html.Screen,10_16_1,2023-11-14T19:47:34.079Z,,,,,,,,,,NaN,,,,,,,,low,high,,,,,,false,,,,false,639670.1999999993,639669.8999999985,,639669.5,,639675.486,4,500,,
break_continue,html.Screen,10_16_2,2023-11-14T19:47:34.080Z,,,,,,,,,,NaN,,,,,,,,low,high,,,,,,false,,,,false,639670.8999999985,639670.6000000015,,639670.3999999985,,639675.486,4,500,,
sequence,flow.Sequence,10_16,2023-11-14T19:47:34.080Z,,,,,,,,,,5611.670000001439,completion,,,,,,,low,high,,,,,,false,,,,false,639671.1999999993,639670.6000000015,634042.218,634048.1000000015,634058.93,639675.486,4,500,,
trial,html.Screen,10_17_0,2023-11-14T19:47:37.318Z,,,,1,0.0607839218394147,0.0567408401627122,,true,hl,3233.6140000014566,response,0.5720055355085256,0.4732452445400296,-0.4932230489770138,-0.5359883150105137,0.4630743387659032,-0.4443563326659534,high,low,,ISIC_0026901.JPG,9,ISIC_0032569.JPG,300,false,hl,keypress(j),0,false,642909.3000000007,642909.1000000015,639658.594,639671.3999999985,639675.486,642925.425,4,500,18,
break,html.Screen,10_17_1,2023-11-14T19:47:37.319Z,,,,,,,,,,NaN,,,,,,,,high,low,,,,,,false,,,,false,642910.3000000007,642910.1000000015,,642909.6000000015,,642925.425,4,500,,
break_continue,html.Screen,10_17_2,2023-11-14T19:47:37.320Z,,,,,,,,,,NaN,,,,,,,,high,low,,,,,,false,,,,false,642911,642910.6999999993,,642910.5,,642925.425,4,500,,
sequence,flow.Sequence,10_17,2023-11-14T19:47:37.320Z,,,,,,,,,,3235.2139999992214,completion,,,,,,,high,low,,,,,,false,,,,false,642911.3000000007,642910.6999999993,639658.594,639671.3999999985,639675.486,642925.425,4,500,,
trial,html.Screen,10_18_0,2023-11-14T19:47:40.631Z,,,,1,0.0395587463147856,-0.0645068093068572,,false,hh,3296.5749999999534,response,0.5525752811412641,0.4732452445400296,-0.4932230489770138,0.5224502512666046,0.4630743387659032,-0.4443563326659534,high,high,,ISIC_0010807.JPG,8,ISIC_0000294.JPG,415,false,hl,keypress(j),0,false,646222.3000000007,646222,642908.823,642911.5,642925.425,646225.443,4,500,19,
break,html.Screen,10_18_1,2023-11-14T19:47:40.632Z,,,,,,,,,,NaN,,,,,,,,high,high,,,,,,false,,,,false,646223.3999999985,646223.1000000015,,646222.6000000015,,646225.443,4,500,,
break_continue,html.Screen,10_18_2,2023-11-14T19:47:40.633Z,,,,,,,,,,NaN,,,,,,,,high,high,,,,,,false,,,,false,646224.1000000015,646223.8000000007,,646223.6000000015,,646225.443,4,500,,
sequence,flow.Sequence,10_18,2023-11-14T19:47:40.633Z,,,,,,,,,,3298.3750000006985,completion,,,,,,,high,high,,,,,,false,,,,false,646224.3000000007,646223.8000000007,642908.823,642911.5,642925.425,646225.443,4,500,,
trial,html.Screen,10_19_0,2023-11-14T19:47:46.430Z,,,,1,0.0564512008196606,-0.0205312570039753,,true,lh,5795.65700000152,response,-0.5305655973487654,0.4732452445400296,-0.4932230489770138,0.4090231046006488,0.4630743387659032,-0.4443563326659534,low,high,,ISIC_9019691.JPG,8,ISIC_7959386.JPG,254,false,lh,keypress(e),0,false,652021.5,652021.1000000015,646208.87,646224.5,646225.443,652025.454,4,500,20,
break,html.Screen,10_19_1,2023-11-14T19:47:46.431Z,,,,,,,,,,NaN,,,,,,,,low,high,,,,,,false,,,,false,652022.3999999985,652022.1999999993,,652021.8000000007,,652025.454,4,500,,
break_continue,html.Screen,10_19_2,2023-11-14T19:47:46.432Z,,,,,,,,,,NaN,,,,,,,,low,high,,,,,,false,,,,false,652023.1999999993,652022.8000000007,,652022.6000000015,,652025.454,4,500,,
sequence,flow.Sequence,10_19,2023-11-14T19:47:46.432Z,,,,,,,,,,5797.357000000775,completion,,,,,,,low,high,,,,,,false,,,,false,652023.5,652022.8000000007,646208.87,646224.5,646225.443,652025.454,4,500,,
trial,html.Screen,10_20_0,2023-11-14T19:47:49.604Z,,,,1,0.055893254685579,0.0187125006410995,,false,hl,3170.245999999228,response,0.4723905585695486,0.4732452445400296,-0.4932230489770138,-0.3472886991490291,0.4630743387659032,-0.4443563326659534,high,low,,ISIC_0011779.JPG,9,ISIC_9779803.JPG,300,false,ll,keypress(f),0,false,655195.8000000007,655195.6999999993,652008.915,652023.6000000015,652025.454,655208.986,4,500,21,
break,html.Screen,10_20_1,2023-11-14T19:47:49.605Z,,,,,,,,,,NaN,,,,,,,,high,low,,,,,,false,,,,false,655196.3000000007,655196.1999999993,,655196,,655208.986,4,500,,
break_continue,html.Screen,10_20_2,2023-11-14T19:47:49.605Z,,,,,,,,,,NaN,,,,,,,,high,low,,,,,,false,,,,false,655196.6000000015,655196.3999999985,,655196.3000000007,,655208.986,4,500,,
sequence,flow.Sequence,10_20,2023-11-14T19:47:49.605Z,,,,,,,,,,3170.945999998483,completion,,,,,,,high,low,,,,,,false,,,,false,655196.6000000015,655196.3999999985,652008.915,652023.6000000015,652025.454,655208.986,4,500,,
trial,html.Screen,10_21_0,2023-11-14T19:47:53.565Z,,,,1,0.0586587895724749,0.0220047273041276,,true,ll,3947.3140000007115,response,-0.5661066801359119,0.4732452445400296,-0.4932230489770138,-0.3300563599723403,0.4630743387659032,-0.4443563326659534,low,low,,ISIC_0028320.JPG,9,ISIC_6717452.JPG,473,false,ll,keypress(f),0,false,659156.3999999985,659156.3000000007,655191.959,655196.6999999993,655208.986,659158.7,4,500,22,
break,html.Screen,10_21_1,2023-11-14T19:47:53.565Z,,,,,,,,,,NaN,,,,,,,,low,low,,,,,,false,,,,false,659156.6999999993,659156.6999999993,,659156.5,,659158.7,4,500,,
break_continue,html.Screen,10_21_2,2023-11-14T19:47:53.565Z,,,,,,,,,,NaN,,,,,,,,low,low,,,,,,false,,,,false,659156.8999999985,659156.8000000007,,659156.6999999993,,659158.7,4,500,,
sequence,flow.Sequence,10_21,2023-11-14T19:47:53.566Z,,,,,,,,,,3947.8140000007115,completion,,,,,,,low,low,,,,,,false,,,,false,659156.8999999985,659156.8000000007,655191.959,655196.6000000015,655208.986,659158.7,4,500,,
trial,html.Screen,10_22_0,2023-11-14T19:47:57.111Z,,,,1,0.0388334549081915,-0.0303399972963369,,true,hh,3543.1000000007916,response,0.3206987548391617,0.4732452445400296,-0.4932230489770138,0.4641066968753065,0.4630743387659032,-0.4443563326659534,high,high,,ISIC_4961708.JPG,9,ISIC_0029389.JPG,415,false,hh,keypress(i),0,false,662702.1000000015,662701.8000000007,659142.117,659157,659158.7,662708.669,4,500,23,
break,html.Screen,10_22_1,2023-11-14T19:47:57.112Z,,,,,,,,,,NaN,,,,,,,,high,high,,,,,,false,,,,false,662703,662702.8000000007,,662702.3000000007,,662708.669,4,500,,
break_continue,html.Screen,10_22_2,2023-11-14T19:47:57.112Z,,,,,,,,,,NaN,,,,,,,,high,high,,,,,,false,,,,false,662703.8000000007,662703.3999999985,,662703.1999999993,,662708.669,4,500,,
sequence,flow.Sequence,10_22,2023-11-14T19:47:57.113Z,,,,,,,,,,3544.6999999985565,completion,,,,,,,high,high,,,,,,false,,,,false,662704,662703.3999999985,659142.117,659156.8999999985,659158.7,662708.669,4,500,,
trial,html.Screen,10_23_0,2023-11-14T19:48:00.684Z,,,,1,-0.0572065166118795,0.0247840126545907,,false,hl,3567.0309999992605,response,0.3568417108391037,0.4732452445400296,-0.4932230489770138,-0.6311394629476066,0.4630743387659032,-0.4443563326659534,high,low,,ISIC_0024565.JPG,9,ISIC_5491641.JPG,300,false,ll,keypress(f),0,false,666275.8000000007,666275.6999999993,662692.229,662704.1999999993,662708.669,666292.259,4,500,24,
break,html.Screen,10_23_1,2023-11-14T19:48:00.685Z,,,,,,,,,,NaN,,,,,,,,high,low,,,,,,false,,,,false,666276.1000000015,666276,,666275.8999999985,,666292.259,4,500,,
break_continue,html.Screen,10_23_2,2023-11-14T19:48:00.685Z,,,,,,,,,,NaN,,,,,,,,high,low,,,,,,false,,,,false,666276.3000000007,666276.1999999993,,666276.1000000015,,666292.259,4,500,,
sequence,flow.Sequence,10_23,2023-11-14T19:48:00.685Z,,,,,,,,,,3567.5309999992605,completion,,,,,,,high,low,,,,,,false,,,,false,666276.3000000007,666276.1999999993,662692.229,662704.1000000015,662708.669,666292.259,4,500,,
trial,html.Screen,10_24_0,2023-11-14T19:48:04.868Z,,,,1,-0.0444523556175667,-0.066384682611553,,false,hh,4167.341000001528,response,0.5122315341662885,0.4732452445400296,-0.4932230489770138,0.4138942197067483,0.4630743387659032,-0.4443563326659534,high,high,,ISIC_0029409.JPG,8,ISIC_0064836.JPG,415,false,lh,keypress(e),0,false,670459.6999999993,670459.6000000015,666275.548,666276.3999999985,666292.259,670475.433,4,500,25,
break,html.Screen,10_24_1,2023-11-14T19:48:04.869Z,,,,,,,,,,NaN,,,,,,,,high,high,,,,,,false,,,,false,670460,670460,,670459.8000000007,,670475.433,4,500,,
break_continue,html.Screen,10_24_2,2023-11-14T19:48:04.869Z,,,,,,,,,,NaN,,,,,,,,high,high,,,,,,false,,,,false,670460.3000000007,670460.3000000007,,670460.1000000015,,670475.433,4,500,,
sequence,flow.Sequence,10_24,2023-11-14T19:48:04.869Z,,,,,,,,,,4168.041000000783,completion,,,,,,,high,high,,,,,,false,,,,false,670460.3000000007,670460.3000000007,666275.548,666276.3000000007,666292.259,670475.433,4,500,,
trial,html.Screen,10_25_0,2023-11-14T19:48:08.815Z,,,,1,0.0109416414475118,0.005246498750811,,false,hl,3930.266999999294,response,0.4900239944224682,0.4732452445400296,-0.4932230489770138,-0.6333626065967018,0.4630743387659032,-0.4443563326659534,high,low,,ISIC_0064279.JPG,8,ISIC_7505369.JPG,300,false,ll,keypress(f),0,false,674406,674405.6999999993,670458.711,670460.3999999985,670475.433,674408.728,4,500,26,
break,html.Screen,10_25_1,2023-11-14T19:48:08.816Z,,,,,,,,,,NaN,,,,,,,,high,low,,,,,,false,,,,false,674406.8999999985,674406.6999999993,,674406.1999999993,,674408.728,4,500,,
break_continue,html.Screen,10_25_2,2023-11-14T19:48:08.816Z,,,,,,,,,,NaN,,,,,,,,high,low,,,,,,false,,,,false,674407.6999999993,674407.3000000007,,674407.1000000015,,674408.728,4,500,,
sequence,flow.Sequence,10_25,2023-11-14T19:48:08.817Z,,,,,,,,,,3931.867000000784,completion,,,,,,,high,low,,,,,,false,,,,false,674407.8999999985,674407.3000000007,670458.711,670460.3999999985,670475.433,674408.728,4,500,,
trial,html.Screen,10_26_0,2023-11-14T19:48:12.693Z,,,,1,0.045779466401051,0.0137769797231127,,true,lh,3875.171999998507,response,-0.525634371971047,0.4732452445400296,-0.4932230489770138,0.5016267685273991,0.4630743387659032,-0.4443563326659534,low,high,,ISIC_0000504.JPG,9,ISIC_0070351.JPG,254,false,lh,keypress(e),0,false,678284,678283.8999999985,674392.083,674408.1999999993,674408.728,678292.003,4,500,27,
break,html.Screen,10_26_1,2023-11-14T19:48:12.693Z,,,,,,,,,,NaN,,,,,,,,low,high,,,,,,false,,,,false,678284.6999999993,678284.5,,678284.3000000007,,678292.003,4,500,,
break_continue,html.Screen,10_26_2,2023-11-14T19:48:12.694Z,,,,,,,,,,NaN,,,,,,,,low,high,,,,,,false,,,,false,678285,678284.8999999985,,678284.6999999993,,678292.003,4,500,,
sequence,flow.Sequence,10_26,2023-11-14T19:48:12.694Z,,,,,,,,,,3876.171999998507,completion,,,,,,,low,high,,,,,,false,,,,false,678285.1999999993,678284.8999999985,674392.083,674408.1000000015,674408.728,678292.003,4,500,,
trial,html.Screen,10_27_0,2023-11-14T19:48:18.796Z,,,,1,0.045779466401051,0.0137769797231127,,false,hh,6095.097000001464,response,0.6186052893914605,0.4732452445400296,-0.4932230489770138,0.43346331703836,0.4630743387659032,-0.4443563326659534,high,high,,ISIC_0000504.JPG,10,ISIC_0000162.JPG,415,false,hl,keypress(j),0,false,684387.1999999993,684387.1000000015,678275.222,678285.3000000007,678292.003,684408.634,4,500,28,
break,html.Screen,10_27_1,2023-11-14T19:48:18.796Z,,,,,,,,,,NaN,,,,,,,,high,high,,,,,,false,,,,false,684387.5,684387.5,,684387.3000000007,,684408.634,4,500,,
break_continue,html.Screen,10_27_2,2023-11-14T19:48:18.796Z,,,,,,,,,,NaN,,,,,,,,high,high,,,,,,false,,,,false,684387.6999999993,684387.6000000015,,684387.6000000015,,684408.634,4,500,,
sequence,flow.Sequence,10_27,2023-11-14T19:48:18.796Z,,,,,,,,,,6095.597000001464,completion,,,,,,,high,high,,,,,,false,,,,false,684387.8000000007,684387.6000000015,678275.222,678285.3000000007,678292.003,684408.634,4,500,,
trial,html.Screen,10_28_0,2023-11-14T19:48:22.740Z,,,,1,0.0146597765042814,0.06222227493177,,true,hh,3923.065999999293,response,0.4349801290587128,0.4732452445400296,-0.4932230489770138,0.5092590602404351,0.4630743387659032,-0.4443563326659534,high,high,,ISIC_5982769.JPG,9,ISIC_6785680.JPG,415,false,hh,keypress(i),0,false,688331.8999999985,688331.6999999993,684391.964,684387.8000000007,684408.634,688342.019,4,500,29,
break,html.Screen,10_28_1,2023-11-14T19:48:22.741Z,,,,,,,,,,NaN,,,,,,,,high,high,,,,,,false,,,,false,688332.1000000015,688332,,688331.8999999985,,688342.019,4,500,,
break_continue,html.Screen,10_28_2,2023-11-14T19:48:22.741Z,,,,,,,,,,NaN,,,,,,,,high,high,,,,,,false,,,,false,688332.3000000007,688332.1999999993,,688332.1999999993,,688342.019,4,500,,
sequence,flow.Sequence,10_28,2023-11-14T19:48:22.741Z,,,,,,,,,,3923.565999999293,completion,,,,,,,high,high,,,,,,false,,,,false,688332.3999999985,688332.1999999993,684391.964,684387.8000000007,684408.634,688342.019,4,500,,
trial,html.Screen,10_29_0,2023-11-14T19:48:25.935Z,,,,1,0.0065172941585523,-0.0118857043117315,,false,hh,3183.180999999284,response,0.5111521609558547,0.4732452445400296,-0.4932230489770138,0.4949875680688784,0.4630743387659032,-0.4443563326659534,high,high,,ISIC_6119202.JPG,8,ISIC_0010782.JPG,415,false,hl,keypress(j),0,false,691525.5,691525.1999999993,688325.543,688332.5,688342.019,691541.982,4,500,30,
break,html.Screen,10_29_1,2023-11-14T19:48:25.936Z,,,,,,,,,,NaN,,,,,,,,high,high,,,,,,false,,,,false,691526.1999999993,691526.1000000015,,691525.6999999993,,691541.982,4,500,,
break_continue,html.Screen,10_29_2,2023-11-14T19:48:25.937Z,,,,,,,,,,NaN,,,,,,,,high,high,,,,,,false,,,,false,691526.8999999985,691526.6000000015,,691526.3999999985,,691541.982,4,500,,
sequence,flow.Sequence,10_29,2023-11-14T19:48:25.937Z,,,,,,,,,,3184.581000001519,completion,,,,,,,high,high,,,,,,false,,,,false,691527.1000000015,691526.6000000015,688325.543,688332.5,688342.019,691541.982,4,500,,
trial,html.Screen,10_30_0,2023-11-14T19:48:30.239Z,,,,1,-0.0009714874637896,0.0174815595031679,,false,hl,4287.11800000153,response,0.3127258289338889,0.4732452445400296,-0.4932230489770138,-0.4717350199799824,0.4630743387659032,-0.4443563326659534,high,low,,ISIC_9848743.JPG,9,ISIC_0028275.JPG,300,false,ll,keypress(f),0,false,695829.3999999985,695829.1000000015,691525.353,691527.3000000007,691541.982,695841.996,4,500,31,
break,html.Screen,10_30_1,2023-11-14T19:48:30.240Z,,,,,,,,,,NaN,,,,,,,,high,low,,,,,,false,,,,false,695830.3999999985,695830.1000000015,,695829.6999999993,,695841.996,4,500,,
break_continue,html.Screen,10_30_2,2023-11-14T19:48:30.241Z,,,,,,,,,,NaN,,,,,,,,high,low,,,,,,false,,,,false,695831.1000000015,695830.6999999993,,695830.5,,695841.996,4,500,,
sequence,flow.Sequence,10_30,2023-11-14T19:48:30.241Z,,,,,,,,,,4288.717999999295,completion,,,,,,,high,low,,,,,,false,,,,false,695831.3000000007,695830.6999999993,691525.353,691527.1999999993,691541.982,695841.996,4,500,,
trial,html.Screen,10_31_0,2023-11-14T19:48:33.686Z,,,,1,0.0367060100866019,0.0630207980628495,,true,lh,3433.503999999957,response,-0.623245087791014,0.4732452445400296,-0.4932230489770138,0.4051408633843022,0.4630743387659032,-0.4443563326659534,low,high,,ISIC_0028396.JPG,8,ISIC_0027408.JPG,254,false,lh,keypress(e),0,false,699275.6000000015,699275.5,695825.446,695831.5,695841.996,699292.197,4,500,32,
break,html.Screen,10_31_1,2023-11-14T19:48:33.686Z,,,,,,,,,,NaN,,,,,,,,low,high,,,,,,false,,,,false,699275.8999999985,699275.8999999985,,699275.6999999993,,699292.197,4,500,,
break_continue,html.Screen,10_31_2,2023-11-14T19:48:33.686Z,,,,,,,,,,NaN,,,,,,,,low,high,,,,,,false,,,,false,699276.1000000015,699276.1000000015,,699276,,699292.197,4,500,,
sequence,flow.Sequence,10_31,2023-11-14T19:48:33.686Z,,,,,,,,,,3434.1040000014473,completion,,,,,,,low,high,,,,,,false,,,,false,699276.3000000007,699276.1000000015,695825.446,695831.5,695841.996,699292.197,4,500,,
trial,html.Screen,10_32_0,2023-11-14T19:48:36.711Z,,,,1,-0.0367744112927588,-0.0324865661712824,,true,ll,3008.6030000007013,response,-0.4042414555953462,0.4732452445400296,-0.4932230489770138,-0.3977749619625293,0.4630743387659032,-0.4443563326659534,low,low,,ISIC_4523565.JPG,9,ISIC_5377977.JPG,473,false,ll,keypress(f),0,false,702301.1000000015,702300.8000000007,699275.426,699276.3000000007,699292.197,702308.583,4,500,33,
break,html.Screen,10_32_1,2023-11-14T19:48:36.712Z,,,,,,,,,,NaN,,,,,,,,low,low,,,,,,false,,,,false,702301.8999999985,702301.6999999993,,702301.3000000007,,702308.583,4,500,,
break_continue,html.Screen,10_32_2,2023-11-14T19:48:36.712Z,,,,,,,,,,NaN,,,,,,,,low,low,,,,,,false,,,,false,702302.5,702302.1999999993,,702302,,702308.583,4,500,,
sequence,flow.Sequence,10_32,2023-11-14T19:48:36.713Z,,,,,,,,,,3010.002999999211,completion,,,,,,,low,low,,,,,,false,,,,false,702302.8000000007,702302.1999999993,699275.426,699276.3000000007,699292.197,702308.583,4,500,,
trial,html.Screen,10_33_0,2023-11-14T19:48:39.327Z,,,,1,0.0497314815986203,-0.0303374618795786,,true,ll,2607.917000000016,response,-0.3285382281201805,0.4732452445400296,-0.4932230489770138,-0.4776088477863875,0.4630743387659032,-0.4443563326659534,low,low,,ISIC_6023504.JPG,9,ISIC_4425604.JPG,473,false,ll,keypress(f),0,false,704916.8000000007,704916.5,702292.137,702303,702308.583,704925.206,4,500,34,
break,html.Screen,10_33_1,2023-11-14T19:48:39.328Z,,,,,,,,,,NaN,,,,,,,,low,low,,,,,,false,,,,false,704917.6000000015,704917.5,,704917.1000000015,,704925.206,4,500,,
break_continue,html.Screen,10_33_2,2023-11-14T19:48:39.328Z,,,,,,,,,,NaN,,,,,,,,low,low,,,,,,false,,,,false,704918.3000000007,704918,,704917.8000000007,,704925.206,4,500,,
sequence,flow.Sequence,10_33,2023-11-14T19:48:39.328Z,,,,,,,,,,2609.417000000016,completion,,,,,,,low,low,,,,,,false,,,,false,704918.6000000015,704918,702292.137,702302.8000000007,702308.583,704925.206,4,500,,
trial,html.Screen,10_34_0,2023-11-14T19:48:42.239Z,,,,1,0.0478761683145946,-0.012927090508672,,false,hl,2903.5940000007395,response,0.3217654933545251,0.4732452445400296,-0.4932230489770138,-0.2974906921221982,0.4630743387659032,-0.4443563326659534,high,low,,ISIC_9631669.JPG,8,ISIC_0032079.JPG,300,false,hh,keypress(i),0,false,707829.1000000015,707828.8000000007,704908.47,704918.6999999993,704925.206,707842.091,4,500,35,
break,html.Screen,10_34_1,2023-11-14T19:48:42.240Z,,,,,,,,,,NaN,,,,,,,,high,low,,,,,,false,,,,false,707830,707829.8000000007,,707829.3999999985,,707842.091,4,500,,
break_continue,html.Screen,10_34_2,2023-11-14T19:48:42.241Z,,,,,,,,,,NaN,,,,,,,,high,low,,,,,,false,,,,false,707830.6999999993,707830.3000000007,,707830.1999999993,,707842.091,4,500,,
sequence,flow.Sequence,10_34,2023-11-14T19:48:42.241Z,,,,,,,,,,2905.0940000007395,completion,,,,,,,high,low,,,,,,false,,,,false,707830.8999999985,707830.3000000007,704908.47,704918.6999999993,704925.206,707842.091,4,500,,
trial,html.Screen,10_35_0,2023-11-14T19:48:46.528Z,,,,1,0.0273175221875807,0.0515126441328492,,false,lh,4275.509000001475,response,-0.4727449620578943,0.4732452445400296,-0.4932230489770138,0.2656384632673838,0.4630743387659032,-0.4443563326659534,low,high,,ISIC_0064034.JPG,9,ISIC_5903193.JPG,254,false,ll,keypress(f),0,false,712117.8000000007,712117.6000000015,707825.414,707831.1000000015,707842.091,712125.228,4,500,36,
break,html.Screen,10_35_1,2023-11-14T19:48:46.529Z,,,,,,,,,,NaN,,,,,,,,low,high,,,,,,false,,,,false,712118.8000000007,712118.6000000015,,712118.1000000015,,712125.228,4,500,,
break_continue,html.Screen,10_35_2,2023-11-14T19:48:46.529Z,,,,,,,,,,NaN,,,,,,,,low,high,,,,,,false,,,,false,712119.5,712119.1999999993,,712119,,712125.228,4,500,,
sequence,flow.Sequence,10_35,2023-11-14T19:48:46.530Z,,,,,,,,,,4277.10899999924,completion,,,,,,,low,high,,,,,,false,,,,false,712119.6999999993,712119.1999999993,707825.414,707831,707842.091,712125.228,4,500,,
trial,html.Screen,10_36_0,2023-11-14T19:48:50.439Z,,,,1,0.0388181790775959,-0.0049623405709465,,true,hh,3903.8720000014873,response,0.4338015279483168,0.4732452445400296,-0.4932230489770138,0.5893896887756221,0.4630743387659032,-0.4443563326659534,high,high,,ISIC_0061880.JPG,9,ISIC_0072601.JPG,415,false,hh,keypress(i),0,false,716029.3999999985,716029.1000000015,712108.449,712120,712125.228,716041.943,4,500,37,
break,html.Screen,10_36_1,2023-11-14T19:48:50.440Z,,,,,,,,,,NaN,,,,,,,,high,high,,,,,,false,,,,false,716030.3999999985,716030.1000000015,,716029.6999999993,,716041.943,4,500,,
break_continue,html.Screen,10_36_2,2023-11-14T19:48:50.441Z,,,,,,,,,,NaN,,,,,,,,high,high,,,,,,false,,,,false,716031.1000000015,716030.6999999993,,716030.6000000015,,716041.943,4,500,,
sequence,flow.Sequence,10_36,2023-11-14T19:48:50.441Z,,,,,,,,,,3905.471999999252,completion,,,,,,,high,high,,,,,,false,,,,false,716031.3000000007,716030.6999999993,712108.449,712119.8999999985,712125.228,716041.943,4,500,,
trial,html.Screen,10_37_0,2023-11-14T19:48:53.959Z,,,,1,-0.066631540328269,-0.005292120470259,,true,hl,3506.7569999992847,response,0.5860668918615636,0.4732452445400296,-0.4932230489770138,-0.2675746321705151,0.4630743387659032,-0.4443563326659534,high,low,,ISIC_8041550.JPG,8,ISIC_0010007.JPG,300,false,hl,keypress(j),0,false,719548.8999999985,719548.6999999993,716025.422,716031.5,716041.943,719558.54,4,500,38,
break,html.Screen,10_37_1,2023-11-14T19:48:53.960Z,,,,,,,,,,NaN,,,,,,,,high,low,,,,,,false,,,,false,719549.8000000007,719549.6000000015,,719549.1999999993,,719558.54,4,500,,
break_continue,html.Screen,10_37_2,2023-11-14T19:48:53.960Z,,,,,,,,,,NaN,,,,,,,,high,low,,,,,,false,,,,false,719550.3999999985,719550.1999999993,,719549.8999999985,,719558.54,4,500,,
sequence,flow.Sequence,10_37,2023-11-14T19:48:53.961Z,,,,,,,,,,3508.2569999992847,completion,,,,,,,high,low,,,,,,false,,,,false,719550.6000000015,719550.1999999993,716025.422,716031.5,716041.943,719558.54,4,500,,
trial,html.Screen,10_38_0,2023-11-14T19:48:57.919Z,,,,1,-0.07101539702336,0.0351358305415709,,true,ll,3950.4599999999627,response,-0.4181261257635779,0.4732452445400296,-0.4932230489770138,-0.250714900411797,0.4630743387659032,-0.4443563326659534,low,low,,ISIC_0033279.JPG,9,ISIC_9740245.JPG,473,false,ll,keypress(f),0,false,723509.3000000007,723509,719542.047,719550.8000000007,719558.54,723525.448,4,500,39,
break,html.Screen,10_38_1,2023-11-14T19:48:57.920Z,,,,,,,,,,NaN,,,,,,,,low,low,,,,,,false,,,,false,723510.3000000007,723510,,723509.6000000015,,723525.448,4,500,,
break_continue,html.Screen,10_38_2,2023-11-14T19:48:57.921Z,,,,,,,,,,NaN,,,,,,,,low,low,,,,,,false,,,,false,723511,723510.6999999993,,723510.3999999985,,723525.448,4,500,,
sequence,flow.Sequence,10_38,2023-11-14T19:48:57.921Z,,,,,,,,,,3952.1599999992177,completion,,,,,,,low,low,,,,,,false,,,,false,723511.3000000007,723510.6999999993,719542.047,719550.8000000007,719558.54,723525.448,4,500,,
trial,html.Screen,10_39_0,2023-11-14T19:49:01.623Z,,,,1,0.0145962222125655,0.0525495878509009,,true,hl,3687.451999998535,response,0.6154995806613252,0.4732452445400296,-0.4932230489770138,-0.2630153654417784,0.4630743387659032,-0.4443563326659534,high,low,,ISIC_4248013.JPG,10,ISIC_0000026.JPG,300,false,hl,keypress(j),0,false,727213.1999999993,727212.8999999985,723508.73,723511.3999999985,723525.448,727225.254,4,500,40,
break,html.Screen,10_39_1,2023-11-14T19:49:01.624Z,,,,,,,,,,NaN,,,,,,,,high,low,,,,,,false,,,,false,727214.1000000015,727213.8999999985,,727213.5,,727225.254,4,500,,
break_continue,html.Screen,10_39_2,2023-11-14T19:49:01.625Z,,,,,,,,,,NaN,,,,,,,,high,low,,,,,,false,,,,false,727214.8000000007,727214.5,,727214.3000000007,,727225.254,4,500,,
sequence,flow.Sequence,10_39,2023-11-14T19:49:01.625Z,,,,,,,,,,3689.052000000025,completion,,,,,,,high,low,,,,,,false,,,,false,727215,727214.5,723508.73,723511.3999999985,723525.448,727225.254,4,500,,
trial,html.Screen,10_40_0,2023-11-14T19:49:05.214Z,,,,1,-0.0085390023861227,-0.051110950799465,,false,ll,3578.346000001533,response,-0.3411262367456849,0.4732452445400296,-0.4932230489770138,-0.5648709778429496,0.4630743387659032,-0.4443563326659534,low,low,,ISIC_6268546.JPG,10,ISIC_0645454.JPG,473,false,hl,keypress(j),0,false,730803.6999999993,730803.6000000015,727208.651,727215.3000000007,727225.254,730808.516,4,500,41,
break,html.Screen,10_40_1,2023-11-14T19:49:05.214Z,,,,,,,,,,NaN,,,,,,,,low,low,,,,,,false,,,,false,730804,730803.8999999985,,730803.8000000007,,730808.516,4,500,,
break_continue,html.Screen,10_40_2,2023-11-14T19:49:05.214Z,,,,,,,,,,NaN,,,,,,,,low,low,,,,,,false,,,,false,730804.1999999993,730804.1999999993,,730804.1000000015,,730808.516,4,500,,
sequence,flow.Sequence,10_40,2023-11-14T19:49:05.214Z,,,,,,,,,,3578.945999999298,completion,,,,,,,low,low,,,,,,false,,,,false,730804.3000000007,730804.1999999993,727208.651,727215.1999999993,727225.254,730808.516,4,500,,
trial,html.Screen,10_41_0,2023-11-14T19:49:12.711Z,,,,1,-0.0044063257337227,-0.0172548282859886,,true,lh,7492.18399999931,response,-0.3698349181227505,0.4732452445400296,-0.4932230489770138,0.3483242400386803,0.4630743387659032,-0.4443563326659534,low,high,,ISIC_7413786.JPG,9,ISIC_0032951.JPG,254,false,lh,keypress(e),0,false,738301,738300.6999999993,730791.887,730804.3000000007,730808.516,738308.544,4,500,42,
break,html.Screen,10_41_1,2023-11-14T19:49:12.712Z,,,,,,,,,,NaN,,,,,,,,low,high,,,,,,false,,,,false,738301.8999999985,738301.6999999993,,738301.3000000007,,738308.544,4,500,,
break_continue,html.Screen,10_41_2,2023-11-14T19:49:12.712Z,,,,,,,,,,NaN,,,,,,,,low,high,,,,,,false,,,,false,738302.6000000015,738302.1999999993,,738302,,738308.544,4,500,,
sequence,flow.Sequence,10_41,2023-11-14T19:49:12.713Z,,,,,,,,,,7493.68399999931,completion,,,,,,,low,high,,,,,,false,,,,false,738302.8000000007,738302.1999999993,730791.887,730804.3000000007,730808.516,738308.544,4,500,,
trial,html.Screen,10_42_0,2023-11-14T19:49:20.143Z,,,,1,-0.0105349256029223,0.0723574625425557,,true,hh,7424.456000000006,response,0.577491620150872,0.4732452445400296,-0.4932230489770138,0.4607292848808292,0.4630743387659032,-0.4443563326659534,high,high,,ISIC_0058998.JPG,9,ISIC_0063852.JPG,415,false,hh,keypress(i),0,false,745733.3000000007,745733,738291.989,738303,738308.544,745741.77,4,500,43,
break,html.Screen,10_42_1,2023-11-14T19:49:20.144Z,,,,,,,,,,NaN,,,,,,,,high,high,,,,,,false,,,,false,745734.3000000007,745734,,745733.6000000015,,745741.77,4,500,,
break_continue,html.Screen,10_42_2,2023-11-14T19:49:20.145Z,,,,,,,,,,NaN,,,,,,,,high,high,,,,,,false,,,,false,745735,745734.6000000015,,745734.3999999985,,745741.77,4,500,,
sequence,flow.Sequence,10_42,2023-11-14T19:49:20.145Z,,,,,,,,,,7426.056000001496,completion,,,,,,,high,high,,,,,,false,,,,false,745735.1999999993,745734.6000000015,738291.989,738303,738308.544,745741.77,4,500,,
trial,html.Screen,10_43_0,2023-11-14T19:49:27.239Z,,,,1,0.0146597765042814,0.06222227493177,,true,ll,7086.030000000726,response,-0.5252858919166364,0.4732452445400296,-0.4932230489770138,-0.4829743027933009,0.4630743387659032,-0.4443563326659534,low,low,,ISIC_5982769.JPG,9,ISIC_1952599.JPG,473,false,ll,keypress(f),0,false,752828,752827.8000000007,745725.169,745735.3999999985,745741.77,752841.782,4,500,44,
break,html.Screen,10_43_1,2023-11-14T19:49:27.240Z,,,,,,,,,,NaN,,,,,,,,low,low,,,,,,false,,,,false,752828.5,752828.3999999985,,752828.1999999993,,752841.782,4,500,,
break_continue,html.Screen,10_43_2,2023-11-14T19:49:27.240Z,,,,,,,,,,NaN,,,,,,,,low,low,,,,,,false,,,,false,752829,752828.8000000007,,752828.6000000015,,752841.782,4,500,,
sequence,flow.Sequence,10_43,2023-11-14T19:49:27.240Z,,,,,,,,,,7087.030000000726,completion,,,,,,,low,low,,,,,,false,,,,false,752829.1000000015,752828.8000000007,745725.169,745735.3000000007,745741.77,752841.782,4,500,,
trial,html.Screen,10_44_0,2023-11-14T19:49:30.945Z,,,,1,-0.0118382036798625,-0.0300588245877227,,false,lh,3692.0180000007385,response,-0.470346991048548,0.4732452445400296,-0.4932230489770138,0.3092987152426276,0.4630743387659032,-0.4443563326659534,low,high,,ISIC_4748605.JPG,10,ISIC_0070217.JPG,254,false,ll,keypress(f),0,false,756534.1000000015,756533.8000000007,752825.076,752829.1999999993,752841.782,756541.765,4,500,45,
break,html.Screen,10_44_1,2023-11-14T19:49:30.946Z,,,,,,,,,,NaN,,,,,,,,low,high,,,,,,false,,,,false,756535.1000000015,756534.8999999985,,756534.5,,756541.765,4,500,,
break_continue,html.Screen,10_44_2,2023-11-14T19:49:30.947Z,,,,,,,,,,NaN,,,,,,,,low,high,,,,,,false,,,,false,756535.8000000007,756535.5,,756535.1999999993,,756541.765,4,500,,
sequence,flow.Sequence,10_44,2023-11-14T19:49:30.947Z,,,,,,,,,,3693.7179999999935,completion,,,,,,,low,high,,,,,,false,,,,false,756536,756535.5,752825.076,752829.1999999993,752841.782,756541.765,4,500,,
trial,html.Screen,10_45_0,2023-11-14T19:49:36.233Z,,,,1,,0.0102871556606504,,true,lh,5279.535000000731,response,-0.5872024743419177,0.4732452445400296,-0.4932230489770138,0.5373973596962491,0.4630743387659032,-0.4443563326659534,low,high,,ISIC_1805163.JPG,10,ISIC_5377237.JPG,254,false,lh,keypress(e),0,false,761821.6999999993,761821.3000000007,756525.345,756536.3000000007,756541.765,761825.108,4,500,46,
break,html.Screen,10_45_1,2023-11-14T19:49:36.234Z,,,,,,,,,,NaN,,,,,,,,low,high,,,,,,false,,,,false,761822.6999999993,761822.3999999985,,761821.8999999985,,761825.108,4,500,,
break_continue,html.Screen,10_45_2,2023-11-14T19:49:36.235Z,,,,,,,,,,NaN,,,,,,,,low,high,,,,,,false,,,,false,761823.3000000007,761823,,761822.8000000007,,761825.108,4,500,,
sequence,flow.Sequence,10_45,2023-11-14T19:49:36.235Z,,,,,,,,,,5281.234999999986,completion,,,,,,,low,high,,,,,,false,,,,false,761823.6000000015,761823,756525.345,756536.1000000015,756541.765,761825.108,4,500,,
trial,html.Screen,10_46_0,2023-11-14T19:49:38.919Z,,,,1,-0.0105349256029223,0.0723574625425557,,true,hh,2682.1920000007376,response,0.6718985587534494,0.4732452445400296,-0.4932230489770138,0.3116975055628751,0.4630743387659032,-0.4443563326659534,high,high,,ISIC_0058998.JPG,10,ISIC_0011510.JPG,415,false,hh,keypress(i),0,false,764507.3999999985,764507.3000000007,761808.486,761823.8000000007,761825.108,764525.586,4,500,47,
break,html.Screen,10_46_1,2023-11-14T19:49:38.919Z,,,,,,,,,,NaN,,,,,,,,high,high,,,,,,false,,,,false,764507.6999999993,764507.6999999993,,764507.5,,764525.586,4,500,,
break_continue,html.Screen,10_46_2,2023-11-14T19:49:38.919Z,,,,,,,,,,NaN,,,,,,,,high,high,,,,,,false,,,,false,764507.8999999985,764507.8000000007,,764507.6999999993,,764525.586,4,500,,
sequence,flow.Sequence,10_46,2023-11-14T19:49:38.919Z,,,,,,,,,,2682.6920000007376,completion,,,,,,,high,high,,,,,,false,,,,false,764507.8999999985,764507.8000000007,761808.486,761823.8000000007,761825.108,764525.586,4,500,,
trial,html.Screen,10_47_0,2023-11-14T19:49:41.569Z,,,,1,-0.0105349256029223,0.0723574625425557,,false,hl,2632.1139999992447,response,0.5142213760989639,0.4732452445400296,-0.4932230489770138,-0.5770353287873289,0.4630743387659032,-0.4443563326659534,high,low,,ISIC_0058998.JPG,9,ISIC_5194331.JPG,300,false,lh,keypress(e),0,false,767158,767157.6999999993,764491.907,764508.1000000015,764525.586,767175.246,4,500,48,
break,html.Screen,10_47_1,2023-11-14T19:49:41.570Z,,,,,,,,,,NaN,,,,,,,,high,low,,,,,,false,,,,false,767159,767158.6000000015,,767158.1999999993,,767175.246,4,500,,
break_continue,html.Screen,10_47_2,2023-11-14T19:49:41.571Z,,,,,,,,,,NaN,,,,,,,,high,low,,,,,,false,,,,false,767159.6999999993,767159.3000000007,,767159.1999999993,,767175.246,4,500,,
sequence,flow.Sequence,10_47,2023-11-14T19:49:41.571Z,,,,,,,,,,2633.714000000735,completion,,,,,,,high,low,,,,,,false,,,,false,767159.8999999985,767159.3000000007,764491.907,764507.8999999985,764525.586,767175.246,4,500,,
trial,html.Screen,10_48_0,2023-11-14T19:49:46.033Z,,,,1,-0.0480293506029756,-0.0744454320613987,,false,ll,4446.653999998467,response,-0.4861701121081029,0.4732452445400296,-0.4932230489770138,-0.3904347976079494,0.4630743387659032,-0.4443563326659534,low,low,,ISIC_1798471.JPG,9,ISIC_0063672.JPG,473,false,lh,keypress(e),0,false,771622.1999999993,771621.8999999985,767158.683,767160.1000000015,767175.246,771625.114,4,500,49,
break,html.Screen,10_48_1,2023-11-14T19:49:46.034Z,,,,,,,,,,NaN,,,,,,,,low,low,,,,,,false,,,,false,771623,771622.8999999985,,771622.3999999985,,771625.114,4,500,,
break_continue,html.Screen,10_48_2,2023-11-14T19:49:46.035Z,,,,,,,,,,NaN,,,,,,,,low,low,,,,,,false,,,,false,771623.8000000007,771623.5,,771623.3000000007,,771625.114,4,500,,
sequence,flow.Sequence,10_48,2023-11-14T19:49:46.035Z,,,,,,,,,,4448.253999999957,completion,,,,,,,low,low,,,,,,false,,,,false,771624,771623.5,767158.683,767160.1000000015,767175.246,771625.114,4,500,,
trial,html.Screen,10_49_0,2023-11-14T19:49:48.848Z,,,,1,0.0473541545202326,-0.0294076954053606,,false,lh,2811.386000000057,response,-0.525634371971047,0.4732452445400296,-0.4932230489770138,0.5016267685273991,0.4630743387659032,-0.4443563326659534,low,high,,ISIC_0034065.JPG,9,ISIC_0070351.JPG,254,false,ll,keypress(f),0,false,774436.8000000007,774436.5,771608.492,771624.1999999993,771625.114,774458.649,4,500,50,
break,html.Screen,10_49_1,2023-11-14T19:49:48.849Z,,,,,,,,,,NaN,,,,,,,,low,high,,,,,,false,,,,false,774437.6999999993,774437.5,,774437.1000000015,,774458.649,4,500,,
break_continue,html.Screen,10_49_2,2023-11-14T19:49:48.850Z,,,,,,,,,,NaN,,,,,,,,low,high,,,,,,false,,,,false,774438.5,774438.1000000015,,774437.8999999985,,774458.649,4,500,,
sequence,flow.Sequence,10_49,2023-11-14T19:49:48.850Z,,,,,,,,,,2812.986000001547,completion,,,,,,,low,high,,,,,,false,,,,false,774438.6999999993,774438.1000000015,771608.492,771624.1000000015,771625.114,774458.649,4,500,,
