sender,sender_type,sender_id,timestamp,meta,,age,blockNo,c1,c2,condition,correct,correctResponse,duration,ended_on,f1,f1_high,f1_low,f2,f2_high,f2_low,feature_level1,feature_level2,gender,img_left,img_reveal,img_right,n_target_images,practice,response,response_action,selection_duration,staircase,time_commit,time_end,time_render,time_run,time_show,time_switch,total_blocks,total_trials,trialNo,url
informed_consent,html.Screen,0,2023-11-14T21:34:58.922Z,"{""labjs_version"":""20.2.4"",""labjs_build"":{""flavor"":""development"",""commit"":""f5b4a49f956347addd546a832a3327688c2c0fef""},""location"":""https://labjs.felixhenninger.com/api/labjs_preview/index.html"",""userAgent"":""Mozilla/5.0 (Windows NT 10.0; Win64; x64) AppleWebKit/537.36 (KHTML, like Gecko) Chrome/119.0.0.0 Safari/537.36"",""platform"":""Win32"",""language"":""en-US"",""locale"":""en-US"",""timeZone"":""America/Chicago"",""timezoneOffset"":360,""screen_width"":1920,""screen_height"":1080,""scroll_width"":945,""scroll_height"":918,""window_innerWidth"":945,""window_innerHeight"":966,""devicePixelRatio"":1}",,,,,,,,,54064.61699996424,response,,,,,,,,,,,,,,,consent,click button,,,54603.59999996424,54597.09999996424,515.78,511.0999999642372,532.483,54615.927,,,,{}
Demography form,html.Form,1,2023-11-14T21:35:05.970Z,,,18,,,,,,,7035.373000011918,form submission,,,,,,,,,male,,,,,,,,,,61651.39999997616,61651.30000001192,54599.063,54603.89999997616,54615.927,61649.064,,,,
Welcome,html.Screen,2,2023-11-14T21:35:38.668Z,,,,,,,"[""asym"",""bor""]",,,32700.13599998808,response,,,,,,,,,,,,,,,continue,click button,,,94349.89999997616,94349.19999998808,61632.509,61651.5,61649.064,94366.161,,,,
demo_instructions,html.Screen,3,2023-11-14T21:36:04.060Z,,,,,,,,,,25375.038999988086,response,,,,,,,,,,,,,,,continue,click button,,,119741.80000001192,119741.19999998808,94349.464,94350,94366.161,119765.931,,,,
trial,html.Screen,4_0_0,2023-11-14T21:36:27.929Z,,,,0,0.991146183030456,-0.9949639823722534,,true,lh,23845.069000000003,response,-1.011737552725394,1.0499999999999998,-1.0499999999999998,0.8500530224490773,1.0499999999999998,-1.0499999999999998,low,high,,ISIC_6342224.JPG,,ISIC_2998367.JPG,21,true,lh,keypress(e),100,false,143611.09999996424,143611,119749.005,119741.89999997616,119765.931,143632.288,1,16,1,
sequence,flow.Sequence,4_0,2023-11-14T21:36:27.929Z,,,,,,,,,,23845.069000000003,completion,,,,,,,low,high,,,,,,true,,,,false,143611.30000001192,143611,119749.005,119741.89999997616,119765.931,143632.288,1,16,,
trial,html.Screen,4_1_0,2023-11-14T21:36:39.500Z,,,,0,0.8947611078712571,-0.8960964505004638,,true,lh,11549.311999964237,response,-1.0026266089287914,1.0499999999999998,-1.0499999999999998,1.0913275913920335,1.0499999999999998,-1.0499999999999998,low,high,,ISIC_6441128.JPG,,ISIC_0033520.JPG,21,true,lh,keypress(e),100,false,155181.80000001192,155181.59999996424,143615.843,143611.39999997616,143632.288,155199.221,1,16,2,
sequence,flow.Sequence,4_1,2023-11-14T21:36:39.500Z,,,,,,,,,,11549.311999964237,completion,,,,,,,low,high,,,,,,true,,,,false,155182,155181.59999996424,143615.843,143611.39999997616,143632.288,155199.221,1,16,,
trial,html.Screen,4_2_0,2023-11-14T21:36:50.784Z,,,,0,0.8947611078712571,-0.8960964505004638,,true,lh,11266.178999976168,response,-0.8979276789594874,1.0499999999999998,-1.0499999999999998,0.925374811016654,1.0499999999999998,-1.0499999999999998,low,high,,ISIC_6441128.JPG,,ISIC_4208361.JPG,21,true,lh,keypress(e),100,false,166465.59999996424,166465.39999997616,155182.308,155182.09999996424,155199.221,166482.285,1,16,3,
sequence,flow.Sequence,4_2,2023-11-14T21:36:50.784Z,,,,,,,,,,11266.178999976168,completion,,,,,,,low,high,,,,,,true,,,,false,166465.89999997616,166465.39999997616,155182.308,155182.09999996424,155199.221,166482.285,1,16,,
trial,html.Screen,4_3_0,2023-11-14T21:36:57.205Z,,,,0,1.0213365328004047,-1.088524359911891,,true,lh,6403.515000011917,response,-0.9433720631499012,1.0499999999999998,-1.0499999999999998,1.0582071940347648,1.0499999999999998,-1.0499999999999998,low,high,,ISIC_5434229.JPG,,ISIC_4890201.JPG,21,true,lh,keypress(e),100,false,172886.5,172885.80000001192,166465.632,166466,166482.285,172915.766,1,16,4,
sequence,flow.Sequence,4_3,2023-11-14T21:36:57.205Z,,,,,,,,,,6403.515000011917,completion,,,,,,,low,high,,,,,,true,,,,false,172886.69999998808,172885.80000001192,166465.632,166466,166482.285,172915.766,1,16,,
trial,html.Screen,4_4_0,2023-11-14T21:37:02.568Z,,,,0,1.2493792664822851,1.1336008561684745,,false,ll,5333.733999999997,response,-1.056824784611021,1.0499999999999998,-1.0499999999999998,-0.8736902702135552,1.0499999999999998,-1.0499999999999998,low,low,,ISIC_0061475.JPG,,ISIC_0014026.JPG,111,true,lh,keypress(e),100,false,178249.69999998808,178249.5,172899.125,172886.89999997616,172915.766,178265.871,1,16,5,
sequence,flow.Sequence,4_4,2023-11-14T21:37:02.568Z,,,,,,,,,,5333.733999999997,completion,,,,,,,low,low,,,,,,true,,,,false,178249.80000001192,178249.5,172899.125,172886.89999997616,172915.766,178265.871,1,16,,
trial,html.Screen,4_5_0,2023-11-14T21:37:20.875Z,,,,0,1.1877026569952844,1.1604367569896263,,true,ll,18291.128999999986,response,-0.8513702094329779,1.0499999999999998,-1.0499999999999998,-0.8646686295881743,1.0499999999999998,-1.0499999999999998,low,low,,ISIC_0064589.JPG,,ISIC_1881133.JPG,111,true,ll,keypress(f),100,false,196557.19999998808,196557,178248.984,178250,178265.871,196582.419,1,16,6,
sequence,flow.Sequence,4_5,2023-11-14T21:37:20.876Z,,,,,,,,,,18291.128999999986,completion,,,,,,,low,low,,,,,,true,,,,false,196557.39999997616,196557,178248.984,178249.89999997616,178265.871,196582.419,1,16,,
trial,html.Screen,4_6_0,2023-11-14T21:37:29.407Z,,,,0,0.9787884514439864,1.139528725910855,,true,ll,8505.881000011927,response,-0.9191486333136276,1.0499999999999998,-1.0499999999999998,-1.001866590114321,1.0499999999999998,-1.0499999999999998,low,low,,ISIC_0032726.JPG,,ISIC_0663941.JPG,111,true,ll,keypress(f),100,false,205088.39999997616,205088.30000001192,196565.967,196557.39999997616,196582.419,205115.898,1,16,7,
sequence,flow.Sequence,4_6,2023-11-14T21:37:29.407Z,,,,,,,,,,8505.881000011927,completion,,,,,,,low,low,,,,,,true,,,,false,205088.59999996424,205088.30000001192,196565.967,196557.39999997616,196582.419,205115.898,1,16,,
trial,html.Screen,4_7_0,2023-11-14T21:37:38.321Z,,,,0,1.189469386514313,0.8968175956070027,,true,ll,8887.20199996425,response,-0.8689515664606163,1.0499999999999998,-1.0499999999999998,-1.0538817435713148,1.0499999999999998,-1.0499999999999998,low,low,,ISIC_0010644.JPG,,ISIC_7333928.JPG,111,true,ll,keypress(f),100,false,214003.19999998808,214003.09999996424,205099.056,205088.59999996424,205115.898,214032.507,1,16,8,
sequence,flow.Sequence,4_7,2023-11-14T21:37:38.321Z,,,,,,,,,,8887.20199996425,completion,,,,,,,low,low,,,,,,true,,,,false,214003.30000001192,214003.09999996424,205099.056,205088.59999996424,205115.898,214032.507,1,16,,
trial,html.Screen,4_8_0,2023-11-14T21:37:46.069Z,,,,0,-1.0026266089287914,1.0913275913920335,,false,hl,7718.293000011909,response,0.7870237732709365,0.9499999999999997,-0.9499999999999997,-0.9172955251119376,0.9499999999999997,-0.9499999999999997,high,low,,ISIC_0033520.JPG,,ISIC_0057716.JPG,26,true,ll,keypress(f),100,false,221750.89999997616,221750.80000001192,214015.975,214003.39999997616,214032.507,221782.466,1,16,9,
sequence,flow.Sequence,4_8,2023-11-14T21:37:46.069Z,,,,,,,,,,7718.293000011909,completion,,,,,,,high,low,,,,,,true,,,,false,221751.09999996424,221750.80000001192,214015.975,214003.39999997616,214032.507,221782.466,1,16,,
trial,html.Screen,4_9_0,2023-11-14T21:37:57.002Z,,,,0,-0.7877939497981142,0.8415032780288271,,true,hl,10901.334000011935,response,0.809764442462202,0.9499999999999997,-0.9499999999999997,-1.005337148078696,0.9499999999999997,-0.9499999999999997,high,low,,ISIC_0067308.JPG,,ISIC_2379379.JPG,26,true,hl,keypress(j),100,false,232683.89999997616,232683.80000001192,221765.585,221751.30000001192,221782.466,232715.81,1,16,10,
sequence,flow.Sequence,4_9,2023-11-14T21:37:57.002Z,,,,,,,,,,10901.334000011935,completion,,,,,,,high,low,,,,,,true,,,,false,232684.09999996424,232683.80000001192,221765.585,221751.30000001192,221782.466,232715.81,1,16,,
trial,html.Screen,4_10_0,2023-11-14T21:38:08.288Z,,,,0,-0.8534691366511764,1.03975580494588,,true,hl,11253.28999996424,response,0.7871162143493278,0.9499999999999997,-0.9499999999999997,-0.8429329800778957,0.9499999999999997,-0.9499999999999997,high,low,,ISIC_0056788.JPG,,ISIC_3439215.JPG,26,true,hl,keypress(j),100,false,243969.19999998808,243969.09999996424,232699.096,232684.09999996424,232715.81,243998.844,1,16,11,
sequence,flow.Sequence,4_10,2023-11-14T21:38:08.289Z,,,,,,,,,,11253.28999996424,completion,,,,,,,high,low,,,,,,true,,,,false,243969.39999997616,243969.09999996424,232699.096,232684.09999996424,232715.81,243998.844,1,16,,
trial,html.Screen,4_11_0,2023-11-14T21:38:14.901Z,,,,0,-0.9579209317488,1.0147487101263497,,true,hl,6582.555999976146,response,1.0122398223568725,0.9499999999999997,-0.9499999999999997,-0.7505228537454216,0.9499999999999997,-0.9499999999999997,high,low,,ISIC_8124482.JPG,,ISIC_0033802.JPG,26,true,hl,keypress(j),100,false,250581.59999996424,250581.39999997616,243982.19,243969.59999996424,243998.844,250599.291,1,16,12,
sequence,flow.Sequence,4_11,2023-11-14T21:38:14.901Z,,,,,,,,,,6582.555999976146,completion,,,,,,,high,low,,,,,,true,,,,false,250581.69999998808,250581.39999997616,243982.19,243969.5,243998.844,250599.291,1,16,,
trial,html.Screen,4_12_0,2023-11-14T21:38:24.984Z,,,,0,-0.8763527075016911,-0.8957887978691169,,false,hh,10065.10899997616,response,0.8019171574297028,0.9499999999999997,-0.9499999999999997,1.0925160607978373,0.9499999999999997,-0.9499999999999997,high,high,,ISIC_8943906.JPG,,ISIC_0010925.JPG,167,true,hl,keypress(j),100,false,260664.59999996424,260664.39999997616,250582.194,250581.80000001192,250599.291,260682.178,1,16,13,
sequence,flow.Sequence,4_12,2023-11-14T21:38:24.984Z,,,,,,,,,,10065.10899997616,completion,,,,,,,high,high,,,,,,true,,,,false,260664.69999998808,260664.39999997616,250582.194,250581.80000001192,250599.291,260682.178,1,16,,
trial,html.Screen,4_13_0,2023-11-14T21:38:33.835Z,,,,0,-0.7870373375006504,-1.0385104284303668,,true,hh,8833.622000011906,response,1.0570568707560892,0.9499999999999997,-0.9499999999999997,0.8316850702452728,0.9499999999999997,-0.9499999999999997,high,high,,ISIC_0002162.JPG,,ISIC_0059294.JPG,167,true,hh,keypress(i),100,false,269516,269515.8000000119,260665.518,260664.80000001192,260682.178,269532.157,1,16,14,
sequence,flow.Sequence,4_13,2023-11-14T21:38:33.835Z,,,,,,,,,,8833.622000011906,completion,,,,,,,high,high,,,,,,true,,,,false,269516.1999999881,269515.8000000119,260665.518,260664.80000001192,260682.178,269532.157,1,16,,
trial,html.Screen,4_14_0,2023-11-14T21:38:37.583Z,,,,0,-1.0064329161780483,-0.7918012854539199,,true,hh,3731.7429999761516,response,0.987907971728555,0.9499999999999997,-0.9499999999999997,0.7987724453125647,0.9499999999999997,-0.9499999999999997,high,high,,ISIC_0033137.JPG,,ISIC_3613392.JPG,167,true,hh,keypress(i),100,false,273264,273263.89999997616,269515.449,269516.3000000119,269532.157,273282.322,1,16,15,
sequence,flow.Sequence,4_14,2023-11-14T21:38:37.583Z,,,,,,,,,,3731.7429999761516,completion,,,,,,,high,high,,,,,,true,,,,false,273264.1999999881,273263.89999997616,269515.449,269516.3000000119,269532.157,273282.322,1,16,,
trial,html.Screen,4_15_0,2023-11-14T21:38:45.745Z,,,,0,-1.0366777133497644,-0.8674472391512381,,true,hh,8143.777999964252,response,1.0687084488958063,0.9499999999999997,-0.9499999999999997,0.8837970437785844,0.9499999999999997,-0.9499999999999997,high,high,,ISIC_0014431.JPG,,ISIC_0072714.JPG,167,true,hh,keypress(i),100,false,281426.3000000119,281426.09999996424,273265.506,273264.1999999881,273282.322,281449.085,1,16,16,
sequence,flow.Sequence,4_15,2023-11-14T21:38:45.745Z,,,,,,,,,,8143.777999964252,completion,,,,,,,high,high,,,,,,true,,,,false,281426.39999997616,281426.09999996424,273265.506,273264.1999999881,273282.322,281449.085,1,16,,
demonstration_loop,flow.Loop,4,2023-11-14T21:38:45.746Z,,,,,,,,,,161660.16899996425,completion,,,,,,,,,,,,,,true,,,,false,281426.5,281426.09999996424,119749.005,119741.80000001192,119765.931,281449.085,1,16,,
practice_instructions,html.Screen,5,2023-11-14T21:39:04.330Z,,,,,,,,,,18555.814999976137,response,,,,,,,,,,,,,,,continue,click button,,,300011.1999999881,300004.89999997616,281432.159,281426.5,281449.085,300015.448,,,,
trial,html.Screen,6_0_0,2023-11-14T21:39:15.320Z,,,,1,1.0687084488958063,0.8837970437785844,,,,11016.673999999999,timeout,-1.0393236111814752,0.9499999999999997,-0.9499999999999997,-0.850194793725365,0.9499999999999997,-0.9499999999999997,low,low,,ISIC_0072714.JPG,,ISIC_8427534.JPG,142,true,,,0,false,311001.6999999881,311001.59999996424,299999.04,300011.3000000119,300015.448,311032.122,1,20,1,
sequence,flow.Sequence,6_0,2023-11-14T21:39:15.320Z,,,,,,,,,,10986.151999964262,completion,,,,,,,low,low,,,,,,true,,,,false,311001.8000000119,311001.59999996424,299999.04,300011.3000000119,300015.448,311032.122,1,20,,
trial,html.Screen,6_1_0,2023-11-14T21:39:21.559Z,,,,1,-0.9433720631499012,1.0582071940347648,,true,hl,6208.178000011947,response,0.7833710010171356,0.9499999999999997,-0.9499999999999997,-0.9315588090336896,0.9499999999999997,-0.9499999999999997,high,low,,ISIC_4890201.JPG,,ISIC_3826102.JPG,26,true,hl,keypress(j),0,false,317240.39999997616,317240.3000000119,311015.876,311001.89999997616,311032.122,317265.879,1,20,2,
sequence,flow.Sequence,6_1,2023-11-14T21:39:21.559Z,,,,,,,,,,6208.178000011947,completion,,,,,,,high,low,,,,,,true,,,,false,317240.5,317240.3000000119,311015.876,311001.89999997616,311032.122,317265.879,1,20,,
trial,html.Screen,6_2_0,2023-11-14T21:39:27.957Z,,,,1,0.758207007584394,1.0437879361189135,,true,ll,6372.320999988064,response,-0.964746248973834,0.9499999999999997,-0.9499999999999997,-0.9069353065857808,0.9499999999999997,-0.9499999999999997,low,low,,ISIC_0011626.JPG,,ISIC_9896801.JPG,142,true,ll,keypress(f),0,false,323638.39999997616,323638.1999999881,317248.966,317240.59999996424,317265.879,323649.029,1,20,3,
sequence,flow.Sequence,6_2,2023-11-14T21:39:27.957Z,,,,,,,,,,6372.320999988064,completion,,,,,,,low,low,,,,,,true,,,,false,323638.39999997616,323638.1999999881,317248.966,317240.5,317265.879,323649.029,1,20,,
trial,html.Screen,6_3_0,2023-11-14T21:39:33.941Z,,,,1,-0.9064565001469764,-0.7748322849719208,,true,hh,5973.47100000002,response,0.7951907368136324,0.9499999999999997,-0.9499999999999997,0.8943547811786065,0.9499999999999997,-0.9499999999999997,high,high,,ISIC_0025877.JPG,,ISIC_0071771.JPG,167,true,hh,keypress(i),0,false,329622.59999996424,329622.5,323631.925,323638.5,323649.029,329632.189,1,20,4,
sequence,flow.Sequence,6_3,2023-11-14T21:39:33.941Z,,,,,,,,,,5973.47100000002,completion,,,,,,,high,high,,,,,,true,,,,false,329622.8000000119,329622.5,323631.925,323638.5,323649.029,329632.189,1,20,,
trial,html.Screen,6_4_0,2023-11-14T21:39:40.789Z,,,,1,1.0115965332688306,-0.8282633603842442,,true,lh,6838.510999988066,response,-0.8534691366511764,0.9499999999999997,-0.9499999999999997,1.03975580494588,0.9499999999999997,-0.9499999999999997,low,high,,ISIC_1069587.JPG,,ISIC_0056788.JPG,28,true,lh,keypress(e),0,false,336470.8000000119,336470.6999999881,329615.674,329622.8000000119,329632.189,336482.351,1,20,5,
sequence,flow.Sequence,6_4,2023-11-14T21:39:40.789Z,,,,,,,,,,6838.510999988066,completion,,,,,,,low,high,,,,,,true,,,,false,336470.8000000119,336470.6999999881,329615.674,329622.8000000119,329632.189,336482.351,1,20,,
trial,html.Screen,6_5_0,2023-11-14T21:39:49.957Z,,,,1,-0.8579451262594331,0.9633172970727744,,true,hl,9156.048999976134,response,0.948927472020595,0.9499999999999997,-0.9499999999999997,-1.0660437155921598,0.9499999999999997,-0.9499999999999997,high,low,,ISIC_0067172.JPG,,ISIC_5808758.JPG,26,true,hl,keypress(j),0,false,345638.5,345638.39999997616,336465.664,336470.89999997616,336482.351,345649.171,1,20,6,
sequence,flow.Sequence,6_5,2023-11-14T21:39:49.957Z,,,,,,,,,,9156.048999976134,completion,,,,,,,high,low,,,,,,true,,,,false,345638.59999996424,345638.39999997616,336465.664,336470.89999997616,336482.351,345649.171,1,20,,
trial,html.Screen,6_6_0,2023-11-14T21:39:57.813Z,,,,1,-1.0865333402803938,1.0542635307358266,,true,hl,7845.129000011948,response,0.8623414234919863,0.9499999999999997,-0.9499999999999997,-0.782830143980698,0.9499999999999997,-0.9499999999999997,high,low,,ISIC_0034006.JPG,,ISIC_2727016.JPG,26,true,hl,keypress(j),0,false,353494.5,353494.3000000119,345631.904,345638.59999996424,345649.171,353498.715,1,20,7,
sequence,flow.Sequence,6_6,2023-11-14T21:39:57.813Z,,,,,,,,,,7845.129000011948,completion,,,,,,,high,low,,,,,,true,,,,false,353494.59999996424,353494.3000000119,345631.904,345638.59999996424,345649.171,353498.715,1,20,,
trial,html.Screen,6_7_0,2023-11-14T21:40:06.694Z,,,,1,-0.9872117590837104,-0.8387342204487216,,true,hh,8875.884999964212,response,0.958609763811768,0.9499999999999997,-0.9499999999999997,1.0650939066726144,0.9499999999999997,-0.9499999999999997,high,high,,ISIC_4539674.JPG,,ISIC_0070163.JPG,167,true,hh,keypress(i),0,false,362374.6999999881,362374.59999996424,353482.268,353494.59999996424,353498.715,362382.151,1,20,8,
sequence,flow.Sequence,6_7,2023-11-14T21:40:06.694Z,,,,,,,,,,8875.884999964212,completion,,,,,,,high,high,,,,,,true,,,,false,362374.6999999881,362374.59999996424,353482.268,353494.59999996424,353498.715,362382.151,1,20,,
trial,html.Screen,6_8_0,2023-11-14T21:40:11.702Z,,,,1,-1.0393236111814752,-0.850194793725365,,true,hh,5000.248999976146,response,1.0323818763018933,0.9499999999999997,-0.9499999999999997,0.8120239593278021,0.9499999999999997,-0.9499999999999997,high,high,,ISIC_8427534.JPG,,ISIC_0012055.JPG,167,true,hh,keypress(i),0,false,367382.59999996424,367382.39999997616,362365.371,362374.8000000119,362382.151,367398.966,1,20,9,
sequence,flow.Sequence,6_8,2023-11-14T21:40:11.702Z,,,,,,,,,,5000.248999976146,completion,,,,,,,high,high,,,,,,true,,,,false,367382.6999999881,367382.39999997616,362365.371,362374.8000000119,362382.151,367398.966,1,20,,
trial,html.Screen,6_9_0,2023-11-14T21:40:18.662Z,,,,1,0.8947611078712571,-0.8960964505004638,,true,lh,6943.533999999985,response,-0.8809306963311293,0.9499999999999997,-0.9499999999999997,0.8614910030038974,0.9499999999999997,-0.9499999999999997,low,high,,ISIC_6441128.JPG,,ISIC_0013731.JPG,28,true,lh,keypress(e),0,false,374342.6999999881,374342.5,367382.199,367382.6999999881,367398.966,374348.782,1,20,10,
sequence,flow.Sequence,6_9,2023-11-14T21:40:18.662Z,,,,,,,,,,6943.533999999985,completion,,,,,,,low,high,,,,,,true,,,,false,374342.8000000119,374342.5,367382.199,367382.6999999881,367398.966,374348.782,1,20,,
trial,html.Screen,6_10_0,2023-11-14T21:40:23.590Z,,,,1,0.8947611078712571,-0.8960964505004638,,true,lh,4921.518000011914,response,-0.990489579313564,0.9499999999999997,-0.9499999999999997,0.7747897983133127,0.9499999999999997,-0.9499999999999997,low,high,,ISIC_6441128.JPG,,ISIC_7030404.JPG,28,true,lh,keypress(e),0,false,379270.39999997616,379270.3000000119,374332.24,374342.8000000119,374348.782,379282.293,1,20,11,
sequence,flow.Sequence,6_10,2023-11-14T21:40:23.590Z,,,,,,,,,,4921.518000011914,completion,,,,,,,low,high,,,,,,true,,,,false,379270.5,379270.3000000119,374332.24,374342.8000000119,374348.782,379282.293,1,20,,
trial,html.Screen,6_11_0,2023-11-14T21:40:29.702Z,,,,1,1.0470490803707713,0.9267385554195492,,true,ll,6100.306999964232,response,-0.7819386010267503,0.9499999999999997,-0.9499999999999997,-1.0882850488448614,0.9499999999999997,-0.9499999999999997,low,low,,ISIC_0058649.JPG,,ISIC_9024078.JPG,142,true,ll,keypress(f),0,false,385382.6999999881,385382.59999996424,379265.483,379270.59999996424,379282.293,385398.944,1,20,12,
sequence,flow.Sequence,6_11,2023-11-14T21:40:29.702Z,,,,,,,,,,6100.306999964232,completion,,,,,,,low,low,,,,,,true,,,,false,385382.89999997616,385382.59999996424,379265.483,379270.59999996424,379282.293,385398.944,1,20,,
trial,html.Screen,6_12_0,2023-11-14T21:40:36.374Z,,,,1,-0.8579451262594331,0.9633172970727744,,true,hl,6655.45599997614,response,0.948927472020595,0.9499999999999997,-0.9499999999999997,-1.0660437155921598,0.9499999999999997,-0.9499999999999997,high,low,,ISIC_0067172.JPG,,ISIC_5808758.JPG,26,true,hl,keypress(j),0,false,392054.59999996424,392054.39999997616,385382.273,385382.89999997616,385398.944,392065.507,1,20,13,
sequence,flow.Sequence,6_12,2023-11-14T21:40:36.374Z,,,,,,,,,,6655.45599997614,completion,,,,,,,high,low,,,,,,true,,,,false,392054.59999996424,392054.39999997616,385382.273,385382.89999997616,385398.944,392065.507,1,20,,
trial,html.Screen,6_13_0,2023-11-14T21:40:43.510Z,,,,1,-0.953802353776362,-0.927101493584587,,true,hh,7124.793000011938,response,0.9012711689442632,0.9499999999999997,-0.9499999999999997,0.8639942067158306,0.9499999999999997,-0.9499999999999997,high,high,,ISIC_9751601.JPG,,ISIC_0032718.JPG,167,true,hh,keypress(i),0,false,399190.5,399190.3000000119,392048.946,392054.6999999881,392065.507,399198.838,1,20,14,
sequence,flow.Sequence,6_13,2023-11-14T21:40:43.510Z,,,,,,,,,,7124.793000011938,completion,,,,,,,high,high,,,,,,true,,,,false,399190.59999996424,399190.3000000119,392048.946,392054.6999999881,392065.507,399198.838,1,20,,
trial,html.Screen,6_14_0,2023-11-14T21:40:48.166Z,,,,1,0.8888187899385174,0.8162579333127866,,true,ll,4647.462000011932,response,-0.9031332540970408,0.9499999999999997,-0.9499999999999997,-0.853200189915778,0.9499999999999997,-0.9499999999999997,low,low,,ISIC_0070285.JPG,,ISIC_4679971.JPG,142,true,ll,keypress(f),0,false,403846.39999997616,403846.3000000119,399182.217,399190.59999996424,399198.838,403848.66,1,20,15,
sequence,flow.Sequence,6_14,2023-11-14T21:40:48.166Z,,,,,,,,,,4647.462000011932,completion,,,,,,,low,low,,,,,,true,,,,false,403846.5,403846.3000000119,399182.217,399190.59999996424,399198.838,403848.66,1,20,,
trial,html.Screen,6_15_0,2023-11-14T21:40:55.462Z,,,,1,0.7667223565323059,0.7525280650246937,,true,ll,7293.840000000026,response,-1.135787555082309,0.9499999999999997,-0.9499999999999997,-1.0095789588135065,0.9499999999999997,-0.9499999999999997,low,low,,ISIC_0031397.JPG,,ISIC_0032526.JPG,142,true,ll,keypress(f),0,false,411142.59999996424,411142.5,403831.986,403846.59999996424,403848.66,411148.867,1,20,16,
sequence,flow.Sequence,6_15,2023-11-14T21:40:55.462Z,,,,,,,,,,7293.840000000026,completion,,,,,,,low,low,,,,,,true,,,,false,411142.59999996424,411142.5,403831.986,403846.59999996424,403848.66,411148.867,1,20,,
trial,html.Screen,6_16_0,2023-11-14T21:41:01.462Z,,,,1,0.796241477082623,-0.9017449335975743,,true,lh,5993.4330000118935,response,-1.011737552725394,0.9499999999999997,-0.9499999999999997,0.8500530224490773,0.9499999999999997,-0.9499999999999997,low,high,,ISIC_8588033.JPG,,ISIC_2998367.JPG,28,true,lh,keypress(e),0,false,417142.5,417142.3000000119,411131.752,411142.6999999881,411148.867,417148.683,1,20,17,
sequence,flow.Sequence,6_16,2023-11-14T21:41:01.462Z,,,,,,,,,,5993.4330000118935,completion,,,,,,,low,high,,,,,,true,,,,false,417142.5,417142.3000000119,411131.752,411142.6999999881,411148.867,417148.683,1,20,,
trial,html.Screen,6_17_0,2023-11-14T21:41:09.126Z,,,,1,-0.858338058340649,0.9540612223480284,,true,hl,7657.716999976139,response,0.8655167308525522,0.9499999999999997,-0.9499999999999997,-0.9298580423306444,0.9499999999999997,-0.9499999999999997,high,low,,ISIC_8922893.JPG,,ISIC_4603706.JPG,26,true,hl,keypress(j),0,false,424806.59999996424,424806.39999997616,417132.077,417142.6999999881,417148.683,424815.401,1,20,18,
sequence,flow.Sequence,6_17,2023-11-14T21:41:09.126Z,,,,,,,,,,7657.716999976139,completion,,,,,,,high,low,,,,,,true,,,,false,424806.6999999881,424806.39999997616,417132.077,417142.6999999881,417148.683,424815.401,1,20,,
trial,html.Screen,6_18_0,2023-11-14T21:41:15.862Z,,,,1,0.7809949855371787,-0.8493861117004308,,true,lh,6726.899000011908,response,-0.8809306963311293,0.9499999999999997,-0.9499999999999997,0.8614910030038974,0.9499999999999997,-0.9499999999999997,low,high,,ISIC_7450481.JPG,,ISIC_0013731.JPG,28,true,lh,keypress(e),0,false,431542.39999997616,431542.3000000119,424798.618,424806.6999999881,424815.401,431548.717,1,20,19,
sequence,flow.Sequence,6_18,2023-11-14T21:41:15.862Z,,,,,,,,,,6726.899000011908,completion,,,,,,,low,high,,,,,,true,,,,false,431542.5,431542.3000000119,424798.618,424806.6999999881,424815.401,431548.717,1,20,,
trial,html.Screen,6_19_0,2023-11-14T21:41:23.910Z,,,,1,-1.048330701104555,-0.8086625502956353,,true,hh,8041.682999976154,response,1.1253220985777015,0.9499999999999997,-0.9499999999999997,1.108725659461368,0.9499999999999997,-0.9499999999999997,high,high,,ISIC_0030508.JPG,,ISIC_0054954.JPG,167,true,hh,keypress(i),0,false,439590.5,439590.39999997616,431532.018,431542.5,431548.717,439598.731,1,20,20,
sequence,flow.Sequence,6_19,2023-11-14T21:41:23.910Z,,,,,,,,,,8041.682999976154,completion,,,,,,,high,high,,,,,,true,,,,false,439590.59999996424,439590.39999997616,431532.018,431542.5,431548.717,439598.731,1,20,,
practice_loop,flow.Loop,6,2023-11-14T21:41:23.910Z,,,,,,,,,,139574.95199997618,completion,,,,,,,,,,,,,,true,,,,false,439590.6999999881,439590.39999997616,299999.04,300011.1999999881,300015.448,439598.731,1,20,,
stair_instructions,html.Screen,7,2023-11-14T21:42:00.413Z,,,,,,,,,,36493.96899998805,response,,,,,,,,,,,,,,,continue,click button,,,476093.39999997616,476092.6999999881,439581.958,439590.6999999881,439598.731,476098.588,,,,
trial,html.Screen,8_0_0,2023-11-14T21:42:11.404Z,,,,2,0.0217698886732706,-0.0410870915161425,,,,11016.826000000001,timeout,-0.9696118525781644,0.9499999999999997,-0.9499999999999997,0.9244148283103414,0.9499999999999997,-0.9499999999999997,low,high,,ISIC_0072173.JPG,,ISIC_7927525.JPG,28,false,,,0,true,487084.59999996424,487084.5,476082.155,476093.6999999881,476098.588,487115.414,1,40,1,
sequence,flow.Sequence,8_0,2023-11-14T21:42:11.404Z,,,,,,,,,,10985.912000000011,completion,,,,,,,low,high,,,,,,false,,,,true,487084.8000000119,487084.5,476082.155,476093.59999996424,476098.588,487115.414,1,40,,
trial,html.Screen,8_1_0,2023-11-14T21:42:16.200Z,,,,2,0.0640778296621707,0.0387686079545705,,false,hl,4765.08600000001,response,0.8816288864119318,0.9499999999999997,-0.9499999999999997,-0.801867301188093,0.9499999999999997,-0.9499999999999997,high,low,,ISIC_0010124.JPG,,ISIC_9196783.JPG,26,false,hh,keypress(i),0,true,491880.59999996424,491880.5,487098.755,487084.8000000119,487115.414,491898.688,1,40,2,
sequence,flow.Sequence,8_1,2023-11-14T21:42:16.200Z,,,,,,,,,,4765.08600000001,completion,,,,,,,high,low,,,,,,false,,,,true,491880.6999999881,491880.5,487098.755,487084.8000000119,487115.414,491898.688,1,40,,
trial,html.Screen,8_2_0,2023-11-14T21:42:21.734Z,,,,2,0.0329095507339554,-0.0382899749693245,,false,hh,5515.612000011897,response,1.0323818763018933,0.9499999999999997,-0.8999999999999997,0.8120239593278021,0.8999999999999997,-0.9499999999999997,high,high,,ISIC_8812781.JPG,,ISIC_0012055.JPG,178,false,ll,keypress(f),0,true,497414.3000000119,497414.3000000119,491881.895,491880.6999999881,491898.688,497432.479,1,40,3,
sequence,flow.Sequence,8_2,2023-11-14T21:42:21.734Z,,,,,,,,,,5515.612000011897,completion,,,,,,,high,high,,,,,,false,,,,true,497414.39999997616,497414.3000000119,491881.895,491880.6999999881,491898.688,497432.479,1,40,,
trial,html.Screen,8_3_0,2023-11-14T21:42:27.446Z,,,,2,0.0608867680161491,0.0206384042070211,,true,hh,5694.021000000008,response,1.0687084488958063,0.9499999999999997,-0.8499999999999996,0.8837970437785844,0.8999999999999997,-0.8999999999999997,high,high,,ISIC_0640806.JPG,,ISIC_0072714.JPG,178,false,hh,keypress(i),0,true,503126.59999996424,503126.5,497398.851,497414.39999997616,497432.479,503131.886,1,40,4,
sequence,flow.Sequence,8_3,2023-11-14T21:42:27.446Z,,,,,,,,,,5694.021000000008,completion,,,,,,,high,high,,,,,,false,,,,true,503126.6999999881,503126.5,497398.851,497414.39999997616,497432.479,503131.886,1,40,,
trial,html.Screen,8_4_0,2023-11-14T21:42:31.014Z,,,,2,-0.0097091270150747,0.0417921315885292,,false,hl,3562.3139999880805,response,0.7468996036626098,0.8999999999999997,-0.7999999999999996,-0.8073835700282378,0.8499999999999996,-0.8499999999999996,high,low,,ISIC_3967213.JPG,,ISIC_5335139.JPG,43,false,hh,keypress(i),0,true,506694.3000000119,506694.1999999881,503115.273,503126.8000000119,503131.886,506698.554,1,40,5,
sequence,flow.Sequence,8_4,2023-11-14T21:42:31.014Z,,,,,,,,,,3562.3139999880805,completion,,,,,,,high,low,,,,,,false,,,,true,506694.39999997616,506694.1999999881,503115.273,503126.8000000119,503131.886,506698.554,1,40,,
trial,html.Screen,8_5_0,2023-11-14T21:42:37.270Z,,,,2,-0.013431314305098,0.0140597582944232,,false,lh,6251.345999976154,response,-0.7745450008355167,0.8999999999999997,-0.7499999999999996,0.7385127154484312,0.7999999999999996,-0.8499999999999996,low,high,,ISIC_0069617.JPG,,ISIC_0015401.JPG,81,false,hh,keypress(i),0,true,512950,512949.89999997616,506681.771,506694.5,506698.554,512965.319,1,40,6,
sequence,flow.Sequence,8_5,2023-11-14T21:42:37.270Z,,,,,,,,,,6251.345999976154,completion,,,,,,,low,high,,,,,,false,,,,true,512950,512949.89999997616,506681.771,506694.39999997616,506698.554,512965.319,1,40,,
trial,html.Screen,8_6_0,2023-11-14T21:42:41.062Z,,,,2,0.0401045651353626,0.053461375824197,,false,hl,3776.9810000119032,response,0.658450997652008,0.8499999999999996,-0.7499999999999996,-0.8660404645096786,0.7999999999999996,-0.7999999999999996,high,low,,ISIC_6483504.JPG,,ISIC_6515546.JPG,54,false,hh,keypress(i),0,true,516742.39999997616,516742.3000000119,512948.324,512950.1999999881,512965.319,516748.721,1,40,7,
sequence,flow.Sequence,8_6,2023-11-14T21:42:41.062Z,,,,,,,,,,3776.9810000119032,completion,,,,,,,high,low,,,,,,false,,,,true,516742.5,516742.3000000119,512948.324,512950.1999999881,512965.319,516748.721,1,40,,
trial,html.Screen,8_7_0,2023-11-14T21:42:46.600Z,,,,2,-0.0149482827359613,0.0661630859332833,,true,lh,5531.4789999880595,response,-0.8979276789594874,0.8499999999999996,-0.6999999999999995,0.925374811016654,0.7499999999999996,-0.7999999999999996,low,high,,ISIC_6815524.JPG,,ISIC_4208361.JPG,95,false,lh,keypress(e),0,true,522280.3000000119,522280.1999999881,516731.906,516742.59999996424,516748.721,522281.847,1,40,8,
sequence,flow.Sequence,8_7,2023-11-14T21:42:46.600Z,,,,,,,,,,5531.4789999880595,completion,,,,,,,low,high,,,,,,false,,,,true,522280.39999997616,522280.1999999881,516731.906,516742.59999996424,516748.721,522281.847,1,40,,
trial,html.Screen,8_8_0,2023-11-14T21:42:51.622Z,,,,2,-0.0565575423757561,-0.0394300226801425,,false,hl,5020.35299998807,response,0.8103021308201687,0.7999999999999996,-0.6499999999999995,-0.7042733963657423,0.7319437632325425,-0.7499999999999996,high,low,,ISIC_0046983.JPG,,ISIC_1496194.JPG,66,false,lh,keypress(e),0,true,527302.3000000119,527302.1999999881,522265.01,522280.5,522281.847,527315.375,1,40,9,
sequence,flow.Sequence,8_8,2023-11-14T21:42:51.622Z,,,,,,,,,,5020.35299998807,completion,,,,,,,high,low,,,,,,false,,,,true,527302.3999999762,527302.1999999881,522265.01,522280.5,522281.847,527315.375,1,40,,
trial,html.Screen,8_9_0,2023-11-14T21:42:56.278Z,,,,2,0.0329095507339554,-0.0382899749693245,,false,ll,4642.824999988079,response,-0.4001641995535098,0.7999999999999996,-0.5999999999999994,-0.5775540635851782,0.6819437632325425,-0.7499999999999996,low,low,,ISIC_8812781.JPG,,ISIC_3922602.JPG,337,false,lh,keypress(e),0,true,531958.3000000119,531958.1999999881,527298.628,527302.5,527315.375,531965.337,1,40,10,
sequence,flow.Sequence,8_9,2023-11-14T21:42:56.278Z,,,,,,,,,,4642.824999988079,completion,,,,,,,low,low,,,,,,false,,,,true,531958.3999999762,531958.1999999881,527298.628,527302.5,527315.375,531965.337,1,40,,
trial,html.Screen,8_10_0,2023-11-14T21:42:59.926Z,,,,2,0.0450282431170921,,,false,ll,3641.2629999641795,response,-0.6427500587932088,0.7499999999999996,-0.5999999999999994,-0.6828311937997597,0.6319437632325424,-0.7499999999999996,low,low,,ISIC_1805163.JPG,,ISIC_6013764.JPG,337,false,lh,keypress(e),0,true,535606.5999999642,535606.5999999642,531948.639,531958.3999999762,531965.337,535615.438,1,40,11,
sequence,flow.Sequence,8_10,2023-11-14T21:42:59.926Z,,,,,,,,,,3641.2629999641795,completion,,,,,,,low,low,,,,,,false,,,,true,535606.8000000119,535606.5999999642,531948.639,531958.3999999762,531965.337,535615.438,1,40,,
trial,html.Screen,8_11_0,2023-11-14T21:43:06.118Z,,,,2,0.063045324701596,-0.0064789751878758,,true,hh,6182.5620000000345,response,0.8704775521762318,0.6999999999999995,-0.5999999999999994,0.4650750074189588,0.5819437632325424,-0.7499999999999996,high,high,,ISIC_5805349.JPG,,ISIC_7800706.JPG,356,false,hh,keypress(i),0,true,541798.0999999642,541798,535598.512,535606.8000000119,535615.438,541831.986,1,40,12,
sequence,flow.Sequence,8_11,2023-11-14T21:43:06.118Z,,,,,,,,,,6182.5620000000345,completion,,,,,,,high,high,,,,,,false,,,,true,541798.1999999881,541798,535598.512,535606.8000000119,535615.438,541831.986,1,40,,
trial,html.Screen,8_12_0,2023-11-14T21:43:11.494Z,,,,2,-0.0265457942157377,-0.0704357137706731,,false,ll,5342.0139999999665,response,-0.6668377194320008,0.6499999999999995,-0.5499999999999994,-0.7708200032105804,0.5319437632325423,-0.6999999999999995,low,low,,ISIC_3123377.JPG,,ISIC_6413346.JPG,364,false,lh,keypress(e),0,true,547174.0999999642,547174,541815.343,541798.3000000119,541831.986,547181.965,1,40,13,
sequence,flow.Sequence,8_12,2023-11-14T21:43:11.494Z,,,,,,,,,,5342.0139999999665,completion,,,,,,,low,low,,,,,,false,,,,true,547174.3000000119,547174,541815.343,541798.3000000119,541831.986,547181.965,1,40,,
trial,html.Screen,8_13_0,2023-11-14T21:43:16.854Z,,,,2,0.0111354529246037,-0.0585810480909377,,false,hl,5352.234999988112,response,0.509751042863348,0.5999999999999994,-0.5499999999999994,-0.5396132834573176,0.48194376323254234,-0.6999999999999995,high,low,,ISIC_7858034.JPG,,ISIC_0032750.JPG,132,false,ll,keypress(f),0,true,552534.3000000119,552534.1999999881,547165.227,547174.3000000119,547181.965,552548.687,1,40,14,
sequence,flow.Sequence,8_13,2023-11-14T21:43:16.854Z,,,,,,,,,,5352.234999988112,completion,,,,,,,high,low,,,,,,false,,,,true,552534.3000000119,552534.1999999881,547165.227,547174.3000000119,547181.965,552548.687,1,40,,
trial,html.Screen,8_14_0,2023-11-14T21:43:23.814Z,,,,2,0.0217698886732706,-0.0410870915161425,,false,lh,6945.512999988045,response,-0.4014483759338945,0.5999999999999994,-0.4999999999999994,0.3461023041069047,0.48194376323254234,-0.6999999999999995,low,high,,ISIC_0072173.JPG,,ISIC_6507792.JPG,252,false,hl,keypress(j),0,true,559494.3000000119,559494.1999999881,552531.921,552534.3999999762,552548.687,559498.481,1,40,15,
sequence,flow.Sequence,8_14,2023-11-14T21:43:23.814Z,,,,,,,,,,6945.512999988045,completion,,,,,,,low,high,,,,,,false,,,,true,559494.3000000119,559494.1999999881,552531.921,552534.3999999762,552548.687,559498.481,1,40,,
trial,html.Screen,8_15_0,2023-11-14T21:43:29.510Z,,,,2,-0.0021038737988857,0.0570427519488725,,true,hh,5691.71899998805,response,0.550128987639262,0.5499999999999994,-0.4999999999999994,0.3896891020202579,0.48194376323254234,-0.6499999999999995,high,high,,ISIC_3596927.JPG,,ISIC_0011950.JPG,415,false,hh,keypress(i),0,true,565190.3000000119,565190.1999999881,559481.773,559494.3999999762,559498.481,565198.656,1,40,16,
sequence,flow.Sequence,8_15,2023-11-14T21:43:29.510Z,,,,,,,,,,5691.71899998805,completion,,,,,,,high,high,,,,,,false,,,,true,565190.3999999762,565190.1999999881,559481.773,559494.3999999762,559498.481,565198.656,1,40,,
trial,html.Screen,8_16_0,2023-11-14T21:43:35.574Z,,,,2,-0.0688801591312476,-0.0185462113313342,,false,ll,6055.54399998812,response,-0.3390180718258825,0.4999999999999994,-0.4999999999999994,-0.4153161474751384,0.48194376323254234,-0.5999999999999994,low,low,,ISIC_0067723.JPG,,ISIC_5132214.JPG,424,false,lh,keypress(e),0,true,571254.1999999881,571254.1999999881,565181.727,565190.5,565198.656,571265.584,1,40,17,
sequence,flow.Sequence,8_16,2023-11-14T21:43:35.574Z,,,,,,,,,,6055.54399998812,completion,,,,,,,low,low,,,,,,false,,,,true,571254.3999999762,571254.1999999881,565181.727,565190.3999999762,565198.656,571265.584,1,40,,
trial,html.Screen,8_17_0,2023-11-14T21:43:44.054Z,,,,2,0.0217698886732706,-0.0410870915161425,,false,ll,8468.71600001189,response,-0.52680895708315,0.4999999999999994,-0.4999999999999994,-0.6349675862600443,0.48194376323254234,-0.5999999999999994,low,low,,ISIC_0072173.JPG,,ISIC_9974299.JPG,424,false,lh,keypress(e),0,true,579734.3999999762,579734.3000000119,571248.487,571254.5,571265.584,579748.531,1,40,18,
sequence,flow.Sequence,8_17,2023-11-14T21:43:44.054Z,,,,,,,,,,8468.71600001189,completion,,,,,,,low,low,,,,,,false,,,,true,579734.3999999762,579734.3000000119,571248.487,571254.3999999762,571265.584,579748.531,1,40,,
trial,html.Screen,8_18_0,2023-11-14T21:43:50.918Z,,,,2,0.0651705891246238,-0.0394586219902573,,false,hh,6849.769000011962,response,0.3791101617791472,0.4999999999999994,-0.4999999999999994,0.3644916789404671,0.48194376323254234,-0.5999999999999994,high,high,,ISIC_0013491.JPG,,ISIC_0028698.JPG,404,false,hl,keypress(j),0,true,586598.5,586598.3000000119,579731.764,579734.5,579748.531,586615.371,1,40,19,
sequence,flow.Sequence,8_18,2023-11-14T21:43:50.918Z,,,,,,,,,,6849.769000011962,completion,,,,,,,high,high,,,,,,false,,,,true,586598.5999999642,586598.3000000119,579731.764,579734.3999999762,579748.531,586615.371,1,40,,
trial,html.Screen,8_19_0,2023-11-14T21:43:54.230Z,,,,2,-0.0245585387483123,0.053462758614929,,true,hl,3294.8289999880362,response,0.3295103148497169,0.4999999999999994,-0.4999999999999994,-0.4737320947051506,0.48194376323254234,-0.5499999999999994,high,low,,ISIC_3389704.JPG,,ISIC_3246746.JPG,237,false,hl,keypress(j),0,true,589910.3000000119,589910.1999999881,586598.503,586598.5999999642,586615.371,589915.094,1,40,20,
sequence,flow.Sequence,8_19,2023-11-14T21:43:54.230Z,,,,,,,,,,3294.8289999880362,completion,,,,,,,high,low,,,,,,false,,,,true,589910.3999999762,589910.1999999881,586598.503,586598.5999999642,586615.371,589915.094,1,40,,
trial,html.Screen,8_20_0,2023-11-14T21:44:00.950Z,,,,2,-0.0021038737988857,0.0570427519488725,,false,ll,6714.805999976117,response,-0.3422162496800685,0.4499999999999994,-0.4999999999999994,-0.3643304278940349,0.48194376323254234,-0.4999999999999994,low,low,,ISIC_3596927.JPG,,ISIC_1075605.JPG,472,false,lh,keypress(e),0,true,596630,596629.8999999762,589898.616,589910.3999999762,589915.094,596631.772,1,40,21,
sequence,flow.Sequence,8_20,2023-11-14T21:44:00.950Z,,,,,,,,,,6714.805999976117,completion,,,,,,,low,low,,,,,,false,,,,true,596630.0999999642,596629.8999999762,589898.616,589910.3999999762,589915.094,596631.772,1,40,,
trial,html.Screen,8_21_0,2023-11-14T21:44:09.270Z,,,,2,0.0324770283903853,0.0249968632204382,,false,lh,8318.32799996424,response,-0.3666493834544435,0.4499999999999994,-0.4999999999999994,0.417550755057085,0.48194376323254234,-0.4999999999999994,low,high,,ISIC_7266462.JPG,,ISIC_3105136.JPG,252,false,hh,keypress(i),0,true,604950.1999999881,604950.0999999642,596615.151,596630.0999999642,596631.772,604965.322,1,40,22,
sequence,flow.Sequence,8_21,2023-11-14T21:44:09.270Z,,,,,,,,,,8318.32799996424,completion,,,,,,,low,high,,,,,,false,,,,true,604950.3000000119,604950.0999999642,596615.151,596630.0999999642,596631.772,604965.322,1,40,,
trial,html.Screen,8_22_0,2023-11-14T21:44:19.654Z,,,,2,-0.0362376068089956,-0.047825070846155,,true,hh,10368.877999988035,response,0.6354936261668199,0.4499999999999994,-0.4999999999999994,0.4879369490023091,0.48194376323254234,-0.4999999999999994,high,high,,ISIC_6985114.JPG,,ISIC_0015110.JPG,413,false,hh,keypress(i),0,true,615334.3000000119,615334.1999999881,604948.36,604950.3000000119,604965.322,615348.677,1,40,23,
sequence,flow.Sequence,8_22,2023-11-14T21:44:19.654Z,,,,,,,,,,10368.877999988035,completion,,,,,,,high,high,,,,,,false,,,,true,615334.3999999762,615334.1999999881,604948.36,604950.3000000119,604965.322,615348.677,1,40,,
trial,html.Screen,8_23_0,2023-11-14T21:44:27.046Z,,,,2,,-0.0264544974620926,,false,ll,7377.422999964212,response,-0.3600027852736367,0.4499999999999994,-0.4999999999999994,-0.4805563128797317,0.43194376323254235,-0.4999999999999994,low,low,,ISIC_0056991.JPG,,ISIC_1871890.JPG,472,false,hl,keypress(j),0,true,622726.1999999881,622726.0999999642,615331.397,615334.3999999762,615348.677,622731.729,1,40,24,
sequence,flow.Sequence,8_23,2023-11-14T21:44:27.046Z,,,,,,,,,,7377.422999964212,completion,,,,,,,low,low,,,,,,false,,,,true,622726.3999999762,622726.0999999642,615331.397,615334.3999999762,615348.677,622731.729,1,40,,
trial,html.Screen,8_24_0,2023-11-14T21:44:36.422Z,,,,2,-0.0159061451859594,-0.0296598845560212,,false,lh,9370.370999964187,response,-0.4562699700906099,0.4499999999999994,-0.4999999999999994,0.4625468562589988,0.43194376323254235,-0.4999999999999994,low,high,,ISIC_0072564.JPG,,ISIC_0024455.JPG,261,false,ll,keypress(f),0,true,632102.1999999881,632102.0999999642,622715.09,622726.3999999762,622731.729,632115.505,1,40,25,
sequence,flow.Sequence,8_24,2023-11-14T21:44:36.422Z,,,,,,,,,,9370.370999964187,completion,,,,,,,low,high,,,,,,false,,,,true,632102.3000000119,632102.0999999642,622715.09,622726.3999999762,622731.729,632115.505,1,40,,
trial,html.Screen,8_25_0,2023-11-14T21:44:47.419Z,,,,2,0.0389988030702649,0.0143212271490256,,,,11016.273000000045,timeout,0.5871163132085091,0.4499999999999994,-0.4999999999999994,0.5253022164815413,0.48194376323254234,-0.4999999999999994,high,high,,ISIC_0064669.JPG,,ISIC_2500254.JPG,413,false,,,0,true,643099.3000000119,643099.1999999881,632098.217,632102.3000000119,632115.505,643131.778,1,40,26,
sequence,flow.Sequence,8_25,2023-11-14T21:44:47.419Z,,,,,,,,,,10983.694999988074,completion,,,,,,,high,high,,,,,,false,,,,true,643099.3999999762,643099.1999999881,632098.217,632102.3000000119,632115.505,643131.778,1,40,,
trial,html.Screen,8_26_0,2023-11-14T21:44:56.662Z,,,,2,0.0640778296621707,0.0387686079545705,,false,ll,9210.42199998803,response,-0.6584594196104424,0.4499999999999994,-0.4999999999999994,-0.68668790958988,0.48194376323254234,-0.4999999999999994,low,low,,ISIC_0010124.JPG,,ISIC_9764973.JPG,472,false,lh,keypress(e),0,true,652342.3999999762,652342.1999999881,643115.485,643099.5,643131.778,652348.384,1,40,27,
sequence,flow.Sequence,8_26,2023-11-14T21:44:56.662Z,,,,,,,,,,9210.42199998803,completion,,,,,,,low,low,,,,,,false,,,,true,652342.5,652342.1999999881,643115.485,643099.5,643131.778,652348.384,1,40,,
trial,html.Screen,8_27_0,2023-11-14T21:45:07.652Z,,,,2,-0.0149482827359613,0.0661630859332833,,,,11016.793999999994,timeout,0.3705879121920073,0.4499999999999994,-0.4999999999999994,-0.6334186026854964,0.48194376323254234,-0.4999999999999994,high,low,,ISIC_6815524.JPG,,ISIC_0067397.JPG,297,false,,,0,true,663332.3999999762,663332.3000000119,652331.65,652342.5,652348.384,663365.178,1,40,28,
sequence,flow.Sequence,8_27,2023-11-14T21:45:07.652Z,,,,,,,,,,10983.91600001196,completion,,,,,,,high,low,,,,,,false,,,,true,663332.5,663332.3000000119,652331.65,652342.5,652348.384,663365.178,1,40,,
trial,html.Screen,8_28_0,2023-11-14T21:45:16.374Z,,,,2,-0.0220322185490382,-0.0740918837949419,,true,ll,8688.721999976202,response,-0.5960207649780922,0.4499999999999994,-0.4999999999999994,-0.3713354072292749,0.48194376323254234,-0.4999999999999994,low,low,,ISIC_8105020.JPG,,ISIC_6687927.JPG,472,false,ll,keypress(f),0,true,672054,672053.8999999762,663348.531,663332.5,663365.178,672065.065,1,40,29,
sequence,flow.Sequence,8_28,2023-11-14T21:45:16.374Z,,,,,,,,,,8688.721999976202,completion,,,,,,,low,low,,,,,,false,,,,true,672054.1999999881,672053.8999999762,663348.531,663332.5,663365.178,672065.065,1,40,,
trial,html.Screen,8_29_0,2023-11-14T21:45:20.726Z,,,,2,-0.059471106306043,0.0678292174694111,,false,hh,4341.235000011977,response,0.5779533975204529,0.4499999999999994,-0.5272400922942673,0.6075052553972813,0.48194376323254234,-0.4999999999999994,high,high,,ISIC_0015631.JPG,,ISIC_0031546.JPG,413,false,lh,keypress(e),0,true,676406.3999999762,676406.3000000119,672048.013,672054.1999999881,672065.065,676415.18,1,40,30,
sequence,flow.Sequence,8_29,2023-11-14T21:45:20.726Z,,,,,,,,,,4341.235000011977,completion,,,,,,,high,high,,,,,,false,,,,true,676406.5,676406.3000000119,672048.013,672054.1999999881,672065.065,676415.18,1,40,,
trial,html.Screen,8_30_0,2023-11-14T21:45:27.910Z,,,,2,-0.0097091270150747,0.0417921315885292,,true,lh,7174.819999999949,response,-0.3056593533304271,0.4999999999999994,-0.4772400922942673,0.425954035416304,0.48194376323254234,-0.4999999999999994,low,high,,ISIC_3967213.JPG,,ISIC_0941332.JPG,258,false,lh,keypress(e),0,true,683590.1999999881,683590,676398.419,676406.5,676415.18,683598.507,1,40,31,
sequence,flow.Sequence,8_30,2023-11-14T21:45:27.910Z,,,,,,,,,,7174.819999999949,completion,,,,,,,low,high,,,,,,false,,,,true,683590.3000000119,683590,676398.419,676406.5,676415.18,683598.507,1,40,,
trial,html.Screen,8_31_0,2023-11-14T21:45:33.334Z,,,,2,0.0324770283903853,0.0249968632204382,,false,lh,5415.692999988096,response,-0.4723416190588823,0.4999999999999994,-0.4772400922942673,0.2769909763317684,0.4667296454067927,-0.4999999999999994,low,high,,ISIC_7266462.JPG,,ISIC_7186677.JPG,257,false,hl,keypress(j),0,true,689014.1999999881,689014.1999999881,683581.519,683590.3000000119,683598.507,689033.122,1,40,32,
sequence,flow.Sequence,8_31,2023-11-14T21:45:33.334Z,,,,,,,,,,5415.692999988096,completion,,,,,,,low,high,,,,,,false,,,,true,689014.3999999762,689014.1999999881,683581.519,683590.3000000119,683598.507,689033.122,1,40,,
trial,html.Screen,8_32_0,2023-11-14T21:45:39.686Z,,,,2,-0.0021038737988857,0.0570427519488725,,false,ll,6332.678000011947,response,-0.3422162496800685,0.4999999999999994,-0.4772400922942673,-0.3643304278940349,0.4667296454067927,-0.4999999999999994,low,low,,ISIC_3596927.JPG,,ISIC_1075605.JPG,490,false,lh,keypress(e),0,true,695365.8999999762,695365.8000000119,688998.423,689014.5,689033.122,695381.922,1,40,33,
sequence,flow.Sequence,8_32,2023-11-14T21:45:39.686Z,,,,,,,,,,6332.678000011947,completion,,,,,,,low,low,,,,,,false,,,,true,695366.0999999642,695365.8000000119,688998.423,689014.5,689033.122,695381.922,1,40,,
trial,html.Screen,8_33_0,2023-11-14T21:45:45.430Z,,,,2,-0.0735635316240061,0.0537805418091709,,true,hh,5728.177999964217,response,0.6330069325454448,0.4999999999999994,-0.4772400922942673,0.3301903938227321,0.4667296454067927,-0.4999999999999994,high,high,,ISIC_1761799.JPG,,ISIC_0046316.JPG,406,false,hh,keypress(i),0,true,701110.0999999642,701110.0999999642,695365.034,695366.0999999642,695381.922,701115.085,1,40,34,
sequence,flow.Sequence,8_33,2023-11-14T21:45:45.430Z,,,,,,,,,,5728.177999964217,completion,,,,,,,high,high,,,,,,false,,,,true,701110.1999999881,701110.0999999642,695365.034,695366.0999999642,695381.922,701115.085,1,40,,
trial,html.Screen,8_34_0,2023-11-14T21:45:50.534Z,,,,2,-0.059471106306043,0.0678292174694111,,false,hl,5099.114999988116,response,0.4685582073401164,0.4999999999999994,-0.4772400922942673,-0.4504649769975533,0.4667296454067927,-0.4999999999999994,high,low,,ISIC_0015631.JPG,,ISIC_8666446.JPG,267,false,ll,keypress(f),0,true,706214.3000000119,706214.1999999881,701098.573,701110.3000000119,701115.085,706232.115,1,40,35,
sequence,flow.Sequence,8_34,2023-11-14T21:45:50.534Z,,,,,,,,,,5099.114999988116,completion,,,,,,,high,low,,,,,,false,,,,true,706214.3999999762,706214.1999999881,701098.573,701110.1999999881,701115.085,706232.115,1,40,,
trial,html.Screen,8_35_0,2023-11-14T21:45:56.102Z,,,,2,-0.000047919190197942736,-0.0462652940855003,,false,lh,5549.7849999761675,response,-0.3372359047447863,0.4999999999999994,-0.4772400922942673,0.4729926497371357,0.4667296454067927,-0.4999999999999994,low,high,,ISIC_0011507.JPG,,ISIC_7070020.JPG,257,false,ll,keypress(f),0,true,711782.0999999642,711781.8999999762,706198.332,706214.5,706232.115,711798.568,1,40,36,
sequence,flow.Sequence,8_35,2023-11-14T21:45:56.102Z,,,,,,,,,,5549.7849999761675,completion,,,,,,,low,high,,,,,,false,,,,true,711782.1999999881,711781.8999999762,706198.332,706214.5,706232.115,711798.568,1,40,,
trial,html.Screen,8_36_0,2023-11-14T21:46:02.230Z,,,,2,-0.0367218428225813,-0.0700576547090477,,false,hl,6111.43200000003,response,0.500459798773503,0.4999999999999994,-0.4772400922942673,-0.4654789744307376,0.4667296454067927,-0.4999999999999994,high,low,,ISIC_7212271.JPG,,ISIC_7626256.JPG,267,false,lh,keypress(e),0,true,717910.0999999642,717910,711781.727,711782.1999999881,711798.568,717914.96,1,40,37,
sequence,flow.Sequence,8_36,2023-11-14T21:46:02.230Z,,,,,,,,,,6111.43200000003,completion,,,,,,,high,low,,,,,,false,,,,true,717910.1999999881,717910,711781.727,711782.1999999881,711798.568,717914.96,1,40,,
trial,html.Screen,8_37_0,2023-11-14T21:46:08.646Z,,,,2,0.0217698886732706,-0.0410870915161425,,true,hl,6411.1399999642745,response,0.4550285616922008,0.4999999999999994,-0.4772400922942673,-0.536450961157385,0.4667296454067927,-0.4999999999999994,high,low,,ISIC_0072173.JPG,,ISIC_7131689.JPG,267,false,hl,keypress(j),0,true,724326.1999999881,724326.0999999642,717898.374,717910.3000000119,717914.96,724331.597,1,40,38,
sequence,flow.Sequence,8_37,2023-11-14T21:46:08.646Z,,,,,,,,,,6411.1399999642745,completion,,,,,,,high,low,,,,,,false,,,,true,724326.3000000119,724326.0999999642,717898.374,717910.3000000119,717914.96,724331.597,1,40,,
trial,html.Screen,8_38_0,2023-11-14T21:46:15.990Z,,,,2,0.0057914759495055,0.0074667911845194,,true,hh,7338.403000000049,response,0.6656683304763047,0.4999999999999994,-0.4772400922942673,0.5092294915682282,0.4667296454067927,-0.4999999999999994,high,high,,ISIC_0058723.JPG,,ISIC_0010400.JPG,406,false,hh,keypress(i),0,true,731670.0999999642,731670,724315.224,724326.3000000119,724331.597,731681.871,1,40,39,
sequence,flow.Sequence,8_38,2023-11-14T21:46:15.990Z,,,,,,,,,,7338.403000000049,completion,,,,,,,high,high,,,,,,false,,,,true,731670.1999999881,731670,724315.224,724326.3000000119,724331.597,731681.871,1,40,,
trial,html.Screen,8_39_0,2023-11-14T21:46:22.070Z,,,,2,-0.0245585387483123,0.053462758614929,,false,lh,6067.929000011878,response,-0.527933723012833,0.4603484460842527,-0.4772400922942673,0.2720468802555528,0.4667296454067927,-0.4999999999999994,low,high,,ISIC_3389704.JPG,,ISIC_0046670.JPG,257,false,ll,keypress(f),0,true,737749.8999999762,737749.8000000119,731664.81,731670.3000000119,731681.871,737765.156,1,40,40,
sequence,flow.Sequence,8_39,2023-11-14T21:46:22.070Z,,,,,,,,,,6067.929000011878,completion,,,,,,,low,high,,,,,,false,,,,true,737750.0999999642,737749.8000000119,731664.81,731670.3000000119,731681.871,737765.156,1,40,,
stair_loop,flow.Loop,8,2023-11-14T21:46:22.070Z,,,,,,,,,,261651.21200001193,completion,,,,,,,,,,,,,,false,,,,true,737750.0999999642,737749.8000000119,476082.155,476093.59999996424,476098.588,737765.156,1,40,,
exp_instructions,html.Screen,9,2023-11-14T21:46:44.374Z,,,,,,,,,,22288.34400000004,response,,,,,,,,,,,,,,,continue,keypress(Space),,,760053.8999999762,760053.5,737748.345,737750.0999999642,737765.156,760065.065,,,,
trial,html.Screen,10_0_0,2023-11-14T21:46:51.240Z,,,,1,0.0660839342637046,-0.0657899819532072,,true,hl,6854.935000000056,response,0.5161138378823259,0.47301742230421195,-0.48998205076184664,-0.6831767606243289,0.47009741021095486,-0.4999999999999994,high,low,,ISIC_0065477.JPG,9,ISIC_4966865.JPG,279,false,hl,keypress(j),0,false,766920,766920,760047.527,760054,760065.065,766931.643,4,500,1,
break,html.Screen,10_0_1,2023-11-14T21:46:51.240Z,,,,,,,,,,NaN,,,,,,,,high,low,,,,,,false,,,,false,766920.5,766920.3000000119,,766920.0999999642,,766931.643,4,500,,
break_continue,html.Screen,10_0_2,2023-11-14T21:46:51.241Z,,,,,,,,,,NaN,,,,,,,,high,low,,,,,,false,,,,false,766920.6999999881,766920.6999999881,,766920.5,,766931.643,4,500,,
sequence,flow.Sequence,10_0,2023-11-14T21:46:51.241Z,,,,,,,,,,6855.634999988135,completion,,,,,,,high,low,,,,,,false,,,,false,766920.8000000119,766920.6999999881,760047.527,760054,760065.065,766931.643,4,500,,
trial,html.Screen,10_1_0,2023-11-14T21:46:59.286Z,,,,1,0.0050679133050021,-0.0009714874637896,,true,ll,8034.456999964197,response,-0.4714587305524846,0.47301742230421195,-0.48998205076184664,-0.3622464775533937,0.47009741021095486,-0.4999999999999994,low,low,,ISIC_9848743.JPG,8,ISIC_0065351.JPG,480,false,ll,keypress(f),0,false,774966.1999999881,774966.0999999642,766914.651,766920.8999999762,766931.643,774981.813,4,500,2,
break,html.Screen,10_1_1,2023-11-14T21:46:59.287Z,,,,,,,,,,NaN,,,,,,,,low,low,,,,,,false,,,,false,774966.5999999642,774966.5,,774966.3000000119,,774981.813,4,500,,
break_continue,html.Screen,10_1_2,2023-11-14T21:46:59.287Z,,,,,,,,,,NaN,,,,,,,,low,low,,,,,,false,,,,false,774966.8000000119,774966.6999999881,,774966.5999999642,,774981.813,4,500,,
sequence,flow.Sequence,10_1,2023-11-14T21:46:59.287Z,,,,,,,,,,8035.056999988039,completion,,,,,,,low,low,,,,,,false,,,,false,774966.8000000119,774966.6999999881,766914.651,766920.8999999762,766931.643,774981.813,4,500,,
trial,html.Screen,10_2_0,2023-11-14T21:47:05.686Z,,,,1,0.0538169356437535,-0.0113486191005169,,false,hl,6383.987000011955,response,0.3507916776180699,0.47301742230421195,-0.48998205076184664,-0.5872024743419177,0.47009741021095486,-0.4999999999999994,high,low,,ISIC_0009939.JPG,9,ISIC_5377237.JPG,279,false,lh,keypress(e),0,false,781365.8999999762,781365.8000000119,774964.844,774967,774981.813,781381.806,4,500,3,
break,html.Screen,10_2_1,2023-11-14T21:47:05.686Z,,,,,,,,,,NaN,,,,,,,,high,low,,,,,,false,,,,false,781366.1999999881,781366.1999999881,,781366,,781381.806,4,500,,
break_continue,html.Screen,10_2_2,2023-11-14T21:47:05.686Z,,,,,,,,,,NaN,,,,,,,,high,low,,,,,,false,,,,false,781366.3999999762,781366.3000000119,,781366.3000000119,,781381.806,4,500,,
sequence,flow.Sequence,10_2,2023-11-14T21:47:05.686Z,,,,,,,,,,6384.487000011955,completion,,,,,,,high,low,,,,,,false,,,,false,781366.5,781366.3000000119,774964.844,774967,774981.813,781381.806,4,500,,
trial,html.Screen,10_3_0,2023-11-14T21:47:12.486Z,,,,1,-0.0691769743257167,0.0638501824668941,,false,lh,6783.893999988097,response,-0.326652927506703,0.47301742230421195,-0.48998205076184664,0.3636230948323918,0.47009741021095486,-0.4999999999999994,low,high,,ISIC_0031914.JPG,9,ISIC_0028759.JPG,252,false,ll,keypress(f),0,false,788165.8000000119,788165.6999999881,781364.716,781366.5,781381.806,788181.629,4,500,4,
break,html.Screen,10_3_1,2023-11-14T21:47:12.486Z,,,,,,,,,,NaN,,,,,,,,low,high,,,,,,false,,,,false,788166.1999999881,788166.0999999642,,788165.8999999762,,788181.629,4,500,,
break_continue,html.Screen,10_3_2,2023-11-14T21:47:12.486Z,,,,,,,,,,NaN,,,,,,,,low,high,,,,,,false,,,,false,788166.3999999762,788166.3000000119,,788166.1999999881,,788181.629,4,500,,
sequence,flow.Sequence,10_3,2023-11-14T21:47:12.486Z,,,,,,,,,,6784.494000011939,completion,,,,,,,low,high,,,,,,false,,,,false,788166.3999999762,788166.3000000119,781364.716,781366.5,781381.806,788181.629,4,500,,
trial,html.Screen,10_4_0,2023-11-14T21:47:18.102Z,,,,1,0.0217698886732706,-0.0410870915161425,,true,lh,5600.171000011964,response,-0.3344871246072751,0.47301742230421195,-0.48998205076184664,0.5213568853233712,0.47009741021095486,-0.4999999999999994,low,high,,ISIC_0072173.JPG,9,ISIC_0034106.JPG,252,false,lh,keypress(e),0,false,793781.8999999762,793781.8000000119,788164.926,788166.5,788181.629,793798.389,4,500,5,
break,html.Screen,10_4_1,2023-11-14T21:47:18.102Z,,,,,,,,,,NaN,,,,,,,,low,high,,,,,,false,,,,false,793782.1999999881,793782.1999999881,,793782,,793798.389,4,500,,
break_continue,html.Screen,10_4_2,2023-11-14T21:47:18.102Z,,,,,,,,,,NaN,,,,,,,,low,high,,,,,,false,,,,false,793782.3000000119,793782.3000000119,,793782.3000000119,,793798.389,4,500,,
sequence,flow.Sequence,10_4,2023-11-14T21:47:18.102Z,,,,,,,,,,5600.671000011964,completion,,,,,,,low,high,,,,,,false,,,,false,793782.5,793782.3000000119,788164.926,788166.5,788181.629,793798.389,4,500,,
trial,html.Screen,10_5_0,2023-11-14T21:47:25.206Z,,,,1,0.0389988030702649,0.0143212271490256,,false,hl,7087.6110000000335,response,0.6549685699928308,0.47301742230421195,-0.48998205076184664,-0.3096762165391505,0.47009741021095486,-0.4999999999999994,high,low,,ISIC_0064669.JPG,9,ISIC_0033738.JPG,279,false,hh,keypress(i),0,false,800886.0999999642,800886,793781.702,793782.5,793798.389,800898.388,4,500,6,
break,html.Screen,10_5_1,2023-11-14T21:47:25.206Z,,,,,,,,,,NaN,,,,,,,,high,low,,,,,,false,,,,false,800886.5,800886.3999999762,,800886.1999999881,,800898.388,4,500,,
break_continue,html.Screen,10_5_2,2023-11-14T21:47:25.207Z,,,,,,,,,,NaN,,,,,,,,high,low,,,,,,false,,,,false,800886.6999999881,800886.5999999642,,800886.5,,800898.388,4,500,,
sequence,flow.Sequence,10_5,2023-11-14T21:47:25.207Z,,,,,,,,,,7088.210999964271,completion,,,,,,,high,low,,,,,,false,,,,false,800886.6999999881,800886.5999999642,793781.702,793782.5,793798.389,800898.388,4,500,,
trial,html.Screen,10_6_0,2023-11-14T21:47:32.694Z,,,,1,-0.0735635316240061,0.0537805418091709,,true,hl,7475.511999976123,response,0.5983482959094698,0.47301742230421195,-0.48998205076184664,-0.3871685589473045,0.47009741021095486,-0.4999999999999994,high,low,,ISIC_1761799.JPG,9,ISIC_0013634.JPG,279,false,hl,keypress(j),0,false,808373.8999999762,808373.8999999762,800881.682,800886.6999999881,800898.388,808381.658,4,500,7,
break,html.Screen,10_6_1,2023-11-14T21:47:32.694Z,,,,,,,,,,NaN,,,,,,,,high,low,,,,,,false,,,,false,808374.1999999881,808374.0999999642,,808374.0999999642,,808381.658,4,500,,
break_continue,html.Screen,10_6_2,2023-11-14T21:47:32.694Z,,,,,,,,,,NaN,,,,,,,,high,low,,,,,,false,,,,false,808374.5,808374.3000000119,,808374.3000000119,,808381.658,4,500,,
sequence,flow.Sequence,10_6,2023-11-14T21:47:32.694Z,,,,,,,,,,7475.9120000118855,completion,,,,,,,high,low,,,,,,false,,,,false,808374.5,808374.3000000119,800881.682,800886.6999999881,800898.388,808381.658,4,500,,
trial,html.Screen,10_7_0,2023-11-14T21:47:43.110Z,,,,1,0.0593670819812057,-0.0718390543903236,,false,hl,10408.241999976104,response,0.6480914766993324,0.47301742230421195,-0.48998205076184664,-0.3415526556123896,0.47009741021095486,-0.4999999999999994,high,low,,ISIC_0062367.JPG,9,ISIC_0027836.JPG,279,false,hh,keypress(i),0,false,818790,818789.8999999762,808364.935,808374.5,808381.658,818798.344,4,500,8,
break,html.Screen,10_7_1,2023-11-14T21:47:43.110Z,,,,,,,,,,NaN,,,,,,,,high,low,,,,,,false,,,,false,818790.3000000119,818790.1999999881,,818790.0999999642,,818798.344,4,500,,
break_continue,html.Screen,10_7_2,2023-11-14T21:47:43.110Z,,,,,,,,,,NaN,,,,,,,,high,low,,,,,,false,,,,false,818790.5,818790.3999999762,,818790.3000000119,,818798.344,4,500,,
sequence,flow.Sequence,10_7,2023-11-14T21:47:43.110Z,,,,,,,,,,10408.741999976104,completion,,,,,,,high,low,,,,,,false,,,,false,818790.5,818790.3999999762,808364.935,808374.5,808381.658,818798.344,4,500,,
trial,html.Screen,10_8_0,2023-11-14T21:47:54.102Z,,,,1,0.0217698886732706,-0.0410870915161425,,,,11016.643999999971,timeout,-0.4434786937853472,0.47301742230421195,-0.48998205076184664,-0.6816712632629314,0.47009741021095486,-0.4999999999999994,low,low,,ISIC_0072173.JPG,8,ISIC_0062389.JPG,480,false,,,0,false,829782.1999999881,829782.0999999642,818781.516,818790.5,818798.344,829814.988,4,500,9,
break,html.Screen,10_8_1,2023-11-14T21:47:54.103Z,,,,,,,,,,NaN,,,,,,,,low,low,,,,,,false,,,,false,829782.5,829782.3999999762,,829782.3000000119,,829814.988,4,500,,
break_continue,html.Screen,10_8_2,2023-11-14T21:47:54.103Z,,,,,,,,,,NaN,,,,,,,,low,low,,,,,,false,,,,false,829782.6999999881,829782.6999999881,,829782.5999999642,,829814.988,4,500,,
sequence,flow.Sequence,10_8,2023-11-14T21:47:54.103Z,,,,,,,,,,10984.355999988038,completion,,,,,,,low,low,,,,,,false,,,,false,829782.6999999881,829782.6999999881,818781.516,818790.5,818798.344,829814.988,4,500,,
trial,html.Screen,10_9_0,2023-11-14T21:48:04.230Z,,,,1,0.0509970506474296,0.0744820958440291,,true,hl,10094.812000011909,response,0.3957100248012226,0.47301742230421195,-0.48998205076184664,-0.4288920451182242,0.47009741021095486,-0.4999999999999994,high,low,,ISIC_0009975.JPG,9,ISIC_0062713.JPG,279,false,hl,keypress(j),0,false,839909.8000000119,839909.8000000119,829798.381,829782.6999999881,829814.988,839914.806,4,500,10,
break,html.Screen,10_9_1,2023-11-14T21:48:04.230Z,,,,,,,,,,NaN,,,,,,,,high,low,,,,,,false,,,,false,839910.1999999881,839910,,839909.8999999762,,839914.806,4,500,,
break_continue,html.Screen,10_9_2,2023-11-14T21:48:04.230Z,,,,,,,,,,NaN,,,,,,,,high,low,,,,,,false,,,,false,839910.3000000119,839910.1999999881,,839910.1999999881,,839914.806,4,500,,
sequence,flow.Sequence,10_9,2023-11-14T21:48:04.231Z,,,,,,,,,,10095.211999988067,completion,,,,,,,high,low,,,,,,false,,,,false,839910.3999999762,839910.1999999881,829798.381,829782.6999999881,829814.988,839914.806,4,500,,
trial,html.Screen,10_10_0,2023-11-14T21:48:10.262Z,,,,1,0.0415913596725838,-0.0543422987007948,,true,hl,6026.893999988097,response,0.3616504303896821,0.47301742230421195,-0.48998205076184664,-0.5032815749958021,0.47009741021095486,-0.4999999999999994,high,low,,ISIC_0027956.JPG,9,ISIC_8433608.JPG,279,false,hl,keypress(j),0,false,845941.6999999881,845941.6999999881,839898.404,839910.3999999762,839914.806,845948.161,4,500,11,
break,html.Screen,10_10_1,2023-11-14T21:48:10.262Z,,,,,,,,,,NaN,,,,,,,,high,low,,,,,,false,,,,false,845942.0999999642,845942,,845941.8999999762,,845948.161,4,500,,
break_continue,html.Screen,10_10_2,2023-11-14T21:48:10.262Z,,,,,,,,,,NaN,,,,,,,,high,low,,,,,,false,,,,false,845942.3999999762,845942.1999999881,,845942.1999999881,,845948.161,4,500,,
sequence,flow.Sequence,10_10,2023-11-14T21:48:10.263Z,,,,,,,,,,6027.393999988097,completion,,,,,,,high,low,,,,,,false,,,,false,845942.3999999762,845942.1999999881,839898.404,839910.3999999762,839914.806,845948.161,4,500,,
trial,html.Screen,10_11_0,2023-11-14T21:48:16.709Z,,,,1,-0.013431314305098,0.0140597582944232,,false,lh,6441.038999988115,response,-0.4316732249704774,0.47301742230421195,-0.48998205076184664,0.3442355626423644,0.47009741021095486,-0.4999999999999994,low,high,,ISIC_0069617.JPG,9,ISIC_2768150.JPG,252,false,ll,keypress(f),0,false,852389.1999999881,852389.1999999881,845931.574,845942.5,845948.161,852398.296,4,500,12,
break,html.Screen,10_11_1,2023-11-14T21:48:16.710Z,,,,,,,,,,NaN,,,,,,,,low,high,,,,,,false,,,,false,852389.6999999881,852389.5,,852389.3999999762,,852398.296,4,500,,
break_continue,html.Screen,10_11_2,2023-11-14T21:48:16.710Z,,,,,,,,,,NaN,,,,,,,,low,high,,,,,,false,,,,false,852389.8000000119,852389.8000000119,,852389.6999999881,,852398.296,4,500,,
sequence,flow.Sequence,10_11,2023-11-14T21:48:16.710Z,,,,,,,,,,6441.639000011957,completion,,,,,,,low,high,,,,,,false,,,,false,852389.8000000119,852389.8000000119,845931.574,845942.5,845948.161,852398.296,4,500,,
trial,html.Screen,10_12_0,2023-11-14T21:48:23.654Z,,,,1,-0.0102460616775615,0.0309670599545429,,false,lh,6935.603999976185,response,-0.4392141374739862,0.47301742230421195,-0.48998205076184664,0.5801549604934322,0.47009741021095486,-0.4999999999999994,low,high,,ISIC_0072041.JPG,8,ISIC_0753112.JPG,252,false,hl,keypress(j),0,false,859334,859333.8999999762,852381.635,852389.8999999762,852398.296,859348.218,4,500,13,
break,html.Screen,10_12_1,2023-11-14T21:48:23.654Z,,,,,,,,,,NaN,,,,,,,,low,high,,,,,,false,,,,false,859334.3000000119,859334.1999999881,,859334.0999999642,,859348.218,4,500,,
break_continue,html.Screen,10_12_2,2023-11-14T21:48:23.655Z,,,,,,,,,,NaN,,,,,,,,low,high,,,,,,false,,,,false,859334.5,859334.3999999762,,859334.3999999762,,859348.218,4,500,,
sequence,flow.Sequence,10_12,2023-11-14T21:48:23.655Z,,,,,,,,,,6936.103999976185,completion,,,,,,,low,high,,,,,,false,,,,false,859334.5,859334.3999999762,852381.635,852389.8999999762,852398.296,859348.218,4,500,,
trial,html.Screen,10_13_0,2023-11-14T21:48:31.974Z,,,,1,0.0608867680161491,0.0206384042070211,,false,hh,8305.681999976165,response,0.6334795425794653,0.47301742230421195,-0.48998205076184664,0.4051389805438929,0.47009741021095486,-0.4999999999999994,high,high,,ISIC_0640806.JPG,9,ISIC_0070852.JPG,409,false,ll,keypress(f),0,false,867654.0999999642,867653.8999999762,859331.323,859334.5,859348.218,867664.876,4,500,14,
break,html.Screen,10_13_1,2023-11-14T21:48:31.975Z,,,,,,,,,,NaN,,,,,,,,high,high,,,,,,false,,,,false,867654.3999999762,867654.3000000119,,867654.0999999642,,867664.876,4,500,,
break_continue,html.Screen,10_13_2,2023-11-14T21:48:31.975Z,,,,,,,,,,NaN,,,,,,,,high,high,,,,,,false,,,,false,867654.5999999642,867654.5999999642,,867654.5,,867664.876,4,500,,
sequence,flow.Sequence,10_13,2023-11-14T21:48:31.975Z,,,,,,,,,,8306.381999964244,completion,,,,,,,high,high,,,,,,false,,,,false,867654.6999999881,867654.5999999642,859331.323,859334.5,859348.218,867664.876,4,500,,
trial,html.Screen,10_14_0,2023-11-14T21:48:39.622Z,,,,1,0.0538169356437535,-0.0113486191005169,,true,lh,7636.924000011873,response,-0.5940148458258058,0.47301742230421195,-0.48998205076184664,0.6288785570130496,0.47009741021095486,-0.4999999999999994,low,high,,ISIC_0009939.JPG,9,ISIC_0025835.JPG,252,false,lh,keypress(e),0,false,875301.8999999762,875301.8000000119,867647.95,867654.6999999881,867664.876,875314.976,4,500,15,
break,html.Screen,10_14_1,2023-11-14T21:48:39.622Z,,,,,,,,,,NaN,,,,,,,,low,high,,,,,,false,,,,false,875302.1999999881,875302.0999999642,,875301.8999999762,,875314.976,4,500,,
break_continue,html.Screen,10_14_2,2023-11-14T21:48:39.622Z,,,,,,,,,,NaN,,,,,,,,low,high,,,,,,false,,,,false,875302.3000000119,875302.3000000119,,875302.3000000119,,875314.976,4,500,,
sequence,flow.Sequence,10_14,2023-11-14T21:48:39.623Z,,,,,,,,,,7637.424000011873,completion,,,,,,,low,high,,,,,,false,,,,false,875302.5,875302.3000000119,867647.95,867654.6999999881,867664.876,875314.976,4,500,,
trial,html.Screen,10_15_0,2023-11-14T21:48:46.854Z,,,,1,-0.0087912446525382,-0.0619041869188676,,false,hh,7218.824000011897,response,0.5942646745819479,0.47301742230421195,-0.48998205076184664,0.4319483993247748,0.47009741021095486,-0.4999999999999994,high,high,,ISIC_7185913.JPG,8,ISIC_0188432.JPG,409,false,hl,keypress(j),0,false,882533.8999999762,882533.8000000119,875297.917,875302.5,875314.976,882548.365,4,500,16,
break,html.Screen,10_15_1,2023-11-14T21:48:46.854Z,,,,,,,,,,NaN,,,,,,,,high,high,,,,,,false,,,,false,882534.1999999881,882534.0999999642,,882534,,882548.365,4,500,,
break_continue,html.Screen,10_15_2,2023-11-14T21:48:46.855Z,,,,,,,,,,NaN,,,,,,,,high,high,,,,,,false,,,,false,882534.3999999762,882534.3999999762,,882534.1999999881,,882548.365,4,500,,
sequence,flow.Sequence,10_15,2023-11-14T21:48:46.855Z,,,,,,,,,,7219.423999976134,completion,,,,,,,high,high,,,,,,false,,,,false,882534.5,882534.3999999762,875297.917,875302.5,875314.976,882548.365,4,500,,
trial,html.Screen,10_16_0,2023-11-14T21:48:51.766Z,,,,1,-0.0097091270150747,0.0417921315885292,,true,lh,4897.334999988088,response,-0.396562180715293,0.47301742230421195,-0.48998205076184664,0.2963860166030752,0.47009741021095486,-0.4999999999999994,low,high,,ISIC_3967213.JPG,9,ISIC_0591011.JPG,252,false,lh,keypress(e),0,false,887445.8000000119,887445.6999999881,882531.277,882534.5999999642,882548.365,887448.05,4,500,17,
break,html.Screen,10_16_1,2023-11-14T21:48:51.766Z,,,,,,,,,,NaN,,,,,,,,low,high,,,,,,false,,,,false,887446.0999999642,887446,,887445.8000000119,,887448.05,4,500,,
break_continue,html.Screen,10_16_2,2023-11-14T21:48:51.766Z,,,,,,,,,,NaN,,,,,,,,low,high,,,,,,false,,,,false,887446.1999999881,887446.1999999881,,887446.0999999642,,887448.05,4,500,,
sequence,flow.Sequence,10_16,2023-11-14T21:48:51.766Z,,,,,,,,,,4897.834999988088,completion,,,,,,,low,high,,,,,,false,,,,false,887446.3000000119,887446.1999999881,882531.277,882534.5999999642,882548.365,887448.05,4,500,,
trial,html.Screen,10_17_0,2023-11-14T21:48:56.037Z,,,,1,0.0651705891246238,-0.0394586219902573,,true,hl,4268.849999976112,response,0.3554401104076091,0.47301742230421195,-0.48998205076184664,-0.3046846825948075,0.47009741021095486,-0.4999999999999994,high,low,,ISIC_0013491.JPG,9,ISIC_5942564.JPG,279,false,hl,keypress(j),0,false,891717,891716.8999999762,887431.608,887446.3999999762,887448.05,891731.687,4,500,18,
break,html.Screen,10_17_1,2023-11-14T21:48:56.038Z,,,,,,,,,,NaN,,,,,,,,high,low,,,,,,false,,,,false,891717.3999999762,891717.3000000119,,891717.1999999881,,891731.687,4,500,,
break_continue,html.Screen,10_17_2,2023-11-14T21:48:56.038Z,,,,,,,,,,NaN,,,,,,,,high,low,,,,,,false,,,,false,891717.5999999642,891717.5,,891717.5,,891731.687,4,500,,
sequence,flow.Sequence,10_17,2023-11-14T21:48:56.038Z,,,,,,,,,,4269.449999999953,completion,,,,,,,high,low,,,,,,false,,,,false,891717.5999999642,891717.5,887431.608,887446.3000000119,887448.05,891731.687,4,500,,
trial,html.Screen,10_18_0,2023-11-14T21:49:01.846Z,,,,1,0.0660839342637046,-0.0657899819532072,,false,hh,5794.212999976124,response,0.4453521032682412,0.47301742230421195,-0.48998205076184664,0.638678855759201,0.47009741021095486,-0.4999999999999994,high,high,,ISIC_0065477.JPG,9,ISIC_0033470.JPG,409,false,lh,keypress(e),0,false,897526,897525.8999999762,891714.863,891717.6999999881,891731.687,897531.418,4,500,19,
break,html.Screen,10_18_1,2023-11-14T21:49:01.846Z,,,,,,,,,,NaN,,,,,,,,high,high,,,,,,false,,,,false,897526.3000000119,897526.3000000119,,897526,,897531.418,4,500,,
break_continue,html.Screen,10_18_2,2023-11-14T21:49:01.847Z,,,,,,,,,,NaN,,,,,,,,high,high,,,,,,false,,,,false,897526.5,897526.5,,897526.3999999762,,897531.418,4,500,,
sequence,flow.Sequence,10_18,2023-11-14T21:49:01.847Z,,,,,,,,,,5794.8129999999655,completion,,,,,,,high,high,,,,,,false,,,,false,897526.5,897526.5,891714.863,891717.6999999881,891731.687,897531.418,4,500,,
trial,html.Screen,10_19_0,2023-11-14T21:49:11.302Z,,,,1,-0.009234249673026,-0.0627190878028592,,false,ll,9450.582000000053,response,-0.303184650810387,0.47301742230421195,-0.48998205076184664,-0.5666715916722922,0.47009741021095486,-0.4999999999999994,low,low,,ISIC_0053760.JPG,9,ISIC_8814612.JPG,480,false,lh,keypress(e),0,false,906982.0999999642,906982,897514.988,897526.5,897531.418,906998.324,4,500,20,
break,html.Screen,10_19_1,2023-11-14T21:49:11.303Z,,,,,,,,,,NaN,,,,,,,,low,low,,,,,,false,,,,false,906982.3999999762,906982.3999999762,,906982.1999999881,,906998.324,4,500,,
break_continue,html.Screen,10_19_2,2023-11-14T21:49:11.303Z,,,,,,,,,,NaN,,,,,,,,low,low,,,,,,false,,,,false,906982.5999999642,906982.5,,906982.3999999762,,906998.324,4,500,,
sequence,flow.Sequence,10_19,2023-11-14T21:49:11.303Z,,,,,,,,,,9451.082000000053,completion,,,,,,,low,low,,,,,,false,,,,false,906982.5999999642,906982.5,897514.988,897526.5,897531.418,906998.324,4,500,,
trial,html.Screen,10_20_0,2023-11-14T21:49:18.326Z,,,,1,0.0027483411352856,0.0100996915276271,,false,ll,7007.575999976136,response,-0.4173814202792034,0.47301742230421195,-0.48998205076184664,-0.3609435367552783,0.47009741021095486,-0.4999999999999994,low,low,,ISIC_7364041.JPG,8,ISIC_6566042.JPG,480,false,lh,keypress(e),0,false,914006,914005.8999999762,906981.371,906982.6999999881,906998.324,914014.791,4,500,21,
break,html.Screen,10_20_1,2023-11-14T21:49:18.326Z,,,,,,,,,,NaN,,,,,,,,low,low,,,,,,false,,,,false,914006.3000000119,914006.3000000119,,914006.0999999642,,914014.791,4,500,,
break_continue,html.Screen,10_20_2,2023-11-14T21:49:18.327Z,,,,,,,,,,NaN,,,,,,,,low,low,,,,,,false,,,,false,914006.3999999762,914006.3999999762,,914006.3999999762,,914014.791,4,500,,
sequence,flow.Sequence,10_20,2023-11-14T21:49:18.327Z,,,,,,,,,,7008.075999976136,completion,,,,,,,low,low,,,,,,false,,,,false,914006.5,914006.3999999762,906981.371,906982.6999999881,906998.324,914014.791,4,500,,
trial,html.Screen,10_21_0,2023-11-14T21:49:25.334Z,,,,1,-0.0735635316240061,0.0537805418091709,,true,hl,6998.908999988111,response,0.3059602851087973,0.47301742230421195,-0.48998205076184664,-0.4878072731984362,0.47009741021095486,-0.4999999999999994,high,low,,ISIC_1761799.JPG,10,ISIC_2226940.JPG,279,false,hl,keypress(j),0,false,921013.8000000119,921013.6999999881,913998.083,914006.5999999642,914014.791,921031.838,4,500,22,
break,html.Screen,10_21_1,2023-11-14T21:49:25.334Z,,,,,,,,,,NaN,,,,,,,,high,low,,,,,,false,,,,false,921014.0999999642,921013.8999999762,,921013.8999999762,,921031.838,4,500,,
break_continue,html.Screen,10_21_2,2023-11-14T21:49:25.334Z,,,,,,,,,,NaN,,,,,,,,high,low,,,,,,false,,,,false,921014.1999999881,921014.1999999881,,921014.0999999642,,921031.838,4,500,,
sequence,flow.Sequence,10_21,2023-11-14T21:49:25.334Z,,,,,,,,,,6999.408999988111,completion,,,,,,,high,low,,,,,,false,,,,false,921014.3000000119,921014.1999999881,913998.083,914006.5,914014.791,921031.838,4,500,,
trial,html.Screen,10_22_0,2023-11-14T21:49:34.149Z,,,,1,-0.013431314305098,0.0140597582944232,,false,hl,8797.462000011932,response,0.5161138378823259,0.47301742230421195,-0.48998205076184664,-0.6831767606243289,0.47009741021095486,-0.4999999999999994,high,low,,ISIC_0069617.JPG,9,ISIC_4966865.JPG,279,false,hh,keypress(i),0,false,929829.3999999762,929829.3000000119,920998.158,921014.3000000119,921031.838,929831.332,4,500,23,
break,html.Screen,10_22_1,2023-11-14T21:49:34.150Z,,,,,,,,,,NaN,,,,,,,,high,low,,,,,,false,,,,false,929829.6999999881,929829.6999999881,,929829.5,,929831.332,4,500,,
break_continue,html.Screen,10_22_2,2023-11-14T21:49:34.150Z,,,,,,,,,,NaN,,,,,,,,high,low,,,,,,false,,,,false,929829.8000000119,929829.8000000119,,929829.6999999881,,929831.332,4,500,,
sequence,flow.Sequence,10_22,2023-11-14T21:49:34.150Z,,,,,,,,,,8797.962000011932,completion,,,,,,,high,low,,,,,,false,,,,false,929830,929829.8000000119,920998.158,921014.3000000119,921031.838,929831.332,4,500,,
trial,html.Screen,10_23_0,2023-11-14T21:49:38.550Z,,,,1,0.0070725527271049,0.0049995141077508,,true,hl,4398.367999988026,response,0.537313277115072,0.47301742230421195,-0.48998205076184664,-0.6969220247306327,0.47009741021095486,-0.4999999999999994,high,low,,ISIC_6124481.JPG,8,ISIC_2854303.JPG,279,false,hl,keypress(j),0,false,934229.8000000119,934229.6999999881,929814.683,929830,929831.332,934231.373,4,500,24,
break,html.Screen,10_23_1,2023-11-14T21:49:38.550Z,,,,,,,,,,NaN,,,,,,,,high,low,,,,,,false,,,,false,934230.0999999642,934230,,934229.8999999762,,934231.373,4,500,,
break_continue,html.Screen,10_23_2,2023-11-14T21:49:38.550Z,,,,,,,,,,NaN,,,,,,,,high,low,,,,,,false,,,,false,934230.3000000119,934230.1999999881,,934230.0999999642,,934231.373,4,500,,
sequence,flow.Sequence,10_23,2023-11-14T21:49:38.550Z,,,,,,,,,,4398.867999988026,completion,,,,,,,high,low,,,,,,false,,,,false,934230.3000000119,934230.1999999881,929814.683,929830,929831.332,934231.373,4,500,,
trial,html.Screen,10_24_0,2023-11-14T21:49:44.214Z,,,,1,0.0660839342637046,-0.0657899819532072,,false,hl,5662.4270000118995,response,0.3705879121920073,0.47301742230421195,-0.48998205076184664,-0.6334186026854964,0.47009741021095486,-0.4999999999999994,high,low,,ISIC_0065477.JPG,9,ISIC_0067397.JPG,279,false,ll,keypress(f),0,false,939893.8999999762,939893.8000000119,934214.722,934230.3999999762,934231.373,939897.995,4,500,25,
break,html.Screen,10_24_1,2023-11-14T21:49:44.214Z,,,,,,,,,,NaN,,,,,,,,high,low,,,,,,false,,,,false,939894.1999999881,939894.0999999642,,939894,,939897.995,4,500,,
break_continue,html.Screen,10_24_2,2023-11-14T21:49:44.214Z,,,,,,,,,,NaN,,,,,,,,high,low,,,,,,false,,,,false,939894.3999999762,939894.3000000119,,939894.1999999881,,939897.995,4,500,,
sequence,flow.Sequence,10_24,2023-11-14T21:49:44.215Z,,,,,,,,,,5662.9270000118995,completion,,,,,,,high,low,,,,,,false,,,,false,939894.3999999762,939894.3000000119,934214.722,934230.3000000119,934231.373,939897.995,4,500,,
trial,html.Screen,10_25_0,2023-11-14T21:49:49.654Z,,,,1,-0.0265457942157377,-0.0704357137706731,,false,ll,5435.704999988084,response,-0.5570427244577141,0.47301742230421195,-0.48998205076184664,-0.6545778948267619,0.47009741021095486,-0.4999999999999994,low,low,,ISIC_3123377.JPG,9,ISIC_9765024.JPG,480,false,hh,keypress(i),0,false,945333.8000000119,945333.6999999881,939881.518,939894.3999999762,939897.995,945348.206,4,500,26,
break,html.Screen,10_25_1,2023-11-14T21:49:49.654Z,,,,,,,,,,NaN,,,,,,,,low,low,,,,,,false,,,,false,945334.0999999642,945334,,945333.8999999762,,945348.206,4,500,,
break_continue,html.Screen,10_25_2,2023-11-14T21:49:49.654Z,,,,,,,,,,NaN,,,,,,,,low,low,,,,,,false,,,,false,945334.3000000119,945334.1999999881,,945334.0999999642,,945348.206,4,500,,
sequence,flow.Sequence,10_25,2023-11-14T21:49:49.654Z,,,,,,,,,,5436.204999988084,completion,,,,,,,low,low,,,,,,false,,,,false,945334.3999999762,945334.1999999881,939881.518,939894.3999999762,939897.995,945348.206,4,500,,
trial,html.Screen,10_26_0,2023-11-14T21:50:00.652Z,,,,1,-0.0362376068089956,-0.047825070846155,,,,11016.619999999995,timeout,0.4504950258690824,0.47301742230421195,-0.48998205076184664,0.5774631974377367,0.47009741021095486,-0.4999999999999994,high,high,,ISIC_6985114.JPG,9,ISIC_0011530.JPG,409,false,,,0,false,956332.0999999642,956332,945331.503,945334.3999999762,945348.206,956364.826,4,500,27,
break,html.Screen,10_26_1,2023-11-14T21:50:00.652Z,,,,,,,,,,NaN,,,,,,,,high,high,,,,,,false,,,,false,956332.3999999762,956332.1999999881,,956332.0999999642,,956364.826,4,500,,
break_continue,html.Screen,10_26_2,2023-11-14T21:50:00.653Z,,,,,,,,,,NaN,,,,,,,,high,high,,,,,,false,,,,false,956332.5,956332.3999999762,,956332.3999999762,,956364.826,4,500,,
sequence,flow.Sequence,10_26,2023-11-14T21:50:00.653Z,,,,,,,,,,10984.193999976153,completion,,,,,,,high,high,,,,,,false,,,,false,956332.5999999642,956332.3999999762,945331.503,945334.3999999762,945348.206,956364.826,4,500,,
trial,html.Screen,10_27_0,2023-11-14T21:50:06.262Z,,,,1,-0.0546386976779619,0.0448724759283131,,true,lh,5577.173999999999,response,-0.5789087016046566,0.47301742230421195,-0.48998205076184664,0.376754374783031,0.47009741021095486,-0.4999999999999994,low,high,,ISIC_6722934.JPG,9,ISIC_9799596.JPG,252,false,lh,keypress(e),0,false,961942.0999999642,961942,956348.273,956332.5999999642,956364.826,961948.012,4,500,28,
break,html.Screen,10_27_1,2023-11-14T21:50:06.263Z,,,,,,,,,,NaN,,,,,,,,low,high,,,,,,false,,,,false,961942.3999999762,961942.3000000119,,961942.1999999881,,961948.012,4,500,,
break_continue,html.Screen,10_27_2,2023-11-14T21:50:06.263Z,,,,,,,,,,NaN,,,,,,,,low,high,,,,,,false,,,,false,961942.5999999642,961942.5,,961942.3999999762,,961948.012,4,500,,
sequence,flow.Sequence,10_27,2023-11-14T21:50:06.263Z,,,,,,,,,,5577.673999999999,completion,,,,,,,low,high,,,,,,false,,,,false,961942.5999999642,961942.5,956348.273,956332.5999999642,956364.826,961948.012,4,500,,
trial,html.Screen,10_28_0,2023-11-14T21:50:10.566Z,,,,1,-0.0277178575053843,0.0395587463147856,,false,hl,4297.488000000012,response,0.3358014537079411,0.47301742230421195,-0.48998205076184664,-0.306463203075573,0.47009741021095486,-0.4999999999999994,high,low,,ISIC_0010807.JPG,9,ISIC_9183042.JPG,279,false,hh,keypress(i),0,false,966245.6999999881,966245.5,961931.387,961942.6999999881,961948.012,966264.673,4,500,29,
break,html.Screen,10_28_1,2023-11-14T21:50:10.566Z,,,,,,,,,,NaN,,,,,,,,high,low,,,,,,false,,,,false,966246,966245.8999999762,,966245.8000000119,,966264.673,4,500,,
break_continue,html.Screen,10_28_2,2023-11-14T21:50:10.566Z,,,,,,,,,,NaN,,,,,,,,high,low,,,,,,false,,,,false,966246.0999999642,966246.0999999642,,966246,,966264.673,4,500,,
sequence,flow.Sequence,10_28,2023-11-14T21:50:10.566Z,,,,,,,,,,4298.087999964249,completion,,,,,,,high,low,,,,,,false,,,,false,966246.0999999642,966246.0999999642,961931.387,961942.6999999881,961948.012,966264.673,4,500,,
trial,html.Screen,10_29_0,2023-11-14T21:50:15.078Z,,,,1,-0.0220322185490382,-0.0740918837949419,,true,hh,4493.127000011969,response,0.2748762536616874,0.47301742230421195,-0.48998205076184664,0.5451948530584677,0.47009741021095486,-0.4999999999999994,high,high,,ISIC_8105020.JPG,10,ISIC_0063061.JPG,409,false,hh,keypress(i),0,false,970758,970757.8000000119,966247.969,966246.1999999881,966264.673,970764.699,4,500,30,
break,html.Screen,10_29_1,2023-11-14T21:50:15.078Z,,,,,,,,,,NaN,,,,,,,,high,high,,,,,,false,,,,false,970758.1999999881,970758.1999999881,,970758,,970764.699,4,500,,
break_continue,html.Screen,10_29_2,2023-11-14T21:50:15.079Z,,,,,,,,,,NaN,,,,,,,,high,high,,,,,,false,,,,false,970758.3999999762,970758.3000000119,,970758.3000000119,,970764.699,4,500,,
sequence,flow.Sequence,10_29,2023-11-14T21:50:15.079Z,,,,,,,,,,4493.627000011969,completion,,,,,,,high,high,,,,,,false,,,,false,970758.5,970758.3000000119,966247.969,966246.1999999881,966264.673,970764.699,4,500,,
trial,html.Screen,10_30_0,2023-11-14T21:50:19.750Z,,,,1,-0.0688801591312476,-0.0185462113313342,,false,hl,4665.101000011899,response,0.6192746903289674,0.47301742230421195,-0.48998205076184664,-0.5043200201532193,0.47009741021095486,-0.4999999999999994,high,low,,ISIC_0067723.JPG,8,ISIC_0061884.JPG,279,false,ll,keypress(f),0,false,975429.8999999762,975429.8000000119,970748.121,970758.5,970764.699,975431.284,4,500,31,
break,html.Screen,10_30_1,2023-11-14T21:50:19.750Z,,,,,,,,,,NaN,,,,,,,,high,low,,,,,,false,,,,false,975430.1999999881,975430.0999999642,,975430,,975431.284,4,500,,
break_continue,html.Screen,10_30_2,2023-11-14T21:50:19.751Z,,,,,,,,,,NaN,,,,,,,,high,low,,,,,,false,,,,false,975430.3999999762,975430.3000000119,,975430.3000000119,,975431.284,4,500,,
sequence,flow.Sequence,10_30,2023-11-14T21:50:19.751Z,,,,,,,,,,4665.601000011899,completion,,,,,,,high,low,,,,,,false,,,,false,975430.3999999762,975430.3000000119,970748.121,970758.5,970764.699,975431.284,4,500,,
trial,html.Screen,10_31_0,2023-11-14T21:50:25.830Z,,,,1,-0.0644357632656846,-0.0501167370292348,,false,ll,6078.415999988094,response,-0.4963835057909475,0.47301742230421195,-0.48998205076184664,-0.3052779265225965,0.47009741021095486,-0.4999999999999994,low,low,,ISIC_5207050.JPG,9,ISIC_0004955.JPG,480,false,hh,keypress(i),0,false,981509.8000000119,981509.6999999881,975414.778,975430.3999999762,975431.284,981514.637,4,500,32,
break,html.Screen,10_31_1,2023-11-14T21:50:25.830Z,,,,,,,,,,NaN,,,,,,,,low,low,,,,,,false,,,,false,981510.0999999642,981510.0999999642,,981509.8999999762,,981514.637,4,500,,
break_continue,html.Screen,10_31_2,2023-11-14T21:50:25.831Z,,,,,,,,,,NaN,,,,,,,,low,low,,,,,,false,,,,false,981510.3000000119,981510.1999999881,,981510.0999999642,,981514.637,4,500,,
sequence,flow.Sequence,10_31,2023-11-14T21:50:25.831Z,,,,,,,,,,6078.915999988094,completion,,,,,,,low,low,,,,,,false,,,,false,981510.3999999762,981510.1999999881,975414.778,975430.3999999762,975431.284,981514.637,4,500,,
trial,html.Screen,10_32_0,2023-11-14T21:50:33.686Z,,,,1,-0.0112310719058792,0.0469047359904117,,false,lh,7851.26299997617,response,-0.5631272029785095,0.47301742230421195,-0.48998205076184664,0.4753064146799999,0.47009741021095486,-0.4999999999999994,low,high,,ISIC_0068184.JPG,9,ISIC_2714572.JPG,252,false,ll,keypress(f),0,false,989366,989365.8999999762,981498.221,981510.3999999762,981514.637,989381.476,4,500,33,
break,html.Screen,10_32_1,2023-11-14T21:50:33.687Z,,,,,,,,,,NaN,,,,,,,,low,high,,,,,,false,,,,false,989366.3000000119,989366.1999999881,,989366,,989381.476,4,500,,
break_continue,html.Screen,10_32_2,2023-11-14T21:50:33.687Z,,,,,,,,,,NaN,,,,,,,,low,high,,,,,,false,,,,false,989366.5,989366.3999999762,,989366.3000000119,,989381.476,4,500,,
sequence,flow.Sequence,10_32,2023-11-14T21:50:33.687Z,,,,,,,,,,7851.76299997617,completion,,,,,,,low,high,,,,,,false,,,,false,989366.5,989366.3999999762,981498.221,981510.3999999762,981514.637,989381.476,4,500,,
trial,html.Screen,10_33_0,2023-11-14T21:50:40.070Z,,,,1,-0.0516762988734011,0.0130195499281172,,true,lh,6367.923999976134,response,-0.5201456397675416,0.47301742230421195,-0.48998205076184664,0.3180785373576311,0.47009741021095486,-0.4999999999999994,low,high,,ISIC_9978498.JPG,10,ISIC_0066626.JPG,252,false,lh,keypress(e),0,false,995749.5999999642,995749.3999999762,989364.655,989366.5999999642,989381.476,995764.732,4,500,34,
break,html.Screen,10_33_1,2023-11-14T21:50:40.070Z,,,,,,,,,,NaN,,,,,,,,low,high,,,,,,false,,,,false,995749.8999999762,995749.8000000119,,995749.5999999642,,995764.732,4,500,,
break_continue,html.Screen,10_33_2,2023-11-14T21:50:40.070Z,,,,,,,,,,NaN,,,,,,,,low,high,,,,,,false,,,,false,995750.0999999642,995750,,995749.8999999762,,995764.732,4,500,,
sequence,flow.Sequence,10_33,2023-11-14T21:50:40.070Z,,,,,,,,,,6368.523999999976,completion,,,,,,,low,high,,,,,,false,,,,false,995750.0999999642,995750,989364.655,989366.5999999642,989381.476,995764.732,4,500,,
trial,html.Screen,10_34_0,2023-11-14T21:50:44.886Z,,,,1,-0.0531672914703651,0.0074883925434357,,false,hh,4801.167999976198,response,0.471553869863576,0.47301742230421195,-0.48998205076184664,0.6605223108098224,0.47009741021095486,-0.4999999999999994,high,high,,ISIC_4177043.JPG,9,ISIC_2383335.JPG,409,false,lh,keypress(e),0,false,1000565.8999999762,1000565.8999999762,995747.776,995750.1999999881,995764.732,1000581.546,4,500,35,
break,html.Screen,10_34_1,2023-11-14T21:50:44.887Z,,,,,,,,,,NaN,,,,,,,,high,high,,,,,,false,,,,false,1000566.3000000119,1000566.1999999881,,1000566.0999999642,,1000581.546,4,500,,
break_continue,html.Screen,10_34_2,2023-11-14T21:50:44.887Z,,,,,,,,,,NaN,,,,,,,,high,high,,,,,,false,,,,false,1000566.3999999762,1000566.3999999762,,1000566.3000000119,,1000581.546,4,500,,
sequence,flow.Sequence,10_34,2023-11-14T21:50:44.887Z,,,,,,,,,,4801.667999976198,completion,,,,,,,high,high,,,,,,false,,,,false,1000566.5,1000566.3999999762,995747.776,995750.0999999642,995764.732,1000581.546,4,500,,
trial,html.Screen,10_35_0,2023-11-14T21:50:53.686Z,,,,1,-0.040191644178716,0.0622582668671422,,false,hl,8784.254000011948,response,0.5149384868945606,0.47301742230421195,-0.48998205076184664,-0.3671409261443313,0.47009741021095486,-0.4999999999999994,high,low,,ISIC_6207688.JPG,9,ISIC_0032425.JPG,279,false,ll,keypress(f),0,false,1009365.8000000119,1009365.8000000119,1000564.696,1000566.5,1000581.546,1009381.274,4,500,36,
break,html.Screen,10_35_1,2023-11-14T21:50:53.686Z,,,,,,,,,,NaN,,,,,,,,high,low,,,,,,false,,,,false,1009366.1999999881,1009366.0999999642,,1009366,,1009381.274,4,500,,
break_continue,html.Screen,10_35_2,2023-11-14T21:50:53.687Z,,,,,,,,,,NaN,,,,,,,,high,low,,,,,,false,,,,false,1009366.3999999762,1009366.3000000119,,1009366.1999999881,,1009381.274,4,500,,
sequence,flow.Sequence,10_35,2023-11-14T21:50:53.687Z,,,,,,,,,,8784.754000011948,completion,,,,,,,high,low,,,,,,false,,,,false,1009366.3999999762,1009366.3000000119,1000564.696,1000566.5,1000581.546,1009381.274,4,500,,
trial,html.Screen,10_36_0,2023-11-14T21:51:01.158Z,,,,1,-0.0362376068089956,-0.047825070846155,,false,lh,7456.526000011945,response,-0.3372359047447863,0.47301742230421195,-0.48998205076184664,0.4729926497371357,0.47009741021095486,-0.4999999999999994,low,high,,ISIC_6985114.JPG,10,ISIC_7070020.JPG,252,false,ll,keypress(f),0,false,1016837.8999999762,1016837.8000000119,1009364.473,1009366.5,1009381.274,1016848.03,4,500,37,
break,html.Screen,10_36_1,2023-11-14T21:51:01.158Z,,,,,,,,,,NaN,,,,,,,,low,high,,,,,,false,,,,false,1016838.1999999881,1016838.1999999881,,1016838,,1016848.03,4,500,,
break_continue,html.Screen,10_36_2,2023-11-14T21:51:01.159Z,,,,,,,,,,NaN,,,,,,,,low,high,,,,,,false,,,,false,1016838.3000000119,1016838.3000000119,,1016838.3000000119,,1016848.03,4,500,,
sequence,flow.Sequence,10_36,2023-11-14T21:51:01.159Z,,,,,,,,,,7457.026000011945,completion,,,,,,,low,high,,,,,,false,,,,false,1016838.3999999762,1016838.3000000119,1009364.473,1009366.5,1009381.274,1016848.03,4,500,,
trial,html.Screen,10_37_0,2023-11-14T21:51:09.190Z,,,,1,-0.0102460616775615,0.0309670599545429,,false,hh,8021.569999964209,response,0.3983856920115677,0.47301742230421195,-0.48998205076184664,0.6533460144621667,0.47009741021095486,-0.4999999999999994,high,high,,ISIC_0072041.JPG,9,ISIC_0060308.JPG,409,false,hl,keypress(j),0,false,1024869.6999999881,1024869.5999999642,1016831.07,1016838.3999999762,1016848.03,1024881.535,4,500,38,
break,html.Screen,10_37_1,2023-11-14T21:51:09.190Z,,,,,,,,,,NaN,,,,,,,,high,high,,,,,,false,,,,false,1024870,1024869.8999999762,,1024869.8000000119,,1024881.535,4,500,,
break_continue,html.Screen,10_37_2,2023-11-14T21:51:09.190Z,,,,,,,,,,NaN,,,,,,,,high,high,,,,,,false,,,,false,1024870.1999999881,1024870.0999999642,,1024870,,1024881.535,4,500,,
sequence,flow.Sequence,10_37,2023-11-14T21:51:09.190Z,,,,,,,,,,8022.069999964209,completion,,,,,,,high,high,,,,,,false,,,,false,1024870.1999999881,1024870.0999999642,1016831.07,1016838.3999999762,1016848.03,1024881.535,4,500,,
trial,html.Screen,10_38_0,2023-11-14T21:51:17.238Z,,,,1,-0.0245585387483123,0.053462758614929,,false,hh,8035.864999976126,response,0.4014014735295724,0.47301742230421195,-0.48998205076184664,0.272189039276197,0.47009741021095486,-0.4999999999999994,high,high,,ISIC_3389704.JPG,9,ISIC_6676647.JPG,409,false,lh,keypress(e),0,false,1032917.5,1032917.3999999762,1024864.522,1024870.3000000119,1024881.535,1032931.21,4,500,39,
break,html.Screen,10_38_1,2023-11-14T21:51:17.238Z,,,,,,,,,,NaN,,,,,,,,high,high,,,,,,false,,,,false,1032917.6999999881,1032917.6999999881,,1032917.5,,1032931.21,4,500,,
break_continue,html.Screen,10_38_2,2023-11-14T21:51:17.238Z,,,,,,,,,,NaN,,,,,,,,high,high,,,,,,false,,,,false,1032917.8999999762,1032917.8999999762,,1032917.8000000119,,1032931.21,4,500,,
sequence,flow.Sequence,10_38,2023-11-14T21:51:17.238Z,,,,,,,,,,8036.364999976126,completion,,,,,,,high,high,,,,,,false,,,,false,1032918,1032917.8999999762,1024864.522,1024870.3000000119,1024881.535,1032931.21,4,500,,
trial,html.Screen,10_39_0,2023-11-14T21:51:20.198Z,,,,1,-0.0691769743257167,0.0638501824668941,,true,hh,2946.590000011958,response,0.2786451632627377,0.47301742230421195,-0.48998205076184664,0.5039350692259994,0.47009741021095486,-0.4999999999999994,high,high,,ISIC_0031914.JPG,8,ISIC_0033178.JPG,409,false,hh,keypress(i),0,false,1035878,1035877.8000000119,1032914.64,1032918.0999999642,1032931.21,1035881.292,4,500,40,
break,html.Screen,10_39_1,2023-11-14T21:51:20.199Z,,,,,,,,,,NaN,,,,,,,,high,high,,,,,,false,,,,false,1035878.1999999881,1035878.1999999881,,1035878.0999999642,,1035881.292,4,500,,
break_continue,html.Screen,10_39_2,2023-11-14T21:51:20.199Z,,,,,,,,,,NaN,,,,,,,,high,high,,,,,,false,,,,false,1035878.3999999762,1035878.3000000119,,1035878.3000000119,,1035881.292,4,500,,
sequence,flow.Sequence,10_39,2023-11-14T21:51:20.199Z,,,,,,,,,,2947.090000011958,completion,,,,,,,high,high,,,,,,false,,,,false,1035878.5,1035878.3000000119,1032914.64,1032918.0999999642,1032931.21,1035881.292,4,500,,
trial,html.Screen,10_40_0,2023-11-14T21:51:23.334Z,,,,1,-0.0102460616775615,0.0309670599545429,,true,hh,3132.4079999880632,response,0.4562626213376215,0.47301742230421195,-0.48998205076184664,0.3906508855748012,0.47009741021095486,-0.4999999999999994,high,high,,ISIC_0072041.JPG,9,ISIC_0055450.JPG,409,false,hh,keypress(i),0,false,1039013.8000000119,1039013.6999999881,1035864.803,1035878.5,1035881.292,1039031.776,4,500,41,
break,html.Screen,10_40_1,2023-11-14T21:51:23.334Z,,,,,,,,,,NaN,,,,,,,,high,high,,,,,,false,,,,false,1039014.0999999642,1039014,,1039013.8999999762,,1039031.776,4,500,,
break_continue,html.Screen,10_40_2,2023-11-14T21:51:23.334Z,,,,,,,,,,NaN,,,,,,,,high,high,,,,,,false,,,,false,1039014.1999999881,1039014.1999999881,,1039014.0999999642,,1039031.776,4,500,,
sequence,flow.Sequence,10_40,2023-11-14T21:51:23.335Z,,,,,,,,,,3132.9079999880632,completion,,,,,,,high,high,,,,,,false,,,,false,1039014.3999999762,1039014.1999999881,1035864.803,1035878.5,1035881.292,1039031.776,4,500,,
trial,html.Screen,10_41_0,2023-11-14T21:51:27.478Z,,,,1,-0.0367218428225813,-0.0700576547090477,,false,lh,4125.823999964283,response,-0.4340404215005177,0.47301742230421195,-0.48998205076184664,0.3290089216629918,0.47009741021095486,-0.4999999999999994,low,high,,ISIC_7212271.JPG,9,ISIC_9499185.JPG,252,false,hh,keypress(i),0,false,1043157.6999999881,1043157.5999999642,1038998.278,1039014.3999999762,1039031.776,1043164.749,4,500,42,
break,html.Screen,10_41_1,2023-11-14T21:51:27.478Z,,,,,,,,,,NaN,,,,,,,,low,high,,,,,,false,,,,false,1043158,1043158,,1043157.6999999881,,1043164.749,4,500,,
break_continue,html.Screen,10_41_2,2023-11-14T21:51:27.478Z,,,,,,,,,,NaN,,,,,,,,low,high,,,,,,false,,,,false,1043158.1999999881,1043158.1999999881,,1043158.0999999642,,1043164.749,4,500,,
sequence,flow.Sequence,10_41,2023-11-14T21:51:27.478Z,,,,,,,,,,4126.423999988125,completion,,,,,,,low,high,,,,,,false,,,,false,1043158.1999999881,1043158.1999999881,1038998.278,1039014.3999999762,1039031.776,1043164.749,4,500,,
trial,html.Screen,10_42_0,2023-11-14T21:51:32.854Z,,,,1,0.0069555338059566,-0.0310100918136373,,false,ll,5368.950999988127,response,-0.5827185632676115,0.47301742230421195,-0.48998205076184664,-0.3489463778353815,0.47009741021095486,-0.4999999999999994,low,low,,ISIC_0011177.JPG,9,ISIC_0030725.JPG,480,false,lh,keypress(e),0,false,1048533.8000000119,1048533.6999999881,1043148.083,1043158.3000000119,1043164.749,1048548.163,4,500,43,
break,html.Screen,10_42_1,2023-11-14T21:51:32.854Z,,,,,,,,,,NaN,,,,,,,,low,low,,,,,,false,,,,false,1048534,1048534,,1048533.8999999762,,1048548.163,4,500,,
break_continue,html.Screen,10_42_2,2023-11-14T21:51:32.854Z,,,,,,,,,,NaN,,,,,,,,low,low,,,,,,false,,,,false,1048534.3000000119,1048534.0999999642,,1048534.0999999642,,1048548.163,4,500,,
sequence,flow.Sequence,10_42,2023-11-14T21:51:32.855Z,,,,,,,,,,5369.350999964285,completion,,,,,,,low,low,,,,,,false,,,,false,1048534.3000000119,1048534.0999999642,1043148.083,1043158.3000000119,1043164.749,1048548.163,4,500,,
trial,html.Screen,10_43_0,2023-11-14T21:51:41.030Z,,,,1,-0.0552031398781121,-0.0652612426529481,,true,lh,8161.436999964295,response,-0.3239587437105784,0.47301742230421195,-0.48998205076184664,0.4387149019725416,0.47009741021095486,-0.4999999999999994,low,high,,ISIC_0024226.JPG,8,ISIC_0060154.JPG,252,false,lh,keypress(e),0,false,1056709.699999988,1056709.5999999642,1048531.303,1048534.3000000119,1048548.163,1056714.597,4,500,44,
break,html.Screen,10_43_1,2023-11-14T21:51:41.030Z,,,,,,,,,,NaN,,,,,,,,low,high,,,,,,false,,,,false,1056710,1056709.8999999762,,1056709.699999988,,1056714.597,4,500,,
break_continue,html.Screen,10_43_2,2023-11-14T21:51:41.030Z,,,,,,,,,,NaN,,,,,,,,low,high,,,,,,false,,,,false,1056710.199999988,1056710.199999988,,1056710.0999999642,,1056714.597,4,500,,
sequence,flow.Sequence,10_43,2023-11-14T21:51:41.031Z,,,,,,,,,,8162.036999988137,completion,,,,,,,low,high,,,,,,false,,,,false,1056710.300000012,1056710.199999988,1048531.303,1048534.3000000119,1048548.163,1056714.597,4,500,,
trial,html.Screen,10_44_0,2023-11-14T21:51:46.341Z,,,,1,0.0363437082783146,0.0333332186217051,,true,ll,5306.402999999933,response,-0.553114983598207,0.47301742230421195,-0.48998205076184664,-0.3820628908610843,0.47009741021095486,-0.4999999999999994,low,low,,ISIC_3314555.JPG,9,ISIC_0071559.JPG,480,false,ll,keypress(f),0,false,1062021.0999999642,1062021,1056698.019,1056710.3999999762,1056714.597,1062031.386,4,500,45,
break,html.Screen,10_44_1,2023-11-14T21:51:46.342Z,,,,,,,,,,NaN,,,,,,,,low,low,,,,,,false,,,,false,1062021.3999999762,1062021.3999999762,,1062021.199999988,,1062031.386,4,500,,
break_continue,html.Screen,10_44_2,2023-11-14T21:51:46.342Z,,,,,,,,,,NaN,,,,,,,,low,low,,,,,,false,,,,false,1062021.5999999642,1062021.5,,1062021.3999999762,,1062031.386,4,500,,
sequence,flow.Sequence,10_44,2023-11-14T21:51:46.342Z,,,,,,,,,,5306.902999999933,completion,,,,,,,low,low,,,,,,false,,,,false,1062021.699999988,1062021.5,1056698.019,1056710.3999999762,1056714.597,1062031.386,4,500,,
trial,html.Screen,10_45_0,2023-11-14T21:51:50.502Z,,,,1,-0.0051189696037511,0.0396625911332438,,false,ll,4150.213999964297,response,-0.3998489861866242,0.47301742230421195,-0.48998205076184664,-0.5906133487804633,0.47009741021095486,-0.4999999999999994,low,low,,ISIC_9742891.JPG,9,ISIC_5005253.JPG,480,false,hh,keypress(i),0,false,1066181.699999988,1066181.5999999642,1062014.427,1062021.699999988,1062031.386,1066198.143,4,500,46,
break,html.Screen,10_45_1,2023-11-14T21:51:50.502Z,,,,,,,,,,NaN,,,,,,,,low,low,,,,,,false,,,,false,1066182,1066181.8999999762,,1066181.800000012,,1066198.143,4,500,,
break_continue,html.Screen,10_45_2,2023-11-14T21:51:50.502Z,,,,,,,,,,NaN,,,,,,,,low,low,,,,,,false,,,,false,1066182.199999988,1066182.0999999642,,1066182.0999999642,,1066198.143,4,500,,
sequence,flow.Sequence,10_45,2023-11-14T21:51:50.502Z,,,,,,,,,,4150.713999964297,completion,,,,,,,low,low,,,,,,false,,,,false,1066182.199999988,1066182.0999999642,1062014.427,1062021.699999988,1062031.386,1066198.143,4,500,,
trial,html.Screen,10_46_0,2023-11-14T21:51:58.134Z,,,,1,-0.0367218428225813,-0.0700576547090477,,false,hh,7615.7569999762345,response,0.3152356246475218,0.47301742230421195,-0.48998205076184664,0.4825673167699161,0.47009741021095486,-0.4999999999999994,high,high,,ISIC_7212271.JPG,9,ISIC_0067077.JPG,409,false,hl,keypress(j),0,false,1073814,1073813.8999999762,1066181.345,1066182.199999988,1066198.143,1073831.681,4,500,47,
break,html.Screen,10_46_1,2023-11-14T21:51:58.135Z,,,,,,,,,,NaN,,,,,,,,high,high,,,,,,false,,,,false,1073814.300000012,1073814.199999988,,1073814.0999999642,,1073831.681,4,500,,
break_continue,html.Screen,10_46_2,2023-11-14T21:51:58.135Z,,,,,,,,,,NaN,,,,,,,,high,high,,,,,,false,,,,false,1073814.5,1073814.3999999762,,1073814.3999999762,,1073831.681,4,500,,
sequence,flow.Sequence,10_46,2023-11-14T21:51:58.135Z,,,,,,,,,,7616.2569999762345,completion,,,,,,,high,high,,,,,,false,,,,false,1073814.5999999642,1073814.3999999762,1066181.345,1066182.199999988,1066198.143,1073831.681,4,500,,
trial,html.Screen,10_47_0,2023-11-14T21:52:07.542Z,,,,1,0.0363437082783146,0.0333332186217051,,false,lh,9389.918999964138,response,-0.3186868422072115,0.47301742230421195,-0.48998205076184664,0.4977759988520296,0.47009741021095486,-0.4999999999999994,low,high,,ISIC_3314555.JPG,9,ISIC_0015179.JPG,252,false,hl,keypress(j),0,false,1083221.699999988,1083221.5999999642,1073798.239,1073814.699999988,1073831.681,1083231.289,4,500,48,
break,html.Screen,10_47_1,2023-11-14T21:52:07.542Z,,,,,,,,,,NaN,,,,,,,,low,high,,,,,,false,,,,false,1083222.0999999642,1083222,,1083221.8999999762,,1083231.289,4,500,,
break_continue,html.Screen,10_47_2,2023-11-14T21:52:07.543Z,,,,,,,,,,NaN,,,,,,,,low,high,,,,,,false,,,,false,1083222.199999988,1083222.0999999642,,1083222.0999999642,,1083231.289,4,500,,
sequence,flow.Sequence,10_47,2023-11-14T21:52:07.543Z,,,,,,,,,,9390.418999964138,completion,,,,,,,low,high,,,,,,false,,,,false,1083222.300000012,1083222.0999999642,1073798.239,1073814.5999999642,1073831.681,1083231.289,4,500,,
trial,html.Screen,10_48_0,2023-11-14T21:52:11.574Z,,,,1,0.0401045651353626,0.053461375824197,,true,hl,4022.410999987973,response,0.3480322535768723,0.47301742230421195,-0.48998205076184664,-0.5588183806237456,0.47009741021095486,-0.4999999999999994,high,low,,ISIC_6483504.JPG,8,ISIC_0007619.JPG,279,false,hl,keypress(j),0,false,1087253.699999988,1087253.699999988,1083214.505,1083222.300000012,1083231.289,1087264.998,4,500,49,
break,html.Screen,10_48_1,2023-11-14T21:52:11.574Z,,,,,,,,,,NaN,,,,,,,,high,low,,,,,,false,,,,false,1087254,1087254,,1087253.8999999762,,1087264.998,4,500,,
break_continue,html.Screen,10_48_2,2023-11-14T21:52:11.575Z,,,,,,,,,,NaN,,,,,,,,high,low,,,,,,false,,,,false,1087254.199999988,1087254.199999988,,1087254.0999999642,,1087264.998,4,500,,
sequence,flow.Sequence,10_48,2023-11-14T21:52:11.575Z,,,,,,,,,,4022.910999987973,completion,,,,,,,high,low,,,,,,false,,,,false,1087254.300000012,1087254.199999988,1083214.505,1083222.300000012,1083231.289,1087264.998,4,500,,
trial,html.Screen,10_49_0,2023-11-14T21:52:19.910Z,,,,1,0.0217698886732706,-0.0410870915161425,,true,hl,8324.601999964332,response,0.4519302836224968,0.47301742230421195,-0.48998205076184664,-0.3626967127043856,0.47009741021095486,-0.4999999999999994,high,low,,ISIC_0072173.JPG,9,ISIC_3816833.JPG,279,false,hl,keypress(j),0,false,1095589.699999988,1095589.5999999642,1087247.741,1087254.300000012,1087264.998,1095598.019,4,500,50,
break,html.Screen,10_49_1,2023-11-14T21:52:19.910Z,,,,,,,,,,NaN,,,,,,,,high,low,,,,,,false,,,,false,1095590,1095589.8999999762,,1095589.800000012,,1095598.019,4,500,,
