sender,sender_type,sender_id,timestamp,meta,,age,blockNo,c1,c2,condition,correct,correctResponse,duration,ended_on,f1,f1_high,f1_low,f2,f2_high,f2_low,feature_level1,feature_level2,gender,img_left,img_reveal,img_right,n_target_images,practice,response,response_action,selection_duration,staircase,time_commit,time_end,time_render,time_run,time_show,time_switch,total_blocks,total_trials,trialNo,url
informed_consent,html.Screen,0,2023-11-14T18:32:29.498Z,"{""labjs_version"":""20.2.4"",""labjs_build"":{""flavor"":""development"",""commit"":""f5b4a49f956347addd546a832a3327688c2c0fef""},""location"":""https://labjs.felixhenninger.com/api/labjs_preview/index.html"",""userAgent"":""Mozilla/5.0 (Windows NT 10.0; Win64; x64) AppleWebKit/537.36 (KHTML, like Gecko) Chrome/119.0.0.0 Safari/537.36"",""platform"":""Win32"",""language"":""en-US"",""locale"":""en-US"",""timeZone"":""America/Chicago"",""timezoneOffset"":360,""screen_width"":1680,""screen_height"":1050,""scroll_width"":825,""scroll_height"":888,""window_innerWidth"":825,""window_innerHeight"":936,""devicePixelRatio"":1}",,,,,,,,,51713.65000000596,response,,,,,,,,,,,,,,,consent,click button,,,52586.80000001192,52578.90000000596,848.268,1033.5,865.25,52415.391,,,,{}
Demography form,html.Form,1,2023-11-14T18:32:37.547Z,,,19,,,,,,,8220.009000005957,form submission,,,,,,,,,male,,,,,,,,,,60635.60000000894,60635.40000000596,52398.618,52587.20000000298,52415.391,60464.287,,,,
Welcome,html.Screen,2,2023-11-14T18:32:52.875Z,,,,,,,"[""asym"",""bor""]",,,15499.013000011924,response,,,,,,,,,,,,,,,continue,click button,,,75963.70000000298,75963.30000001192,60447.628,60635.80000001192,60464.287,75794.441,,,,
demo_instructions,html.Screen,3,2023-11-14T18:33:14.611Z,,,,,,,,,,21904.759000002974,response,,,,,,,,,,,,,,,continue,click button,,,97699.70000000298,97699.20000000298,75777.468,75963.90000000596,75794.441,97519.804,,,,
trial,html.Screen,4_0_0,2023-11-14T18:33:31.877Z,,,,0,0.9235571765207048,-1.0008081653938232,,true,lh,17445.396000002977,response,-1.2364994561934892,1.0499999999999998,-1.0499999999999998,0.9174173651516624,1.0499999999999998,-1.0499999999999998,low,high,,ISIC_8796632.JPG,,ISIC_3481133.JPG,21,true,lh,keypress(e),100,false,114965.60000000894,114965.20000000298,97503.324,97700,97519.804,114803.688,1,16,1,
sequence,flow.Sequence,4_0,2023-11-14T18:33:31.878Z,,,,,,,,,,17445.396000002977,completion,,,,,,,low,high,,,,,,true,,,,false,114966.5,114965.20000000298,97503.324,97700,97519.804,114803.688,1,16,,
trial,html.Screen,4_1_0,2023-11-14T18:33:36.502Z,,,,0,1.0213365328004047,-1.088524359911891,,true,lh,4783.312000000005,response,-1.2364994561934892,1.0499999999999998,-1.0499999999999998,0.9174173651516624,1.0499999999999998,-1.0499999999999998,low,high,,ISIC_5434229.JPG,,ISIC_3481133.JPG,21,true,lh,keypress(e),100,false,119587.40000000596,119587,114786.855,114966.80000001192,114803.688,119429.157,1,16,2,
sequence,flow.Sequence,4_1,2023-11-14T18:33:36.502Z,,,,,,,,,,4783.312000000005,completion,,,,,,,low,high,,,,,,true,,,,false,119588.10000000894,119587,114786.855,114966.70000000298,114803.688,119429.157,1,16,,
trial,html.Screen,4_2_0,2023-11-14T18:33:48.159Z,,,,0,0.991146183030456,-0.9949639823722534,,true,lh,11814.842999999993,response,-0.8809306963311293,1.0499999999999998,-1.0499999999999998,0.8614910030038974,1.0499999999999998,-1.0499999999999998,low,high,,ISIC_6342224.JPG,,ISIC_0013731.JPG,21,true,lh,keypress(e),100,false,131244.60000000894,131244,119412.681,119588.5,119429.157,131085.188,1,16,3,
sequence,flow.Sequence,4_2,2023-11-14T18:33:48.160Z,,,,,,,,,,11814.842999999993,completion,,,,,,,low,high,,,,,,true,,,,false,131245.80000001192,131244,119412.681,119588.40000000596,119429.157,131085.188,1,16,,
trial,html.Screen,4_3_0,2023-11-14T18:33:52.013Z,,,,0,0.991146183030456,-0.9949639823722534,,true,lh,4012.8120000000054,response,-1.2331439637486756,1.0499999999999998,-1.0499999999999998,0.9691143900156988,1.0499999999999998,-1.0499999999999998,low,high,,ISIC_6342224.JPG,,ISIC_7877488.JPG,21,true,lh,keypress(e),100,false,135098.5,135098,131068.529,131246.20000000298,131085.188,134926.109,1,16,4,
sequence,flow.Sequence,4_3,2023-11-14T18:33:52.013Z,,,,,,,,,,4012.8120000000054,completion,,,,,,,low,high,,,,,,true,,,,false,135099.20000000298,135098,131068.529,131246.20000000298,131085.188,134926.109,1,16,,
trial,html.Screen,4_4_0,2023-11-14T18:34:01.606Z,,,,0,0.8835058339726064,1.035612893059322,,true,ll,9764.691000011924,response,-1.037577073517966,1.0499999999999998,-1.0499999999999998,-1.027048110709042,1.0499999999999998,-1.0499999999999998,low,low,,ISIC_0069595.JPG,,ISIC_0004932.JPG,111,true,ll,keypress(f),100,false,144691.30000001192,144690.80000001192,134909.361,135099.5,134926.109,144528.23,1,16,5,
sequence,flow.Sequence,4_4,2023-11-14T18:34:01.606Z,,,,,,,,,,9764.691000011924,completion,,,,,,,low,low,,,,,,true,,,,false,144692.10000000894,144690.80000001192,134909.361,135099.40000000596,134926.109,144528.23,1,16,,
trial,html.Screen,4_5_0,2023-11-14T18:34:08.451Z,,,,0,1.0351900568634125,1.060448537312289,,true,ll,7008.2699999999895,response,-1.09666761087476,1.0499999999999998,-1.0499999999999998,-1.1072126870290426,1.0499999999999998,-1.0499999999999998,low,low,,ISIC_4377208.JPG,,ISIC_0071754.JPG,111,true,ll,keypress(f),100,false,151536.90000000596,151536.5,144511.334,144692.40000000596,144528.23,151374.866,1,16,6,
sequence,flow.Sequence,4_5,2023-11-14T18:34:08.452Z,,,,,,,,,,7008.2699999999895,completion,,,,,,,low,low,,,,,,true,,,,false,151537.70000000298,151536.5,144511.334,144692.30000001192,144528.23,151374.866,1,16,,
trial,html.Screen,4_6_0,2023-11-14T18:34:11.858Z,,,,0,0.8735470592544294,0.9785086585007428,,true,ll,3568.0340000059514,response,-1.13791006772072,1.0499999999999998,-1.0499999999999998,-0.8618956235878876,1.0499999999999998,-1.0499999999999998,low,low,,ISIC_0047031.JPG,,ISIC_6635699.JPG,111,true,ll,keypress(f),100,false,154943.40000000596,154942.90000000596,151358.041,151538,151374.866,154781.257,1,16,7,
sequence,flow.Sequence,4_6,2023-11-14T18:34:11.858Z,,,,,,,,,,3568.0340000059514,completion,,,,,,,low,low,,,,,,true,,,,false,154944.10000000894,154942.90000000596,151358.041,151537.90000000596,151374.866,154781.257,1,16,,
trial,html.Screen,4_7_0,2023-11-14T18:34:15.661Z,,,,0,0.9262674596267249,1.0275767908572495,,true,ll,3965.2429999999877,response,-0.9612329482175124,1.0499999999999998,-1.0499999999999998,-0.8723650867900061,1.0499999999999998,-1.0499999999999998,low,low,,ISIC_5415749.JPG,,ISIC_4563766.JPG,111,true,ll,keypress(f),100,false,158746.80000001192,158746.5,154764.699,154944.40000000596,154781.257,158588.71,1,16,8,
sequence,flow.Sequence,4_7,2023-11-14T18:34:15.662Z,,,,,,,,,,3965.2429999999877,completion,,,,,,,low,low,,,,,,true,,,,false,158747.30000001192,158746.5,154764.699,154944.30000001192,154781.257,158588.71,1,16,,
trial,html.Screen,4_8_0,2023-11-14T18:34:24.508Z,,,,0,-0.9433720631499012,1.0582071940347648,,true,hl,9004.690000005969,response,1.0115965332688306,0.9499999999999997,-0.9499999999999997,-0.8282633603842442,0.9499999999999997,-0.9499999999999997,high,low,,ISIC_4890201.JPG,,ISIC_1069587.JPG,26,true,hl,keypress(j),100,false,167593.80000001192,167593.40000000596,158572.03,158747.60000000894,158588.71,167422.567,1,16,9,
sequence,flow.Sequence,4_8,2023-11-14T18:34:24.509Z,,,,,,,,,,9004.690000005969,completion,,,,,,,high,low,,,,,,true,,,,false,167594.5,167593.40000000596,158572.03,158747.5,158588.71,167422.567,1,16,,
trial,html.Screen,4_9_0,2023-11-14T18:34:34.569Z,,,,0,-0.7877939497981142,0.8415032780288271,,true,hl,10231.93299999999,response,0.7870237732709365,0.9499999999999997,-0.9499999999999997,-0.9172955251119376,0.9499999999999997,-0.9499999999999997,high,low,,ISIC_0067308.JPG,,ISIC_0057716.JPG,26,true,hl,keypress(j),100,false,177654.90000000596,177654.5,167405.939,167594.90000000596,167422.567,177492.367,1,16,10,
sequence,flow.Sequence,4_9,2023-11-14T18:34:34.570Z,,,,,,,,,,10231.93299999999,completion,,,,,,,high,low,,,,,,true,,,,false,177655.5,177654.5,167405.939,167594.70000000298,167422.567,177492.367,1,16,,
trial,html.Screen,4_10_0,2023-11-14T18:34:37.915Z,,,,0,-0.9454713230140772,0.9245167441969216,,true,hl,3504.4330000119226,response,0.887838744955182,0.9499999999999997,-0.9499999999999997,-0.7545096650863988,0.9499999999999997,-0.9499999999999997,high,low,,ISIC_9101055.JPG,,ISIC_1488727.JPG,26,true,hl,keypress(j),100,false,180997.10000000894,180996.80000001192,177475.487,177655.80000001192,177492.367,180832.126,1,16,11,
sequence,flow.Sequence,4_10,2023-11-14T18:34:37.915Z,,,,,,,,,,3504.4330000119226,completion,,,,,,,high,low,,,,,,true,,,,false,180997.60000000894,180996.80000001192,177475.487,177655.70000000298,177492.367,180832.126,1,16,,
trial,html.Screen,4_11_0,2023-11-14T18:34:47.142Z,,,,0,-0.8179805381029407,0.8578467162767749,,true,hl,9392.274000005971,response,0.809764442462202,0.9499999999999997,-0.9499999999999997,-1.005337148078696,0.9499999999999997,-0.9499999999999997,high,low,,ISIC_0067253.JPG,,ISIC_2379379.JPG,26,true,hl,keypress(j),100,false,190224.80000001192,190224.40000000596,180815.311,180998,180832.126,190066.698,1,16,12,
sequence,flow.Sequence,4_11,2023-11-14T18:34:47.143Z,,,,,,,,,,9392.274000005971,completion,,,,,,,high,low,,,,,,true,,,,false,190225.40000000596,190224.40000000596,180815.311,180997.90000000596,180832.126,190066.698,1,16,,
trial,html.Screen,4_12_0,2023-11-14T18:34:53.075Z,,,,0,-0.8399678098416189,-0.7546375633653641,,true,hh,6090.602000011917,response,0.8177173885584471,0.9499999999999997,-0.9499999999999997,0.8140398867745896,0.9499999999999997,-0.9499999999999997,high,high,,ISIC_3994250.JPG,,ISIC_7196249.JPG,167,true,hh,keypress(i),100,false,196157.70000000298,196157.30000001192,190050.013,190225.70000000298,190066.698,195994.97,1,16,13,
sequence,flow.Sequence,4_12,2023-11-14T18:34:53.076Z,,,,,,,,,,6090.602000011917,completion,,,,,,,high,high,,,,,,true,,,,false,196158.60000000894,196157.30000001192,190050.013,190225.5,190066.698,195994.97,1,16,,
trial,html.Screen,4_13_0,2023-11-14T18:34:57.295Z,,,,0,-0.8323753563397326,-1.0355093302574103,,true,hh,4382.6300000089395,response,1.0474638406367112,0.9499999999999997,-0.9499999999999997,0.821358930964015,0.9499999999999997,-0.9499999999999997,high,high,,ISIC_0046729.JPG,,ISIC_0025277.JPG,167,true,hh,keypress(i),100,false,200377.90000000596,200377.60000000894,195978.224,196158.90000000596,195994.97,200219.819,1,16,14,
sequence,flow.Sequence,4_13,2023-11-14T18:34:57.296Z,,,,,,,,,,4382.6300000089395,completion,,,,,,,high,high,,,,,,true,,,,false,200378.5,200377.60000000894,195978.224,196158.80000001192,195994.97,200219.819,1,16,,
trial,html.Screen,4_14_0,2023-11-14T18:34:59.384Z,,,,0,-0.7647836924873925,-0.8316555381467203,,true,hh,2246.581000005972,response,0.9991183219041097,0.9499999999999997,-0.9499999999999997,1.0098382533872188,0.9499999999999997,-0.9499999999999997,high,high,,ISIC_0027145.JPG,,ISIC_0010415.JPG,167,true,hh,keypress(i),100,false,202466.80000001192,202466.40000000596,200203.272,200378.70000000298,200219.819,202307.213,1,16,15,
sequence,flow.Sequence,4_14,2023-11-14T18:34:59.385Z,,,,,,,,,,2246.581000005972,completion,,,,,,,high,high,,,,,,true,,,,false,202467.40000000596,202466.40000000596,200203.272,200378.60000000894,200219.819,202307.213,1,16,,
trial,html.Screen,4_15_0,2023-11-14T18:35:01.602Z,,,,0,-0.9156713992395168,-0.7552260165227174,,true,hh,2376.887000008952,response,1.0022982145596024,0.9499999999999997,-0.9499999999999997,0.9703352077282876,0.9499999999999997,-0.9499999999999997,high,high,,ISIC_0732375.JPG,,ISIC_0011930.JPG,167,true,hh,keypress(i),100,false,204684.5,204684.10000000894,202290.54,202467.80000001192,202307.213,204511.434,1,16,16,
sequence,flow.Sequence,4_15,2023-11-14T18:35:01.603Z,,,,,,,,,,2376.887000008952,completion,,,,,,,high,high,,,,,,true,,,,false,204685.20000000298,204684.10000000894,202290.54,202467.70000000298,202307.213,204511.434,1,16,,
demonstration_loop,flow.Loop,4,2023-11-14T18:35:01.603Z,,,,,,,,,,107164.29600000894,completion,,,,,,,,,,,,,,true,,,,false,204685.5,204684.10000000894,97503.324,97700,97519.804,204511.434,1,16,,
practice_instructions,html.Screen,5,2023-11-14T18:35:19.521Z,,,,,,,,,,18083.866000011913,response,,,,,,,,,,,,,,,continue,click button,,,222603.70000000298,222595.30000001192,204494.99,204685.70000000298,204511.434,222412.893,,,,
trial,html.Screen,6_0_0,2023-11-14T18:35:25.232Z,,,,1,1.0470490803707713,0.9267385554195492,,false,ll,5894.5070000059495,response,-0.9125490178245472,0.9499999999999997,-0.9499999999999997,-0.8381837623442241,0.9499999999999997,-0.9499999999999997,low,low,,ISIC_0058649.JPG,,ISIC_4699989.JPG,142,true,lh,keypress(e),0,false,228314.30000001192,228307.40000000596,222396.407,222603.90000000596,222412.893,228140.771,1,20,1,
sequence,flow.Sequence,6_0,2023-11-14T18:35:25.232Z,,,,,,,,,,5894.5070000059495,completion,,,,,,,low,low,,,,,,true,,,,false,228314.5,228307.40000000596,222396.407,222603.80000001192,222412.893,228140.771,1,20,,
trial,html.Screen,6_1_0,2023-11-14T18:35:30.011Z,,,,1,-0.9191486333136276,-1.001866590114321,,true,hh,4952.429000002972,response,1.0470490803707713,0.9499999999999997,-0.9499999999999997,0.9267385554195492,0.9499999999999997,-0.9499999999999997,high,high,,ISIC_0663941.JPG,,ISIC_0058649.JPG,167,true,hh,keypress(i),0,false,233093.60000000894,233093.20000000298,228124.015,228314.5,228140.771,232916.768,1,20,2,
sequence,flow.Sequence,6_1,2023-11-14T18:35:30.012Z,,,,,,,,,,4952.429000002972,completion,,,,,,,high,high,,,,,,true,,,,false,233094.10000000894,233093.20000000298,228124.015,228314.5,228140.771,232916.768,1,20,,
trial,html.Screen,6_2_0,2023-11-14T18:35:35.699Z,,,,1,-0.858338058340649,0.9540612223480284,,true,hl,5864.03200001191,response,0.8655167308525522,0.9499999999999997,-0.9499999999999997,-0.9298580423306444,0.9499999999999997,-0.9499999999999997,high,low,,ISIC_8922893.JPG,,ISIC_4603706.JPG,26,true,hl,keypress(j),0,false,238781.20000000298,238780.80000001192,232900.167,233094.30000001192,232916.768,238611.18,1,20,3,
sequence,flow.Sequence,6_2,2023-11-14T18:35:35.699Z,,,,,,,,,,5864.03200001191,completion,,,,,,,high,low,,,,,,true,,,,false,238781.70000000298,238780.80000001192,232900.167,233094.20000000298,232916.768,238611.18,1,20,,
trial,html.Screen,6_3_0,2023-11-14T18:35:39.589Z,,,,1,-1.005193232444736,-0.7724571054561582,,true,hh,4056.7200000059674,response,0.830715954875818,0.9499999999999997,-0.9499999999999997,0.8162119374466767,0.9499999999999997,-0.9499999999999997,high,high,,ISIC_0026943.JPG,,ISIC_0011894.JPG,167,true,hh,keypress(i),0,false,242668,242667.90000000596,238577.77,238782,238611.18,242485.332,1,20,4,
sequence,flow.Sequence,6_3,2023-11-14T18:35:39.589Z,,,,,,,,,,4056.7200000059674,completion,,,,,,,high,high,,,,,,true,,,,false,242668.20000000298,242667.90000000596,238577.77,238781.90000000596,238611.18,242485.332,1,20,,
trial,html.Screen,6_4_0,2023-11-14T18:35:48.022Z,,,,1,0.7532157061562929,1.0469383288898104,,true,ll,8615.868000002985,response,-0.8854665385930431,0.9499999999999997,-0.9499999999999997,-1.0235331176078744,0.9499999999999997,-0.9499999999999997,low,low,,ISIC_0058926.JPG,,ISIC_0026889.JPG,142,true,ll,keypress(f),0,false,251101.60000000894,251101.20000000298,242468.834,242668.30000001192,242485.332,250918.378,1,20,5,
sequence,flow.Sequence,6_4,2023-11-14T18:35:48.023Z,,,,,,,,,,8615.868000002985,completion,,,,,,,low,low,,,,,,true,,,,false,251102.10000000894,251101.20000000298,242468.834,242668.30000001192,242485.332,250918.378,1,20,,
trial,html.Screen,6_5_0,2023-11-14T18:35:57.748Z,,,,1,0.7871162143493278,-0.8429329800778957,,true,lh,9909.122000000003,response,-0.9579209317488,0.9499999999999997,-0.9499999999999997,1.0147487101263497,0.9499999999999997,-0.9499999999999997,low,high,,ISIC_3439215.JPG,,ISIC_8124482.JPG,28,true,lh,keypress(e),0,false,260827.70000000298,260827.5,250901.664,251102.30000001192,250918.378,260654.004,1,20,6,
sequence,flow.Sequence,6_5,2023-11-14T18:35:57.748Z,,,,,,,,,,9909.122000000003,completion,,,,,,,low,high,,,,,,true,,,,false,260827.80000001192,260827.5,250901.664,251102.20000000298,250918.378,260654.004,1,20,,
trial,html.Screen,6_6_0,2023-11-14T18:36:00.972Z,,,,1,-0.9433720631499012,1.0582071940347648,,true,hl,3397.4960000000137,response,0.8655167308525522,0.9499999999999997,-0.9499999999999997,-0.9298580423306444,0.9499999999999997,-0.9499999999999997,high,low,,ISIC_4890201.JPG,,ISIC_4603706.JPG,26,true,hl,keypress(j),0,false,264051.700000003,264051.5,260637.215,260827.90000000596,260654.004,263877.209,1,20,7,
sequence,flow.Sequence,6_6,2023-11-14T18:36:00.972Z,,,,,,,,,,3397.4960000000137,completion,,,,,,,high,low,,,,,,true,,,,false,264051.8000000119,264051.5,260637.215,260827.90000000596,260654.004,263877.209,1,20,,
trial,html.Screen,6_7_0,2023-11-14T18:36:06.005Z,,,,1,0.8404161492288882,0.757299739884202,,true,ll,5206.691000005987,response,-0.9071602543711612,0.9499999999999997,-0.9499999999999997,-1.073798502866343,0.9499999999999997,-0.9499999999999997,low,low,,ISIC_0034256.JPG,,ISIC_6676776.JPG,142,true,ll,keypress(f),0,false,269084,269083.90000000596,263860.448,264051.8000000119,263877.209,268903.45,1,20,8,
sequence,flow.Sequence,6_7,2023-11-14T18:36:06.005Z,,,,,,,,,,5206.691000005987,completion,,,,,,,low,low,,,,,,true,,,,false,269084.200000003,269083.90000000596,263860.448,264051.8000000119,263877.209,268903.45,1,20,,
trial,html.Screen,6_8_0,2023-11-14T18:36:10.286Z,,,,1,-0.7848009721557384,-0.750809298734252,,true,hh,4461.549999999988,response,0.9262674596267249,0.9499999999999997,-0.9499999999999997,1.0275767908572495,0.9499999999999997,-0.9499999999999997,high,high,,ISIC_9648812.JPG,,ISIC_5415749.JPG,167,true,hh,keypress(i),0,false,273365.3000000119,273365,268886.649,269084.200000003,268903.45,273211.92,1,20,9,
sequence,flow.Sequence,6_8,2023-11-14T18:36:10.287Z,,,,,,,,,,4461.549999999988,completion,,,,,,,high,high,,,,,,true,,,,false,273365.8000000119,273365,268886.649,269084.200000003,268903.45,273211.92,1,20,,
trial,html.Screen,6_9_0,2023-11-14T18:36:12.350Z,,,,1,0.934130994804294,1.0454436589399478,,true,ll,2217.2800000029965,response,-1.008381128411934,0.9499999999999997,-0.9499999999999997,-1.0088020117106191,0.9499999999999997,-0.9499999999999997,low,low,,ISIC_0053916.JPG,,ISIC_6546903.JPG,142,true,ll,keypress(f),0,false,275429.5,275429.200000003,273195.317,273366.10000000894,273211.92,275249.112,1,20,10,
sequence,flow.Sequence,6_9,2023-11-14T18:36:12.351Z,,,,,,,,,,2217.2800000029965,completion,,,,,,,low,low,,,,,,true,,,,false,275430,275429.200000003,273195.317,273366,273211.92,275249.112,1,20,,
trial,html.Screen,6_10_0,2023-11-14T18:36:19.046Z,,,,1,0.887838744955182,-0.7545096650863988,,true,lh,6875.988000008918,response,-0.9579209317488,0.9499999999999997,-0.9499999999999997,1.0147487101263497,0.9499999999999997,-0.9499999999999997,low,high,,ISIC_1488727.JPG,,ISIC_8124482.JPG,28,true,lh,keypress(e),0,false,282125.40000000596,282125.10000000894,275232.596,275430.3000000119,275249.112,281945.455,1,20,11,
sequence,flow.Sequence,6_10,2023-11-14T18:36:19.047Z,,,,,,,,,,6875.988000008918,completion,,,,,,,low,high,,,,,,true,,,,false,282125.8000000119,282125.10000000894,275232.596,275430.200000003,275249.112,281945.455,1,20,,
trial,html.Screen,6_11_0,2023-11-14T18:36:22.502Z,,,,1,1.00170887975541,0.8949188450526304,,true,ll,3635.8450000119046,response,-0.8552639039862626,0.9499999999999997,-0.9499999999999997,-1.0982314620989122,0.9499999999999997,-0.9499999999999997,low,low,,ISIC_0057067.JPG,,ISIC_0026278.JPG,142,true,ll,keypress(f),0,false,285581.60000000894,285581.3000000119,281928.936,282126.10000000894,281945.455,285402.274,1,20,12,
sequence,flow.Sequence,6_11,2023-11-14T18:36:22.503Z,,,,,,,,,,3635.8450000119046,completion,,,,,,,low,low,,,,,,true,,,,false,285582.200000003,285581.3000000119,281928.936,282126.10000000894,281945.455,285402.274,1,20,,
trial,html.Screen,6_12_0,2023-11-14T18:36:28.334Z,,,,1,-1.0026266089287914,1.0913275913920335,,true,hl,6010.626000005985,response,1.0022829373011404,0.9499999999999997,-0.9499999999999997,-0.8311726972863814,0.9499999999999997,-0.9499999999999997,high,low,,ISIC_0033520.JPG,,ISIC_0033287.JPG,26,true,hl,keypress(j),0,false,291413.200000003,291412.90000000596,285385.546,285582.60000000894,285402.274,291230.263,1,20,13,
sequence,flow.Sequence,6_12,2023-11-14T18:36:28.334Z,,,,,,,,,,6010.626000005985,completion,,,,,,,high,low,,,,,,true,,,,false,291413.700000003,291412.90000000596,285385.546,285582.60000000894,285402.274,291230.263,1,20,,
trial,html.Screen,6_13_0,2023-11-14T18:36:34.846Z,,,,1,0.8816288864119318,-0.801867301188093,,true,lh,6695.137000005983,response,-1.1181734135756094,0.9499999999999997,-0.9499999999999997,0.944560381774994,0.9499999999999997,-0.9499999999999997,low,high,,ISIC_9196783.JPG,,ISIC_9688534.JPG,28,true,lh,keypress(e),0,false,297925.60000000894,297925.40000000596,291213.722,291414,291230.263,297742.917,1,20,14,
sequence,flow.Sequence,6_13,2023-11-14T18:36:34.847Z,,,,,,,,,,6695.137000005983,completion,,,,,,,low,high,,,,,,true,,,,false,297926.200000003,297925.40000000596,291213.722,291413.8000000119,291230.263,297742.917,1,20,,
trial,html.Screen,6_14_0,2023-11-14T18:36:40.065Z,,,,1,-0.7933921755497018,0.7692916291112835,,true,hl,5397.683000008925,response,0.7809949855371787,0.9499999999999997,-0.9499999999999997,-0.8493861117004308,0.9499999999999997,-0.9499999999999997,high,low,,ISIC_7844825.JPG,,ISIC_7450481.JPG,26,true,hl,keypress(j),0,false,303140.700000003,303140.60000000894,297726.306,297926.5,297742.917,302969.979,1,20,15,
sequence,flow.Sequence,6_14,2023-11-14T18:36:40.065Z,,,,,,,,,,5397.683000008925,completion,,,,,,,high,low,,,,,,true,,,,false,303141.10000000894,303140.60000000894,297726.306,297926.5,297742.917,302969.979,1,20,,
trial,html.Screen,6_15_0,2023-11-14T18:36:46.897Z,,,,1,0.991146183030456,-0.9949639823722534,,true,lh,7003.121000008949,response,-0.8179805381029407,0.9499999999999997,-0.9499999999999997,0.8578467162767749,0.9499999999999997,-0.9499999999999997,low,high,,ISIC_6342224.JPG,,ISIC_0067253.JPG,28,true,lh,keypress(e),0,false,309973.5,309973.10000000894,302953.161,303141.3000000119,302969.979,309799.929,1,20,16,
sequence,flow.Sequence,6_15,2023-11-14T18:36:46.898Z,,,,,,,,,,7003.121000008949,completion,,,,,,,low,high,,,,,,true,,,,false,309973.90000000596,309973.10000000894,302953.161,303141.3000000119,302969.979,309799.929,1,20,,
trial,html.Screen,6_16_0,2023-11-14T18:36:53.705Z,,,,1,-0.871738172024263,-0.7713423219315299,,true,hh,6980.871000011917,response,0.958609763811768,0.9499999999999997,-0.9499999999999997,1.0650939066726144,0.9499999999999997,-0.9499999999999997,high,high,,ISIC_0031680.JPG,,ISIC_0070163.JPG,167,true,hh,keypress(i),0,false,316781.10000000894,316780.8000000119,309782.929,309974.200000003,309799.929,316596.279,1,20,17,
sequence,flow.Sequence,6_16,2023-11-14T18:36:53.705Z,,,,,,,,,,6980.871000011917,completion,,,,,,,high,high,,,,,,true,,,,false,316781.60000000894,316780.8000000119,309782.929,309974.200000003,309799.929,316596.279,1,20,,
trial,html.Screen,6_17_0,2023-11-14T18:36:57.641Z,,,,1,-0.8297121564547995,-0.9292144567580788,,true,hh,4121.0210000119405,response,0.9293545888449,0.9499999999999997,-0.9499999999999997,0.8047295996345292,0.9499999999999997,-0.9499999999999997,high,high,,ISIC_4108397.JPG,,ISIC_7717907.JPG,167,true,hh,keypress(i),0,false,320717.700000003,320717.3000000119,316579.729,316781.8000000119,316596.279,320537.304,1,20,18,
sequence,flow.Sequence,6_17,2023-11-14T18:36:57.642Z,,,,,,,,,,4121.0210000119405,completion,,,,,,,high,high,,,,,,true,,,,false,320718.200000003,320717.3000000119,316579.729,316781.700000003,316596.279,320537.304,1,20,,
trial,html.Screen,6_18_0,2023-11-14T18:37:04.320Z,,,,1,0.7871162143493278,-0.8429329800778957,,true,lh,6858.695999999996,response,-0.8809306963311293,0.9499999999999997,-0.9499999999999997,0.8614910030038974,0.9499999999999997,-0.9499999999999997,low,high,,ISIC_3439215.JPG,,ISIC_0013731.JPG,28,true,lh,keypress(e),0,false,327396.10000000894,327396,320520.502,320718.40000000596,320537.304,327216.921,1,20,19,
sequence,flow.Sequence,6_18,2023-11-14T18:37:04.320Z,,,,,,,,,,6858.695999999996,completion,,,,,,,low,high,,,,,,true,,,,false,327396.40000000596,327396,320520.502,320718.40000000596,320537.304,327216.921,1,20,,
trial,html.Screen,6_19_0,2023-11-14T18:37:09.448Z,,,,1,-1.1181734135756094,0.944560381774994,,true,hl,5307.179000008968,response,0.7870237732709365,0.9499999999999997,-0.9499999999999997,-0.9172955251119376,0.9499999999999997,-0.9499999999999997,high,low,,ISIC_9688534.JPG,,ISIC_0057716.JPG,26,true,hl,keypress(j),0,false,332524.3000000119,332524.10000000894,327200.346,327396.5,327216.921,332343.516,1,20,20,
sequence,flow.Sequence,6_19,2023-11-14T18:37:09.448Z,,,,,,,,,,5307.179000008968,completion,,,,,,,high,low,,,,,,true,,,,false,332524.5,332524.10000000894,327200.346,327396.5,327216.921,332343.516,1,20,,
practice_loop,flow.Loop,6,2023-11-14T18:37:09.448Z,,,,,,,,,,110111.20700000893,completion,,,,,,,,,,,,,,true,,,,false,332524.60000000894,332524.10000000894,222396.407,222603.80000001192,222412.893,332343.516,1,20,,
stair_instructions,html.Screen,7,2023-11-14T18:37:16.951Z,,,,,,,,,,7683.784000011918,response,,,,,,,,,,,,,,,continue,click button,,,340027.8000000119,340027.3000000119,332327.01,332524.60000000894,332343.516,339841.466,,,,
trial,html.Screen,8_0_0,2023-11-14T18:37:25.983Z,,,,2,-0.0220322185490382,-0.0740918837949419,,false,lh,9218.033999999985,response,-1.0751036484083878,0.9499999999999997,-0.9499999999999997,1.143906455483852,0.9499999999999997,-0.9499999999999997,low,high,,ISIC_8105020.JPG,,ISIC_0064406.JPG,28,false,hl,keypress(j),0,true,349059.60000000894,349059.5,339824.831,340027.90000000596,339841.466,348892.443,1,40,1,
sequence,flow.Sequence,8_0,2023-11-14T18:37:25.984Z,,,,,,,,,,9218.033999999985,completion,,,,,,,low,high,,,,,,false,,,,true,349059.700000003,349059.5,339824.831,340027.8000000119,339841.466,348892.443,1,40,,
trial,html.Screen,8_1_0,2023-11-14T18:37:30.784Z,,,,2,-0.0051189696037511,0.0396625911332438,,true,ll,4967.556999999972,response,-0.7877297643782052,0.8999999999999997,-0.9499999999999997,-1.0484741330672678,0.9499999999999997,-0.8999999999999997,low,low,,ISIC_9742891.JPG,,ISIC_6326803.JPG,156,false,ll,keypress(f),0,true,353860.200000003,353860,348875.808,349059.8000000119,348892.443,353685.246,1,40,2,
sequence,flow.Sequence,8_1,2023-11-14T18:37:30.784Z,,,,,,,,,,4967.556999999972,completion,,,,,,,low,low,,,,,,false,,,,true,353860.3000000119,353860,348875.808,349059.8000000119,348892.443,353685.246,1,40,,
trial,html.Screen,8_2_0,2023-11-14T18:37:37.748Z,,,,2,-0.0149482827359613,0.0661630859332833,,false,hl,7135.854000008956,response,0.7184117946247969,0.8499999999999996,-0.8999999999999997,-0.7116471841427019,0.8999999999999997,-0.8499999999999996,high,low,,ISIC_6815524.JPG,,ISIC_0072865.JPG,49,false,hh,keypress(i),0,true,360821.40000000596,360821.10000000894,353668.63,353860.5,353685.246,360648.873,1,40,3,
sequence,flow.Sequence,8_2,2023-11-14T18:37:37.749Z,,,,,,,,,,7135.854000008956,completion,,,,,,,high,low,,,,,,false,,,,true,360821.8000000119,360821.10000000894,353668.63,353860.5,353685.246,360648.873,1,40,,
trial,html.Screen,8_3_0,2023-11-14T18:37:42.493Z,,,,2,0.0217698886732706,-0.0410870915161425,,false,lh,4916.626999999979,response,-0.6741876485718082,0.8499999999999996,-0.8499999999999996,0.7591012084956917,0.8499999999999996,-0.8499999999999996,low,high,,ISIC_0072173.JPG,,ISIC_7539727.JPG,54,false,ll,keypress(f),0,true,365565.8000000119,365565.5,360632.147,360822,360648.873,365391.372,1,40,4,
sequence,flow.Sequence,8_3,2023-11-14T18:37:42.493Z,,,,,,,,,,4916.626999999979,completion,,,,,,,low,high,,,,,,false,,,,true,365566.200000003,365565.5,360632.147,360822,360648.873,365391.372,1,40,,
trial,html.Screen,8_4_0,2023-11-14T18:37:51.589Z,,,,2,-0.0693466529227737,-0.044703434393184,,false,hl,9269.928000011947,response,0.6736190627382606,0.7999999999999996,-0.8499999999999996,-0.7617066357204199,0.8499999999999996,-0.7999999999999996,high,low,,ISIC_0004217.JPG,,ISIC_6539127.JPG,58,false,ll,keypress(f),0,true,374661.700000003,374661.3000000119,365374.72,365566.5,365391.372,374493.406,1,40,5,
sequence,flow.Sequence,8_4,2023-11-14T18:37:51.589Z,,,,,,,,,,9269.928000011947,completion,,,,,,,high,low,,,,,,false,,,,true,374662.40000000596,374661.3000000119,365374.72,365566.40000000596,365391.372,374493.406,1,40,,
trial,html.Screen,8_5_0,2023-11-14T18:37:58.732Z,,,,2,-0.0552031398781121,-0.0652612426529481,,false,ll,7311.6940000089235,response,-0.8513702094329779,0.7999999999999996,-0.7999999999999996,-0.8646686295881743,0.7999999999999996,-0.7999999999999996,low,low,,ISIC_0024226.JPG,,ISIC_1881133.JPG,245,false,hh,keypress(i),0,true,381805.40000000596,381805.10000000894,374459.044,374662.60000000894,374493.406,381622.885,1,40,6,
sequence,flow.Sequence,8_5,2023-11-14T18:37:58.733Z,,,,,,,,,,7311.6940000089235,completion,,,,,,,low,low,,,,,,false,,,,true,381805.90000000596,381805.10000000894,374459.044,374662.5,374493.406,381622.885,1,40,,
trial,html.Screen,8_6_0,2023-11-14T18:38:06.603Z,,,,2,0.0085520978188085,-0.0464691161264081,,false,lh,8052.715000008931,response,-0.6342395687531054,0.7499999999999996,-0.7999999999999996,0.8082990654469779,0.7499999999999996,-0.7999999999999996,low,high,,ISIC_0758797.JPG,,ISIC_0033368.JPG,78,false,ll,keypress(f),0,true,389675.8000000119,389675.60000000894,381606.285,381806.200000003,381622.885,389505.627,1,40,7,
sequence,flow.Sequence,8_6,2023-11-14T18:38:06.603Z,,,,,,,,,,8052.715000008931,completion,,,,,,,low,high,,,,,,false,,,,true,389675.90000000596,389675.60000000894,381606.285,381806.10000000894,381622.885,389505.627,1,40,,
trial,html.Screen,8_7_0,2023-11-14T18:38:14.748Z,,,,2,-0.0113873532168551,-0.0054999201556291,,true,hl,8315.473000008962,response,0.6278709323528409,0.6999999999999995,-0.7999999999999996,-0.5967273875905748,0.7499999999999996,-0.7499999999999996,high,low,,ISIC_8812621.JPG,,ISIC_0014088.JPG,91,false,hl,keypress(j),0,true,397821.40000000596,397821.10000000894,389471.563,389675.90000000596,389505.627,397637.378,1,40,8,
sequence,flow.Sequence,8_7,2023-11-14T18:38:14.749Z,,,,,,,,,,8315.473000008962,completion,,,,,,,high,low,,,,,,false,,,,true,397821.90000000596,397821.10000000894,389471.563,389675.90000000596,389505.627,397637.378,1,40,,
trial,html.Screen,8_8_0,2023-11-14T18:38:22.437Z,,,,2,0.007397293189458,0.0174716772037504,,false,lh,7872.121999999974,response,-0.5940148458258058,0.6499999999999995,-0.7499999999999996,0.6288785570130496,0.6999999999999995,-0.6999999999999995,low,high,,ISIC_0056226.JPG,,ISIC_0025835.JPG,93,false,ll,keypress(f),0,true,405509.90000000596,405509.5,397620.543,397822.10000000894,397637.378,405335.71,1,40,9,
sequence,flow.Sequence,8_8,2023-11-14T18:38:22.437Z,,,,,,,,,,7872.121999999974,completion,,,,,,,low,high,,,,,,false,,,,true,405510.5,405509.5,397620.543,397822,397637.378,405335.71,1,40,,
trial,html.Screen,8_9_0,2023-11-14T18:38:28.581Z,,,,2,-0.0735635316240061,0.0537805418091709,,false,lh,6317.6900000059395,response,-0.8245554507779774,0.5999999999999994,-0.7499999999999996,0.6385228105255385,0.6999999999999995,-0.6499999999999995,low,high,,ISIC_1761799.JPG,,ISIC_0010838.JPG,93,false,ll,keypress(f),0,true,411653.700000003,411653.40000000596,405318.943,405510.700000003,405335.71,411480.909,1,40,10,
sequence,flow.Sequence,8_9,2023-11-14T18:38:28.581Z,,,,,,,,,,6317.6900000059395,completion,,,,,,,low,high,,,,,,false,,,,true,411654.200000003,411653.40000000596,405318.943,405510.5,405335.71,411480.909,1,40,,
trial,html.Screen,8_10_0,2023-11-14T18:38:34.765Z,,,,2,-0.0292059717970335,-0.0718256867525069,,false,hl,6356.491000005975,response,0.3566590196733541,0.5499999999999994,-0.7499999999999996,-0.7883321712536753,0.6999999999999995,-0.5999999999999994,high,low,,ISIC_1114966.JPG,,ISIC_9828853.JPG,188,false,lh,keypress(e),0,true,417837.700000003,417837.40000000596,411464.242,411654.40000000596,411480.909,417659.68,1,40,11,
sequence,flow.Sequence,8_10,2023-11-14T18:38:34.765Z,,,,,,,,,,6356.491000005975,completion,,,,,,,high,low,,,,,,false,,,,true,417838.200000003,417837.40000000596,411464.242,411654.40000000596,411480.909,417659.68,1,40,,
trial,html.Screen,8_11_0,2023-11-14T18:38:41.845Z,,,,2,0.063045324701596,-0.0064789751878758,,true,hl,7257.620000011928,response,0.5645140051801864,0.5499999999999994,-0.6999999999999995,-0.519360841762984,0.6499999999999995,-0.5999999999999994,high,low,,ISIC_5805349.JPG,,ISIC_6299036.JPG,188,false,hl,keypress(j),0,true,424917.60000000894,424917.3000000119,417643.086,417838.5,417659.68,424740.054,1,40,12,
sequence,flow.Sequence,8_11,2023-11-14T18:38:41.846Z,,,,,,,,,,7257.620000011928,completion,,,,,,,high,low,,,,,,false,,,,true,424918.10000000894,424917.3000000119,417643.086,417838.40000000596,417659.68,424740.054,1,40,,
trial,html.Screen,8_12_0,2023-11-14T18:38:47.003Z,,,,2,0.0116094682222121,-0.0258434522530318,,true,hh,5335.546000008937,response,0.4751384274023676,0.4999999999999994,-0.6499999999999995,0.5486983434020919,0.5999999999999994,-0.5499999999999994,high,high,,ISIC_9239632.JPG,,ISIC_0064073.JPG,369,false,hh,keypress(i),0,true,430075.700000003,430075.60000000894,424723.28,424918.200000003,424740.054,429900.277,1,40,13,
sequence,flow.Sequence,8_12,2023-11-14T18:38:47.003Z,,,,,,,,,,5335.546000008937,completion,,,,,,,high,high,,,,,,false,,,,true,430075.8000000119,430075.60000000894,424723.28,424918.200000003,424740.054,429900.277,1,40,,
trial,html.Screen,8_13_0,2023-11-14T18:38:53.380Z,,,,2,-0.009234249673026,-0.0627190878028592,,false,hh,6552.123000005959,response,0.5892514723186367,0.469826216291277,-0.5999999999999994,0.447911379681986,0.5499999999999994,-0.4999999999999994,high,high,,ISIC_0053760.JPG,,ISIC_1686556.JPG,400,false,hl,keypress(j),0,true,436452.5,436452.40000000596,429883.635,430075.8000000119,429900.277,436279.411,1,40,14,
sequence,flow.Sequence,8_13,2023-11-14T18:38:53.380Z,,,,,,,,,,6552.123000005959,completion,,,,,,,high,high,,,,,,false,,,,true,436452.8000000119,436452.40000000596,429883.635,430075.8000000119,429900.277,436279.411,1,40,,
trial,html.Screen,8_14_0,2023-11-14T18:39:03.134Z,,,,2,-0.0735635316240061,0.0537805418091709,,false,ll,9926.088999999978,response,-0.5959199716061077,0.469826216291277,-0.5499999999999994,-0.6193341970002335,0.5499999999999994,-0.4999999999999994,low,low,,ISIC_1761799.JPG,,ISIC_0063053.JPG,462,false,lh,keypress(e),0,true,446205.90000000596,446205.5,436262.7,436452.90000000596,436279.411,446031.667,1,40,15,
sequence,flow.Sequence,8_14,2023-11-14T18:39:03.134Z,,,,,,,,,,9926.088999999978,completion,,,,,,,low,low,,,,,,false,,,,true,446206.3000000119,446205.5,436262.7,436452.8000000119,436279.411,446031.667,1,40,,
trial,html.Screen,8_15_0,2023-11-14T18:39:10.365Z,,,,2,0.0389988030702649,0.0143212271490256,,true,hh,7405.533000002964,response,0.622310382030084,0.469826216291277,-0.5499999999999994,0.4692147522668944,0.4999999999999994,-0.4999999999999994,high,high,,ISIC_0064669.JPG,,ISIC_4436342.JPG,411,false,hh,keypress(i),0,true,453437.5,453437.200000003,446014.78,446206.60000000894,446031.667,453262.251,1,40,16,
sequence,flow.Sequence,8_15,2023-11-14T18:39:10.366Z,,,,,,,,,,7405.533000002964,completion,,,,,,,high,high,,,,,,false,,,,true,453438,453437.200000003,446014.78,446206.5,446031.667,453262.251,1,40,,
trial,html.Screen,8_16_0,2023-11-14T18:39:21.176Z,,,,2,0.0085520978188085,-0.0464691161264081,,,,10804.37599999999,timeout,-0.4978924067502938,0.5057809271743603,-0.4999999999999994,-0.4527578143903723,0.4999999999999994,-0.4999999999999994,low,low,,ISIC_0758797.JPG,,ISIC_5888212.JPG,472,false,,,0,true,464248.200000003,464248.10000000894,453245.763,453438.3000000119,453262.251,464066.627,1,40,17,
sequence,flow.Sequence,8_16,2023-11-14T18:39:21.176Z,,,,,,,,,,10985.849000008951,completion,,,,,,,low,low,,,,,,false,,,,true,464248.3000000119,464248.10000000894,453245.763,453438.3000000119,453262.251,464066.627,1,40,,
trial,html.Screen,8_17_0,2023-11-14T18:39:25.542Z,,,,2,0.0247880219471745,-0.0687761754603142,,false,lh,4546.873000000021,response,-0.6238270810796768,0.5057809271743603,-0.4999999999999994,0.4729539523685004,0.4999999999999994,-0.4999999999999994,low,high,,ISIC_0031745.JPG,,ISIC_0068576.JPG,237,false,hl,keypress(j),0,true,468613.8000000119,468613.5,464050.081,464248.40000000596,464066.627,468441.968,1,40,18,
sequence,flow.Sequence,8_17,2023-11-14T18:39:25.542Z,,,,,,,,,,4546.873000000021,completion,,,,,,,low,high,,,,,,false,,,,true,468614.3000000119,468613.5,464050.081,464248.40000000596,464066.627,468441.968,1,40,,
trial,html.Screen,8_18_0,2023-11-14T18:39:31.492Z,,,,2,-0.0087912446525382,-0.0619041869188676,,true,hl,6121.732000002987,response,0.322290804636954,0.4557809271743603,-0.4999999999999994,-0.6577775314675233,0.4999999999999994,-0.4999999999999994,high,low,,ISIC_7185913.JPG,,ISIC_9453737.JPG,294,false,hl,keypress(j),0,true,474563.90000000596,474563.700000003,468425.244,468614.5,468441.968,474386.716,1,40,19,
sequence,flow.Sequence,8_18,2023-11-14T18:39:31.492Z,,,,,,,,,,6121.732000002987,completion,,,,,,,high,low,,,,,,false,,,,true,474564,474563.700000003,468425.244,468614.40000000596,468441.968,474386.716,1,40,,
trial,html.Screen,8_19_0,2023-11-14T18:39:36.804Z,,,,2,-0.0565575423757561,-0.0394300226801425,,true,ll,5489.084000011906,response,-0.4138200704806474,0.4557809271743603,-0.4999999999999994,-0.5558920944901325,0.4999999999999994,-0.4999999999999994,low,low,,ISIC_0046983.JPG,,ISIC_1595658.JPG,472,false,ll,keypress(f),0,true,479875.90000000596,479875.8000000119,474370.175,474564,474386.716,479697.051,1,40,20,
sequence,flow.Sequence,8_19,2023-11-14T18:39:36.805Z,,,,,,,,,,5489.084000011906,completion,,,,,,,low,low,,,,,,false,,,,true,479876,479875.8000000119,474370.175,474564,474386.716,479697.051,1,40,,
trial,html.Screen,8_20_0,2023-11-14T18:39:40.694Z,,,,2,0.0194167651857046,0.0726253809408601,,true,ll,4068.1490000030026,response,-0.5452811634660165,0.4557809271743603,-0.4999999999999994,-0.5792569301289315,0.4999999999999994,-0.5068348129788278,low,low,,ISIC_0056692.JPG,,ISIC_0066203.JPG,463,false,ll,keypress(f),0,true,483765.5,483765.200000003,479680.423,479876.200000003,479697.051,483588.095,1,40,21,
sequence,flow.Sequence,8_20,2023-11-14T18:39:40.694Z,,,,,,,,,,4068.1490000030026,completion,,,,,,,low,low,,,,,,false,,,,true,483766,483765.200000003,479680.423,479876.10000000894,479697.051,483588.095,1,40,,
trial,html.Screen,8_21_0,2023-11-14T18:39:46.118Z,,,,2,0.0069555338059566,-0.0310100918136373,,true,hh,5601.005000008969,response,0.5874427526299251,0.4557809271743603,-0.4499999999999994,0.6982238752065002,0.4999999999999994,-0.45683481297882783,high,high,,ISIC_0011177.JPG,,ISIC_0065728.JPG,414,false,hh,keypress(i),0,true,489189.40000000596,489189.10000000894,483571.398,483766.200000003,483588.095,489015.255,1,40,22,
sequence,flow.Sequence,8_21,2023-11-14T18:39:46.118Z,,,,,,,,,,5601.005000008969,completion,,,,,,,high,high,,,,,,false,,,,true,489189.90000000596,489189.10000000894,483571.398,483766.200000003,483588.095,489015.255,1,40,,
trial,html.Screen,8_22_0,2023-11-14T18:39:51.334Z,,,,2,0.0401045651353626,0.053461375824197,,false,hl,5390.145000005956,response,0.5878461268211929,0.4057809271743603,-0.4499999999999994,-0.6559934373654686,0.4999999999999994,-0.45683481297882783,high,low,,ISIC_6483504.JPG,,ISIC_6705966.JPG,333,false,hh,keypress(i),0,true,494405.8000000119,494405.40000000596,488998.465,489190.200000003,489015.255,494225.33,1,40,23,
sequence,flow.Sequence,8_22,2023-11-14T18:39:51.335Z,,,,,,,,,,5390.145000005956,completion,,,,,,,high,low,,,,,,false,,,,true,494406.3000000119,494405.40000000596,488998.465,489190.10000000894,489015.255,494225.33,1,40,,
trial,html.Screen,8_23_0,2023-11-14T18:39:56.950Z,,,,2,-0.0693466529227737,-0.044703434393184,,true,lh,5795.870000002964,response,-0.4483806693642013,0.4557809271743603,-0.4499999999999994,0.6528125134540648,0.4999999999999994,-0.45683481297882783,low,high,,ISIC_0004217.JPG,,ISIC_0058658.JPG,250,false,lh,keypress(e),0,true,500021.5,500021.200000003,494208.809,494406.5,494225.33,499836.298,1,40,24,
sequence,flow.Sequence,8_23,2023-11-14T18:39:56.950Z,,,,,,,,,,5795.870000002964,completion,,,,,,,low,high,,,,,,false,,,,true,500022,500021.200000003,494208.809,494406.40000000596,494225.33,499836.298,1,40,,
trial,html.Screen,8_24_0,2023-11-14T18:39:59.550Z,,,,2,0.0050679133050021,-0.0009714874637896,,false,lh,2784.6020000059507,response,-0.2667341864992784,0.4557809271743603,-0.4499999999999994,0.5660431817618399,0.5755181943302824,-0.45683481297882783,low,high,,ISIC_9848743.JPG,,ISIC_0029893.JPG,214,false,hh,keypress(i),0,true,502621.200000003,502620.90000000596,499819.756,500022.200000003,499836.298,502441.377,1,40,25,
sequence,flow.Sequence,8_24,2023-11-14T18:39:59.550Z,,,,,,,,,,2784.6020000059507,completion,,,,,,,low,high,,,,,,false,,,,true,502621.60000000894,502620.90000000596,499819.756,500022.200000003,499836.298,502441.377,1,40,,
trial,html.Screen,8_25_0,2023-11-14T18:40:03.191Z,,,,2,0.0511770300585718,0.029030243555971,,false,lh,3820.4230000119423,response,-0.5356180402775108,0.4557809271743603,-0.4999999999999994,0.4527162937549286,0.5755181943302824,-0.45683481297882783,low,high,,ISIC_6652978.JPG,,ISIC_6592334.JPG,201,false,ll,keypress(f),0,true,506262,506261.8000000119,502424.59,502621.8000000119,502441.377,506081.689,1,40,26,
sequence,flow.Sequence,8_25,2023-11-14T18:40:03.191Z,,,,,,,,,,3820.4230000119423,completion,,,,,,,low,high,,,,,,false,,,,true,506262.60000000894,506261.8000000119,502424.59,502621.700000003,502441.377,506081.689,1,40,,
trial,html.Screen,8_26_0,2023-11-14T18:40:07.550Z,,,,2,0.0401045651353626,0.053461375824197,,false,ll,4539.711000005947,response,-0.5942518314420117,0.4557809271743603,-0.4999999999999994,-0.4364230567720126,0.5755181943302824,-0.45683481297882783,low,low,,ISIC_6483504.JPG,,ISIC_4093484.JPG,490,false,lh,keypress(e),0,true,510621.700000003,510621.40000000596,506065.268,506262.8000000119,506081.689,510440.206,1,40,27,
sequence,flow.Sequence,8_26,2023-11-14T18:40:07.551Z,,,,,,,,,,4539.711000005947,completion,,,,,,,low,low,,,,,,false,,,,true,510622.40000000596,510621.40000000596,506065.268,506262.700000003,506081.689,510440.206,1,40,,
trial,html.Screen,8_27_0,2023-11-14T18:40:10.742Z,,,,2,-0.0362376068089956,-0.047825070846155,,true,ll,3373.0940000119153,response,-0.3043919787221506,0.4557809271743603,-0.4999999999999994,-0.601899097476514,0.5255181943302824,-0.45683481297882783,low,low,,ISIC_6985114.JPG,,ISIC_3814807.JPG,490,false,ll,keypress(f),0,true,513813.60000000894,513813.3000000119,510423.71,510622.60000000894,510440.206,513629.822,1,40,28,
sequence,flow.Sequence,8_27,2023-11-14T18:40:10.743Z,,,,,,,,,,3373.0940000119153,completion,,,,,,,low,low,,,,,,false,,,,true,513814.10000000894,513813.3000000119,510423.71,510622.5,510440.206,513629.822,1,40,,
trial,html.Screen,8_28_0,2023-11-14T18:40:16.901Z,,,,2,-0.0737104822171846,0.0725320314728604,,true,hl,6342.178000000014,response,0.2923875398143803,0.4557809271743603,-0.4499999999999994,-0.4895328680183447,0.47551819433028236,-0.45683481297882783,high,low,,ISIC_0002862.JPG,,ISIC_9775430.JPG,314,false,hl,keypress(j),0,true,519972.200000003,519972,513613.267,513814.3000000119,513629.822,519791.806,1,40,29,
sequence,flow.Sequence,8_28,2023-11-14T18:40:16.901Z,,,,,,,,,,6342.178000000014,completion,,,,,,,high,low,,,,,,false,,,,true,519972.3000000119,519972,513613.267,513814.200000003,513629.822,519791.806,1,40,,
trial,html.Screen,8_29_0,2023-11-14T18:40:21.957Z,,,,2,-0.0737104822171846,0.0725320314728604,,true,hh,5236.294000008958,response,0.4980680949388183,0.4057809271743603,-0.4499999999999994,0.3972799464541562,0.47551819433028236,-0.4957159827474294,high,high,,ISIC_0002862.JPG,,ISIC_0032921.JPG,410,false,hh,keypress(i),0,true,525028.200000003,525028.1000000089,519775.155,519972.40000000596,519791.806,524851.742,1,40,30,
sequence,flow.Sequence,8_29,2023-11-14T18:40:21.957Z,,,,,,,,,,5236.294000008958,completion,,,,,,,high,high,,,,,,false,,,,true,525028.400000006,525028.1000000089,519775.155,519972.3000000119,519791.806,524851.742,1,40,,
trial,html.Screen,8_30_0,2023-11-14T18:40:27.077Z,,,,2,-0.0112310719058792,0.0469047359904117,,false,ll,5296.358000008971,response,-0.5752409781037379,0.4057809271743603,-0.4499999999999994,-0.376733497761607,0.47551819433028236,-0.4957159827474294,low,low,,ISIC_0068184.JPG,,ISIC_0004089.JPG,499,false,hh,keypress(i),0,true,530148.200000003,530148.1000000089,524834.839,525028.400000006,524851.742,529961.531,1,40,31,
sequence,flow.Sequence,8_30,2023-11-14T18:40:27.077Z,,,,,,,,,,5296.358000008971,completion,,,,,,,low,low,,,,,,false,,,,true,530148.400000006,530148.1000000089,524834.839,525028.400000006,524851.742,529961.531,1,40,,
trial,html.Screen,8_31_0,2023-11-14T18:40:31.438Z,,,,2,-0.0245585387483123,0.053462758614929,,false,hl,4547.669000003021,response,0.22558529222233,0.4057809271743603,-0.4999999999999994,-0.5623056839142434,0.47551819433028236,-0.4957159827474294,high,low,,ISIC_3389704.JPG,,ISIC_0032927.JPG,317,false,ll,keypress(f),0,true,534509.5,534509.200000003,529945.06,530148.5,529961.531,534336.828,1,40,32,
sequence,flow.Sequence,8_31,2023-11-14T18:40:31.439Z,,,,,,,,,,4547.669000003021,completion,,,,,,,high,low,,,,,,false,,,,true,534510,534509.200000003,529945.06,530148.5,529961.531,534336.828,1,40,,
trial,html.Screen,8_32_0,2023-11-14T18:40:37.229Z,,,,2,0.0415913596725838,-0.0543422987007948,,false,hh,5963.072000005981,response,0.6077361298541321,0.4557809271743603,-0.4999999999999994,0.6008438634644336,0.47551819433028236,-0.4957159827474294,high,high,,ISIC_0027956.JPG,,ISIC_9462979.JPG,414,false,ll,keypress(f),0,true,540300,540299.900000006,534320.096,534510.400000006,534336.828,540114.615,1,40,33,
sequence,flow.Sequence,8_32,2023-11-14T18:40:37.229Z,,,,,,,,,,5963.072000005981,completion,,,,,,,high,high,,,,,,false,,,,true,540300.200000003,540299.900000006,534320.096,534510.200000003,534336.828,540114.615,1,40,,
trial,html.Screen,8_33_0,2023-11-14T18:40:42.215Z,,,,2,-0.0735635316240061,0.0537805418091709,,false,hh,5170.68500001193,response,0.6395010990466748,0.4557809271743603,-0.4999999999999994,0.5493747897279743,0.47551819433028236,-0.4957159827474294,high,high,,ISIC_1761799.JPG,,ISIC_0066784.JPG,414,false,hl,keypress(j),0,true,545285.700000003,545285.3000000119,540098.107,540300.200000003,540114.615,545107.768,1,40,34,
sequence,flow.Sequence,8_33,2023-11-14T18:40:42.215Z,,,,,,,,,,5170.68500001193,completion,,,,,,,high,high,,,,,,false,,,,true,545286.1000000089,545285.3000000119,540098.107,540300.200000003,540114.615,545107.768,1,40,,
trial,html.Screen,8_34_0,2023-11-14T18:40:49.495Z,,,,2,-0.000047919190197942736,-0.0462652940855003,,true,hh,7457.532000011881,response,0.2843442462454195,0.4557809271743603,-0.4999999999999994,0.5259141728787187,0.47551819433028236,-0.4957159827474294,high,high,,ISIC_0011507.JPG,,ISIC_0001103.JPG,414,false,hh,keypress(i),0,true,552565.700000003,552565.3000000119,545091.204,545286.400000006,545107.768,552388.591,1,40,35,
sequence,flow.Sequence,8_34,2023-11-14T18:40:49.495Z,,,,,,,,,,7457.532000011881,completion,,,,,,,high,high,,,,,,false,,,,true,552566.200000003,552565.3000000119,545091.204,545286.3000000119,545107.768,552388.591,1,40,,
trial,html.Screen,8_35_0,2023-11-14T18:40:55.815Z,,,,2,0.0057914759495055,0.0074667911845194,,false,lh,6496.609000002965,response,-0.4548473371923527,0.4057809271743603,-0.4999999999999994,0.4951245903257062,0.47551819433028236,-0.4957159827474294,low,high,,ISIC_0058723.JPG,,ISIC_0032709.JPG,253,false,hl,keypress(j),0,true,558885.5,558885.200000003,552371.852,552566.400000006,552388.591,558700.88,1,40,36,
sequence,flow.Sequence,8_35,2023-11-14T18:40:55.815Z,,,,,,,,,,6496.609000002965,completion,,,,,,,low,high,,,,,,false,,,,true,558886,558885.200000003,552371.852,552566.3000000119,552388.591,558700.88,1,40,,
trial,html.Screen,8_36_0,2023-11-14T18:41:02.967Z,,,,2,-0.0693466529227737,-0.044703434393184,,false,hh,7336.820000002976,response,0.5153370886890538,0.4057809271743603,-0.4999999999999994,0.6572205762299792,0.47551819433028236,-0.4957159827474294,high,high,,ISIC_0004217.JPG,,ISIC_8007849.JPG,410,false,lh,keypress(e),0,true,566038,566037.700000003,558684.063,558886.3000000119,558700.88,565864.996,1,40,37,
sequence,flow.Sequence,8_36,2023-11-14T18:41:02.968Z,,,,,,,,,,7336.820000002976,completion,,,,,,,high,high,,,,,,false,,,,true,566038.400000006,566037.700000003,558684.063,558886.200000003,558700.88,565864.996,1,40,,
trial,html.Screen,8_37_0,2023-11-14T18:41:06.735Z,,,,2,0.0324770283903853,0.0249968632204382,,true,ll,3940.2040000029374,response,-0.5245695706667864,0.4557809271743603,-0.4999999999999994,-0.6883799181619704,0.47551819433028236,-0.4957159827474294,low,low,,ISIC_7266462.JPG,,ISIC_0032701.JPG,474,false,ll,keypress(f),0,true,569805.6000000089,569805.200000003,565848.212,566038.8000000119,565864.996,569622.153,1,40,38,
sequence,flow.Sequence,8_37,2023-11-14T18:41:06.735Z,,,,,,,,,,3940.2040000029374,completion,,,,,,,low,low,,,,,,false,,,,true,569806.1000000089,569805.200000003,565848.212,566038.700000003,565864.996,569622.153,1,40,,
trial,html.Screen,8_38_0,2023-11-14T18:41:09.495Z,,,,2,-0.0292059717970335,-0.0718256867525069,,false,hl,2943.247000005911,response,0.3345244660673361,0.4557809271743603,-0.4999999999999994,-0.5592965806876138,0.47551819433028236,-0.5253428010381068,high,low,,ISIC_1114966.JPG,,ISIC_2337786.JPG,281,false,ll,keypress(f),0,true,572565.6000000089,572565.400000006,569605.51,569806.3000000119,569622.153,572394.394,1,40,39,
sequence,flow.Sequence,8_38,2023-11-14T18:41:09.495Z,,,,,,,,,,2943.247000005911,completion,,,,,,,high,low,,,,,,false,,,,true,572566.200000003,572565.400000006,569605.51,569806.200000003,569622.153,572394.394,1,40,,
trial,html.Screen,8_39_0,2023-11-14T18:41:13.639Z,,,,2,-0.0531672914703651,0.0074883925434357,,false,hh,4315.106000000029,response,0.4948880749763902,0.4557809271743603,-0.4999999999999994,0.5658543346432495,0.47551819433028236,-0.5253428010381068,high,high,,ISIC_4177043.JPG,,ISIC_0065062.JPG,414,false,hl,keypress(j),0,true,576709.900000006,576709.5,572377.495,572566.400000006,572394.394,576535.625,1,40,40,
sequence,flow.Sequence,8_39,2023-11-14T18:41:13.639Z,,,,,,,,,,4315.106000000029,completion,,,,,,,high,high,,,,,,false,,,,true,576710.3000000119,576709.5,572377.495,572566.3000000119,572394.394,576535.625,1,40,,
stair_loop,flow.Loop,8,2023-11-14T18:41:13.640Z,,,,,,,,,,236868.03399999999,completion,,,,,,,,,,,,,,false,,,,true,576710.6000000089,576709.5,339824.831,340027.8000000119,339841.466,576535.625,1,40,,
exp_instructions,html.Screen,9,2023-11-14T18:41:30.023Z,,,,,,,,,,16556.875,response,,,,,,,,,,,,,,,continue,keypress(Space),,,593093.5,593092.5,576519.052,576710.8000000119,576535.625,592917.418,,,,
trial,html.Screen,10_0_0,2023-11-14T18:41:35.916Z,,,,1,-0.0533723079251252,-0.0299718727255261,,true,hl,6069.682000008994,response,0.575782879306745,0.4407809271743604,-0.4824999999999994,-0.3600131147894497,0.4979145554642259,-0.4836821381806266,high,low,,ISIC_6562871.JPG,9,ISIC_0012263.JPG,310,false,hl,keypress(j),0,false,598987.200000003,598987.1000000089,592900.78,593093.900000006,592917.418,598812.407,4,500,1,
break,html.Screen,10_0_1,2023-11-14T18:41:35.917Z,,,,,,,,,,NaN,,,,,,,,high,low,,,,,,false,,,,false,598987.6000000089,598987.5,,598987.200000003,,598812.407,4,500,,
break_continue,html.Screen,10_0_2,2023-11-14T18:41:35.917Z,,,,,,,,,,NaN,,,,,,,,high,low,,,,,,false,,,,false,598987.8000000119,598987.700000003,,598987.6000000089,,598812.407,4,500,,
sequence,flow.Sequence,10_0,2023-11-14T18:41:35.917Z,,,,,,,,,,6070.282000003033,completion,,,,,,,high,low,,,,,,false,,,,false,598987.900000006,598987.700000003,592900.78,593093.8000000119,592917.418,598812.407,4,500,,
trial,html.Screen,10_1_0,2023-11-14T18:41:41.366Z,,,,1,0.063045324701596,-0.0064789751878758,,false,lh,5623.893000011914,response,-0.3666493834544435,0.4407809271743604,-0.4824999999999994,0.417550755057085,0.4979145554642259,-0.4836821381806266,low,high,,ISIC_5805349.JPG,9,ISIC_3105136.JPG,238,false,hl,keypress(j),0,false,604436.400000006,604436.3000000119,598795.723,598987.900000006,598812.407,604256.229,4,500,2,
break,html.Screen,10_1_1,2023-11-14T18:41:41.366Z,,,,,,,,,,NaN,,,,,,,,low,high,,,,,,false,,,,false,604436.700000003,604436.6000000089,,604436.5,,604256.229,4,500,,
break_continue,html.Screen,10_1_2,2023-11-14T18:41:41.367Z,,,,,,,,,,NaN,,,,,,,,low,high,,,,,,false,,,,false,604436.900000006,604436.8000000119,,604436.700000003,,604256.229,4,500,,
sequence,flow.Sequence,10_1,2023-11-14T18:41:41.367Z,,,,,,,,,,5624.393000011914,completion,,,,,,,low,high,,,,,,false,,,,false,604436.900000006,604436.8000000119,598795.723,598987.900000006,598812.407,604256.229,4,500,,
trial,html.Screen,10_2_0,2023-11-14T18:41:46.896Z,,,,1,0.039728379742806,-0.0228701131373768,,false,lh,5709.071000011871,response,-0.3614888058435189,0.4407809271743604,-0.4824999999999994,0.4801172937216654,0.4979145554642259,-0.4836821381806266,low,high,,ISIC_0054073.JPG,8,ISIC_0032602.JPG,238,false,ll,keypress(f),0,false,609965.700000003,609965.3000000119,604239.658,604437,604256.229,609783.598,4,500,3,
break,html.Screen,10_2_1,2023-11-14T18:41:46.897Z,,,,,,,,,,NaN,,,,,,,,low,high,,,,,,false,,,,false,609967.5,609967,,609966.3000000119,,609783.598,4,500,,
break_continue,html.Screen,10_2_2,2023-11-14T18:41:46.898Z,,,,,,,,,,NaN,,,,,,,,low,high,,,,,,false,,,,false,609968.200000003,609968.200000003,,609967.900000006,,609783.598,4,500,,
sequence,flow.Sequence,10_2,2023-11-14T18:41:46.898Z,,,,,,,,,,5711.97100000293,completion,,,,,,,low,high,,,,,,false,,,,false,609968.3000000119,609968.200000003,604239.658,604437,604256.229,609783.598,4,500,,
trial,html.Screen,10_3_0,2023-11-14T18:41:52.215Z,,,,1,-0.0362376068089956,-0.047825070846155,,false,hl,5501.702000011923,response,0.3645573898520094,0.4407809271743604,-0.4824999999999994,-0.6061265768304474,0.4979145554642259,-0.4836821381806266,high,low,,ISIC_6985114.JPG,10,ISIC_6681802.JPG,310,false,hh,keypress(i),0,false,615285.700000003,615285.3000000119,609766.896,609968.400000006,609783.598,615110.78,4,500,4,
break,html.Screen,10_3_1,2023-11-14T18:41:52.217Z,,,,,,,,,,NaN,,,,,,,,high,low,,,,,,false,,,,false,615286.900000006,615286.6000000089,,615286.1000000089,,615110.78,4,500,,
break_continue,html.Screen,10_3_2,2023-11-14T18:41:52.217Z,,,,,,,,,,NaN,,,,,,,,high,low,,,,,,false,,,,false,615287.6000000089,615287.400000006,,615287,,615110.78,4,500,,
sequence,flow.Sequence,10_3,2023-11-14T18:41:52.218Z,,,,,,,,,,5503.802000005962,completion,,,,,,,high,low,,,,,,false,,,,false,615288,615287.400000006,609766.896,609968.400000006,609783.598,615110.78,4,500,,
trial,html.Screen,10_4_0,2023-11-14T18:41:57.671Z,,,,1,-0.0113873532168551,-0.0054999201556291,,false,lh,5630.420000002952,response,-0.449156353027244,0.4407809271743604,-0.4824999999999994,0.3255683651634646,0.4979145554642259,-0.4836821381806266,low,high,,ISIC_8812621.JPG,8,ISIC_9223156.JPG,238,false,hl,keypress(j),0,false,620741.5,620741.200000003,615094.116,615288.200000003,615110.78,620572.018,4,500,5,
break,html.Screen,10_4_1,2023-11-14T18:41:57.672Z,,,,,,,,,,NaN,,,,,,,,low,high,,,,,,false,,,,false,620742.6000000089,620742.3000000119,,620741.900000006,,620572.018,4,500,,
break_continue,html.Screen,10_4_2,2023-11-14T18:41:57.673Z,,,,,,,,,,NaN,,,,,,,,low,high,,,,,,false,,,,false,620743.400000006,620743.200000003,,620742.900000006,,620572.018,4,500,,
sequence,flow.Sequence,10_4,2023-11-14T18:41:57.674Z,,,,,,,,,,5632.420000002952,completion,,,,,,,low,high,,,,,,false,,,,false,620743.700000003,620743.200000003,615094.116,615288,615110.78,620572.018,4,500,,
trial,html.Screen,10_5_0,2023-11-14T18:42:05.120Z,,,,1,-0.0159061451859594,-0.0296598845560212,,true,ll,7617.582000008901,response,-0.4729898889477668,0.4407809271743604,-0.4824999999999994,-0.396875160849807,0.4979145554642259,-0.4836821381806266,low,low,,ISIC_0072564.JPG,9,ISIC_5352684.JPG,494,false,ll,keypress(f),0,false,628189.900000006,628189.6000000089,620538.011,620743.900000006,620572.018,628036.019,4,500,6,
break,html.Screen,10_5_1,2023-11-14T18:42:05.121Z,,,,,,,,,,NaN,,,,,,,,low,low,,,,,,false,,,,false,628191.3000000119,628190.900000006,,628190.200000003,,628036.019,4,500,,
break_continue,html.Screen,10_5_2,2023-11-14T18:42:05.122Z,,,,,,,,,,NaN,,,,,,,,low,low,,,,,,false,,,,false,628192,628191.700000003,,628191.400000006,,628036.019,4,500,,
sequence,flow.Sequence,10_5,2023-11-14T18:42:05.122Z,,,,,,,,,,7619.68200000294,completion,,,,,,,low,low,,,,,,false,,,,false,628192.3000000119,628191.700000003,620538.011,620743.900000006,620572.018,628036.019,4,500,,
trial,html.Screen,10_6_0,2023-11-14T18:42:12.623Z,,,,1,-0.0735635316240061,0.0537805418091709,,true,lh,7657.28100001195,response,-0.5883222787566708,0.4407809271743604,-0.4824999999999994,0.4592492456798208,0.4979145554642259,-0.4836821381806266,low,high,,ISIC_1761799.JPG,8,ISIC_0072412.JPG,238,false,lh,keypress(e),0,false,635693.6000000089,635693.3000000119,628019.266,628192.5,628036.019,635517.081,4,500,7,
break,html.Screen,10_6_1,2023-11-14T18:42:12.625Z,,,,,,,,,,NaN,,,,,,,,low,high,,,,,,false,,,,false,635694.8000000119,635694.6000000089,,635694,,635517.081,4,500,,
break_continue,html.Screen,10_6_2,2023-11-14T18:42:12.625Z,,,,,,,,,,NaN,,,,,,,,low,high,,,,,,false,,,,false,635695.5,635695.200000003,,635695,,635517.081,4,500,,
sequence,flow.Sequence,10_6,2023-11-14T18:42:12.626Z,,,,,,,,,,7659.181000003009,completion,,,,,,,low,high,,,,,,false,,,,false,635695.8000000119,635695.200000003,628019.266,628192.5,628036.019,635517.081,4,500,,
trial,html.Screen,10_7_0,2023-11-14T18:42:19.256Z,,,,1,-0.0102460616775615,0.0309670599545429,,false,hh,6809.119000002975,response,0.5330548358724723,0.4407809271743604,-0.4824999999999994,0.6153699602053757,0.4979145554642259,-0.4836821381806266,high,high,,ISIC_0072041.JPG,9,ISIC_0011126.JPG,419,false,hl,keypress(j),0,false,642326.5,642326.200000003,635500.502,635696,635517.081,642146.677,4,500,8,
break,html.Screen,10_7_1,2023-11-14T18:42:19.258Z,,,,,,,,,,NaN,,,,,,,,high,high,,,,,,false,,,,false,642327.8000000119,642327.400000006,,642326.900000006,,642146.677,4,500,,
break_continue,html.Screen,10_7_2,2023-11-14T18:42:19.258Z,,,,,,,,,,NaN,,,,,,,,high,high,,,,,,false,,,,false,642328.6000000089,642328.3000000119,,642328,,642146.677,4,500,,
sequence,flow.Sequence,10_7,2023-11-14T18:42:19.259Z,,,,,,,,,,6811.219000011915,completion,,,,,,,high,high,,,,,,false,,,,false,642329,642328.3000000119,635500.502,635696,635517.081,642146.677,4,500,,
trial,html.Screen,10_8_0,2023-11-14T18:42:26.768Z,,,,1,0.0069555338059566,-0.0310100918136373,,false,hh,7690.723000005935,response,0.5084416492281651,0.4407809271743604,-0.4824999999999994,0.5873960005341371,0.4979145554642259,-0.4836821381806266,high,high,,ISIC_0011177.JPG,9,ISIC_0066588.JPG,419,false,ll,keypress(f),0,false,649837.700000003,649837.400000006,642130.072,642329.3000000119,642146.677,649661.265,4,500,9,
break,html.Screen,10_8_1,2023-11-14T18:42:26.769Z,,,,,,,,,,NaN,,,,,,,,high,high,,,,,,false,,,,false,649839.1000000089,649838.6000000089,,649838.1000000089,,649661.265,4,500,,
break_continue,html.Screen,10_8_2,2023-11-14T18:42:26.770Z,,,,,,,,,,NaN,,,,,,,,high,high,,,,,,false,,,,false,649839.900000006,649839.5,,649839.3000000119,,649661.265,4,500,,
sequence,flow.Sequence,10_8,2023-11-14T18:42:26.770Z,,,,,,,,,,7692.822999999975,completion,,,,,,,high,high,,,,,,false,,,,false,649840.1000000089,649839.5,642130.072,642329.3000000119,642146.677,649661.265,4,500,,
trial,html.Screen,10_9_0,2023-11-14T18:42:33.496Z,,,,1,-0.013431314305098,0.0140597582944232,,true,ll,6904.6350000059465,response,-0.6056203982402083,0.4407809271743604,-0.4824999999999994,-0.480063408638294,0.4979145554642259,-0.4836821381806266,low,low,,ISIC_0069617.JPG,9,ISIC_8786606.JPG,494,false,ll,keypress(f),0,false,656566.200000003,656565.900000006,649644.665,649840.3000000119,649661.265,656390.966,4,500,10,
break,html.Screen,10_9_1,2023-11-14T18:42:33.497Z,,,,,,,,,,NaN,,,,,,,,low,low,,,,,,false,,,,false,656567.6000000089,656567.200000003,,656566.700000003,,656390.966,4,500,,
break_continue,html.Screen,10_9_2,2023-11-14T18:42:33.498Z,,,,,,,,,,NaN,,,,,,,,low,low,,,,,,false,,,,false,656568.400000006,656568.1000000089,,656567.900000006,,656390.966,4,500,,
sequence,flow.Sequence,10_9,2023-11-14T18:42:33.498Z,,,,,,,,,,6906.835000008927,completion,,,,,,,low,low,,,,,,false,,,,false,656568.6000000089,656568.1000000089,649644.665,649840.3000000119,649661.265,656390.966,4,500,,
trial,html.Screen,10_10_0,2023-11-14T18:42:41.031Z,,,,1,0.0544808612748248,-0.0240487075377862,,true,ll,7709.134000008926,response,-0.3425749884913606,0.4407809271743604,-0.4824999999999994,-0.3051953392594435,0.4979145554642259,-0.4836821381806266,low,low,,ISIC_4606646.JPG,9,ISIC_0033228.JPG,494,false,ll,keypress(f),0,false,664100.200000003,664100.1000000089,656374.313,656568.900000006,656390.966,663922.491,4,500,11,
break,html.Screen,10_10_1,2023-11-14T18:42:41.031Z,,,,,,,,,,NaN,,,,,,,,low,low,,,,,,false,,,,false,664100.6000000089,664100.5,,664100.3000000119,,663922.491,4,500,,
break_continue,html.Screen,10_10_2,2023-11-14T18:42:41.031Z,,,,,,,,,,NaN,,,,,,,,low,low,,,,,,false,,,,false,664100.8000000119,664100.700000003,,664100.6000000089,,663922.491,4,500,,
sequence,flow.Sequence,10_10,2023-11-14T18:42:41.031Z,,,,,,,,,,7709.734000002965,completion,,,,,,,low,low,,,,,,false,,,,false,664100.8000000119,664100.700000003,656374.313,656568.900000006,656390.966,663922.491,4,500,,
trial,html.Screen,10_11_0,2023-11-14T18:42:45.633Z,,,,1,0.0660839342637046,-0.0657899819532072,,true,hh,4779.508999999962,response,0.5555427793241239,0.4407809271743604,-0.4824999999999994,0.4399745431063041,0.4979145554642259,-0.4836821381806266,high,high,,ISIC_0065477.JPG,10,ISIC_0189694.JPG,419,false,hh,keypress(i),0,false,668702.400000006,668702,663905.8,664100.900000006,663922.491,668531.441,4,500,12,
break,html.Screen,10_11_1,2023-11-14T18:42:45.634Z,,,,,,,,,,NaN,,,,,,,,high,high,,,,,,false,,,,false,668703.6000000089,668703.200000003,,668702.700000003,,668531.441,4,500,,
break_continue,html.Screen,10_11_2,2023-11-14T18:42:45.635Z,,,,,,,,,,NaN,,,,,,,,high,high,,,,,,false,,,,false,668704.3000000119,668704,,668703.8000000119,,668531.441,4,500,,
sequence,flow.Sequence,10_11,2023-11-14T18:42:45.635Z,,,,,,,,,,4781.508999999962,completion,,,,,,,high,high,,,,,,false,,,,false,668704.5,668704,663905.8,664100.900000006,663922.491,668531.441,4,500,,
trial,html.Screen,10_12_0,2023-11-14T18:42:53.055Z,,,,1,0.0651705891246238,-0.0394586219902573,,true,ll,7592.559000000008,response,-0.6515702643747434,0.4407809271743604,-0.4824999999999994,-0.5740156056030724,0.4979145554642259,-0.4836821381806266,low,low,,ISIC_0013491.JPG,9,ISIC_1253960.JPG,494,false,ll,keypress(f),0,false,676124.1000000089,676124,668514.771,668704.8000000119,668531.441,675945.783,4,500,13,
break,html.Screen,10_12_1,2023-11-14T18:42:53.055Z,,,,,,,,,,NaN,,,,,,,,low,low,,,,,,false,,,,false,676124.400000006,676124.400000006,,676124.200000003,,675945.783,4,500,,
break_continue,html.Screen,10_12_2,2023-11-14T18:42:53.055Z,,,,,,,,,,NaN,,,,,,,,low,low,,,,,,false,,,,false,676124.6000000089,676124.6000000089,,676124.5,,675945.783,4,500,,
sequence,flow.Sequence,10_12,2023-11-14T18:42:53.055Z,,,,,,,,,,7593.159000008949,completion,,,,,,,low,low,,,,,,false,,,,false,676124.700000003,676124.6000000089,668514.771,668704.8000000119,668531.441,675945.783,4,500,,
trial,html.Screen,10_13_0,2023-11-14T18:42:57.543Z,,,,1,0.0544808612748248,-0.0240487075377862,,true,ll,4666.617000005906,response,-0.4838439715840183,0.4407809271743604,-0.4824999999999994,-0.6542860575180124,0.4979145554642259,-0.4836821381806266,low,low,,ISIC_4606646.JPG,10,ISIC_7900295.JPG,494,false,ll,keypress(f),0,false,680612.6000000089,680612.400000006,675929.215,676124.8000000119,675945.783,680437.863,4,500,14,
break,html.Screen,10_13_1,2023-11-14T18:42:57.543Z,,,,,,,,,,NaN,,,,,,,,low,low,,,,,,false,,,,false,680613,680613,,680612.700000003,,680437.863,4,500,,
break_continue,html.Screen,10_13_2,2023-11-14T18:42:57.544Z,,,,,,,,,,NaN,,,,,,,,low,low,,,,,,false,,,,false,680613.3000000119,680613.200000003,,680613.1000000089,,680437.863,4,500,,
sequence,flow.Sequence,10_13,2023-11-14T18:42:57.544Z,,,,,,,,,,4667.417000002926,completion,,,,,,,low,low,,,,,,false,,,,false,680613.5,680613.200000003,675929.215,676124.700000003,675945.783,680437.863,4,500,,
trial,html.Screen,10_14_0,2023-11-14T18:43:03.096Z,,,,1,-0.0644357632656846,-0.0501167370292348,,true,ll,5727.636999999988,response,-0.6081508557669449,0.4407809271743604,-0.4824999999999994,-0.3856254834120778,0.4979145554642259,-0.4836821381806266,low,low,,ISIC_5207050.JPG,9,ISIC_0728350.JPG,494,false,ll,keypress(f),0,false,686165.8000000119,686165.5,680421.192,680613.6000000089,680437.863,685981.969,4,500,15,
break,html.Screen,10_14_1,2023-11-14T18:43:03.097Z,,,,,,,,,,NaN,,,,,,,,low,low,,,,,,false,,,,false,686167,686166.700000003,,686166.200000003,,685981.969,4,500,,
break_continue,html.Screen,10_14_2,2023-11-14T18:43:03.098Z,,,,,,,,,,NaN,,,,,,,,low,low,,,,,,false,,,,false,686167.700000003,686167.400000006,,686167.200000003,,685981.969,4,500,,
sequence,flow.Sequence,10_14,2023-11-14T18:43:03.099Z,,,,,,,,,,5729.537000005948,completion,,,,,,,low,low,,,,,,false,,,,false,686168.1000000089,686167.400000006,680421.192,680613.5,680437.863,685981.969,4,500,,
trial,html.Screen,10_15_0,2023-11-14T18:43:10.281Z,,,,1,0.0107854985447517,0.0478010417136109,,false,hl,7367.6310000089,response,0.2737994013456839,0.4407809271743604,-0.4824999999999994,-0.3355747465538226,0.4979145554642259,-0.4836821381806266,high,low,,ISIC_0010500.JPG,10,ISIC_8749288.JPG,310,false,lh,keypress(e),0,false,693350.1000000089,693349.6000000089,685965.372,686168.3000000119,685981.969,693195.926,4,500,16,
break,html.Screen,10_15_1,2023-11-14T18:43:10.282Z,,,,,,,,,,NaN,,,,,,,,high,low,,,,,,false,,,,false,693351.5,693351,,693350.5,,693195.926,4,500,,
break_continue,html.Screen,10_15_2,2023-11-14T18:43:10.283Z,,,,,,,,,,NaN,,,,,,,,high,low,,,,,,false,,,,false,693352.200000003,693352,,693351.6000000089,,693195.926,4,500,,
sequence,flow.Sequence,10_15,2023-11-14T18:43:10.283Z,,,,,,,,,,7370.030999999959,completion,,,,,,,high,low,,,,,,false,,,,false,693352.6000000089,693352,685965.372,686168.200000003,685981.969,693195.926,4,500,,
trial,html.Screen,10_16_0,2023-11-14T18:43:16.000Z,,,,1,-0.0533723079251252,-0.0299718727255261,,true,ll,5873.674000008963,response,-0.6618874259210736,0.4407809271743604,-0.4824999999999994,-0.6449528069058487,0.4979145554642259,-0.4836821381806266,low,low,,ISIC_6562871.JPG,9,ISIC_5807112.JPG,494,false,ll,keypress(f),0,false,699070,699069.6000000089,693179.519,693352.8000000119,693195.926,698890.343,4,500,17,
break,html.Screen,10_16_1,2023-11-14T18:43:16.001Z,,,,,,,,,,NaN,,,,,,,,low,low,,,,,,false,,,,false,699071,699070.8000000119,,699070.3000000119,,698890.343,4,500,,
break_continue,html.Screen,10_16_2,2023-11-14T18:43:16.002Z,,,,,,,,,,NaN,,,,,,,,low,low,,,,,,false,,,,false,699071.6000000089,699071.400000006,,699071.1000000089,,698890.343,4,500,,
sequence,flow.Sequence,10_16,2023-11-14T18:43:16.002Z,,,,,,,,,,5875.474000005983,completion,,,,,,,low,low,,,,,,false,,,,false,699071.900000006,699071.400000006,693179.519,693352.8000000119,693195.926,698890.343,4,500,,
trial,html.Screen,10_17_0,2023-11-14T18:43:23.281Z,,,,1,-0.0021038737988857,0.0570427519488725,,true,hl,7459.457000011927,response,0.3058318742283739,0.4407809271743604,-0.4824999999999994,-0.3368462957947262,0.4979145554642259,-0.4836821381806266,high,low,,ISIC_3596927.JPG,10,ISIC_5305288.JPG,310,false,hl,keypress(j),0,false,706350.200000003,706349.8000000119,698873.647,699072.1000000089,698890.343,706171.23,4,500,18,
break,html.Screen,10_17_1,2023-11-14T18:43:23.282Z,,,,,,,,,,NaN,,,,,,,,high,low,,,,,,false,,,,false,706351.400000006,706351,,706350.5,,706171.23,4,500,,
break_continue,html.Screen,10_17_2,2023-11-14T18:43:23.283Z,,,,,,,,,,NaN,,,,,,,,high,low,,,,,,false,,,,false,706352.1000000089,706351.900000006,,706351.6000000089,,706171.23,4,500,,
sequence,flow.Sequence,10_17,2023-11-14T18:43:23.283Z,,,,,,,,,,7461.557000005967,completion,,,,,,,high,low,,,,,,false,,,,false,706352.5,706351.900000006,698873.647,699072,698890.343,706171.23,4,500,,
trial,html.Screen,10_18_0,2023-11-14T18:43:30.232Z,,,,1,0.0336891949856763,0.060314732178219,,false,lh,7129.970000002999,response,-0.2902705737871529,0.4407809271743604,-0.4824999999999994,0.6247480605482788,0.4979145554642259,-0.4836821381806266,low,high,,ISIC_6192289.JPG,10,ISIC_5776158.JPG,238,false,hl,keypress(j),0,false,713301.6000000089,713301.200000003,706154.659,706352.700000003,706171.23,713118.06,4,500,19,
break,html.Screen,10_18_1,2023-11-14T18:43:30.233Z,,,,,,,,,,NaN,,,,,,,,low,high,,,,,,false,,,,false,713302.8000000119,713302.400000006,,713302,,713118.06,4,500,,
break_continue,html.Screen,10_18_2,2023-11-14T18:43:30.234Z,,,,,,,,,,NaN,,,,,,,,low,high,,,,,,false,,,,false,713303.5,713303.200000003,,713303,,713118.06,4,500,,
sequence,flow.Sequence,10_18,2023-11-14T18:43:30.234Z,,,,,,,,,,7131.970000002999,completion,,,,,,,low,high,,,,,,false,,,,false,713303.8000000119,713303.200000003,706154.659,706352.6000000089,706171.23,713118.06,4,500,,
trial,html.Screen,10_19_0,2023-11-14T18:43:35.137Z,,,,1,-0.0102460616775615,0.0309670599545429,,false,hl,5087.840000005905,response,0.363784354844004,0.4407809271743604,-0.4824999999999994,-0.3571176069492273,0.4979145554642259,-0.4836821381806266,high,low,,ISIC_0072041.JPG,8,ISIC_0000035.JPG,310,false,ll,keypress(f),0,false,718206.400000006,718205.900000006,713101.583,713304,713118.06,718027.634,4,500,20,
break,html.Screen,10_19_1,2023-11-14T18:43:35.138Z,,,,,,,,,,NaN,,,,,,,,high,low,,,,,,false,,,,false,718207.5,718207.3000000119,,718206.700000003,,718027.634,4,500,,
break_continue,html.Screen,10_19_2,2023-11-14T18:43:35.139Z,,,,,,,,,,NaN,,,,,,,,high,low,,,,,,false,,,,false,718208.3000000119,718208.1000000089,,718207.8000000119,,718027.634,4,500,,
sequence,flow.Sequence,10_19,2023-11-14T18:43:35.139Z,,,,,,,,,,5090.040000008885,completion,,,,,,,high,low,,,,,,false,,,,false,718208.6000000089,718208.1000000089,713101.583,713304,713118.06,718027.634,4,500,,
trial,html.Screen,10_20_0,2023-11-14T18:43:41.289Z,,,,1,-0.0531672914703651,0.0074883925434357,,false,hl,6329.666000011959,response,0.3554401104076091,0.4407809271743604,-0.4824999999999994,-0.3046846825948075,0.4979145554642259,-0.4836821381806266,high,low,,ISIC_4177043.JPG,10,ISIC_5942564.JPG,310,false,hh,keypress(i),0,false,724357.6000000089,724357.3000000119,718010.963,718208.8000000119,718027.634,724172.908,4,500,21,
break,html.Screen,10_20_1,2023-11-14T18:43:41.290Z,,,,,,,,,,NaN,,,,,,,,high,low,,,,,,false,,,,false,724358.700000003,724358.400000006,,724357.900000006,,724172.908,4,500,,
break_continue,html.Screen,10_20_2,2023-11-14T18:43:41.290Z,,,,,,,,,,NaN,,,,,,,,high,low,,,,,,false,,,,false,724359.3000000119,724359.1000000089,,724358.900000006,,724172.908,4,500,,
sequence,flow.Sequence,10_20,2023-11-14T18:43:41.291Z,,,,,,,,,,6331.466000008979,completion,,,,,,,high,low,,,,,,false,,,,false,724359.700000003,724359.1000000089,718010.963,718208.8000000119,718027.634,724172.908,4,500,,
trial,html.Screen,10_21_0,2023-11-14T18:43:47.785Z,,,,1,0.0336891949856763,0.060314732178219,,false,ll,6680.792000002926,response,-0.3927013357633684,0.4407809271743604,-0.4824999999999994,-0.3491320068664372,0.4979145554642259,-0.4836821381806266,low,low,,ISIC_6192289.JPG,9,ISIC_1083681.JPG,494,false,hh,keypress(i),0,false,730854.1000000089,730853.700000003,724156.201,724359.900000006,724172.908,730668.983,4,500,22,
break,html.Screen,10_21_1,2023-11-14T18:43:47.786Z,,,,,,,,,,NaN,,,,,,,,low,low,,,,,,false,,,,false,730855.200000003,730854.900000006,,730854.400000006,,730668.983,4,500,,
break_continue,html.Screen,10_21_2,2023-11-14T18:43:47.787Z,,,,,,,,,,NaN,,,,,,,,low,low,,,,,,false,,,,false,730856,730855.700000003,,730855.5,,730668.983,4,500,,
sequence,flow.Sequence,10_21,2023-11-14T18:43:47.787Z,,,,,,,,,,6682.792000002926,completion,,,,,,,low,low,,,,,,false,,,,false,730856.200000003,730855.700000003,724156.201,724359.8000000119,724172.908,730668.983,4,500,,
trial,html.Screen,10_22_0,2023-11-14T18:43:53.161Z,,,,1,-0.0292059717970335,-0.0718256867525069,,false,ll,5560.3170000119135,response,-0.5297479251926471,0.4407809271743604,-0.4824999999999994,-0.5661066801359119,0.4979145554642259,-0.4836821381806266,low,low,,ISIC_1114966.JPG,9,ISIC_6717452.JPG,494,false,hh,keypress(i),0,false,736229.6000000089,736229.3000000119,730652.439,730856.5,730668.983,736046.025,4,500,23,
break,html.Screen,10_22_1,2023-11-14T18:43:53.162Z,,,,,,,,,,NaN,,,,,,,,low,low,,,,,,false,,,,false,736230.900000006,736230.5,,736230.1000000089,,736046.025,4,500,,
break_continue,html.Screen,10_22_2,2023-11-14T18:43:53.163Z,,,,,,,,,,NaN,,,,,,,,low,low,,,,,,false,,,,false,736231.6000000089,736231.400000006,,736231.1000000089,,736046.025,4,500,,
sequence,flow.Sequence,10_22,2023-11-14T18:43:53.163Z,,,,,,,,,,5562.417000005953,completion,,,,,,,low,low,,,,,,false,,,,false,736231.8000000119,736231.400000006,730652.439,730856.400000006,730668.983,736046.025,4,500,,
trial,html.Screen,10_23_0,2023-11-14T18:43:59.817Z,,,,1,-0.0277178575053843,0.0395587463147856,,false,ll,6839.775000011898,response,-0.4875928598877057,0.4407809271743604,-0.4824999999999994,-0.4093534243149874,0.4979145554642259,-0.4836821381806266,low,low,,ISIC_0010807.JPG,10,ISIC_7581199.JPG,494,false,hl,keypress(j),0,false,742886.1000000089,742885.8000000119,736029.511,736232.1000000089,736046.025,742709.065,4,500,24,
break,html.Screen,10_23_1,2023-11-14T18:43:59.818Z,,,,,,,,,,NaN,,,,,,,,low,low,,,,,,false,,,,false,742887.200000003,742887,,742886.5,,742709.065,4,500,,
break_continue,html.Screen,10_23_2,2023-11-14T18:43:59.819Z,,,,,,,,,,NaN,,,,,,,,low,low,,,,,,false,,,,false,742888.1000000089,742887.8000000119,,742887.6000000089,,742709.065,4,500,,
sequence,flow.Sequence,10_23,2023-11-14T18:43:59.819Z,,,,,,,,,,6841.775000011898,completion,,,,,,,low,low,,,,,,false,,,,false,742888.400000006,742887.8000000119,736029.511,736232,736046.025,742709.065,4,500,,
trial,html.Screen,10_24_0,2023-11-14T18:44:05.145Z,,,,1,0.0608867680161491,0.0206384042070211,,false,hh,5504.635000003036,response,0.2979506764613467,0.4407809271743604,-0.4824999999999994,0.3960799813165453,0.4979145554642259,-0.4836821381806266,high,high,,ISIC_0640806.JPG,9,ISIC_0033007.JPG,419,false,ll,keypress(f),0,false,748213.900000006,748213.700000003,742692.336,742888.6000000089,742709.065,748036.051,4,500,25,
break,html.Screen,10_24_1,2023-11-14T18:44:05.146Z,,,,,,,,,,NaN,,,,,,,,high,high,,,,,,false,,,,false,748215.1000000089,748214.900000006,,748214.3000000119,,748036.051,4,500,,
break_continue,html.Screen,10_24_2,2023-11-14T18:44:05.147Z,,,,,,,,,,NaN,,,,,,,,high,high,,,,,,false,,,,false,748215.900000006,748215.6000000089,,748215.400000006,,748036.051,4,500,,
sequence,flow.Sequence,10_24,2023-11-14T18:44:05.147Z,,,,,,,,,,5506.535000008997,completion,,,,,,,high,high,,,,,,false,,,,false,748216.1000000089,748215.6000000089,742692.336,742888.5,742709.065,748036.051,4,500,,
trial,html.Screen,10_25_0,2023-11-14T18:44:10.817Z,,,,1,-0.0691769743257167,0.0638501824668941,,false,hl,5849.849000005983,response,0.5983482959094698,0.4407809271743604,-0.4824999999999994,-0.3871685589473045,0.4979145554642259,-0.4836821381806266,high,low,,ISIC_0031914.JPG,8,ISIC_0013634.JPG,310,false,hh,keypress(i),0,false,753886.3000000119,753885.900000006,748019.534,748216.400000006,748036.051,753713.948,4,500,26,
break,html.Screen,10_25_1,2023-11-14T18:44:10.818Z,,,,,,,,,,NaN,,,,,,,,high,low,,,,,,false,,,,false,753887.3000000119,753887.1000000089,,753886.6000000089,,753713.948,4,500,,
break_continue,html.Screen,10_25_2,2023-11-14T18:44:10.819Z,,,,,,,,,,NaN,,,,,,,,high,low,,,,,,false,,,,false,753888.1000000089,753887.8000000119,,753887.5,,753713.948,4,500,,
sequence,flow.Sequence,10_25,2023-11-14T18:44:10.819Z,,,,,,,,,,5851.749000011943,completion,,,,,,,high,low,,,,,,false,,,,false,753888.3000000119,753887.8000000119,748019.534,748216.400000006,748036.051,753713.948,4,500,,
trial,html.Screen,10_26_0,2023-11-14T18:44:14.287Z,,,,1,-0.0245585387483123,0.053462758614929,,true,hh,3641.9520000059856,response,0.4562626213376215,0.4407809271743604,-0.4824999999999994,0.3906508855748012,0.4979145554642259,-0.4836821381806266,high,high,,ISIC_3389704.JPG,9,ISIC_0055450.JPG,419,false,hh,keypress(i),0,false,757355.900000006,757355.900000006,753697.266,753888.6000000089,753713.948,757170.479,4,500,27,
break,html.Screen,10_26_1,2023-11-14T18:44:14.287Z,,,,,,,,,,NaN,,,,,,,,high,high,,,,,,false,,,,false,757356.200000003,757356.200000003,,757356,,757170.479,4,500,,
break_continue,html.Screen,10_26_2,2023-11-14T18:44:14.287Z,,,,,,,,,,NaN,,,,,,,,high,high,,,,,,false,,,,false,757356.400000006,757356.400000006,,757356.200000003,,757170.479,4,500,,
sequence,flow.Sequence,10_26,2023-11-14T18:44:14.287Z,,,,,,,,,,3642.4520000059856,completion,,,,,,,high,high,,,,,,false,,,,false,757356.5,757356.400000006,753697.266,753888.5,753713.948,757170.479,4,500,,
trial,html.Screen,10_27_0,2023-11-14T18:44:21.719Z,,,,1,-0.0265457942157377,-0.0704357137706731,,false,hh,7617.821000011871,response,0.4360280671727652,0.4407809271743604,-0.4824999999999994,0.3387959583063719,0.4979145554642259,-0.4836821381806266,high,high,,ISIC_3123377.JPG,9,ISIC_0066143.JPG,419,false,ll,keypress(f),0,false,764788.400000006,764788.3000000119,757153.963,757356.5,757170.479,764601.588,4,500,28,
break,html.Screen,10_27_1,2023-11-14T18:44:21.720Z,,,,,,,,,,NaN,,,,,,,,high,high,,,,,,false,,,,false,764788.700000003,764788.700000003,,764788.6000000089,,764601.588,4,500,,
break_continue,html.Screen,10_27_2,2023-11-14T18:44:21.720Z,,,,,,,,,,NaN,,,,,,,,high,high,,,,,,false,,,,false,764789,764788.900000006,,764788.8000000119,,764601.588,4,500,,
sequence,flow.Sequence,10_27,2023-11-14T18:44:21.720Z,,,,,,,,,,7618.42100000591,completion,,,,,,,high,high,,,,,,false,,,,false,764789,764788.900000006,757153.963,757356.5,757170.479,764601.588,4,500,,
trial,html.Screen,10_28_0,2023-11-14T18:44:29.137Z,,,,1,-0.0367218428225813,-0.0700576547090477,,false,hh,7603.912000000011,response,0.5262882161794485,0.4407809271743604,-0.4824999999999994,0.5720055355085256,0.4979145554642259,-0.4836821381806266,high,high,,ISIC_7212271.JPG,9,ISIC_0032569.JPG,419,false,ll,keypress(f),0,false,772205.8000000119,772205.5,764585.085,764789,764601.588,772032.987,4,500,29,
break,html.Screen,10_28_1,2023-11-14T18:44:29.138Z,,,,,,,,,,NaN,,,,,,,,high,high,,,,,,false,,,,false,772207,772206.8000000119,,772206.200000003,,772032.987,4,500,,
break_continue,html.Screen,10_28_2,2023-11-14T18:44:29.139Z,,,,,,,,,,NaN,,,,,,,,high,high,,,,,,false,,,,false,772207.700000003,772207.5,,772207.200000003,,772032.987,4,500,,
sequence,flow.Sequence,10_28,2023-11-14T18:44:29.139Z,,,,,,,,,,7605.912000000011,completion,,,,,,,high,high,,,,,,false,,,,false,772208,772207.5,764585.085,764789,764601.588,772032.987,4,500,,
trial,html.Screen,10_29_0,2023-11-14T18:44:31.961Z,,,,1,-0.0735635316240061,0.0537805418091709,,false,hl,2996.613000008976,response,0.4259764539279427,0.4407809271743604,-0.4824999999999994,-0.3064774400861493,0.4979145554642259,-0.4836821381806266,high,low,,ISIC_1761799.JPG,9,ISIC_0013459.JPG,310,false,hh,keypress(i),0,false,775030,775029.6000000089,772016.216,772208.3000000119,772032.987,774855.117,4,500,30,
break,html.Screen,10_29_1,2023-11-14T18:44:31.962Z,,,,,,,,,,NaN,,,,,,,,high,low,,,,,,false,,,,false,775031.1000000089,775030.900000006,,775030.400000006,,774855.117,4,500,,
break_continue,html.Screen,10_29_2,2023-11-14T18:44:31.963Z,,,,,,,,,,NaN,,,,,,,,high,low,,,,,,false,,,,false,775031.8000000119,775031.6000000089,,775031.3000000119,,774855.117,4,500,,
sequence,flow.Sequence,10_29,2023-11-14T18:44:31.963Z,,,,,,,,,,2998.613000008976,completion,,,,,,,high,low,,,,,,false,,,,false,775032.1000000089,775031.6000000089,772016.216,772208.200000003,772032.987,774855.117,4,500,,
trial,html.Screen,10_30_0,2023-11-14T18:44:36.041Z,,,,1,-0.0265457942157377,-0.0704357137706731,,false,hl,4254.483000008971,response,0.3446209216559382,0.4407809271743604,-0.4824999999999994,-0.3094478522372247,0.4979145554642259,-0.4836821381806266,high,low,,ISIC_3123377.JPG,8,ISIC_0063190.JPG,310,false,ll,keypress(f),0,false,779109.900000006,779109.6000000089,774838.394,775032.3000000119,774855.117,778929.46,4,500,31,
break,html.Screen,10_30_1,2023-11-14T18:44:36.042Z,,,,,,,,,,NaN,,,,,,,,high,low,,,,,,false,,,,false,779111,779110.8000000119,,779110.3000000119,,778929.46,4,500,,
break_continue,html.Screen,10_30_2,2023-11-14T18:44:36.043Z,,,,,,,,,,NaN,,,,,,,,high,low,,,,,,false,,,,false,779111.8000000119,779111.5,,779111.3000000119,,778929.46,4,500,,
sequence,flow.Sequence,10_30,2023-11-14T18:44:36.043Z,,,,,,,,,,4256.383000000031,completion,,,,,,,high,low,,,,,,false,,,,false,779112.200000003,779111.5,774838.394,775032.3000000119,774855.117,778929.46,4,500,,
trial,html.Screen,10_31_0,2023-11-14T18:44:40.107Z,,,,1,,-0.0264544974620926,,false,ll,4245.540000000037,response,-0.5526614699687487,0.4407809271743604,-0.4824999999999994,-0.2912962663492287,0.4979145554642259,-0.4836821381806266,low,low,,ISIC_0056991.JPG,10,ISIC_0000429.JPG,494,false,hh,keypress(i),0,false,783175.6000000089,783175,778912.985,779112.400000006,778929.46,783004.25,4,500,32,
break,html.Screen,10_31_1,2023-11-14T18:44:40.109Z,,,,,,,,,,NaN,,,,,,,,low,low,,,,,,false,,,,false,783177.700000003,783177.6000000089,,783176.200000003,,783004.25,4,500,,
break_continue,html.Screen,10_31_2,2023-11-14T18:44:40.109Z,,,,,,,,,,NaN,,,,,,,,low,low,,,,,,false,,,,false,783178,783177.900000006,,783177.8000000119,,783004.25,4,500,,
sequence,flow.Sequence,10_31,2023-11-14T18:44:40.110Z,,,,,,,,,,4248.440000005998,completion,,,,,,,low,low,,,,,,false,,,,false,783178.200000003,783177.900000006,778912.985,779112.3000000119,778929.46,783004.25,4,500,,
trial,html.Screen,10_32_0,2023-11-14T18:44:47.969Z,,,,1,-0.0245376145053177,0.0436993426328401,,true,hh,8033.350000008941,response,0.413649905466243,0.4407809271743604,-0.4824999999999994,0.5957927373423784,0.4979145554642259,-0.4836821381806266,high,high,,ISIC_0056444.JPG,9,ISIC_8378321.JPG,419,false,hh,keypress(i),0,false,791037.8000000119,791037.6000000089,782987.661,783178.3000000119,783004.25,790852.787,4,500,33,
break,html.Screen,10_32_1,2023-11-14T18:44:47.970Z,,,,,,,,,,NaN,,,,,,,,high,high,,,,,,false,,,,false,791038.8000000119,791038.5,,791038.1000000089,,790852.787,4,500,,
break_continue,html.Screen,10_32_2,2023-11-14T18:44:47.971Z,,,,,,,,,,NaN,,,,,,,,high,high,,,,,,false,,,,false,791039.3000000119,791039.1000000089,,791038.900000006,,790852.787,4,500,,
sequence,flow.Sequence,10_32,2023-11-14T18:44:47.971Z,,,,,,,,,,8034.850000008941,completion,,,,,,,high,high,,,,,,false,,,,false,791039.6000000089,791039.1000000089,782987.661,783178.3000000119,783004.25,790852.787,4,500,,
trial,html.Screen,10_33_0,2023-11-14T18:44:54.377Z,,,,1,-0.0102460616775615,0.0309670599545429,,true,hl,6592.8130000089295,response,0.2681938719353095,0.4407809271743604,-0.4824999999999994,-0.3648445931308861,0.4979145554642259,-0.4836821381806266,high,low,,ISIC_0072041.JPG,10,ISIC_9336830.JPG,310,false,hl,keypress(j),0,false,797446,797445.6000000089,790836.237,791039.8000000119,790852.787,797265.172,4,500,34,
break,html.Screen,10_33_1,2023-11-14T18:44:54.379Z,,,,,,,,,,NaN,,,,,,,,high,low,,,,,,false,,,,false,797447.1000000089,797446.8000000119,,797446.3000000119,,797265.172,4,500,,
break_continue,html.Screen,10_33_2,2023-11-14T18:44:54.379Z,,,,,,,,,,NaN,,,,,,,,high,low,,,,,,false,,,,false,797447.900000006,797447.6000000089,,797447.3000000119,,797265.172,4,500,,
sequence,flow.Sequence,10_33,2023-11-14T18:44:54.380Z,,,,,,,,,,6594.8130000089295,completion,,,,,,,high,low,,,,,,false,,,,false,797448.1000000089,797447.6000000089,790836.237,791039.700000003,790852.787,797265.172,4,500,,
trial,html.Screen,10_34_0,2023-11-14T18:45:00.658Z,,,,1,-0.0691769743257167,0.0638501824668941,,false,hh,6460.6280000119,response,0.3710524401304914,0.4407809271743604,-0.4824999999999994,0.5133704345013145,0.4979145554642259,-0.4836821381806266,high,high,,ISIC_0031914.JPG,9,ISIC_0011729.JPG,419,false,ll,keypress(f),0,false,803726.200000003,803725.8000000119,797248.593,797448.3000000119,797265.172,803544.049,4,500,35,
break,html.Screen,10_34_1,2023-11-14T18:45:00.659Z,,,,,,,,,,NaN,,,,,,,,high,high,,,,,,false,,,,false,803727.400000006,803727,,803726.6000000089,,803544.049,4,500,,
break_continue,html.Screen,10_34_2,2023-11-14T18:45:00.660Z,,,,,,,,,,NaN,,,,,,,,high,high,,,,,,false,,,,false,803728.1000000089,803727.8000000119,,803727.6000000089,,803544.049,4,500,,
sequence,flow.Sequence,10_34,2023-11-14T18:45:00.660Z,,,,,,,,,,6462.6280000119,completion,,,,,,,high,high,,,,,,false,,,,false,803728.400000006,803727.8000000119,797248.593,797448.200000003,797265.172,803544.049,4,500,,
trial,html.Screen,10_35_0,2023-11-14T18:45:04.426Z,,,,1,0.0217698886732706,-0.0410870915161425,,false,lh,3949.651000002981,response,-0.6153441722800417,0.4407809271743604,-0.4824999999999994,0.3375601458192884,0.4979145554642259,-0.4836821381806266,low,high,,ISIC_0072173.JPG,9,ISIC_6618943.JPG,238,false,ll,keypress(f),0,false,807494,807493.700000003,803527.433,803728.6000000089,803544.049,807318.06,4,500,36,
break,html.Screen,10_35_1,2023-11-14T18:45:04.427Z,,,,,,,,,,NaN,,,,,,,,low,high,,,,,,false,,,,false,807495.1000000089,807494.900000006,,807494.3000000119,,807318.06,4,500,,
break_continue,html.Screen,10_35_2,2023-11-14T18:45:04.427Z,,,,,,,,,,NaN,,,,,,,,low,high,,,,,,false,,,,false,807495.900000006,807495.6000000089,,807495.3000000119,,807318.06,4,500,,
sequence,flow.Sequence,10_35,2023-11-14T18:45:04.428Z,,,,,,,,,,3951.5510000089416,completion,,,,,,,low,high,,,,,,false,,,,false,807496.200000003,807495.6000000089,803527.433,803728.5,803544.049,807318.06,4,500,,
trial,html.Screen,10_36_0,2023-11-14T18:45:11.338Z,,,,1,-0.0409338693593207,0.0072462710499874,,false,hh,7088.140000002924,response,0.3005009313786018,0.4407809271743604,-0.4824999999999994,0.6731858385093572,0.4979145554642259,-0.4836821381806266,high,high,,ISIC_3608788.JPG,9,ISIC_0068924.JPG,419,false,ll,keypress(f),0,false,814406.5,814406.200000003,807301.663,807496.400000006,807318.06,814231.595,4,500,37,
break,html.Screen,10_36_1,2023-11-14T18:45:11.339Z,,,,,,,,,,NaN,,,,,,,,high,high,,,,,,false,,,,false,814407.6000000089,814407.3000000119,,814406.900000006,,814231.595,4,500,,
break_continue,html.Screen,10_36_2,2023-11-14T18:45:11.340Z,,,,,,,,,,NaN,,,,,,,,high,high,,,,,,false,,,,false,814408.3000000119,814408,,814407.8000000119,,814231.595,4,500,,
sequence,flow.Sequence,10_36,2023-11-14T18:45:11.340Z,,,,,,,,,,7089.939999999944,completion,,,,,,,high,high,,,,,,false,,,,false,814408.6000000089,814408,807301.663,807496.3000000119,807318.06,814231.595,4,500,,
trial,html.Screen,10_37_0,2023-11-14T18:45:15.457Z,,,,1,-0.0565575423757561,-0.0394300226801425,,true,hh,4294.005000008969,response,0.5708094131631266,0.4407809271743604,-0.4824999999999994,0.5270644399135141,0.4979145554642259,-0.4836821381806266,high,high,,ISIC_0046983.JPG,9,ISIC_0059808.JPG,419,false,hh,keypress(i),0,false,818525.900000006,818525.6000000089,814215.075,814408.8000000119,814231.595,818339.631,4,500,38,
break,html.Screen,10_37_1,2023-11-14T18:45:15.459Z,,,,,,,,,,NaN,,,,,,,,high,high,,,,,,false,,,,false,818527.1000000089,818526.700000003,,818526.200000003,,818339.631,4,500,,
break_continue,html.Screen,10_37_2,2023-11-14T18:45:15.459Z,,,,,,,,,,NaN,,,,,,,,high,high,,,,,,false,,,,false,818527.8000000119,818527.6000000089,,818527.3000000119,,818339.631,4,500,,
sequence,flow.Sequence,10_37,2023-11-14T18:45:15.460Z,,,,,,,,,,4296.005000008969,completion,,,,,,,high,high,,,,,,false,,,,false,818528.1000000089,818527.6000000089,814215.075,814408.700000003,814231.595,818339.631,4,500,,
trial,html.Screen,10_38_0,2023-11-14T18:45:21.058Z,,,,1,0.0544808612748248,-0.0240487075377862,,false,ll,5786.269000005908,response,-0.3599729284970033,0.4407809271743604,-0.4824999999999994,-0.503742344284165,0.4979145554642259,-0.4836821381806266,low,low,,ISIC_4606646.JPG,10,ISIC_0002057.JPG,494,false,lh,keypress(e),0,false,824126.200000003,824125.900000006,818323.075,818528.3000000119,818339.631,823950.607,4,500,39,
break,html.Screen,10_38_1,2023-11-14T18:45:21.059Z,,,,,,,,,,NaN,,,,,,,,low,low,,,,,,false,,,,false,824127.400000006,824127.200000003,,824126.6000000089,,823950.607,4,500,,
break_continue,html.Screen,10_38_2,2023-11-14T18:45:21.060Z,,,,,,,,,,NaN,,,,,,,,low,low,,,,,,false,,,,false,824128.1000000089,824127.900000006,,824127.6000000089,,823950.607,4,500,,
sequence,flow.Sequence,10_38,2023-11-14T18:45:21.060Z,,,,,,,,,,5788.269000005908,completion,,,,,,,low,low,,,,,,false,,,,false,824128.400000006,824127.900000006,818323.075,818528.200000003,818339.631,823950.607,4,500,,
trial,html.Screen,10_39_0,2023-11-14T18:45:26.650Z,,,,1,-0.0149482827359613,0.0661630859332833,,true,ll,5767.2930000060005,response,-0.3629313468733967,0.4407809271743604,-0.4824999999999994,-0.6083784849954047,0.4979145554642259,-0.4836821381806266,low,low,,ISIC_6815524.JPG,8,ISIC_1020968.JPG,494,false,ll,keypress(f),0,false,829718.3000000119,829717.900000006,823933.869,824128.700000003,823950.607,829544.907,4,500,40,
break,html.Screen,10_39_1,2023-11-14T18:45:26.651Z,,,,,,,,,,NaN,,,,,,,,low,low,,,,,,false,,,,false,829719.400000006,829719.200000003,,829718.6000000089,,829544.907,4,500,,
break_continue,html.Screen,10_39_2,2023-11-14T18:45:26.652Z,,,,,,,,,,NaN,,,,,,,,low,low,,,,,,false,,,,false,829720.1000000089,829719.900000006,,829719.6000000089,,829544.907,4,500,,
sequence,flow.Sequence,10_39,2023-11-14T18:45:26.652Z,,,,,,,,,,5769.2930000060005,completion,,,,,,,low,low,,,,,,false,,,,false,829720.3000000119,829719.900000006,823933.869,824128.6000000089,823950.607,829544.907,4,500,,
trial,html.Screen,10_40_0,2023-11-14T18:45:36.008Z,,,,1,0.0544808612748248,-0.0240487075377862,,true,lh,9531.293000002974,response,-0.341889178640843,0.4407809271743604,-0.4824999999999994,0.6497895748769965,0.4979145554642259,-0.4836821381806266,low,high,,ISIC_4606646.JPG,9,ISIC_0033089.JPG,238,false,lh,keypress(e),0,false,839076.3000000119,839076.200000003,829528.146,829720.6000000089,829544.907,838896.196,4,500,41,
break,html.Screen,10_40_1,2023-11-14T18:45:36.008Z,,,,,,,,,,NaN,,,,,,,,low,high,,,,,,false,,,,false,839076.8000000119,839076.6000000089,,839076.400000006,,838896.196,4,500,,
break_continue,html.Screen,10_40_2,2023-11-14T18:45:36.008Z,,,,,,,,,,NaN,,,,,,,,low,high,,,,,,false,,,,false,839077,839077,,839076.900000006,,838896.196,4,500,,
sequence,flow.Sequence,10_40,2023-11-14T18:45:36.009Z,,,,,,,,,,9532.092999999993,completion,,,,,,,low,high,,,,,,false,,,,false,839077.1000000089,839077,829528.146,829720.6000000089,829544.907,838896.196,4,500,,
trial,html.Screen,10_41_0,2023-11-14T18:45:46.877Z,,,,1,-0.0362376068089956,-0.047825070846155,,,,10871.233000000007,timeout,-0.2850832430102822,0.4407809271743604,-0.4824999999999994,-0.5246761567077265,0.4979145554642259,-0.4836821381806266,low,low,,ISIC_6985114.JPG,11,ISIC_6882080.JPG,494,false,,,0,false,849944.900000006,849944.5,838879.759,839077.200000003,838896.196,849767.429,4,500,42,
break,html.Screen,10_41_1,2023-11-14T18:45:46.878Z,,,,,,,,,,NaN,,,,,,,,low,low,,,,,,false,,,,false,849946,849945.700000003,,849945.3000000119,,849767.429,4,500,,
break_continue,html.Screen,10_41_2,2023-11-14T18:45:46.879Z,,,,,,,,,,NaN,,,,,,,,low,low,,,,,,false,,,,false,849946.700000003,849946.400000006,,849946.3000000119,,849767.429,4,500,,
sequence,flow.Sequence,10_41,2023-11-14T18:45:46.879Z,,,,,,,,,,11050.204000005964,completion,,,,,,,low,low,,,,,,false,,,,false,849947,849946.400000006,838879.759,839077.1000000089,838896.196,849767.429,4,500,,
trial,html.Screen,10_42_0,2023-11-14T18:45:52.626Z,,,,1,0.039728379742806,-0.0228701131373768,,true,ll,5926.671000008937,response,-0.4868738824128796,0.4407809271743604,-0.4824999999999994,-0.3362099690377328,0.4979145554642259,-0.4836821381806266,low,low,,ISIC_0054073.JPG,10,ISIC_0013691.JPG,494,false,ll,keypress(f),0,false,855694.400000006,855694.1000000089,849750.942,849947.3000000119,849767.429,855511.883,4,500,43,
break,html.Screen,10_42_1,2023-11-14T18:45:52.628Z,,,,,,,,,,NaN,,,,,,,,low,low,,,,,,false,,,,false,855695.6000000089,855695.3000000119,,855694.900000006,,855511.883,4,500,,
break_continue,html.Screen,10_42_2,2023-11-14T18:45:52.628Z,,,,,,,,,,NaN,,,,,,,,low,low,,,,,,false,,,,false,855696.400000006,855696.1000000089,,855695.8000000119,,855511.883,4,500,,
sequence,flow.Sequence,10_42,2023-11-14T18:45:52.629Z,,,,,,,,,,5928.671000008937,completion,,,,,,,low,low,,,,,,false,,,,false,855696.6000000089,855696.1000000089,849750.942,849947.1000000089,849767.429,855511.883,4,500,,
trial,html.Screen,10_43_0,2023-11-14T18:45:58.025Z,,,,1,-0.0737104822171846,0.0725320314728604,,false,lh,5580.616999999969,response,-0.464354958337327,0.4407809271743604,-0.4824999999999994,0.3402901919359773,0.4979145554642259,-0.4836821381806266,low,high,,ISIC_0002862.JPG,9,ISIC_0003324.JPG,238,false,hh,keypress(i),0,false,861092.700000003,861092.5,855495.419,855696.900000006,855511.883,860922.803,4,500,44,
break,html.Screen,10_43_1,2023-11-14T18:45:58.025Z,,,,,,,,,,NaN,,,,,,,,low,high,,,,,,false,,,,false,861093.1000000089,861093,,861092.8000000119,,860922.803,4,500,,
break_continue,html.Screen,10_43_2,2023-11-14T18:45:58.025Z,,,,,,,,,,NaN,,,,,,,,low,high,,,,,,false,,,,false,861093.400000006,861093.3000000119,,861093.200000003,,860922.803,4,500,,
sequence,flow.Sequence,10_43,2023-11-14T18:45:58.026Z,,,,,,,,,,5581.41700001189,completion,,,,,,,low,high,,,,,,false,,,,false,861093.5,861093.3000000119,855495.419,855696.700000003,855511.883,860922.803,4,500,,
trial,html.Screen,10_44_0,2023-11-14T18:46:02.818Z,,,,1,-0.013431314305098,0.0140597582944232,,true,ll,4963.197000000044,response,-0.6427500587932088,0.4407809271743604,-0.4824999999999994,-0.6828311937997597,0.4979145554642259,-0.4836821381806266,low,low,,ISIC_0069617.JPG,9,ISIC_6013764.JPG,494,false,ll,keypress(f),0,false,865886.3000000119,865886,860889.271,861093.5,860922.803,865715.357,4,500,45,
break,html.Screen,10_44_1,2023-11-14T18:46:02.819Z,,,,,,,,,,NaN,,,,,,,,low,low,,,,,,false,,,,false,865887.400000006,865887.200000003,,865886.700000003,,865715.357,4,500,,
break_continue,html.Screen,10_44_2,2023-11-14T18:46:02.820Z,,,,,,,,,,NaN,,,,,,,,low,low,,,,,,false,,,,false,865888.200000003,865887.900000006,,865887.700000003,,865715.357,4,500,,
sequence,flow.Sequence,10_44,2023-11-14T18:46:02.820Z,,,,,,,,,,4965.097000006004,completion,,,,,,,low,low,,,,,,false,,,,false,865888.400000006,865887.900000006,860889.271,861093.5,860922.803,865715.357,4,500,,
trial,html.Screen,10_45_0,2023-11-14T18:46:06.521Z,,,,1,0.0070725527271049,0.0049995141077508,,false,lh,3873.14300000004,response,-0.3154581373529916,0.4407809271743604,-0.4824999999999994,0.427374452701529,0.4979145554642259,-0.4836821381806266,low,high,,ISIC_6124481.JPG,9,ISIC_0054280.JPG,238,false,ll,keypress(f),0,false,869588.6000000089,869588.5,865698.544,865888.6000000089,865715.357,869405.605,4,500,46,
break,html.Screen,10_45_1,2023-11-14T18:46:06.521Z,,,,,,,,,,NaN,,,,,,,,low,high,,,,,,false,,,,false,869588.900000006,869588.900000006,,869588.700000003,,869405.605,4,500,,
break_continue,html.Screen,10_45_2,2023-11-14T18:46:06.521Z,,,,,,,,,,NaN,,,,,,,,low,high,,,,,,false,,,,false,869589.1000000089,869589,,869589,,869405.605,4,500,,
sequence,flow.Sequence,10_45,2023-11-14T18:46:06.521Z,,,,,,,,,,3873.64300000004,completion,,,,,,,low,high,,,,,,false,,,,false,869589.1000000089,869589,865698.544,865888.6000000089,865715.357,869405.605,4,500,,
trial,html.Screen,10_46_0,2023-11-14T18:46:11.178Z,,,,1,-0.0277178575053843,0.0395587463147856,,false,hl,4840.19500001194,response,0.505986241414332,0.4407809271743604,-0.4824999999999994,-0.3917908003865494,0.4979145554642259,-0.4836821381806266,high,low,,ISIC_0010807.JPG,9,ISIC_9022005.JPG,310,false,hh,keypress(i),0,false,874246.1000000089,874245.8000000119,869389.008,869589.1000000089,869405.605,874064.662,4,500,47,
break,html.Screen,10_46_1,2023-11-14T18:46:11.179Z,,,,,,,,,,NaN,,,,,,,,high,low,,,,,,false,,,,false,874247.3000000119,874247,,874246.5,,874064.662,4,500,,
break_continue,html.Screen,10_46_2,2023-11-14T18:46:11.180Z,,,,,,,,,,NaN,,,,,,,,high,low,,,,,,false,,,,false,874248,874247.8000000119,,874247.6000000089,,874064.662,4,500,,
sequence,flow.Sequence,10_46,2023-11-14T18:46:11.180Z,,,,,,,,,,4842.19500001194,completion,,,,,,,high,low,,,,,,false,,,,false,874248.3000000119,874247.8000000119,869389.008,869589.1000000089,869405.605,874064.662,4,500,,
trial,html.Screen,10_47_0,2023-11-14T18:46:16.163Z,,,,1,-0.0113873532168551,-0.0054999201556291,,false,lh,5165.4380000089295,response,-0.2938324900439256,0.4407809271743604,-0.4824999999999994,0.3206987548391617,0.4979145554642259,-0.4836821381806266,low,high,,ISIC_8812621.JPG,8,ISIC_0029389.JPG,238,false,hh,keypress(i),0,false,879230.5,879230.1000000089,874048.088,874248.6000000089,874064.662,879057.982,4,500,48,
break,html.Screen,10_47_1,2023-11-14T18:46:16.164Z,,,,,,,,,,NaN,,,,,,,,low,high,,,,,,false,,,,false,879231.5,879231.3000000119,,879230.8000000119,,879057.982,4,500,,
break_continue,html.Screen,10_47_2,2023-11-14T18:46:16.164Z,,,,,,,,,,NaN,,,,,,,,low,high,,,,,,false,,,,false,879232.200000003,879232,,879231.8000000119,,879057.982,4,500,,
sequence,flow.Sequence,10_47,2023-11-14T18:46:16.165Z,,,,,,,,,,5167.337999999989,completion,,,,,,,low,high,,,,,,false,,,,false,879232.5,879232,874048.088,874248.6000000089,874064.662,879057.982,4,500,,
trial,html.Screen,10_48_0,2023-11-14T18:46:20.923Z,,,,1,0.0027483411352856,0.0100996915276271,,false,lh,4932.21800000302,response,-0.6471017833578788,0.4407809271743604,-0.4824999999999994,0.3176261614816514,0.4979145554642259,-0.4836821381806266,low,high,,ISIC_7364041.JPG,9,ISIC_7342636.JPG,238,false,ll,keypress(f),0,false,883990.6000000089,883990.200000003,879041.235,879232.700000003,879057.982,883817.283,4,500,49,
break,html.Screen,10_48_1,2023-11-14T18:46:20.924Z,,,,,,,,,,NaN,,,,,,,,low,high,,,,,,false,,,,false,883992.1000000089,883991.700000003,,883991.1000000089,,883817.283,4,500,,
break_continue,html.Screen,10_48_2,2023-11-14T18:46:20.925Z,,,,,,,,,,NaN,,,,,,,,low,high,,,,,,false,,,,false,883992.900000006,883992.700000003,,883992.400000006,,883817.283,4,500,,
sequence,flow.Sequence,10_48,2023-11-14T18:46:20.925Z,,,,,,,,,,4934.71800000302,completion,,,,,,,low,high,,,,,,false,,,,false,883993.3000000119,883992.700000003,879041.235,879232.6000000089,879057.982,883817.283,4,500,,
trial,html.Screen,10_49_0,2023-11-14T18:46:25.216Z,,,,1,-0.0409338693593207,0.0072462710499874,,true,ll,4466.716999999946,response,-0.4208403112269333,0.4407809271743604,-0.4824999999999994,-0.2892667404614093,0.4979145554642259,-0.4836821381806266,low,low,,ISIC_3608788.JPG,9,ISIC_0057083.JPG,494,false,ll,keypress(f),0,false,888284,888284,883800.641,883993.700000003,883817.283,888108.691,4,500,50,
break,html.Screen,10_49_1,2023-11-14T18:46:25.216Z,,,,,,,,,,NaN,,,,,,,,low,low,,,,,,false,,,,false,888284.3000000119,888284.3000000119,,888284.1000000089,,888108.691,4,500,,
break_continue,html.Screen,10_49_2,2023-11-14T18:46:25.217Z,,,,,,,,,,NaN,,,,,,,,low,low,,,,,,false,,,,false,888284.5,888284.400000006,,888284.400000006,,888108.691,4,500,,
sequence,flow.Sequence,10_49,2023-11-14T18:46:25.217Z,,,,,,,,,,4467.117000005906,completion,,,,,,,low,low,,,,,,false,,,,false,888284.6000000089,888284.400000006,883800.641,883993.5,883817.283,888108.691,4,500,,
trial,html.Screen,10_50_0,2023-11-14T18:46:31.618Z,,,,1,-0.0134764727102299,-0.0033499036460912,,true,hh,6577.309000000008,response,0.2964979722729373,0.4407809271743604,-0.4824999999999994,0.345223679313918,0.4979145554642259,-0.4836821381806266,high,high,,ISIC_0009998.JPG,8,ISIC_0063081.JPG,419,false,hh,keypress(i),0,false,894686.3000000119,894686,888092.103,888284.700000003,888108.691,894504.45,4,500,51,
break,html.Screen,10_50_1,2023-11-14T18:46:31.620Z,,,,,,,,,,NaN,,,,,,,,high,high,,,,,,false,,,,false,894687.6000000089,894687.200000003,,894686.8000000119,,894504.45,4,500,,
