sender,sender_type,sender_id,timestamp,meta,,age,blockNo,c1,c2,condition,correct,correctResponse,duration,ended_on,f1,f1_high,f1_low,f2,f2_high,f2_low,feature_level1,feature_level2,gender,img_left,img_reveal,img_right,n_target_images,practice,response,response_action,selection_duration,staircase,time_commit,time_end,time_render,time_run,time_show,time_switch,total_blocks,total_trials,trialNo,url
informed_consent,html.Screen,0,2023-11-14T21:44:36.471Z,"{""labjs_version"":""20.2.4"",""labjs_build"":{""flavor"":""development"",""commit"":""f5b4a49f956347addd546a832a3327688c2c0fef""},""location"":""https://labjs.felixhenninger.com/api/labjs_preview/index.html"",""userAgent"":""Mozilla/5.0 (Windows NT 10.0; Win64; x64) AppleWebKit/537.36 (KHTML, like Gecko) Chrome/119.0.0.0 Safari/537.36"",""platform"":""Win32"",""language"":""en-US"",""locale"":""en-US"",""timeZone"":""America/Chicago"",""timezoneOffset"":360,""screen_width"":1920,""screen_height"":1080,""scroll_width"":945,""scroll_height"":918,""window_innerWidth"":945,""window_innerHeight"":966,""devicePixelRatio"":1}",,,,,,,,,85245.17099999926,response,,,,,,,,,,,,,,,consent,click button,,,85917.60000000149,85909.19999999925,647.384,631.5,664.029,85930.489,,,,{}
Demography form,html.Form,1,2023-11-14T21:44:42.760Z,,,18,,,,,,,6276.010999999999,form submission,,,,,,,,,female,,,,,,,,,,92206.60000000149,92206.5,85913.839,85917.80000000075,85930.489,92230.665,,,,
Welcome,html.Screen,2,2023-11-14T21:45:04.967Z,,,,,,,"[""asym"",""bor""]",,,22182.435000001497,response,,,,,,,,,,,,,,,continue,click button,,,114413.69999999925,114413.10000000149,92213.985,92206.80000000075,92230.665,114430.735,,,,
demo_instructions,html.Screen,3,2023-11-14T21:47:19.087Z,,,,,,,,,,134102.46499999927,response,,,,,,,,,,,,,,,continue,click button,,,248533.69999999925,248533.19999999925,114397.3,114413.80000000075,114430.735,248546.643,,,,
trial,html.Screen,4_0_0,2023-11-14T21:47:48.128Z,,,,0,0.991146183030456,-0.9949639823722534,,true,lh,29028.157000000734,response,-1.0026266089287914,1.0499999999999998,-1.0499999999999998,1.0913275913920335,1.0499999999999998,-1.0499999999999998,low,high,,ISIC_6342224.JPG,,ISIC_0033520.JPG,21,true,lh,keypress(e),100,false,277574.80000000075,277574.80000000075,248530.168,248533.8999999985,248546.643,277596.619,1,16,1,
sequence,flow.Sequence,4_0,2023-11-14T21:47:48.128Z,,,,,,,,,,29028.157000000734,completion,,,,,,,low,high,,,,,,true,,,,false,277575.1000000015,277574.80000000075,248530.168,248533.80000000075,248546.643,277596.619,1,16,,
trial,html.Screen,4_1_0,2023-11-14T21:49:20.262Z,,,,0,0.991146183030456,-0.9949639823722534,,true,lh,92109.98100000148,response,-0.9696118525781644,1.0499999999999998,-1.0499999999999998,0.9244148283103414,1.0499999999999998,-1.0499999999999998,low,high,,ISIC_6342224.JPG,,ISIC_7927525.JPG,21,true,lh,keypress(e),100,false,369707.69999999925,369706.6000000015,277579.955,277575.19999999925,277596.619,369729.711,1,16,2,
sequence,flow.Sequence,4_1,2023-11-14T21:49:20.263Z,,,,,,,,,,92109.98100000148,completion,,,,,,,low,high,,,,,,true,,,,false,369708.80000000075,369706.6000000015,277579.955,277575.19999999925,277596.619,369729.711,1,16,,
trial,html.Screen,4_2_0,2023-11-14T21:49:32.060Z,,,,0,0.8947611078712571,-0.8960964505004638,,true,lh,11775.88900000148,response,-1.1181734135756094,1.0499999999999998,-1.0499999999999998,0.944560381774994,1.0499999999999998,-1.0499999999999998,low,high,,ISIC_6441128.JPG,,ISIC_9688534.JPG,21,true,lh,keypress(e),100,false,381506.1000000015,381505.6000000015,369713.025,369709.1000000015,369729.711,381529.819,1,16,3,
sequence,flow.Sequence,4_2,2023-11-14T21:49:32.061Z,,,,,,,,,,11775.88900000148,completion,,,,,,,low,high,,,,,,true,,,,false,381506.69999999925,381505.6000000015,369713.025,369709,369729.711,381529.819,1,16,,
trial,html.Screen,4_3_0,2023-11-14T21:49:38.937Z,,,,0,1.0213365328004047,-1.088524359911891,,true,lh,6852.580999998492,response,-1.0751036484083878,1.0499999999999998,-1.0499999999999998,1.143906455483852,1.0499999999999998,-1.0499999999999998,low,high,,ISIC_5434229.JPG,,ISIC_0064406.JPG,21,true,lh,keypress(e),100,false,388382.80000000075,388382.3999999985,381513.052,381506.8999999985,381529.819,388413.051,1,16,4,
sequence,flow.Sequence,4_3,2023-11-14T21:49:38.938Z,,,,,,,,,,6852.580999998492,completion,,,,,,,low,high,,,,,,true,,,,false,388383.6000000015,388382.3999999985,381513.052,381506.8999999985,381529.819,388413.051,1,16,,
trial,html.Screen,4_4_0,2023-11-14T21:49:53.316Z,,,,0,1.2296334397777855,1.022420086815287,,true,ll,14348.449000000022,response,-0.9684792294535484,1.0499999999999998,-1.0499999999999998,-0.9741930282015964,1.0499999999999998,-1.0499999999999998,low,low,,ISIC_0073173.JPG,,ISIC_3372750.JPG,111,true,ll,keypress(f),100,false,402761.8999999985,402761.5,388396.508,388384,388413.051,402779.641,1,16,5,
sequence,flow.Sequence,4_4,2023-11-14T21:49:53.317Z,,,,,,,,,,14348.449000000022,completion,,,,,,,low,low,,,,,,true,,,,false,402762.6000000015,402761.5,388396.508,388383.8999999985,388413.051,402779.641,1,16,,
trial,html.Screen,4_5_0,2023-11-14T21:50:06.799Z,,,,0,1.0910404089869363,1.119702461098404,,true,ll,13464.758999998507,response,-1.030423594637164,1.0499999999999998,-1.0499999999999998,-0.9418036199165556,1.0499999999999998,-1.0499999999999998,low,low,,ISIC_0067097.JPG,,ISIC_0010299.JPG,111,true,ll,keypress(f),100,false,416244.8999999985,416244.3999999985,402763.026,402762.80000000075,402779.641,416262.936,1,16,6,
sequence,flow.Sequence,4_5,2023-11-14T21:50:06.800Z,,,,,,,,,,13464.758999998507,completion,,,,,,,low,low,,,,,,true,,,,false,416245.6000000015,416244.3999999985,402763.026,402762.80000000075,402779.641,416262.936,1,16,,
trial,html.Screen,4_6_0,2023-11-14T21:50:17.898Z,,,,0,0.958609763811768,1.0650939066726144,,true,ll,11080.963999998523,response,-0.8985413691921805,1.0499999999999998,-1.0499999999999998,-1.1177351920180405,1.0499999999999998,-1.0499999999999998,low,low,,ISIC_0070163.JPG,,ISIC_2805573.JPG,111,true,ll,keypress(f),100,false,427344.3999999985,427343.8999999985,416246.323,416245.80000000075,416262.936,427362.923,1,16,7,
sequence,flow.Sequence,4_6,2023-11-14T21:50:17.899Z,,,,,,,,,,11080.963999998523,completion,,,,,,,low,low,,,,,,true,,,,false,427344.8999999985,427343.8999999985,416246.323,416245.80000000075,416262.936,427362.923,1,16,,
trial,html.Screen,4_7_0,2023-11-14T21:50:25.766Z,,,,0,1.24994064298842,0.8554516937538746,,true,ll,7848.4769999985,response,-0.8856899178393457,1.0499999999999998,-1.0499999999999998,-1.1903131706835868,1.0499999999999998,-1.0499999999999998,low,low,,ISIC_0061829.JPG,,ISIC_1233104.JPG,111,true,ll,keypress(f),100,false,435211.69999999925,435211.3999999985,427346.241,427345.19999999925,427362.923,435229.504,1,16,8,
sequence,flow.Sequence,4_7,2023-11-14T21:50:25.766Z,,,,,,,,,,7848.4769999985,completion,,,,,,,low,low,,,,,,true,,,,false,435212.3999999985,435211.3999999985,427346.241,427345.1000000015,427362.923,435229.504,1,16,,
trial,html.Screen,4_8_0,2023-11-14T21:50:35.957Z,,,,0,-0.8979276789594874,0.925374811016654,,true,hl,10173.19599999924,response,1.0022829373011404,0.9499999999999997,-0.9499999999999997,-0.8311726972863814,0.9499999999999997,-0.9499999999999997,high,low,,ISIC_4208361.JPG,,ISIC_0033287.JPG,26,true,hl,keypress(j),100,false,445402.8999999985,445402.69999999925,435212.926,435212.6000000015,435229.504,445429.541,1,16,9,
sequence,flow.Sequence,4_8,2023-11-14T21:50:35.957Z,,,,,,,,,,10173.19599999924,completion,,,,,,,high,low,,,,,,true,,,,false,445403.1000000015,445402.69999999925,435212.926,435212.5,435229.504,445429.541,1,16,,
trial,html.Screen,4_9_0,2023-11-14T21:50:48.490Z,,,,0,-1.011737552725394,0.8500530224490773,,true,hl,12505.658999999228,response,0.7911024675435955,0.9499999999999997,-0.9499999999999997,-0.7975977016137676,0.9499999999999997,-0.9499999999999997,high,low,,ISIC_2998367.JPG,,ISIC_5813642.JPG,26,true,hl,keypress(j),100,false,457935.6000000015,457935.19999999925,445412.901,445403.19999999925,445429.541,457962.842,1,16,10,
sequence,flow.Sequence,4_9,2023-11-14T21:50:48.490Z,,,,,,,,,,12505.658999999228,completion,,,,,,,high,low,,,,,,true,,,,false,457936.1000000015,457935.19999999925,445412.901,445403.1000000015,445429.541,457962.842,1,16,,
trial,html.Screen,4_10_0,2023-11-14T21:50:53.172Z,,,,0,-1.0026266089287914,1.0913275913920335,,true,hl,4655.258000001486,response,0.7833710010171356,0.9499999999999997,-0.9499999999999997,-0.9315588090336896,0.9499999999999997,-0.9499999999999997,high,low,,ISIC_0033520.JPG,,ISIC_3826102.JPG,26,true,hl,keypress(j),100,false,462618.5,462618.1000000015,457946.179,457936.3999999985,457962.842,462646.072,1,16,11,
sequence,flow.Sequence,4_10,2023-11-14T21:50:53.173Z,,,,,,,,,,4655.258000001486,completion,,,,,,,high,low,,,,,,true,,,,false,462618.8999999985,462618.1000000015,457946.179,457936.30000000075,457962.842,462646.072,1,16,,
trial,html.Screen,4_11_0,2023-11-14T21:50:55.231Z,,,,0,-0.8534691366511764,1.03975580494588,,true,hl,2030.9280000000144,response,0.809764442462202,0.9499999999999997,-0.9499999999999997,-1.005337148078696,0.9499999999999997,-0.9499999999999997,high,low,,ISIC_0056788.JPG,,ISIC_2379379.JPG,26,true,hl,keypress(j),100,false,464677.19999999925,464677,462629.576,462619.19999999925,462646.072,464696.375,1,16,12,
sequence,flow.Sequence,4_11,2023-11-14T21:50:55.232Z,,,,,,,,,,2030.9280000000144,completion,,,,,,,high,low,,,,,,true,,,,false,464677.5,464677,462629.576,462619.1000000015,462646.072,464696.375,1,16,,
trial,html.Screen,4_12_0,2023-11-14T21:51:01.382Z,,,,0,-1.0987112847206,-0.8004269994538202,,true,hh,6130.824999999255,response,0.8760226494531969,0.9499999999999997,-0.9499999999999997,1.1346099537107004,0.9499999999999997,-0.9499999999999997,high,high,,ISIC_0027804.JPG,,ISIC_0053742.JPG,167,true,hh,keypress(i),100,false,470827.5,470827.19999999925,464679.45,464677.69999999925,464696.375,470846.279,1,16,13,
sequence,flow.Sequence,4_12,2023-11-14T21:51:01.382Z,,,,,,,,,,6130.824999999255,completion,,,,,,,high,high,,,,,,true,,,,false,470828.1000000015,470827.19999999925,464679.45,464677.6000000015,464696.375,470846.279,1,16,,
trial,html.Screen,4_13_0,2023-11-14T21:51:02.849Z,,,,0,-1.008381128411934,-1.0088020117106191,,true,hh,1448.1209999985294,response,0.9209488961172596,0.9499999999999997,-0.9499999999999997,0.9916011869447884,0.9499999999999997,-0.9499999999999997,high,high,,ISIC_6546903.JPG,,ISIC_3338629.JPG,167,true,hh,keypress(i),100,false,472294.80000000075,472294.3999999985,470829.504,470828.30000000075,470846.279,472313.014,1,16,14,
sequence,flow.Sequence,4_13,2023-11-14T21:51:02.849Z,,,,,,,,,,1448.1209999985294,completion,,,,,,,high,high,,,,,,true,,,,false,472295.19999999925,472294.3999999985,470829.504,470828.19999999925,470846.279,472313.014,1,16,,
trial,html.Screen,4_14_0,2023-11-14T21:51:04.391Z,,,,0,-0.7543493127539531,-0.9452304370934528,,true,hh,1524.1859999992303,response,0.9262674596267249,0.9499999999999997,-0.9499999999999997,1.0275767908572495,0.9499999999999997,-0.9499999999999997,high,high,,ISIC_0029017.JPG,,ISIC_5415749.JPG,167,true,hh,keypress(i),100,false,473837.3999999985,473837.19999999925,472296.155,472295.3999999985,472313.014,473862.813,1,16,15,
sequence,flow.Sequence,4_14,2023-11-14T21:51:04.392Z,,,,,,,,,,1524.1859999992303,completion,,,,,,,high,high,,,,,,true,,,,false,473837.8999999985,473837.19999999925,472296.155,472295.30000000075,472313.014,473862.813,1,16,,
trial,html.Screen,4_15_0,2023-11-14T21:51:07.295Z,,,,0,-0.9991910338212396,-0.9242629064104082,,true,hh,2877.6869999999763,response,1.021420495018506,0.9499999999999997,-0.9499999999999997,0.8195763659090913,0.9499999999999997,-0.9499999999999997,high,high,,ISIC_7795549.JPG,,ISIC_0011493.JPG,167,true,hh,keypress(i),100,false,476740.80000000075,476740.5,473846.304,473838.1000000015,473862.813,476762.737,1,16,16,
sequence,flow.Sequence,4_15,2023-11-14T21:51:07.295Z,,,,,,,,,,2877.6869999999763,completion,,,,,,,high,high,,,,,,true,,,,false,476741.30000000075,476740.5,473846.304,473838,473862.813,476762.737,1,16,,
demonstration_loop,flow.Loop,4,2023-11-14T21:51:07.296Z,,,,,,,,,,228193.857,completion,,,,,,,,,,,,,,true,,,,false,476741.6000000015,476740.5,248530.168,248533.80000000075,248546.643,476762.737,1,16,,
practice_instructions,html.Screen,5,2023-11-14T21:51:10.775Z,,,,,,,,,,3457.762999999977,response,,,,,,,,,,,,,,,continue,click button,,,480221,480220.5,476746.154,476741.69999999925,476762.737,480229.374,,,,
trial,html.Screen,6_0_0,2023-11-14T21:51:16.262Z,,,,1,0.9303292478996148,1.0396291493634244,,true,ll,5471.926000000734,response,-0.7877297643782052,0.9499999999999997,-0.9499999999999997,-1.0484741330672678,0.9499999999999997,-0.9499999999999997,low,low,,ISIC_0068580.JPG,,ISIC_6326803.JPG,142,true,ll,keypress(f),0,false,485708.19999999925,485701.30000000075,480212.883,480221.19999999925,480229.374,485712.672,1,20,1,
sequence,flow.Sequence,6_0,2023-11-14T21:51:16.262Z,,,,,,,,,,5471.926000000734,completion,,,,,,,low,low,,,,,,true,,,,false,485708.30000000075,485701.30000000075,480212.883,480221.19999999925,480229.374,485712.672,1,20,,
trial,html.Screen,6_1_0,2023-11-14T21:51:18.872Z,,,,1,-1.0565911491759823,-1.0221582682700174,,true,hh,2604.9280000014696,response,0.9249963751334934,0.9499999999999997,-0.9499999999999997,0.8954921660911329,0.9499999999999997,-0.9499999999999997,high,high,,ISIC_6604862.JPG,,ISIC_6404049.JPG,167,true,hh,keypress(i),0,false,488317.80000000075,488317.6000000015,485696.08,485708.3999999985,485712.672,488329.455,1,20,2,
sequence,flow.Sequence,6_1,2023-11-14T21:51:18.872Z,,,,,,,,,,2604.9280000014696,completion,,,,,,,high,high,,,,,,true,,,,false,488317.8999999985,488317.6000000015,485696.08,485708.3999999985,485712.672,488329.455,1,20,,
trial,html.Screen,6_2_0,2023-11-14T21:51:21.095Z,,,,1,1.0874543199036937,0.7993260716617142,,true,ll,2211.2449999992386,response,-0.8463538475082831,0.9499999999999997,-0.9499999999999997,-0.8806175558408877,0.9499999999999997,-0.9499999999999997,low,low,,ISIC_0053686.JPG,,ISIC_8916136.JPG,142,true,ll,keypress(f),0,false,490540.8999999985,490540.69999999925,488312.85,488318,488329.455,490545.968,1,20,3,
sequence,flow.Sequence,6_2,2023-11-14T21:51:21.095Z,,,,,,,,,,2211.2449999992386,completion,,,,,,,low,low,,,,,,true,,,,false,490541,490540.69999999925,488312.85,488318,488329.455,490545.968,1,20,,
trial,html.Screen,6_3_0,2023-11-14T21:51:23.425Z,,,,1,0.8816288864119318,-0.801867301188093,,true,lh,2324.9319999985164,response,-0.9579209317488,0.9499999999999997,-0.9499999999999997,1.0147487101263497,0.9499999999999997,-0.9499999999999997,low,high,,ISIC_9196783.JPG,,ISIC_8124482.JPG,28,true,lh,keypress(e),0,false,492871.19999999925,492870.8999999985,490529.332,490541,490545.968,492879.359,1,20,4,
sequence,flow.Sequence,6_3,2023-11-14T21:51:23.426Z,,,,,,,,,,2324.9319999985164,completion,,,,,,,low,high,,,,,,true,,,,false,492871.6000000015,492870.8999999985,490529.332,490541,490545.968,492879.359,1,20,,
trial,html.Screen,6_4_0,2023-11-14T21:51:25.770Z,,,,1,-0.7504722488504932,-1.117673118196769,,true,hh,2335.840999999258,response,0.829909234884455,0.9499999999999997,-0.9499999999999997,1.0304874376319082,0.9499999999999997,-0.9499999999999997,high,high,,ISIC_0028027.JPG,,ISIC_9211072.JPG,167,true,hh,keypress(i),0,false,495215.5,495215.19999999925,492862.612,492871.69999999925,492879.359,495229.407,1,20,5,
sequence,flow.Sequence,6_4,2023-11-14T21:51:25.770Z,,,,,,,,,,2335.840999999258,completion,,,,,,,high,high,,,,,,true,,,,false,495215.80000000075,495215.19999999925,492862.612,492871.69999999925,492879.359,495229.407,1,20,,
trial,html.Screen,6_5_0,2023-11-14T21:51:27.472Z,,,,1,0.8200962008791046,-0.7936051642828523,,true,lh,1688.6930000014836,response,-1.0865333402803938,0.9499999999999997,-0.9499999999999997,1.0542635307358266,0.9499999999999997,-0.9499999999999997,low,high,,ISIC_0027031.JPG,,ISIC_0034006.JPG,28,true,lh,keypress(e),0,false,496918.30000000075,496918.1000000015,495212.894,495216,495229.407,496929.383,1,20,6,
sequence,flow.Sequence,6_5,2023-11-14T21:51:27.473Z,,,,,,,,,,1688.6930000014836,completion,,,,,,,low,high,,,,,,true,,,,false,496918.3999999985,496918.1000000015,495212.894,495216,495229.407,496929.383,1,20,,
trial,html.Screen,6_6_0,2023-11-14T21:51:29.026Z,,,,1,1.0351900568634125,1.060448537312289,,true,ll,1541.8169999992824,response,-0.8552639039862626,0.9499999999999997,-0.9499999999999997,-1.0982314620989122,0.9499999999999997,-0.9499999999999997,low,low,,ISIC_4377208.JPG,,ISIC_0026278.JPG,142,true,ll,keypress(f),0,false,498471.5,498471.19999999925,496912.811,496918.3999999985,496929.383,498479.386,1,20,7,
sequence,flow.Sequence,6_6,2023-11-14T21:51:29.026Z,,,,,,,,,,1541.8169999992824,completion,,,,,,,low,low,,,,,,true,,,,false,498472,498471.19999999925,496912.811,496918.3999999985,496929.383,498479.386,1,20,,
trial,html.Screen,6_7_0,2023-11-14T21:51:30.842Z,,,,1,1.0115965332688306,-0.8282633603842442,,true,lh,1808.1140000000014,response,-1.0656673213158945,0.9499999999999997,-0.9499999999999997,0.8082541692781954,0.9499999999999997,-0.9499999999999997,low,high,,ISIC_1069587.JPG,,ISIC_0033985.JPG,28,true,lh,keypress(e),0,false,500287.80000000075,500287.5,498462.78,498472.19999999925,498479.386,500295.944,1,20,8,
sequence,flow.Sequence,6_7,2023-11-14T21:51:30.842Z,,,,,,,,,,1808.1140000000014,completion,,,,,,,low,high,,,,,,true,,,,false,500288.19999999925,500287.5,498462.78,498472.1000000015,498479.386,500295.944,1,20,,
trial,html.Screen,6_8_0,2023-11-14T21:51:32.922Z,,,,1,-0.9872117590837104,-0.8387342204487216,,true,hh,2071.6560000014724,response,0.7659443953145213,0.9499999999999997,-0.9499999999999997,0.8045475801082378,0.9499999999999997,-0.9499999999999997,high,high,,ISIC_4539674.JPG,,ISIC_0028929.JPG,167,true,hh,keypress(i),0,false,502367.8999999985,502367.6000000015,500279.399,500288.30000000075,500295.944,502379.473,1,20,9,
sequence,flow.Sequence,6_8,2023-11-14T21:51:32.923Z,,,,,,,,,,2071.6560000014724,completion,,,,,,,high,high,,,,,,true,,,,false,502368.3999999985,502367.6000000015,500279.399,500288.30000000075,500295.944,502379.473,1,20,,
trial,html.Screen,6_9_0,2023-11-14T21:51:34.361Z,,,,1,-0.9433720631499012,1.0582071940347648,,true,hl,1427.4269999985117,response,0.9873794329144926,0.9499999999999997,-0.9499999999999997,-0.7991077882008257,0.9499999999999997,-0.9499999999999997,high,low,,ISIC_4890201.JPG,,ISIC_0013498.JPG,26,true,hl,keypress(j),0,false,503807.19999999925,503806.8999999985,502362.733,502368.69999999925,502379.473,503812.724,1,20,10,
sequence,flow.Sequence,6_9,2023-11-14T21:51:34.362Z,,,,,,,,,,1427.4269999985117,completion,,,,,,,high,low,,,,,,true,,,,false,503807.6000000015,503806.8999999985,502362.733,502368.5,502379.473,503812.724,1,20,,
trial,html.Screen,6_10_0,2023-11-14T21:51:36.161Z,,,,1,-0.8579451262594331,0.9633172970727744,,true,hl,1793.7760000000126,response,1.0213365328004047,0.9499999999999997,-0.9499999999999997,-1.088524359911891,0.9499999999999997,-0.9499999999999997,high,low,,ISIC_0067172.JPG,,ISIC_5434229.JPG,26,true,hl,keypress(j),0,false,505606.80000000075,505606.5,503796.238,503807.80000000075,503812.724,505612.625,1,20,11,
sequence,flow.Sequence,6_10,2023-11-14T21:51:36.161Z,,,,,,,,,,1793.7760000000126,completion,,,,,,,high,low,,,,,,true,,,,false,505607.1000000015,505606.5,503796.238,503807.69999999925,503812.724,505612.625,1,20,,
trial,html.Screen,6_11_0,2023-11-14T21:51:37.730Z,,,,1,-0.9696118525781644,0.9244148283103414,,true,hl,1563.175000000745,response,0.8655167308525522,0.9499999999999997,-0.9499999999999997,-0.9298580423306444,0.9499999999999997,-0.9499999999999997,high,low,,ISIC_7927525.JPG,,ISIC_4603706.JPG,26,true,hl,keypress(j),0,false,507176,507175.80000000075,505596.207,505607.30000000075,505612.625,507179.355,1,20,12,
sequence,flow.Sequence,6_11,2023-11-14T21:51:37.730Z,,,,,,,,,,1563.175000000745,completion,,,,,,,high,low,,,,,,true,,,,false,507176.3999999985,507175.80000000075,505596.207,505607.19999999925,505612.625,507179.355,1,20,,
trial,html.Screen,6_12_0,2023-11-14T21:51:39.378Z,,,,1,0.8068224817535752,0.8996141262602615,,true,ll,1644.1450000000186,response,-1.0097932576366906,0.9499999999999997,-0.9499999999999997,-1.0644834610939486,0.9499999999999997,-0.9499999999999997,low,low,,ISIC_0059601.JPG,,ISIC_8559515.JPG,142,true,ll,keypress(f),0,false,508823.80000000075,508823.5,507162.852,507176.5,507179.355,508829.297,1,20,13,
sequence,flow.Sequence,6_12,2023-11-14T21:51:39.378Z,,,,,,,,,,1644.1450000000186,completion,,,,,,,low,low,,,,,,true,,,,false,508824.19999999925,508823.5,507162.852,507176.5,507179.355,508829.297,1,20,,
trial,html.Screen,6_13_0,2023-11-14T21:51:40.809Z,,,,1,-0.8003549678836777,-0.7922238790731763,,true,hh,1425.3030000014696,response,0.7846840640804751,0.9499999999999997,-0.9499999999999997,1.0912590313299513,0.9499999999999997,-0.9499999999999997,high,high,,ISIC_0028780.JPG,,ISIC_0026352.JPG,167,true,hh,keypress(i),0,false,510254.8999999985,510254.6000000015,508812.688,508824.3999999985,508829.297,510262.684,1,20,14,
sequence,flow.Sequence,6_13,2023-11-14T21:51:40.809Z,,,,,,,,,,1425.3030000014696,completion,,,,,,,high,high,,,,,,true,,,,false,510255.3999999985,510254.6000000015,508812.688,508824.30000000075,508829.297,510262.684,1,20,,
trial,html.Screen,6_14_0,2023-11-14T21:51:42.216Z,,,,1,-1.0656673213158945,0.8082541692781954,,true,hl,1398.6160000007367,response,0.8816288864119318,0.9499999999999997,-0.9499999999999997,-0.801867301188093,0.9499999999999997,-0.9499999999999997,high,low,,ISIC_0033985.JPG,,ISIC_9196783.JPG,26,true,hl,keypress(j),0,false,511661.3999999985,511661.30000000075,510245.903,510255.5,510262.684,511680.09,1,20,15,
sequence,flow.Sequence,6_14,2023-11-14T21:51:42.216Z,,,,,,,,,,1398.6160000007367,completion,,,,,,,high,low,,,,,,true,,,,false,511661.5,511661.30000000075,510245.903,510255.5,510262.684,511680.09,1,20,,
trial,html.Screen,6_15_0,2023-11-14T21:51:43.817Z,,,,1,-1.0751036484083878,1.143906455483852,,true,hl,1582.3099999984843,response,0.7809949855371787,0.9499999999999997,-0.9499999999999997,-0.8493861117004308,0.9499999999999997,-0.9499999999999997,high,low,,ISIC_0064406.JPG,,ISIC_7450481.JPG,26,true,hl,keypress(j),0,false,513262.6000000015,513262.3999999985,511645.937,511661.6000000015,511680.09,513279.407,1,20,16,
sequence,flow.Sequence,6_15,2023-11-14T21:51:43.817Z,,,,,,,,,,1582.3099999984843,completion,,,,,,,high,low,,,,,,true,,,,false,513262.69999999925,513262.3999999985,511645.937,511661.6000000015,511680.09,513279.407,1,20,,
trial,html.Screen,6_16_0,2023-11-14T21:51:45.274Z,,,,1,1.0213365328004047,-1.088524359911891,,true,lh,1439.8930000007385,response,-1.0026266089287914,0.9499999999999997,-0.9499999999999997,1.0913275913920335,0.9499999999999997,-0.9499999999999997,low,high,,ISIC_5434229.JPG,,ISIC_0033520.JPG,28,true,lh,keypress(e),0,false,514719.5,514719.30000000075,513262.788,513262.69999999925,513279.407,514729.347,1,20,17,
sequence,flow.Sequence,6_16,2023-11-14T21:51:45.274Z,,,,,,,,,,1439.8930000007385,completion,,,,,,,low,high,,,,,,true,,,,false,514719.8999999985,514719.30000000075,513262.788,513262.69999999925,513279.407,514729.347,1,20,,
trial,html.Screen,6_17_0,2023-11-14T21:51:46.639Z,,,,1,0.8125930874051923,1.10562749024409,,true,ll,1355.352999999246,response,-0.9125490178245472,0.9499999999999997,-0.9499999999999997,-0.8381837623442241,0.9499999999999997,-0.9499999999999997,low,low,,ISIC_0072748.JPG,,ISIC_4699989.JPG,142,true,ll,keypress(f),0,false,516084.80000000075,516084.69999999925,514712.851,514720.1000000015,514729.347,516095.949,1,20,18,
sequence,flow.Sequence,6_17,2023-11-14T21:51:46.639Z,,,,,,,,,,1355.352999999246,completion,,,,,,,low,low,,,,,,true,,,,false,516084.8999999985,516084.69999999925,514712.851,514720.1000000015,514729.347,516095.949,1,20,,
trial,html.Screen,6_18_0,2023-11-14T21:51:47.970Z,,,,1,0.8200962008791046,-0.7936051642828523,,true,lh,1319.8510000007227,response,-0.7836356408583546,0.9499999999999997,-0.9499999999999997,1.1197925594706428,0.9499999999999997,-0.9499999999999997,low,high,,ISIC_0027031.JPG,,ISIC_0024961.JPG,28,true,lh,keypress(e),0,false,517416,517415.80000000075,516079.517,516085,516095.949,517429.438,1,20,19,
sequence,flow.Sequence,6_18,2023-11-14T21:51:47.971Z,,,,,,,,,,1319.8510000007227,completion,,,,,,,low,high,,,,,,true,,,,false,517416.3999999985,517415.80000000075,516079.517,516085,516095.949,517429.438,1,20,,
trial,html.Screen,6_19_0,2023-11-14T21:51:49.273Z,,,,1,-0.8586909757509995,-1.0893508435831143,,true,hh,1289.3620000007213,response,1.0865311574527308,0.9499999999999997,-0.9499999999999997,0.8498834948129796,0.9499999999999997,-0.9499999999999997,high,high,,ISIC_0003111.JPG,,ISIC_0000296.JPG,167,true,hh,keypress(i),0,false,518719.1000000015,518718.80000000075,517412.777,517416.6000000015,517429.438,518729.325,1,20,20,
sequence,flow.Sequence,6_19,2023-11-14T21:51:49.274Z,,,,,,,,,,1289.3620000007213,completion,,,,,,,high,high,,,,,,true,,,,false,518719.5,518718.80000000075,517412.777,517416.5,517429.438,518729.325,1,20,,
practice_loop,flow.Loop,6,2023-11-14T21:51:49.274Z,,,,,,,,,,38489.426000000734,completion,,,,,,,,,,,,,,true,,,,false,518719.69999999925,518718.80000000075,480212.883,480221.1000000015,480229.374,518729.325,1,20,,
stair_instructions,html.Screen,7,2023-11-14T21:51:57.199Z,,,,,,,,,,7914.975000000733,response,,,,,,,,,,,,,,,continue,click button,,,526644.6999999993,526644.3000000007,518712.783,518719.80000000075,518729.325,526645.9,,,,
trial,html.Screen,8_0_0,2023-11-14T21:52:06.744Z,,,,2,0.0070725527271049,0.0049995141077508,,false,hl,9543.999999998487,response,0.8816288864119318,0.9499999999999997,-0.9499999999999997,-0.801867301188093,0.9499999999999997,-0.9499999999999997,high,low,,ISIC_6124481.JPG,,ISIC_9196783.JPG,26,false,hh,keypress(i),0,true,536190,536189.8999999985,526629.506,526644.8999999985,526645.9,536212.591,1,40,1,
sequence,flow.Sequence,8_0,2023-11-14T21:52:06.744Z,,,,,,,,,,9543.999999998487,completion,,,,,,,high,low,,,,,,false,,,,true,536190.1000000015,536189.8999999985,526629.506,526644.8999999985,526645.9,536212.591,1,40,,
trial,html.Screen,8_1_0,2023-11-14T21:52:17.751Z,,,,2,0.0509970506474296,0.0744820958440291,,,,11016.741000000038,timeout,-0.7745450008355167,0.9499999999999997,-0.8999999999999997,0.7385127154484312,0.8999999999999997,-0.9499999999999997,low,high,,ISIC_0009975.JPG,,ISIC_0015401.JPG,38,false,,,0,true,547197.1000000015,547196.8000000007,536196.072,536190.1999999993,536212.591,547229.332,1,40,2,
sequence,flow.Sequence,8_1,2023-11-14T21:52:17.752Z,,,,,,,,,,10984.20900000073,completion,,,,,,,low,high,,,,,,false,,,,true,547197.5,547196.8000000007,536196.072,536190.1999999993,536212.591,547229.332,1,40,,
trial,html.Screen,8_2_0,2023-11-14T21:52:19.050Z,,,,2,-0.0113873532168551,-0.0054999201556291,,true,hh,1266.268000001437,response,0.9053396132028096,0.9499999999999997,-0.8999999999999997,0.7935069588038893,0.8999999999999997,-0.9499999999999997,high,high,,ISIC_8812621.JPG,,ISIC_0010729.JPG,178,false,hh,keypress(i),0,true,548495.6999999993,548495.6000000015,547212.733,547197.8000000007,547229.332,548512.516,1,40,3,
sequence,flow.Sequence,8_2,2023-11-14T21:52:19.050Z,,,,,,,,,,1266.268000001437,completion,,,,,,,high,high,,,,,,false,,,,true,548495.8999999985,548495.6000000015,547212.733,547197.6999999993,547229.332,548512.516,1,40,,
trial,html.Screen,8_3_0,2023-11-14T21:52:23.602Z,,,,2,0.0194167651857046,0.0726253809408601,,true,hh,4534.883999998565,response,0.9303508808523768,0.7934842498073706,-0.8499999999999996,0.8525034055687026,0.8499999999999996,-0.8999999999999997,high,high,,ISIC_0056692.JPG,,ISIC_0029909.JPG,230,false,hh,keypress(i),0,true,553047.6000000015,553047.3999999985,548495.856,548495.8999999985,548512.516,553062.517,1,40,4,
sequence,flow.Sequence,8_3,2023-11-14T21:52:23.602Z,,,,,,,,,,4534.883999998565,completion,,,,,,,high,high,,,,,,false,,,,true,553048.1000000015,553047.3999999985,548495.856,548495.8999999985,548512.516,553062.517,1,40,,
trial,html.Screen,8_4_0,2023-11-14T21:52:30.434Z,,,,2,0.0336891949856763,0.060314732178219,,false,lh,6816.882999998517,response,-0.8809306963311293,0.7434842498073706,-0.7999999999999996,0.8614910030038974,0.723005182186296,-0.8499999999999996,low,high,,ISIC_6192289.JPG,,ISIC_0013731.JPG,75,false,ll,keypress(f),0,true,559879.6000000015,559879.3999999985,553045.947,553048.3000000007,553062.517,559895.87,1,40,5,
sequence,flow.Sequence,8_4,2023-11-14T21:52:30.434Z,,,,,,,,,,6816.882999998517,completion,,,,,,,low,high,,,,,,false,,,,true,559880,559879.3999999985,553045.947,553048.1999999993,553062.517,559895.87,1,40,,
trial,html.Screen,8_5_0,2023-11-14T21:52:38.785Z,,,,2,-0.0021038737988857,0.0570427519488725,,true,ll,8334.93000000075,response,-0.7549677203260853,0.6934842498073706,-0.7999999999999996,-0.7875043010367262,0.723005182186296,-0.7999999999999996,low,low,,ISIC_3596927.JPG,,ISIC_7097665.JPG,245,false,ll,keypress(f),0,true,568231.1000000015,568230.8000000007,559878.951,559880.1999999993,559895.87,568245.899,1,40,6,
sequence,flow.Sequence,8_5,2023-11-14T21:52:38.786Z,,,,,,,,,,8334.93000000075,completion,,,,,,,low,low,,,,,,false,,,,true,568231.5,568230.8000000007,559878.951,559880.1999999993,559895.87,568245.899,1,40,,
trial,html.Screen,8_6_0,2023-11-14T21:52:44.313Z,,,,2,-0.0348234368746005,0.0236866303880924,,true,ll,5512.701000001514,response,-0.6994073698329565,0.6434842498073705,-0.7179492083286072,-0.8075741539776473,0.6730051821862959,-0.7499999999999996,low,low,,ISIC_0011099.JPG,,ISIC_3428523.JPG,319,false,ll,keypress(f),0,true,573758.8000000007,573758.6000000015,568229.001,568231.6999999993,568245.899,573762.482,1,40,7,
sequence,flow.Sequence,8_6,2023-11-14T21:52:44.314Z,,,,,,,,,,5512.701000001514,completion,,,,,,,low,low,,,,,,false,,,,true,573759.1000000015,573758.6000000015,568229.001,568231.6000000015,568245.899,573762.482,1,40,,
trial,html.Screen,8_7_0,2023-11-14T21:52:50.129Z,,,,2,0.0027483411352856,0.0100996915276271,,false,hl,5811.91799999855,response,0.7207753048525456,0.5934842498073705,-0.6679492083286072,-0.6182607246421508,0.6230051821862959,-0.6975392275071867,high,low,,ISIC_7364041.JPG,,ISIC_0005681.JPG,136,false,ll,keypress(f),0,true,579574.6999999993,579574.3999999985,573745.785,573759.3000000007,573762.482,579579.151,1,40,8,
sequence,flow.Sequence,8_7,2023-11-14T21:52:50.129Z,,,,,,,,,,5811.91799999855,completion,,,,,,,high,low,,,,,,false,,,,true,579575,579574.3999999985,573745.785,573759.3000000007,573762.482,579579.151,1,40,,
trial,html.Screen,8_8_0,2023-11-14T21:52:57.528Z,,,,2,0.0329095507339554,-0.0382899749693245,,false,lh,7394.7489999985555,response,-0.5502347817346832,0.5934842498073705,-0.6179492083286071,0.4622648412655316,0.5730051821862958,-0.6975392275071867,low,high,,ISIC_8812781.JPG,,ISIC_2577938.JPG,166,false,hh,keypress(i),0,true,586974.1000000015,586973.8999999985,579562.492,579575.1999999993,579579.151,586979.139,1,40,9,
sequence,flow.Sequence,8_8,2023-11-14T21:52:57.529Z,,,,,,,,,,7394.7489999985555,completion,,,,,,,low,high,,,,,,false,,,,true,586974.5,586973.8999999985,579562.492,579575.1999999993,579579.151,586979.139,1,40,,
trial,html.Screen,8_9_0,2023-11-14T21:53:04.448Z,,,,2,0.0608867680161491,0.0206384042070211,,true,hl,6914.3610000000335,response,0.3521575915958389,0.5434842498073704,-0.6179492083286071,-0.6176742092063877,0.5730051821862958,-0.6475392275071866,high,low,,ISIC_0640806.JPG,,ISIC_9121369.JPG,174,false,hl,keypress(j),0,true,593893.6000000015,593893.5,586962.274,586974.6000000015,586979.139,593895.763,1,40,10,
sequence,flow.Sequence,8_9,2023-11-14T21:53:04.448Z,,,,,,,,,,6914.3610000000335,completion,,,,,,,high,low,,,,,,false,,,,true,593894,593893.5,586962.274,586974.6000000015,586979.139,593895.763,1,40,,
trial,html.Screen,8_10_0,2023-11-14T21:53:10.225Z,,,,2,0.007397293189458,0.0174716772037504,,false,lh,5774.6369999984745,response,-0.6861622325603302,0.49348424980737043,-0.5679492083286071,0.3514440089680511,0.5230051821862958,-0.5179674669242691,low,high,,ISIC_0056226.JPG,,ISIC_0259179.JPG,198,false,ll,keypress(f),0,true,599670.6999999993,599670.3999999985,593878.989,593894,593895.763,599679.072,1,40,11,
sequence,flow.Sequence,8_10,2023-11-14T21:53:10.225Z,,,,,,,,,,5774.6369999984745,completion,,,,,,,low,high,,,,,,false,,,,true,599671,599670.3999999985,593878.989,593894,593895.763,599679.072,1,40,,
trial,html.Screen,8_11_0,2023-11-14T21:53:19.978Z,,,,2,0.063045324701596,-0.0064789751878758,,true,hl,9744.327999998466,response,0.5696108638427752,0.49348424980737043,-0.5679492083286071,-0.4755504912882455,0.5230051821862958,-0.4679674669242691,high,low,,ISIC_5805349.JPG,,ISIC_0653633.JPG,288,false,hl,keypress(j),0,true,609423.6000000015,609423.3999999985,599662.297,599671.1999999993,599679.072,609429.043,1,40,12,
sequence,flow.Sequence,8_11,2023-11-14T21:53:19.978Z,,,,,,,,,,9744.327999998466,completion,,,,,,,high,low,,,,,,false,,,,true,609424,609423.3999999985,599662.297,599671.1000000015,599679.072,609429.043,1,40,,
trial,html.Screen,8_12_0,2023-11-14T21:53:28.186Z,,,,2,-0.0097091270150747,0.0417921315885292,,true,ll,8201.856999998563,response,-0.5813706054986331,0.44348424980737045,-0.517949208328607,-0.4565406773309096,0.4730051821862958,-0.4679674669242691,low,low,,ISIC_3967213.JPG,,ISIC_0046331.JPG,489,false,ll,keypress(f),0,true,617631.1999999993,617630.8999999985,609412.157,609424.1999999993,609429.043,617645.902,1,40,13,
sequence,flow.Sequence,8_12,2023-11-14T21:53:28.186Z,,,,,,,,,,8201.856999998563,completion,,,,,,,low,low,,,,,,false,,,,true,617631.6000000015,617630.8999999985,609412.157,609424.1000000015,609429.043,617645.902,1,40,,
trial,html.Screen,8_13_0,2023-11-14T21:53:34.474Z,,,,2,-0.0113873532168551,-0.0054999201556291,,true,hl,6273.398000000743,response,0.5774742331669657,0.44348424980737045,-0.5337664190294815,-0.26833493567435,0.4730051821862958,-0.4179674669242691,high,low,,ISIC_8812621.JPG,,ISIC_0064298.JPG,339,false,hl,keypress(j),0,true,623919.6000000015,623919.3000000007,617628.839,617631.6999999993,617645.902,623928.979,1,40,14,
sequence,flow.Sequence,8_13,2023-11-14T21:53:34.474Z,,,,,,,,,,6273.398000000743,completion,,,,,,,high,low,,,,,,false,,,,true,623920,623919.3000000007,617628.839,617631.6999999993,617645.902,623928.979,1,40,,
trial,html.Screen,8_14_0,2023-11-14T21:53:39.744Z,,,,2,-0.0220322185490382,-0.0740918837949419,,false,ll,5260.821000000695,response,-0.5089746342559943,0.44348424980737045,-0.48376641902948153,-0.5635306966596147,0.4730051821862958,-0.4179674669242691,low,low,,ISIC_8105020.JPG,,ISIC_0001119.JPG,515,false,lh,keypress(e),0,true,629189.8999999985,629189.8000000007,623912.291,623920.1999999993,623928.979,629195.61,1,40,15,
sequence,flow.Sequence,8_14,2023-11-14T21:53:39.745Z,,,,,,,,,,5260.821000000695,completion,,,,,,,low,low,,,,,,false,,,,true,629190.1000000015,629189.8000000007,623912.291,623920.1000000015,623928.979,629195.61,1,40,,
trial,html.Screen,8_15_0,2023-11-14T21:53:47.143Z,,,,2,-0.0051189696037511,0.0396625911332438,,false,lh,7392.890000000014,response,-0.6435522997599046,0.44348424980737045,-0.48376641902948153,0.3454514630605319,0.4730051821862958,-0.4679674669242691,low,high,,ISIC_9742891.JPG,,ISIC_0054874.JPG,252,false,hl,keypress(j),0,true,636588.6000000015,636588.5,629179.062,629190.3000000007,629195.61,636595.636,1,40,16,
sequence,flow.Sequence,8_15,2023-11-14T21:53:47.143Z,,,,,,,,,,7392.890000000014,completion,,,,,,,low,high,,,,,,false,,,,true,636588.6999999993,636588.5,629179.062,629190.1999999993,629195.61,636595.636,1,40,,
trial,html.Screen,8_16_0,2023-11-14T21:53:56.201Z,,,,2,0.0544808612748248,-0.0240487075377862,,true,ll,9050.863999999943,response,-0.4018003709407668,0.44348424980737045,-0.48376641902948153,-0.3970253856848764,0.4730051821862958,-0.4679674669242691,low,low,,ISIC_4606646.JPG,,ISIC_0031406.JPG,505,false,ll,keypress(f),0,true,645646.8000000007,645646.5,636578.751,636588.6999999993,636595.636,645662.522,1,40,17,
sequence,flow.Sequence,8_16,2023-11-14T21:53:56.202Z,,,,,,,,,,9050.863999999943,completion,,,,,,,low,low,,,,,,false,,,,true,645647.1999999993,645646.5,636578.751,636588.6999999993,636595.636,645662.522,1,40,,
trial,html.Screen,8_17_0,2023-11-14T21:54:04.008Z,,,,2,-0.009234249673026,-0.0627190878028592,,true,hh,7790.578000001493,response,0.3690254194391022,0.44348424980737045,-0.48376641902948153,0.3406690707925038,0.4730051821862958,-0.4679674669242691,high,high,,ISIC_0053760.JPG,,ISIC_0028031.JPG,421,false,hh,keypress(i),0,true,653453.1000000015,653453.1000000015,645645.37,645647.3999999985,645662.522,653462.296,1,40,18,
sequence,flow.Sequence,8_17,2023-11-14T21:54:04.008Z,,,,,,,,,,7790.578000001493,completion,,,,,,,high,high,,,,,,false,,,,true,653453.3000000007,653453.1000000015,645645.37,645647.3000000007,645662.522,653462.296,1,40,,
trial,html.Screen,8_18_0,2023-11-14T21:54:10.714Z,,,,2,-0.0693466529227737,-0.044703434393184,,false,ll,6696.903999999282,response,-0.3632645021347392,0.39348424980737046,-0.48376641902948153,-0.4940755500636281,0.4730051821862958,-0.4679674669242691,low,low,,ISIC_0004217.JPG,,ISIC_4921413.JPG,505,false,hh,keypress(i),0,true,660159.5,660159.1999999993,653445.581,653453.3999999985,653462.296,660162.256,1,40,19,
sequence,flow.Sequence,8_18,2023-11-14T21:54:10.714Z,,,,,,,,,,6696.903999999282,completion,,,,,,,low,low,,,,,,false,,,,true,660159.8999999985,660159.1999999993,653445.581,653453.3999999985,653462.296,660162.256,1,40,,
trial,html.Screen,8_19_0,2023-11-14T21:54:20.985Z,,,,2,0.0389988030702649,0.0143212271490256,,false,hl,10268.344000001438,response,0.2981295084148321,0.39348424980737046,-0.48376641902948153,-0.6053594235836648,0.4730051821862958,-0.4679674669242691,high,low,,ISIC_0064669.JPG,,ISIC_0068314.JPG,337,false,lh,keypress(e),0,true,670430.8000000007,670430.6000000015,660145.4,660160.1000000015,660162.256,670445.777,1,40,20,
sequence,flow.Sequence,8_19,2023-11-14T21:54:20.986Z,,,,,,,,,,10268.344000001438,completion,,,,,,,high,low,,,,,,false,,,,true,670431.3000000007,670430.6000000015,660145.4,660160,660162.256,670445.777,1,40,,
trial,html.Screen,8_20_0,2023-11-14T21:54:28.417Z,,,,2,0.0107854985447517,0.0478010417136109,,false,hh,7416.422999999253,response,0.2675701735080953,0.44348424980737045,-0.48376641902948153,0.3297995358521135,0.4730051821862958,-0.4679674669242691,high,high,,ISIC_0010500.JPG,,ISIC_7702857.JPG,421,false,ll,keypress(f),0,true,677862.3999999985,677862.1999999993,670428.733,670431.5,670445.777,677878.841,1,40,21,
sequence,flow.Sequence,8_20,2023-11-14T21:54:28.417Z,,,,,,,,,,7416.422999999253,completion,,,,,,,high,high,,,,,,false,,,,true,677862.8999999985,677862.1999999993,670428.733,670431.5,670445.777,677878.841,1,40,,
trial,html.Screen,8_21_0,2023-11-14T21:54:35.457Z,,,,2,0.0651705891246238,-0.0394586219902573,,true,hh,7023.45900000073,response,0.3720070812711177,0.49348424980737043,-0.48376641902948153,0.6718985587534494,0.4730051821862958,-0.4679674669242691,high,high,,ISIC_0013491.JPG,,ISIC_0011510.JPG,410,false,hh,keypress(i),0,true,684902.6000000015,684902.3000000007,677862.153,677863,677878.841,684912.123,1,40,22,
sequence,flow.Sequence,8_21,2023-11-14T21:54:35.458Z,,,,,,,,,,7023.45900000073,completion,,,,,,,high,high,,,,,,false,,,,true,684902.8999999985,684902.3000000007,677862.153,677862.8999999985,677878.841,684912.123,1,40,,
trial,html.Screen,8_22_0,2023-11-14T21:54:46.451Z,,,,2,-0.0134764727102299,-0.0033499036460912,,,,11016.88300000003,timeout,0.3879487977498606,0.49348424980737043,-0.48376641902948153,0.4146072062251407,0.4730051821862958,-0.4679674669242691,high,high,,ISIC_0009998.JPG,,ISIC_0032922.JPG,410,false,,,0,true,695896.6000000015,695896.3000000007,684895.496,684903.1000000015,684912.123,695929.006,1,40,23,
sequence,flow.Sequence,8_22,2023-11-14T21:54:46.452Z,,,,,,,,,,10984.177000000724,completion,,,,,,,high,high,,,,,,false,,,,true,695896.8999999985,695896.3000000007,684895.496,684903.1000000015,684912.123,695929.006,1,40,,
trial,html.Screen,8_23_0,2023-11-14T21:54:52.177Z,,,,2,0.0389988030702649,0.0143212271490256,,false,lh,5693.393999998458,response,-0.5580542460628488,0.49348424980737043,-0.48376641902948153,0.534539778828974,0.4730051821862958,-0.4679674669242691,low,high,,ISIC_0064669.JPG,,ISIC_8521610.JPG,252,false,hh,keypress(i),0,true,701622.8000000007,701622.3999999985,695912.362,695897.1000000015,695929.006,701628.835,1,40,24,
sequence,flow.Sequence,8_23,2023-11-14T21:54:52.178Z,,,,,,,,,,5693.393999998458,completion,,,,,,,low,high,,,,,,false,,,,true,701623.1999999993,701622.3999999985,695912.362,695897.1000000015,695929.006,701628.835,1,40,,
trial,html.Screen,8_24_0,2023-11-14T21:54:58.471Z,,,,2,0.0660839342637046,-0.0657899819532072,,false,hh,6287.965000000782,response,0.3319162513090778,0.49348424980737043,-0.48376641902948153,0.5766170865141421,0.4730051821862958,-0.4679674669242691,high,high,,ISIC_0065477.JPG,,ISIC_0010848.JPG,410,false,lh,keypress(e),0,true,707916.8999999985,707916.8000000007,701612.147,701623.3000000007,701628.835,707928.704,1,40,25,
sequence,flow.Sequence,8_24,2023-11-14T21:54:58.472Z,,,,,,,,,,6287.965000000782,completion,,,,,,,high,high,,,,,,false,,,,true,707917.1000000015,707916.8000000007,701612.147,701623.3000000007,701628.835,707928.704,1,40,,
trial,html.Screen,8_25_0,2023-11-14T21:55:01.778Z,,,,2,0.0247880219471745,-0.0687761754603142,,true,ll,3294.195999998483,response,-0.5224101346591375,0.49348424980737043,-0.48376641902948153,-0.5703407514579967,0.4730051821862958,-0.4679674669242691,low,low,,ISIC_0031745.JPG,,ISIC_0024826.JPG,505,false,ll,keypress(f),0,true,711223.1000000015,711222.8999999985,707911.902,707917.1000000015,707928.704,711228.705,1,40,26,
sequence,flow.Sequence,8_25,2023-11-14T21:55:01.778Z,,,,,,,,,,3294.195999998483,completion,,,,,,,low,low,,,,,,false,,,,true,711223.5,711222.8999999985,707911.902,707917.1000000015,707928.704,711228.705,1,40,,
trial,html.Screen,8_26_0,2023-11-14T21:55:07.936Z,,,,2,-0.0265457942157377,-0.0704357137706731,,false,hl,6152.595000000787,response,0.544516654509254,0.49348424980737043,-0.48376641902948153,-0.4133000950476122,0.4730051821862958,-0.4679674669242691,high,low,,ISIC_3123377.JPG,,ISIC_0069488.JPG,288,false,hh,keypress(i),0,true,717381.3999999985,717381.3000000007,711212.13,711223.6999999993,711228.705,717395.641,1,40,27,
sequence,flow.Sequence,8_26,2023-11-14T21:55:07.936Z,,,,,,,,,,6152.595000000787,completion,,,,,,,high,low,,,,,,false,,,,true,717381.5,717381.3000000007,711212.13,711223.6999999993,711228.705,717395.641,1,40,,
trial,html.Screen,8_27_0,2023-11-14T21:55:12.807Z,,,,2,0.0057914759495055,0.0074667911845194,,false,hl,4856.758999998565,response,0.5704918653293747,0.49348424980737043,-0.48376641902948153,-0.3255501069013628,0.4730051821862958,-0.4679674669242691,high,low,,ISIC_0058723.JPG,,ISIC_7249063.JPG,288,false,hh,keypress(i),0,true,722252.3999999985,722252.3999999985,717378.674,717381.6000000015,717395.641,722262.027,1,40,28,
sequence,flow.Sequence,8_27,2023-11-14T21:55:12.807Z,,,,,,,,,,4856.758999998565,completion,,,,,,,high,low,,,,,,false,,,,true,722252.6000000015,722252.3999999985,717378.674,717381.6000000015,717395.641,722262.027,1,40,,
trial,html.Screen,8_28_0,2023-11-14T21:55:23.801Z,,,,2,0.039728379742806,-0.0228701131373768,,,,11016.751999999979,timeout,0.2979181138482392,0.49348424980737043,-0.48376641902948153,-0.4443246101080925,0.4730051821862958,-0.4679674669242691,high,low,,ISIC_0054073.JPG,,ISIC_3386753.JPG,288,false,,,0,true,733246.3999999985,733246,722245.204,722252.6999999993,722262.027,733278.779,1,40,29,
sequence,flow.Sequence,8_28,2023-11-14T21:55:23.802Z,,,,,,,,,,10983.972999999998,completion,,,,,,,high,low,,,,,,false,,,,true,733246.8000000007,733246,722245.204,722252.6000000015,722262.027,733278.779,1,40,,
trial,html.Screen,8_29_0,2023-11-14T21:55:28.289Z,,,,2,-0.0112310719058792,0.0469047359904117,,true,hh,4455.32100000151,response,0.4701516064464176,0.49348424980737043,-0.48376641902948153,0.565232001143745,0.4730051821862958,-0.4679674669242691,high,high,,ISIC_0068184.JPG,,ISIC_0029078.JPG,410,false,hh,keypress(i),0,true,737734.3999999985,737734.1000000015,733262.072,733247,733278.779,737745.528,1,40,30,
sequence,flow.Sequence,8_29,2023-11-14T21:55:28.290Z,,,,,,,,,,4455.32100000151,completion,,,,,,,high,high,,,,,,false,,,,true,737734.6999999993,737734.1000000015,733262.072,733246.8999999985,733278.779,737745.528,1,40,,
trial,html.Screen,8_30_0,2023-11-14T21:55:34.722Z,,,,2,0.039728379742806,-0.0228701131373768,,true,lh,6421.671999999206,response,-0.5038360518883778,0.4703217358878962,-0.48376641902948153,0.4756149171099186,0.4709245438289436,-0.4679674669242691,low,high,,ISIC_0054073.JPG,,ISIC_8510848.JPG,252,false,lh,keypress(e),0,true,744167.3999999985,744167.1999999993,737728.555,737734.8999999985,737745.528,744178.709,1,40,31,
sequence,flow.Sequence,8_30,2023-11-14T21:55:34.723Z,,,,,,,,,,6421.671999999206,completion,,,,,,,low,high,,,,,,false,,,,true,744167.8000000007,744167.1999999993,737728.555,737734.8999999985,737745.528,744178.709,1,40,,
trial,html.Screen,8_31_0,2023-11-14T21:55:41.593Z,,,,2,0.0217698886732706,-0.0410870915161425,,false,hh,6859.391000001458,response,0.4765175266639079,0.4703217358878962,-0.4631230932737576,0.5636163500527319,0.4709245438289436,-0.4679674669242691,high,high,,ISIC_0072173.JPG,,ISIC_1957685.JPG,407,false,lh,keypress(e),0,true,751038.5,751038.1000000015,744162.002,744168.1000000015,744178.709,751045.274,1,40,32,
sequence,flow.Sequence,8_31,2023-11-14T21:55:41.594Z,,,,,,,,,,6859.391000001458,completion,,,,,,,high,high,,,,,,false,,,,true,751038.8999999985,751038.1000000015,744162.002,744168.1000000015,744178.709,751045.274,1,40,,
trial,html.Screen,8_32_0,2023-11-14T21:55:50.016Z,,,,2,-0.0691769743257167,0.0638501824668941,,false,lh,8415.625999998534,response,-0.3312158854133845,0.4703217358878962,-0.4631230932737576,0.3030150743974085,0.4709245438289436,-0.4679674669242691,low,high,,ISIC_0031914.JPG,,ISIC_5907931.JPG,262,false,hh,keypress(i),0,true,759461,759460.8999999985,751028.516,751039.1000000015,751045.274,759480.062,1,40,33,
sequence,flow.Sequence,8_32,2023-11-14T21:55:50.016Z,,,,,,,,,,8415.625999998534,completion,,,,,,,low,high,,,,,,false,,,,true,759461.1000000015,759460.8999999985,751028.516,751039,751045.274,759480.062,1,40,,
trial,html.Screen,8_33_0,2023-11-14T21:55:55.642Z,,,,2,-0.0087912446525382,-0.0619041869188676,,false,lh,5606.738000000711,response,-0.6136918109060658,0.4703217358878962,-0.4631230932737576,0.6097633267265633,0.4709245438289436,-0.4679674669242691,low,high,,ISIC_7185913.JPG,,ISIC_0010818.JPG,262,false,hh,keypress(i),0,true,765087.1000000015,765086.8000000007,759445.254,759461.1000000015,759480.062,765095.241,1,40,34,
sequence,flow.Sequence,8_33,2023-11-14T21:55:55.642Z,,,,,,,,,,5606.738000000711,completion,,,,,,,low,high,,,,,,false,,,,true,765087.5,765086.8000000007,759445.254,759461.1000000015,759480.062,765095.241,1,40,,
trial,html.Screen,8_34_0,2023-11-14T21:56:02.378Z,,,,2,-0.0533723079251252,-0.0299718727255261,,false,lh,6727.658999998472,response,-0.36000425141018,0.4703217358878962,-0.4631230932737576,0.4313002925960878,0.4709245438289436,-0.4679674669242691,low,high,,ISIC_6562871.JPG,,ISIC_4894802.JPG,262,false,ll,keypress(f),0,true,771823.3000000007,771822.8999999985,765078.428,765087.6000000015,765095.241,771828.577,1,40,35,
sequence,flow.Sequence,8_34,2023-11-14T21:56:02.378Z,,,,,,,,,,6727.658999998472,completion,,,,,,,low,high,,,,,,false,,,,true,771823.6999999993,771822.8999999985,765078.428,765087.5,765095.241,771828.577,1,40,,
trial,html.Screen,8_35_0,2023-11-14T21:56:06.370Z,,,,2,0.0050679133050021,-0.0009714874637896,,true,ll,3986.0230000014417,response,-0.2835980376475639,0.4703217358878962,-0.4631230932737576,-0.3526070269595218,0.4709245438289436,-0.4679674669242691,low,low,,ISIC_9848743.JPG,,ISIC_0026185.JPG,515,false,ll,keypress(f),0,true,775815,775814.6000000015,771811.961,771823.8000000007,771828.577,775828.64,1,40,36,
sequence,flow.Sequence,8_35,2023-11-14T21:56:06.370Z,,,,,,,,,,3986.0230000014417,completion,,,,,,,low,low,,,,,,false,,,,true,775815.3999999985,775814.6000000015,771811.961,771823.8000000007,771828.577,775828.64,1,40,,
trial,html.Screen,8_36_0,2023-11-14T21:56:12.536Z,,,,2,0.0544808612748248,-0.0240487075377862,,false,ll,6151.960000001476,response,-0.4996236832406101,0.4703217358878962,-0.4131230932737576,-0.594029736179615,0.4709245438289436,-0.4679674669242691,low,low,,ISIC_4606646.JPG,,ISIC_8287726.JPG,515,false,lh,keypress(e),0,true,781980.8000000007,781980.6000000015,775811.853,775815.6000000015,775828.64,781995.461,1,40,37,
sequence,flow.Sequence,8_36,2023-11-14T21:56:12.536Z,,,,,,,,,,6151.960000001476,completion,,,,,,,low,low,,,,,,false,,,,true,781980.8999999985,781980.6000000015,775811.853,775815.6000000015,775828.64,781995.461,1,40,,
trial,html.Screen,8_37_0,2023-11-14T21:56:18.304Z,,,,2,-0.0134764727102299,-0.0033499036460912,,true,hh,5753.339000000735,response,0.6034960514926037,0.4703217358878962,-0.4631230932737576,0.2743145686745567,0.4709245438289436,-0.4679674669242691,high,high,,ISIC_0009998.JPG,,ISIC_0059904.JPG,407,false,hh,keypress(i),0,true,787748.8999999985,787748.8000000007,781978.556,781980.8999999985,781995.461,787761.965,1,40,38,
sequence,flow.Sequence,8_37,2023-11-14T21:56:18.304Z,,,,,,,,,,5753.339000000735,completion,,,,,,,high,high,,,,,,false,,,,true,787749,787748.8000000007,781978.556,781980.8999999985,781995.461,787761.965,1,40,,
trial,html.Screen,8_38_0,2023-11-14T21:56:21.945Z,,,,2,-0.0516762988734011,0.0130195499281172,,true,ll,3628.1350000015227,response,-0.5196761027902648,0.4703217358878962,-0.4631230932737576,-0.3763927615146344,0.4709245438289436,-0.4679674669242691,low,low,,ISIC_9978498.JPG,,ISIC_3303825.JPG,515,false,ll,keypress(f),0,true,791390.3999999985,791390.1000000015,787745.219,787749.1000000015,787761.965,791395.197,1,40,39,
sequence,flow.Sequence,8_38,2023-11-14T21:56:21.946Z,,,,,,,,,,3628.1350000015227,completion,,,,,,,low,low,,,,,,false,,,,true,791390.8000000007,791390.1000000015,787745.219,787749.1000000015,787761.965,791395.197,1,40,,
trial,html.Screen,8_39_0,2023-11-14T21:56:27.199Z,,,,2,0.0651705891246238,-0.0394586219902573,,false,hl,5248.802999999956,response,0.560940025667505,0.4703217358878962,-0.4596498930154374,-0.466289505731978,0.4709245438289436,-0.4679674669242691,high,low,,ISIC_0013491.JPG,,ISIC_0072441.JPG,299,false,ll,keypress(f),0,true,796644.1999999993,796644,791378.654,791391,791395.197,796663.116,1,40,40,
sequence,flow.Sequence,8_39,2023-11-14T21:56:27.199Z,,,,,,,,,,5248.802999999956,completion,,,,,,,high,low,,,,,,false,,,,true,796644.3000000007,796644,791378.654,791391,791395.197,796663.116,1,40,,
stair_loop,flow.Loop,8,2023-11-14T21:56:27.199Z,,,,,,,,,,269998.1,completion,,,,,,,,,,,,,,false,,,,true,796644.3999999985,796644,526629.506,526644.8999999985,526645.9,796663.116,1,40,,
exp_instructions,html.Screen,9,2023-11-14T21:57:11.896Z,,,,,,,,,,44677.38399999996,response,,,,,,,,,,,,,,,continue,keypress(Space),,,841340.6999999993,841340.5,796628.33,796644.3999999985,796663.116,841345.009,,,,
trial,html.Screen,10_0_0,2023-11-14T21:57:21.727Z,,,,1,-0.0552031398781121,-0.0652612426529481,,false,lh,9827.291000000783,response,-0.5440473479086405,0.4794029928476335,-0.47180326242648996,0.2957361998883816,0.4719648630076197,-0.4679674669242691,low,high,,ISIC_0024226.JPG,9,ISIC_5615694.JPG,262,false,hh,keypress(i),0,false,851172.3999999985,851172.3000000007,841326.706,841340.8999999985,841345.009,851178.359,4,500,1,
break,html.Screen,10_0_1,2023-11-14T21:57:21.728Z,,,,,,,,,,NaN,,,,,,,,low,high,,,,,,false,,,,false,851172.8000000007,851172.6999999993,,851172.5,,851178.359,4,500,,
break_continue,html.Screen,10_0_2,2023-11-14T21:57:21.728Z,,,,,,,,,,NaN,,,,,,,,low,high,,,,,,false,,,,false,851173,851173,,851172.8000000007,,851178.359,4,500,,
sequence,flow.Sequence,10_0,2023-11-14T21:57:21.728Z,,,,,,,,,,9827.991000000038,completion,,,,,,,low,high,,,,,,false,,,,false,851173.1000000015,851173,841326.706,841340.8000000007,841345.009,851178.359,4,500,,
trial,html.Screen,10_1_0,2023-11-14T21:57:29.890Z,,,,1,-0.0277178575053843,0.0395587463147856,,false,hh,8156.540999998455,response,0.3917065367471014,0.4794029928476335,-0.47180326242648996,0.3977168078243453,0.4719648630076197,-0.4679674669242691,high,high,,ISIC_0010807.JPG,8,ISIC_6938608.JPG,408,false,hl,keypress(j),0,false,859335.1999999993,859334.8999999985,851161.601,851173.1999999993,851178.359,859345.06,4,500,2,
break,html.Screen,10_1_1,2023-11-14T21:57:29.891Z,,,,,,,,,,NaN,,,,,,,,high,high,,,,,,false,,,,false,859336.1000000015,859335.8999999985,,859335.5,,859345.06,4,500,,
break_continue,html.Screen,10_1_2,2023-11-14T21:57:29.892Z,,,,,,,,,,NaN,,,,,,,,high,high,,,,,,false,,,,false,859336.8000000007,859336.5,,859336.3000000007,,859345.06,4,500,,
sequence,flow.Sequence,10_1,2023-11-14T21:57:29.892Z,,,,,,,,,,8158.140999999945,completion,,,,,,,high,high,,,,,,false,,,,false,859337,859336.5,851161.601,851173.1999999993,851178.359,859345.06,4,500,,
trial,html.Screen,10_2_0,2023-11-14T21:57:33.103Z,,,,1,0.0324770283903853,0.0249968632204382,,false,hl,3202.939999999944,response,0.3943536166890443,0.4794029928476335,-0.47180326242648996,-0.3219938611692922,0.4719648630076197,-0.4679674669242691,high,low,,ISIC_7266462.JPG,9,ISIC_9157162.JPG,291,false,hh,keypress(i),0,false,862548.1999999993,862548,859328.096,859337.1999999993,859345.06,862561.673,4,500,3,
break,html.Screen,10_2_1,2023-11-14T21:57:33.103Z,,,,,,,,,,NaN,,,,,,,,high,low,,,,,,false,,,,false,862548.5,862548.3999999985,,862548.3000000007,,862561.673,4,500,,
break_continue,html.Screen,10_2_2,2023-11-14T21:57:33.104Z,,,,,,,,,,NaN,,,,,,,,high,low,,,,,,false,,,,false,862548.6999999993,862548.6000000015,,862548.5,,862561.673,4,500,,
sequence,flow.Sequence,10_2,2023-11-14T21:57:33.104Z,,,,,,,,,,3203.5400000014342,completion,,,,,,,high,low,,,,,,false,,,,false,862548.6999999993,862548.6000000015,859328.096,859337.1999999993,859345.06,862561.673,4,500,,
trial,html.Screen,10_3_0,2023-11-14T21:57:38.305Z,,,,1,-0.0362376068089956,-0.047825070846155,,false,hh,5187.6270000007935,response,0.6063337255676071,0.4794029928476335,-0.47180326242648996,0.4257984114692941,0.4719648630076197,-0.4679674669242691,high,high,,ISIC_6985114.JPG,8,ISIC_5396394.JPG,408,false,hl,keypress(j),0,false,867749.6000000015,867749.3000000007,862545.195,862548.8000000007,862561.673,867761.609,4,500,4,
break,html.Screen,10_3_1,2023-11-14T21:57:38.305Z,,,,,,,,,,NaN,,,,,,,,high,high,,,,,,false,,,,false,867750.6000000015,867750.3000000007,,867750,,867761.609,4,500,,
break_continue,html.Screen,10_3_2,2023-11-14T21:57:38.306Z,,,,,,,,,,NaN,,,,,,,,high,high,,,,,,false,,,,false,867751.1000000015,867750.8999999985,,867750.6999999993,,867761.609,4,500,,
sequence,flow.Sequence,10_3,2023-11-14T21:57:38.306Z,,,,,,,,,,5189.226999998558,completion,,,,,,,high,high,,,,,,false,,,,false,867751.3000000007,867750.8999999985,862545.195,862548.6999999993,862561.673,867761.609,4,500,,
trial,html.Screen,10_4_0,2023-11-14T21:57:44.665Z,,,,1,0.007397293189458,0.0174716772037504,,true,lh,6348.390999999945,response,-0.4945376187873729,0.4794029928476335,-0.47180326242648996,0.3221073342739052,0.4719648630076197,-0.4679674669242691,low,high,,ISIC_0056226.JPG,8,ISIC_4164882.JPG,262,false,lh,keypress(e),0,false,874110.3000000007,874110,867744.822,867751.5,867761.609,874128.89,4,500,5,
break,html.Screen,10_4_1,2023-11-14T21:57:44.666Z,,,,,,,,,,NaN,,,,,,,,low,high,,,,,,false,,,,false,874111.3999999985,874111.1000000015,,874110.6999999993,,874128.89,4,500,,
break_continue,html.Screen,10_4_2,2023-11-14T21:57:44.667Z,,,,,,,,,,NaN,,,,,,,,low,high,,,,,,false,,,,false,874112,874111.6999999993,,874111.6000000015,,874128.89,4,500,,
sequence,flow.Sequence,10_4,2023-11-14T21:57:44.667Z,,,,,,,,,,6350.0909999992,completion,,,,,,,low,high,,,,,,false,,,,false,874112.1999999993,874111.6999999993,867744.822,867751.3999999985,867761.609,874128.89,4,500,,
trial,html.Screen,10_5_0,2023-11-14T21:57:49.057Z,,,,1,0.0111354529246037,-0.0585810480909377,,false,ll,4372.609999999986,response,-0.535573006674599,0.4794029928476335,-0.47180326242648996,-0.6602030621398457,0.4719648630076197,-0.4679674669242691,low,low,,ISIC_7858034.JPG,9,ISIC_2410240.JPG,500,false,lh,keypress(e),0,false,878501.8000000007,878501.5,874095.015,874112.5,874128.89,878511.762,4,500,6,
break,html.Screen,10_5_1,2023-11-14T21:57:49.058Z,,,,,,,,,,NaN,,,,,,,,low,low,,,,,,false,,,,false,878502.6999999993,878502.3999999985,,878502.1000000015,,878511.762,4,500,,
break_continue,html.Screen,10_5_2,2023-11-14T21:57:49.058Z,,,,,,,,,,NaN,,,,,,,,low,low,,,,,,false,,,,false,878503.3000000007,878503,,878502.8999999985,,878511.762,4,500,,
sequence,flow.Sequence,10_5,2023-11-14T21:57:49.058Z,,,,,,,,,,4374.109999999986,completion,,,,,,,low,low,,,,,,false,,,,false,878503.3999999985,878503,874095.015,874112.3999999985,874128.89,878511.762,4,500,,
trial,html.Screen,10_6_0,2023-11-14T21:57:54.752Z,,,,1,0.0085520978188085,-0.0464691161264081,,true,ll,5685.338000001502,response,-0.6157329729027565,0.4794029928476335,-0.47180326242648996,-0.4296063162483293,0.4719648630076197,-0.4679674669242691,low,low,,ISIC_0758797.JPG,9,ISIC_2202486.JPG,500,false,ll,keypress(f),0,false,884197.3000000007,884197.1000000015,878495.161,878503.6000000015,878511.762,884211.61,4,500,7,
break,html.Screen,10_6_1,2023-11-14T21:57:54.752Z,,,,,,,,,,NaN,,,,,,,,low,low,,,,,,false,,,,false,884197.5,884197.3999999985,,884197.3999999985,,884211.61,4,500,,
break_continue,html.Screen,10_6_2,2023-11-14T21:57:54.753Z,,,,,,,,,,NaN,,,,,,,,low,low,,,,,,false,,,,false,884197.6999999993,884197.6000000015,,884197.6000000015,,884211.61,4,500,,
sequence,flow.Sequence,10_6,2023-11-14T21:57:54.753Z,,,,,,,,,,5685.838000001502,completion,,,,,,,low,low,,,,,,false,,,,false,884197.6999999993,884197.6000000015,878495.161,878503.5,878511.762,884211.61,4,500,,
trial,html.Screen,10_7_0,2023-11-14T21:58:01.369Z,,,,1,-0.0113873532168551,-0.0054999201556291,,true,lh,6602.089999999269,response,-0.463544778513821,0.4794029928476335,-0.47180326242648996,0.5949493964492855,0.4719648630076197,-0.4679674669242691,low,high,,ISIC_8812621.JPG,8,ISIC_5623844.JPG,262,false,lh,keypress(e),0,false,890813.8999999985,890813.6999999993,884195.197,884197.8000000007,884211.61,890828.313,4,500,8,
break,html.Screen,10_7_1,2023-11-14T21:58:01.370Z,,,,,,,,,,NaN,,,,,,,,low,high,,,,,,false,,,,false,890814.8000000007,890814.6000000015,,890814.1999999993,,890828.313,4,500,,
break_continue,html.Screen,10_7_2,2023-11-14T21:58:01.370Z,,,,,,,,,,NaN,,,,,,,,low,high,,,,,,false,,,,false,890815.3000000007,890815.1999999993,,890815,,890828.313,4,500,,
sequence,flow.Sequence,10_7,2023-11-14T21:58:01.371Z,,,,,,,,,,6603.589999999269,completion,,,,,,,low,high,,,,,,false,,,,false,890815.5,890815.1999999993,884195.197,884197.8000000007,884211.61,890828.313,4,500,,
trial,html.Screen,10_8_0,2023-11-14T21:58:05.585Z,,,,1,0.0329095507339554,-0.0382899749693245,,false,hl,4201.586999998544,response,0.5430981981920477,0.4794029928476335,-0.47180326242648996,-0.4269470522505686,0.4719648630076197,-0.4679674669242691,high,low,,ISIC_8812781.JPG,9,ISIC_5835765.JPG,291,false,hh,keypress(i),0,false,895030.1999999993,895029.8999999985,890811.507,890815.8000000007,890828.313,895044.931,4,500,9,
break,html.Screen,10_8_1,2023-11-14T21:58:05.586Z,,,,,,,,,,NaN,,,,,,,,high,low,,,,,,false,,,,false,895031.1000000015,895030.8999999985,,895030.5,,895044.931,4,500,,
break_continue,html.Screen,10_8_2,2023-11-14T21:58:05.587Z,,,,,,,,,,NaN,,,,,,,,high,low,,,,,,false,,,,false,895031.8000000007,895031.6000000015,,895031.3000000007,,895044.931,4,500,,
sequence,flow.Sequence,10_8,2023-11-14T21:58:05.587Z,,,,,,,,,,4203.287000001525,completion,,,,,,,high,low,,,,,,false,,,,false,895032,895031.6000000015,890811.507,890815.6999999993,890828.313,895044.931,4,500,,
trial,html.Screen,10_9_0,2023-11-14T21:58:08.281Z,,,,1,0.0456515796420274,-0.0273567130070961,,true,hh,2680.669000001508,response,0.464499682703259,0.4794029928476335,-0.47180326242648996,0.2894126717437572,0.4719648630076197,-0.4679674669242691,high,high,,ISIC_0068610.JPG,9,ISIC_0032473.JPG,408,false,hh,keypress(i),0,false,897725.8999999985,897725.6000000015,895028.344,895032.1999999993,895044.931,897728.271,4,500,10,
break,html.Screen,10_9_1,2023-11-14T21:58:08.282Z,,,,,,,,,,NaN,,,,,,,,high,high,,,,,,false,,,,false,897726.8999999985,897726.6000000015,,897726.1999999993,,897728.271,4,500,,
break_continue,html.Screen,10_9_2,2023-11-14T21:58:08.282Z,,,,,,,,,,NaN,,,,,,,,high,high,,,,,,false,,,,false,897727.3999999985,897727.1999999993,,897727,,897728.271,4,500,,
sequence,flow.Sequence,10_9,2023-11-14T21:58:08.283Z,,,,,,,,,,2682.2689999992726,completion,,,,,,,high,high,,,,,,false,,,,false,897727.6999999993,897727.1999999993,895028.344,895032.1999999993,895044.931,897728.271,4,500,,
trial,html.Screen,10_10_0,2023-11-14T21:58:16.215Z,,,,1,-0.013431314305098,0.0140597582944232,,false,hl,7932.029000000795,response,0.6239946820449903,0.4794029928476335,-0.47180326242648996,-0.5853354799445075,0.4719648630076197,-0.4679674669242691,high,low,,ISIC_0069617.JPG,9,ISIC_6126554.JPG,291,false,hh,keypress(i),0,false,905660.3999999985,905660.3000000007,897711.788,897728,897728.271,905679.377,4,500,11,
break,html.Screen,10_10_1,2023-11-14T21:58:16.216Z,,,,,,,,,,NaN,,,,,,,,high,low,,,,,,false,,,,false,905660.6999999993,905660.6999999993,,905660.5,,905679.377,4,500,,
break_continue,html.Screen,10_10_2,2023-11-14T21:58:16.216Z,,,,,,,,,,NaN,,,,,,,,high,low,,,,,,false,,,,false,905661,905660.8000000007,,905660.8000000007,,905679.377,4,500,,
sequence,flow.Sequence,10_10,2023-11-14T21:58:16.216Z,,,,,,,,,,7932.529000000795,completion,,,,,,,high,low,,,,,,false,,,,false,905661,905660.8000000007,897711.788,897727.8000000007,897728.271,905679.377,4,500,,
trial,html.Screen,10_11_0,2023-11-14T21:58:25.914Z,,,,1,0.0111354529246037,-0.0585810480909377,,false,ll,9678.423000000766,response,-0.4644794746840759,0.4794029928476335,-0.47180326242648996,-0.3418599644996213,0.4719648630076197,-0.4679674669242691,low,low,,ISIC_7858034.JPG,9,ISIC_7869255.JPG,500,false,hh,keypress(i),0,false,915358,915357.8000000007,905644.965,905661.1000000015,905679.377,915361.55,4,500,12,
break,html.Screen,10_11_1,2023-11-14T21:58:25.914Z,,,,,,,,,,NaN,,,,,,,,low,low,,,,,,false,,,,false,915358.8999999985,915358.6000000015,,915358.3999999985,,915361.55,4,500,,
break_continue,html.Screen,10_11_2,2023-11-14T21:58:25.915Z,,,,,,,,,,NaN,,,,,,,,low,low,,,,,,false,,,,false,915359.5,915359.3000000007,,915359.1000000015,,915361.55,4,500,,
sequence,flow.Sequence,10_11,2023-11-14T21:58:25.915Z,,,,,,,,,,9679.923000000766,completion,,,,,,,low,low,,,,,,false,,,,false,915359.6000000015,915359.3000000007,905644.965,905661.1000000015,905679.377,915361.55,4,500,,
trial,html.Screen,10_12_0,2023-11-14T21:58:36.743Z,,,,1,0.0640778296621707,0.0387686079545705,,true,lh,10826.250000000698,response,-0.449156353027244,0.4794029928476335,-0.47180326242648996,0.3255683651634646,0.4719648630076197,-0.4679674669242691,low,high,,ISIC_0010124.JPG,8,ISIC_9223156.JPG,262,false,lh,keypress(e),0,false,926187.8999999985,926187.8000000007,915344.643,915359.8000000007,915361.55,926194.877,4,500,13,
break,html.Screen,10_12_1,2023-11-14T21:58:36.744Z,,,,,,,,,,NaN,,,,,,,,low,high,,,,,,false,,,,false,926188.1999999993,926188.1999999993,,926188,,926194.877,4,500,,
break_continue,html.Screen,10_12_2,2023-11-14T21:58:36.744Z,,,,,,,,,,NaN,,,,,,,,low,high,,,,,,false,,,,false,926188.3999999985,926188.3999999985,,926188.3000000007,,926194.877,4,500,,
sequence,flow.Sequence,10_12,2023-11-14T21:58:36.744Z,,,,,,,,,,10826.849999998463,completion,,,,,,,low,high,,,,,,false,,,,false,926188.3999999985,926188.3999999985,915344.643,915359.8000000007,915361.55,926194.877,4,500,,
trial,html.Screen,10_13_0,2023-11-14T21:58:40.768Z,,,,1,-0.0409338693593207,0.0072462710499874,,false,hl,4017.5229999985313,response,0.2807964604479849,0.4794029928476335,-0.47180326242648996,-0.5359733020512825,0.4719648630076197,-0.4679674669242691,high,low,,ISIC_3608788.JPG,9,ISIC_0072195.JPG,291,false,hh,keypress(i),0,false,930212.5,930212.3999999985,926178.127,926188.5,926194.877,930228.423,4,500,14,
break,html.Screen,10_13_1,2023-11-14T21:58:40.768Z,,,,,,,,,,NaN,,,,,,,,high,low,,,,,,false,,,,false,930212.8000000007,930212.6999999993,,930212.6000000015,,930228.423,4,500,,
break_continue,html.Screen,10_13_2,2023-11-14T21:58:40.768Z,,,,,,,,,,NaN,,,,,,,,high,low,,,,,,false,,,,false,930212.8999999985,930212.8999999985,,930212.8000000007,,930228.423,4,500,,
sequence,flow.Sequence,10_13,2023-11-14T21:58:40.769Z,,,,,,,,,,4018.0229999985313,completion,,,,,,,high,low,,,,,,false,,,,false,930213,930212.8999999985,926178.127,926188.5,926194.877,930228.423,4,500,,
trial,html.Screen,10_14_0,2023-11-14T21:58:44.761Z,,,,1,-0.013431314305098,0.0140597582944232,,false,hh,3976.9769999985583,response,0.3654680925998517,0.4794029928476335,-0.47180326242648996,0.5904528626733562,0.4719648630076197,-0.4679674669242691,high,high,,ISIC_0069617.JPG,9,ISIC_9865097.JPG,408,false,ll,keypress(f),0,false,934205.6000000015,934205.3999999985,930211.326,930213,930228.423,934211.462,4,500,15,
break,html.Screen,10_14_1,2023-11-14T21:58:44.762Z,,,,,,,,,,NaN,,,,,,,,high,high,,,,,,false,,,,false,934206.5,934206.3000000007,,934205.8999999985,,934211.462,4,500,,
break_continue,html.Screen,10_14_2,2023-11-14T21:58:44.763Z,,,,,,,,,,NaN,,,,,,,,high,high,,,,,,false,,,,false,934207.1000000015,934206.8999999985,,934206.6999999993,,934211.462,4,500,,
sequence,flow.Sequence,10_14,2023-11-14T21:58:44.763Z,,,,,,,,,,3978.4769999985583,completion,,,,,,,high,high,,,,,,false,,,,false,934207.3999999985,934206.8999999985,930211.326,930213,930228.423,934211.462,4,500,,
trial,html.Screen,10_15_0,2023-11-14T21:58:48.602Z,,,,1,-0.0688801591312476,-0.0185462113313342,,true,lh,3835.237999999197,response,-0.6447697707496328,0.4794029928476335,-0.47180326242648996,0.3432992822003991,0.4719648630076197,-0.4679674669242691,low,high,,ISIC_0067723.JPG,10,ISIC_0056900.JPG,262,false,lh,keypress(e),0,false,938046.8999999985,938046.6999999993,934194.698,934207.6000000015,934211.462,938061.713,4,500,16,
break,html.Screen,10_15_1,2023-11-14T21:58:48.604Z,,,,,,,,,,NaN,,,,,,,,low,high,,,,,,false,,,,false,938048,938047.6999999993,,938047.3000000007,,938061.713,4,500,,
break_continue,html.Screen,10_15_2,2023-11-14T21:58:48.604Z,,,,,,,,,,NaN,,,,,,,,low,high,,,,,,false,,,,false,938049,938048.6000000015,,938048.3000000007,,938061.713,4,500,,
sequence,flow.Sequence,10_15,2023-11-14T21:58:48.605Z,,,,,,,,,,3837.1380000014324,completion,,,,,,,low,high,,,,,,false,,,,false,938049.3999999985,938048.6000000015,934194.698,934207.3999999985,934211.462,938061.713,4,500,,
trial,html.Screen,10_16_0,2023-11-14T21:58:53.154Z,,,,1,-0.0348234368746005,0.0236866303880924,,false,lh,4536.287000000011,response,-0.5560562808016722,0.4794029928476335,-0.47180326242648996,0.6305041581083397,0.4719648630076197,-0.4679674669242691,low,high,,ISIC_0011099.JPG,8,ISIC_0064080.JPG,262,false,ll,keypress(f),0,false,942598.1999999993,942598,938044.815,938049.5,938061.713,942611.684,4,500,17,
break,html.Screen,10_16_1,2023-11-14T21:58:53.155Z,,,,,,,,,,NaN,,,,,,,,low,high,,,,,,false,,,,false,942599.1000000015,942598.8999999985,,942598.5,,942611.684,4,500,,
break_continue,html.Screen,10_16_2,2023-11-14T21:58:53.155Z,,,,,,,,,,NaN,,,,,,,,low,high,,,,,,false,,,,false,942599.6999999993,942599.5,,942599.3000000007,,942611.684,4,500,,
sequence,flow.Sequence,10_16,2023-11-14T21:58:53.155Z,,,,,,,,,,4537.787000000011,completion,,,,,,,low,high,,,,,,false,,,,false,942599.8999999985,942599.5,938044.815,938049.5,938061.713,942611.684,4,500,,
trial,html.Screen,10_17_0,2023-11-14T21:58:56.713Z,,,,1,-0.0367218428225813,-0.0700576547090477,,true,lh,3545.9160000014817,response,-0.4881993713464916,0.4794029928476335,-0.47180326242648996,0.3268592159890386,0.4719648630076197,-0.4679674669242691,low,high,,ISIC_7212271.JPG,9,ISIC_0026655.JPG,262,false,lh,keypress(e),0,false,946157.8999999985,946157.6000000015,942594.711,942600.1000000015,942611.684,946161.494,4,500,18,
break,html.Screen,10_17_1,2023-11-14T21:58:56.714Z,,,,,,,,,,NaN,,,,,,,,low,high,,,,,,false,,,,false,946159,946158.6999999993,,946158.3000000007,,946161.494,4,500,,
break_continue,html.Screen,10_17_2,2023-11-14T21:58:56.715Z,,,,,,,,,,NaN,,,,,,,,low,high,,,,,,false,,,,false,946159.6000000015,946159.5,,946159.1999999993,,946161.494,4,500,,
sequence,flow.Sequence,10_17,2023-11-14T21:58:56.715Z,,,,,,,,,,3547.8159999999916,completion,,,,,,,low,high,,,,,,false,,,,false,946159.8000000007,946159.5,942594.711,942600.1000000015,942611.684,946161.494,4,500,,
trial,html.Screen,10_18_0,2023-11-14T21:59:01.529Z,,,,1,-0.0688801591312476,-0.0185462113313342,,true,ll,4812.106000001542,response,-0.5553151950505835,0.4794029928476335,-0.47180326242648996,-0.3283598551406793,0.4719648630076197,-0.4679674669242691,low,low,,ISIC_0067723.JPG,9,ISIC_3573969.JPG,500,false,ll,keypress(f),0,false,950973.8999999985,950973.6000000015,946144.725,946160.1000000015,946161.494,950978.088,4,500,19,
break,html.Screen,10_18_1,2023-11-14T21:59:01.530Z,,,,,,,,,,NaN,,,,,,,,low,low,,,,,,false,,,,false,950974.8000000007,950974.6000000015,,950974.1999999993,,950978.088,4,500,,
break_continue,html.Screen,10_18_2,2023-11-14T21:59:01.531Z,,,,,,,,,,NaN,,,,,,,,low,low,,,,,,false,,,,false,950975.3999999985,950975.1999999993,,950974.8999999985,,950978.088,4,500,,
sequence,flow.Sequence,10_18,2023-11-14T21:59:01.531Z,,,,,,,,,,4813.705999999307,completion,,,,,,,low,low,,,,,,false,,,,false,950975.6000000015,950975.1999999993,946144.725,946160,946161.494,950978.088,4,500,,
trial,html.Screen,10_19_0,2023-11-14T21:59:08.337Z,,,,1,0.0057914759495055,0.0074667911845194,,false,ll,6803.611999999266,response,-0.4552593437922366,0.4794029928476335,-0.47180326242648996,-0.315121659050965,0.4719648630076197,-0.4679674669242691,low,low,,ISIC_0058723.JPG,9,ISIC_0058132.JPG,500,false,hl,keypress(j),0,false,957781.8999999985,957781.6999999993,950961.574,950975.6999999993,950978.088,957794.92,4,500,20,
break,html.Screen,10_19_1,2023-11-14T21:59:08.338Z,,,,,,,,,,NaN,,,,,,,,low,low,,,,,,false,,,,false,957782.8000000007,957782.6000000015,,957782.3000000007,,957794.92,4,500,,
break_continue,html.Screen,10_19_2,2023-11-14T21:59:08.339Z,,,,,,,,,,NaN,,,,,,,,low,low,,,,,,false,,,,false,957783.3000000007,957783.1000000015,,957783,,957794.92,4,500,,
sequence,flow.Sequence,10_19,2023-11-14T21:59:08.339Z,,,,,,,,,,6805.012000001501,completion,,,,,,,low,low,,,,,,false,,,,false,957783.6000000015,957783.1000000015,950961.574,950975.6999999993,950978.088,957794.92,4,500,,
trial,html.Screen,10_20_0,2023-11-14T21:59:13.546Z,,,,1,0.0336891949856763,0.060314732178219,,false,ll,5194.979999998468,response,-0.3128231226759959,0.4794029928476335,-0.47180326242648996,-0.628790191965941,0.4719648630076197,-0.4679674669242691,low,low,,ISIC_6192289.JPG,8,ISIC_0026879.JPG,500,false,lh,keypress(e),0,false,962990.1000000015,962989.8999999985,957778.27,957783.6999999993,957794.92,962994.713,4,500,21,
break,html.Screen,10_20_1,2023-11-14T21:59:13.547Z,,,,,,,,,,NaN,,,,,,,,low,low,,,,,,false,,,,false,962991.1000000015,962990.8999999985,,962990.5,,962994.713,4,500,,
break_continue,html.Screen,10_20_2,2023-11-14T21:59:13.547Z,,,,,,,,,,NaN,,,,,,,,low,low,,,,,,false,,,,false,962991.6999999993,962991.5,,962991.1999999993,,962994.713,4,500,,
sequence,flow.Sequence,10_20,2023-11-14T21:59:13.547Z,,,,,,,,,,5196.579999999958,completion,,,,,,,low,low,,,,,,false,,,,false,962991.8999999985,962991.5,957778.27,957783.6999999993,957794.92,962994.713,4,500,,
trial,html.Screen,10_21_0,2023-11-14T21:59:18.549Z,,,,1,-0.0265457942157377,-0.0704357137706731,,false,lh,4995.087000000756,response,-0.3189568294835654,0.4794029928476335,-0.47180326242648996,0.4021677417920157,0.4719648630076197,-0.4679674669242691,low,high,,ISIC_3123377.JPG,9,ISIC_0217267.JPG,262,false,ll,keypress(f),0,false,967990.1000000015,967989.8000000007,962978.086,962992,962994.713,967994.729,4,500,22,
break,html.Screen,10_21_1,2023-11-14T21:59:18.550Z,,,,,,,,,,NaN,,,,,,,,low,high,,,,,,false,,,,false,967991,967990.8000000007,,967990.3999999985,,967994.729,4,500,,
break_continue,html.Screen,10_21_2,2023-11-14T21:59:18.550Z,,,,,,,,,,NaN,,,,,,,,low,high,,,,,,false,,,,false,967991.6999999993,967991.3999999985,,967991.1999999993,,967994.729,4,500,,
sequence,flow.Sequence,10_21,2023-11-14T21:59:18.551Z,,,,,,,,,,4996.686999998521,completion,,,,,,,low,high,,,,,,false,,,,false,967991.8999999985,967991.3999999985,962978.086,962992,962994.713,967994.729,4,500,,
trial,html.Screen,10_22_0,2023-11-14T21:59:24.429Z,,,,1,0.0050679133050021,-0.0009714874637896,,false,hl,5875.27099999995,response,0.5748814812101632,0.4794029928476335,-0.47180326242648996,-0.2769276359048525,0.4719648630076197,-0.4679674669242691,high,low,,ISIC_9848743.JPG,10,ISIC_0030995.JPG,291,false,hh,keypress(i),0,false,973870.1999999993,973870,967978.09,967992.1000000015,967994.729,973878.062,4,500,23,
break,html.Screen,10_22_1,2023-11-14T21:59:24.430Z,,,,,,,,,,NaN,,,,,,,,high,low,,,,,,false,,,,false,973871.1000000015,973871,,973870.6000000015,,973878.062,4,500,,
break_continue,html.Screen,10_22_2,2023-11-14T21:59:24.431Z,,,,,,,,,,NaN,,,,,,,,high,low,,,,,,false,,,,false,973871.8999999985,973871.6000000015,,973871.5,,973878.062,4,500,,
sequence,flow.Sequence,10_22,2023-11-14T21:59:24.431Z,,,,,,,,,,5876.87100000144,completion,,,,,,,high,low,,,,,,false,,,,false,973872.1000000015,973871.6000000015,967978.09,967992.1000000015,967994.729,973878.062,4,500,,
trial,html.Screen,10_23_0,2023-11-14T21:59:27.957Z,,,,1,0.0511770300585718,0.029030243555971,,false,hl,3519.8379999984754,response,0.53923985327424,0.4794029928476335,-0.47180326242648996,-0.3102187981192255,0.4719648630076197,-0.4679674669242691,high,low,,ISIC_6652978.JPG,9,ISIC_7423852.JPG,291,false,hh,keypress(i),0,false,977398.1000000015,977397.8999999985,973861.544,973872.3000000007,973878.062,977411.367,4,500,24,
break,html.Screen,10_23_1,2023-11-14T21:59:27.958Z,,,,,,,,,,NaN,,,,,,,,high,low,,,,,,false,,,,false,977399.1000000015,977398.8000000007,,977398.3999999985,,977411.367,4,500,,
break_continue,html.Screen,10_23_2,2023-11-14T21:59:27.958Z,,,,,,,,,,NaN,,,,,,,,high,low,,,,,,false,,,,false,977399.6999999993,977399.3999999985,,977399.3000000007,,977411.367,4,500,,
sequence,flow.Sequence,10_23,2023-11-14T21:59:27.959Z,,,,,,,,,,3521.3379999984754,completion,,,,,,,high,low,,,,,,false,,,,false,977399.8000000007,977399.3999999985,973861.544,973872.3000000007,973878.062,977411.367,4,500,,
trial,html.Screen,10_24_0,2023-11-14T21:59:31.036Z,,,,1,0.0651705891246238,-0.0394586219902573,,false,hl,3065.8329999992857,response,0.3030805565533877,0.4794029928476335,-0.47180326242648996,-0.6471209516816265,0.4719648630076197,-0.4679674669242691,high,low,,ISIC_0013491.JPG,9,ISIC_0029441.JPG,291,false,hh,keypress(i),0,false,980477.5,980477.1999999993,977394.712,977400,977411.367,980494.942,4,500,25,
break,html.Screen,10_24_1,2023-11-14T21:59:31.037Z,,,,,,,,,,NaN,,,,,,,,high,low,,,,,,false,,,,false,980478.3999999985,980478.1999999993,,980477.8000000007,,980494.942,4,500,,
break_continue,html.Screen,10_24_2,2023-11-14T21:59:31.038Z,,,,,,,,,,NaN,,,,,,,,high,low,,,,,,false,,,,false,980479,980478.8000000007,,980478.6000000015,,980494.942,4,500,,
sequence,flow.Sequence,10_24,2023-11-14T21:59:31.038Z,,,,,,,,,,3067.433000000776,completion,,,,,,,high,low,,,,,,false,,,,false,980479.3000000007,980478.8000000007,977394.712,977400,977411.367,980494.942,4,500,,
trial,html.Screen,10_25_0,2023-11-14T21:59:36.805Z,,,,1,-0.0097091270150747,0.0417921315885292,,false,hl,5750.757999999216,response,0.2952959979662586,0.4794029928476335,-0.47180326242648996,-0.5232891302424065,0.4719648630076197,-0.4679674669242691,high,low,,ISIC_3967213.JPG,9,ISIC_5659295.JPG,291,false,ll,keypress(f),0,false,986246,986245.6999999993,980478.05,980479.3999999985,980494.942,986261.575,4,500,26,
break,html.Screen,10_25_1,2023-11-14T21:59:36.806Z,,,,,,,,,,NaN,,,,,,,,high,low,,,,,,false,,,,false,986247,986246.6999999993,,986246.3999999985,,986261.575,4,500,,
break_continue,html.Screen,10_25_2,2023-11-14T21:59:36.806Z,,,,,,,,,,NaN,,,,,,,,high,low,,,,,,false,,,,false,986247.6000000015,986247.3000000007,,986247.1000000015,,986261.575,4,500,,
sequence,flow.Sequence,10_25,2023-11-14T21:59:36.807Z,,,,,,,,,,5752.358000000706,completion,,,,,,,high,low,,,,,,false,,,,false,986247.6999999993,986247.3000000007,980478.05,980479.3999999985,980494.942,986261.575,4,500,,
trial,html.Screen,10_26_0,2023-11-14T21:59:41.022Z,,,,1,-0.059471106306043,0.0678292174694111,,false,lh,4201.1249999993015,response,-0.3140002128813477,0.4794029928476335,-0.47180326242648996,0.653491773368386,0.4719648630076197,-0.4679674669242691,low,high,,ISIC_0015631.JPG,8,ISIC_0066470.JPG,262,false,ll,keypress(f),0,false,990462.8999999985,990462.6999999993,986244.834,986248,986261.575,990494.806,4,500,27,
break,html.Screen,10_26_1,2023-11-14T21:59:41.023Z,,,,,,,,,,NaN,,,,,,,,low,high,,,,,,false,,,,false,990463.8000000007,990463.6000000015,,990463.1999999993,,990494.806,4,500,,
break_continue,html.Screen,10_26_2,2023-11-14T21:59:41.023Z,,,,,,,,,,NaN,,,,,,,,low,high,,,,,,false,,,,false,990464.3000000007,990464.1000000015,,990464,,990494.806,4,500,,
sequence,flow.Sequence,10_26,2023-11-14T21:59:41.023Z,,,,,,,,,,4202.525000001537,completion,,,,,,,low,high,,,,,,false,,,,false,990464.5,990464.1000000015,986244.834,986248,986261.575,990494.806,4,500,,
trial,html.Screen,10_27_0,2023-11-14T21:59:45.012Z,,,,1,-0.0362376068089956,-0.047825070846155,,false,hh,3958.4940000007628,response,0.4176181360231383,0.4794029928476335,-0.47180326242648996,0.4850449404253323,0.4719648630076197,-0.4679674669242691,high,high,,ISIC_6985114.JPG,9,ISIC_9241732.JPG,408,false,lh,keypress(e),0,false,994453.6000000015,994453.3000000007,990478.076,990464.8000000007,990494.806,994461.273,4,500,28,
break,html.Screen,10_27_1,2023-11-14T21:59:45.013Z,,,,,,,,,,NaN,,,,,,,,high,high,,,,,,false,,,,false,994454.5,994454.3000000007,,994453.8999999985,,994461.273,4,500,,
break_continue,html.Screen,10_27_2,2023-11-14T21:59:45.014Z,,,,,,,,,,NaN,,,,,,,,high,high,,,,,,false,,,,false,994455.1000000015,994454.8000000007,,994454.6000000015,,994461.273,4,500,,
sequence,flow.Sequence,10_27,2023-11-14T21:59:45.014Z,,,,,,,,,,3959.9940000007628,completion,,,,,,,high,high,,,,,,false,,,,false,994455.3000000007,994454.8000000007,990478.076,990464.6000000015,990494.806,994461.273,4,500,,
trial,html.Screen,10_28_0,2023-11-14T21:59:49.549Z,,,,1,0.0116094682222121,-0.0258434522530318,,true,hh,4528.626999998465,response,0.5650432894099761,0.4794029928476335,-0.47180326242648996,0.4334005263819613,0.4719648630076197,-0.4679674669242691,high,high,,ISIC_9239632.JPG,8,ISIC_0033193.JPG,408,false,hh,keypress(i),0,false,998990.1999999993,998989.8999999985,994444.734,994455.3999999985,994461.273,998994.617,4,500,29,
break,html.Screen,10_28_1,2023-11-14T21:59:49.550Z,,,,,,,,,,NaN,,,,,,,,high,high,,,,,,false,,,,false,998991,998990.8000000007,,998990.3999999985,,998994.617,4,500,,
break_continue,html.Screen,10_28_2,2023-11-14T21:59:49.550Z,,,,,,,,,,NaN,,,,,,,,high,high,,,,,,false,,,,false,998991.5,998991.3999999985,,998991.1999999993,,998994.617,4,500,,
sequence,flow.Sequence,10_28,2023-11-14T21:59:49.551Z,,,,,,,,,,4530.126999998465,completion,,,,,,,high,high,,,,,,false,,,,false,998991.8000000007,998991.3999999985,994444.734,994455.3999999985,994461.273,998994.617,4,500,,
trial,html.Screen,10_29_0,2023-11-14T21:59:55.980Z,,,,1,-0.0112310719058792,0.0469047359904117,,false,hl,6426.683000000776,response,0.3953784142366808,0.4794029928476335,-0.47180326242648996,-0.5707782821012205,0.4719648630076197,-0.4679674669242691,high,low,,ISIC_0068184.JPG,9,ISIC_0032583.JPG,291,false,hh,keypress(i),0,false,1005421.5,1005421.3000000007,998977.912,998991.8000000007,998994.617,1005427.912,4,500,30,
break,html.Screen,10_29_1,2023-11-14T21:59:55.981Z,,,,,,,,,,NaN,,,,,,,,high,low,,,,,,false,,,,false,1005422.3999999985,1005422.3000000007,,1005421.8999999985,,1005427.912,4,500,,
break_continue,html.Screen,10_29_2,2023-11-14T21:59:55.982Z,,,,,,,,,,NaN,,,,,,,,high,low,,,,,,false,,,,false,1005423,1005422.8000000007,,1005422.6000000015,,1005427.912,4,500,,
sequence,flow.Sequence,10_29,2023-11-14T21:59:55.982Z,,,,,,,,,,6428.183000000776,completion,,,,,,,high,low,,,,,,false,,,,false,1005423.1999999993,1005422.8000000007,998977.912,998991.8000000007,998994.617,1005427.912,4,500,,
trial,html.Screen,10_30_0,2023-11-14T22:00:01.261Z,,,,1,-0.059471106306043,0.0678292174694111,,false,ll,5273.587999999989,response,-0.6593124058450796,0.4794029928476335,-0.47180326242648996,-0.652378809792996,0.4719648630076197,-0.4679674669242691,low,low,,ISIC_0015631.JPG,9,ISIC_4502605.JPG,500,false,lh,keypress(e),0,false,1010701.8000000007,1010701.5,1005411.474,1005423.3999999985,1005427.912,1010711.296,4,500,31,
break,html.Screen,10_30_1,2023-11-14T22:00:01.262Z,,,,,,,,,,NaN,,,,,,,,low,low,,,,,,false,,,,false,1010702.6999999993,1010702.5,,1010702.1000000015,,1010711.296,4,500,,
break_continue,html.Screen,10_30_2,2023-11-14T22:00:01.262Z,,,,,,,,,,NaN,,,,,,,,low,low,,,,,,false,,,,false,1010703.1999999993,1010703,,1010702.8000000007,,1010711.296,4,500,,
sequence,flow.Sequence,10_30,2023-11-14T22:00:01.262Z,,,,,,,,,,5275.087999999989,completion,,,,,,,low,low,,,,,,false,,,,false,1010703.3999999985,1010703,1005411.474,1005423.3000000007,1005427.912,1010711.296,4,500,,
trial,html.Screen,10_31_0,2023-11-14T22:00:07.358Z,,,,1,-0.0245376145053177,0.0436993426328401,,false,ll,6087.204000000027,response,-0.3700807547471507,0.4794029928476335,-0.47180326242648996,-0.5305655973487654,0.4719648630076197,-0.4679674669242691,low,low,,ISIC_0056444.JPG,9,ISIC_7959386.JPG,500,false,lh,keypress(e),0,false,1016798.8000000007,1016798.5,1010694.604,1010703.6000000015,1010711.296,1016811.41,4,500,32,
break,html.Screen,10_31_1,2023-11-14T22:00:07.359Z,,,,,,,,,,NaN,,,,,,,,low,low,,,,,,false,,,,false,1016799.6999999993,1016799.5,,1016799,,1016811.41,4,500,,
break_continue,html.Screen,10_31_2,2023-11-14T22:00:07.359Z,,,,,,,,,,NaN,,,,,,,,low,low,,,,,,false,,,,false,1016800.3000000007,1016800,,1016799.8999999985,,1016811.41,4,500,,
sequence,flow.Sequence,10_31,2023-11-14T22:00:07.359Z,,,,,,,,,,6088.704000000027,completion,,,,,,,low,low,,,,,,false,,,,false,1016800.6000000015,1016800,1010694.604,1010703.6000000015,1010711.296,1016811.41,4,500,,
trial,html.Screen,10_32_0,2023-11-14T22:00:11.699Z,,,,1,-0.0546386976779619,0.0448724759283131,,false,hh,4329.1900000014575,response,0.5006390137234473,0.4794029928476335,-0.47180326242648996,0.3115952887195506,0.4719648630076197,-0.4679674669242691,high,high,,ISIC_6722934.JPG,9,ISIC_0031070.JPG,408,false,ll,keypress(f),0,false,1021140.6000000015,1021140.6000000015,1016794.681,1016800.6999999993,1016811.41,1021144.563,4,500,33,
break,html.Screen,10_32_1,2023-11-14T22:00:11.700Z,,,,,,,,,,NaN,,,,,,,,high,high,,,,,,false,,,,false,1021141,1021140.8000000007,,1021140.8000000007,,1021144.563,4,500,,
break_continue,html.Screen,10_32_2,2023-11-14T22:00:11.700Z,,,,,,,,,,NaN,,,,,,,,high,high,,,,,,false,,,,false,1021141.1000000015,1021141,,1021141,,1021144.563,4,500,,
sequence,flow.Sequence,10_32,2023-11-14T22:00:11.700Z,,,,,,,,,,4329.589999999967,completion,,,,,,,high,high,,,,,,false,,,,false,1021141.1999999993,1021141,1016794.681,1016800.6999999993,1016811.41,1021144.563,4,500,,
trial,html.Screen,10_33_0,2023-11-14T22:00:17.437Z,,,,1,-0.0097091270150747,0.0417921315885292,,false,lh,5733.2370000007795,response,-0.3614888058435189,0.4794029928476335,-0.47180326242648996,0.4801172937216654,0.4719648630076197,-0.4679674669242691,low,high,,ISIC_3967213.JPG,9,ISIC_0032602.JPG,262,false,hl,keypress(j),0,false,1026877.8999999985,1026877.8000000007,1021128.119,1021141.1999999993,1021144.563,1026894.6,4,500,34,
break,html.Screen,10_33_1,2023-11-14T22:00:17.438Z,,,,,,,,,,NaN,,,,,,,,low,high,,,,,,false,,,,false,1026878.8999999985,1026878.6000000015,,1026878.1999999993,,1026894.6,4,500,,
break_continue,html.Screen,10_33_2,2023-11-14T22:00:17.438Z,,,,,,,,,,NaN,,,,,,,,low,high,,,,,,false,,,,false,1026879.3000000007,1026879.1999999993,,1026878.8999999985,,1026894.6,4,500,,
sequence,flow.Sequence,10_33,2023-11-14T22:00:17.438Z,,,,,,,,,,5734.636999999289,completion,,,,,,,low,high,,,,,,false,,,,false,1026879.5,1026879.1999999993,1021128.119,1021141.1999999993,1021144.563,1026894.6,4,500,,
trial,html.Screen,10_34_0,2023-11-14T22:00:25.432Z,,,,1,-0.0362376068089956,-0.047825070846155,,false,hl,7975.099999999278,response,0.2975800254826088,0.4794029928476335,-0.47180326242648996,-0.6154178500317298,0.4719648630076197,-0.4679674669242691,high,low,,ISIC_6985114.JPG,13,ISIC_0024246.JPG,291,false,ll,keypress(f),0,false,1034869.8999999985,1034869.6999999993,1026878.063,1026879.6000000015,1026894.6,1034877.863,4,500,35,
break,html.Screen,10_34_1,2023-11-14T22:00:25.433Z,,,,,,,,,,NaN,,,,,,,,high,low,,,,,,false,,,,false,1034870.8999999985,1034870.6000000015,,1034870.1999999993,,1034877.863,4,500,,
break_continue,html.Screen,10_34_2,2023-11-14T22:00:25.434Z,,,,,,,,,,NaN,,,,,,,,high,low,,,,,,false,,,,false,1034871.3999999985,1034871.3000000007,,1034871,,1034877.863,4,500,,
sequence,flow.Sequence,10_34,2023-11-14T22:00:25.434Z,,,,,,,,,,7976.700000000768,completion,,,,,,,high,low,,,,,,false,,,,false,1034871.6000000015,1034871.3000000007,1026878.063,1026879.6000000015,1026894.6,1034877.863,4,500,,
trial,html.Screen,10_35_0,2023-11-14T22:00:30.265Z,,,,1,-0.000047919190197942736,-0.0462652940855003,,true,hh,4824.437000000733,response,0.5173203086828168,0.4794029928476335,-0.47180326242648996,0.3930608698892448,0.4719648630076197,-0.4679674669242691,high,high,,ISIC_0011507.JPG,9,ISIC_0008251.JPG,408,false,hh,keypress(i),0,false,1039702.6000000015,1039702.3000000007,1034861.056,1034871.8999999985,1034877.863,1039711.222,4,500,36,
break,html.Screen,10_35_1,2023-11-14T22:00:30.266Z,,,,,,,,,,NaN,,,,,,,,high,high,,,,,,false,,,,false,1039703.6000000015,1039703.3000000007,,1039702.8999999985,,1039711.222,4,500,,
break_continue,html.Screen,10_35_2,2023-11-14T22:00:30.266Z,,,,,,,,,,NaN,,,,,,,,high,high,,,,,,false,,,,false,1039704.1000000015,1039703.8999999985,,1039703.6999999993,,1039711.222,4,500,,
sequence,flow.Sequence,10_35,2023-11-14T22:00:30.267Z,,,,,,,,,,4826.036999998498,completion,,,,,,,high,high,,,,,,false,,,,false,1039704.3999999985,1039703.8999999985,1034861.056,1034871.8000000007,1034877.863,1039711.222,4,500,,
trial,html.Screen,10_36_0,2023-11-14T22:00:32.391Z,,,,1,-0.0051189696037511,0.0396625911332438,,true,hh,2117.2780000000494,response,0.336230536137538,0.4794029928476335,-0.47180326242648996,0.3168605614718344,0.4719648630076197,-0.4679674669242691,high,high,,ISIC_9742891.JPG,8,ISIC_0014347.JPG,408,false,hh,keypress(i),0,false,1041828.6000000015,1041828.5,1039694.678,1039704.5,1039711.222,1041844.785,4,500,37,
break,html.Screen,10_36_1,2023-11-14T22:00:32.391Z,,,,,,,,,,NaN,,,,,,,,high,high,,,,,,false,,,,false,1041828.8999999985,1041828.8000000007,,1041828.6999999993,,1041844.785,4,500,,
break_continue,html.Screen,10_36_2,2023-11-14T22:00:32.391Z,,,,,,,,,,NaN,,,,,,,,high,high,,,,,,false,,,,false,1041829.1000000015,1041829,,1041828.8999999985,,1041844.785,4,500,,
sequence,flow.Sequence,10_36,2023-11-14T22:00:32.391Z,,,,,,,,,,2117.7780000000494,completion,,,,,,,high,high,,,,,,false,,,,false,1041829.1999999993,1041829,1039694.678,1039704.5,1039711.222,1041844.785,4,500,,
trial,html.Screen,10_37_0,2023-11-14T22:00:41.104Z,,,,1,-0.0159061451859594,-0.0296598845560212,,true,ll,8696.714999999967,response,-0.4208403112269333,0.4794029928476335,-0.47180326242648996,-0.2892667404614093,0.4719648630076197,-0.4679674669242691,low,low,,ISIC_0072564.JPG,9,ISIC_0057083.JPG,500,false,ll,keypress(f),0,false,1050541.8000000007,1050541.5,1041827.94,1041829.1999999993,1041844.785,1050544.547,4,500,38,
break,html.Screen,10_37_1,2023-11-14T22:00:41.105Z,,,,,,,,,,NaN,,,,,,,,low,low,,,,,,false,,,,false,1050542.8000000007,1050542.5,,1050542.1000000015,,1050544.547,4,500,,
break_continue,html.Screen,10_37_2,2023-11-14T22:00:41.105Z,,,,,,,,,,NaN,,,,,,,,low,low,,,,,,false,,,,false,1050543.3000000007,1050543.1000000015,,1050542.8999999985,,1050544.547,4,500,,
sequence,flow.Sequence,10_37,2023-11-14T22:00:41.106Z,,,,,,,,,,8698.315000001458,completion,,,,,,,low,low,,,,,,false,,,,false,1050543.5,1050543.1000000015,1041827.94,1041829.1999999993,1041844.785,1050544.547,4,500,,
trial,html.Screen,10_38_0,2023-11-14T22:00:45.696Z,,,,1,0.039728379742806,-0.0228701131373768,,false,ll,4589.05300000147,response,-0.6502708456331212,0.4794029928476335,-0.47180326242648996,-0.4539121124293258,0.4719648630076197,-0.4679674669242691,low,low,,ISIC_0054073.JPG,9,ISIC_3746471.JPG,500,false,hl,keypress(j),0,false,1055133.8000000007,1055133.6000000015,1050528.065,1050543.6999999993,1050544.547,1055144.636,4,500,39,
break,html.Screen,10_38_1,2023-11-14T22:00:45.697Z,,,,,,,,,,NaN,,,,,,,,low,low,,,,,,false,,,,false,1055134.6999999993,1055134.5,,1055134.1999999993,,1055144.636,4,500,,
break_continue,html.Screen,10_38_2,2023-11-14T22:00:45.697Z,,,,,,,,,,NaN,,,,,,,,low,low,,,,,,false,,,,false,1055135.3000000007,1055135.1000000015,,1055134.8999999985,,1055144.636,4,500,,
sequence,flow.Sequence,10_38,2023-11-14T22:00:45.698Z,,,,,,,,,,4590.55300000147,completion,,,,,,,low,low,,,,,,false,,,,false,1055135.5,1055135.1000000015,1050528.065,1050543.6000000015,1050544.547,1055144.636,4,500,,
trial,html.Screen,10_39_0,2023-11-14T22:00:51.110Z,,,,1,-0.0159061451859594,-0.0296598845560212,,true,hl,5403.563999999315,response,0.3918551360003713,0.4794029928476335,-0.47180326242648996,-0.5135147066019021,0.4719648630076197,-0.4679674669242691,high,low,,ISIC_0072564.JPG,9,ISIC_7806612.JPG,291,false,hl,keypress(j),0,false,1060548.3000000007,1060548.1999999993,1055127.717,1055135.6999999993,1055144.636,1060561.189,4,500,40,
break,html.Screen,10_39_1,2023-11-14T22:00:51.111Z,,,,,,,,,,NaN,,,,,,,,high,low,,,,,,false,,,,false,1060548.6000000015,1060548.5,,1060548.3999999985,,1060561.189,4,500,,
break_continue,html.Screen,10_39_2,2023-11-14T22:00:51.111Z,,,,,,,,,,NaN,,,,,,,,high,low,,,,,,false,,,,false,1060548.6999999993,1060548.6999999993,,1060548.6999999993,,1060561.189,4,500,,
sequence,flow.Sequence,10_39,2023-11-14T22:00:51.111Z,,,,,,,,,,5404.063999999315,completion,,,,,,,high,low,,,,,,false,,,,false,1060548.8000000007,1060548.6999999993,1055127.717,1055135.6999999993,1055144.636,1060561.189,4,500,,
trial,html.Screen,10_40_0,2023-11-14T22:00:57.016Z,,,,1,-0.0691769743257167,0.0638501824668941,,false,lh,5892.210999998497,response,-0.5709796414825712,0.4794029928476335,-0.47180326242648996,0.40565424846634,0.4719648630076197,-0.4679674669242691,low,high,,ISIC_0031914.JPG,9,ISIC_6285076.JPG,262,false,ll,keypress(f),0,false,1066453.6000000015,1066453.3999999985,1060544.586,1060548.8000000007,1060561.189,1066461.064,4,500,41,
break,html.Screen,10_40_1,2023-11-14T22:00:57.017Z,,,,,,,,,,NaN,,,,,,,,low,high,,,,,,false,,,,false,1066454.5,1066454.3000000007,,1066453.8999999985,,1066461.064,4,500,,
break_continue,html.Screen,10_40_2,2023-11-14T22:00:57.017Z,,,,,,,,,,NaN,,,,,,,,low,high,,,,,,false,,,,false,1066455.1000000015,1066454.8999999985,,1066454.6999999993,,1066461.064,4,500,,
sequence,flow.Sequence,10_40,2023-11-14T22:00:57.017Z,,,,,,,,,,5893.710999998497,completion,,,,,,,low,high,,,,,,false,,,,false,1066455.3000000007,1066454.8999999985,1060544.586,1060548.8000000007,1060561.189,1066461.064,4,500,,
trial,html.Screen,10_41_0,2023-11-14T22:01:00.688Z,,,,1,0.0401045651353626,0.053461375824197,,false,ll,3664.536000001477,response,-0.6416907254343669,0.4794029928476335,-0.47180326242648996,-0.578449103549654,0.4719648630076197,-0.4679674669242691,low,low,,ISIC_6483504.JPG,9,ISIC_2707664.JPG,500,false,hh,keypress(i),0,false,1070125.8999999985,1070125.6000000015,1066444.584,1066455.5,1066461.064,1070127.828,4,500,42,
break,html.Screen,10_41_1,2023-11-14T22:01:00.689Z,,,,,,,,,,NaN,,,,,,,,low,low,,,,,,false,,,,false,1070126.8000000007,1070126.6000000015,,1070126.1999999993,,1070127.828,4,500,,
break_continue,html.Screen,10_41_2,2023-11-14T22:01:00.690Z,,,,,,,,,,NaN,,,,,,,,low,low,,,,,,false,,,,false,1070127.3999999985,1070127.1999999993,,1070127,,1070127.828,4,500,,
sequence,flow.Sequence,10_41,2023-11-14T22:01:00.690Z,,,,,,,,,,3666.135999999242,completion,,,,,,,low,low,,,,,,false,,,,false,1070127.6999999993,1070127.1999999993,1066444.584,1066455.3999999985,1066461.064,1070127.828,4,500,,
trial,html.Screen,10_42_0,2023-11-14T22:01:05.936Z,,,,1,0.0070725527271049,0.0049995141077508,,false,hh,5245.57199999853,response,0.2919426892079227,0.4794029928476335,-0.47180326242648996,0.5918942242478449,0.4719648630076197,-0.4679674669242691,high,high,,ISIC_6124481.JPG,9,ISIC_0403458.JPG,408,false,ll,keypress(f),0,false,1075373.8000000007,1075373.3999999985,1070111.071,1070127.8000000007,1070127.828,1075377.799,4,500,43,
break,html.Screen,10_42_1,2023-11-14T22:01:05.937Z,,,,,,,,,,NaN,,,,,,,,high,high,,,,,,false,,,,false,1075374.6000000015,1075374.3999999985,,1075374.1000000015,,1075377.799,4,500,,
break_continue,html.Screen,10_42_2,2023-11-14T22:01:05.937Z,,,,,,,,,,NaN,,,,,,,,high,high,,,,,,false,,,,false,1075375.1999999993,1075374.8999999985,,1075374.8000000007,,1075377.799,4,500,,
sequence,flow.Sequence,10_42,2023-11-14T22:01:05.938Z,,,,,,,,,,5247.07199999853,completion,,,,,,,high,high,,,,,,false,,,,false,1075375.3999999985,1075374.8999999985,1070111.071,1070127.8000000007,1070127.828,1075377.799,4,500,,
trial,html.Screen,10_43_0,2023-11-14T22:01:08.512Z,,,,1,,-0.0264544974620926,,true,ll,2571.8010000013746,response,-0.4099598584619202,0.4794029928476335,-0.47180326242648996,-0.4809555343897574,0.4719648630076197,-0.4679674669242691,low,low,,ISIC_0056991.JPG,8,ISIC_3966064.JPG,500,false,ll,keypress(f),0,false,1077950,1077949.6000000015,1075361.201,1075375.6000000015,1075377.799,1077961.104,4,500,44,
break,html.Screen,10_43_1,2023-11-14T22:01:08.513Z,,,,,,,,,,NaN,,,,,,,,low,low,,,,,,false,,,,false,1077950.8999999985,1077950.6000000015,,1077950.1999999993,,1077961.104,4,500,,
break_continue,html.Screen,10_43_2,2023-11-14T22:01:08.514Z,,,,,,,,,,NaN,,,,,,,,low,low,,,,,,false,,,,false,1077951.5,1077951.1999999993,,1077951.1000000015,,1077961.104,4,500,,
sequence,flow.Sequence,10_43,2023-11-14T22:01:08.514Z,,,,,,,,,,2573.4009999991395,completion,,,,,,,low,low,,,,,,false,,,,false,1077951.6999999993,1077951.1999999993,1075361.201,1075375.5,1075377.799,1077961.104,4,500,,
trial,html.Screen,10_44_0,2023-11-14T22:01:19.511Z,,,,1,0.0324770283903853,0.0249968632204382,,,,11016.851000000024,timeout,-0.4680958751229519,0.4794029928476335,-0.47180326242648996,-0.4580331684165897,0.4719648630076197,-0.4679674669242691,low,low,,ISIC_7266462.JPG,10,ISIC_0871853.JPG,500,false,,,0,false,1088945.3999999985,1088945.1999999993,1077944.608,1077951.8999999985,1077961.104,1088977.955,4,500,45,
break,html.Screen,10_44_1,2023-11-14T22:01:19.512Z,,,,,,,,,,NaN,,,,,,,,low,low,,,,,,false,,,,false,1088946.3999999985,1088946.1999999993,,1088945.8000000007,,1088977.955,4,500,,
break_continue,html.Screen,10_44_2,2023-11-14T22:01:19.512Z,,,,,,,,,,NaN,,,,,,,,low,low,,,,,,false,,,,false,1088947,1088946.8000000007,,1088946.6000000015,,1088977.955,4,500,,
sequence,flow.Sequence,10_44,2023-11-14T22:01:19.513Z,,,,,,,,,,10985.696000000695,completion,,,,,,,low,low,,,,,,false,,,,false,1088947.1999999993,1088946.8000000007,1077944.608,1077951.8999999985,1077961.104,1088977.955,4,500,,
trial,html.Screen,10_45_0,2023-11-14T22:01:24.651Z,,,,1,-0.0516762988734011,0.0130195499281172,,false,ll,5107.645000001416,response,-0.2720622905324268,0.4794029928476335,-0.47180326242648996,-0.2716928509063949,0.4719648630076197,-0.4679674669242691,low,low,,ISIC_9978498.JPG,9,ISIC_9382494.JPG,500,false,lh,keypress(e),0,false,1094085.8999999985,1094085.6000000015,1088961.282,1088947.5,1088977.955,1094094.35,4,500,46,
break,html.Screen,10_45_1,2023-11-14T22:01:24.652Z,,,,,,,,,,NaN,,,,,,,,low,low,,,,,,false,,,,false,1094086.8000000007,1094086.6000000015,,1094086.1999999993,,1094094.35,4,500,,
break_continue,html.Screen,10_45_2,2023-11-14T22:01:24.653Z,,,,,,,,,,NaN,,,,,,,,low,low,,,,,,false,,,,false,1094087.5,1094087.3000000007,,1094087,,1094094.35,4,500,,
sequence,flow.Sequence,10_45,2023-11-14T22:01:24.653Z,,,,,,,,,,5109.345000000671,completion,,,,,,,low,low,,,,,,false,,,,false,1094087.8000000007,1094087.3000000007,1088961.282,1088947.3999999985,1088977.955,1094094.35,4,500,,
trial,html.Screen,10_46_0,2023-11-14T22:01:31.585Z,,,,1,-0.0362376068089956,-0.047825070846155,,false,hh,6925.049999998417,response,0.3132563628336728,0.4794029928476335,-0.47180326242648996,0.4368288525601725,0.4719648630076197,-0.4679674669242691,high,high,,ISIC_6985114.JPG,9,ISIC_8409262.JPG,408,false,hl,keypress(j),0,false,1101019.5,1101019.3999999985,1094077.741,1094088,1094094.35,1101027.622,4,500,47,
break,html.Screen,10_46_1,2023-11-14T22:01:31.585Z,,,,,,,,,,NaN,,,,,,,,high,high,,,,,,false,,,,false,1101020,1101019.8000000007,,1101019.6000000015,,1101027.622,4,500,,
break_continue,html.Screen,10_46_2,2023-11-14T22:01:31.586Z,,,,,,,,,,NaN,,,,,,,,high,high,,,,,,false,,,,false,1101020.3000000007,1101020.1999999993,,1101020.1000000015,,1101027.622,4,500,,
sequence,flow.Sequence,10_46,2023-11-14T22:01:31.586Z,,,,,,,,,,6925.849999999162,completion,,,,,,,high,high,,,,,,false,,,,false,1101020.3000000007,1101020.1999999993,1094077.741,1094087.8999999985,1094094.35,1101027.622,4,500,,
trial,html.Screen,10_47_0,2023-11-14T22:01:40.409Z,,,,1,-0.0533723079251252,-0.0299718727255261,,false,hl,8816.277999998536,response,0.500459798773503,0.4794029928476335,-0.47180326242648996,-0.4654789744307376,0.4719648630076197,-0.4679674669242691,high,low,,ISIC_6562871.JPG,10,ISIC_7626256.JPG,291,false,ll,keypress(f),0,false,1109843.8999999985,1109843.8999999985,1101011.089,1101020.3999999985,1101027.622,1109877.914,4,500,48,
break,html.Screen,10_47_1,2023-11-14T22:01:40.410Z,,,,,,,,,,NaN,,,,,,,,high,low,,,,,,false,,,,false,1109844.1999999993,1109844.1000000015,,1109844,,1109877.914,4,500,,
break_continue,html.Screen,10_47_2,2023-11-14T22:01:40.410Z,,,,,,,,,,NaN,,,,,,,,high,low,,,,,,false,,,,false,1109844.3000000007,1109844.3000000007,,1109844.1999999993,,1109877.914,4,500,,
sequence,flow.Sequence,10_47,2023-11-14T22:01:40.410Z,,,,,,,,,,8816.678000000771,completion,,,,,,,high,low,,,,,,false,,,,false,1109844.3999999985,1109844.3000000007,1101011.089,1101020.3999999985,1101027.622,1109877.914,4,500,,
trial,html.Screen,10_48_0,2023-11-14T22:01:44.980Z,,,,1,0.0111354529246037,-0.0585810480909377,,false,hh,4536.285999999149,response,0.4831545700042378,0.4794029928476335,-0.47180326242648996,0.3470767966996619,0.4719648630076197,-0.4679674669242691,high,high,,ISIC_7858034.JPG,8,ISIC_6132976.JPG,408,false,lh,keypress(e),0,false,1114414.5,1114414.1999999993,1109861.217,1109844.5,1109877.914,1114427.723,4,500,49,
break,html.Screen,10_48_1,2023-11-14T22:01:44.981Z,,,,,,,,,,NaN,,,,,,,,high,high,,,,,,false,,,,false,1114415.3999999985,1114415.1999999993,,1114414.8000000007,,1114427.723,4,500,,
break_continue,html.Screen,10_48_2,2023-11-14T22:01:44.981Z,,,,,,,,,,NaN,,,,,,,,high,high,,,,,,false,,,,false,1114415.8999999985,1114415.8000000007,,1114415.6000000015,,1114427.723,4,500,,
sequence,flow.Sequence,10_48,2023-11-14T22:01:44.982Z,,,,,,,,,,4537.886000000639,completion,,,,,,,high,high,,,,,,false,,,,false,1114416.1999999993,1114415.8000000007,1109861.217,1109844.5,1109877.914,1114427.723,4,500,,
trial,html.Screen,10_49_0,2023-11-14T22:01:49.131Z,,,,1,-0.040191644178716,0.0622582668671422,,false,lh,4137.976999999257,response,-0.4445101907867155,0.4794029928476335,-0.47180326242648996,0.6256922378239274,0.4719648630076197,-0.4679674669242691,low,high,,ISIC_6207688.JPG,9,ISIC_0033174.JPG,262,false,hl,keypress(j),0,false,1118565.8999999985,1118565.6999999993,1114410.998,1114416.3000000007,1114427.723,1118577.784,4,500,50,
break,html.Screen,10_49_1,2023-11-14T22:01:49.132Z,,,,,,,,,,NaN,,,,,,,,low,high,,,,,,false,,,,false,1118566.8000000007,1118566.6000000015,,1118566.3000000007,,1118577.784,4,500,,
