sender,sender_type,sender_id,timestamp,meta,,age,blockNo,c1,c2,condition,correct,correctResponse,duration,ended_on,f1,f1_high,f1_low,f2,f2_high,f2_low,feature_level1,feature_level2,gender,img_left,img_reveal,img_right,n_target_images,practice,response,response_action,selection_duration,staircase,time_commit,time_end,time_render,time_run,time_show,time_switch,total_blocks,total_trials,trialNo,url
informed_consent,html.Screen,0,2023-11-13T22:01:19.826Z,"{""labjs_version"":""20.2.4"",""labjs_build"":{""flavor"":""development"",""commit"":""f5b4a49f956347addd546a832a3327688c2c0fef""},""location"":""https://labjs.felixhenninger.com/api/labjs_preview/index.html"",""userAgent"":""Mozilla/5.0 (Windows NT 10.0; Win64; x64) AppleWebKit/537.36 (KHTML, like Gecko) Chrome/119.0.0.0 Safari/537.36"",""platform"":""Win32"",""language"":""en-US"",""locale"":""en-US"",""timeZone"":""America/Chicago"",""timezoneOffset"":360,""screen_width"":2560,""screen_height"":1440,""scroll_width"":2560,""scroll_height"":1326,""window_innerWidth"":2560,""window_innerHeight"":1374,""devicePixelRatio"":1}",,,,,,,,,3966030.0270000715,response,,,,,,,,,,,,,,,consent,click button,,,3966440.5,3966429.3000000715,382.612,483.39999997615814,399.273,3966340.45,,,,{}
Demography form,html.Form,1,2023-11-13T22:01:35.100Z,,,19,,,,,,,15373.750000047497,form submission,,,,,,,,,female,,,,,,,,,,3981714.2000000477,3981714.2000000477,3966324.096,3966440.899999976,3966340.45,3981636.343,,,,
Welcome,html.Screen,2,2023-11-13T22:01:40.784Z,,,,,,,"[""bor"",""sym""]",,,5760.9570000716485,response,,,,,,,,,,,,,,,continue,click button,,,3987398,3987397.3000000715,3981619.693,3981714.3000000715,3981636.343,3987307.784,,,,
demo_instructions,html.Screen,3,2023-11-13T22:01:44.967Z,,,,,,,,,,4273.416000047699,response,,,,,,,,,,,,,,,continue,click button,,,3991581.8000000715,3991581.2000000477,3987291.43,3987398.2000000477,3987307.784,3991511.289,,,,
trial,html.Screen,4_0_0,2023-11-13T22:01:50.637Z,,,,0,0.9633172970727744,-0.8579451262594331,,false,lh,5739.8110000239685,response,-0.7991077882008257,0.9499999999999997,-0.9499999999999997,0.9873794329144926,0.9499999999999997,-0.9499999999999997,low,high,,ISIC_0067172.JPG,,ISIC_0013498.JPG,26,true,hh,keypress(i),100,false,3997251.7000000477,3997251.100000024,3991494.601,3991582,3991511.289,3997182.687,1,16,1,
sequence,flow.Sequence,4_0,2023-11-13T22:01:50.638Z,,,,,,,,,,5739.8110000239685,completion,,,,,,,low,high,,,,,,true,,,,false,3997252.399999976,3997251.100000024,3991494.601,3991582,3991511.289,3997182.687,1,16,,
trial,html.Screen,4_1_0,2023-11-13T22:02:08.773Z,,,,0,0.9397921099839784,-0.991282840649944,,false,lh,18203.613000071608,response,-1.088524359911891,0.9499999999999997,-0.9499999999999997,1.0213365328004047,0.9499999999999997,-0.9499999999999997,low,high,,ISIC_0000463.JPG,,ISIC_5434229.JPG,26,true,ll,keypress(f),100,false,4015387.100000024,4015386.3000000715,3997166,3997252.8000000715,3997182.687,4015314.614,1,16,2,
sequence,flow.Sequence,4_1,2023-11-13T22:02:08.774Z,,,,,,,,,,18203.613000071608,completion,,,,,,,low,high,,,,,,true,,,,false,4015388,4015386.3000000715,3997166,3997252.7000000477,3997182.687,4015314.614,1,16,,
trial,html.Screen,4_2_0,2023-11-13T22:02:14.127Z,,,,0,0.944560381774994,-1.1181734135756094,,true,lh,5425.586000047624,response,-0.9298580423306444,0.9499999999999997,-0.9499999999999997,0.8655167308525522,0.9499999999999997,-0.9499999999999997,low,high,,ISIC_9688534.JPG,,ISIC_4603706.JPG,26,true,lh,keypress(e),100,false,4020741,4020740.2000000477,4015297.724,4015388.5,4015314.614,4020668.627,1,16,3,
sequence,flow.Sequence,4_2,2023-11-13T22:02:14.128Z,,,,,,,,,,5425.586000047624,completion,,,,,,,low,high,,,,,,true,,,,false,4020742.100000024,4020740.2000000477,4015297.724,4015388.399999976,4015314.614,4020668.627,1,16,,
trial,html.Screen,4_3_0,2023-11-13T22:02:18.981Z,,,,0,0.7692916291112835,-0.7933921755497018,,true,lh,5108.673000071663,response,-0.79533948698576,0.9499999999999997,-0.9499999999999997,0.9388660854518424,0.9499999999999997,-0.9499999999999997,low,high,,ISIC_7844825.JPG,,ISIC_9291926.JPG,26,true,lh,keypress(e),100,false,4025777.899999976,4025777.3000000715,4020651.958,4020742.8000000715,4020668.627,4025706.54,1,16,4,
sequence,flow.Sequence,4_3,2023-11-13T22:02:18.982Z,,,,,,,,,,5108.673000071663,completion,,,,,,,low,high,,,,,,true,,,,false,4025778.8000000715,4025777.3000000715,4020651.958,4020742.600000024,4020668.627,4025706.54,1,16,,
trial,html.Screen,4_4_0,2023-11-13T22:02:24.415Z,,,,0,0.7951271207785265,0.964474443901612,,true,ll,5505.1600000476465,response,-0.8493817247965978,0.9499999999999997,-0.9499999999999997,-1.007248440493079,0.9499999999999997,-0.9499999999999997,low,low,,ISIC_8325260.JPG,,ISIC_0030219.JPG,142,true,ll,keypress(f),100,false,4031212.3000000715,4031211.7000000477,4025689.641,4025779.100000024,4025706.54,4031144.09,1,16,5,
sequence,flow.Sequence,4_4,2023-11-13T22:02:24.416Z,,,,,,,,,,5505.1600000476465,completion,,,,,,,low,low,,,,,,true,,,,false,4031213.100000024,4031211.7000000477,4025689.641,4025779,4025706.54,4031144.09,1,16,,
trial,html.Screen,4_5_0,2023-11-13T22:02:28.568Z,,,,0,0.8498834948129796,1.0865311574527308,,true,ll,4220.710000071675,response,-0.8723650867900061,0.9499999999999997,-0.9499999999999997,-0.9612329482175124,0.9499999999999997,-0.9499999999999997,low,low,,ISIC_0000296.JPG,,ISIC_4563766.JPG,142,true,ll,keypress(f),100,false,4035365.399999976,4035364.8000000715,4031127.387,4031213.399999976,4031144.09,4035297.663,1,16,6,
sequence,flow.Sequence,4_5,2023-11-13T22:02:28.569Z,,,,,,,,,,4220.710000071675,completion,,,,,,,low,low,,,,,,true,,,,false,4035366,4035364.8000000715,4031127.387,4031213.3000000715,4031144.09,4035297.663,1,16,,
trial,html.Screen,4_6_0,2023-11-13T22:02:35.074Z,,,,0,0.8525034055687026,0.9303508808523768,,true,ll,6573.1370000713505,response,-0.8258046477520162,0.9499999999999997,-0.9499999999999997,-0.8995154199215303,0.9499999999999997,-0.9499999999999997,low,low,,ISIC_0029909.JPG,,ISIC_6345354.JPG,142,true,ll,keypress(f),100,false,4041871,4041870.8000000715,4035280.842,4035366.2000000477,4035297.663,4041802.891,1,16,7,
sequence,flow.Sequence,4_6,2023-11-13T22:02:35.074Z,,,,,,,,,,6573.1370000713505,completion,,,,,,,low,low,,,,,,true,,,,false,4041871.3000000715,4041870.8000000715,4035280.842,4035366.100000024,4035297.663,4041802.891,1,16,,
trial,html.Screen,4_7_0,2023-11-13T22:02:47.465Z,,,,0,1.0694936015783003,1.0005520482328611,,true,ll,12458.50899997633,response,-1.0355093302574103,0.9499999999999997,-0.9499999999999997,-0.8323753563397326,0.9499999999999997,-0.9499999999999997,low,low,,ISIC_0059891.JPG,,ISIC_0046729.JPG,142,true,ll,keypress(f),100,false,4054261.7000000477,4054261.399999976,4041786.2,4041871.399999976,4041802.891,4054196.586,1,16,8,
sequence,flow.Sequence,4_7,2023-11-13T22:02:47.465Z,,,,,,,,,,12458.50899997633,completion,,,,,,,low,low,,,,,,true,,,,false,4054262,4054261.399999976,4041786.2,4041871.3000000715,4041802.891,4054196.586,1,16,,
trial,html.Screen,4_8_0,2023-11-13T22:02:52.991Z,,,,0,-0.801867301188093,0.8816288864119318,,true,hl,5591.413999999873,response,0.944560381774994,0.9499999999999997,-0.9499999999999997,-1.1181734135756094,0.9499999999999997,-0.9499999999999997,high,low,,ISIC_9196783.JPG,,ISIC_9688534.JPG,28,true,hl,keypress(j),100,false,4059788.5,4059788,4054180.065,4054262.2000000477,4054196.586,4059717.976,1,16,9,
sequence,flow.Sequence,4_8,2023-11-13T22:02:52.992Z,,,,,,,,,,5591.413999999873,completion,,,,,,,high,low,,,,,,true,,,,false,4059789.100000024,4059788,4054180.065,4054262.100000024,4054196.586,4059717.976,1,16,,
trial,html.Screen,4_9_0,2023-11-13T22:03:04.697Z,,,,0,-0.7991077882008257,0.9873794329144926,,true,hl,11775.524000000209,response,0.8082541692781954,0.9499999999999997,-0.9499999999999997,-1.0656673213158945,0.9499999999999997,-0.9499999999999997,high,low,,ISIC_0013498.JPG,,ISIC_0033985.JPG,28,true,hl,keypress(j),100,false,4071493.899999976,4071493.5,4059701.05,4059789.399999976,4059717.976,4071427.377,1,16,10,
sequence,flow.Sequence,4_9,2023-11-13T22:03:04.697Z,,,,,,,,,,11775.524000000209,completion,,,,,,,high,low,,,,,,true,,,,false,4071494.3000000715,4071493.5,4059701.05,4059789.3000000715,4059717.976,4071427.377,1,16,,
trial,html.Screen,4_10_0,2023-11-13T22:03:11.728Z,,,,0,-1.005337148078696,0.809764442462202,,true,hl,7097.123000000138,response,0.8880533324432531,0.9499999999999997,-0.9499999999999997,-0.869932994914832,0.9499999999999997,-0.9499999999999997,high,low,,ISIC_2379379.JPG,,ISIC_8617084.JPG,28,true,hl,keypress(j),100,false,4078525,4078524.5,4071410.958,4071494.600000024,4071427.377,4078450.116,1,16,11,
sequence,flow.Sequence,4_10,2023-11-13T22:03:11.729Z,,,,,,,,,,7097.123000000138,completion,,,,,,,high,low,,,,,,true,,,,false,4078525.899999976,4078524.5,4071410.958,4071494.5,4071427.377,4078450.116,1,16,,
trial,html.Screen,4_11_0,2023-11-13T22:03:16.472Z,,,,0,-1.088524359911891,1.0213365328004047,,true,hl,4818.884000000078,response,1.0582071940347648,0.9499999999999997,-0.9499999999999997,-0.9433720631499012,0.9499999999999997,-0.9499999999999997,high,low,,ISIC_5434229.JPG,,ISIC_4890201.JPG,28,true,hl,keypress(j),100,false,4083269.399999976,4083269,4078433.215,4078526.3000000715,4078450.116,4083203.74,1,16,12,
sequence,flow.Sequence,4_11,2023-11-13T22:03:16.473Z,,,,,,,,,,4818.884000000078,completion,,,,,,,high,low,,,,,,true,,,,false,4083270,4083269,4078433.215,4078526.100000024,4078450.116,4083203.74,1,16,,
trial,html.Screen,4_12_0,2023-11-13T22:03:27.192Z,,,,0,-1.0208498389771272,-1.072671714258808,,true,hh,10968.259999999776,response,1.0292526683018866,0.9499999999999997,-0.9499999999999997,1.0088070132449485,0.9499999999999997,-0.9499999999999997,high,high,,ISIC_5218773.JPG,,ISIC_0059314.JPG,167,true,hh,keypress(i),100,false,4094172.600000024,4094172,4083187.144,4083270.2000000477,4083203.74,4094096.197,1,16,13,
sequence,flow.Sequence,4_12,2023-11-13T22:03:27.193Z,,,,,,,,,,10968.259999999776,completion,,,,,,,high,high,,,,,,true,,,,false,4094173.5,4094172,4083187.144,4083270.2000000477,4083203.74,4094096.197,1,16,,
trial,html.Screen,4_13_0,2023-11-13T22:03:36.514Z,,,,0,-0.9536353804316964,-1.0270718265914571,,true,hh,9397.702999975998,response,0.8064601045837071,0.9499999999999997,-0.9499999999999997,0.7593404817744267,0.9499999999999997,-0.9499999999999997,high,high,,ISIC_3431915.JPG,,ISIC_0010278.JPG,167,true,hh,keypress(i),100,false,4103494.5,4103493.899999976,4094079.56,4094174,4094096.197,4103420.577,1,16,14,
sequence,flow.Sequence,4_13,2023-11-13T22:03:36.515Z,,,,,,,,,,9397.702999975998,completion,,,,,,,high,high,,,,,,true,,,,false,4103495.2000000477,4103493.899999976,4094079.56,4094173.899999976,4094096.197,4103420.577,1,16,,
trial,html.Screen,4_14_0,2023-11-13T22:03:40.332Z,,,,0,-1.1267239445830604,-1.0717785279820962,,true,hh,3891.0230000237934,response,1.044525830449456,0.9499999999999997,-0.9499999999999997,0.8809051780367407,0.9499999999999997,-0.9499999999999997,high,high,,ISIC_9948815.JPG,,ISIC_0029212.JPG,167,true,hh,keypress(i),100,false,4107312.100000024,4107311.600000024,4103403.861,4103495.600000024,4103420.577,4107240.444,1,16,15,
sequence,flow.Sequence,4_14,2023-11-13T22:03:40.332Z,,,,,,,,,,3891.0230000237934,completion,,,,,,,high,high,,,,,,true,,,,false,4107312.600000024,4107311.600000024,4103403.861,4103495.5,4103420.577,4107240.444,1,16,,
trial,html.Screen,4_15_0,2023-11-13T22:03:42.260Z,,,,0,-0.7546375633653641,-0.8399678098416189,,true,hh,1999.8560000713915,response,0.7550834643357679,0.9499999999999997,-0.9499999999999997,0.8909652099281345,0.9499999999999997,-0.9499999999999997,high,high,,ISIC_3994250.JPG,,ISIC_7501061.JPG,167,true,hh,keypress(i),100,false,4109240.8000000715,4109240.3000000715,4107223.641,4107312.899999976,4107240.444,4109175.203,1,16,16,
sequence,flow.Sequence,4_15,2023-11-13T22:03:42.261Z,,,,,,,,,,1999.8560000713915,completion,,,,,,,high,high,,,,,,true,,,,false,4109241.3000000715,4109240.3000000715,4107223.641,4107312.8000000715,4107240.444,4109175.203,1,16,,
demonstration_loop,flow.Loop,4,2023-11-13T22:03:42.261Z,,,,,,,,,,117729.01100007165,completion,,,,,,,,,,,,,,true,,,,false,4109241.7000000477,4109240.3000000715,3991494.601,3991581.899999976,3991511.289,4109175.203,1,16,,
practice_instructions,html.Screen,5,2023-11-13T22:04:02.522Z,,,,,,,,,,20317.696999975946,response,,,,,,,,,,,,,,,continue,click button,,,4129501.899999976,4129492.899999976,4109158.515,4109241.899999976,4109175.203,4129425.488,,,,
trial,html.Screen,6_0_0,2023-11-13T22:04:13.521Z,,,,1,1.0312818210504362,1.110766057559199,,,,11008.919999999925,timeout,-0.8120302962631756,0.9499999999999997,-0.9499999999999997,-0.8938250806816868,0.9499999999999997,-0.9499999999999997,low,low,,ISIC_0069620.JPG,,ISIC_9268141.JPG,142,true,,,0,false,4140501,4140500.8000000715,4129408.547,4129502.100000024,4129425.488,4140434.408,1,20,1,
sequence,flow.Sequence,6_0,2023-11-13T22:04:13.521Z,,,,,,,,,,11075.31200007163,completion,,,,,,,low,low,,,,,,true,,,,false,4140501.2000000477,4140500.8000000715,4129408.547,4129502,4129425.488,4140434.408,1,20,,
trial,html.Screen,6_1_0,2023-11-13T22:04:16.374Z,,,,1,1.119702461098404,1.0910404089869363,,true,ll,2918.991999976337,response,-0.9452304370934528,0.9499999999999997,-0.9499999999999997,-0.7543493127539531,0.9499999999999997,-0.9499999999999997,low,low,,ISIC_0067097.JPG,,ISIC_0029017.JPG,142,true,ll,keypress(f),0,false,4143353.8000000715,4143353.399999976,4140418.05,4140501.2000000477,4140434.408,4143286.783,1,20,2,
sequence,flow.Sequence,6_1,2023-11-13T22:04:16.374Z,,,,,,,,,,2918.991999976337,completion,,,,,,,low,low,,,,,,true,,,,false,4143354.600000024,4143353.399999976,4140418.05,4140501.2000000477,4140434.408,4143286.783,1,20,,
trial,html.Screen,6_2_0,2023-11-13T22:04:19.437Z,,,,1,0.8001360017471091,0.829888603887684,,true,ll,3313.217000000179,response,-1.058142123525081,0.9499999999999997,-0.9499999999999997,-0.936668460603038,0.9499999999999997,-0.9499999999999997,low,low,,ISIC_0012369.JPG,,ISIC_5046340.JPG,142,true,ll,keypress(f),0,false,4146600.7000000477,4146600,4143270.183,4143355,4143286.783,4146522.769,1,20,3,
sequence,flow.Sequence,6_2,2023-11-13T22:04:19.438Z,,,,,,,,,,3313.217000000179,completion,,,,,,,low,low,,,,,,true,,,,false,4146601.5,4146600,4143270.183,4143354.899999976,4143286.783,4146522.769,1,20,,
trial,html.Screen,6_3_0,2023-11-13T22:04:23.917Z,,,,1,1.0542635307358266,-1.0865333402803938,,true,lh,4556.831000023987,response,-0.8493861117004308,0.9499999999999997,-0.9499999999999997,0.7809949855371787,0.9499999999999997,-0.9499999999999997,low,high,,ISIC_0034006.JPG,,ISIC_7450481.JPG,26,true,lh,keypress(e),0,false,4151080.100000024,4151079.600000024,4146506.182,4146601.899999976,4146522.769,4150993.265,1,20,4,
sequence,flow.Sequence,6_3,2023-11-13T22:04:23.918Z,,,,,,,,,,4556.831000023987,completion,,,,,,,low,high,,,,,,true,,,,false,4151080.899999976,4151079.600000024,4146506.182,4146601.8000000715,4146522.769,4150993.265,1,20,,
trial,html.Screen,6_4_0,2023-11-13T22:04:33.357Z,,,,1,-1.0198919808587756,-0.9962130178668478,,true,hh,9526.935000047553,response,0.7711092153701026,0.9499999999999997,-0.9499999999999997,0.7942487684199633,0.9499999999999997,-0.9499999999999997,high,high,,ISIC_0595080.JPG,,ISIC_3810274.JPG,167,true,hh,keypress(i),0,false,4160520.7000000477,4160520.2000000477,4150976.647,4151081.2000000477,4150993.265,4160434.299,1,20,5,
sequence,flow.Sequence,6_4,2023-11-13T22:04:33.358Z,,,,,,,,,,9526.935000047553,completion,,,,,,,high,high,,,,,,true,,,,false,4160521.5,4160520.2000000477,4150976.647,4151081.100000024,4150993.265,4160434.299,1,20,,
trial,html.Screen,6_5_0,2023-11-13T22:04:44.045Z,,,,1,-0.7505228537454216,1.0122398223568725,,true,hl,10773.600999976043,response,1.0913275913920335,0.9499999999999997,-0.9499999999999997,-1.0026266089287914,0.9499999999999997,-0.9499999999999997,high,low,,ISIC_0033802.JPG,,ISIC_0033520.JPG,28,true,hl,keypress(j),0,false,4171208.3000000715,4171207.899999976,4160417.456,4160522,4160434.299,4171126.408,1,20,6,
sequence,flow.Sequence,6_5,2023-11-13T22:04:44.046Z,,,,,,,,,,10773.600999976043,completion,,,,,,,high,low,,,,,,true,,,,false,4171209,4171207.899999976,4160417.456,4160521.899999976,4160434.299,4171126.408,1,20,,
trial,html.Screen,6_6_0,2023-11-13T22:04:52.173Z,,,,1,0.8475699534335533,0.781420271893034,,true,ll,8209.292000047863,response,-0.8212818427650904,0.9499999999999997,-0.9499999999999997,-0.8667552171342019,0.9499999999999997,-0.9499999999999997,low,low,,ISIC_0066429.JPG,,ISIC_5219334.JPG,142,true,ll,keypress(f),0,false,4179336.100000024,4179335.7000000477,4171109.758,4171209.3000000715,4171126.408,4179249.86,1,20,7,
sequence,flow.Sequence,6_6,2023-11-13T22:04:52.173Z,,,,,,,,,,8209.292000047863,completion,,,,,,,low,low,,,,,,true,,,,false,4179336.8000000715,4179335.7000000477,4171109.758,4171209.2000000477,4171126.408,4179249.86,1,20,,
trial,html.Screen,6_7_0,2023-11-13T22:04:54.733Z,,,,1,-0.7816231038128233,-1.1011373150916248,,true,hh,2646.0399999762885,response,1.110797661774712,0.9499999999999997,-0.9499999999999997,0.9562051868665176,0.9499999999999997,-0.9499999999999997,high,high,,ISIC_8477065.JPG,,ISIC_0061199.JPG,167,true,hh,keypress(i),0,false,4181896.3000000715,4181895.899999976,4179233.104,4179337.100000024,4179249.86,4181818.858,1,20,8,
sequence,flow.Sequence,6_7,2023-11-13T22:04:54.734Z,,,,,,,,,,2646.0399999762885,completion,,,,,,,high,high,,,,,,true,,,,false,4181896.899999976,4181895.899999976,4179233.104,4179337,4179249.86,4181818.858,1,20,,
trial,html.Screen,6_8_0,2023-11-13T22:04:57.244Z,,,,1,-0.9172955251119376,0.7870237732709365,,true,hl,2588.2420000238344,response,0.8578467162767749,0.9499999999999997,-0.9499999999999997,-0.8179805381029407,0.9499999999999997,-0.9499999999999997,high,low,,ISIC_0057716.JPG,,ISIC_0067253.JPG,28,true,hl,keypress(j),0,false,4184407.7000000477,4184407.100000024,4181801.859,4181897.399999976,4181818.858,4184320.655,1,20,9,
sequence,flow.Sequence,6_8,2023-11-13T22:04:57.245Z,,,,,,,,,,2588.2420000238344,completion,,,,,,,high,low,,,,,,true,,,,false,4184408.399999976,4184407.100000024,4181801.859,4181897.399999976,4181818.858,4184320.655,1,20,,
trial,html.Screen,6_9_0,2023-11-13T22:04:59.341Z,,,,1,1.0933081951979773,-0.879102500583965,,true,lh,2183.0450000478886,response,-0.7780412100090998,0.9499999999999997,-0.9499999999999997,0.7638895244791114,0.9499999999999997,-0.9499999999999997,low,high,,ISIC_0046223.JPG,,ISIC_0026516.JPG,26,true,lh,keypress(e),0,false,4186504.100000024,4186503.7000000477,4184304.229,4184408.8000000715,4184320.655,4186422.367,1,20,10,
sequence,flow.Sequence,6_9,2023-11-13T22:04:59.341Z,,,,,,,,,,2183.0450000478886,completion,,,,,,,low,high,,,,,,true,,,,false,4186504.600000024,4186503.7000000477,4184304.229,4184408.7000000477,4184320.655,4186422.367,1,20,,
trial,html.Screen,6_10_0,2023-11-13T22:05:02.877Z,,,,1,1.03975580494588,-0.8534691366511764,,true,lh,3617.43300007144,response,-0.7545096650863988,0.9499999999999997,-0.9499999999999997,0.887838744955182,0.9499999999999997,-0.9499999999999997,low,high,,ISIC_0056788.JPG,,ISIC_1488727.JPG,26,true,lh,keypress(e),0,false,4190040.3000000715,4190039.8000000715,4186406.006,4186505,4186422.367,4189958.612,1,20,11,
sequence,flow.Sequence,6_10,2023-11-13T22:05:02.878Z,,,,,,,,,,3617.43300007144,completion,,,,,,,low,high,,,,,,true,,,,false,4190041,4190039.8000000715,4186406.006,4186504.899999976,4186422.367,4189958.612,1,20,,
trial,html.Screen,6_11_0,2023-11-13T22:05:07.085Z,,,,1,0.8500530224490773,-1.011737552725394,,true,lh,4289.387999999803,response,-0.7991077882008257,0.9499999999999997,-0.9499999999999997,0.9873794329144926,0.9499999999999997,-0.9499999999999997,low,high,,ISIC_2998367.JPG,,ISIC_0013498.JPG,26,true,lh,keypress(e),0,false,4194248.399999976,4194248,4189942.231,4190041.3000000715,4189958.612,4194162.186,1,20,12,
sequence,flow.Sequence,6_11,2023-11-13T22:05:07.086Z,,,,,,,,,,4289.387999999803,completion,,,,,,,low,high,,,,,,true,,,,false,4194249.2000000477,4194248,4189942.231,4190041.2000000477,4189958.612,4194162.186,1,20,,
trial,html.Screen,6_12_0,2023-11-13T22:05:11.309Z,,,,1,-1.088524359911891,1.0213365328004047,,true,hl,4309.514000047464,response,1.143906455483852,0.9499999999999997,-0.9499999999999997,-1.0751036484083878,0.9499999999999997,-0.9499999999999997,high,low,,ISIC_5434229.JPG,,ISIC_0064406.JPG,28,true,hl,keypress(j),0,false,4198472.100000024,4198471.700000048,4194145.649,4194249.5,4194162.186,4198399.174,1,20,13,
sequence,flow.Sequence,6_12,2023-11-13T22:05:11.309Z,,,,,,,,,,4309.514000047464,completion,,,,,,,high,low,,,,,,true,,,,false,4198472.700000048,4198471.700000048,4194145.649,4194249.399999976,4194162.186,4198399.174,1,20,,
trial,html.Screen,6_13_0,2023-11-13T22:05:14.156Z,,,,1,0.9818230031674032,0.9455512119785764,,true,ll,2920.026000048034,response,-0.9035622700206098,0.9499999999999997,-0.9499999999999997,-1.1204797335739165,0.9499999999999997,-0.9499999999999997,low,low,,ISIC_0057286.JPG,,ISIC_5688950.JPG,142,true,ll,keypress(f),0,false,4201319.5,4201319.200000048,4198365.853,4198473.100000024,4198399.174,4201234.506,1,20,14,
sequence,flow.Sequence,6_13,2023-11-13T22:05:14.156Z,,,,,,,,,,2920.026000048034,completion,,,,,,,low,low,,,,,,true,,,,false,4201319.700000048,4201319.200000048,4198365.853,4198473,4198399.174,4201234.506,1,20,,
trial,html.Screen,6_14_0,2023-11-13T22:05:16.351Z,,,,1,-0.7748322849719208,-0.9064565001469764,,true,hh,2278.5940000237897,response,0.7932562349979263,0.9499999999999997,-0.9499999999999997,0.8691120116185356,0.9499999999999997,-0.9499999999999997,high,high,,ISIC_0025877.JPG,,ISIC_0031350.JPG,167,true,hh,keypress(i),0,false,4203513.899999976,4203513.100000024,4201217.994,4201319.899999976,4201234.506,4203436.546,1,20,15,
sequence,flow.Sequence,6_14,2023-11-13T22:05:16.352Z,,,,,,,,,,2278.5940000237897,completion,,,,,,,high,high,,,,,,true,,,,false,4203515,4203513.100000024,4201217.994,4201319.8000000715,4201234.506,4203436.546,1,20,,
trial,html.Screen,6_15_0,2023-11-13T22:05:19.670Z,,,,1,-0.888372424147899,0.7723849213858904,,true,hl,3579.3539999760687,response,1.0933081951979773,0.9499999999999997,-0.9499999999999997,-0.879102500583965,0.9499999999999997,-0.9499999999999997,high,low,,ISIC_3884221.JPG,,ISIC_0046223.JPG,28,true,hl,keypress(j),0,false,4207016.3000000715,4207015.899999976,4203419.781,4203515.399999976,4203436.546,4206939.508,1,20,16,
sequence,flow.Sequence,6_15,2023-11-13T22:05:19.670Z,,,,,,,,,,3579.3539999760687,completion,,,,,,,high,low,,,,,,true,,,,false,4207016.899999976,4207015.899999976,4203419.781,4203515.3000000715,4203436.546,4206939.508,1,20,,
trial,html.Screen,6_16_0,2023-11-13T22:05:22.693Z,,,,1,1.0116513850520903,-1.020990671779317,,true,lh,3099.7920000711456,response,-0.9017449335975743,0.9499999999999997,-0.9499999999999997,0.796241477082623,0.9499999999999997,-0.9499999999999997,low,high,,ISIC_0011995.JPG,,ISIC_8588033.JPG,26,true,lh,keypress(e),0,false,4210039.8000000715,4210039.3000000715,4206922.73,4207017.3000000715,4206939.508,4209958.505,1,20,17,
sequence,flow.Sequence,6_16,2023-11-13T22:05:22.694Z,,,,,,,,,,3099.7920000711456,completion,,,,,,,low,high,,,,,,true,,,,false,4210040.5,4210039.3000000715,4206922.73,4207017.200000048,4206939.508,4209958.505,1,20,,
trial,html.Screen,6_17_0,2023-11-13T22:05:25.254Z,,,,1,-0.8493817247965978,-1.007248440493079,,true,hh,2641.0950000239536,response,0.8063996897274507,0.9499999999999997,-0.9499999999999997,1.0296906379811772,0.9499999999999997,-0.9499999999999997,high,high,,ISIC_0030219.JPG,,ISIC_0015046.JPG,167,true,hh,keypress(i),0,false,4212600,4212599.600000024,4209942.007,4210040.899999976,4209958.505,4212528.582,1,20,18,
sequence,flow.Sequence,6_17,2023-11-13T22:05:25.254Z,,,,,,,,,,2641.0950000239536,completion,,,,,,,high,high,,,,,,true,,,,false,4212600.700000048,4212599.600000024,4209942.007,4210040.700000048,4209958.505,4212528.582,1,20,,
trial,html.Screen,6_18_0,2023-11-13T22:05:27.589Z,,,,1,-0.79533948698576,0.9388660854518424,,true,hl,2406.817999975756,response,0.9633172970727744,0.9499999999999997,-0.9499999999999997,-0.8579451262594331,0.9499999999999997,-0.9499999999999997,high,low,,ISIC_9291926.JPG,,ISIC_0067172.JPG,28,true,hl,keypress(j),0,false,4214935.899999976,4214935.399999976,4212494.246,4212601,4212528.582,4214862.84,1,20,19,
sequence,flow.Sequence,6_18,2023-11-13T22:05:27.590Z,,,,,,,,,,2406.817999975756,completion,,,,,,,high,low,,,,,,true,,,,false,4214936.5,4214935.399999976,4212494.246,4212601,4212528.582,4214862.84,1,20,,
trial,html.Screen,6_19_0,2023-11-13T22:05:29.654Z,,,,1,-1.0682608339754711,-0.9607077625123552,,true,hh,2136.760000023991,response,0.7979057924454982,0.9499999999999997,-0.9499999999999997,0.944066353660726,0.9499999999999997,-0.9499999999999997,high,high,,ISIC_0064763.JPG,,ISIC_0060696.JPG,167,true,hh,keypress(i),0,false,4217000,4216999.600000024,4214829.155,4214936.899999976,4214862.84,4216914.32,1,20,20,
sequence,flow.Sequence,6_19,2023-11-13T22:05:29.654Z,,,,,,,,,,2136.760000023991,completion,,,,,,,high,high,,,,,,true,,,,false,4217000.600000024,4216999.600000024,4214829.155,4214936.8000000715,4214862.84,4216914.32,1,20,,
practice_loop,flow.Loop,6,2023-11-13T22:05:29.655Z,,,,,,,,,,87574.11200002395,completion,,,,,,,,,,,,,,true,,,,false,4217001.100000024,4216999.600000024,4129408.547,4129502,4129425.488,4216914.32,1,20,,
stair_instructions,html.Screen,7,2023-11-13T22:05:40.044Z,,,,,,,,,,10475.07999997586,response,,,,,,,,,,,,,,,continue,click button,,,4227390.100000024,4227389.399999976,4216897.867,4217001.3000000715,4216914.32,4227306.139,,,,
trial,html.Screen,8_0_0,2023-11-13T22:05:48.877Z,,,,2,-0.0273567130070961,0.0456515796420274,,false,lh,8916.96100002341,response,-0.8960964505004638,0.9499999999999997,-0.9499999999999997,0.8947611078712571,0.9499999999999997,-0.9499999999999997,low,high,,ISIC_0068610.JPG,,ISIC_6441128.JPG,26,false,hh,keypress(i),0,true,4236223.3000000715,4236223.100000024,4227289.66,4227390.3000000715,4227306.139,4236147.104,1,40,1,
sequence,flow.Sequence,8_0,2023-11-13T22:05:48.877Z,,,,,,,,,,8916.96100002341,completion,,,,,,,low,high,,,,,,false,,,,true,4236223.5,4236223.100000024,4227289.66,4227390.200000048,4227306.139,4236147.104,1,40,,
trial,html.Screen,8_1_0,2023-11-13T22:05:53.932Z,,,,2,0.060314732178219,0.0336891949856763,,true,lh,5131.596000047401,response,-0.7991077882008257,0.8999999999999997,-0.9499999999999997,0.9873794329144926,0.8999999999999997,-0.8999999999999997,low,high,,ISIC_6192289.JPG,,ISIC_0013498.JPG,33,false,lh,keypress(e),0,true,4241278.8000000715,4241278.700000048,4236130.131,4236223.600000024,4236147.104,4241201.182,1,40,2,
sequence,flow.Sequence,8_1,2023-11-13T22:05:53.933Z,,,,,,,,,,5131.596000047401,completion,,,,,,,low,high,,,,,,false,,,,true,4241279,4241278.700000048,4236130.131,4236223.5,4236147.104,4241201.182,1,40,,
trial,html.Screen,8_2_0,2023-11-13T22:05:58.742Z,,,,2,-0.0228701131373768,0.039728379742806,,false,lh,4886.717999976128,response,-0.7116471841427019,0.8499999999999996,-0.8999999999999997,0.7184117946247969,0.8410702703928747,-0.8499999999999996,low,high,,ISIC_0054073.JPG,,ISIC_0072865.JPG,47,false,hh,keypress(i),0,true,4246088.399999976,4246087.899999976,4241184.448,4241279.100000024,4241201.182,4246004.982,1,40,3,
sequence,flow.Sequence,8_2,2023-11-13T22:05:58.742Z,,,,,,,,,,4886.717999976128,completion,,,,,,,low,high,,,,,,false,,,,true,4246088.899999976,4246087.899999976,4241184.448,4241279.100000024,4241201.182,4246004.982,1,40,,
trial,html.Screen,8_3_0,2023-11-13T22:06:02.886Z,,,,2,-0.0627190878028592,-0.009234249673026,,false,ll,4226.917999976315,response,-0.8692576729104817,0.7999999999999996,-0.8999999999999997,-0.6376756416282117,0.7910702703928747,-0.7999999999999996,low,low,,ISIC_0053760.JPG,,ISIC_6963954.JPG,202,false,hl,keypress(j),0,true,4250232.3000000715,4250231.899999976,4245988.169,4246089.3000000715,4246004.982,4250158.731,1,40,4,
sequence,flow.Sequence,8_3,2023-11-13T22:06:02.886Z,,,,,,,,,,4226.917999976315,completion,,,,,,,low,low,,,,,,false,,,,true,4250232.899999976,4250231.899999976,4245988.169,4246089.200000048,4246004.982,4250158.731,1,40,,
trial,html.Screen,8_4_0,2023-11-13T22:06:05.238Z,,,,2,0.0387686079545705,0.0640778296621707,,true,ll,2425.6689999764785,response,-0.7748322849719208,0.7499999999999996,-0.8999999999999997,-0.9064565001469764,0.7410702703928747,-0.7499999999999996,low,low,,ISIC_0010124.JPG,,ISIC_0025877.JPG,223,false,ll,keypress(f),0,true,4252584.899999976,4252584.399999976,4250141.836,4250233.200000048,4250158.731,4252510.694,1,40,5,
sequence,flow.Sequence,8_4,2023-11-13T22:06:05.239Z,,,,,,,,,,2425.6689999764785,completion,,,,,,,low,low,,,,,,false,,,,true,4252585.8000000715,4252584.399999976,4250141.836,4250233.100000024,4250158.731,4252510.694,1,40,,
trial,html.Screen,8_5_0,2023-11-13T22:06:07.734Z,,,,2,-0.0033499036460912,-0.0134764727102299,,true,hh,2569.305999999866,response,0.8162119374466767,0.6999999999999995,-0.8499999999999996,0.830715954875818,0.6910702703928746,-0.672066070887594,high,high,,ISIC_0009998.JPG,,ISIC_0011894.JPG,298,false,hh,keypress(i),0,true,4255080.399999976,4255080,4252493.968,4252586.3000000715,4252510.694,4254995.777,1,40,6,
sequence,flow.Sequence,8_5,2023-11-13T22:06:07.735Z,,,,,,,,,,2569.305999999866,completion,,,,,,,high,high,,,,,,false,,,,true,4255081.100000024,4255080,4252493.968,4252586.100000024,4252510.694,4254995.777,1,40,,
trial,html.Screen,8_6_0,2023-11-13T22:06:12.038Z,,,,2,-0.0627190878028592,-0.009234249673026,,true,lh,4388.0230000717565,response,-0.9190152836889912,0.6499999999999995,-0.7999999999999996,0.6132586392346531,0.6745638747503073,-0.6220660708875939,low,high,,ISIC_0053760.JPG,,ISIC_5833422.JPG,85,false,lh,keypress(e),0,true,4259384.200000048,4259383.8000000715,4254979.327,4255081.5,4254995.777,4259299.377,1,40,7,
sequence,flow.Sequence,8_6,2023-11-13T22:06:12.038Z,,,,,,,,,,4388.0230000717565,completion,,,,,,,low,high,,,,,,false,,,,true,4259384.899999976,4259383.8000000715,4254979.327,4255081.399999976,4254995.777,4259299.377,1,40,,
trial,html.Screen,8_7_0,2023-11-13T22:06:15.718Z,,,,2,-0.0258434522530318,0.0116094682222121,,false,hh,3764.9230000711977,response,0.5006263931241599,0.5999999999999994,-0.7469237843304559,0.5286431224001168,0.6245638747503073,-0.5720660708875939,high,high,,ISIC_9239632.JPG,,ISIC_0027110.JPG,362,false,lh,keypress(e),0,true,4263064.700000048,4263064.3000000715,4259282.702,4259385.200000048,4259299.377,4262985.725,1,40,8,
sequence,flow.Sequence,8_7,2023-11-13T22:06:15.719Z,,,,,,,,,,3764.9230000711977,completion,,,,,,,high,high,,,,,,false,,,,true,4263065.3000000715,4263064.3000000715,4259282.702,4259385.100000024,4259299.377,4262985.725,1,40,,
trial,html.Screen,8_8_0,2023-11-13T22:06:18.802Z,,,,2,0.0049995141077508,0.0070725527271049,,false,hh,3326.4750000480562,response,0.4176962582299166,0.5999999999999994,-0.6969237843304559,0.4448979677610588,0.47095088081738484,-0.5220660708875938,high,high,,ISIC_6124481.JPG,,ISIC_8629635.JPG,374,false,hl,keypress(j),0,true,4266312.8000000715,4266312.200000048,4262969.09,4263065.600000024,4262985.725,4266238.608,1,40,9,
sequence,flow.Sequence,8_8,2023-11-13T22:06:18.803Z,,,,,,,,,,3326.4750000480562,completion,,,,,,,high,high,,,,,,false,,,,true,4266313.399999976,4266312.200000048,4262969.09,4263065.5,4262985.725,4266238.608,1,40,,
trial,html.Screen,8_9_0,2023-11-13T22:06:21.585Z,,,,2,-0.0740918837949419,-0.0220322185490382,,false,ll,2856.5920000476763,response,-0.5486726050076405,0.5499999999999994,-0.6469237843304558,-0.6428804214613505,0.47095088081738484,-0.47206607088759384,low,low,,ISIC_8105020.JPG,,ISIC_0027132.JPG,412,false,hh,keypress(i),0,true,4269095.5,4269095.200000048,4266221.989,4266313.700000048,4266238.608,4269007.36,1,40,10,
sequence,flow.Sequence,8_9,2023-11-13T22:06:21.585Z,,,,,,,,,,2856.5920000476763,completion,,,,,,,low,low,,,,,,false,,,,true,4269096,4269095.200000048,4266221.989,4266313.600000024,4266238.608,4269007.36,1,40,,
trial,html.Screen,8_10_0,2023-11-13T22:06:25.218Z,,,,2,-0.0185462113313342,-0.0688801591312476,,false,ll,3720.7400000235066,response,-0.652378809792996,0.4999999999999994,-0.6469237843304558,-0.6593124058450796,0.47095088081738484,-0.47206607088759384,low,low,,ISIC_0067723.JPG,,ISIC_4502605.JPG,412,false,lh,keypress(e),0,true,4272728.600000024,4272728.100000024,4268990.514,4269096.200000048,4269007.36,4272643.646,1,40,11,
sequence,flow.Sequence,8_10,2023-11-13T22:06:25.218Z,,,,,,,,,,3720.7400000235066,completion,,,,,,,low,low,,,,,,false,,,,true,4272729.200000048,4272728.100000024,4268990.514,4269096.100000024,4269007.36,4272643.646,1,40,,
trial,html.Screen,8_11_0,2023-11-13T22:06:35.362Z,,,,2,,0.0450282431170921,,false,lh,10228.654000071809,response,-0.7030283669689883,0.4999999999999994,-0.5969237843304558,0.3900788645598581,0.47095088081738484,-0.47206607088759384,low,high,,ISIC_1805163.JPG,,ISIC_0222299.JPG,230,false,hl,keypress(j),0,true,4282872.700000048,4282872.3000000715,4272627.063,4272729.600000024,4272643.646,4282785.436,1,40,12,
sequence,flow.Sequence,8_11,2023-11-13T22:06:35.363Z,,,,,,,,,,10228.654000071809,completion,,,,,,,low,high,,,,,,false,,,,true,4282873.399999976,4282872.3000000715,4272627.063,4272729.5,4272643.646,4282785.436,1,40,,
trial,html.Screen,8_12_0,2023-11-13T22:06:40.226Z,,,,2,0.0140597582944232,-0.013431314305098,,true,lh,4950.76400004793,response,-0.463516962961075,0.4999999999999994,-0.5969237843304558,0.5884693953987199,0.47095088081738484,-0.47206607088759384,low,high,,ISIC_0069617.JPG,,ISIC_0027305.JPG,230,false,lh,keypress(e),0,true,4287736.700000048,4287736.200000048,4282768.635,4282873.700000048,4282785.436,4287656.083,1,40,13,
sequence,flow.Sequence,8_12,2023-11-13T22:06:40.227Z,,,,,,,,,,4950.76400004793,completion,,,,,,,low,high,,,,,,false,,,,true,4287737.399999976,4287736.200000048,4282768.635,4282873.700000048,4282785.436,4287656.083,1,40,,
trial,html.Screen,8_13_0,2023-11-13T22:06:43.346Z,,,,2,0.0622582668671422,-0.040191644178716,,true,hl,3199.917000000365,response,0.3277365112868931,0.4999999999999994,-0.5469237843304557,-0.3649572965562544,0.47095088081738484,-0.47206607088759384,high,low,,ISIC_6207688.JPG,,ISIC_6657600.JPG,245,false,hl,keypress(j),0,true,4290856.5,4290856,4287639.639,4287737.899999976,4287656.083,4290775.494,1,40,14,
sequence,flow.Sequence,8_13,2023-11-13T22:06:43.346Z,,,,,,,,,,3199.917000000365,completion,,,,,,,high,low,,,,,,false,,,,true,4290857.100000024,4290856,4287639.639,4287737.8000000715,4287656.083,4290775.494,1,40,,
trial,html.Screen,8_14_0,2023-11-13T22:06:47.842Z,,,,2,0.053462758614929,-0.0245585387483123,,false,hl,4577.206000047736,response,0.5771743092537439,0.4499999999999994,-0.49692378433045575,-0.3344127464282149,0.47095088081738484,-0.47206607088759384,high,low,,ISIC_3389704.JPG,,ISIC_4354896.JPG,265,false,ll,keypress(f),0,true,4295353.200000048,4295352.700000048,4290758.75,4290857.399999976,4290775.494,4295279.038,1,40,15,
sequence,flow.Sequence,8_14,2023-11-13T22:06:47.843Z,,,,,,,,,,4577.206000047736,completion,,,,,,,high,low,,,,,,false,,,,true,4295353.899999976,4295352.700000048,4290758.75,4290857.3000000715,4290775.494,4295279.038,1,40,,
trial,html.Screen,8_15_0,2023-11-13T22:06:52.706Z,,,,2,-0.0543422987007948,0.0415913596725838,,false,ll,4936.962000000291,response,-0.3052779265225965,0.4999999999999994,-0.49692378433045575,-0.4963835057909475,0.47095088081738484,-0.42206607088759385,low,low,,ISIC_0027956.JPG,,ISIC_0004955.JPG,495,false,lh,keypress(e),0,true,4300216.399999976,4300216,4295262.595,4295354.3000000715,4295279.038,4300133.12,1,40,16,
sequence,flow.Sequence,8_15,2023-11-13T22:06:52.706Z,,,,,,,,,,4936.962000000291,completion,,,,,,,low,low,,,,,,false,,,,true,4300217,4300216,4295262.595,4295354.3000000715,4295279.038,4300133.12,1,40,,
trial,html.Screen,8_16_0,2023-11-13T22:06:55.986Z,,,,2,0.053462758614929,-0.0245585387483123,,true,hl,3362.7799999760464,response,0.4261230710601709,0.4999999999999994,-0.44692378433045576,-0.6565704252405165,0.47095088081738484,-0.47206607088759384,high,low,,ISIC_3389704.JPG,,ISIC_0029157.JPG,245,false,hl,keypress(j),0,true,4303496.399999976,4303495.899999976,4300116.634,4300217.399999976,4300133.12,4303419.505,1,40,17,
sequence,flow.Sequence,8_16,2023-11-13T22:06:55.986Z,,,,,,,,,,3362.7799999760464,completion,,,,,,,high,low,,,,,,false,,,,true,4303497,4303495.899999976,4300116.634,4300217.3000000715,4300133.12,4303419.505,1,40,,
trial,html.Screen,8_17_0,2023-11-13T22:06:58.895Z,,,,2,-0.0394300226801425,-0.0565575423757561,,false,hh,2986.5950000239536,response,0.5451948530584677,0.4999999999999994,-0.44692378433045576,0.2748762536616874,0.47095088081738484,-0.47206607088759384,high,high,,ISIC_0046983.JPG,,ISIC_0063061.JPG,411,false,ll,keypress(f),0,true,4306406.200000048,4306406.100000024,4303402.718,4303497.3000000715,4303419.505,4306321.669,1,40,18,
sequence,flow.Sequence,8_17,2023-11-13T22:06:58.896Z,,,,,,,,,,2986.5950000239536,completion,,,,,,,high,high,,,,,,false,,,,true,4306406.3000000715,4306406.100000024,4303402.718,4303497.200000048,4303419.505,4306321.669,1,40,,
trial,html.Screen,8_18_0,2023-11-13T22:07:03.122Z,,,,2,-0.047825070846155,-0.0362376068089956,,false,hl,4310.230999976397,response,0.3613487395091678,0.4999999999999994,-0.44692378433045576,-0.5915005600107203,0.47095088081738484,-0.47206607088759384,high,low,,ISIC_6985114.JPG,,ISIC_3012778.JPG,245,false,hh,keypress(i),0,true,4310632.399999976,4310631.899999976,4306305.081,4306406.5,4306321.669,4310558.665,1,40,19,
sequence,flow.Sequence,8_18,2023-11-13T22:07:03.122Z,,,,,,,,,,4310.230999976397,completion,,,,,,,high,low,,,,,,false,,,,true,4310633,4310631.899999976,4306305.081,4306406.399999976,4306321.669,4310558.665,1,40,,
trial,html.Screen,8_19_0,2023-11-13T22:07:14.117Z,,,,2,0.0236866303880924,-0.0348234368746005,,,,11008.832000000402,timeout,0.3382786520583706,0.4999999999999994,-0.44692378433045576,0.2926900478165043,0.47095088081738484,-0.47206607088759384,high,high,,ISIC_0011099.JPG,,ISIC_0033953.JPG,411,false,,,0,true,4321627.399999976,4321627,4310541.888,4310633.399999976,4310558.665,4321567.497,1,40,20,
sequence,flow.Sequence,8_19,2023-11-13T22:07:14.117Z,,,,,,,,,,11068.334999999963,completion,,,,,,,high,high,,,,,,false,,,,true,4321628,4321627,4310541.888,4310633.3000000715,4310558.665,4321567.497,1,40,,
trial,html.Screen,8_20_0,2023-11-13T22:07:16.228Z,,,,2,0.0395587463147856,-0.0277178575053843,,false,lh,2170.4029999757186,response,-0.4454463467625749,0.4999999999999994,-0.44692378433045576,0.4368184058176201,0.47095088081738484,-0.47206607088759384,low,high,,ISIC_0010807.JPG,,ISIC_0014557.JPG,304,false,ll,keypress(f),0,true,4323738.5,4323737.899999976,4321550.911,4321628.399999976,4321567.497,4323652.513,1,40,21,
sequence,flow.Sequence,8_20,2023-11-13T22:07:16.229Z,,,,,,,,,,2170.4029999757186,completion,,,,,,,low,high,,,,,,false,,,,true,4323739.399999976,4323737.899999976,4321550.911,4321628.3000000715,4321567.497,4323652.513,1,40,,
trial,html.Screen,8_21_0,2023-11-13T22:07:20.770Z,,,,2,-0.0394586219902573,0.0651705891246238,,false,hl,4627.486999999732,response,0.6635077730619414,0.4999999999999994,-0.44692378433045576,-0.4175983702433712,0.47095088081738484,-0.47206607088759384,high,low,,ISIC_0013491.JPG,,ISIC_0011409.JPG,245,false,ll,keypress(f),0,true,4328280.399999976,4328280,4323635.89,4323739.8000000715,4323652.513,4328206.592,1,40,22,
sequence,flow.Sequence,8_21,2023-11-13T22:07:20.770Z,,,,,,,,,,4627.486999999732,completion,,,,,,,high,low,,,,,,false,,,,true,4328281.200000048,4328280,4323635.89,4323739.700000048,4323652.513,4328206.592,1,40,,
trial,html.Screen,8_22_0,2023-11-13T22:07:23.120Z,,,,2,-0.0382899749693245,0.0329095507339554,,false,hl,2424.008000023663,response,0.4729539523685004,0.4999999999999994,-0.44692378433045576,-0.6238270810796768,0.47095088081738484,-0.47206607088759384,high,low,,ISIC_8812781.JPG,,ISIC_0068576.JPG,245,false,hh,keypress(i),0,true,4330630.8000000715,4330630.600000024,4328189.484,4328281.5,4328206.592,4330541.531,1,40,23,
sequence,flow.Sequence,8_22,2023-11-13T22:07:23.120Z,,,,,,,,,,2424.008000023663,completion,,,,,,,high,low,,,,,,false,,,,true,4330631,4330630.600000024,4328189.484,4328281.3000000715,4328206.592,4330541.531,1,40,,
trial,html.Screen,8_23_0,2023-11-13T22:07:25.074Z,,,,2,0.0100996915276271,0.0027483411352856,,false,ll,2042.3689999757335,response,-0.6110795771372037,0.4999999999999994,-0.44692378433045576,-0.5257354661382809,0.47095088081738484,-0.47206607088759384,low,low,,ISIC_7364041.JPG,,ISIC_6052437.JPG,494,false,hl,keypress(j),0,true,4332584.399999976,4332583.899999976,4330525.132,4330631.200000048,4330541.531,4332509.829,1,40,24,
sequence,flow.Sequence,8_23,2023-11-13T22:07:25.074Z,,,,,,,,,,2042.3689999757335,completion,,,,,,,low,low,,,,,,false,,,,true,4332585,4332583.899999976,4330525.132,4330631.200000048,4330541.531,4332509.829,1,40,,
trial,html.Screen,8_24_0,2023-11-13T22:07:27.489Z,,,,2,0.060314732178219,0.0336891949856763,,false,lh,2490.0709999762475,response,-0.6679898783784443,0.4999999999999994,-0.49692378433045575,0.4782440037504922,0.47095088081738484,-0.47206607088759384,low,high,,ISIC_6192289.JPG,,ISIC_5026709.JPG,286,false,ll,keypress(f),0,true,4335000.200000048,4334999.899999976,4332493.449,4332585.3000000715,4332509.829,4334911.882,1,40,25,
sequence,flow.Sequence,8_24,2023-11-13T22:07:27.490Z,,,,,,,,,,2490.0709999762475,completion,,,,,,,low,high,,,,,,false,,,,true,4335000.8000000715,4334999.899999976,4332493.449,4332585.3000000715,4332509.829,4334911.882,1,40,,
trial,html.Screen,8_25_0,2023-11-13T22:07:29.936Z,,,,2,-0.0700576547090477,-0.0367218428225813,,true,hh,2534.8180000474676,response,0.5452788937349149,0.4999999999999994,-0.49692378433045575,0.3165533337614583,0.47095088081738484,-0.47206607088759384,high,high,,ISIC_7212271.JPG,,ISIC_0024552.JPG,411,false,hh,keypress(i),0,true,4337446.8000000715,4337446.700000048,4334895.246,4335001.100000024,4334911.882,4337363.863,1,40,26,
sequence,flow.Sequence,8_25,2023-11-13T22:07:29.936Z,,,,,,,,,,2534.8180000474676,completion,,,,,,,high,high,,,,,,false,,,,true,4337447.100000024,4337446.700000048,4334895.246,4335001,4334911.882,4337363.863,1,40,,
trial,html.Screen,8_26_0,2023-11-13T22:07:32.402Z,,,,2,0.0570427519488725,-0.0021038737988857,,true,hl,2548.0369999762625,response,0.4903889517776406,0.4591164230517077,-0.49692378433045575,-0.4418038757967581,0.47095088081738484,-0.47206607088759384,high,low,,ISIC_3596927.JPG,,ISIC_0033496.JPG,264,false,hl,keypress(j),0,true,4339912.399999976,4339911.899999976,4337347.242,4337447.3000000715,4337363.863,4339832.684,1,40,27,
sequence,flow.Sequence,8_26,2023-11-13T22:07:32.402Z,,,,,,,,,,2548.0369999762625,completion,,,,,,,high,low,,,,,,false,,,,true,4339913,4339911.899999976,4337347.242,4337447.3000000715,4337363.863,4339832.684,1,40,,
trial,html.Screen,8_27_0,2023-11-13T22:07:35.345Z,,,,2,0.0417921315885292,-0.0097091270150747,,false,hl,3023.116000071168,response,0.2826728454337366,0.4591164230517077,-0.49692378433045575,-0.2523610222755501,0.47095088081738484,-0.42206607088759385,high,low,,ISIC_3967213.JPG,,ISIC_3148886.JPG,290,false,ll,keypress(f),0,true,4342856.3000000715,4342855.8000000715,4339816.159,4339913.399999976,4339832.684,4342768.501,1,40,28,
sequence,flow.Sequence,8_27,2023-11-13T22:07:35.346Z,,,,,,,,,,3023.116000071168,completion,,,,,,,high,low,,,,,,false,,,,true,4342856.899999976,4342855.8000000715,4339816.159,4339913.3000000715,4339832.684,4342768.501,1,40,,
trial,html.Screen,8_28_0,2023-11-13T22:07:38.818Z,,,,2,0.053462758614929,-0.0245585387483123,,false,hh,3559.69900004752,response,0.5227281111697483,0.4591164230517077,-0.49692378433045575,0.3935665671688059,0.47095088081738484,-0.42206607088759385,high,high,,ISIC_3389704.JPG,,ISIC_4131697.JPG,413,false,ll,keypress(f),0,true,4346328.700000048,4346328.200000048,4342751.857,4342857.200000048,4342768.501,4346254.805,1,40,29,
sequence,flow.Sequence,8_28,2023-11-13T22:07:38.819Z,,,,,,,,,,3559.69900004752,completion,,,,,,,high,high,,,,,,false,,,,true,4346329.3000000715,4346328.200000048,4342751.857,4342857.100000024,4342768.501,4346254.805,1,40,,
trial,html.Screen,8_29_0,2023-11-13T22:07:41.186Z,,,,2,-0.0240487075377862,0.0544808612748248,,false,hl,2441.29500002414,response,0.5213568853233712,0.4591164230517077,-0.49692378433045575,-0.3344871246072751,0.47095088081738484,-0.42206607088759385,high,low,,ISIC_4606646.JPG,,ISIC_0034106.JPG,290,false,lh,keypress(e),0,true,4348696.5,4348696.100000024,4346237.909,4346329.600000024,4346254.805,4348623.463,1,40,30,
sequence,flow.Sequence,8_29,2023-11-13T22:07:41.186Z,,,,,,,,,,2441.29500002414,completion,,,,,,,high,low,,,,,,false,,,,true,4348697.100000024,4348696.100000024,4346237.909,4346329.600000024,4346254.805,4348623.463,1,40,,
trial,html.Screen,8_30_0,2023-11-13T22:07:43.458Z,,,,2,0.0661630859332833,-0.0149482827359613,,false,ll,2344.337000071071,response,-0.3573369522120159,0.4591164230517077,-0.49692378433045575,-0.5568698363958298,0.47095088081738484,-0.47206607088759384,low,low,,ISIC_6815524.JPG,,ISIC_0029963.JPG,487,false,hl,keypress(j),0,true,4350968.3000000715,4350967.8000000715,4348590.05,4348697.600000024,4348623.463,4350891.842,1,40,31,
sequence,flow.Sequence,8_30,2023-11-13T22:07:43.458Z,,,,,,,,,,2344.337000071071,completion,,,,,,,low,low,,,,,,false,,,,true,4350969,4350967.8000000715,4348590.05,4348697.399999976,4348623.463,4350891.842,1,40,,
trial,html.Screen,8_31_0,2023-11-13T22:07:45.537Z,,,,2,-0.0299718727255261,-0.0533723079251252,,false,hh,2155.5579999759793,response,0.550319745974711,0.4591164230517077,-0.49692378433045575,0.2978149442661975,0.47095088081738484,-0.47206607088759384,high,high,,ISIC_6562871.JPG,,ISIC_0057881.JPG,413,false,ll,keypress(f),0,true,4353047.600000024,4353047.399999976,4350875.303,4350969.3000000715,4350891.842,4352960.021,1,40,32,
sequence,flow.Sequence,8_31,2023-11-13T22:07:45.537Z,,,,,,,,,,2155.5579999759793,completion,,,,,,,high,high,,,,,,false,,,,true,4353048,4353047.399999976,4350875.303,4350969.200000048,4350891.842,4352960.021,1,40,,
trial,html.Screen,8_32_0,2023-11-13T22:07:48.481Z,,,,2,-0.0687761754603142,0.0247880219471745,,false,lh,3031.3789999764413,response,-0.6794440557620902,0.4591164230517077,-0.49692378433045575,0.3258400848794305,0.47095088081738484,-0.47206607088759384,low,high,,ISIC_0031745.JPG,,ISIC_1802502.JPG,286,false,hh,keypress(i),0,true,4355991.8000000715,4355991.399999976,4352943.468,4353048.200000048,4352960.021,4355912.795,1,40,33,
sequence,flow.Sequence,8_32,2023-11-13T22:07:48.481Z,,,,,,,,,,3031.3789999764413,completion,,,,,,,low,high,,,,,,false,,,,true,4355992.200000048,4355991.399999976,4352943.468,4353048.200000048,4352960.021,4355912.795,1,40,,
trial,html.Screen,8_33_0,2023-11-13T22:07:52.514Z,,,,2,0.0570427519488725,-0.0021038737988857,,true,ll,4111.5050000716,response,-0.4188151292273317,0.4591164230517077,-0.49692378433045575,-0.5212865825176977,0.47095088081738484,-0.47206607088759384,low,low,,ISIC_3596927.JPG,,ISIC_3474681.JPG,487,false,ll,keypress(f),0,true,4360024.700000048,4360024.3000000715,4355895.892,4355992.399999976,4355912.795,4359949.157,1,40,34,
sequence,flow.Sequence,8_33,2023-11-13T22:07:52.515Z,,,,,,,,,,4111.5050000716,completion,,,,,,,low,low,,,,,,false,,,,true,4360025.3000000715,4360024.3000000715,4355895.892,4355992.399999976,4355912.795,4359949.157,1,40,,
trial,html.Screen,8_34_0,2023-11-13T22:07:58.994Z,,,,2,-0.0543422987007948,0.0415913596725838,,false,hh,6554.843000000343,response,0.5259517943886952,0.4591164230517077,-0.49692378433045575,0.6224679810838276,0.47095088081738484,-0.48907820945676367,high,high,,ISIC_0027956.JPG,,ISIC_0001148.JPG,413,false,ll,keypress(f),0,true,4366504.3000000715,4366504,4359932.768,4360025.700000048,4359949.157,4366421.223,1,40,35,
sequence,flow.Sequence,8_34,2023-11-13T22:07:58.994Z,,,,,,,,,,6554.843000000343,completion,,,,,,,high,high,,,,,,false,,,,true,4366505,4366504,4359932.768,4360025.600000024,4359949.157,4366421.223,1,40,,
trial,html.Screen,8_35_0,2023-11-13T22:08:02.018Z,,,,2,0.0140597582944232,-0.013431314305098,,false,ll,3106.776999999769,response,-0.68668790958988,0.4591164230517077,-0.49692378433045575,-0.6584594196104424,0.47095088081738484,-0.48907820945676367,low,low,,ISIC_0069617.JPG,,ISIC_9764973.JPG,487,false,hh,keypress(i),0,true,4369528.700000048,4369528,4366404.69,4366505.3000000715,4366421.223,4369440.422,1,40,36,
sequence,flow.Sequence,8_35,2023-11-13T22:08:02.019Z,,,,,,,,,,3106.776999999769,completion,,,,,,,low,low,,,,,,false,,,,true,4369529.600000024,4369528,4366404.69,4366505.200000048,4366421.223,4369440.422,1,40,,
trial,html.Screen,8_36_0,2023-11-13T22:08:04.594Z,,,,2,-0.0718390543903236,0.0593670819812057,,false,hh,2663.8780000712723,response,0.5289509544364224,0.4591164230517077,-0.49692378433045575,0.6624056631091191,0.47095088081738484,-0.48907820945676367,high,high,,ISIC_0062367.JPG,,ISIC_9726155.JPG,413,false,hl,keypress(j),0,true,4372104.8000000715,4372104.3000000715,4369423.914,4369529.899999976,4369440.422,4372026.121,1,40,37,
sequence,flow.Sequence,8_36,2023-11-13T22:08:04.595Z,,,,,,,,,,2663.8780000712723,completion,,,,,,,high,high,,,,,,false,,,,true,4372105.399999976,4372104.3000000715,4369423.914,4369529.8000000715,4369440.422,4372026.121,1,40,,
trial,html.Screen,8_37_0,2023-11-13T22:08:06.545Z,,,,2,-0.0296598845560212,-0.0159061451859594,,true,ll,2029.4790000235662,response,-0.5108018963259868,0.4591164230517077,-0.49692378433045575,-0.5992345506292911,0.47095088081738484,-0.48907820945676367,low,low,,ISIC_0072564.JPG,,ISIC_8479104.JPG,487,false,ll,keypress(f),0,true,4374056.100000024,4374055.600000024,4372009.275,4372105.700000048,4372026.121,4373977.685,1,40,38,
sequence,flow.Sequence,8_37,2023-11-13T22:08:06.546Z,,,,,,,,,,2029.4790000235662,completion,,,,,,,low,low,,,,,,false,,,,true,4374056.700000048,4374055.600000024,4372009.275,4372105.600000024,4372026.121,4373977.685,1,40,,
trial,html.Screen,8_38_0,2023-11-13T22:08:08.673Z,,,,2,0.029030243555971,0.0511770300585718,,false,hl,2206.214999976568,response,0.40565424846634,0.4591164230517077,-0.49692378433045575,-0.5709796414825712,0.47095088081738484,-0.48907820945676367,high,low,,ISIC_6652978.JPG,,ISIC_6285076.JPG,254,false,lh,keypress(e),0,true,4376184.399999976,4376183.899999976,4373961.088,4374057.100000024,4373977.685,4376095.937,1,40,39,
sequence,flow.Sequence,8_38,2023-11-13T22:08:08.674Z,,,,,,,,,,2206.214999976568,completion,,,,,,,high,low,,,,,,false,,,,true,4376184.899999976,4376183.899999976,4373961.088,4374057,4373977.685,4376095.937,1,40,,
trial,html.Screen,8_39_0,2023-11-13T22:08:11.040Z,,,,2,-0.0543422987007948,0.0415913596725838,,false,lh,2454.663000023924,response,-0.5926691828832076,0.4591164230517077,-0.49692378433045575,0.6635376567153434,0.47095088081738484,-0.48907820945676367,low,high,,ISIC_0027956.JPG,,ISIC_5552066.JPG,286,false,ll,keypress(f),0,true,4378550.8000000715,4378550.600000024,4376079.438,4376185.3000000715,4376095.937,4378464.507,1,40,40,
sequence,flow.Sequence,8_39,2023-11-13T22:08:11.040Z,,,,,,,,,,2454.663000023924,completion,,,,,,,low,high,,,,,,false,,,,true,4378551.200000048,4378550.600000024,4376079.438,4376185.200000048,4376095.937,4378464.507,1,40,,
stair_loop,flow.Loop,8,2023-11-13T22:08:11.041Z,,,,,,,,,,151244.4610000234,completion,,,,,,,,,,,,,,false,,,,true,4378551.399999976,4378550.600000024,4227289.66,4227390.200000048,4227306.139,4378464.507,1,40,,
exp_instructions,html.Screen,9,2023-11-13T22:08:23.057Z,,,,,,,,,,12102.193000047468,response,,,,,,,,,,,,,,,continue,keypress(Space),,,4390567.8000000715,4390566.700000048,4378448.108,4378551.5,4378464.507,4390491.124,,,,
trial,html.Screen,10_0_0,2023-11-13T22:08:28.152Z,,,,1,-0.0296598845560212,-0.0159061451859594,,false,hh,5171.1760000716895,response,0.3387959583063719,0.471381496136195,-0.4869237843304557,0.4360280671727652,0.47095088081738484,-0.46966971245834477,high,high,,ISIC_0072564.JPG,9,ISIC_0066143.JPG,410,false,ll,keypress(f),0,false,4395662.5,4395662.3000000715,4390474.768,4390568.5,4390491.124,4395578.688,4,500,1,
break,html.Screen,10_0_1,2023-11-13T22:08:28.152Z,,,,,,,,,,NaN,,,,,,,,high,high,,,,,,false,,,,false,4395663.100000024,4395662.899999976,,4395662.700000048,,4395578.688,4,500,,
break_continue,html.Screen,10_0_2,2023-11-13T22:08:28.153Z,,,,,,,,,,NaN,,,,,,,,high,high,,,,,,false,,,,false,4395663.399999976,4395663.3000000715,,4395663.200000048,,4395578.688,4,500,,
sequence,flow.Sequence,10_0,2023-11-13T22:08:28.153Z,,,,,,,,,,5172.1760000716895,completion,,,,,,,high,high,,,,,,false,,,,false,4395663.5,4395663.3000000715,4390474.768,4390568.399999976,4390491.124,4395578.688,4,500,,
trial,html.Screen,10_1_0,2023-11-13T22:08:32.273Z,,,,1,0.0725320314728604,-0.0737104822171846,,false,hh,4204.811999999918,response,0.4172807130804959,0.471381496136195,-0.4869237843304557,0.3554745402387751,0.47095088081738484,-0.46966971245834477,high,high,,ISIC_0002862.JPG,9,ISIC_5406677.JPG,410,false,lh,keypress(e),0,false,4399783.899999976,4399783.5,4395561.884,4395663.600000024,4395578.688,4399698.79,4,500,2,
break,html.Screen,10_1_1,2023-11-13T22:08:32.275Z,,,,,,,,,,NaN,,,,,,,,high,high,,,,,,false,,,,false,4399785.600000024,4399785,,4399784.399999976,,4399698.79,4,500,,
break_continue,html.Screen,10_1_2,2023-11-13T22:08:32.276Z,,,,,,,,,,NaN,,,,,,,,high,high,,,,,,false,,,,false,4399786.8000000715,4399786.3000000715,,4399785.899999976,,4399698.79,4,500,,
sequence,flow.Sequence,10_1,2023-11-13T22:08:32.276Z,,,,,,,,,,4207.612000071444,completion,,,,,,,high,high,,,,,,false,,,,false,4399787.200000048,4399786.3000000715,4395561.884,4395663.600000024,4395578.688,4399698.79,4,500,,
trial,html.Screen,10_2_0,2023-11-13T22:08:36.034Z,,,,1,-0.0700576547090477,-0.0367218428225813,,false,ll,3845.5100000714883,response,-0.4112621992652138,0.471381496136195,-0.4869237843304557,-0.438965184635081,0.47095088081738484,-0.46966971245834477,low,low,,ISIC_7212271.JPG,9,ISIC_0007760.JPG,487,false,hl,keypress(j),0,false,4403544.700000048,4403544.3000000715,4399682.08,4399787.5,4399698.79,4403468.8,4,500,3,
break,html.Screen,10_2_1,2023-11-13T22:08:36.036Z,,,,,,,,,,NaN,,,,,,,,low,low,,,,,,false,,,,false,4403546.399999976,4403546,,4403545.200000048,,4403468.8,4,500,,
break_continue,html.Screen,10_2_2,2023-11-13T22:08:36.037Z,,,,,,,,,,NaN,,,,,,,,low,low,,,,,,false,,,,false,4403547.5,4403547,,4403546.700000048,,4403468.8,4,500,,
sequence,flow.Sequence,10_2,2023-11-13T22:08:36.037Z,,,,,,,,,,3848.2099999999627,completion,,,,,,,low,low,,,,,,false,,,,false,4403547.899999976,4403547,4399682.08,4399787.399999976,4399698.79,4403468.8,4,500,,
trial,html.Screen,10_3_0,2023-11-13T22:08:39.554Z,,,,1,0.0143212271490256,0.0389988030702649,,false,lh,3595.2000000001863,response,-0.5910432960604385,0.471381496136195,-0.4869237843304557,0.3439277434424414,0.47095088081738484,-0.46966971245834477,low,high,,ISIC_0064669.JPG,9,ISIC_0013243.JPG,292,false,ll,keypress(f),0,false,4407064.5,4407064,4403452.067,4403548.200000048,4403468.8,4406988.095,4,500,4,
break,html.Screen,10_3_1,2023-11-13T22:08:39.555Z,,,,,,,,,,NaN,,,,,,,,low,high,,,,,,false,,,,false,4407066.3000000715,4407065.600000024,,4407064.899999976,,4406988.095,4,500,,
break_continue,html.Screen,10_3_2,2023-11-13T22:08:39.557Z,,,,,,,,,,NaN,,,,,,,,low,high,,,,,,false,,,,false,4407067.399999976,4407066.899999976,,4407066.600000024,,4406988.095,4,500,,
sequence,flow.Sequence,10_3,2023-11-13T22:08:39.557Z,,,,,,,,,,3598.0999999763444,completion,,,,,,,low,high,,,,,,false,,,,false,4407067.899999976,4407066.899999976,4403452.067,4403548.100000024,4403468.8,4406988.095,4,500,,
trial,html.Screen,10_4_0,2023-11-13T22:08:44.289Z,,,,1,-0.0296598845560212,-0.0159061451859594,,false,lh,4811.205000071786,response,-0.3600131147894497,0.471381496136195,-0.4869237843304557,0.575782879306745,0.47095088081738484,-0.46966971245834477,low,high,,ISIC_0072564.JPG,9,ISIC_0012263.JPG,292,false,ll,keypress(f),0,false,4411799.8000000715,4411799.3000000715,4406971.653,4407068.200000048,4406988.095,4411725.62,4,500,5,
break,html.Screen,10_4_1,2023-11-13T22:08:44.291Z,,,,,,,,,,NaN,,,,,,,,low,high,,,,,,false,,,,false,4411801.8000000715,4411801.100000024,,4411800.399999976,,4411725.62,4,500,,
break_continue,html.Screen,10_4_2,2023-11-13T22:08:44.292Z,,,,,,,,,,NaN,,,,,,,,low,high,,,,,,false,,,,false,4411803,4411802.5,,4411802.100000024,,4411725.62,4,500,,
sequence,flow.Sequence,10_4,2023-11-13T22:08:44.292Z,,,,,,,,,,4814.405000000261,completion,,,,,,,low,high,,,,,,false,,,,false,4411803.100000024,4411802.5,4406971.653,4407068,4406988.095,4411725.62,4,500,,
trial,html.Screen,10_5_0,2023-11-13T22:08:47.570Z,,,,1,-0.0228701131373768,0.039728379742806,,false,lh,3354.580000047572,response,-0.6054216347801914,0.471381496136195,-0.4869237843304557,0.5890932843810714,0.47095088081738484,-0.46966971245834477,low,high,,ISIC_0054073.JPG,9,ISIC_0014722.JPG,292,false,hh,keypress(i),0,false,4415080.600000024,4415080.200000048,4411708.848,4411803.3000000715,4411725.62,4414994.722,4,500,6,
break,html.Screen,10_5_1,2023-11-13T22:08:47.572Z,,,,,,,,,,NaN,,,,,,,,low,high,,,,,,false,,,,false,4415082.3000000715,4415081.8000000715,,4415081.100000024,,4414994.722,4,500,,
break_continue,html.Screen,10_5_2,2023-11-13T22:08:47.573Z,,,,,,,,,,NaN,,,,,,,,low,high,,,,,,false,,,,false,4415083.399999976,4415083,,4415082.600000024,,4414994.722,4,500,,
sequence,flow.Sequence,10_5,2023-11-13T22:08:47.573Z,,,,,,,,,,3357.3799999998882,completion,,,,,,,low,high,,,,,,false,,,,false,4415083.899999976,4415083,4411708.848,4411803.200000048,4411725.62,4414994.722,4,500,,
trial,html.Screen,10_6_0,2023-11-13T22:08:51.154Z,,,,1,0.0309670599545429,-0.0102460616775615,,false,lh,3669.277999999933,response,-0.4527964606094076,0.471381496136195,-0.4869237843304557,0.3079078473444861,0.47095088081738484,-0.46966971245834477,low,high,,ISIC_0072041.JPG,8,ISIC_3961647.JPG,292,false,ll,keypress(f),0,false,4418664.399999976,4418664,4414977.949,4415084.3000000715,4414994.722,4418581.015,4,500,7,
break,html.Screen,10_6_1,2023-11-13T22:08:51.155Z,,,,,,,,,,NaN,,,,,,,,low,high,,,,,,false,,,,false,4418666,4418665.600000024,,4418665,,4418581.015,4,500,,
break_continue,html.Screen,10_6_2,2023-11-13T22:08:51.156Z,,,,,,,,,,NaN,,,,,,,,low,high,,,,,,false,,,,false,4418667.200000048,4418666.700000048,,4418666.399999976,,4418581.015,4,500,,
sequence,flow.Sequence,10_6,2023-11-13T22:08:51.157Z,,,,,,,,,,3671.9780000476167,completion,,,,,,,low,high,,,,,,false,,,,false,4418667.600000024,4418666.700000048,4414977.949,4415084.100000024,4414994.722,4418581.015,4,500,,
trial,html.Screen,10_7_0,2023-11-13T22:08:53.377Z,,,,1,-0.0258434522530318,0.0116094682222121,,false,ll,2306.785000071861,response,-0.418477750212653,0.471381496136195,-0.4869237843304557,-0.6187395613614789,0.47095088081738484,-0.46966971245834477,low,low,,ISIC_9239632.JPG,9,ISIC_1461507.JPG,487,false,hl,keypress(j),0,false,4420888.3000000715,4420887.8000000715,4418564.524,4418668,4418581.015,4420799.569,4,500,8,
break,html.Screen,10_7_1,2023-11-13T22:08:53.379Z,,,,,,,,,,NaN,,,,,,,,low,low,,,,,,false,,,,false,4420889.899999976,4420889.399999976,,4420888.700000048,,4420799.569,4,500,,
break_continue,html.Screen,10_7_2,2023-11-13T22:08:53.380Z,,,,,,,,,,NaN,,,,,,,,low,low,,,,,,false,,,,false,4420891,4420890.5,,4420890.100000024,,4420799.569,4,500,,
sequence,flow.Sequence,10_7,2023-11-13T22:08:53.381Z,,,,,,,,,,2309.4850000003353,completion,,,,,,,low,low,,,,,,false,,,,false,4420891.399999976,4420890.5,4418564.524,4418667.8000000715,4418581.015,4420799.569,4,500,,
trial,html.Screen,10_8_0,2023-11-13T22:08:56.017Z,,,,1,-0.0228701131373768,0.039728379742806,,false,ll,2727.7310000713915,response,-0.6526724457046548,0.471381496136195,-0.4869237843304557,-0.5415906991844043,0.47095088081738484,-0.46966971245834477,low,low,,ISIC_0054073.JPG,9,ISIC_4876193.JPG,487,false,hh,keypress(i),0,false,4423527.5,4423527.3000000715,4420782.982,4420891.8000000715,4420799.569,4423451.652,4,500,9,
break,html.Screen,10_8_1,2023-11-13T22:08:56.018Z,,,,,,,,,,NaN,,,,,,,,low,low,,,,,,false,,,,false,4423528.399999976,4423528.100000024,,4423527.8000000715,,4423451.652,4,500,,
break_continue,html.Screen,10_8_2,2023-11-13T22:08:56.018Z,,,,,,,,,,NaN,,,,,,,,low,low,,,,,,false,,,,false,4423529.100000024,4423528.8000000715,,4423528.600000024,,4423451.652,4,500,,
sequence,flow.Sequence,10_8,2023-11-13T22:08:56.018Z,,,,,,,,,,2729.2310000713915,completion,,,,,,,low,low,,,,,,false,,,,false,4423529.200000048,4423528.8000000715,4420782.982,4420891.700000048,4420799.569,4423451.652,4,500,,
trial,html.Screen,10_9_0,2023-11-13T22:08:59.026Z,,,,1,-0.0464691161264081,0.0085520978188085,,true,lh,3084.5480000479147,response,-0.6593765699805005,0.471381496136195,-0.4869237843304557,0.3994161722191028,0.47095088081738484,-0.46966971245834477,low,high,,ISIC_0758797.JPG,9,ISIC_1644520.JPG,292,false,lh,keypress(e),0,false,4426536.700000048,4426536.200000048,4423435.239,4423529.399999976,4423451.652,4426454.441,4,500,10,
break,html.Screen,10_9_1,2023-11-13T22:08:59.027Z,,,,,,,,,,NaN,,,,,,,,low,high,,,,,,false,,,,false,4426538.3000000715,4426537.8000000715,,4426537.200000048,,4426454.441,4,500,,
break_continue,html.Screen,10_9_2,2023-11-13T22:08:59.029Z,,,,,,,,,,NaN,,,,,,,,low,high,,,,,,false,,,,false,4426539.5,4426538.899999976,,4426538.600000024,,4426454.441,4,500,,
sequence,flow.Sequence,10_9,2023-11-13T22:08:59.029Z,,,,,,,,,,3087.247999976389,completion,,,,,,,low,high,,,,,,false,,,,false,4426539.8000000715,4426538.899999976,4423435.239,4423529.3000000715,4423451.652,4426454.441,4,500,,
trial,html.Screen,10_10_0,2023-11-13T22:09:02.001Z,,,,1,-0.0687761754603142,0.0247880219471745,,false,lh,3057.359000071883,response,-0.6116306329085605,0.471381496136195,-0.4869237843304557,0.4729151826910023,0.47095088081738484,-0.46966971245834477,low,high,,ISIC_0031745.JPG,10,ISIC_6054977.JPG,292,false,ll,keypress(f),0,false,4429512.200000048,4429511.8000000715,4426437.808,4426540.100000024,4426454.441,4429423.35,4,500,11,
break,html.Screen,10_10_1,2023-11-13T22:09:02.003Z,,,,,,,,,,NaN,,,,,,,,low,high,,,,,,false,,,,false,4429513.8000000715,4429513.399999976,,4429512.700000048,,4429423.35,4,500,,
break_continue,html.Screen,10_10_2,2023-11-13T22:09:02.004Z,,,,,,,,,,NaN,,,,,,,,low,high,,,,,,false,,,,false,4429514.8000000715,4429514.399999976,,4429514,,4429423.35,4,500,,
sequence,flow.Sequence,10_10,2023-11-13T22:09:02.004Z,,,,,,,,,,3059.9589999765158,completion,,,,,,,low,high,,,,,,false,,,,false,4429515.100000024,4429514.399999976,4426437.808,4426540,4426454.441,4429423.35,4,500,,
trial,html.Screen,10_11_0,2023-11-13T22:09:05.026Z,,,,1,-0.0009714874637896,0.0050679133050021,,true,hl,3112.7500000242144,response,0.5761524522984084,0.471381496136195,-0.4869237843304557,-0.3326637503437828,0.47095088081738484,-0.46966971245834477,high,low,,ISIC_9848743.JPG,8,ISIC_0010901.JPG,261,false,hl,keypress(j),0,false,4432536.600000024,4432536.100000024,4429406.943,4429515.399999976,4429423.35,4432459.308,4,500,12,
break,html.Screen,10_11_1,2023-11-13T22:09:05.027Z,,,,,,,,,,NaN,,,,,,,,high,low,,,,,,false,,,,false,4432538,4432537.600000024,,4432537,,4432459.308,4,500,,
break_continue,html.Screen,10_11_2,2023-11-13T22:09:05.028Z,,,,,,,,,,NaN,,,,,,,,high,low,,,,,,false,,,,false,4432538.899999976,4432538.5,,4432538.200000048,,4432459.308,4,500,,
sequence,flow.Sequence,10_11,2023-11-13T22:09:05.028Z,,,,,,,,,,3115.1500000003725,completion,,,,,,,high,low,,,,,,false,,,,false,4432539.3000000715,4432538.5,4429406.943,4429515.399999976,4429423.35,4432459.308,4,500,,
trial,html.Screen,10_12_0,2023-11-13T22:09:07.951Z,,,,1,0.0661630859332833,-0.0149482827359613,,false,ll,3002.89200004749,response,-0.3160113486222081,0.471381496136195,-0.4869237843304557,-0.3274268067131869,0.47095088081738484,-0.46966971245834477,low,low,,ISIC_6815524.JPG,10,ISIC_3529778.JPG,487,false,lh,keypress(e),0,false,4435462.3000000715,4435462.200000048,4432442.642,4432539.5,4432459.308,4435378.233,4,500,13,
break,html.Screen,10_12_1,2023-11-13T22:09:07.952Z,,,,,,,,,,NaN,,,,,,,,low,low,,,,,,false,,,,false,4435462.8000000715,4435462.700000048,,4435462.399999976,,4435378.233,4,500,,
break_continue,html.Screen,10_12_2,2023-11-13T22:09:07.952Z,,,,,,,,,,NaN,,,,,,,,low,low,,,,,,false,,,,false,4435463.100000024,4435462.899999976,,4435462.8000000715,,4435378.233,4,500,,
sequence,flow.Sequence,10_12,2023-11-13T22:09:07.952Z,,,,,,,,,,3003.5919999759644,completion,,,,,,,low,low,,,,,,false,,,,false,4435463.100000024,4435462.899999976,4432442.642,4432539.399999976,4432459.308,4435378.233,4,500,,
trial,html.Screen,10_13_0,2023-11-13T22:09:10.911Z,,,,1,0.053462758614929,-0.0245585387483123,,false,ll,3043.2669999999925,response,-0.6045952254527632,0.471381496136195,-0.4869237843304557,-0.3702276760363279,0.47095088081738484,-0.46966971245834477,low,low,,ISIC_3389704.JPG,9,ISIC_7888517.JPG,487,false,hh,keypress(i),0,false,4438421.5,4438421.5,4435361.516,4435463.3000000715,4435378.233,4438347.571,4,500,14,
break,html.Screen,10_13_1,2023-11-13T22:09:10.911Z,,,,,,,,,,NaN,,,,,,,,low,low,,,,,,false,,,,false,4438421.700000048,4438421.700000048,,4438421.5,,4438347.571,4,500,,
break_continue,html.Screen,10_13_2,2023-11-13T22:09:10.911Z,,,,,,,,,,NaN,,,,,,,,low,low,,,,,,false,,,,false,4438421.899999976,4438421.8000000715,,4438421.8000000715,,4438347.571,4,500,,
sequence,flow.Sequence,10_13,2023-11-13T22:09:10.911Z,,,,,,,,,,3043.567000071518,completion,,,,,,,low,low,,,,,,false,,,,false,4438421.899999976,4438421.8000000715,4435361.516,4435463.200000048,4435378.233,4438347.571,4,500,,
trial,html.Screen,10_14_0,2023-11-13T22:09:13.169Z,,,,1,0.0249968632204382,0.0324770283903853,,true,ll,2332.129000047222,response,-0.52894250964363,0.471381496136195,-0.4869237843304557,-0.3680025970728374,0.47095088081738484,-0.46966971245834477,low,low,,ISIC_7266462.JPG,10,ISIC_1331993.JPG,487,false,ll,keypress(f),0,false,4440680.100000024,4440679.700000048,4438313.893,4438421.899999976,4438347.571,4440599.23,4,500,15,
break,html.Screen,10_14_1,2023-11-13T22:09:13.171Z,,,,,,,,,,NaN,,,,,,,,low,low,,,,,,false,,,,false,4440681.600000024,4440681.100000024,,4440680.600000024,,4440599.23,4,500,,
break_continue,html.Screen,10_14_2,2023-11-13T22:09:13.172Z,,,,,,,,,,NaN,,,,,,,,low,low,,,,,,false,,,,false,4440682.8000000715,4440682.3000000715,,4440681.899999976,,4440599.23,4,500,,
sequence,flow.Sequence,10_14,2023-11-13T22:09:13.172Z,,,,,,,,,,2334.7290000710636,completion,,,,,,,low,low,,,,,,false,,,,false,4440683.100000024,4440682.3000000715,4438313.893,4438421.899999976,4438347.571,4440599.23,4,500,,
trial,html.Screen,10_15_0,2023-11-13T22:09:14.640Z,,,,1,0.053462758614929,-0.0245585387483123,,false,lh,1550.9700000472367,response,-0.5707782821012205,0.471381496136195,-0.4869237843304557,0.3953784142366808,0.47095088081738484,-0.46966971245834477,low,high,,ISIC_3389704.JPG,9,ISIC_0032583.JPG,292,false,hl,keypress(j),0,false,4442150.3000000715,4442150.200000048,4440582.615,4440683.600000024,4440599.23,4442067.072,4,500,16,
break,html.Screen,10_15_1,2023-11-13T22:09:14.640Z,,,,,,,,,,NaN,,,,,,,,low,high,,,,,,false,,,,false,4442150.899999976,4442150.700000048,,4442150.5,,4442067.072,4,500,,
break_continue,html.Screen,10_15_2,2023-11-13T22:09:14.640Z,,,,,,,,,,NaN,,,,,,,,low,high,,,,,,false,,,,false,4442151.3000000715,4442151.100000024,,4442151,,4442067.072,4,500,,
sequence,flow.Sequence,10_15,2023-11-13T22:09:14.641Z,,,,,,,,,,1551.8700000233948,completion,,,,,,,low,high,,,,,,false,,,,false,4442151.3000000715,4442151.100000024,4440582.615,4440683.5,4440599.23,4442067.072,4,500,,
trial,html.Screen,10_16_0,2023-11-13T22:09:17.714Z,,,,1,0.0622582668671422,-0.040191644178716,,false,ll,3157.128000047989,response,-0.3604310689501681,0.471381496136195,-0.4869237843304557,-0.6570799324845479,0.47095088081738484,-0.46966971245834477,low,low,,ISIC_6207688.JPG,8,ISIC_0034289.JPG,487,false,lh,keypress(e),0,false,4445224.700000048,4445224.200000048,4442050.266,4442151.5,4442067.072,4445136.36,4,500,17,
break,html.Screen,10_16_1,2023-11-13T22:09:17.716Z,,,,,,,,,,NaN,,,,,,,,low,low,,,,,,false,,,,false,4445226.399999976,4445225.899999976,,4445225.3000000715,,4445136.36,4,500,,
break_continue,html.Screen,10_16_2,2023-11-13T22:09:17.717Z,,,,,,,,,,NaN,,,,,,,,low,low,,,,,,false,,,,false,4445227.600000024,4445227.100000024,,4445226.700000048,,4445136.36,4,500,,
sequence,flow.Sequence,10_16,2023-11-13T22:09:17.717Z,,,,,,,,,,3160.0280000241473,completion,,,,,,,low,low,,,,,,false,,,,false,4445228.100000024,4445227.100000024,4442050.266,4442151.5,4442067.072,4445136.36,4,500,,
trial,html.Screen,10_17_0,2023-11-13T22:09:20.530Z,,,,1,-0.0704357137706731,-0.0265457942157377,,false,ll,2904.3400000473484,response,-0.5255678362690218,0.471381496136195,-0.4869237843304557,-0.4570164399433749,0.47095088081738484,-0.46966971245834477,low,low,,ISIC_3123377.JPG,9,ISIC_0058891.JPG,487,false,hh,keypress(i),0,false,4448041.200000048,4448040.700000048,4445119.706,4445228.3000000715,4445136.36,4447955.351,4,500,18,
break,html.Screen,10_17_1,2023-11-13T22:09:20.532Z,,,,,,,,,,NaN,,,,,,,,low,low,,,,,,false,,,,false,4448042.899999976,4448042.3000000715,,4448041.600000024,,4447955.351,4,500,,
break_continue,html.Screen,10_17_2,2023-11-13T22:09:20.533Z,,,,,,,,,,NaN,,,,,,,,low,low,,,,,,false,,,,false,4448044.100000024,4448043.5,,4448043.3000000715,,4447955.351,4,500,,
sequence,flow.Sequence,10_17,2023-11-13T22:09:20.534Z,,,,,,,,,,2907.1399999996647,completion,,,,,,,low,low,,,,,,false,,,,false,4448044.5,4448043.5,4445119.706,4445228.200000048,4445136.36,4447955.351,4,500,,
trial,html.Screen,10_18_0,2023-11-13T22:09:23.026Z,,,,1,-0.0619041869188676,-0.0087912446525382,,false,hl,2580.5489999763668,response,0.4139810806501954,0.471381496136195,-0.4869237843304557,-0.3872049848666829,0.47095088081738484,-0.46966971245834477,high,low,,ISIC_7185913.JPG,9,ISIC_0000304.JPG,261,false,ll,keypress(f),0,false,4450536.399999976,4450535.899999976,4447938.811,4448044.8000000715,4447955.351,4450474.106,4,500,19,
break,html.Screen,10_18_1,2023-11-13T22:09:23.027Z,,,,,,,,,,NaN,,,,,,,,high,low,,,,,,false,,,,false,4450537.899999976,4450537.600000024,,4450536.899999976,,4450474.106,4,500,,
break_continue,html.Screen,10_18_2,2023-11-13T22:09:23.028Z,,,,,,,,,,NaN,,,,,,,,high,low,,,,,,false,,,,false,4450539.100000024,4450538.5,,4450538.200000048,,4450474.106,4,500,,
sequence,flow.Sequence,10_18,2023-11-13T22:09:23.029Z,,,,,,,,,,2583.1490000002086,completion,,,,,,,high,low,,,,,,false,,,,false,4450539.5,4450538.5,4447938.811,4448044.8000000715,4447955.351,4450474.106,4,500,,
trial,html.Screen,10_19_0,2023-11-13T22:09:25.682Z,,,,1,0.0417921315885292,-0.0097091270150747,,true,hl,2718.194000071846,response,0.4627181389344465,0.471381496136195,-0.4869237843304557,-0.36333123780702,0.47095088081738484,-0.46966971245834477,high,low,,ISIC_3967213.JPG,8,ISIC_0030085.JPG,261,false,hl,keypress(j),0,false,4453192.899999976,4453192.3000000715,4450457.657,4450539.8000000715,4450474.106,4453109.556,4,500,20,
break,html.Screen,10_19_1,2023-11-13T22:09:25.684Z,,,,,,,,,,NaN,,,,,,,,high,low,,,,,,false,,,,false,4453194.700000048,4453194.100000024,,4453193.5,,4453109.556,4,500,,
break_continue,html.Screen,10_19_2,2023-11-13T22:09:25.685Z,,,,,,,,,,NaN,,,,,,,,high,low,,,,,,false,,,,false,4453195.899999976,4453195.399999976,,4453195,,4453109.556,4,500,,
sequence,flow.Sequence,10_19,2023-11-13T22:09:25.686Z,,,,,,,,,,2721.2939999764785,completion,,,,,,,high,low,,,,,,false,,,,false,4453196.5,4453195.399999976,4450457.657,4450539.700000048,4450474.106,4453109.556,4,500,,
trial,html.Screen,10_20_0,2023-11-13T22:09:28.255Z,,,,1,-0.0382899749693245,0.0329095507339554,,false,hh,2655.8439999762923,response,0.3115952887195506,0.471381496136195,-0.4869237843304557,0.5006390137234473,0.47095088081738484,-0.46966971245834477,high,high,,ISIC_8812781.JPG,9,ISIC_0031070.JPG,410,false,ll,keypress(f),0,false,4455765.399999976,4455765.399999976,4453093.125,4453196.899999976,4453109.556,4455678.184,4,500,21,
break,html.Screen,10_20_1,2023-11-13T22:09:28.255Z,,,,,,,,,,NaN,,,,,,,,high,high,,,,,,false,,,,false,4455765.700000048,4455765.600000024,,4455765.5,,4455678.184,4,500,,
break_continue,html.Screen,10_20_2,2023-11-13T22:09:28.255Z,,,,,,,,,,NaN,,,,,,,,high,high,,,,,,false,,,,false,4455765.899999976,4455765.8000000715,,4455765.700000048,,4455678.184,4,500,,
sequence,flow.Sequence,10_20,2023-11-13T22:09:28.255Z,,,,,,,,,,2656.2440000716597,completion,,,,,,,high,high,,,,,,false,,,,false,4455766,4455765.8000000715,4453093.125,4453196.8000000715,4453109.556,4455678.184,4,500,,
trial,html.Screen,10_21_0,2023-11-13T22:09:31.488Z,,,,1,-0.0299718727255261,-0.0533723079251252,,false,ll,3320.9160000234842,response,-0.5882782876927388,0.471381496136195,-0.4869237843304557,-0.419243981025767,0.47095088081738484,-0.46966971245834477,low,low,,ISIC_6562871.JPG,9,ISIC_9542544.JPG,487,false,lh,keypress(e),0,false,4458999.399999976,4458999.100000024,4455661.799,4455766,4455678.184,4458914.328,4,500,22,
break,html.Screen,10_21_1,2023-11-13T22:09:31.489Z,,,,,,,,,,NaN,,,,,,,,low,low,,,,,,false,,,,false,4459000.3000000715,4459000.100000024,,4458999.700000048,,4458914.328,4,500,,
break_continue,html.Screen,10_21_2,2023-11-13T22:09:31.490Z,,,,,,,,,,NaN,,,,,,,,low,low,,,,,,false,,,,false,4459000.8000000715,4459000.600000024,,4459000.399999976,,4458914.328,4,500,,
sequence,flow.Sequence,10_21,2023-11-13T22:09:31.490Z,,,,,,,,,,3322.4160000234842,completion,,,,,,,low,low,,,,,,false,,,,false,4459000.899999976,4459000.600000024,4455661.799,4455766,4455678.184,4458914.328,4,500,,
trial,html.Screen,10_22_0,2023-11-13T22:09:34.882Z,,,,1,-0.0240487075377862,0.0544808612748248,,false,lh,3478.272000024095,response,-0.4392971328034516,0.471381496136195,-0.4869237843304557,0.2888237329459749,0.47095088081738484,-0.46966971245834477,low,high,,ISIC_4606646.JPG,9,ISIC_8562820.JPG,292,false,hh,keypress(i),0,false,4462393,4462392.600000024,4458897.934,4459001.100000024,4458914.328,4462317.473,4,500,23,
break,html.Screen,10_22_1,2023-11-13T22:09:34.884Z,,,,,,,,,,NaN,,,,,,,,low,high,,,,,,false,,,,false,4462394.700000048,4462394.100000024,,4462393.5,,4462317.473,4,500,,
break_continue,html.Screen,10_22_2,2023-11-13T22:09:34.885Z,,,,,,,,,,NaN,,,,,,,,low,high,,,,,,false,,,,false,4462395.899999976,4462395.399999976,,4462395.100000024,,4462317.473,4,500,,
sequence,flow.Sequence,10_22,2023-11-13T22:09:34.885Z,,,,,,,,,,3481.0719999764115,completion,,,,,,,low,high,,,,,,false,,,,false,4462396.3000000715,4462395.399999976,4458897.934,4459001,4458914.328,4462317.473,4,500,,
trial,html.Screen,10_23_0,2023-11-13T22:09:37.026Z,,,,1,-0.0585810480909377,0.0111354529246037,,true,ll,2218.627000023611,response,-0.5842201153798159,0.471381496136195,-0.4869237843304557,-0.5340514760764611,0.47095088081738484,-0.46966971245834477,low,low,,ISIC_7858034.JPG,9,ISIC_0765585.JPG,487,false,ll,keypress(f),0,false,4464536.600000024,4464536.100000024,4462300.397,4462396.700000048,4462317.473,4464452.275,4,500,24,
break,html.Screen,10_23_1,2023-11-13T22:09:37.027Z,,,,,,,,,,NaN,,,,,,,,low,low,,,,,,false,,,,false,4464538.200000048,4464537.700000048,,4464537,,4464452.275,4,500,,
break_continue,html.Screen,10_23_2,2023-11-13T22:09:37.028Z,,,,,,,,,,NaN,,,,,,,,low,low,,,,,,false,,,,false,4464539.200000048,4464538.700000048,,4464538.399999976,,4464452.275,4,500,,
sequence,flow.Sequence,10_23,2023-11-13T22:09:37.029Z,,,,,,,,,,2221.2270000474527,completion,,,,,,,low,low,,,,,,false,,,,false,4464539.600000024,4464538.700000048,4462300.397,4462396.600000024,4462317.473,4464452.275,4,500,,
trial,html.Screen,10_24_0,2023-11-13T22:09:39.362Z,,,,1,0.0049995141077508,0.0070725527271049,,false,ll,2419.7249999996275,response,-0.4673398129353234,0.471381496136195,-0.4869237843304557,-0.5736665472939146,0.47095088081738484,-0.46966971245834477,low,low,,ISIC_6124481.JPG,9,ISIC_0058730.JPG,487,false,hl,keypress(j),0,false,4466872.399999976,4466872,4464435.773,4464539.899999976,4464452.275,4466787.513,4,500,25,
break,html.Screen,10_24_1,2023-11-13T22:09:39.363Z,,,,,,,,,,NaN,,,,,,,,low,low,,,,,,false,,,,false,4466873.8000000715,4466873.5,,4466872.899999976,,4466787.513,4,500,,
break_continue,html.Screen,10_24_2,2023-11-13T22:09:39.364Z,,,,,,,,,,NaN,,,,,,,,low,low,,,,,,false,,,,false,4466874.899999976,4466874.5,,4466874.200000048,,4466787.513,4,500,,
sequence,flow.Sequence,10_24,2023-11-13T22:09:39.364Z,,,,,,,,,,2422.2249999996275,completion,,,,,,,low,low,,,,,,false,,,,false,4466875.200000048,4466874.5,4464435.773,4464539.8000000715,4464452.275,4466787.513,4,500,,
trial,html.Screen,10_25_0,2023-11-13T22:09:42.209Z,,,,1,-0.0543422987007948,0.0415913596725838,,false,hh,2932.38699997589,response,0.3637644884540938,0.471381496136195,-0.4869237843304557,0.4362493074709935,0.47095088081738484,-0.46966971245834477,high,high,,ISIC_0027956.JPG,9,ISIC_6978997.JPG,410,false,ll,keypress(f),0,false,4469720.399999976,4469719.899999976,4466771.081,4466875.5,4466787.513,4469639.913,4,500,26,
break,html.Screen,10_25_1,2023-11-13T22:09:42.211Z,,,,,,,,,,NaN,,,,,,,,high,high,,,,,,false,,,,false,4469722.200000048,4469721.5,,4469720.899999976,,4469639.913,4,500,,
break_continue,html.Screen,10_25_2,2023-11-13T22:09:42.212Z,,,,,,,,,,NaN,,,,,,,,high,high,,,,,,false,,,,false,4469723.3000000715,4469722.899999976,,4469722.399999976,,4469639.913,4,500,,
sequence,flow.Sequence,10_25,2023-11-13T22:09:42.213Z,,,,,,,,,,2935.38699997589,completion,,,,,,,high,high,,,,,,false,,,,false,4469723.8000000715,4469722.899999976,4466771.081,4466875.399999976,4466787.513,4469639.913,4,500,,
trial,html.Screen,10_26_0,2023-11-13T22:09:45.330Z,,,,1,-0.0543422987007948,0.0415913596725838,,false,ll,3200.887000071816,response,-0.4304470243936645,0.471381496136195,-0.4869237843304557,-0.2910581381208475,0.47095088081738484,-0.46966971245834477,low,low,,ISIC_0027956.JPG,9,ISIC_6661691.JPG,487,false,hl,keypress(j),0,false,4472841.3000000715,4472840.8000000715,4469623.463,4469724.100000024,4469639.913,4472759.134,4,500,27,
break,html.Screen,10_26_1,2023-11-13T22:09:45.332Z,,,,,,,,,,NaN,,,,,,,,low,low,,,,,,false,,,,false,4472843.3000000715,4472842.600000024,,4472841.899999976,,4472759.134,4,500,,
break_continue,html.Screen,10_26_2,2023-11-13T22:09:45.334Z,,,,,,,,,,NaN,,,,,,,,low,low,,,,,,false,,,,false,4472844.399999976,4472843.899999976,,4472843.600000024,,4472759.134,4,500,,
sequence,flow.Sequence,10_26,2023-11-13T22:09:45.334Z,,,,,,,,,,3203.9869999764487,completion,,,,,,,low,low,,,,,,false,,,,false,4472844.899999976,4472843.899999976,4469623.463,4469724,4469639.913,4472759.134,4,500,,
trial,html.Screen,10_27_0,2023-11-13T22:09:48.642Z,,,,1,0.0537805418091709,-0.0735635316240061,,true,ll,3392.8660000003874,response,-0.6045952254527632,0.471381496136195,-0.4869237843304557,-0.3702276760363279,0.47095088081738484,-0.46966971245834477,low,low,,ISIC_1761799.JPG,9,ISIC_7888517.JPG,487,false,ll,keypress(f),0,false,4476152.399999976,4476152,4472742.506,4472845.100000024,4472759.134,4476078.905,4,500,28,
break,html.Screen,10_27_1,2023-11-13T22:09:48.643Z,,,,,,,,,,NaN,,,,,,,,low,low,,,,,,false,,,,false,4476154.100000024,4476153.600000024,,4476153,,4476078.905,4,500,,
break_continue,html.Screen,10_27_2,2023-11-13T22:09:48.645Z,,,,,,,,,,NaN,,,,,,,,low,low,,,,,,false,,,,false,4476155.5,4476154.8000000715,,4476154.399999976,,4476078.905,4,500,,
sequence,flow.Sequence,10_27,2023-11-13T22:09:48.645Z,,,,,,,,,,3395.666000071913,completion,,,,,,,low,low,,,,,,false,,,,false,4476155.899999976,4476154.8000000715,4472742.506,4472845.100000024,4472759.134,4476078.905,4,500,,
trial,html.Screen,10_28_0,2023-11-13T22:09:51.266Z,,,,1,0.0143212271490256,0.0389988030702649,,false,ll,2697.195000023581,response,-0.6611615532579902,0.471381496136195,-0.4869237843304557,-0.617531674533012,0.47095088081738484,-0.46966971245834477,low,low,,ISIC_0064669.JPG,8,ISIC_3453832.JPG,487,false,hh,keypress(i),0,false,4478776.600000024,4478776.100000024,4476045.451,4476156.200000048,4476078.905,4478697.661,4,500,29,
break,html.Screen,10_28_1,2023-11-13T22:09:51.267Z,,,,,,,,,,NaN,,,,,,,,low,low,,,,,,false,,,,false,4478778.200000048,4478777.700000048,,4478777.100000024,,4478697.661,4,500,,
break_continue,html.Screen,10_28_2,2023-11-13T22:09:51.268Z,,,,,,,,,,NaN,,,,,,,,low,low,,,,,,false,,,,false,4478779.3000000715,4478778.8000000715,,4478778.5,,4478697.661,4,500,,
sequence,flow.Sequence,10_28,2023-11-13T22:09:51.269Z,,,,,,,,,,2699.895000071265,completion,,,,,,,low,low,,,,,,false,,,,false,4478779.600000024,4478778.8000000715,4476045.451,4476156.200000048,4476078.905,4478697.661,4,500,,
trial,html.Screen,10_29_0,2023-11-13T22:09:58.482Z,,,,1,-0.0185462113313342,-0.0688801591312476,,true,ll,7294.939000023529,response,-0.4734095018157633,0.471381496136195,-0.4869237843304557,-0.6493861303126038,0.47095088081738484,-0.46966971245834477,low,low,,ISIC_0067723.JPG,8,ISIC_1124434.JPG,487,false,ll,keypress(f),0,false,4485993,4485992.600000024,4478680.978,4478780,4478697.661,4485921.249,4,500,30,
break,html.Screen,10_29_1,2023-11-13T22:09:58.484Z,,,,,,,,,,NaN,,,,,,,,low,low,,,,,,false,,,,false,4485994.700000048,4485994.200000048,,4485993.5,,4485921.249,4,500,,
break_continue,html.Screen,10_29_2,2023-11-13T22:09:58.485Z,,,,,,,,,,NaN,,,,,,,,low,low,,,,,,false,,,,false,4485995.899999976,4485995.399999976,,4485995,,4485921.249,4,500,,
sequence,flow.Sequence,10_29,2023-11-13T22:09:58.485Z,,,,,,,,,,7297.738999975845,completion,,,,,,,low,low,,,,,,false,,,,false,4485996.200000048,4485995.399999976,4478680.978,4478779.899999976,4478697.661,4485921.249,4,500,,
trial,html.Screen,10_30_0,2023-11-13T22:10:04.818Z,,,,1,0.0100996915276271,0.0027483411352856,,false,hh,6407.0510000716895,response,0.5992823762069371,0.471381496136195,-0.4869237843304557,0.5029912083444595,0.47095088081738484,-0.46966971245834477,high,high,,ISIC_7364041.JPG,8,ISIC_0011987.JPG,410,false,ll,keypress(f),0,false,4492328.700000048,4492328.3000000715,4485886.763,4485996.200000048,4485921.249,4492241.967,4,500,31,
break,html.Screen,10_30_1,2023-11-13T22:10:04.819Z,,,,,,,,,,NaN,,,,,,,,high,high,,,,,,false,,,,false,4492330.3000000715,4492329.8000000715,,4492329.200000048,,4492241.967,4,500,,
break_continue,html.Screen,10_30_2,2023-11-13T22:10:04.821Z,,,,,,,,,,NaN,,,,,,,,high,high,,,,,,false,,,,false,4492331.700000048,4492331,,4492330.700000048,,4492241.967,4,500,,
sequence,flow.Sequence,10_30,2023-11-13T22:10:04.821Z,,,,,,,,,,6409.751000000164,completion,,,,,,,high,high,,,,,,false,,,,false,4492332,4492331,4485886.763,4485996.200000048,4485921.249,4492241.967,4,500,,
trial,html.Screen,10_31_0,2023-11-13T22:10:07.569Z,,,,1,0.0417921315885292,-0.0097091270150747,,false,lh,2837.633000023663,response,-0.6794440557620902,0.471381496136195,-0.4869237843304557,0.3258400848794305,0.47095088081738484,-0.46966971245834477,low,high,,ISIC_3967213.JPG,9,ISIC_1802502.JPG,292,false,hl,keypress(j),0,false,4495079.899999976,4495079.600000024,4492225.434,4492332.100000024,4492241.967,4494994.08,4,500,32,
break,html.Screen,10_31_1,2023-11-13T22:10:07.570Z,,,,,,,,,,NaN,,,,,,,,low,high,,,,,,false,,,,false,4495080.700000048,4495080.5,,4495080.100000024,,4494994.08,4,500,,
break_continue,html.Screen,10_31_2,2023-11-13T22:10:07.570Z,,,,,,,,,,NaN,,,,,,,,low,high,,,,,,false,,,,false,4495081.200000048,4495081,,4495080.8000000715,,4494994.08,4,500,,
sequence,flow.Sequence,10_31,2023-11-13T22:10:07.571Z,,,,,,,,,,2839.032999999821,completion,,,,,,,low,high,,,,,,false,,,,false,4495081.399999976,4495081,4492225.434,4492332.100000024,4492241.967,4494994.08,4,500,,
trial,html.Screen,10_32_0,2023-11-13T22:10:09.970Z,,,,1,0.0174716772037504,0.007397293189458,,true,hh,2486.620000047609,response,0.4615365482035733,0.471381496136195,-0.4869237843304557,0.3894212379864515,0.47095088081738484,-0.46966971245834477,high,high,,ISIC_0056226.JPG,9,ISIC_0010550.JPG,410,false,hh,keypress(i),0,false,4497481.100000024,4497480.700000048,4494977.764,4495081.600000024,4494994.08,4497396.18,4,500,33,
break,html.Screen,10_32_1,2023-11-13T22:10:09.972Z,,,,,,,,,,NaN,,,,,,,,high,high,,,,,,false,,,,false,4497482.600000024,4497482.3000000715,,4497481.600000024,,4497396.18,4,500,,
break_continue,html.Screen,10_32_2,2023-11-13T22:10:09.973Z,,,,,,,,,,NaN,,,,,,,,high,high,,,,,,false,,,,false,4497483.8000000715,4497483.3000000715,,4497482.899999976,,4497396.18,4,500,,
sequence,flow.Sequence,10_32,2023-11-13T22:10:09.973Z,,,,,,,,,,2489.220000071451,completion,,,,,,,high,high,,,,,,false,,,,false,4497484.200000048,4497483.3000000715,4494977.764,4495081.5,4494994.08,4497396.18,4,500,,
trial,html.Screen,10_33_0,2023-11-13T22:10:14.082Z,,,,1,0.0049995141077508,0.0070725527271049,,true,lh,4196.120000071824,response,-0.5196496534102074,0.471381496136195,-0.4869237843304557,0.631823323528887,0.47095088081738484,-0.46966971245834477,low,high,,ISIC_6124481.JPG,8,ISIC_9611100.JPG,292,false,lh,keypress(e),0,false,4501592.700000048,4501592.3000000715,4497379.592,4497484.399999976,4497396.18,4501516.38,4,500,34,
break,html.Screen,10_33_1,2023-11-13T22:10:14.083Z,,,,,,,,,,NaN,,,,,,,,low,high,,,,,,false,,,,false,4501594.3000000715,4501593.899999976,,4501593.200000048,,4501516.38,4,500,,
break_continue,html.Screen,10_33_2,2023-11-13T22:10:14.085Z,,,,,,,,,,NaN,,,,,,,,low,high,,,,,,false,,,,false,4501595.5,4501595.100000024,,4501594.700000048,,4501516.38,4,500,,
sequence,flow.Sequence,10_33,2023-11-13T22:10:14.085Z,,,,,,,,,,4198.92000002414,completion,,,,,,,low,high,,,,,,false,,,,false,4501596.3000000715,4501595.100000024,4497379.592,4497484.399999976,4497396.18,4501516.38,4,500,,
trial,html.Screen,10_34_0,2023-11-13T22:10:17.487Z,,,,1,0.0130195499281172,-0.0516762988734011,,false,hh,3481.1200000001118,response,0.4399745431063041,0.471381496136195,-0.4869237843304557,0.5555427793241239,0.47095088081738484,-0.46966971245834477,high,high,,ISIC_9978498.JPG,9,ISIC_0189694.JPG,410,false,hl,keypress(j),0,false,4504997.600000024,4504997.5,4501499.316,4501596.700000048,4501516.38,4504935.78,4,500,35,
break,html.Screen,10_34_1,2023-11-13T22:10:17.487Z,,,,,,,,,,NaN,,,,,,,,high,high,,,,,,false,,,,false,4504997.8000000715,4504997.8000000715,,4504997.700000048,,4504935.78,4,500,,
break_continue,html.Screen,10_34_2,2023-11-13T22:10:17.487Z,,,,,,,,,,NaN,,,,,,,,high,high,,,,,,false,,,,false,4504997.899999976,4504997.899999976,,4504997.899999976,,4504935.78,4,500,,
sequence,flow.Sequence,10_34,2023-11-13T22:10:17.487Z,,,,,,,,,,3481.51999997627,completion,,,,,,,high,high,,,,,,false,,,,false,4504998,4504997.899999976,4501499.316,4501596.700000048,4501516.38,4504935.78,4,500,,
trial,html.Screen,10_35_0,2023-11-13T22:10:19.506Z,,,,1,-0.0054999201556291,-0.0113873532168551,,true,ll,2080.320000023581,response,-0.5268897351432202,0.471381496136195,-0.4869237843304557,-0.3247029741039917,0.47095088081738484,-0.46966971245834477,low,low,,ISIC_8812621.JPG,9,ISIC_0030519.JPG,487,false,ll,keypress(f),0,false,4507016.600000024,4507016.100000024,4504919.353,4504998,4504935.78,4506937.715,4,500,36,
break,html.Screen,10_35_1,2023-11-13T22:10:19.507Z,,,,,,,,,,NaN,,,,,,,,low,low,,,,,,false,,,,false,4507018.200000048,4507017.700000048,,4507017.100000024,,4506937.715,4,500,,
break_continue,html.Screen,10_35_2,2023-11-13T22:10:19.509Z,,,,,,,,,,NaN,,,,,,,,low,low,,,,,,false,,,,false,4507019.399999976,4507018.899999976,,4507018.5,,4506937.715,4,500,,
sequence,flow.Sequence,10_35,2023-11-13T22:10:19.509Z,,,,,,,,,,2083.1199999758974,completion,,,,,,,low,low,,,,,,false,,,,false,4507019.8000000715,4507018.899999976,4504919.353,4504998,4504935.78,4506937.715,4,500,,
trial,html.Screen,10_36_0,2023-11-13T22:10:22.002Z,,,,1,-0.0740918837949419,-0.0220322185490382,,false,hl,2574.9850000478327,response,0.4650067595566893,0.471381496136195,-0.4869237843304557,-0.4854860758109091,0.47095088081738484,-0.46966971245834477,high,low,,ISIC_8105020.JPG,9,ISIC_8773478.JPG,261,false,hh,keypress(i),0,false,4509513.100000024,4509512.700000048,4506920.816,4507020.200000048,4506937.715,4509439.766,4,500,37,
break,html.Screen,10_36_1,2023-11-13T22:10:22.004Z,,,,,,,,,,NaN,,,,,,,,high,low,,,,,,false,,,,false,4509514.899999976,4509514.3000000715,,4509513.600000024,,4509439.766,4,500,,
break_continue,html.Screen,10_36_2,2023-11-13T22:10:22.005Z,,,,,,,,,,NaN,,,,,,,,high,low,,,,,,false,,,,false,4509516.100000024,4509515.600000024,,4509515.200000048,,4509439.766,4,500,,
sequence,flow.Sequence,10_36,2023-11-13T22:10:22.006Z,,,,,,,,,,2577.885000023991,completion,,,,,,,high,low,,,,,,false,,,,false,4509516.5,4509515.600000024,4506920.816,4507020,4506937.715,4509439.766,4,500,,
trial,html.Screen,10_37_0,2023-11-13T22:10:24.770Z,,,,1,-0.0240487075377862,0.0544808612748248,,false,hh,2840.534000071697,response,0.5044689920503922,0.471381496136195,-0.4869237843304557,0.4164610627052223,0.47095088081738484,-0.46966971245834477,high,high,,ISIC_4606646.JPG,9,ISIC_0028898.JPG,410,false,lh,keypress(e),0,false,4512280.700000048,4512280.3000000715,4509406.141,4509516.8000000715,4509439.766,4512191.801,4,500,38,
break,html.Screen,10_37_1,2023-11-13T22:10:24.772Z,,,,,,,,,,NaN,,,,,,,,high,high,,,,,,false,,,,false,4512282.399999976,4512281.8000000715,,4512281.100000024,,4512191.801,4,500,,
break_continue,html.Screen,10_37_2,2023-11-13T22:10:24.772Z,,,,,,,,,,NaN,,,,,,,,high,high,,,,,,false,,,,false,4512283.3000000715,4512282.899999976,,4512282.600000024,,4512191.801,4,500,,
sequence,flow.Sequence,10_37,2023-11-13T22:10:24.773Z,,,,,,,,,,2843.1339999763295,completion,,,,,,,high,high,,,,,,false,,,,false,4512283.5,4512282.899999976,4509406.141,4509516.8000000715,4509439.766,4512191.801,4,500,,
trial,html.Screen,10_38_0,2023-11-13T22:10:27.471Z,,,,1,-0.0299718727255261,-0.0533723079251252,,false,hh,2789.999000071548,response,0.6008438634644336,0.471381496136195,-0.4869237843304557,0.6077361298541321,0.47095088081738484,-0.46966971245834477,high,high,,ISIC_6562871.JPG,9,ISIC_9462979.JPG,410,false,ll,keypress(f),0,false,4514982,4514981.8000000715,4512175.05,4512283.700000048,4512191.801,4514910.817,4,500,39,
break,html.Screen,10_38_1,2023-11-13T22:10:27.472Z,,,,,,,,,,NaN,,,,,,,,high,high,,,,,,false,,,,false,4514982.5,4514982.3000000715,,4514982.100000024,,4514910.817,4,500,,
break_continue,html.Screen,10_38_2,2023-11-13T22:10:27.472Z,,,,,,,,,,NaN,,,,,,,,high,high,,,,,,false,,,,false,4514982.8000000715,4514982.600000024,,4514982.600000024,,4514910.817,4,500,,
sequence,flow.Sequence,10_38,2023-11-13T22:10:27.472Z,,,,,,,,,,2790.799000023864,completion,,,,,,,high,high,,,,,,false,,,,false,4514983,4514982.600000024,4512175.05,4512283.700000048,4512191.801,4514910.817,4,500,,
trial,html.Screen,10_39_0,2023-11-13T22:10:30.658Z,,,,1,-0.0054999201556291,-0.0113873532168551,,false,ll,3257.582999976352,response,-0.605620322257568,0.471381496136195,-0.4869237843304557,-0.3463319120780838,0.47095088081738484,-0.46966971245834477,low,low,,ISIC_8812621.JPG,9,ISIC_0066366.JPG,487,false,hl,keypress(j),0,false,4518169,4518168.399999976,4514893.909,4514983.100000024,4514910.817,4518079.992,4,500,40,
break,html.Screen,10_39_1,2023-11-13T22:10:30.660Z,,,,,,,,,,NaN,,,,,,,,low,low,,,,,,false,,,,false,4518170.5,4518170.100000024,,4518169.399999976,,4518079.992,4,500,,
break_continue,html.Screen,10_39_2,2023-11-13T22:10:30.661Z,,,,,,,,,,NaN,,,,,,,,low,low,,,,,,false,,,,false,4518171.5,4518171.200000048,,4518170.700000048,,4518079.992,4,500,,
sequence,flow.Sequence,10_39,2023-11-13T22:10:30.661Z,,,,,,,,,,3260.3830000478774,completion,,,,,,,low,low,,,,,,false,,,,false,4518171.899999976,4518171.200000048,4514893.909,4514983,4514910.817,4518079.992,4,500,,
trial,html.Screen,10_40_0,2023-11-13T22:10:34.002Z,,,,1,0.0395587463147856,-0.0277178575053843,,false,hh,3432.608000024222,response,0.2789681241219915,0.471381496136195,-0.4869237843304557,0.5399309848232983,0.47095088081738484,-0.46966971245834477,high,high,,ISIC_0010807.JPG,9,ISIC_3649766.JPG,410,false,ll,keypress(f),0,false,4521513,4521512.600000024,4518063.48,4518172.399999976,4518079.992,4521432.737,4,500,41,
break,html.Screen,10_40_1,2023-11-13T22:10:34.004Z,,,,,,,,,,NaN,,,,,,,,high,high,,,,,,false,,,,false,4521514.700000048,4521514.200000048,,4521513.5,,4521432.737,4,500,,
break_continue,html.Screen,10_40_2,2023-11-13T22:10:34.004Z,,,,,,,,,,NaN,,,,,,,,high,high,,,,,,false,,,,false,4521515.200000048,4521515.100000024,,4521515,,4521432.737,4,500,,
sequence,flow.Sequence,10_40,2023-11-13T22:10:34.004Z,,,,,,,,,,3435.108000024222,completion,,,,,,,high,high,,,,,,false,,,,false,4521515.3000000715,4521515.100000024,4518063.48,4518172.3000000715,4518079.992,4521432.737,4,500,,
trial,html.Screen,10_41_0,2023-11-13T22:10:40.658Z,,,,1,-0.0185462113313342,-0.0688801591312476,,false,lh,6735.263000000268,response,-0.29975035723243,0.471381496136195,-0.4869237843304557,0.502604795294696,0.47095088081738484,-0.46966971245834477,low,high,,ISIC_0067723.JPG,9,ISIC_5485674.JPG,292,false,ll,keypress(f),0,false,4528168.399999976,4528168,4521416.128,4521515.399999976,4521432.737,4528104.919,4,500,42,
break,html.Screen,10_41_1,2023-11-13T22:10:40.659Z,,,,,,,,,,NaN,,,,,,,,low,high,,,,,,false,,,,false,4528169.899999976,4528169.600000024,,4528168.899999976,,4528104.919,4,500,,
break_continue,html.Screen,10_41_2,2023-11-13T22:10:40.660Z,,,,,,,,,,NaN,,,,,,,,low,high,,,,,,false,,,,false,4528170.8000000715,4528170.5,,4528170.200000048,,4528104.919,4,500,,
sequence,flow.Sequence,10_41,2023-11-13T22:10:40.660Z,,,,,,,,,,6737.763000000268,completion,,,,,,,low,high,,,,,,false,,,,false,4528171.100000024,4528170.5,4521416.128,4521515.3000000715,4521432.737,4528104.919,4,500,,
trial,html.Screen,10_42_0,2023-11-13T22:10:44.946Z,,,,1,-0.0394300226801425,-0.0565575423757561,,false,hl,4351.881000071764,response,0.5679157847570555,0.471381496136195,-0.4869237843304557,-0.2724068655937114,0.47095088081738484,-0.46966971245834477,high,low,,ISIC_0046983.JPG,10,ISIC_9574191.JPG,261,false,hh,keypress(i),0,false,4532457.3000000715,4532456.8000000715,4528088.562,4528171.399999976,4528104.919,4532375.139,4,500,43,
break,html.Screen,10_42_1,2023-11-13T22:10:44.948Z,,,,,,,,,,NaN,,,,,,,,high,low,,,,,,false,,,,false,4532458.899999976,4532458.399999976,,4532457.700000048,,4532375.139,4,500,,
break_continue,html.Screen,10_42_2,2023-11-13T22:10:44.949Z,,,,,,,,,,NaN,,,,,,,,high,low,,,,,,false,,,,false,4532460.200000048,4532459.600000024,,4532459.3000000715,,4532375.139,4,500,,
sequence,flow.Sequence,10_42,2023-11-13T22:10:44.950Z,,,,,,,,,,4354.68100002408,completion,,,,,,,high,low,,,,,,false,,,,false,4532460.700000048,4532459.600000024,4528088.562,4528171.3000000715,4528104.919,4532375.139,4,500,,
trial,html.Screen,10_43_0,2023-11-13T22:10:51.747Z,,,,1,0.0417921315885292,-0.0097091270150747,,false,hh,6881.661000071093,response,0.6505741731446649,0.471381496136195,-0.4869237843304557,0.6066507471217834,0.47095088081738484,-0.46966971245834477,high,high,,ISIC_3967213.JPG,9,ISIC_0068215.JPG,410,false,ll,keypress(f),0,false,4539257.3000000715,4539256.8000000715,4532358.491,4532461,4532375.139,4539180.726,4,500,44,
break,html.Screen,10_43_1,2023-11-13T22:10:51.748Z,,,,,,,,,,NaN,,,,,,,,high,high,,,,,,false,,,,false,4539259.200000048,4539258.600000024,,4539257.899999976,,4539180.726,4,500,,
break_continue,html.Screen,10_43_2,2023-11-13T22:10:51.750Z,,,,,,,,,,NaN,,,,,,,,high,high,,,,,,false,,,,false,4539260.5,4539259.899999976,,4539259.5,,4539180.726,4,500,,
sequence,flow.Sequence,10_43,2023-11-13T22:10:51.750Z,,,,,,,,,,6884.760999975726,completion,,,,,,,high,high,,,,,,false,,,,false,4539260.899999976,4539259.899999976,4532358.491,4532460.899999976,4532375.139,4539180.726,4,500,,
trial,html.Screen,10_44_0,2023-11-13T22:10:55.088Z,,,,1,-0.0700576547090477,-0.0367218428225813,,false,ll,3417.6739999763668,response,-0.6545778948267619,0.471381496136195,-0.4869237843304557,-0.5570427244577141,0.47095088081738484,-0.46966971245834477,low,low,,ISIC_7212271.JPG,9,ISIC_9765024.JPG,487,false,hh,keypress(i),0,false,4542598.600000024,4542598.399999976,4539164.322,4539261.200000048,4539180.726,4542516.8,4,500,45,
break,html.Screen,10_44_1,2023-11-13T22:10:55.088Z,,,,,,,,,,NaN,,,,,,,,low,low,,,,,,false,,,,false,4542599,4542598.899999976,,4542598.700000048,,4542516.8,4,500,,
break_continue,html.Screen,10_44_2,2023-11-13T22:10:55.088Z,,,,,,,,,,NaN,,,,,,,,low,low,,,,,,false,,,,false,4542599.200000048,4542599.100000024,,4542599.100000024,,4542516.8,4,500,,
sequence,flow.Sequence,10_44,2023-11-13T22:10:55.089Z,,,,,,,,,,3418.3740000240505,completion,,,,,,,low,low,,,,,,false,,,,false,4542599.399999976,4542599.100000024,4539164.322,4539261.200000048,4539180.726,4542516.8,4,500,,
trial,html.Screen,10_45_0,2023-11-13T22:11:05.935Z,,,,1,0.0395587463147856,-0.0277178575053843,,true,ll,10929.300000024028,response,-0.3675116349566818,0.471381496136195,-0.4869237843304557,-0.4232116497397286,0.47095088081738484,-0.46966971245834477,low,low,,ISIC_0010807.JPG,8,ISIC_4026808.JPG,487,false,ll,keypress(f),0,false,4553446.200000048,4553446.100000024,4542500.475,4542599.399999976,4542516.8,4553375.749,4,500,46,
break,html.Screen,10_45_1,2023-11-13T22:11:05.936Z,,,,,,,,,,NaN,,,,,,,,low,low,,,,,,false,,,,false,4553446.600000024,4553446.5,,4553446.399999976,,4553375.749,4,500,,
break_continue,html.Screen,10_45_2,2023-11-13T22:11:05.936Z,,,,,,,,,,NaN,,,,,,,,low,low,,,,,,false,,,,false,4553447,4553446.8000000715,,4553446.700000048,,4553375.749,4,500,,
sequence,flow.Sequence,10_45,2023-11-13T22:11:05.936Z,,,,,,,,,,10930.000000071712,completion,,,,,,,low,low,,,,,,false,,,,false,4553447.100000024,4553446.8000000715,4542500.475,4542599.399999976,4542516.8,4553375.749,4,500,,
trial,html.Screen,10_46_0,2023-11-13T22:11:08.786Z,,,,1,-0.0718390543903236,0.0593670819812057,,false,ll,2920.751000000164,response,-0.3609435367552783,0.471381496136195,-0.4869237843304557,-0.4173814202792034,0.47095088081738484,-0.46966971245834477,low,low,,ISIC_0062367.JPG,9,ISIC_6566042.JPG,487,false,hl,keypress(j),0,false,4556296.899999976,4556296.5,4553359.091,4553447.100000024,4553375.749,4556211.477,4,500,47,
break,html.Screen,10_46_1,2023-11-13T22:11:08.788Z,,,,,,,,,,NaN,,,,,,,,low,low,,,,,,false,,,,false,4556298.700000048,4556298.200000048,,4556297.600000024,,4556211.477,4,500,,
break_continue,html.Screen,10_46_2,2023-11-13T22:11:08.789Z,,,,,,,,,,NaN,,,,,,,,low,low,,,,,,false,,,,false,4556299.899999976,4556299.399999976,,4556299,,4556211.477,4,500,,
sequence,flow.Sequence,10_46,2023-11-13T22:11:08.789Z,,,,,,,,,,2923.650999976322,completion,,,,,,,low,low,,,,,,false,,,,false,4556299.899999976,4556299.399999976,4553359.091,4553447.100000024,4553375.749,4556211.477,4,500,,
trial,html.Screen,10_47_0,2023-11-13T22:11:16.066Z,,,,1,0.0638501824668941,-0.0691769743257167,,false,lh,7365.32300007157,response,-0.2982843152273911,0.471381496136195,-0.4869237843304557,0.4741156682703121,0.47095088081738484,-0.46966971245834477,low,high,,ISIC_0031914.JPG,8,ISIC_8380904.JPG,292,false,ll,keypress(f),0,false,4563577.3000000715,4563576.8000000715,4556195.047,4556300,4556211.477,4563501.074,4,500,48,
break,html.Screen,10_47_1,2023-11-13T22:11:16.068Z,,,,,,,,,,NaN,,,,,,,,low,high,,,,,,false,,,,false,4563579,4563578.399999976,,4563577.8000000715,,4563501.074,4,500,,
break_continue,html.Screen,10_47_2,2023-11-13T22:11:16.069Z,,,,,,,,,,NaN,,,,,,,,low,high,,,,,,false,,,,false,4563580.100000024,4563579.700000048,,4563579.399999976,,4563501.074,4,500,,
sequence,flow.Sequence,10_47,2023-11-13T22:11:16.070Z,,,,,,,,,,7368.223000047728,completion,,,,,,,low,high,,,,,,false,,,,false,4563580.5,4563579.700000048,4556195.047,4556300,4556211.477,4563501.074,4,500,,
trial,html.Screen,10_48_0,2023-11-13T22:11:21.266Z,,,,1,-0.0585810480909377,0.0111354529246037,,false,ll,5275.226000071503,response,-0.4387031407295418,0.471381496136195,-0.4869237843304557,-0.3715903618949383,0.47095088081738484,-0.46966971245834477,low,low,,ISIC_7858034.JPG,8,ISIC_6577632.JPG,487,false,hl,keypress(j),0,false,4568776.700000048,4568776.3000000715,4563484.215,4563580.8000000715,4563501.074,4568688.464,4,500,49,
break,html.Screen,10_48_1,2023-11-13T22:11:21.267Z,,,,,,,,,,NaN,,,,,,,,low,low,,,,,,false,,,,false,4568778.3000000715,4568777.8000000715,,4568777.200000048,,4568688.464,4,500,,
break_continue,html.Screen,10_48_2,2023-11-13T22:11:21.269Z,,,,,,,,,,NaN,,,,,,,,low,low,,,,,,false,,,,false,4568779.399999976,4568778.899999976,,4568778.600000024,,4568688.464,4,500,,
