sender,sender_type,sender_id,timestamp,meta,,age,blockNo,c1,c2,condition,correct,correctResponse,duration,ended_on,f1,f1_high,f1_low,f2,f2_high,f2_low,feature_level1,feature_level2,gender,img_left,img_reveal,img_right,n_target_images,practice,response,response_action,selection_duration,staircase,time_commit,time_end,time_render,time_run,time_show,time_switch,total_blocks,total_trials,trialNo,url
informed_consent,html.Screen,0,2023-11-14T18:45:15.619Z,"{""labjs_version"":""20.2.4"",""labjs_build"":{""flavor"":""development"",""commit"":""f5b4a49f956347addd546a832a3327688c2c0fef""},""location"":""https://labjs.felixhenninger.com/api/labjs_preview/index.html"",""userAgent"":""Mozilla/5.0 (Windows NT 10.0; Win64; x64) AppleWebKit/537.36 (KHTML, like Gecko) Chrome/119.0.0.0 Safari/537.36"",""platform"":""Win32"",""language"":""en-US"",""locale"":""en-US"",""timeZone"":""America/Chicago"",""timezoneOffset"":360,""screen_width"":1680,""screen_height"":1050,""scroll_width"":825,""scroll_height"":888,""window_innerWidth"":825,""window_innerHeight"":936,""devicePixelRatio"":1}",,,,,,,,,60644.95899997616,response,,,,,,,,,,,,,,,consent,click button,,,61438.10000002384,61429.39999997616,767.783,940.3000000119209,784.441,61285.621,,,,{}
Demography form,html.Form,1,2023-11-14T18:45:23.154Z,,,18,,,,,,,7687.479000023843,form submission,,,,,,,,,female,,,,,,,,,,68973.30000001192,68973.10000002384,61268.782,61438.39999997616,61285.621,68800.072,,,,
Welcome,html.Screen,2,2023-11-14T18:47:01.259Z,,,,,,,"[""bor"",""col""]",,,98277.12799998808,response,,,,,,,,,,,,,,,continue,click button,,,167077.80000001192,167077.19999998808,68783.471,68973.30000001192,68800.072,166907.535,,,,
demo_instructions,html.Screen,3,2023-11-14T18:48:15.403Z,,,,,,,,,,74313.66499998808,response,,,,,,,,,,,,,,,continue,click button,,,241221.60000002384,241221.19999998808,166891.053,167077.89999997616,166907.535,241068.427,,,,
trial,html.Screen,4_0_0,2023-11-14T18:48:48.691Z,,,,0,0.8350129142228142,-0.8172547818270586,,true,lh,33437.47299997616,response,-0.84290786638064,0.8999999999999997,-0.8999999999999997,0.7332521189371746,0.8999999999999997,-0.8999999999999997,low,high,,ISIC_0301568.JPG,,ISIC_4708642.JPG,29,true,lh,keypress(e),100,false,274506.39999997616,274505.89999997616,241035.234,241221.80000001192,241068.427,274349.919,1,16,1,
sequence,flow.Sequence,4_0,2023-11-14T18:48:48.692Z,,,,,,,,,,33437.47299997616,completion,,,,,,,low,high,,,,,,true,,,,false,274507.8000000119,274505.89999997616,241035.234,241221.80000001192,241068.427,274349.919,1,16,,
trial,html.Screen,4_1_0,2023-11-14T18:48:58.962Z,,,,0,0.7714570894008278,-0.9113656554657036,,true,lh,10427.381000011927,response,-0.8075741539776473,0.8999999999999997,-0.8999999999999997,0.7326891894107508,0.8999999999999997,-0.8999999999999997,low,high,,ISIC_4529092.JPG,,ISIC_3428523.JPG,29,true,lh,keypress(e),100,false,284777.5,284777.3000000119,274333.242,274508.3000000119,274349.919,284636.631,1,16,2,
sequence,flow.Sequence,4_1,2023-11-14T18:48:58.962Z,,,,,,,,,,10427.381000011927,completion,,,,,,,low,high,,,,,,true,,,,false,284777.6999999881,284777.3000000119,274333.242,274508.10000002384,274349.919,284636.631,1,16,,
trial,html.Screen,4_2_0,2023-11-14T18:49:05.639Z,,,,0,0.9089402323867112,-0.8034544077281132,,true,lh,6817.768999976164,response,-0.8075741539776473,0.8999999999999997,-0.8999999999999997,0.7326891894107508,0.8999999999999997,-0.8999999999999997,low,high,,ISIC_3585381.JPG,,ISIC_3428523.JPG,29,true,lh,keypress(e),100,false,291455,291454.39999997616,284619.837,284777.8000000119,284636.631,291299.483,1,16,3,
sequence,flow.Sequence,4_2,2023-11-14T18:49:05.640Z,,,,,,,,,,6817.768999976164,completion,,,,,,,low,high,,,,,,true,,,,false,291455.89999997616,291454.39999997616,284619.837,284777.8000000119,284636.631,291299.483,1,16,,
trial,html.Screen,4_3_0,2023-11-14T18:49:16.568Z,,,,0,0.8350129142228142,-0.8172547818270586,,true,lh,11083.817000011913,response,-0.8830264383952469,0.8999999999999997,-0.8999999999999997,0.8635562538060516,0.8999999999999997,-0.8999999999999997,low,high,,ISIC_0301568.JPG,,ISIC_0032258.JPG,29,true,lh,keypress(e),100,false,302383.89999997616,302383.3000000119,291282.866,291456.60000002384,291299.483,302237.679,1,16,4,
sequence,flow.Sequence,4_3,2023-11-14T18:49:16.569Z,,,,,,,,,,11083.817000011913,completion,,,,,,,low,high,,,,,,true,,,,false,302384.6999999881,302383.3000000119,291282.866,291456.39999997616,291299.483,302237.679,1,16,,
trial,html.Screen,4_4_0,2023-11-14T18:49:38.407Z,,,,0,0.9405746940315332,0.7847785203585506,,true,ll,21983.320999999996,response,-1.006091591942289,0.8999999999999997,-0.8999999999999997,-0.8039345947564286,0.8999999999999997,-0.8999999999999997,low,low,,ISIC_0034237.JPG,,ISIC_6993129.JPG,169,true,ll,keypress(f),100,false,324221.5,324221,302220.839,302385.1999999881,302237.679,324063.268,1,16,5,
sequence,flow.Sequence,4_4,2023-11-14T18:49:38.408Z,,,,,,,,,,21983.320999999996,completion,,,,,,,low,low,,,,,,true,,,,false,324222.3000000119,324221,302220.839,302385,302237.679,324063.268,1,16,,
trial,html.Screen,4_5_0,2023-11-14T18:49:56.887Z,,,,0,0.8214996989009526,0.9889466964422248,,true,ll,18637.03200001194,response,-0.7584502386393838,0.8999999999999997,-0.8999999999999997,-0.9825823454317724,0.8999999999999997,-0.8999999999999997,low,low,,ISIC_0000305.JPG,,ISIC_9820910.JPG,169,true,ll,keypress(f),100,false,342701,342700.3000000119,324046.753,324222.60000002384,324063.268,342549.383,1,16,6,
sequence,flow.Sequence,4_5,2023-11-14T18:49:56.888Z,,,,,,,,,,18637.03200001194,completion,,,,,,,low,low,,,,,,true,,,,false,342701.8000000119,342700.3000000119,324046.753,324222.60000002384,324063.268,342549.383,1,16,,
trial,html.Screen,4_6_0,2023-11-14T18:50:14.486Z,,,,0,0.8721011160837115,0.9005344308932209,,true,ll,17750.41700001195,response,-0.7800797396940995,0.8999999999999997,-0.8999999999999997,-0.973676161739592,0.8999999999999997,-0.8999999999999997,low,low,,ISIC_0025744.JPG,,ISIC_0641173.JPG,169,true,ll,keypress(f),100,false,360300,360299.8000000119,342532.547,342702.1999999881,342549.383,360150.073,1,16,7,
sequence,flow.Sequence,4_6,2023-11-14T18:50:14.486Z,,,,,,,,,,17750.41700001195,completion,,,,,,,low,low,,,,,,true,,,,false,360300.3000000119,360299.8000000119,342532.547,342702.10000002384,342549.383,360150.073,1,16,,
trial,html.Screen,4_7_0,2023-11-14T18:50:33.983Z,,,,0,0.7497331641141682,0.9543531879821028,,true,ll,19644.326999976183,response,-1.0795771850572986,0.8999999999999997,-0.8999999999999997,-0.8992128581427353,0.8999999999999997,-0.8999999999999997,low,low,,ISIC_0067801.JPG,,ISIC_0563533.JPG,169,true,ll,keypress(f),100,false,379795.10000002384,379794.39999997616,360133.537,360300.39999997616,360150.073,379638.044,1,16,8,
sequence,flow.Sequence,4_7,2023-11-14T18:50:33.984Z,,,,,,,,,,19644.326999976183,completion,,,,,,,low,low,,,,,,true,,,,false,379796,379794.39999997616,360133.537,360300.39999997616,360150.073,379638.044,1,16,,
trial,html.Screen,4_8_0,2023-11-14T18:50:44.399Z,,,,0,-0.8110121381849364,0.7563142141851558,,true,hl,10571.855999976164,response,0.8500530224490773,0.8999999999999997,-0.8999999999999997,-1.0893360711742854,0.8999999999999997,-0.8999999999999997,high,low,,ISIC_0033605.JPG,,ISIC_2998367.JPG,43,true,hl,keypress(j),100,false,390210.3000000119,390209.89999997616,379621.34,379796.3000000119,379638.044,390058.291,1,16,9,
sequence,flow.Sequence,4_8,2023-11-14T18:50:44.399Z,,,,,,,,,,10571.855999976164,completion,,,,,,,high,low,,,,,,true,,,,false,390211.10000002384,390209.89999997616,379621.34,379796.1999999881,379638.044,390058.291,1,16,,
trial,html.Screen,4_9_0,2023-11-14T18:50:59.740Z,,,,0,-1.0329549150636406,1.01584100839286,,true,hl,15493.309000023815,response,0.7723423895392068,0.8999999999999997,-0.8999999999999997,-0.7630051745722757,0.8999999999999997,-0.8999999999999997,high,low,,ISIC_0054670.JPG,,ISIC_9694911.JPG,43,true,hl,keypress(j),100,false,405552,405551.60000002384,390041.618,390211.39999997616,390058.291,405404.991,1,16,10,
sequence,flow.Sequence,4_9,2023-11-14T18:50:59.741Z,,,,,,,,,,15493.309000023815,completion,,,,,,,high,low,,,,,,true,,,,false,405552.6999999881,405551.60000002384,390041.618,390211.3000000119,390058.291,405404.991,1,16,,
trial,html.Screen,4_10_0,2023-11-14T18:51:10.219Z,,,,0,-1.075512775389519,1.0454702683049502,,true,hl,10625.2089999881,response,1.0153439398566937,0.8999999999999997,-0.8999999999999997,-0.93001438372942,0.8999999999999997,-0.8999999999999997,high,low,,ISIC_0033603.JPG,,ISIC_8211214.JPG,43,true,hl,keypress(j),100,false,416030.6999999881,416030.1999999881,405388.133,405553,405404.991,415875.253,1,16,11,
sequence,flow.Sequence,4_10,2023-11-14T18:51:10.219Z,,,,,,,,,,10625.2089999881,completion,,,,,,,high,low,,,,,,true,,,,false,416031.39999997616,416030.1999999881,405388.133,405552.89999997616,405404.991,415875.253,1,16,,
trial,html.Screen,4_11_0,2023-11-14T18:51:16.280Z,,,,0,-0.9237241143561707,0.7102087839245512,,true,hl,6216.446999988053,response,0.8544507134472948,0.8999999999999997,-0.8999999999999997,-0.9244388608707323,0.8999999999999997,-0.8999999999999997,high,low,,ISIC_0058661.JPG,,ISIC_3565564.JPG,43,true,hl,keypress(j),100,false,422092,422091.6999999881,415858.484,416031.60000002384,415875.253,421937.028,1,16,12,
sequence,flow.Sequence,4_11,2023-11-14T18:51:16.281Z,,,,,,,,,,6216.446999988053,completion,,,,,,,high,low,,,,,,true,,,,false,422092.5,422091.6999999881,415858.484,416031.5,415875.253,421937.028,1,16,,
trial,html.Screen,4_12_0,2023-11-14T18:51:23.347Z,,,,0,-1.0777929856705222,-1.0139833925057518,,true,hh,7220.871999976167,response,1.0394767720056428,0.8999999999999997,-0.8999999999999997,0.9642448420571276,0.8999999999999997,-0.8999999999999997,high,high,,ISIC_6171084.JPG,,ISIC_0032823.JPG,184,true,hh,keypress(i),100,false,429158.39999997616,429157.89999997616,421920.274,422092.8000000119,421937.028,429000.648,1,16,13,
sequence,flow.Sequence,4_12,2023-11-14T18:51:23.347Z,,,,,,,,,,7220.871999976167,completion,,,,,,,high,high,,,,,,true,,,,false,429159.10000002384,429157.89999997616,421920.274,422092.6999999881,421937.028,429000.648,1,16,,
trial,html.Screen,4_13_0,2023-11-14T18:51:37.923Z,,,,0,-0.748409616109011,-0.7872751354576192,,true,hh,14732.352000000014,response,1.017768542725066,0.8999999999999997,-0.8999999999999997,0.9045368314063942,0.8999999999999997,-0.8999999999999997,high,high,,ISIC_4894929.JPG,,ISIC_0031752.JPG,184,true,hh,keypress(i),100,false,443733.5,443733,428984.106,429159.39999997616,429000.648,443578.97,1,16,14,
sequence,flow.Sequence,4_13,2023-11-14T18:51:37.924Z,,,,,,,,,,14732.352000000014,completion,,,,,,,high,high,,,,,,true,,,,false,443734.10000002384,443733,428984.106,429159.3000000119,429000.648,443578.97,1,16,,
trial,html.Screen,4_14_0,2023-11-14T18:51:44.130Z,,,,0,-0.9249180304825352,-0.9557254346276748,,true,hh,6360.929999976186,response,0.7544107015739535,0.8999999999999997,-0.8999999999999997,0.781438724006539,0.8999999999999997,-0.8999999999999997,high,high,,ISIC_6778515.JPG,,ISIC_0021271.JPG,184,true,hh,keypress(i),100,false,449940.3000000119,449939.89999997616,443562.362,443734.39999997616,443578.97,449791.282,1,16,15,
sequence,flow.Sequence,4_14,2023-11-14T18:51:44.131Z,,,,,,,,,,6360.929999976186,completion,,,,,,,high,high,,,,,,true,,,,false,449941.10000002384,449939.89999997616,443562.362,443734.3000000119,443578.97,449791.282,1,16,,
trial,html.Screen,4_15_0,2023-11-14T18:51:49.040Z,,,,0,-0.8372379817368715,-0.8148867547702584,,true,hh,5058.917999988073,response,1.0665699221890637,0.8999999999999997,-0.8999999999999997,1.0106762707163983,0.8999999999999997,-0.8999999999999997,high,high,,ISIC_0024277.JPG,,ISIC_1630301.JPG,184,true,hh,keypress(i),100,false,454850.3000000119,454850.1999999881,449774.438,449941.3000000119,449791.282,454700.617,1,16,16,
sequence,flow.Sequence,4_15,2023-11-14T18:51:49.040Z,,,,,,,,,,5058.917999988073,completion,,,,,,,high,high,,,,,,true,,,,false,454850.39999997616,454850.1999999881,449774.438,449941.1999999881,449791.282,454700.617,1,16,,
demonstration_loop,flow.Loop,4,2023-11-14T18:51:49.041Z,,,,,,,,,,213781.77299998808,completion,,,,,,,,,,,,,,true,,,,false,454850.5,454850.1999999881,241035.234,241221.80000001192,241068.427,454700.617,1,16,,
practice_instructions,html.Screen,5,2023-11-14T18:52:18.027Z,,,,,,,,,,29128.08299998805,response,,,,,,,,,,,,,,,continue,click button,,,483837,483828.6999999881,454683.908,454850.60000002384,454700.617,483656.895,,,,
trial,html.Screen,6_0_0,2023-11-14T18:52:21.870Z,,,,1,-1.0122348575830964,-1.007833368115011,,true,hh,4022.4050000119023,response,1.0879680624915455,0.8999999999999997,-0.8999999999999997,0.9819300422707804,0.8999999999999997,-0.8999999999999997,high,high,,ISIC_8145260.JPG,,ISIC_0011369.JPG,184,true,hh,keypress(i),0,false,487679.8000000119,487679.3000000119,483640.481,483837.10000002384,483656.895,487531.34,1,20,1,
sequence,flow.Sequence,6_0,2023-11-14T18:52:21.870Z,,,,,,,,,,4022.4050000119023,completion,,,,,,,high,high,,,,,,true,,,,false,487680.39999997616,487679.3000000119,483640.481,483837.10000002384,483656.895,487531.34,1,20,,
trial,html.Screen,6_1_0,2023-11-14T18:52:25.565Z,,,,1,-1.0329549150636406,1.01584100839286,,true,hl,3843.0599999761325,response,0.8867328775712738,0.8999999999999997,-0.8999999999999997,-1.0063426986460375,0.8999999999999997,-0.8999999999999997,high,low,,ISIC_0054670.JPG,,ISIC_0055759.JPG,43,true,hl,keypress(j),0,false,491374.6999999881,491374.39999997616,487514.368,487680.6999999881,487531.34,491205.025,1,20,2,
sequence,flow.Sequence,6_1,2023-11-14T18:52:25.565Z,,,,,,,,,,3843.0599999761325,completion,,,,,,,high,low,,,,,,true,,,,false,491375.1999999881,491374.39999997616,487514.368,487680.6999999881,487531.34,491205.025,1,20,,
trial,html.Screen,6_2_0,2023-11-14T18:52:28.415Z,,,,1,0.7521168894214699,0.8764497729455479,,true,ll,3017.674999988056,response,-0.905890181856784,0.8999999999999997,-0.8999999999999997,-0.7211537413352586,0.8999999999999997,-0.8999999999999997,low,low,,ISIC_0030080.JPG,,ISIC_6507640.JPG,169,true,ll,keypress(f),0,false,494223.10000002384,494222.6999999881,491188.433,491375.5,491205.025,494060.735,1,20,3,
sequence,flow.Sequence,6_2,2023-11-14T18:52:28.416Z,,,,,,,,,,3017.674999988056,completion,,,,,,,low,low,,,,,,true,,,,false,494223.60000002384,494222.6999999881,491188.433,491375.39999997616,491205.025,494060.735,1,20,,
trial,html.Screen,6_3_0,2023-11-14T18:52:31.287Z,,,,1,0.9662688541319592,-0.929746784178986,,true,lh,3033.464999988093,response,-0.7308116448711435,0.8999999999999997,-0.8999999999999997,0.908713834988551,0.8999999999999997,-0.8999999999999997,low,high,,ISIC_0011077.JPG,,ISIC_7811951.JPG,29,true,lh,keypress(e),0,false,497094.5,497094.1999999881,494043.99,494223.8000000119,494060.735,496932.771,1,20,4,
sequence,flow.Sequence,6_3,2023-11-14T18:52:31.287Z,,,,,,,,,,3033.464999988093,completion,,,,,,,low,high,,,,,,true,,,,false,497095.10000002384,497094.1999999881,494043.99,494223.6999999881,494060.735,496932.771,1,20,,
trial,html.Screen,6_4_0,2023-11-14T18:52:34.629Z,,,,1,-1.058275612142778,0.7824898568540655,,true,hl,3504.529000011913,response,0.7438008784971919,0.8999999999999997,-0.8999999999999997,-0.7701607600068142,0.8999999999999997,-0.8999999999999997,high,low,,ISIC_4906385.JPG,,ISIC_8493108.JPG,43,true,hl,keypress(j),0,false,500437.39999997616,500437.3000000119,496916.008,497095.3000000119,496932.771,500272.636,1,20,5,
sequence,flow.Sequence,6_4,2023-11-14T18:52:34.630Z,,,,,,,,,,3504.529000011913,completion,,,,,,,high,low,,,,,,true,,,,false,500437.60000002384,500437.3000000119,496916.008,497095.1999999881,496932.771,500272.636,1,20,,
trial,html.Screen,6_5_0,2023-11-14T18:52:39.039Z,,,,1,0.7016609136175869,-0.8694041951927121,,true,lh,4574.164000011922,response,-0.7411887874358276,0.8999999999999997,-0.8999999999999997,0.7869222465141029,0.8999999999999997,-0.8999999999999997,low,high,,ISIC_0897876.JPG,,ISIC_6255113.JPG,29,true,lh,keypress(e),0,false,504847.10000002384,504846.8000000119,500256.018,500437.6999999881,500272.636,504681.19,1,20,6,
sequence,flow.Sequence,6_5,2023-11-14T18:52:39.040Z,,,,,,,,,,4574.164000011922,completion,,,,,,,low,high,,,,,,true,,,,false,504847.60000002384,504846.8000000119,500256.018,500437.6999999881,500272.636,504681.19,1,20,,
trial,html.Screen,6_6_0,2023-11-14T18:52:42.887Z,,,,1,-0.8639662056285013,-0.9092203211946492,,true,hh,4013.209999976156,response,0.9354612477528912,0.8999999999999997,-0.8999999999999997,0.7310902828236168,0.8999999999999997,-0.8999999999999997,high,high,,ISIC_2634356.JPG,,ISIC_0046900.JPG,184,true,hh,keypress(i),0,false,508694.6999999881,508694.39999997616,504664.559,504847.8000000119,504681.19,508538.908,1,20,7,
sequence,flow.Sequence,6_6,2023-11-14T18:52:42.887Z,,,,,,,,,,4013.209999976156,completion,,,,,,,high,high,,,,,,true,,,,false,508695.3000000119,508694.39999997616,504664.559,504847.6999999881,504681.19,508538.908,1,20,,
trial,html.Screen,6_7_0,2023-11-14T18:52:45.727Z,,,,1,1.0926414044454305,-0.7741624649032207,,true,lh,2995.592000000004,response,-1.075512775389519,0.8999999999999997,-0.8999999999999997,1.0454702683049502,0.8999999999999997,-0.8999999999999997,low,high,,ISIC_2355513.JPG,,ISIC_0033603.JPG,29,true,lh,keypress(e),0,false,511534.8000000119,511534.5,508522.094,508695.5,508538.908,511377.615,1,20,8,
sequence,flow.Sequence,6_7,2023-11-14T18:52:45.727Z,,,,,,,,,,2995.592000000004,completion,,,,,,,low,high,,,,,,true,,,,false,511535.3000000119,511534.5,508522.094,508695.39999997616,508538.908,511377.615,1,20,,
trial,html.Screen,6_8_0,2023-11-14T18:52:47.935Z,,,,1,1.0172828675249892,0.7195583354712407,,true,ll,2364.8850000000093,response,-0.7151945682937986,0.8999999999999997,-0.8999999999999997,-0.9514368385965256,0.8999999999999997,-0.8999999999999997,low,low,,ISIC_0033696.JPG,,ISIC_0198331.JPG,169,true,ll,keypress(f),0,false,513742.89999997616,513742.5,511361.035,511535.5,511377.615,513582.049,1,20,9,
sequence,flow.Sequence,6_8,2023-11-14T18:52:47.935Z,,,,,,,,,,2364.8850000000093,completion,,,,,,,low,low,,,,,,true,,,,false,513743.39999997616,513742.5,511361.035,511535.5,511377.615,513582.049,1,20,,
trial,html.Screen,6_9_0,2023-11-14T18:52:50.199Z,,,,1,-0.8034318937720549,1.0024917298189338,,true,hl,2424.65099998808,response,0.7396001261916139,0.8999999999999997,-0.8999999999999997,-0.9901017340796716,0.8999999999999997,-0.8999999999999997,high,low,,ISIC_0032766.JPG,,ISIC_8679617.JPG,43,true,hl,keypress(j),0,false,516007.10000002384,516006.6999999881,513565.213,513743.6999999881,513582.049,515853.461,1,20,10,
sequence,flow.Sequence,6_9,2023-11-14T18:52:50.200Z,,,,,,,,,,2424.65099998808,completion,,,,,,,high,low,,,,,,true,,,,false,516007.6999999881,516006.6999999881,513565.213,513743.60000002384,513582.049,515853.461,1,20,,
trial,html.Screen,6_10_0,2023-11-14T18:52:52.999Z,,,,1,-0.9381357191664412,-0.7568873197636701,,true,hh,2953.0389999999898,response,0.969783065011348,0.8999999999999997,-0.8999999999999997,0.7406267166574104,0.8999999999999997,-0.8999999999999997,high,high,,ISIC_9808863.JPG,,ISIC_0064907.JPG,184,true,hh,keypress(i),0,false,518806.8000000119,518806.5,515819.44,516008.10000002384,515853.461,518641.684,1,20,11,
sequence,flow.Sequence,6_10,2023-11-14T18:52:52.999Z,,,,,,,,,,2953.0389999999898,completion,,,,,,,high,high,,,,,,true,,,,false,518807.3000000119,518806.5,515819.44,516008,515853.461,518641.684,1,20,,
trial,html.Screen,6_11_0,2023-11-14T18:52:55.119Z,,,,1,-0.8954803463300026,0.7071819047913821,,true,hl,2284.6160000119125,response,0.7079689798840642,0.8999999999999997,-0.8999999999999997,-0.9053957126199562,0.8999999999999997,-0.8999999999999997,high,low,,ISIC_0033071.JPG,,ISIC_0058863.JPG,43,true,hl,keypress(j),0,false,520926.60000002384,520926.3000000119,518625.121,518807.60000002384,518641.684,520762.462,1,20,12,
sequence,flow.Sequence,6_11,2023-11-14T18:52:55.119Z,,,,,,,,,,2284.6160000119125,completion,,,,,,,high,low,,,,,,true,,,,false,520927.1999999881,520926.3000000119,518625.121,518807.5,518641.684,520762.462,1,20,,
trial,html.Screen,6_12_0,2023-11-14T18:52:57.367Z,,,,1,0.714417678806898,0.8846902997868215,,true,ll,2411.9379999761586,response,-0.8538847735848973,0.8999999999999997,-0.8999999999999997,-0.979053170316694,0.8999999999999997,-0.8999999999999997,low,low,,ISIC_0031401.JPG,,ISIC_1269461.JPG,169,true,ll,keypress(f),0,false,523174.6999999881,523174.39999997616,520745.812,520927.5,520762.462,523016.997,1,20,13,
sequence,flow.Sequence,6_12,2023-11-14T18:52:57.367Z,,,,,,,,,,2411.9379999761586,completion,,,,,,,low,low,,,,,,true,,,,false,523175.3000000119,523174.39999997616,520745.812,520927.39999997616,520762.462,523016.997,1,20,,
trial,html.Screen,6_13_0,2023-11-14T18:52:59.197Z,,,,1,-0.8596006200412799,-0.9571430175944712,,true,hh,1988.2029999881051,response,0.9486555750998196,0.8999999999999997,-0.8999999999999997,0.7476193313791517,0.8999999999999997,-0.8999999999999997,high,high,,ISIC_0663824.JPG,,ISIC_0029744.JPG,184,true,hh,keypress(i),0,false,525005.3000000119,525005.1999999881,523000.298,523175.5,523016.997,524837.143,1,20,14,
sequence,flow.Sequence,6_13,2023-11-14T18:52:59.197Z,,,,,,,,,,1988.2029999881051,completion,,,,,,,high,high,,,,,,true,,,,false,525005.3999999762,525005.1999999881,523000.298,523175.5,523016.997,524837.143,1,20,,
trial,html.Screen,6_14_0,2023-11-14T18:53:00.751Z,,,,1,0.9244148283103414,-0.9712966348713286,,true,lh,1721.6570000118809,response,-0.7246771568562105,0.8999999999999997,-0.8999999999999997,0.9161385080362604,0.8999999999999997,-0.8999999999999997,low,high,,ISIC_7927525.JPG,,ISIC_0028225.JPG,29,true,lh,keypress(e),0,false,526559.1999999881,526558.8000000119,524820.535,525005.3999999762,524837.143,526390.02,1,20,15,
sequence,flow.Sequence,6_14,2023-11-14T18:53:00.752Z,,,,,,,,,,1721.6570000118809,completion,,,,,,,low,high,,,,,,true,,,,false,526559.6999999881,526558.8000000119,524820.535,525005.3999999762,524837.143,526390.02,1,20,,
trial,html.Screen,6_15_0,2023-11-14T18:53:02.485Z,,,,1,0.9665123004833394,1.0732323917096356,,true,ll,1902.9799999999814,response,-0.9691635021928308,0.8999999999999997,-0.8999999999999997,-1.0761216763182415,0.8999999999999997,-0.8999999999999997,low,low,,ISIC_3684488.JPG,,ISIC_8169564.JPG,169,true,ll,keypress(f),0,false,528293.1999999881,528293,526373.59,526559.8999999762,526390.02,528126.803,1,20,16,
sequence,flow.Sequence,6_15,2023-11-14T18:53:02.485Z,,,,,,,,,,1902.9799999999814,completion,,,,,,,low,low,,,,,,true,,,,false,528293.3000000119,528293,526373.59,526559.8000000119,526390.02,528126.803,1,20,,
trial,html.Screen,6_16_0,2023-11-14T18:53:03.982Z,,,,1,0.8441404886756483,0.8493445183566039,,true,ll,1663.3969999881228,response,-0.7268043404851218,0.8999999999999997,-0.8999999999999997,-0.8184581417483975,0.8999999999999997,-0.8999999999999997,low,low,,ISIC_0055003.JPG,,ISIC_0002118.JPG,169,true,ll,keypress(f),0,false,529790.5,529790.1999999881,528110.023,528293.3999999762,528126.803,529629.916,1,20,17,
sequence,flow.Sequence,6_16,2023-11-14T18:53:03.983Z,,,,,,,,,,1663.3969999881228,completion,,,,,,,low,low,,,,,,true,,,,false,529791,529790.1999999881,528110.023,528293.3000000119,528126.803,529629.916,1,20,,
trial,html.Screen,6_17_0,2023-11-14T18:53:06.239Z,,,,1,0.8867328775712738,-1.0063426986460375,,true,lh,2416.3840000119526,response,-0.7991459998473059,0.8999999999999997,-0.8999999999999997,1.0280788723474688,0.8999999999999997,-0.8999999999999997,low,high,,ISIC_0055759.JPG,,ISIC_7951202.JPG,29,true,lh,keypress(e),0,false,532046.6000000238,532046.3000000119,529613.193,529791.1999999881,529629.916,531884.004,1,20,18,
sequence,flow.Sequence,6_17,2023-11-14T18:53:06.239Z,,,,,,,,,,2416.3840000119526,completion,,,,,,,low,high,,,,,,true,,,,false,532047.1000000238,532046.3000000119,529613.193,529791.1000000238,529629.916,531884.004,1,20,,
trial,html.Screen,6_18_0,2023-11-14T18:53:07.702Z,,,,1,-0.9691635021928308,-1.0761216763182415,,true,hh,1625.9960000000428,response,0.8735012360137532,0.8999999999999997,-0.8999999999999997,1.0448182576694087,0.8999999999999997,-0.8999999999999997,high,high,,ISIC_8169564.JPG,,ISIC_0010267.JPG,184,true,hh,keypress(i),0,false,533510.3000000119,533510,531867.55,532047.3999999762,531884.004,533353.552,1,20,19,
sequence,flow.Sequence,6_18,2023-11-14T18:53:07.703Z,,,,,,,,,,1625.9960000000428,completion,,,,,,,high,high,,,,,,true,,,,false,533510.8000000119,533510,531867.55,532047.3000000119,531884.004,533353.552,1,20,,
trial,html.Screen,6_19_0,2023-11-14T18:53:09.551Z,,,,1,-0.8954803463300026,0.7071819047913821,,true,hl,2004.7480000118958,response,0.9138670886161264,0.8999999999999997,-0.8999999999999997,-0.8414121478342018,0.8999999999999997,-0.8999999999999997,high,low,,ISIC_0033071.JPG,,ISIC_6709052.JPG,43,true,hl,keypress(j),0,false,535358.6000000238,535358.3000000119,533337.121,533511,533353.552,535190.467,1,20,20,
sequence,flow.Sequence,6_19,2023-11-14T18:53:09.551Z,,,,,,,,,,2004.7480000118958,completion,,,,,,,high,low,,,,,,true,,,,false,535359.1000000238,535358.3000000119,533337.121,533511,533353.552,535190.467,1,20,,
practice_loop,flow.Loop,6,2023-11-14T18:53:09.551Z,,,,,,,,,,51701.4050000119,completion,,,,,,,,,,,,,,true,,,,false,535359.3999999762,535358.3000000119,483640.481,483837,483656.895,535190.467,1,20,,
stair_instructions,html.Screen,7,2023-11-14T18:53:33.559Z,,,,,,,,,,24174.033000000054,response,,,,,,,,,,,,,,,continue,click button,,,559365,559364.5,535174.017,535359.6000000238,535190.467,559203.923,,,,
trial,html.Screen,8_0_0,2023-11-14T18:53:39.194Z,,,,2,-0.0715931084231032,0.011427878877272,,false,lh,5795.877000011969,response,-0.7411887874358276,0.8999999999999997,-0.8999999999999997,0.7869222465141029,0.8999999999999997,-0.8999999999999997,low,high,,ISIC_1470250.JPG,,ISIC_6255113.JPG,29,false,hl,keypress(j),0,true,564999.8999999762,564999.8000000119,559187.139,559365.1000000238,559203.923,564848.135,1,40,1,
sequence,flow.Sequence,8_0,2023-11-14T18:53:39.194Z,,,,,,,,,,5795.877000011969,completion,,,,,,,low,high,,,,,,false,,,,true,565000,564999.8000000119,559187.139,559365.1000000238,559203.923,564848.135,1,40,,
trial,html.Screen,8_1_0,2023-11-14T18:53:44.729Z,,,,2,0.0273175221875807,0.0515126441328492,,false,hl,5686.665000011912,response,0.7236002097394486,0.8499999999999996,-0.8999999999999997,-0.7895205994309619,0.8999999999999997,-0.8499999999999996,high,low,,ISIC_0064034.JPG,,ISIC_0413563.JPG,57,false,hh,keypress(i),0,true,570535.1999999881,570534.8000000119,564831.453,565000.1000000238,564848.135,570375.718,1,40,2,
sequence,flow.Sequence,8_1,2023-11-14T18:53:44.729Z,,,,,,,,,,5686.665000011912,completion,,,,,,,high,low,,,,,,false,,,,true,570535.6999999881,570534.8000000119,564831.453,565000.1000000238,564848.135,570375.718,1,40,,
trial,html.Screen,8_2_0,2023-11-14T18:53:50.144Z,,,,2,0.0409660561823769,-0.039283578935498,,false,lh,5574.582000011927,response,-0.8034318937720549,0.8499999999999996,-0.8499999999999996,1.0024917298189338,0.8499999999999996,-0.8499999999999996,low,high,,ISIC_0479264.JPG,,ISIC_0032766.JPG,44,false,hl,keypress(j),0,true,575950.6999999881,575950.3000000119,570359.105,570535.8999999762,570375.718,575786.158,1,40,3,
sequence,flow.Sequence,8_2,2023-11-14T18:53:50.145Z,,,,,,,,,,5574.582000011927,completion,,,,,,,low,high,,,,,,false,,,,true,575951.1999999881,575950.3000000119,570359.105,570535.8000000119,570375.718,575786.158,1,40,,
trial,html.Screen,8_3_0,2023-11-14T18:53:54.248Z,,,,2,-0.0367744112927588,-0.0324865661712824,,false,hh,4268.341999999946,response,0.8721011160837115,0.7999999999999996,-0.8499999999999996,0.9005344308932209,0.8499999999999996,-0.7999999999999996,high,high,,ISIC_4523565.JPG,,ISIC_0025744.JPG,232,false,lh,keypress(e),0,true,580054.8999999762,580054.5,575769.608,575951.5,575786.158,579894.171,1,40,4,
sequence,flow.Sequence,8_3,2023-11-14T18:53:54.249Z,,,,,,,,,,4268.341999999946,completion,,,,,,,high,high,,,,,,false,,,,true,580055.3000000119,580054.5,575769.608,575951.3999999762,575786.158,579894.171,1,40,,
trial,html.Screen,8_4_0,2023-11-14T18:53:59.921Z,,,,2,-0.0367706518941078,0.0161069838272154,,false,ll,5832.629000011948,response,-0.8551569963988895,0.7999999999999996,-0.7999999999999996,-0.7286805411358589,0.8499999999999996,-0.7499999999999996,low,low,,ISIC_0033419.JPG,,ISIC_0016014.JPG,261,false,hh,keypress(i),0,true,585727.1000000238,585726.8000000119,579877.51,580055.6000000238,579894.171,585588.701,1,40,5,
sequence,flow.Sequence,8_4,2023-11-14T18:53:59.921Z,,,,,,,,,,5832.629000011948,completion,,,,,,,low,low,,,,,,false,,,,true,585727.6000000238,585726.8000000119,579877.51,580055.5,579894.171,585588.701,1,40,,
trial,html.Screen,8_5_0,2023-11-14T18:54:08.321Z,,,,2,-0.0249297455748133,0.055986418955019,,false,lh,8537.899000023841,response,-0.6904571159175875,0.7499999999999996,-0.7999999999999996,0.8338159233479188,0.7999999999999996,-0.7499999999999996,low,high,,ISIC_3900049.JPG,,ISIC_6381981.JPG,58,false,hl,keypress(j),0,true,594126.8999999762,594126.6000000238,585571.926,585727.8999999762,585588.701,593971.479,1,40,6,
sequence,flow.Sequence,8_5,2023-11-14T18:54:08.321Z,,,,,,,,,,8537.899000023841,completion,,,,,,,low,high,,,,,,false,,,,true,594127.5,594126.6000000238,585571.926,585727.8999999762,585588.701,593971.479,1,40,,
trial,html.Screen,8_6_0,2023-11-14T18:54:16.769Z,,,,2,0.0388181790775959,-0.0049623405709465,,false,hl,8603.220999988029,response,0.5147437336073735,0.6999999999999995,-0.7999999999999996,-0.6792956682150477,0.7999999999999996,-0.6999999999999995,high,low,,ISIC_0061880.JPG,,ISIC_0056330.JPG,109,false,lh,keypress(e),0,true,602575,602574.6999999881,593954.91,594127.6999999881,593971.479,602404.574,1,40,7,
sequence,flow.Sequence,8_6,2023-11-14T18:54:16.769Z,,,,,,,,,,8603.220999988029,completion,,,,,,,high,low,,,,,,false,,,,true,602575.6000000238,602574.6999999881,593954.91,594127.6000000238,593971.479,602404.574,1,40,,
trial,html.Screen,8_7_0,2023-11-14T18:54:22.176Z,,,,2,0.0542893032276609,-0.0176656364422514,,true,ll,5577.825999976136,response,-0.7303022273735517,0.6999999999999995,-0.7499999999999996,-0.7676979481938448,0.7499999999999996,-0.6999999999999995,low,low,,ISIC_0024516.JPG,,ISIC_4911407.JPG,313,false,ll,keypress(f),0,true,607982.6999999881,607982.3999999762,602387.954,602575.8999999762,602404.574,607815.106,1,40,8,
sequence,flow.Sequence,8_7,2023-11-14T18:54:22.177Z,,,,,,,,,,5577.825999976136,completion,,,,,,,low,low,,,,,,false,,,,true,607983.1999999881,607982.3999999762,602387.954,602575.8000000119,602404.574,607815.106,1,40,,
trial,html.Screen,8_8_0,2023-11-14T18:54:28.880Z,,,,2,-0.0700576547090477,0.0026956749740767,,false,ll,6871.194000011892,response,-0.579518969565768,0.6499999999999995,-0.6999999999999995,-0.7675674447625931,0.6999999999999995,-0.6499999999999995,low,low,,ISIC_7212271.JPG,,ISIC_1352841.JPG,339,false,hl,keypress(j),0,true,614686.5,614686.3000000119,607798.571,607983.5,607815.106,614528.166,1,40,9,
sequence,flow.Sequence,8_8,2023-11-14T18:54:28.881Z,,,,,,,,,,6871.194000011892,completion,,,,,,,low,low,,,,,,false,,,,true,614686.8999999762,614686.3000000119,607798.571,607983.3999999762,607815.106,614528.166,1,40,,
trial,html.Screen,8_9_0,2023-11-14T18:54:35.800Z,,,,2,-0.0220026381002083,0.0170756452911772,,false,hh,7076.634000011953,response,0.6594887351819779,0.5999999999999994,-0.6999999999999995,0.529180353649495,0.6499999999999995,-0.6499999999999995,high,high,,ISIC_5347806.JPG,,ISIC_2311665.JPG,327,false,ll,keypress(f),0,true,621604.8000000119,621604.8000000119,614511.585,614687.1999999881,614528.166,621441.532,1,40,10,
sequence,flow.Sequence,8_9,2023-11-14T18:54:35.800Z,,,,,,,,,,7076.634000011953,completion,,,,,,,high,high,,,,,,false,,,,true,621605,621604.8000000119,614511.585,614687.1000000238,614528.166,621441.532,1,40,,
trial,html.Screen,8_10_0,2023-11-14T18:54:43.064Z,,,,2,-0.0718464495991687,0.0429653518314044,,false,hh,7427.667999988073,response,0.5921223308620618,0.5999999999999994,-0.6499999999999995,0.4775783243207303,0.6499999999999995,-0.5999999999999994,high,high,,ISIC_0028597.JPG,,ISIC_4243283.JPG,327,false,hl,keypress(j),0,true,628869.3999999762,628869.1999999881,621424.8,621605,621441.532,628705.694,1,40,11,
sequence,flow.Sequence,8_10,2023-11-14T18:54:43.065Z,,,,,,,,,,7427.667999988073,completion,,,,,,,high,high,,,,,,false,,,,true,628869.5,628869.1999999881,621424.8,621605,621441.532,628705.694,1,40,,
trial,html.Screen,8_11_0,2023-11-14T18:54:48.306Z,,,,2,-0.0257631352671967,-0.0202837002774028,,false,hl,5404.906000023824,response,0.4061710597419941,0.5999999999999994,-0.5999999999999994,-0.3964589228750942,0.6499999999999995,-0.5499999999999994,high,low,,ISIC_0032797.JPG,,ISIC_0010788.JPG,172,false,ll,keypress(f),0,true,634110.8999999762,634110.6000000238,628689.01,628869.6000000238,628705.694,633949.306,1,40,12,
sequence,flow.Sequence,8_11,2023-11-14T18:54:48.306Z,,,,,,,,,,5404.906000023824,completion,,,,,,,high,low,,,,,,false,,,,true,634111.3999999762,634110.6000000238,628689.01,628869.5,628705.694,633949.306,1,40,,
trial,html.Screen,8_12_0,2023-11-14T18:54:55.946Z,,,,2,0.0409660561823769,-0.039283578935498,,false,lh,7801.093999976176,response,-0.4063262813487873,0.5999999999999994,-0.5499999999999994,0.6995126208739376,0.5999999999999994,-0.5499999999999994,low,high,,ISIC_0479264.JPG,,ISIC_0008431.JPG,185,false,ll,keypress(f),0,true,641750.6999999881,641750.3999999762,633932.693,634111.6999999881,633949.306,641580.815,1,40,13,
sequence,flow.Sequence,8_12,2023-11-14T18:54:55.946Z,,,,,,,,,,7801.093999976176,completion,,,,,,,low,high,,,,,,false,,,,true,641751.3000000119,641750.3999999762,633932.693,634111.5,633949.306,641580.815,1,40,,
trial,html.Screen,8_13_0,2023-11-14T18:55:03.330Z,,,,2,-0.0703653376600499,0.0206740478999942,,false,ll,7553.584999976214,response,-0.4498839476147115,0.5499999999999994,-0.5499999999999994,-0.4270307603475771,0.5999999999999994,-0.4999999999999994,low,low,,ISIC_4899386.JPG,,ISIC_7109582.JPG,435,false,hl,keypress(j),0,true,649134.6999999881,649134.3999999762,641564.063,641751.5,641580.815,648978.696,1,40,14,
sequence,flow.Sequence,8_13,2023-11-14T18:55:03.330Z,,,,,,,,,,7553.584999976214,completion,,,,,,,low,low,,,,,,false,,,,true,649135.1999999881,649134.3999999762,641564.063,641751.5,641580.815,648978.696,1,40,,
trial,html.Screen,8_14_0,2023-11-14T18:55:09.506Z,,,,2,-0.0606387586319451,-0.0283716809868572,,false,ll,6331.703999976162,response,-0.7234869340719731,0.4999999999999994,-0.5499999999999994,-0.3544495679571713,0.5499999999999994,-0.4999999999999994,low,low,,ISIC_0061158.JPG,,ISIC_0011884.JPG,435,false,lh,keypress(e),0,true,655310.6999999881,655310.3999999762,648961.95,649135.5,648978.696,655140.485,1,40,15,
sequence,flow.Sequence,8_14,2023-11-14T18:55:09.506Z,,,,,,,,,,6331.703999976162,completion,,,,,,,low,low,,,,,,false,,,,true,655311.1999999881,655310.3999999762,648961.95,649135.5,648978.696,655140.485,1,40,,
trial,html.Screen,8_15_0,2023-11-14T18:55:16.722Z,,,,2,-0.0267918352484299,-0.0630167830859455,,false,lh,7386.115000023856,response,-0.4398504909140056,0.4999999999999994,-0.5499999999999994,0.3199562806487943,0.4999999999999994,-0.4999999999999994,low,high,,ISIC_0064874.JPG,,ISIC_9338761.JPG,231,false,hh,keypress(i),0,true,662526.8999999762,662526.6000000238,655123.957,655311.5,655140.485,662371.181,1,40,16,
sequence,flow.Sequence,8_15,2023-11-14T18:55:16.723Z,,,,,,,,,,7386.115000023856,completion,,,,,,,low,high,,,,,,false,,,,true,662527.5,662526.6000000238,655123.957,655311.3999999762,655140.485,662371.181,1,40,,
trial,html.Screen,8_16_0,2023-11-14T18:55:25.568Z,,,,2,-0.0258224118104549,0.0029364553353019,,false,lh,9001.718999976176,response,-0.4597440127902623,0.4999999999999994,-0.5499999999999994,0.534804386538287,0.4999999999999994,-0.4999999999999994,low,high,,ISIC_8325226.JPG,,ISIC_0015245.JPG,231,false,ll,keypress(f),0,true,671372.8999999762,671372.8999999762,662354.521,662527.8000000119,662371.181,671204.959,1,40,17,
sequence,flow.Sequence,8_16,2023-11-14T18:55:25.568Z,,,,,,,,,,9001.718999976176,completion,,,,,,,low,high,,,,,,false,,,,true,671373,671372.8999999762,662354.521,662527.6999999881,662371.181,671204.959,1,40,,
trial,html.Screen,8_17_0,2023-11-14T18:55:32.480Z,,,,2,0.0200376619013301,0.0451764418954947,,false,ll,7080.040999999968,response,-0.6990723246540984,0.4999999999999994,-0.5499999999999994,-0.6480252642445372,0.4999999999999994,-0.4999999999999994,low,low,,ISIC_0026087.JPG,,ISIC_0014190.JPG,435,false,hl,keypress(j),0,true,678285.1999999881,678285,671188.459,671373.1000000238,671204.959,678118.426,1,40,18,
sequence,flow.Sequence,8_17,2023-11-14T18:55:32.480Z,,,,,,,,,,7080.040999999968,completion,,,,,,,low,low,,,,,,false,,,,true,678285.3999999762,678285,671188.459,671373,671204.959,678118.426,1,40,,
trial,html.Screen,8_18_0,2023-11-14T18:55:42.188Z,,,,2,-0.0444523556175667,-0.066384682611553,,true,hh,9872.174000023864,response,0.5807305407331786,0.4999999999999994,-0.5499999999999994,0.4870090075480396,0.4999999999999994,-0.4999999999999994,high,high,,ISIC_0029409.JPG,,ISIC_0054652.JPG,398,false,hh,keypress(i),0,true,687990.8999999762,687990.6000000238,678101.939,678285.3999999762,678118.426,687820.726,1,40,19,
sequence,flow.Sequence,8_18,2023-11-14T18:55:42.188Z,,,,,,,,,,9872.174000023864,completion,,,,,,,high,high,,,,,,false,,,,true,687991.5,687990.6000000238,678101.939,678285.3999999762,678118.426,687820.726,1,40,,
trial,html.Screen,8_19_0,2023-11-14T18:55:50.993Z,,,,2,-0.0286056110007553,-0.036125199756515,,true,hl,8976.074000011897,response,0.5615064928214631,0.4999999999999994,-0.4999999999999994,-0.3566434514808389,0.4999999999999994,-0.4999999999999994,high,low,,ISIC_6535558.JPG,,ISIC_6487809.JPG,246,false,hl,keypress(j),0,true,696796.8999999762,696796.8000000119,687804.048,687991.6999999881,687820.726,696637.879,1,40,20,
sequence,flow.Sequence,8_19,2023-11-14T18:55:50.994Z,,,,,,,,,,8976.074000011897,completion,,,,,,,high,low,,,,,,false,,,,true,696797,696796.8000000119,687804.048,687991.6999999881,687820.726,696637.879,1,40,,
trial,html.Screen,8_20_0,2023-11-14T18:55:58.692Z,,,,2,0.0175203912019758,0.0427513576747051,,false,lh,7856.820999988122,response,-0.5592228979451084,0.4711185167773209,-0.4999999999999994,0.3716084126283464,0.4999999999999994,-0.4523343578626881,low,high,,ISIC_0056292.JPG,,ISIC_0006744.JPG,236,false,ll,keypress(f),0,true,704495,704494.6999999881,696621.287,696797,696637.879,704336.267,1,40,21,
sequence,flow.Sequence,8_20,2023-11-14T18:55:58.692Z,,,,,,,,,,7856.820999988122,completion,,,,,,,low,high,,,,,,false,,,,true,704495.5,704494.6999999881,696621.287,696797,696637.879,704336.267,1,40,,
trial,html.Screen,8_21_0,2023-11-14T18:56:08.195Z,,,,2,0.0109416414475118,0.005246498750811,,true,ll,9662.233000000007,response,-0.6469784776630937,0.4711185167773209,-0.4999999999999994,-0.4203951196698641,0.4999999999999994,-0.4523343578626881,low,low,,ISIC_0064279.JPG,,ISIC_8917755.JPG,483,false,ll,keypress(f),0,true,713998.8999999762,713998.5,704319.566,704495.8000000119,704336.267,713837.924,1,40,22,
sequence,flow.Sequence,8_21,2023-11-14T18:56:08.196Z,,,,,,,,,,9662.233000000007,completion,,,,,,,low,low,,,,,,false,,,,true,713999.3999999762,713998.5,704319.566,704495.6999999881,704336.267,713837.924,1,40,,
trial,html.Screen,8_22_0,2023-11-14T18:56:13.916Z,,,,2,0.0065172941585523,-0.0118857043117315,,false,lh,5880.77599998808,response,-0.4618065057551207,0.4711185167773209,-0.5031006878041009,0.4008340925181968,0.4999999999999994,-0.4523343578626881,low,high,,ISIC_6119202.JPG,,ISIC_0032052.JPG,237,false,hh,keypress(i),0,true,719719,719718.6999999881,713821.286,713999.6000000238,713837.924,719549.096,1,40,23,
sequence,flow.Sequence,8_22,2023-11-14T18:56:13.916Z,,,,,,,,,,5880.77599998808,completion,,,,,,,low,high,,,,,,false,,,,true,719719.3999999762,719718.6999999881,713821.286,713999.5,713837.924,719549.096,1,40,,
trial,html.Screen,8_23_0,2023-11-14T18:56:23.011Z,,,,2,-0.0394300226801425,0.0536115913979284,,false,hh,9265.303999976139,response,0.2888992432527152,0.4711185167773209,-0.5031006878041009,0.5625657264212047,0.4999999999999994,-0.4523343578626881,high,high,,ISIC_0046983.JPG,,ISIC_0014903.JPG,412,false,lh,keypress(e),0,true,728814.6999999881,728814.3999999762,719532.455,719719.6999999881,719549.096,728650.03,1,40,24,
sequence,flow.Sequence,8_23,2023-11-14T18:56:23.012Z,,,,,,,,,,9265.303999976139,completion,,,,,,,high,high,,,,,,false,,,,true,728815.1000000238,728814.3999999762,719532.455,719719.6999999881,719549.096,728650.03,1,40,,
trial,html.Screen,8_24_0,2023-11-14T18:56:33.884Z,,,,2,0.0273855825278348,-0.0566295048930719,,,,10871.21100000001,timeout,-0.5640137008282523,0.4711185167773209,-0.4531006878041009,0.5896270803185307,0.4999999999999994,-0.4523343578626881,low,high,,ISIC_0000141.JPG,,ISIC_0030404.JPG,254,false,,,0,true,739686,739685.6999999881,728633.588,728815.5,728650.03,739521.241,1,40,25,
sequence,flow.Sequence,8_24,2023-11-14T18:56:33.884Z,,,,,,,,,,11035.669999988051,completion,,,,,,,low,high,,,,,,false,,,,true,739686.6000000238,739685.6999999881,728633.588,728815.3999999762,728650.03,739521.241,1,40,,
trial,html.Screen,8_25_0,2023-11-14T18:56:38.541Z,,,,2,0.0418938536494534,-0.0678614270583654,,false,lh,4821.359000023804,response,-0.6058680299574756,0.4711185167773209,-0.4531006878041009,0.4485043986068605,0.4999999999999994,-0.4523343578626881,low,high,,ISIC_0027573.JPG,,ISIC_0034208.JPG,254,false,hl,keypress(j),0,true,744343,744342.6000000238,739504.733,739686.8000000119,739521.241,744180.409,1,40,26,
sequence,flow.Sequence,8_25,2023-11-14T18:56:38.541Z,,,,,,,,,,4821.359000023804,completion,,,,,,,low,high,,,,,,false,,,,true,744343.3999999762,744342.6000000238,739504.733,739686.6999999881,739521.241,744180.409,1,40,,
trial,html.Screen,8_26_0,2023-11-14T18:56:44.251Z,,,,2,-0.0606387586319451,-0.0283716809868572,,false,hl,5872.691000023857,response,0.6086702022490811,0.4711185167773209,-0.4531006878041009,-0.61710874966165,0.4999999999999994,-0.4523343578626881,high,low,,ISIC_0061158.JPG,,ISIC_4663883.JPG,293,false,hh,keypress(i),0,true,750053.3000000119,750053.1000000238,744163.749,744343.6000000238,744180.409,749891.562,1,40,27,
sequence,flow.Sequence,8_26,2023-11-14T18:56:44.251Z,,,,,,,,,,5872.691000023857,completion,,,,,,,high,low,,,,,,false,,,,true,750053.3999999762,750053.1000000238,744163.749,744343.6000000238,744180.409,749891.562,1,40,,
trial,html.Screen,8_27_0,2023-11-14T18:56:50.149Z,,,,2,-0.0715931084231032,0.011427878877272,,false,ll,6059.038000023807,response,-0.6258487336869651,0.4711185167773209,-0.4531006878041009,-0.289843936609318,0.4999999999999994,-0.4523343578626881,low,low,,ISIC_1470250.JPG,,ISIC_0069591.JPG,480,false,hh,keypress(i),0,true,755950.8999999762,755950.6000000238,749874.782,750053.3999999762,749891.562,755786.144,1,40,28,
sequence,flow.Sequence,8_27,2023-11-14T18:56:50.149Z,,,,,,,,,,6059.038000023807,completion,,,,,,,low,low,,,,,,false,,,,true,755951.3999999762,755950.6000000238,749874.782,750053.3999999762,749891.562,755786.144,1,40,,
trial,html.Screen,8_28_0,2023-11-14T18:56:56.653Z,,,,2,0.0426957918502628,0.044166030546046,,true,hl,6668.255999976187,response,0.2979853330333455,0.4711185167773209,-0.4531006878041009,-0.5422970458497154,0.4999999999999994,-0.4523343578626881,high,low,,ISIC_4649440.JPG,,ISIC_0031548.JPG,293,false,hl,keypress(j),0,true,762454.6000000238,762454.3999999762,755769.661,755951.6999999881,755786.144,762299.051,1,40,29,
sequence,flow.Sequence,8_28,2023-11-14T18:56:56.653Z,,,,,,,,,,6668.255999976187,completion,,,,,,,high,low,,,,,,false,,,,true,762455.1000000238,762454.3999999762,755769.661,755951.6000000238,755786.144,762299.051,1,40,,
trial,html.Screen,8_29_0,2023-11-14T18:57:03.525Z,,,,2,0.0074667911845194,-0.018500200317654,,true,ll,7027.449000000022,response,-0.3161413964025282,0.42111851677732093,-0.4531006878041009,-0.4818346794709604,0.4999999999999994,-0.4523343578626881,low,low,,ISIC_0058723.JPG,,ISIC_5272837.JPG,480,false,ll,keypress(f),0,true,769326.8999999762,769326.5,762282.251,762455.3000000119,762299.051,769162.151,1,40,30,
sequence,flow.Sequence,8_29,2023-11-14T18:57:03.525Z,,,,,,,,,,7027.449000000022,completion,,,,,,,low,low,,,,,,false,,,,true,769327.3999999762,769326.5,762282.251,762455.1999999881,762299.051,769162.151,1,40,,
trial,html.Screen,8_30_0,2023-11-14T18:57:09.285Z,,,,2,-0.0258224118104549,0.0029364553353019,,true,ll,5924.248999976204,response,-0.3615853086050183,0.42111851677732093,-0.4531006878041009,-0.5362428738881249,0.4999999999999994,-0.46206586266033794,low,low,,ISIC_8325226.JPG,,ISIC_3283317.JPG,476,false,ll,keypress(f),0,true,775086.8000000119,775086.3999999762,769145.671,769327.6000000238,769162.151,774923.375,1,40,31,
sequence,flow.Sequence,8_30,2023-11-14T18:57:09.285Z,,,,,,,,,,5924.248999976204,completion,,,,,,,low,low,,,,,,false,,,,true,775087.1999999881,775086.3999999762,769145.671,769327.5,769162.151,774923.375,1,40,,
trial,html.Screen,8_31_0,2023-11-14T18:57:18.757Z,,,,2,0.0607839218394147,0.0567408401627122,,true,hh,9635.125,response,0.3977168078243453,0.42111851677732093,-0.4031006878041009,0.4012115479065322,0.4999999999999994,-0.46206586266033794,high,high,,ISIC_0026901.JPG,,ISIC_6938608.JPG,413,false,hh,keypress(i),0,true,784558.8000000119,784558.5,774906.877,775087.5,774923.375,784391.774,1,40,32,
sequence,flow.Sequence,8_31,2023-11-14T18:57:18.757Z,,,,,,,,,,9635.125,completion,,,,,,,high,high,,,,,,false,,,,true,784559.3000000119,784558.5,774906.877,775087.3999999762,774923.375,784391.774,1,40,,
trial,html.Screen,8_32_0,2023-11-14T18:57:24.205Z,,,,2,0.0367060100866019,0.0630207980628495,,true,hl,5614.726000000024,response,0.3600806361344373,0.42111851677732093,-0.4031006878041009,-0.5711516628871418,0.4999999999999994,-0.46206586266033794,high,low,,ISIC_0028396.JPG,,ISIC_5644242.JPG,306,false,hl,keypress(j),0,true,790006.8999999762,790006.5,784375.231,784559.5,784391.774,789835.765,1,40,33,
sequence,flow.Sequence,8_32,2023-11-14T18:57:24.205Z,,,,,,,,,,5614.726000000024,completion,,,,,,,high,low,,,,,,false,,,,true,790007.3000000119,790006.5,784375.231,784559.3999999762,784391.774,789835.765,1,40,,
trial,html.Screen,8_33_0,2023-11-14T18:57:31.181Z,,,,2,-0.0633291412406864,0.0446580444004686,,false,hh,7146.634999976144,response,0.3341987176090902,0.37111851677732094,-0.4031006878041009,0.5856253226512977,0.4999999999999994,-0.4536972683876333,high,high,,ISIC_0010718.JPG,,ISIC_0056466.JPG,399,false,ll,keypress(f),0,true,796982.6999999881,796982.3999999762,789819.199,790007.3999999762,789835.765,796815.918,1,40,34,
sequence,flow.Sequence,8_33,2023-11-14T18:57:31.181Z,,,,,,,,,,7146.634999976144,completion,,,,,,,high,high,,,,,,false,,,,true,796983.1000000238,796982.3999999762,789819.199,790007.3000000119,789835.765,796815.918,1,40,,
trial,html.Screen,8_34_0,2023-11-14T18:57:37.438Z,,,,2,0.0273175221875807,0.0515126441328492,,true,hl,6422.182000023895,response,0.3815259486513303,0.42111851677732093,-0.4031006878041009,-0.456140574165629,0.4999999999999994,-0.4536972683876333,high,low,,ISIC_0064034.JPG,,ISIC_3520709.JPG,310,false,hl,keypress(j),0,true,803238.5,803238.1000000238,796799.385,796983.3999999762,796815.918,803078.317,1,40,35,
sequence,flow.Sequence,8_34,2023-11-14T18:57:37.438Z,,,,,,,,,,6422.182000023895,completion,,,,,,,high,low,,,,,,false,,,,true,803239,803238.1000000238,796799.385,796983.3000000119,796815.918,803078.317,1,40,,
trial,html.Screen,8_35_0,2023-11-14T18:57:43.526Z,,,,2,0.0146597765042814,0.06222227493177,,false,hh,6248.283000023803,response,0.2491457741692802,0.42111851677732093,-0.4031006878041009,0.3157734475345146,0.4999999999999994,-0.4536972683876333,high,high,,ISIC_5982769.JPG,,ISIC_6019374.JPG,413,false,ll,keypress(f),0,true,809326.8999999762,809326.6000000238,803061.619,803239.1999999881,803078.317,809156.679,1,40,36,
sequence,flow.Sequence,8_35,2023-11-14T18:57:43.527Z,,,,,,,,,,6248.283000023803,completion,,,,,,,high,high,,,,,,false,,,,true,809327.5,809326.6000000238,803061.619,803239.1000000238,803078.317,809156.679,1,40,,
trial,html.Screen,8_36_0,2023-11-14T18:57:53.406Z,,,,2,-0.0700576547090477,0.0026956749740767,,false,hl,10049.320999999996,response,0.2890643196080785,0.4711185167773209,-0.4031006878041009,-0.6194747575012813,0.4999999999999994,-0.4536972683876333,high,low,,ISIC_7212271.JPG,,ISIC_7455460.JPG,294,false,lh,keypress(e),0,true,819206.3000000119,819206,809139.919,809327.6999999881,809156.679,819042.524,1,40,37,
sequence,flow.Sequence,8_36,2023-11-14T18:57:53.406Z,,,,,,,,,,10049.320999999996,completion,,,,,,,high,low,,,,,,false,,,,true,819206.8000000119,819206,809139.919,809327.6999999881,809156.679,819042.524,1,40,,
trial,html.Screen,8_37_0,2023-11-14T18:58:00.198Z,,,,2,-0.0464691161264081,-0.0535296539628673,,true,hh,6955.976000000024,response,0.6297449622724133,0.4711185167773209,-0.4031006878041009,0.6871716167384573,0.4999999999999994,-0.4536972683876333,high,high,,ISIC_0758797.JPG,,ISIC_0011700.JPG,412,false,hh,keypress(i),0,true,825998.8000000119,825998.5,819025.978,819207,819042.524,825839.141,1,40,38,
sequence,flow.Sequence,8_37,2023-11-14T18:58:00.199Z,,,,,,,,,,6955.976000000024,completion,,,,,,,high,high,,,,,,false,,,,true,825999.3000000119,825998.5,819025.978,819206.8999999762,819042.524,825839.141,1,40,,
trial,html.Screen,8_38_0,2023-11-14T18:58:08.350Z,,,,2,-0.0727065082131878,-0.0601627969482033,,false,hl,8310.859000000055,response,0.2919411562406507,0.4711185167773209,-0.4031006878041009,-0.3048258498569006,0.4999999999999994,-0.4536972683876333,high,low,,ISIC_2245069.JPG,,ISIC_9913573.JPG,294,false,ll,keypress(f),0,true,834150.3999999762,834150,825822.539,825999.5,825839.141,833988.397,1,40,39,
sequence,flow.Sequence,8_38,2023-11-14T18:58:08.350Z,,,,,,,,,,8310.859000000055,completion,,,,,,,high,low,,,,,,false,,,,true,834150.8000000119,834150,825822.539,825999.5,825839.141,833988.397,1,40,,
trial,html.Screen,8_39_0,2023-11-14T18:58:14.910Z,,,,2,0.0145962222125655,0.0525495878509009,,false,hh,6721.703000023845,response,0.5014241013162942,0.4711185167773209,-0.4031006878041009,0.3779303568928729,0.4999999999999994,-0.4536972683876333,high,high,,ISIC_4248013.JPG,,ISIC_2153686.JPG,412,false,hl,keypress(j),0,true,840710.5,840710.1000000238,833971.568,834151.1000000238,833988.397,840550.988,1,40,40,
sequence,flow.Sequence,8_39,2023-11-14T18:58:14.910Z,,,,,,,,,,6721.703000023845,completion,,,,,,,high,high,,,,,,false,,,,true,840711,840710.1000000238,833971.568,834151.1000000238,833988.397,840550.988,1,40,,
stair_loop,flow.Loop,8,2023-11-14T18:58:14.910Z,,,,,,,,,,281506.1770000239,completion,,,,,,,,,,,,,,false,,,,true,840711.3000000119,840710.1000000238,559187.139,559365.1000000238,559203.923,840550.988,1,40,,
exp_instructions,html.Screen,9,2023-11-14T18:59:02.735Z,,,,,,,,,,47982.411999976146,response,,,,,,,,,,,,,,,continue,keypress(Space),,,888534.3000000119,888533.3999999762,840534.261,840711.3999999762,840550.988,888377.445,,,,
trial,html.Screen,10_0_0,2023-11-14T18:59:07.445Z,,,,1,-0.0464691161264081,-0.0535296539628673,,false,hl,4867.25499998813,response,0.2879820677419532,0.45111851677732095,-0.4402906190236907,-0.3844653604557658,0.4999999999999994,-0.45427110226606643,high,low,,ISIC_0758797.JPG,10,ISIC_9788545.JPG,297,false,lh,keypress(e),0,false,893244.8000000119,893244.6999999881,888360.508,888534.6999999881,888377.445,893086.734,4,500,1,
break,html.Screen,10_0_1,2023-11-14T18:59:07.446Z,,,,,,,,,,NaN,,,,,,,,high,low,,,,,,false,,,,false,893245.1000000238,893245.1000000238,,893244.8000000119,,893086.734,4,500,,
break_continue,html.Screen,10_0_2,2023-11-14T18:59:07.446Z,,,,,,,,,,NaN,,,,,,,,high,low,,,,,,false,,,,false,893245.5,893245.3999999762,,893245.1999999881,,893086.734,4,500,,
sequence,flow.Sequence,10_0,2023-11-14T18:59:07.446Z,,,,,,,,,,4867.954999976209,completion,,,,,,,high,low,,,,,,false,,,,false,893245.5,893245.3999999762,888360.508,888534.6000000238,888377.445,893086.734,4,500,,
trial,html.Screen,10_1_0,2023-11-14T18:59:13.847Z,,,,1,0.0528688218207886,-0.0356788458032396,,false,hl,6559.665999976103,response,0.4265071431388856,0.45111851677732095,-0.4402906190236907,-0.4040729233224676,0.4999999999999994,-0.45427110226606643,high,low,,ISIC_5287748.JPG,9,ISIC_9972518.JPG,297,false,ll,keypress(f),0,false,899646.8000000119,899646.3999999762,893069.947,893245.6000000238,893086.734,899482.258,4,500,2,
break,html.Screen,10_1_1,2023-11-14T18:59:13.848Z,,,,,,,,,,NaN,,,,,,,,high,low,,,,,,false,,,,false,899647.8999999762,899647.6000000238,,899647.1000000238,,899482.258,4,500,,
break_continue,html.Screen,10_1_2,2023-11-14T18:59:13.849Z,,,,,,,,,,NaN,,,,,,,,high,low,,,,,,false,,,,false,899648.8999999762,899648.3999999762,,899648.1999999881,,899482.258,4,500,,
sequence,flow.Sequence,10_1,2023-11-14T18:59:13.850Z,,,,,,,,,,6561.665999976103,completion,,,,,,,high,low,,,,,,false,,,,false,899649.1999999881,899648.3999999762,893069.947,893245.6000000238,893086.734,899482.258,4,500,,
trial,html.Screen,10_2_0,2023-11-14T18:59:18.287Z,,,,1,0.0542893032276609,-0.0176656364422514,,true,lh,4603.842000023811,response,-0.2716928509063949,0.45111851677732095,-0.4402906190236907,0.5407398796433396,0.4999999999999994,-0.45427110226606643,low,high,,ISIC_0024516.JPG,8,ISIC_9382494.JPG,266,false,lh,keypress(e),0,false,904086.5,904086.1000000238,899465.679,899649.3999999762,899482.258,903924.359,4,500,3,
break,html.Screen,10_2_1,2023-11-14T18:59:18.288Z,,,,,,,,,,NaN,,,,,,,,low,high,,,,,,false,,,,false,904087.6000000238,904087.3000000119,,904086.8000000119,,903924.359,4,500,,
break_continue,html.Screen,10_2_2,2023-11-14T18:59:18.289Z,,,,,,,,,,NaN,,,,,,,,low,high,,,,,,false,,,,false,904088.5,904088.1000000238,,904087.8000000119,,903924.359,4,500,,
sequence,flow.Sequence,10_2,2023-11-14T18:59:18.289Z,,,,,,,,,,4605.842000023811,completion,,,,,,,low,high,,,,,,false,,,,false,904088.8000000119,904088.1000000238,899465.679,899649.3000000119,899482.258,903924.359,4,500,,
trial,html.Screen,10_3_0,2023-11-14T18:59:22.807Z,,,,1,-0.0367744112927588,-0.0324865661712824,,true,lh,4681.840999988024,response,-0.5635306966596147,0.45111851677732095,-0.4402906190236907,0.3209771905460522,0.4999999999999994,-0.45427110226606643,low,high,,ISIC_4523565.JPG,9,ISIC_0001119.JPG,266,false,lh,keypress(e),0,false,908606.5,908606.1999999881,903907.738,904089,903924.359,908449.999,4,500,4,
break,html.Screen,10_3_1,2023-11-14T18:59:22.808Z,,,,,,,,,,NaN,,,,,,,,low,high,,,,,,false,,,,false,908607.6000000238,908607.3999999762,,908606.8999999762,,908449.999,4,500,,
break_continue,html.Screen,10_3_2,2023-11-14T18:59:22.809Z,,,,,,,,,,NaN,,,,,,,,low,high,,,,,,false,,,,false,908608.6000000238,908608.1000000238,,908607.8999999762,,908449.999,4,500,,
sequence,flow.Sequence,10_3,2023-11-14T18:59:22.809Z,,,,,,,,,,4683.741000023787,completion,,,,,,,low,high,,,,,,false,,,,false,908608.8000000119,908608.1000000238,903907.738,904088.8999999762,903924.359,908449.999,4,500,,
trial,html.Screen,10_4_0,2023-11-14T18:59:28.327Z,,,,1,0.0418938536494534,-0.0678614270583654,,false,hh,5676.200999988127,response,0.5779032884409179,0.45111851677732095,-0.4402906190236907,0.6515050104286245,0.4999999999999994,-0.45427110226606643,high,high,,ISIC_0027573.JPG,9,ISIC_6668093.JPG,403,false,hl,keypress(j),0,false,914126.5,914126.1999999881,908433.188,908609,908449.999,913960.434,4,500,5,
break,html.Screen,10_4_1,2023-11-14T18:59:28.328Z,,,,,,,,,,NaN,,,,,,,,high,high,,,,,,false,,,,false,914127.6999999881,914127.3999999762,,914126.8999999762,,913960.434,4,500,,
break_continue,html.Screen,10_4_2,2023-11-14T18:59:28.329Z,,,,,,,,,,NaN,,,,,,,,high,high,,,,,,false,,,,false,914128.5,914128.1000000238,,914127.8000000119,,913960.434,4,500,,
sequence,flow.Sequence,10_4,2023-11-14T18:59:28.329Z,,,,,,,,,,5678.101000023889,completion,,,,,,,high,high,,,,,,false,,,,false,914128.8000000119,914128.1000000238,908433.188,908609,908449.999,913960.434,4,500,,
trial,html.Screen,10_5_0,2023-11-14T18:59:34.007Z,,,,1,-0.0447960916594447,-0.0451557856659748,,true,hh,5845.565999999992,response,0.4089450919529298,0.45111851677732095,-0.4402906190236907,0.601963083890352,0.4999999999999994,-0.45427110226606643,high,high,,ISIC_1379405.JPG,9,ISIC_6089318.JPG,403,false,hh,keypress(i),0,false,919806.3000000119,919806,913943.947,914129.1000000238,913960.434,919638.16,4,500,6,
break,html.Screen,10_5_1,2023-11-14T18:59:34.008Z,,,,,,,,,,NaN,,,,,,,,high,high,,,,,,false,,,,false,919807.5,919807.1999999881,,919806.6999999881,,919638.16,4,500,,
break_continue,html.Screen,10_5_2,2023-11-14T18:59:34.009Z,,,,,,,,,,NaN,,,,,,,,high,high,,,,,,false,,,,false,919808.3000000119,919808,,919807.6999999881,,919638.16,4,500,,
sequence,flow.Sequence,10_5,2023-11-14T18:59:34.009Z,,,,,,,,,,5847.565999999992,completion,,,,,,,high,high,,,,,,false,,,,false,919808.6999999881,919808,913943.947,914129.1000000238,913960.434,919638.16,4,500,,
trial,html.Screen,10_6_0,2023-11-14T18:59:40.021Z,,,,1,0.0107170641394226,-0.0596294643429623,,true,ll,6182.440000023809,response,-0.4966637278318083,0.45111851677732095,-0.4402906190236907,-0.343431400409611,0.4999999999999994,-0.45427110226606643,low,low,,ISIC_0005291.JPG,9,ISIC_3689759.JPG,480,false,ll,keypress(f),0,false,925820.6000000238,925820.6000000238,919621.707,919808.8999999762,919638.16,925649.837,4,500,7,
break,html.Screen,10_6_1,2023-11-14T18:59:40.022Z,,,,,,,,,,NaN,,,,,,,,low,low,,,,,,false,,,,false,925820.8999999762,925820.8999999762,,925820.6999999881,,925649.837,4,500,,
break_continue,html.Screen,10_6_2,2023-11-14T18:59:40.022Z,,,,,,,,,,NaN,,,,,,,,low,low,,,,,,false,,,,false,925821.1999999881,925821.1000000238,,925821,,925649.837,4,500,,
sequence,flow.Sequence,10_6,2023-11-14T18:59:40.022Z,,,,,,,,,,6182.940000023809,completion,,,,,,,low,low,,,,,,false,,,,false,925821.3000000119,925821.1000000238,919621.707,919808.8000000119,919638.16,925649.837,4,500,,
trial,html.Screen,10_7_0,2023-11-14T18:59:45.318Z,,,,1,-0.0367706518941078,0.0161069838272154,,true,lh,5467.162999999942,response,-0.3184806903771252,0.45111851677732095,-0.4402906190236907,0.5831435640307021,0.4999999999999994,-0.45427110226606643,low,high,,ISIC_0033419.JPG,10,ISIC_0030932.JPG,266,false,lh,keypress(e),0,false,931117,931117,925633.406,925821.3000000119,925649.837,930960.439,4,500,8,
break,html.Screen,10_7_1,2023-11-14T18:59:45.318Z,,,,,,,,,,NaN,,,,,,,,low,high,,,,,,false,,,,false,931117.3999999762,931117.3000000119,,931117.1999999881,,930960.439,4,500,,
break_continue,html.Screen,10_7_2,2023-11-14T18:59:45.318Z,,,,,,,,,,NaN,,,,,,,,low,high,,,,,,false,,,,false,931117.6000000238,931117.5,,931117.3999999762,,930960.439,4,500,,
sequence,flow.Sequence,10_7,2023-11-14T18:59:45.318Z,,,,,,,,,,5467.662999999942,completion,,,,,,,low,high,,,,,,false,,,,false,931117.6999999881,931117.5,925633.406,925821.3000000119,925649.837,930960.439,4,500,,
trial,html.Screen,10_8_0,2023-11-14T18:59:50.935Z,,,,1,0.0010920693448107,0.0492408806128631,,false,ll,5773.960999976145,response,-0.5499653915228087,0.45111851677732095,-0.4402906190236907,-0.650584166220151,0.4999999999999994,-0.45427110226606643,low,low,,ISIC_6155981.JPG,9,ISIC_0248628.JPG,480,false,hh,keypress(i),0,false,936734.8000000119,936734.3999999762,930943.727,931117.6999999881,930960.439,936571.161,4,500,9,
break,html.Screen,10_8_1,2023-11-14T18:59:50.937Z,,,,,,,,,,NaN,,,,,,,,low,low,,,,,,false,,,,false,936736.1999999881,936735.6999999881,,936735.3000000119,,936571.161,4,500,,
break_continue,html.Screen,10_8_2,2023-11-14T18:59:50.938Z,,,,,,,,,,NaN,,,,,,,,low,low,,,,,,false,,,,false,936737.1000000238,936736.6999999881,,936736.3999999762,,936571.161,4,500,,
sequence,flow.Sequence,10_8,2023-11-14T18:59:50.938Z,,,,,,,,,,5776.260999988066,completion,,,,,,,low,low,,,,,,false,,,,false,936737.3999999762,936736.6999999881,930943.727,931117.6999999881,930960.439,936571.161,4,500,,
trial,html.Screen,10_9_0,2023-11-14T18:59:55.157Z,,,,1,0.0564512008196606,-0.0205312570039753,,false,hl,4385.538999988115,response,0.5244878065717017,0.45111851677732095,-0.4402906190236907,-0.4140585357954949,0.4999999999999994,-0.45427110226606643,high,low,,ISIC_9019691.JPG,9,ISIC_0024333.JPG,297,false,lh,keypress(e),0,false,940956.8999999762,940956.6999999881,936554.6,936737.6999999881,936571.161,940812.918,4,500,10,
break,html.Screen,10_9_1,2023-11-14T18:59:55.158Z,,,,,,,,,,NaN,,,,,,,,high,low,,,,,,false,,,,false,940957.3000000119,940957.1000000238,,940957,,940812.918,4,500,,
break_continue,html.Screen,10_9_2,2023-11-14T18:59:55.158Z,,,,,,,,,,NaN,,,,,,,,high,low,,,,,,false,,,,false,940957.3999999762,940957.3000000119,,940957.3000000119,,940812.918,4,500,,
sequence,flow.Sequence,10_9,2023-11-14T18:59:55.158Z,,,,,,,,,,4386.139000011957,completion,,,,,,,high,low,,,,,,false,,,,false,940957.5,940957.3000000119,936554.6,936737.6000000238,936571.161,940812.918,4,500,,
trial,html.Screen,10_10_0,2023-11-14T18:59:59.814Z,,,,1,-0.0119001144851157,0.0063430114540141,,true,hh,4800.182000023895,response,0.5565532413037697,0.45111851677732095,-0.4402906190236907,0.6437058660162371,0.4999999999999994,-0.45427110226606643,high,high,,ISIC_0003822.JPG,9,ISIC_0026545.JPG,403,false,hh,keypress(i),0,false,945613.1999999881,945613.1000000238,940796.132,940957.6000000238,940812.918,945455.071,4,500,11,
break,html.Screen,10_10_1,2023-11-14T18:59:59.814Z,,,,,,,,,,NaN,,,,,,,,high,high,,,,,,false,,,,false,945613.6999999881,945613.6000000238,,945613.3999999762,,945455.071,4,500,,
break_continue,html.Screen,10_10_2,2023-11-14T18:59:59.815Z,,,,,,,,,,NaN,,,,,,,,high,high,,,,,,false,,,,false,945614.1999999881,945614,,945613.8999999762,,945455.071,4,500,,
sequence,flow.Sequence,10_10,2023-11-14T18:59:59.815Z,,,,,,,,,,4801.082000000053,completion,,,,,,,high,high,,,,,,false,,,,false,945614.3999999762,945614,940796.132,940957.6000000238,940812.918,945455.071,4,500,,
trial,html.Screen,10_11_0,2023-11-14T19:00:05.031Z,,,,1,-0.0447960916594447,-0.0451557856659748,,false,hl,5373.729000011925,response,0.6411642360419201,0.45111851677732095,-0.4402906190236907,-0.6247385864481547,0.4999999999999994,-0.45427110226606643,high,low,,ISIC_1379405.JPG,9,ISIC_0000467.JPG,297,false,hh,keypress(i),0,false,950828.8999999762,950828.8000000119,945438.554,945614.5,945455.071,950665.175,4,500,12,
break,html.Screen,10_11_1,2023-11-14T19:00:05.031Z,,,,,,,,,,NaN,,,,,,,,high,low,,,,,,false,,,,false,950829.3000000119,950829.1999999881,,950829.1000000238,,950665.175,4,500,,
break_continue,html.Screen,10_11_2,2023-11-14T19:00:05.031Z,,,,,,,,,,NaN,,,,,,,,high,low,,,,,,false,,,,false,950829.5,950829.3999999762,,950829.3000000119,,950665.175,4,500,,
sequence,flow.Sequence,10_11,2023-11-14T19:00:05.031Z,,,,,,,,,,5374.328999976162,completion,,,,,,,high,low,,,,,,false,,,,false,950829.6000000238,950829.3999999762,945438.554,945614.5,945455.071,950665.175,4,500,,
trial,html.Screen,10_12_0,2023-11-14T19:00:09.888Z,,,,1,-0.0447960916594447,-0.0451557856659748,,false,hh,5020.625000011874,response,0.4128645978254595,0.45111851677732095,-0.4402906190236907,0.3899614213636784,0.4999999999999994,-0.45427110226606643,high,high,,ISIC_1379405.JPG,8,ISIC_2245709.JPG,403,false,lh,keypress(e),0,false,955686.1000000238,955685.8000000119,950648.467,950829.6999999881,950665.175,955524.676,4,500,13,
break,html.Screen,10_12_1,2023-11-14T19:00:09.889Z,,,,,,,,,,NaN,,,,,,,,high,high,,,,,,false,,,,false,955687.1000000238,955686.8999999762,,955686.5,,955524.676,4,500,,
break_continue,html.Screen,10_12_2,2023-11-14T19:00:09.890Z,,,,,,,,,,NaN,,,,,,,,high,high,,,,,,false,,,,false,955688,955687.6000000238,,955687.3000000119,,955524.676,4,500,,
sequence,flow.Sequence,10_12,2023-11-14T19:00:09.890Z,,,,,,,,,,5022.425000023795,completion,,,,,,,high,high,,,,,,false,,,,false,955688.3000000119,955687.6000000238,950648.467,950829.6999999881,950665.175,955524.676,4,500,,
trial,html.Screen,10_13_0,2023-11-14T19:00:16.672Z,,,,1,0.0478761683145946,-0.012927090508672,,false,ll,6945.624000011943,response,-0.4222647277796213,0.45111851677732095,-0.4402906190236907,-0.5213336393550827,0.4999999999999994,-0.45427110226606643,low,low,,ISIC_9631669.JPG,9,ISIC_8609756.JPG,480,false,hh,keypress(i),0,false,962470.6999999881,962470.3000000119,955508.209,955688.5,955524.676,962304.464,4,500,14,
break,html.Screen,10_13_1,2023-11-14T19:00:16.674Z,,,,,,,,,,NaN,,,,,,,,low,low,,,,,,false,,,,false,962471.8999999762,962471.6000000238,,962471.1000000238,,962304.464,4,500,,
break_continue,html.Screen,10_13_2,2023-11-14T19:00:16.675Z,,,,,,,,,,NaN,,,,,,,,low,low,,,,,,false,,,,false,962472.8000000119,962472.3999999762,,962472.1000000238,,962304.464,4,500,,
sequence,flow.Sequence,10_13,2023-11-14T19:00:16.675Z,,,,,,,,,,6947.7239999761805,completion,,,,,,,low,low,,,,,,false,,,,false,962473.1999999881,962472.3999999762,955508.209,955688.5,955524.676,962304.464,4,500,,
trial,html.Screen,10_14_0,2023-11-14T19:00:23.824Z,,,,1,0.0527477970410472,0.0575970798158164,,false,ll,7317.735999988043,response,-0.5196615672079815,0.45111851677732095,-0.4402906190236907,-0.262386582103148,0.4999999999999994,-0.45427110226606643,low,low,,ISIC_0667763.JPG,9,ISIC_2275181.JPG,480,false,lh,keypress(e),0,false,969622.5,969622.1999999881,962287.991,962473.3999999762,962304.464,969451.758,4,500,15,
break,html.Screen,10_14_1,2023-11-14T19:00:23.825Z,,,,,,,,,,NaN,,,,,,,,low,low,,,,,,false,,,,false,969623.6999999881,969623.3999999762,,969623,,969451.758,4,500,,
break_continue,html.Screen,10_14_2,2023-11-14T19:00:23.826Z,,,,,,,,,,NaN,,,,,,,,low,low,,,,,,false,,,,false,969624.5,969624.1999999881,,969623.8000000119,,969451.758,4,500,,
sequence,flow.Sequence,10_14,2023-11-14T19:00:23.827Z,,,,,,,,,,7319.735999988043,completion,,,,,,,low,low,,,,,,false,,,,false,969625,969624.1999999881,962287.991,962473.3000000119,962304.464,969451.758,4,500,,
trial,html.Screen,10_15_0,2023-11-14T19:00:30.777Z,,,,1,-0.0286056110007553,-0.036125199756515,,false,hh,7122.741999999969,response,0.6121359643599122,0.45111851677732095,-0.4402906190236907,0.4153003538427417,0.4999999999999994,-0.45427110226606643,high,high,,ISIC_6535558.JPG,9,ISIC_0253516.JPG,403,false,hl,keypress(j),0,false,976574.8000000119,976574.5,969435.195,969625.3000000119,969451.758,976415.225,4,500,16,
break,html.Screen,10_15_1,2023-11-14T19:00:30.778Z,,,,,,,,,,NaN,,,,,,,,high,high,,,,,,false,,,,false,976576.3000000119,976575.8999999762,,976575.1999999881,,976415.225,4,500,,
break_continue,html.Screen,10_15_2,2023-11-14T19:00:30.779Z,,,,,,,,,,NaN,,,,,,,,high,high,,,,,,false,,,,false,976577.6000000238,976577.1000000238,,976576.6000000238,,976415.225,4,500,,
sequence,flow.Sequence,10_15,2023-11-14T19:00:30.780Z,,,,,,,,,,7125.342000023811,completion,,,,,,,high,high,,,,,,false,,,,false,976577.8999999762,976577.1000000238,969435.195,969625.1999999881,969451.758,976415.225,4,500,,
trial,html.Screen,10_16_0,2023-11-14T19:00:34.488Z,,,,1,0.0528688218207886,-0.0356788458032396,,false,ll,3871.075000011944,response,-0.6110305292191929,0.45111851677732095,-0.4402906190236907,-0.2855457053092876,0.4999999999999994,-0.45427110226606643,low,low,,ISIC_5287748.JPG,9,ISIC_4325452.JPG,480,false,hl,keypress(j),0,false,980286.6999999881,980286.3000000119,976398.79,976577.8999999762,976415.225,980122.528,4,500,17,
break,html.Screen,10_16_1,2023-11-14T19:00:34.490Z,,,,,,,,,,NaN,,,,,,,,low,low,,,,,,false,,,,false,980288,980287.6999999881,,980287.1000000238,,980122.528,4,500,,
break_continue,html.Screen,10_16_2,2023-11-14T19:00:34.491Z,,,,,,,,,,NaN,,,,,,,,low,low,,,,,,false,,,,false,980289,980288.5,,980288.3000000119,,980122.528,4,500,,
sequence,flow.Sequence,10_16,2023-11-14T19:00:34.491Z,,,,,,,,,,3873.2750000000233,completion,,,,,,,low,low,,,,,,false,,,,false,980289.1999999881,980288.5,976398.79,976577.8999999762,976415.225,980122.528,4,500,,
trial,html.Screen,10_17_0,2023-11-14T19:00:41.729Z,,,,1,-0.0367706518941078,0.0161069838272154,,false,hh,7404.0720000237925,response,0.4318931847745353,0.45111851677732095,-0.4402906190236907,0.5811670548887838,0.4999999999999994,-0.45427110226606643,high,high,,ISIC_0033419.JPG,9,ISIC_0032723.JPG,403,false,ll,keypress(f),0,false,987527.1000000238,987526.6000000238,980106.004,980289.5,980122.528,987370.148,4,500,18,
break,html.Screen,10_17_1,2023-11-14T19:00:41.730Z,,,,,,,,,,NaN,,,,,,,,high,high,,,,,,false,,,,false,987528.3000000119,987528,,987527.5,,987370.148,4,500,,
break_continue,html.Screen,10_17_2,2023-11-14T19:00:41.731Z,,,,,,,,,,NaN,,,,,,,,high,high,,,,,,false,,,,false,987529.1999999881,987528.8000000119,,987528.6000000238,,987370.148,4,500,,
sequence,flow.Sequence,10_17,2023-11-14T19:00:41.731Z,,,,,,,,,,7406.272000011872,completion,,,,,,,high,high,,,,,,false,,,,false,987529.5,987528.8000000119,980106.004,980289.5,980122.528,987370.148,4,500,,
trial,html.Screen,10_18_0,2023-11-14T19:00:49.591Z,,,,1,-0.0501343550751953,-0.0101991443736165,,true,hl,8018.652000011876,response,0.3720661229794769,0.45111851677732095,-0.4402906190236907,-0.4281296275179169,0.4999999999999994,-0.45427110226606643,high,low,,ISIC_4232761.JPG,8,ISIC_8516223.JPG,297,false,hl,keypress(j),0,false,995388.8999999762,995388.8000000119,987353.429,987529.8000000119,987370.148,995218.466,4,500,19,
break,html.Screen,10_18_1,2023-11-14T19:00:49.591Z,,,,,,,,,,NaN,,,,,,,,high,low,,,,,,false,,,,false,995389.3000000119,995389.1999999881,,995389,,995218.466,4,500,,
break_continue,html.Screen,10_18_2,2023-11-14T19:00:49.591Z,,,,,,,,,,NaN,,,,,,,,high,low,,,,,,false,,,,false,995389.5,995389.3999999762,,995389.3999999762,,995218.466,4,500,,
sequence,flow.Sequence,10_18,2023-11-14T19:00:49.591Z,,,,,,,,,,8019.251999976113,completion,,,,,,,high,low,,,,,,false,,,,false,995389.6000000238,995389.3999999762,987353.429,987529.6000000238,987370.148,995218.466,4,500,,
trial,html.Screen,10_19_0,2023-11-14T19:00:57.776Z,,,,1,0.049790040126711,-0.0195291725171472,,false,lh,8355.134000023827,response,-0.2473184179496739,0.45111851677732095,-0.4402906190236907,0.6674553170340558,0.4999999999999994,-0.45427110226606643,low,high,,ISIC_0372902.JPG,9,ISIC_0014108.JPG,266,false,ll,keypress(f),0,false,1003573.8000000119,1003573.6000000238,995202.012,995389.6999999881,995218.466,1003417.806,4,500,20,
break,html.Screen,10_19_1,2023-11-14T19:00:57.777Z,,,,,,,,,,NaN,,,,,,,,low,high,,,,,,false,,,,false,1003574.8000000119,1003574.5,,1003574.1000000238,,1003417.806,4,500,,
break_continue,html.Screen,10_19_2,2023-11-14T19:00:57.777Z,,,,,,,,,,NaN,,,,,,,,low,high,,,,,,false,,,,false,1003575.3999999762,1003575.1000000238,,1003574.8999999762,,1003417.806,4,500,,
sequence,flow.Sequence,10_19,2023-11-14T19:00:57.777Z,,,,,,,,,,8356.634000023827,completion,,,,,,,low,high,,,,,,false,,,,false,1003575.6000000238,1003575.1000000238,995202.012,995389.6000000238,995218.466,1003417.806,4,500,,
trial,html.Screen,10_20_0,2023-11-14T19:01:06.393Z,,,,1,0.0586587895724749,0.0220047273041276,,true,hl,8772.194000000018,response,0.2563332098577384,0.45111851677732095,-0.4402906190236907,-0.6059555077136856,0.4999999999999994,-0.45427110226606643,high,low,,ISIC_0028320.JPG,9,ISIC_0056534.JPG,297,false,hl,keypress(j),0,false,1012190.5,1012190,1003401.177,1003575.8000000119,1003417.806,1012034.535,4,500,21,
break,html.Screen,10_20_1,2023-11-14T19:01:06.394Z,,,,,,,,,,NaN,,,,,,,,high,low,,,,,,false,,,,false,1012191.6000000238,1012191.3000000119,,1012190.8000000119,,1012034.535,4,500,,
break_continue,html.Screen,10_20_2,2023-11-14T19:01:06.395Z,,,,,,,,,,NaN,,,,,,,,high,low,,,,,,false,,,,false,1012192.5,1012192.1999999881,,1012191.8999999762,,1012034.535,4,500,,
sequence,flow.Sequence,10_20,2023-11-14T19:01:06.396Z,,,,,,,,,,8774.393999988097,completion,,,,,,,high,low,,,,,,false,,,,false,1012192.8999999762,1012192.1999999881,1003401.177,1003575.8000000119,1003417.806,1012034.535,4,500,,
trial,html.Screen,10_21_0,2023-11-14T19:01:14.337Z,,,,1,0.0326050223870869,0.0579165897319751,,true,ll,8099.6649999880465,response,-0.3442213922872842,0.45111851677732095,-0.4402906190236907,-0.6537041369499479,0.4999999999999994,-0.45427110226606643,low,low,,ISIC_4570724.JPG,8,ISIC_5529924.JPG,480,false,ll,keypress(f),0,false,1020134.6000000238,1020134.1999999881,1012018.023,1012193.1999999881,1012034.535,1019966.615,4,500,22,
break,html.Screen,10_21_1,2023-11-14T19:01:14.339Z,,,,,,,,,,NaN,,,,,,,,low,low,,,,,,false,,,,false,1020135.6999999881,1020135.5,,1020135,,1019966.615,4,500,,
break_continue,html.Screen,10_21_2,2023-11-14T19:01:14.339Z,,,,,,,,,,NaN,,,,,,,,low,low,,,,,,false,,,,false,1020136.6000000238,1020136.1999999881,,1020136,,1019966.615,4,500,,
sequence,flow.Sequence,10_21,2023-11-14T19:01:14.340Z,,,,,,,,,,8101.6649999880465,completion,,,,,,,low,low,,,,,,false,,,,false,1020136.8999999762,1020136.1999999881,1012018.023,1012193,1012034.535,1019966.615,4,500,,
trial,html.Screen,10_22_0,2023-11-14T19:01:23.449Z,,,,1,-0.068830656047477,0.0471494209282208,,true,hh,9279.485000023851,response,0.6437432702997591,0.45111851677732095,-0.4402906190236907,0.3977987695195976,0.4999999999999994,-0.45427110226606643,high,high,,ISIC_0029982.JPG,9,ISIC_6024335.JPG,403,false,hh,keypress(i),0,false,1029246.5,1029246.1000000238,1019950.123,1020137.1000000238,1019966.615,1029084.378,4,500,23,
break,html.Screen,10_22_1,2023-11-14T19:01:23.450Z,,,,,,,,,,NaN,,,,,,,,high,high,,,,,,false,,,,false,1029247.6000000238,1029247.3000000119,,1029246.8999999762,,1029084.378,4,500,,
break_continue,html.Screen,10_22_2,2023-11-14T19:01:23.451Z,,,,,,,,,,NaN,,,,,,,,high,high,,,,,,false,,,,false,1029248.5,1029248,,1029247.8000000119,,1029084.378,4,500,,
sequence,flow.Sequence,10_22,2023-11-14T19:01:23.452Z,,,,,,,,,,9281.38500000001,completion,,,,,,,high,high,,,,,,false,,,,false,1029248.8000000119,1029248,1019950.123,1020137.1000000238,1019966.615,1029084.378,4,500,,
trial,html.Screen,10_23_0,2023-11-14T19:01:30.185Z,,,,1,0.0542893032276609,-0.0176656364422514,,true,hl,6897.922000011895,response,0.3608629424154788,0.45111851677732095,-0.4402906190236907,-0.6445181128350674,0.4999999999999994,-0.45427110226606643,high,low,,ISIC_0024516.JPG,9,ISIC_0830131.JPG,297,false,hl,keypress(j),0,false,1035982.6000000238,1035982.3000000119,1029067.795,1029249,1029084.378,1035814.102,4,500,24,
break,html.Screen,10_23_1,2023-11-14T19:01:30.187Z,,,,,,,,,,NaN,,,,,,,,high,low,,,,,,false,,,,false,1035983.8999999762,1035983.5,,1035983.1000000238,,1035814.102,4,500,,
break_continue,html.Screen,10_23_2,2023-11-14T19:01:30.188Z,,,,,,,,,,NaN,,,,,,,,high,low,,,,,,false,,,,false,1035984.6999999881,1035984.3000000119,,1035984.1000000238,,1035814.102,4,500,,
sequence,flow.Sequence,10_23,2023-11-14T19:01:30.188Z,,,,,,,,,,6899.922000011895,completion,,,,,,,high,low,,,,,,false,,,,false,1035985,1035984.3000000119,1029067.795,1029248.8999999762,1029084.378,1035814.102,4,500,,
trial,html.Screen,10_24_0,2023-11-14T19:01:35.937Z,,,,1,0.0107170641394226,-0.0596294643429623,,true,hh,5919.898000000045,response,0.3189890233595589,0.45111851677732095,-0.4402906190236907,0.4931005951422583,0.4999999999999994,-0.45427110226606643,high,high,,ISIC_0005291.JPG,8,ISIC_0033636.JPG,403,false,hh,keypress(i),0,false,1041734.3000000119,1041734,1035797.456,1035985.3000000119,1035814.102,1041575.47,4,500,25,
break,html.Screen,10_24_1,2023-11-14T19:01:35.938Z,,,,,,,,,,NaN,,,,,,,,high,high,,,,,,false,,,,false,1041735.5,1041735.1999999881,,1041734.6999999881,,1041575.47,4,500,,
break_continue,html.Screen,10_24_2,2023-11-14T19:01:35.939Z,,,,,,,,,,NaN,,,,,,,,high,high,,,,,,false,,,,false,1041736.3999999762,1041736,,1041735.8000000119,,1041575.47,4,500,,
sequence,flow.Sequence,10_24,2023-11-14T19:01:35.940Z,,,,,,,,,,5921.898000000045,completion,,,,,,,high,high,,,,,,false,,,,false,1041736.6999999881,1041736,1035797.456,1035985.1999999881,1035814.102,1041575.47,4,500,,
trial,html.Screen,10_25_0,2023-11-14T19:01:40.706Z,,,,1,0.0107170641394226,-0.0596294643429623,,false,hl,4926.929999976186,response,0.5857014611896589,0.45111851677732095,-0.4402906190236907,-0.3232109088781681,0.4999999999999994,-0.45427110226606643,high,low,,ISIC_0005291.JPG,9,ISIC_3181358.JPG,297,false,hh,keypress(i),0,false,1046502.6999999881,1046502.3999999762,1041558.806,1041736.8999999762,1041575.47,1046334.616,4,500,26,
break,html.Screen,10_25_1,2023-11-14T19:01:40.707Z,,,,,,,,,,NaN,,,,,,,,high,low,,,,,,false,,,,false,1046503.8999999762,1046503.6000000238,,1046503.1000000238,,1046334.616,4,500,,
break_continue,html.Screen,10_25_2,2023-11-14T19:01:40.708Z,,,,,,,,,,NaN,,,,,,,,high,low,,,,,,false,,,,false,1046504.6999999881,1046504.3000000119,,1046504.1000000238,,1046334.616,4,500,,
sequence,flow.Sequence,10_25,2023-11-14T19:01:40.708Z,,,,,,,,,,4928.830000011949,completion,,,,,,,high,low,,,,,,false,,,,false,1046505.1000000238,1046504.3000000119,1041558.806,1041736.8999999762,1041575.47,1046334.616,4,500,,
trial,html.Screen,10_26_0,2023-11-14T19:01:45.641Z,,,,1,-0.0367744112927588,-0.0324865661712824,,false,hh,5103.583999988041,response,0.5565532413037697,0.45111851677732095,-0.4402906190236907,0.6437058660162371,0.4999999999999994,-0.45427110226606643,high,high,,ISIC_4523565.JPG,9,ISIC_0026545.JPG,403,false,lh,keypress(e),0,false,1051438.5,1051438.199999988,1046318.079,1046505.3000000119,1046334.616,1051294.218,4,500,27,
break,html.Screen,10_26_1,2023-11-14T19:01:45.642Z,,,,,,,,,,NaN,,,,,,,,high,high,,,,,,false,,,,false,1051439.699999988,1051439.3999999762,,1051438.8999999762,,1051294.218,4,500,,
break_continue,html.Screen,10_26_2,2023-11-14T19:01:45.643Z,,,,,,,,,,NaN,,,,,,,,high,high,,,,,,false,,,,false,1051440.5,1051440.1000000238,,1051439.8999999762,,1051294.218,4,500,,
sequence,flow.Sequence,10_26,2023-11-14T19:01:45.644Z,,,,,,,,,,5105.484000023804,completion,,,,,,,high,high,,,,,,false,,,,false,1051440.800000012,1051440.1000000238,1046318.079,1046505.3000000119,1046334.616,1051294.218,4,500,,
trial,html.Screen,10_27_0,2023-11-14T19:01:50.225Z,,,,1,0.0395587463147856,-0.0645068093068572,,false,ll,4727.882000023732,response,-0.2880197874568572,0.45111851677732095,-0.4402906190236907,-0.5617312806363745,0.4999999999999994,-0.45427110226606643,low,low,,ISIC_0010807.JPG,9,ISIC_7260492.JPG,480,false,hl,keypress(j),0,false,1056022.3999999762,1056022.1000000238,1051277.746,1051441,1051294.218,1055853.163,4,500,28,
break,html.Screen,10_27_1,2023-11-14T19:01:50.226Z,,,,,,,,,,NaN,,,,,,,,low,low,,,,,,false,,,,false,1056023.6000000238,1056023.300000012,,1056022.800000012,,1055853.163,4,500,,
break_continue,html.Screen,10_27_2,2023-11-14T19:01:50.227Z,,,,,,,,,,NaN,,,,,,,,low,low,,,,,,false,,,,false,1056024.5,1056024.199999988,,1056023.800000012,,1055853.163,4,500,,
sequence,flow.Sequence,10_27,2023-11-14T19:01:50.228Z,,,,,,,,,,4729.981999987969,completion,,,,,,,low,low,,,,,,false,,,,false,1056024.800000012,1056024.199999988,1051277.746,1051441,1051294.218,1055853.163,4,500,,
trial,html.Screen,10_28_0,2023-11-14T19:01:57.498Z,,,,1,-0.0703653376600499,0.0206740478999942,,false,hl,7441.236999976216,response,0.3391218225785214,0.45111851677732095,-0.4402906190236907,-0.3831791749119306,0.4999999999999994,-0.45427110226606643,high,low,,ISIC_4899386.JPG,8,ISIC_5482805.JPG,297,false,hh,keypress(i),0,false,1063294.800000012,1063294.3999999762,1055836.338,1056025.1000000238,1055853.163,1063133.954,4,500,29,
break,html.Screen,10_28_1,2023-11-14T19:01:57.499Z,,,,,,,,,,NaN,,,,,,,,high,low,,,,,,false,,,,false,1063295.8999999762,1063295.699999988,,1063295.199999988,,1063133.954,4,500,,
break_continue,html.Screen,10_28_2,2023-11-14T19:01:57.500Z,,,,,,,,,,NaN,,,,,,,,high,low,,,,,,false,,,,false,1063296.699999988,1063296.3999999762,,1063296.1000000238,,1063133.954,4,500,,
sequence,flow.Sequence,10_28,2023-11-14T19:01:57.500Z,,,,,,,,,,7443.236999976216,completion,,,,,,,high,low,,,,,,false,,,,false,1063297.1000000238,1063296.3999999762,1055836.338,1056025,1055853.163,1063133.954,4,500,,
trial,html.Screen,10_29_0,2023-11-14T19:02:03.538Z,,,,1,0.0088741920055285,0.0058246074740588,,false,hl,6200.046000000089,response,0.3971000124907908,0.45111851677732095,-0.4402906190236907,-0.3369234574140099,0.4999999999999994,-0.45427110226606643,high,low,,ISIC_4136663.JPG,9,ISIC_5353986.JPG,297,false,hh,keypress(i),0,false,1069334.3999999762,1069334,1063117.279,1063297.300000012,1063133.954,1069179.428,4,500,30,
break,html.Screen,10_29_1,2023-11-14T19:02:03.539Z,,,,,,,,,,NaN,,,,,,,,high,low,,,,,,false,,,,false,1069335.5,1069335.199999988,,1069334.699999988,,1069179.428,4,500,,
break_continue,html.Screen,10_29_2,2023-11-14T19:02:03.540Z,,,,,,,,,,NaN,,,,,,,,high,low,,,,,,false,,,,false,1069336.3999999762,1069336,,1069335.699999988,,1069179.428,4,500,,
sequence,flow.Sequence,10_29,2023-11-14T19:02:03.541Z,,,,,,,,,,6202.046000000089,completion,,,,,,,high,low,,,,,,false,,,,false,1069336.699999988,1069336,1063117.279,1063297.199999988,1063133.954,1069179.428,4,500,,
trial,html.Screen,10_30_0,2023-11-14T19:02:11.163Z,,,,1,0.0326050223870869,0.0579165897319751,,false,lh,7779.172000023769,response,-0.2418629838383828,0.45111851677732095,-0.4402906190236907,0.444017152922251,0.4999999999999994,-0.45427110226606643,low,high,,ISIC_4570724.JPG,9,ISIC_1460932.JPG,266,false,hh,keypress(i),0,false,1076959,1076958.6000000238,1069145.839,1069336.8999999762,1069179.428,1076793.792,4,500,31,
break,html.Screen,10_30_1,2023-11-14T19:02:11.165Z,,,,,,,,,,NaN,,,,,,,,low,high,,,,,,false,,,,false,1076960.699999988,1076960.3999999762,,1076959.6000000238,,1076793.792,4,500,,
break_continue,html.Screen,10_30_2,2023-11-14T19:02:11.166Z,,,,,,,,,,NaN,,,,,,,,low,high,,,,,,false,,,,false,1076962.1000000238,1076961.5,,1076961.1000000238,,1076793.792,4,500,,
sequence,flow.Sequence,10_30,2023-11-14T19:02:11.167Z,,,,,,,,,,7782.071999999927,completion,,,,,,,low,high,,,,,,false,,,,false,1076962.6000000238,1076961.5,1069145.839,1069336.800000012,1069179.428,1076793.792,4,500,,
trial,html.Screen,10_31_0,2023-11-14T19:02:16.978Z,,,,1,0.0448994009031783,-0.0708723658092544,,false,hl,5980.308000023942,response,0.3394509028591266,0.45111851677732095,-0.4402906190236907,-0.3492322696470288,0.4999999999999994,-0.45427110226606643,high,low,,ISIC_0025238.JPG,9,ISIC_4960784.JPG,297,false,ll,keypress(f),0,false,1082774.5,1082774.1000000238,1076777.312,1076962.800000012,1076793.792,1082605.187,4,500,32,
break,html.Screen,10_31_1,2023-11-14T19:02:16.980Z,,,,,,,,,,NaN,,,,,,,,high,low,,,,,,false,,,,false,1082775.699999988,1082775.5,,1082774.8999999762,,1082605.187,4,500,,
break_continue,html.Screen,10_31_2,2023-11-14T19:02:16.980Z,,,,,,,,,,NaN,,,,,,,,high,low,,,,,,false,,,,false,1082776.6000000238,1082776.1000000238,,1082775.8999999762,,1082605.187,4,500,,
sequence,flow.Sequence,10_31,2023-11-14T19:02:16.981Z,,,,,,,,,,5982.308000023942,completion,,,,,,,high,low,,,,,,false,,,,false,1082776.800000012,1082776.1000000238,1076777.312,1076962.699999988,1076793.792,1082605.187,4,500,,
trial,html.Screen,10_32_0,2023-11-14T19:02:24.131Z,,,,1,-0.0220026381002083,0.0170756452911772,,true,hl,7321.313000000082,response,0.2969611890796633,0.45111851677732095,-0.4402906190236907,-0.6043803381500086,0.4999999999999994,-0.45427110226606643,high,low,,ISIC_5347806.JPG,9,ISIC_2266011.JPG,297,false,hl,keypress(j),0,false,1089926.800000012,1089926.5,1082588.638,1082777.1000000238,1082605.187,1089769.295,4,500,33,
break,html.Screen,10_32_1,2023-11-14T19:02:24.132Z,,,,,,,,,,NaN,,,,,,,,high,low,,,,,,false,,,,false,1089928,1089927.699999988,,1089927.199999988,,1089769.295,4,500,,
break_continue,html.Screen,10_32_2,2023-11-14T19:02:24.133Z,,,,,,,,,,NaN,,,,,,,,high,low,,,,,,false,,,,false,1089928.8999999762,1089928.5,,1089928.300000012,,1089769.295,4,500,,
sequence,flow.Sequence,10_32,2023-11-14T19:02:24.133Z,,,,,,,,,,7323.313000000082,completion,,,,,,,high,low,,,,,,false,,,,false,1089929.300000012,1089928.5,1082588.638,1082777,1082605.187,1089769.295,4,500,,
trial,html.Screen,10_33_0,2023-11-14T19:02:33.363Z,,,,1,-0.0480293506029756,-0.0744454320613987,,false,lh,9389.005000011995,response,-0.3021368515554389,0.45111851677732095,-0.4402906190236907,0.4122617873124302,0.4999999999999994,-0.45427110226606643,low,high,,ISIC_1798471.JPG,9,ISIC_6974830.JPG,266,false,ll,keypress(f),0,false,1099158.699999988,1099158.300000012,1089752.584,1089929.5,1089769.295,1099004.226,4,500,34,
break,html.Screen,10_33_1,2023-11-14T19:02:33.364Z,,,,,,,,,,NaN,,,,,,,,low,high,,,,,,false,,,,false,1099159.800000012,1099159.6000000238,,1099159.1000000238,,1099004.226,4,500,,
break_continue,html.Screen,10_33_2,2023-11-14T19:02:33.365Z,,,,,,,,,,NaN,,,,,,,,low,high,,,,,,false,,,,false,1099160.800000012,1099160.300000012,,1099160,,1099004.226,4,500,,
sequence,flow.Sequence,10_33,2023-11-14T19:02:33.365Z,,,,,,,,,,9391.005000011995,completion,,,,,,,low,high,,,,,,false,,,,false,1099161.1000000238,1099160.300000012,1089752.584,1089929.3999999762,1089769.295,1099004.226,4,500,,
trial,html.Screen,10_34_0,2023-11-14T19:02:42.667Z,,,,1,0.0448994009031783,-0.0708723658092544,,false,lh,9458.374000023818,response,-0.5956670792413399,0.45111851677732095,-0.4402906190236907,0.4843447984049845,0.4999999999999994,-0.45427110226606643,low,high,,ISIC_0025238.JPG,9,ISIC_8011058.JPG,266,false,ll,keypress(f),0,false,1108462.8999999762,1108462.6000000238,1098970.397,1099161.300000012,1099004.226,1108305.241,4,500,35,
break,html.Screen,10_34_1,2023-11-14T19:02:42.668Z,,,,,,,,,,NaN,,,,,,,,low,high,,,,,,false,,,,false,1108464.300000012,1108463.699999988,,1108463.300000012,,1108305.241,4,500,,
break_continue,html.Screen,10_34_2,2023-11-14T19:02:42.669Z,,,,,,,,,,NaN,,,,,,,,low,high,,,,,,false,,,,false,1108465.1000000238,1108464.699999988,,1108464.5,,1108305.241,4,500,,
sequence,flow.Sequence,10_34,2023-11-14T19:02:42.669Z,,,,,,,,,,9460.473999988055,completion,,,,,,,low,high,,,,,,false,,,,false,1108465.5,1108464.699999988,1098970.397,1099161.199999988,1099004.226,1108305.241,4,500,,
trial,html.Screen,10_35_0,2023-11-14T19:02:47.539Z,,,,1,-0.0700576547090477,0.0026956749740767,,true,lh,5029.158999976236,response,-0.3385744811191438,0.45111851677732095,-0.4402906190236907,0.591089198543646,0.4999999999999994,-0.45427110226606643,low,high,,ISIC_7212271.JPG,8,ISIC_0032204.JPG,266,false,lh,keypress(e),0,false,1113334.699999988,1113334.3999999762,1108288.549,1108465.699999988,1108305.241,1113164.594,4,500,36,
break,html.Screen,10_35_1,2023-11-14T19:02:47.540Z,,,,,,,,,,NaN,,,,,,,,low,high,,,,,,false,,,,false,1113335.8999999762,1113335.699999988,,1113335.199999988,,1113164.594,4,500,,
break_continue,html.Screen,10_35_2,2023-11-14T19:02:47.541Z,,,,,,,,,,NaN,,,,,,,,low,high,,,,,,false,,,,false,1113336.800000012,1113336.3999999762,,1113336.1000000238,,1113164.594,4,500,,
sequence,flow.Sequence,10_35,2023-11-14T19:02:47.541Z,,,,,,,,,,5031.158999976236,completion,,,,,,,low,high,,,,,,false,,,,false,1113337.1000000238,1113336.3999999762,1108288.549,1108465.6000000238,1108305.241,1113164.594,4,500,,
trial,html.Screen,10_36_0,2023-11-14T19:02:55.097Z,,,,1,-0.0700576547090477,0.0026956749740767,,false,ll,7728.105999988038,response,-0.5554094298225696,0.45111851677732095,-0.4402906190236907,-0.5372562476192702,0.4999999999999994,-0.45427110226606643,low,low,,ISIC_7212271.JPG,8,ISIC_4249893.JPG,480,false,lh,keypress(e),0,false,1120892.800000012,1120892.699999988,1113148.054,1113337.300000012,1113164.594,1120729.431,4,500,37,
break,html.Screen,10_36_1,2023-11-14T19:02:55.097Z,,,,,,,,,,NaN,,,,,,,,low,low,,,,,,false,,,,false,1120893.1000000238,1120893.1000000238,,1120892.8999999762,,1120729.431,4,500,,
break_continue,html.Screen,10_36_2,2023-11-14T19:02:55.097Z,,,,,,,,,,NaN,,,,,,,,low,low,,,,,,false,,,,false,1120893.300000012,1120893.300000012,,1120893.300000012,,1120729.431,4,500,,
sequence,flow.Sequence,10_36,2023-11-14T19:02:55.097Z,,,,,,,,,,7728.70600001188,completion,,,,,,,low,low,,,,,,false,,,,false,1120893.3999999762,1120893.300000012,1113148.054,1113337.199999988,1113164.594,1120729.431,4,500,,
trial,html.Screen,10_37_0,2023-11-14T19:02:58.770Z,,,,1,-0.0220026381002083,0.0170756452911772,,false,lh,3836.669000023743,response,-0.3360956233323553,0.45111851677732095,-0.4402906190236907,0.5407369291153603,0.4999999999999994,-0.45427110226606643,low,high,,ISIC_5347806.JPG,9,ISIC_3708739.JPG,266,false,ll,keypress(f),0,false,1124566.5,1124566.1000000238,1120712.775,1120893.5,1120729.431,1124403.101,4,500,38,
break,html.Screen,10_37_1,2023-11-14T19:02:58.771Z,,,,,,,,,,NaN,,,,,,,,low,high,,,,,,false,,,,false,1124567.5,1124567.300000012,,1124566.800000012,,1124403.101,4,500,,
break_continue,html.Screen,10_37_2,2023-11-14T19:02:58.772Z,,,,,,,,,,NaN,,,,,,,,low,high,,,,,,false,,,,false,1124568.3999999762,1124567.8999999762,,1124567.699999988,,1124403.101,4,500,,
sequence,flow.Sequence,10_37,2023-11-14T19:02:58.772Z,,,,,,,,,,3838.4689999760594,completion,,,,,,,low,high,,,,,,false,,,,false,1124568.6000000238,1124567.8999999762,1120712.775,1120893.3999999762,1120729.431,1124403.101,4,500,,
trial,html.Screen,10_38_0,2023-11-14T19:03:03.090Z,,,,1,0.0146597765042814,0.06222227493177,,false,ll,4482.199000011897,response,-0.394404955056435,0.45111851677732095,-0.4402906190236907,-0.6449940817916109,0.4999999999999994,-0.45427110226606643,low,low,,ISIC_5982769.JPG,9,ISIC_0010651.JPG,480,false,lh,keypress(e),0,false,1128885.5,1128885.300000012,1124386.611,1124568.800000012,1124403.101,1128728.402,4,500,39,
break,html.Screen,10_38_1,2023-11-14T19:03:03.091Z,,,,,,,,,,NaN,,,,,,,,low,low,,,,,,false,,,,false,1128886.199999988,1128886,,1128885.699999988,,1128728.402,4,500,,
break_continue,html.Screen,10_38_2,2023-11-14T19:03:03.091Z,,,,,,,,,,NaN,,,,,,,,low,low,,,,,,false,,,,false,1128886.699999988,1128886.3999999762,,1128886.300000012,,1128728.402,4,500,,
sequence,flow.Sequence,10_38,2023-11-14T19:03:03.092Z,,,,,,,,,,4483.298999976134,completion,,,,,,,low,low,,,,,,false,,,,false,1128886.800000012,1128886.3999999762,1124386.611,1124568.800000012,1124403.101,1128728.402,4,500,,
trial,html.Screen,10_39_0,2023-11-14T19:03:06.483Z,,,,1,0.0586587895724749,0.0220047273041276,,false,ll,3549.9979999761563,response,-0.3489463778353815,0.45111851677732095,-0.4402906190236907,-0.3831460493142255,0.4999999999999994,-0.45427110226606643,low,low,,ISIC_0028320.JPG,8,ISIC_0030725.JPG,480,false,lh,keypress(e),0,false,1132278.699999988,1132278.3999999762,1128711.671,1128887,1128728.402,1132118.322,4,500,40,
break,html.Screen,10_39_1,2023-11-14T19:03:06.485Z,,,,,,,,,,NaN,,,,,,,,low,low,,,,,,false,,,,false,1132279.800000012,1132279.5,,1132279.199999988,,1132118.322,4,500,,
break_continue,html.Screen,10_39_2,2023-11-14T19:03:06.485Z,,,,,,,,,,NaN,,,,,,,,low,low,,,,,,false,,,,false,1132280.699999988,1132280.300000012,,1132280,,1132118.322,4,500,,
sequence,flow.Sequence,10_39,2023-11-14T19:03:06.486Z,,,,,,,,,,3551.898000011919,completion,,,,,,,low,low,,,,,,false,,,,false,1132281,1132280.300000012,1128711.671,1128887,1128728.402,1132118.322,4,500,,
trial,html.Screen,10_40_0,2023-11-14T19:03:13.459Z,,,,1,-0.0367706518941078,0.0161069838272154,,false,hh,7135.978000011994,response,0.513916672171208,0.45111851677732095,-0.4402906190236907,0.3523374260620526,0.4999999999999994,-0.45427110226606643,high,high,,ISIC_0033419.JPG,9,ISIC_0010765.JPG,403,false,hl,keypress(j),0,false,1139254.6000000238,1139254.300000012,1132101.619,1132281.300000012,1132118.322,1139098.57,4,500,41,
break,html.Screen,10_40_1,2023-11-14T19:03:13.461Z,,,,,,,,,,NaN,,,,,,,,high,high,,,,,,false,,,,false,1139255.800000012,1139255.6000000238,,1139255,,1139098.57,4,500,,
break_continue,html.Screen,10_40_2,2023-11-14T19:03:13.461Z,,,,,,,,,,NaN,,,,,,,,high,high,,,,,,false,,,,false,1139256.800000012,1139256.3999999762,,1139256.1000000238,,1139098.57,4,500,,
sequence,flow.Sequence,10_40,2023-11-14T19:03:13.462Z,,,,,,,,,,7138.077999976231,completion,,,,,,,high,high,,,,,,false,,,,false,1139257.1000000238,1139256.3999999762,1132101.619,1132281.199999988,1132118.322,1139098.57,4,500,,
trial,html.Screen,10_41_0,2023-11-14T19:03:22.500Z,,,,1,-0.024731486864197,-0.0504232274546553,,true,ll,9195.929999999935,response,-0.5954588577438598,0.45111851677732095,-0.4402906190236907,-0.5859407896003064,0.4999999999999994,-0.45427110226606643,low,low,,ISIC_4782878.JPG,9,ISIC_0197584.JPG,480,false,ll,keypress(f),0,false,1148294.800000012,1148294.5,1139081.84,1139257.300000012,1139098.57,1148132.618,4,500,42,
break,html.Screen,10_41_1,2023-11-14T19:03:22.501Z,,,,,,,,,,NaN,,,,,,,,low,low,,,,,,false,,,,false,1148296,1148295.699999988,,1148295.300000012,,1148132.618,4,500,,
break_continue,html.Screen,10_41_2,2023-11-14T19:03:22.502Z,,,,,,,,,,NaN,,,,,,,,low,low,,,,,,false,,,,false,1148296.800000012,1148296.5,,1148296.199999988,,1148132.618,4,500,,
sequence,flow.Sequence,10_41,2023-11-14T19:03:22.502Z,,,,,,,,,,9197.929999999935,completion,,,,,,,low,low,,,,,,false,,,,false,1148297.1000000238,1148296.5,1139081.84,1139257.300000012,1139098.57,1148132.618,4,500,,
trial,html.Screen,10_42_0,2023-11-14T19:03:28.329Z,,,,1,0.0497314815986203,-0.0303374618795786,,false,hl,5991.982000023825,response,0.3920952722281022,0.45111851677732095,-0.4402906190236907,-0.467870452146819,0.4999999999999994,-0.45427110226606643,high,low,,ISIC_6023504.JPG,9,ISIC_0008621.JPG,297,false,ll,keypress(f),0,false,1154124.699999988,1154124.6000000238,1148116.061,1148297.3999999762,1148132.618,1153960.614,4,500,43,
break,html.Screen,10_42_1,2023-11-14T19:03:28.330Z,,,,,,,,,,NaN,,,,,,,,high,low,,,,,,false,,,,false,1154125.1000000238,1154125,,1154124.800000012,,1153960.614,4,500,,
break_continue,html.Screen,10_42_2,2023-11-14T19:03:28.330Z,,,,,,,,,,NaN,,,,,,,,high,low,,,,,,false,,,,false,1154125.300000012,1154125.199999988,,1154125.1000000238,,1153960.614,4,500,,
sequence,flow.Sequence,10_42,2023-11-14T19:03:28.330Z,,,,,,,,,,5992.581999988062,completion,,,,,,,high,low,,,,,,false,,,,false,1154125.300000012,1154125.199999988,1148116.061,1148297.300000012,1148132.618,1153960.614,4,500,,
trial,html.Screen,10_43_0,2023-11-14T19:03:33.133Z,,,,1,0.0409660561823769,-0.039283578935498,,false,hl,4966.88599999994,response,0.3270190082905083,0.45111851677732095,-0.4402906190236907,-0.4602348992424154,0.4999999999999994,-0.45427110226606643,high,low,,ISIC_0479264.JPG,9,ISIC_2736880.JPG,297,false,lh,keypress(e),0,false,1158927.8999999762,1158927.5,1153943.91,1154125.3999999762,1153960.614,1158770.008,4,500,44,
break,html.Screen,10_43_1,2023-11-14T19:03:33.134Z,,,,,,,,,,NaN,,,,,,,,high,low,,,,,,false,,,,false,1158929.1000000238,1158928.800000012,,1158928.300000012,,1158770.008,4,500,,
break_continue,html.Screen,10_43_2,2023-11-14T19:03:33.135Z,,,,,,,,,,NaN,,,,,,,,high,low,,,,,,false,,,,false,1158930,1158929.6000000238,,1158929.3999999762,,1158770.008,4,500,,
sequence,flow.Sequence,10_43,2023-11-14T19:03:33.135Z,,,,,,,,,,4968.986000023782,completion,,,,,,,high,low,,,,,,false,,,,false,1158930.300000012,1158929.6000000238,1153943.91,1154125.3999999762,1153960.614,1158770.008,4,500,,
trial,html.Screen,10_44_0,2023-11-14T19:03:38.027Z,,,,1,0.0109416414475118,0.005246498750811,,true,ll,5051.992000000086,response,-0.569352032186896,0.45111851677732095,-0.4402906190236907,-0.5047245495935259,0.4999999999999994,-0.45427110226606643,low,low,,ISIC_0064279.JPG,9,ISIC_0026231.JPG,480,false,ll,keypress(f),0,false,1163822.300000012,1163822,1158753.451,1158930.5,1158770.008,1163679.479,4,500,45,
break,html.Screen,10_44_1,2023-11-14T19:03:38.028Z,,,,,,,,,,NaN,,,,,,,,low,low,,,,,,false,,,,false,1163823.3999999762,1163823.1000000238,,1163822.699999988,,1163679.479,4,500,,
break_continue,html.Screen,10_44_2,2023-11-14T19:03:38.029Z,,,,,,,,,,NaN,,,,,,,,low,low,,,,,,false,,,,false,1163824.300000012,1163823.8999999762,,1163823.699999988,,1163679.479,4,500,,
sequence,flow.Sequence,10_44,2023-11-14T19:03:38.029Z,,,,,,,,,,5053.891999976244,completion,,,,,,,low,low,,,,,,false,,,,false,1163824.6000000238,1163823.8999999762,1158753.451,1158930.3999999762,1158770.008,1163679.479,4,500,,
trial,html.Screen,10_45_0,2023-11-14T19:03:43.411Z,,,,1,-0.0105349256029223,0.0723574625425557,,false,hh,5527.02099999995,response,0.2570846805912279,0.45111851677732095,-0.4402906190236907,0.4606625471268202,0.4999999999999994,-0.45427110226606643,high,high,,ISIC_0058998.JPG,9,ISIC_0031015.JPG,403,false,lh,keypress(e),0,false,1169206.699999988,1169206.5,1163662.951,1163824.800000012,1163679.479,1169039.959,4,500,46,
break,html.Screen,10_45_1,2023-11-14T19:03:43.413Z,,,,,,,,,,NaN,,,,,,,,high,high,,,,,,false,,,,false,1169208,1169207.6000000238,,1169207.199999988,,1169039.959,4,500,,
break_continue,html.Screen,10_45_2,2023-11-14T19:03:43.414Z,,,,,,,,,,NaN,,,,,,,,high,high,,,,,,false,,,,false,1169208.8999999762,1169208.3999999762,,1169208.1000000238,,1169039.959,4,500,,
sequence,flow.Sequence,10_45,2023-11-14T19:03:43.414Z,,,,,,,,,,5528.920999976108,completion,,,,,,,high,high,,,,,,false,,,,false,1169209.199999988,1169208.3999999762,1163662.951,1163824.699999988,1163679.479,1169039.959,4,500,,
trial,html.Screen,10_46_0,2023-11-14T19:03:48.443Z,,,,1,0.0577614292269216,0.035892232596533,,false,hh,5198.14100002381,response,0.4796670752949329,0.45111851677732095,-0.4402906190236907,0.5472320041799321,0.4999999999999994,-0.45427110226606643,high,high,,ISIC_8363485.JPG,9,ISIC_0000346.JPG,403,false,lh,keypress(e),0,false,1174238.5,1174238.1000000238,1169023.433,1169209.3999999762,1169039.959,1174083.437,4,500,47,
break,html.Screen,10_46_1,2023-11-14T19:03:48.444Z,,,,,,,,,,NaN,,,,,,,,high,high,,,,,,false,,,,false,1174239.6000000238,1174239.3999999762,,1174238.8999999762,,1174083.437,4,500,,
break_continue,html.Screen,10_46_2,2023-11-14T19:03:48.445Z,,,,,,,,,,NaN,,,,,,,,high,high,,,,,,false,,,,false,1174240.5,1174240,,1174239.800000012,,1174083.437,4,500,,
sequence,flow.Sequence,10_46,2023-11-14T19:03:48.445Z,,,,,,,,,,5200.040999999968,completion,,,,,,,high,high,,,,,,false,,,,false,1174240.699999988,1174240,1169023.433,1169209.300000012,1169039.959,1174083.437,4,500,,
trial,html.Screen,10_47_0,2023-11-14T19:03:55.162Z,,,,1,0.0497314815986203,-0.0303374618795786,,false,ll,6873.563000000082,response,-0.5269498201631467,0.45111851677732095,-0.4402906190236907,-0.3877640509963339,0.4999999999999994,-0.45427110226606643,low,low,,ISIC_6023504.JPG,9,ISIC_1782545.JPG,480,false,lh,keypress(e),0,false,1180957.199999988,1180957,1174049.879,1174241,1174083.437,1180796.133,4,500,48,
break,html.Screen,10_47_1,2023-11-14T19:03:55.162Z,,,,,,,,,,NaN,,,,,,,,low,low,,,,,,false,,,,false,1180957.699999988,1180957.5,,1180957.300000012,,1180796.133,4,500,,
break_continue,html.Screen,10_47_2,2023-11-14T19:03:55.163Z,,,,,,,,,,NaN,,,,,,,,low,low,,,,,,false,,,,false,1180958,1180957.8999999762,,1180957.800000012,,1180796.133,4,500,,
sequence,flow.Sequence,10_47,2023-11-14T19:03:55.163Z,,,,,,,,,,6874.46299997624,completion,,,,,,,low,low,,,,,,false,,,,false,1180958.199999988,1180957.8999999762,1174049.879,1174240.8999999762,1174083.437,1180796.133,4,500,,
trial,html.Screen,10_48_0,2023-11-14T19:04:03.490Z,,,,1,0.044991036470624,-0.0185124638005965,,false,hl,8488.667000012007,response,0.2522918129978833,0.45111851677732095,-0.4402906190236907,-0.4105451293646952,0.4999999999999994,-0.45427110226606643,high,low,,ISIC_2457859.JPG,9,ISIC_1860707.JPG,297,false,ll,keypress(f),0,false,1189284.8999999762,1189284.800000012,1180779.574,1180958.199999988,1180796.133,1189129.308,4,500,49,
break,html.Screen,10_48_1,2023-11-14T19:04:03.491Z,,,,,,,,,,NaN,,,,,,,,high,low,,,,,,false,,,,false,1189285.3999999762,1189285.300000012,,1189285.1000000238,,1189129.308,4,500,,
break_continue,html.Screen,10_48_2,2023-11-14T19:04:03.491Z,,,,,,,,,,NaN,,,,,,,,high,low,,,,,,false,,,,false,1189285.800000012,1189285.6000000238,,1189285.3999999762,,1189129.308,4,500,,
sequence,flow.Sequence,10_48,2023-11-14T19:04:03.491Z,,,,,,,,,,8489.467000023928,completion,,,,,,,high,low,,,,,,false,,,,false,1189285.800000012,1189285.6000000238,1180779.574,1180958.199999988,1180796.133,1189129.308,4,500,,
trial,html.Screen,10_49_0,2023-11-14T19:04:07.996Z,,,,1,-0.0544036313884697,-0.0564516462775647,,false,hh,4661.192000000039,response,0.3471474410220251,0.45111851677732095,-0.4402906190236907,0.3135960320882389,0.4999999999999994,-0.45427110226606643,high,high,,ISIC_7441957.JPG,8,ISIC_1050000.JPG,403,false,lh,keypress(e),0,false,1193790.800000012,1193790.5,1189095.674,1189286,1189129.308,1193621.095,4,500,50,
break,html.Screen,10_49_1,2023-11-14T19:04:07.997Z,,,,,,,,,,NaN,,,,,,,,high,high,,,,,,false,,,,false,1193791.8999999762,1193791.699999988,,1193791.199999988,,1193621.095,4,500,,
