sender,sender_type,sender_id,timestamp,meta,,age,blockNo,c1,c2,condition,correct,correctResponse,duration,ended_on,f1,f1_high,f1_low,f2,f2_high,f2_low,feature_level1,feature_level2,gender,img_left,img_reveal,img_right,n_target_images,practice,response,response_action,selection_duration,staircase,time_commit,time_end,time_render,time_run,time_show,time_switch,total_blocks,total_trials,trialNo,url
informed_consent,html.Screen,0,2023-11-14T20:42:47.554Z,"{""labjs_version"":""20.2.4"",""labjs_build"":{""flavor"":""development"",""commit"":""f5b4a49f956347addd546a832a3327688c2c0fef""},""location"":""https://labjs.felixhenninger.com/api/labjs_preview/index.html"",""userAgent"":""Mozilla/5.0 (Windows NT 10.0; Win64; x64) AppleWebKit/537.36 (KHTML, like Gecko) Chrome/119.0.0.0 Safari/537.36"",""platform"":""Win32"",""language"":""en-US"",""locale"":""en-US"",""timeZone"":""America/Chicago"",""timezoneOffset"":360,""screen_width"":1680,""screen_height"":1050,""scroll_width"":825,""scroll_height"":888,""window_innerWidth"":825,""window_innerHeight"":936,""devicePixelRatio"":1}",,,,,,,,,76312.75299997616,response,,,,,,,,,,,,,,,consent,click button,,,76937,76928.39999997616,598.943,593.0999999642372,615.647,76930.719,,,,{}
Demography form,html.Form,1,2023-11-14T20:43:09.009Z,,,18,,,,,,,21461.98099998808,form submission,,,,,,,,,female,,,,,,,,,,98392.79999995232,98392.69999998808,76914.206,76937.19999998808,76930.719,98389.147,,,,
Welcome,html.Screen,2,2023-11-14T20:43:50.779Z,,,,,,,"[""bor"",""col""]",,,41771.05299998808,response,,,,,,,,,,,,,,,continue,click button,,,140160.69999998808,140160.19999998808,98372.534,98393,98389.147,140187.335,,,,
demo_instructions,html.Screen,3,2023-11-14T20:44:08.955Z,,,,,,,,,,18148.864999988087,response,,,,,,,,,,,,,,,continue,click button,,,158336.69999998808,158336.19999998808,140170.573,140160.79999995232,140187.335,158355.768,,,,
trial,html.Screen,4_0_0,2023-11-14T20:44:16.226Z,,,,0,0.7079689798840642,-0.9053957126199562,,false,lh,7250.531999952305,response,-0.930804711032185,0.8999999999999997,-0.8999999999999997,0.7294067991476295,0.8999999999999997,-0.8999999999999997,low,high,,ISIC_0058863.JPG,,ISIC_5067317.JPG,29,true,hh,keypress(i),100,false,165606.79999995232,165606.29999995232,158322.567,158336.89999997616,158355.768,165636.622,1,16,1,
sequence,flow.Sequence,4_0,2023-11-14T20:44:16.250Z,,,,,,,,,,7250.531999952305,completion,,,,,,,low,high,,,,,,true,,,,false,165631,165606.29999995232,158322.567,158336.89999997616,158355.768,165636.622,1,16,,
trial,html.Screen,4_1_0,2023-11-14T20:44:25.825Z,,,,0,0.7856143618373893,-1.0273608829432213,,true,lh,9568.977999964234,response,-0.9237241143561707,0.8999999999999997,-0.8999999999999997,0.7102087839245512,0.8999999999999997,-0.8999999999999997,low,high,,ISIC_9303849.JPG,,ISIC_0058661.JPG,29,true,lh,keypress(e),100,false,175206.5,175205.59999996424,165619.93,165631.19999998808,165636.622,175221.926,1,16,2,
sequence,flow.Sequence,4_1,2023-11-14T20:44:25.826Z,,,,,,,,,,9568.977999964234,completion,,,,,,,low,high,,,,,,true,,,,false,175207.19999998808,175205.59999996424,165619.93,165631.09999996424,165636.622,175221.926,1,16,,
trial,html.Screen,4_2_0,2023-11-14T20:44:35.632Z,,,,0,0.9752130063130028,-0.7248550908059443,,true,lh,9790.273999988072,response,-0.930804711032185,0.8999999999999997,-0.8999999999999997,0.7294067991476295,0.8999999999999997,-0.8999999999999997,low,high,,ISIC_5190484.JPG,,ISIC_5067317.JPG,29,true,lh,keypress(e),100,false,185012.89999997616,185012.19999998808,175205.254,175207.69999998808,175221.926,185041.29,1,16,3,
sequence,flow.Sequence,4_2,2023-11-14T20:44:35.632Z,,,,,,,,,,9790.273999988072,completion,,,,,,,low,high,,,,,,true,,,,false,185013.79999995232,185012.19999998808,175205.254,175207.5,175221.926,185041.29,1,16,,
trial,html.Screen,4_3_0,2023-11-14T20:44:41.199Z,,,,0,0.7396001261916139,-0.9901017340796716,,true,lh,5538.10999997615,response,-1.0329549150636406,0.8999999999999997,-0.8999999999999997,1.01584100839286,0.8999999999999997,-0.8999999999999997,low,high,,ISIC_8679617.JPG,,ISIC_0054670.JPG,29,true,lh,keypress(e),100,false,190580.09999996424,190579.39999997616,185024.362,185014.19999998808,185041.29,190602.038,1,16,4,
sequence,flow.Sequence,4_3,2023-11-14T20:44:41.200Z,,,,,,,,,,5538.10999997615,completion,,,,,,,low,high,,,,,,true,,,,false,190580.89999997616,190579.39999997616,185024.362,185014,185041.29,190602.038,1,16,,
trial,html.Screen,4_4_0,2023-11-14T20:44:49.087Z,,,,0,0.9782611937027104,0.7397456600694207,,true,ll,7864.061999964237,response,-0.8405707669205109,0.8999999999999997,-0.8999999999999997,-0.7425323414439162,0.8999999999999997,-0.8999999999999997,low,low,,ISIC_0010131.JPG,,ISIC_4272317.JPG,169,true,ll,keypress(f),100,false,198466.69999998808,198466.09999996424,190585.202,190581.29999995232,190602.038,198483.772,1,16,5,
sequence,flow.Sequence,4_4,2023-11-14T20:44:49.088Z,,,,,,,,,,7864.061999964237,completion,,,,,,,low,low,,,,,,true,,,,false,198467.59999996424,198466.09999996424,190585.202,190581.09999996424,190602.038,198483.772,1,16,,
trial,html.Screen,4_5_0,2023-11-14T20:44:58.110Z,,,,0,0.8161945839077875,0.8847883487572158,,true,ll,9004.927999988082,response,-0.824124127424315,0.8999999999999997,-0.8999999999999997,-0.8170596140441219,0.8999999999999997,-0.8999999999999997,low,low,,ISIC_0058496.JPG,,ISIC_5909451.JPG,169,true,ll,keypress(f),100,false,207489.39999997616,207488.69999998808,198467.192,198467.89999997616,198483.772,207518.109,1,16,6,
sequence,flow.Sequence,4_5,2023-11-14T20:44:58.111Z,,,,,,,,,,9004.927999988082,completion,,,,,,,low,low,,,,,,true,,,,false,207490.19999998808,207488.69999998808,198467.192,198467.89999997616,198483.772,207518.109,1,16,,
trial,html.Screen,4_6_0,2023-11-14T20:45:01.308Z,,,,0,0.7960221520457809,0.9397522689480928,,true,ll,3169.0909999880823,response,-0.70951327138006,0.8999999999999997,-0.8999999999999997,-0.7652124263954667,0.8999999999999997,-0.8999999999999997,low,low,,ISIC_1200192.JPG,,ISIC_2415803.JPG,169,true,ll,keypress(f),100,false,210687.59999996424,210687.19999998808,207501.444,207490.5,207518.109,210707.834,1,16,7,
sequence,flow.Sequence,4_6,2023-11-14T20:45:01.309Z,,,,,,,,,,3169.0909999880823,completion,,,,,,,low,low,,,,,,true,,,,false,210688.19999998808,210687.19999998808,207501.444,207490.39999997616,207518.109,210707.834,1,16,,
trial,html.Screen,4_7_0,2023-11-14T20:45:04.871Z,,,,0,0.9602936946729488,0.747034716272411,,true,ll,3541.9659999523137,response,-0.7065976395679049,0.8999999999999997,-0.8999999999999997,-1.0943622551904992,0.8999999999999997,-0.8999999999999997,low,low,,ISIC_0205127.JPG,,ISIC_6489993.JPG,169,true,ll,keypress(f),100,false,214250.29999995232,214249.79999995232,210690.968,210688.39999997616,210707.834,214264.565,1,16,8,
sequence,flow.Sequence,4_7,2023-11-14T20:45:04.872Z,,,,,,,,,,3541.9659999523137,completion,,,,,,,low,low,,,,,,true,,,,false,214250.89999997616,214249.79999995232,210690.968,210688.39999997616,210707.834,214264.565,1,16,,
trial,html.Screen,4_8_0,2023-11-14T20:45:12.086Z,,,,0,-0.7088606387153258,0.948610930521224,,true,hl,7200.334999976156,response,0.9752130063130028,0.8999999999999997,-0.8999999999999997,-0.7248550908059443,0.8999999999999997,-0.8999999999999997,high,low,,ISIC_0026293.JPG,,ISIC_5190484.JPG,43,true,hl,keypress(j),100,false,221465.39999997616,221464.89999997616,214248.09,214251.19999998808,214264.565,221495.325,1,16,9,
sequence,flow.Sequence,4_8,2023-11-14T20:45:12.087Z,,,,,,,,,,7200.334999976156,completion,,,,,,,high,low,,,,,,true,,,,false,221466.09999996424,221464.89999997616,214248.09,214251.19999998808,214264.565,221495.325,1,16,,
trial,html.Screen,4_9_0,2023-11-14T20:45:18.324Z,,,,0,-0.8513427412482127,0.9295303568095064,,true,hl,6207.374999988067,response,0.7016609136175869,0.8999999999999997,-0.8999999999999997,-0.8694041951927121,0.8999999999999997,-0.8999999999999997,high,low,,ISIC_0034164.JPG,,ISIC_0897876.JPG,43,true,hl,keypress(j),100,false,227703,227702.69999998808,221478.595,221466.29999995232,221495.325,227724.188,1,16,10,
sequence,flow.Sequence,4_9,2023-11-14T20:45:18.324Z,,,,,,,,,,6207.374999988067,completion,,,,,,,high,low,,,,,,true,,,,false,227703.59999996424,227702.69999998808,221478.595,221466.29999995232,221495.325,227724.188,1,16,,
trial,html.Screen,4_10_0,2023-11-14T20:45:23.213Z,,,,0,-0.8513427412482127,0.9295303568095064,,true,hl,4867.511999988084,response,1.0116417541846066,0.8999999999999997,-0.8999999999999997,-1.033442916947398,0.8999999999999997,-0.8999999999999997,high,low,,ISIC_0034164.JPG,,ISIC_0031389.JPG,43,true,hl,keypress(j),100,false,232592.09999996424,232591.69999998808,227707.392,227703.79999995232,227724.188,232617.091,1,16,11,
sequence,flow.Sequence,4_10,2023-11-14T20:45:23.214Z,,,,,,,,,,4867.511999988084,completion,,,,,,,high,low,,,,,,true,,,,false,232592.89999997616,232591.69999998808,227707.392,227703.79999995232,227724.188,232617.091,1,16,,
trial,html.Screen,4_11_0,2023-11-14T20:45:28.635Z,,,,0,-1.075512775389519,1.0454702683049502,,true,hl,5396.409000000014,response,0.9198276163642348,0.8999999999999997,-0.8999999999999997,-0.7754915110667046,0.8999999999999997,-0.8999999999999997,high,low,,ISIC_0033603.JPG,,ISIC_7840728.JPG,43,true,hl,keypress(j),100,false,238013.89999997616,238013.5,232600.237,232593.09999996424,232617.091,238044.189,1,16,12,
sequence,flow.Sequence,4_11,2023-11-14T20:45:28.635Z,,,,,,,,,,5396.409000000014,completion,,,,,,,high,low,,,,,,true,,,,false,238014.39999997616,238013.5,232600.237,232593.09999996424,232617.091,238044.189,1,16,,
trial,html.Screen,4_12_0,2023-11-14T20:45:34.901Z,,,,0,-0.9876902672925608,-0.7493151990739595,,true,hh,6235.410999964224,response,0.7648337515968654,0.8999999999999997,-0.8999999999999997,1.0074582761138169,0.8999999999999997,-0.8999999999999997,high,high,,ISIC_2259190.JPG,,ISIC_0011422.JPG,184,true,hh,keypress(i),100,false,244280,244279.59999996424,238027.62,238014.69999998808,238044.189,244306.468,1,16,13,
sequence,flow.Sequence,4_12,2023-11-14T20:45:34.901Z,,,,,,,,,,6235.410999964224,completion,,,,,,,high,high,,,,,,true,,,,false,244280.69999998808,244279.59999996424,238027.62,238014.59999996424,238044.189,244306.468,1,16,,
trial,html.Screen,4_13_0,2023-11-14T20:45:40.771Z,,,,0,-0.9802565668865412,-0.7107803735101691,,true,hh,5843.5320000000065,response,0.9783041799594244,0.8999999999999997,-0.8999999999999997,0.7939492667783195,0.8999999999999997,-0.8999999999999997,high,high,,ISIC_0024683.JPG,,ISIC_0060446.JPG,184,true,hh,keypress(i),100,false,250150.5,250150,244289.633,244281,244306.468,250167.739,1,16,14,
sequence,flow.Sequence,4_13,2023-11-14T20:45:40.772Z,,,,,,,,,,5843.5320000000065,completion,,,,,,,high,high,,,,,,true,,,,false,250151.39999997616,250150,244289.633,244280.89999997616,244306.468,250167.739,1,16,,
trial,html.Screen,4_14_0,2023-11-14T20:45:44.128Z,,,,0,-0.7667753928027862,-0.7242189504165079,,true,hh,3339.2609999999986,response,0.9619672413799648,0.8999999999999997,-0.8999999999999997,1.000847348662667,0.8999999999999997,-0.8999999999999997,high,high,,ISIC_4298624.JPG,,ISIC_0067205.JPG,184,true,hh,keypress(i),100,false,253507.19999998808,253507,250151.047,250151.89999997616,250167.739,253524.25,1,16,15,
sequence,flow.Sequence,4_14,2023-11-14T20:45:44.128Z,,,,,,,,,,3339.2609999999986,completion,,,,,,,high,high,,,,,,true,,,,false,253507.69999998808,253507,250151.047,250151.89999997616,250167.739,253524.25,1,16,,
trial,html.Screen,4_15_0,2023-11-14T20:45:47.161Z,,,,0,-0.7420119067987634,-0.9245836900688724,,true,hh,3014.349999964237,response,0.7497331641141682,0.8999999999999997,-0.8999999999999997,0.9543531879821028,0.8999999999999997,-0.8999999999999997,high,high,,ISIC_4130167.JPG,,ISIC_0067801.JPG,184,true,hh,keypress(i),100,false,256538.89999997616,256538.59999996424,253507.55,253507.89999997616,253524.25,256563.4,1,16,16,
sequence,flow.Sequence,4_15,2023-11-14T20:45:47.161Z,,,,,,,,,,3014.349999964237,completion,,,,,,,high,high,,,,,,true,,,,false,256539.5,256538.59999996424,253507.55,253507.79999995232,253524.25,256563.4,1,16,,
demonstration_loop,flow.Loop,4,2023-11-14T20:45:47.162Z,,,,,,,,,,98182.83199996423,completion,,,,,,,,,,,,,,true,,,,false,256539.89999997616,256538.59999996424,158322.567,158336.89999997616,158355.768,256563.4,1,16,,
practice_instructions,html.Screen,5,2023-11-14T20:46:04.150Z,,,,,,,,,,16956.600000000006,response,,,,,,,,,,,,,,,continue,click button,,,273528.1999999881,273520,256546.818,256540.09999996424,256563.4,273546.706,,,,
trial,html.Screen,6_0_0,2023-11-14T20:46:05.689Z,,,,1,-0.8073835700282378,-1.0079605779898853,,false,hh,1519.7939999999944,response,0.7059460714049748,0.8999999999999997,-0.8999999999999997,0.7603583058377162,0.8999999999999997,-0.8999999999999997,high,high,,ISIC_5335139.JPG,,ISIC_0066506.JPG,184,true,lh,keypress(e),0,false,275067,275066.5,273529.761,273528.39999997616,273546.706,275099.502,1,20,1,
sequence,flow.Sequence,6_0,2023-11-14T20:46:05.689Z,,,,,,,,,,1519.7939999999944,completion,,,,,,,high,high,,,,,,true,,,,false,275067.59999996424,275066.5,273529.761,273528.39999997616,273546.706,275099.502,1,20,,
trial,html.Screen,6_1_0,2023-11-14T20:46:07.888Z,,,,1,0.8544507134472948,-0.9244388608707323,,true,lh,2165.8979999761796,response,-0.8830264383952469,0.8999999999999997,-0.8999999999999997,0.8635562538060516,0.8999999999999997,-0.8999999999999997,low,high,,ISIC_3565564.JPG,,ISIC_0032258.JPG,29,true,lh,keypress(e),0,false,277265.6999999881,277265.39999997616,275083.289,275067.89999997616,275099.502,277270.42,1,20,2,
sequence,flow.Sequence,6_1,2023-11-14T20:46:07.888Z,,,,,,,,,,2165.8979999761796,completion,,,,,,,low,high,,,,,,true,,,,false,277266.2999999523,277265.39999997616,275083.289,275067.7999999523,275099.502,277270.42,1,20,,
trial,html.Screen,6_2_0,2023-11-14T20:46:10.552Z,,,,1,0.7629099401226335,-0.8515956627075536,,true,lh,2659.2799999880954,response,-0.9653573371180936,0.8999999999999997,-0.8999999999999997,0.854766800381037,0.8999999999999997,-0.8999999999999997,low,high,,ISIC_0028718.JPG,,ISIC_9640145.JPG,29,true,lh,keypress(e),0,false,279930,279929.6999999881,277253.903,277266.59999996424,277270.42,279942.488,1,20,3,
sequence,flow.Sequence,6_2,2023-11-14T20:46:10.552Z,,,,,,,,,,2659.2799999880954,completion,,,,,,,low,high,,,,,,true,,,,false,279930.5,279929.6999999881,277253.903,277266.39999997616,277270.42,279942.488,1,20,,
trial,html.Screen,6_3_0,2023-11-14T20:46:14.430Z,,,,1,0.8500530224490773,-1.0893360711742854,,true,lh,3866.011999999988,response,-1.0453124399868816,0.8999999999999997,-0.8999999999999997,0.8986747280184286,0.8999999999999997,-0.8999999999999997,low,high,,ISIC_2998367.JPG,,ISIC_0013967.JPG,29,true,lh,keypress(e),0,false,283808.6999999881,283808.5,279925.692,279930.6999999881,279942.488,283816.525,1,20,4,
sequence,flow.Sequence,6_3,2023-11-14T20:46:14.431Z,,,,,,,,,,3866.011999999988,completion,,,,,,,low,high,,,,,,true,,,,false,283808.7999999523,283808.5,279925.692,279930.59999996424,279942.488,283816.525,1,20,,
trial,html.Screen,6_4_0,2023-11-14T20:46:17.386Z,,,,1,1.013670467344924,0.8383919586371591,,true,ll,2946.774999952293,response,-1.004723718805983,0.8999999999999997,-0.8999999999999997,-0.746205213256203,0.8999999999999997,-0.8999999999999997,low,low,,ISIC_0014541.JPG,,ISIC_6717322.JPG,169,true,ll,keypress(f),0,false,286763.89999997616,286763.2999999523,283799.796,283808.89999997616,283816.525,286772.129,1,20,5,
sequence,flow.Sequence,6_4,2023-11-14T20:46:17.387Z,,,,,,,,,,2946.774999952293,completion,,,,,,,low,low,,,,,,true,,,,false,286764.7999999523,286763.2999999523,283799.796,283808.89999997616,283816.525,286772.129,1,20,,
trial,html.Screen,6_5_0,2023-11-14T20:46:18.839Z,,,,1,-0.8493861117004308,-0.8834146203433249,,true,hh,1444.9709999642218,response,0.9575090175925351,0.8999999999999997,-0.8999999999999997,1.0307816252475666,0.8999999999999997,-0.8999999999999997,high,high,,ISIC_7450481.JPG,,ISIC_1369273.JPG,184,true,hh,keypress(i),0,false,288217.1999999881,288217.09999996424,286755.697,286765.1999999881,286772.129,288225.02,1,20,6,
sequence,flow.Sequence,6_5,2023-11-14T20:46:18.839Z,,,,,,,,,,1444.9709999642218,completion,,,,,,,high,high,,,,,,true,,,,false,288217.59999996424,288217.09999996424,286755.697,286765.09999996424,286772.129,288225.02,1,20,,
trial,html.Screen,6_6_0,2023-11-14T20:46:20.423Z,,,,1,0.9866910776752168,0.9730788960408626,,true,ll,1576.1799999880604,response,-1.086808687078377,0.8999999999999997,-0.8999999999999997,-0.8881204850517516,0.8999999999999997,-0.8999999999999997,low,low,,ISIC_0070003.JPG,,ISIC_4014307.JPG,169,true,ll,keypress(f),0,false,289801.5,289801.1999999881,288208.521,288217.6999999881,288225.02,289811.453,1,20,7,
sequence,flow.Sequence,6_6,2023-11-14T20:46:20.424Z,,,,,,,,,,1576.1799999880604,completion,,,,,,,low,low,,,,,,true,,,,false,289801.7999999523,289801.1999999881,288208.521,288217.59999996424,288225.02,289811.453,1,20,,
trial,html.Screen,6_7_0,2023-11-14T20:46:22.383Z,,,,1,0.9089402323867112,-0.8034544077281132,,true,lh,1949.1469999642577,response,-1.0453124399868816,0.8999999999999997,-0.8999999999999997,0.8986747280184286,0.8999999999999997,-0.8999999999999997,low,high,,ISIC_3585381.JPG,,ISIC_0013967.JPG,29,true,lh,keypress(e),0,false,291760.6999999881,291760.59999996424,289794.964,289802,289811.453,291765.213,1,20,8,
sequence,flow.Sequence,6_7,2023-11-14T20:46:22.383Z,,,,,,,,,,1949.1469999642577,completion,,,,,,,low,high,,,,,,true,,,,false,291760.89999997616,291760.59999996424,289794.964,289801.89999997616,289811.453,291765.213,1,20,,
trial,html.Screen,6_8_0,2023-11-14T20:46:24.056Z,,,,1,-0.737350298056154,-0.8708481721044242,,true,hh,1668.5869999523275,response,0.871661188387271,0.8999999999999997,-0.8999999999999997,0.9067170027344016,0.8999999999999997,-0.8999999999999997,high,high,,ISIC_2784965.JPG,,ISIC_0026586.JPG,184,true,hh,keypress(i),0,false,293434.1999999881,293433.7999999523,291748.757,291761,291765.213,293452.094,1,20,9,
sequence,flow.Sequence,6_8,2023-11-14T20:46:24.056Z,,,,,,,,,,1668.5869999523275,completion,,,,,,,high,high,,,,,,true,,,,false,293434.6999999881,293433.7999999523,291748.757,291760.89999997616,291765.213,293452.094,1,20,,
trial,html.Screen,6_9_0,2023-11-14T20:46:25.824Z,,,,1,-0.8719231363109603,0.7704280220140033,,true,hl,1749.8059999761754,response,0.7468466922606799,0.8999999999999997,-0.8999999999999997,-0.7486692996330936,0.8999999999999997,-0.8999999999999997,high,low,,ISIC_0029453.JPG,,ISIC_0025508.JPG,43,true,hl,keypress(j),0,false,295202.1999999881,295201.89999997616,293435.319,293434.89999997616,293452.094,295205.319,1,20,10,
sequence,flow.Sequence,6_9,2023-11-14T20:46:25.825Z,,,,,,,,,,1749.8059999761754,completion,,,,,,,high,low,,,,,,true,,,,false,295202.7999999523,295201.89999997616,293435.319,293434.89999997616,293452.094,295205.319,1,20,,
trial,html.Screen,6_10_0,2023-11-14T20:46:27.208Z,,,,1,0.9715963767506804,0.9202593988538142,,true,ll,1380.2809999642195,response,-0.9372411924051636,0.8999999999999997,-0.8999999999999997,-0.841886327367642,0.8999999999999997,-0.8999999999999997,low,low,,ISIC_0034059.JPG,,ISIC_8368872.JPG,169,true,ll,keypress(f),0,false,296585.89999997616,296585.59999996424,295188.771,295202.89999997616,295205.319,296591.244,1,20,11,
sequence,flow.Sequence,6_10,2023-11-14T20:46:27.208Z,,,,,,,,,,1380.2809999642195,completion,,,,,,,low,low,,,,,,true,,,,false,296586.39999997616,296585.59999996424,295188.771,295202.89999997616,295205.319,296591.244,1,20,,
trial,html.Screen,6_11_0,2023-11-14T20:46:29.320Z,,,,1,-1.0428588955519669,-0.7027377550195569,,true,hh,2106.255999999994,response,0.7216589723654343,0.8999999999999997,-0.8999999999999997,0.828612019818679,0.8999999999999997,-0.8999999999999997,high,high,,ISIC_2412888.JPG,,ISIC_0046504.JPG,184,true,hh,keypress(i),0,false,298697.89999997616,298697.5,296574.822,296586.59999996424,296591.244,298712.325,1,20,12,
sequence,flow.Sequence,6_11,2023-11-14T20:46:29.320Z,,,,,,,,,,2106.255999999994,completion,,,,,,,high,high,,,,,,true,,,,false,298698.39999997616,298697.5,296574.822,296586.5,296591.244,298712.325,1,20,,
trial,html.Screen,6_12_0,2023-11-14T20:46:31.527Z,,,,1,-1.075512775389519,1.0454702683049502,,true,hl,2192.3749999880674,response,0.8544507134472948,0.8999999999999997,-0.8999999999999997,-0.9244388608707323,0.8999999999999997,-0.8999999999999997,high,low,,ISIC_0033603.JPG,,ISIC_3565564.JPG,43,true,hl,keypress(j),0,false,300904.7999999523,300904.6999999881,298695.608,298698.89999997616,298712.325,300916.595,1,20,13,
sequence,flow.Sequence,6_12,2023-11-14T20:46:31.527Z,,,,,,,,,,2192.3749999880674,completion,,,,,,,high,low,,,,,,true,,,,false,300905.09999996424,300904.6999999881,298695.608,298698.7999999523,298712.325,300916.595,1,20,,
trial,html.Screen,6_13_0,2023-11-14T20:46:33.728Z,,,,1,-0.7246771568562105,0.9161385080362604,,true,hl,2188.905000000028,response,0.9198276163642348,0.8999999999999997,-0.8999999999999997,-0.7754915110667046,0.8999999999999997,-0.8999999999999997,high,low,,ISIC_0028225.JPG,,ISIC_7840728.JPG,43,true,hl,keypress(j),0,false,303105.7999999523,303105.5,300899.839,300905.09999996424,300916.595,303120.935,1,20,14,
sequence,flow.Sequence,6_13,2023-11-14T20:46:33.728Z,,,,,,,,,,2188.905000000028,completion,,,,,,,high,low,,,,,,true,,,,false,303106.39999997616,303105.5,300899.839,300905.09999996424,300916.595,303120.935,1,20,,
trial,html.Screen,6_14_0,2023-11-14T20:46:35.815Z,,,,1,-0.8351560316519383,-0.7085394211669206,,true,hh,2072.4649999761605,response,0.944391889009556,0.8999999999999997,-0.8999999999999997,1.0361692964751965,0.8999999999999997,-0.8999999999999997,high,high,,ISIC_5795486.JPG,,ISIC_0058676.JPG,184,true,hh,keypress(i),0,false,305193.6999999881,305193.39999997616,303103.942,303106.5,303120.935,305208.009,1,20,15,
sequence,flow.Sequence,6_14,2023-11-14T20:46:35.816Z,,,,,,,,,,2072.4649999761605,completion,,,,,,,high,high,,,,,,true,,,,false,305194.1999999881,305193.39999997616,303103.942,303106.5,303120.935,305208.009,1,20,,
trial,html.Screen,6_15_0,2023-11-14T20:46:37.775Z,,,,1,0.9633172970727744,-0.8472659344792351,,true,lh,1945.2909999522963,response,-0.7882758084023446,0.8999999999999997,-0.8999999999999997,0.8296405881378283,0.8999999999999997,-0.8999999999999997,low,high,,ISIC_0067172.JPG,,ISIC_0065882.JPG,29,true,lh,keypress(e),0,false,307153.59999996424,307153.2999999523,305191.511,305194.39999997616,305208.009,307161.775,1,20,16,
sequence,flow.Sequence,6_15,2023-11-14T20:46:37.776Z,,,,,,,,,,1945.2909999522963,completion,,,,,,,low,high,,,,,,true,,,,false,307153.89999997616,307153.2999999523,305191.511,305194.2999999523,305208.009,307161.775,1,20,,
trial,html.Screen,6_16_0,2023-11-14T20:46:40.144Z,,,,1,0.7935069588038893,0.7313731866464421,,true,ll,2359.7249999999767,response,-0.8526775318290718,0.8999999999999997,-0.8999999999999997,-0.9398012765219632,0.8999999999999997,-0.8999999999999997,low,low,,ISIC_0010729.JPG,,ISIC_2647198.JPG,169,true,ll,keypress(f),0,false,309521.89999997616,309521.5,307145.271,307154.09999996424,307161.775,309533.169,1,20,17,
sequence,flow.Sequence,6_16,2023-11-14T20:46:40.144Z,,,,,,,,,,2359.7249999999767,completion,,,,,,,low,low,,,,,,true,,,,false,309522.39999997616,309521.5,307145.271,307154.09999996424,307161.775,309533.169,1,20,,
trial,html.Screen,6_17_0,2023-11-14T20:46:42.470Z,,,,1,-0.84290786638064,0.7332521189371746,,true,hl,2315.3310000000056,response,0.8350129142228142,0.8999999999999997,-0.8999999999999997,-0.8172547818270586,0.8999999999999997,-0.8999999999999997,high,low,,ISIC_4708642.JPG,,ISIC_0301568.JPG,43,true,hl,keypress(j),0,false,311848.6999999881,311848.5,309516.383,309522.59999996424,309533.169,311854.316,1,20,18,
sequence,flow.Sequence,6_17,2023-11-14T20:46:42.471Z,,,,,,,,,,2315.3310000000056,completion,,,,,,,high,low,,,,,,true,,,,false,311848.6999999881,311848.5,309516.383,309522.5,309533.169,311854.316,1,20,,
trial,html.Screen,6_18_0,2023-11-14T20:46:44.824Z,,,,1,-0.8034318937720549,1.0024917298189338,,true,hl,2347.1840000000084,response,0.9244148283103414,0.8999999999999997,-0.8999999999999997,-0.9712966348713286,0.8999999999999997,-0.8999999999999997,high,low,,ISIC_0032766.JPG,,ISIC_7927525.JPG,43,true,hl,keypress(j),0,false,314201.7999999523,314201.5,311837.803,311848.7999999523,311854.316,314208.846,1,20,19,
sequence,flow.Sequence,6_18,2023-11-14T20:46:44.824Z,,,,,,,,,,2347.1840000000084,completion,,,,,,,high,low,,,,,,true,,,,false,314202.2999999523,314201.5,311837.803,311848.7999999523,311854.316,314208.846,1,20,,
trial,html.Screen,6_19_0,2023-11-14T20:46:46.953Z,,,,1,0.9864553897205228,0.7203939202840286,,true,ll,2120.8539999880595,response,-0.9249180304825352,0.8999999999999997,-0.8999999999999997,-0.9557254346276748,0.8999999999999997,-0.8999999999999997,low,low,,ISIC_0054334.JPG,,ISIC_6778515.JPG,169,true,ll,keypress(f),0,false,316330,316329.6999999881,314192.41,314202.5,314208.846,316346.597,1,20,20,
sequence,flow.Sequence,6_19,2023-11-14T20:46:46.954Z,,,,,,,,,,2120.8539999880595,completion,,,,,,,low,low,,,,,,true,,,,false,316330.5,316329.6999999881,314192.41,314202.39999997616,314208.846,316346.597,1,20,,
practice_loop,flow.Loop,6,2023-11-14T20:46:46.954Z,,,,,,,,,,42782.99399998807,completion,,,,,,,,,,,,,,true,,,,false,316330.89999997616,316329.6999999881,273529.761,273528.2999999523,273546.706,316346.597,1,20,,
stair_instructions,html.Screen,7,2023-11-14T20:47:12.560Z,,,,,,,,,,25589.30299997615,response,,,,,,,,,,,,,,,continue,click button,,,341936.5,341935.89999997616,316329.854,316331,316346.597,341962.872,,,,
trial,html.Screen,8_0_0,2023-11-14T20:47:23.208Z,,,,2,-0.0643519619373155,-0.0340638715725122,,false,lh,10620.827999988105,response,-0.7991459998473059,0.8999999999999997,-0.8999999999999997,1.0280788723474688,0.8999999999999997,-0.8999999999999997,low,high,,ISIC_0066401.JPG,,ISIC_7951202.JPG,29,false,hh,keypress(i),0,true,352584.09999996424,352583.6999999881,341946.347,341936.6999999881,341962.872,352600.19,1,40,1,
sequence,flow.Sequence,8_0,2023-11-14T20:47:23.208Z,,,,,,,,,,10620.827999988105,completion,,,,,,,low,high,,,,,,false,,,,true,352584.59999996424,352583.6999999881,341946.347,341936.6999999881,341962.872,352600.19,1,40,,
trial,html.Screen,8_1_0,2023-11-14T20:47:26.913Z,,,,2,-0.0462522625051681,-0.0088419594888635,,false,lh,3689.409999964235,response,-0.7882758084023446,0.8499999999999996,-0.8999999999999997,0.8296405881378283,0.8999999999999997,-0.8499999999999996,low,high,,ISIC_1945381.JPG,,ISIC_0065882.JPG,29,false,hl,keypress(j),0,true,356289.89999997616,356289.59999996424,352583.544,352584.89999997616,352600.19,356307.672,1,40,2,
sequence,flow.Sequence,8_1,2023-11-14T20:47:26.914Z,,,,,,,,,,3689.409999964235,completion,,,,,,,low,high,,,,,,false,,,,true,356290.39999997616,356289.59999996424,352583.544,352584.89999997616,352600.19,356307.672,1,40,,
trial,html.Screen,8_2_0,2023-11-14T20:47:31.712Z,,,,2,-0.0586798548295751,0.0060040805764433,,false,hh,4780.727999976138,response,0.7950276358398455,0.7999999999999996,-0.8999999999999997,1.087838988516297,0.8999999999999997,-0.7999999999999996,high,high,,ISIC_1552232.JPG,,ISIC_0032019.JPG,211,false,ll,keypress(f),0,true,361088.59999996424,361088.39999997616,356290.799,356290.6999999881,356307.672,361100.309,1,40,3,
sequence,flow.Sequence,8_2,2023-11-14T20:47:31.712Z,,,,,,,,,,4780.727999976138,completion,,,,,,,high,high,,,,,,false,,,,true,361088.6999999881,361088.39999997616,356290.799,356290.59999996424,356307.672,361100.309,1,40,,
trial,html.Screen,8_3_0,2023-11-14T20:47:34.074Z,,,,2,0.0644356642124594,-0.0565130492997401,,false,lh,2349.6909999999916,response,-0.7991459998473059,0.7999999999999996,-0.8499999999999996,1.0280788723474688,0.8999999999999997,-0.7499999999999996,low,high,,ISIC_7520843.JPG,,ISIC_7951202.JPG,38,false,hl,keypress(j),0,true,363450.1999999881,363450,361083.356,361088.7999999523,361100.309,363454.732,1,40,4,
sequence,flow.Sequence,8_3,2023-11-14T20:47:34.074Z,,,,,,,,,,2349.6909999999916,completion,,,,,,,low,high,,,,,,false,,,,true,363450.7999999523,363450,361083.356,361088.6999999881,361100.309,363454.732,1,40,,
trial,html.Screen,8_4_0,2023-11-14T20:47:38.441Z,,,,2,0.039520186367207,0.0377961575607372,,true,hl,4362.867999964219,response,0.8242627447470376,0.7499999999999996,-0.8499999999999996,-0.6500864181433015,0.8999999999999997,-0.6999999999999995,high,low,,ISIC_6356149.JPG,,ISIC_0014186.JPG,96,false,hl,keypress(j),0,true,367817.89999997616,367817.59999996424,363438.102,363451.1999999881,363454.732,367829.817,1,40,5,
sequence,flow.Sequence,8_4,2023-11-14T20:47:38.442Z,,,,,,,,,,4362.867999964219,completion,,,,,,,high,low,,,,,,false,,,,true,367818.39999997616,367817.59999996424,363438.102,363451.09999996424,363454.732,367829.817,1,40,,
trial,html.Screen,8_5_0,2023-11-14T20:47:40.825Z,,,,2,0.0123274848503577,-0.0516828290734233,,false,ll,2371.882999988098,response,-0.9654866847357704,0.6999999999999995,-0.7999999999999996,-0.4971417253439694,0.8499999999999996,-0.6499999999999995,low,low,,ISIC_0056790.JPG,,ISIC_0361149.JPG,310,false,hl,keypress(j),0,true,370202,370201.6999999881,367813.346,367818.6999999881,367829.817,370218.059,1,40,6,
sequence,flow.Sequence,8_5,2023-11-14T20:47:40.826Z,,,,,,,,,,2371.882999988098,completion,,,,,,,low,low,,,,,,false,,,,true,370202.5,370201.6999999881,367813.346,367818.59999996424,367829.817,370218.059,1,40,,
trial,html.Screen,8_6_0,2023-11-14T20:47:43.608Z,,,,2,0.044991036470624,-0.0185124638005965,,true,hl,2766.040999964229,response,0.610833248328665,0.6499999999999995,-0.7999999999999996,-0.6643349704405189,0.7999999999999996,-0.6499999999999995,high,low,,ISIC_2457859.JPG,,ISIC_0003052.JPG,136,false,hl,keypress(j),0,true,372984.1999999881,372984.09999996424,370201.355,370202.6999999881,370218.059,372989.919,1,40,7,
sequence,flow.Sequence,8_6,2023-11-14T20:47:43.608Z,,,,,,,,,,2766.040999964229,completion,,,,,,,high,low,,,,,,false,,,,true,372984.1999999881,372984.09999996424,370201.355,370202.59999996424,370218.059,372989.919,1,40,,
trial,html.Screen,8_7_0,2023-11-14T20:47:50.802Z,,,,2,-0.0633291412406864,0.0446580444004686,,false,hh,7186.780999988085,response,0.661103230391728,0.6175479965378512,-0.7499999999999996,0.5949590719462826,0.7499999999999996,-0.48073834789224407,high,high,,ISIC_0010718.JPG,,ISIC_0070313.JPG,307,false,ll,keypress(f),0,true,380176.89999997616,380176.6999999881,372973.214,372984.2999999523,372989.919,380187.154,1,40,8,
sequence,flow.Sequence,8_7,2023-11-14T20:47:50.802Z,,,,,,,,,,7186.780999988085,completion,,,,,,,high,high,,,,,,false,,,,true,380177,380176.6999999881,372973.214,372984.2999999523,372989.919,380187.154,1,40,,
trial,html.Screen,8_8_0,2023-11-14T20:47:53.323Z,,,,2,-0.0119001144851157,0.0063430114540141,,false,ll,2510.3460000000196,response,-0.5764926348526587,0.6175479965378512,-0.6999999999999995,-0.5890046156350918,0.7499999999999996,-0.48073834789224407,low,low,,ISIC_0003822.JPG,,ISIC_4867043.JPG,394,false,hl,keypress(j),0,true,382697.7999999523,382697.5,380170.418,380177.09999996424,380187.154,382708.76,1,40,9,
sequence,flow.Sequence,8_8,2023-11-14T20:47:53.323Z,,,,,,,,,,2510.3460000000196,completion,,,,,,,low,low,,,,,,false,,,,true,382698.2999999523,382697.5,380170.418,380177.09999996424,380187.154,382708.76,1,40,,
trial,html.Screen,8_9_0,2023-11-14T20:47:57.579Z,,,,2,0.045779466401051,0.0137769797231127,,false,ll,4244.93999998807,response,-0.6226715515705052,0.5675479965378512,-0.6999999999999995,-0.6291045931325249,0.6999999999999995,-0.48073834789224407,low,low,,ISIC_0000504.JPG,,ISIC_1113265.JPG,394,false,lh,keypress(e),0,true,386954.09999996424,386953.6999999881,382692.247,382698.59999996424,382708.76,386967.293,1,40,10,
sequence,flow.Sequence,8_9,2023-11-14T20:47:57.579Z,,,,,,,,,,4244.93999998807,completion,,,,,,,low,low,,,,,,false,,,,true,386954.5,386953.6999999881,382692.247,382698.5,382708.76,386967.293,1,40,,
trial,html.Screen,8_10_0,2023-11-14T20:47:59.729Z,,,,2,-0.0009714874637896,0.0174815595031679,,false,ll,2137.206999999995,response,-0.5172278364209307,0.5175479965378511,-0.6999999999999995,-0.3972477979151147,0.6499999999999995,-0.48073834789224407,low,low,,ISIC_9848743.JPG,,ISIC_1638357.JPG,394,false,hl,keypress(j),0,true,389104.59999996424,389104.5,386950.444,386954.7999999523,386967.293,389121.42,1,40,11,
sequence,flow.Sequence,8_10,2023-11-14T20:47:59.730Z,,,,,,,,,,2137.206999999995,completion,,,,,,,low,low,,,,,,false,,,,true,389104.7999999523,389104.5,386950.444,386954.7999999523,386967.293,389121.42,1,40,,
trial,html.Screen,8_11_0,2023-11-14T20:48:02.243Z,,,,2,-0.0009714874637896,0.0174815595031679,,true,hh,2496.5800000000163,response,0.6037293892022296,0.4675479965378511,-0.6999999999999995,0.6717318054582112,0.5999999999999994,-0.48073834789224407,high,high,,ISIC_9848743.JPG,,ISIC_5747486.JPG,367,false,hh,keypress(i),0,true,391618.2999999523,391618,389104.765,389104.7999999523,389121.42,391626.167,1,40,12,
sequence,flow.Sequence,8_11,2023-11-14T20:48:02.244Z,,,,,,,,,,2496.5800000000163,completion,,,,,,,high,high,,,,,,false,,,,true,391618.7999999523,391618,389104.765,389104.7999999523,389121.42,391626.167,1,40,,
trial,html.Screen,8_12_0,2023-11-14T20:48:05.089Z,,,,2,0.0223011224608011,-0.0466190802905965,,false,hl,2838.1329999523005,response,0.2879820677419532,0.4675479965378511,-0.6499999999999995,-0.3844653604557658,0.5499999999999994,-0.48073834789224407,high,low,,ISIC_0028041.JPG,,ISIC_9788545.JPG,278,false,ll,keypress(f),0,true,394464.39999997616,394464.2999999523,391609.628,391619,391626.167,394481.888,1,40,13,
sequence,flow.Sequence,8_12,2023-11-14T20:48:05.089Z,,,,,,,,,,2838.1329999523005,completion,,,,,,,high,low,,,,,,false,,,,true,394464.59999996424,394464.2999999523,391609.628,391619,391626.167,394481.888,1,40,,
trial,html.Screen,8_13_0,2023-11-14T20:48:10.619Z,,,,2,0.0528688218207886,-0.0356788458032396,,false,ll,5511.911999952339,response,-0.6722813730167978,0.4675479965378511,-0.5999999999999994,-0.6365183888237725,0.4999999999999994,-0.48073834789224407,low,low,,ISIC_5287748.JPG,,ISIC_9397126.JPG,420,false,hl,keypress(j),0,true,399994.09999996424,399993.7999999523,394448.47,394464.6999999881,394481.888,400009.229,1,40,14,
sequence,flow.Sequence,8_13,2023-11-14T20:48:10.619Z,,,,,,,,,,5511.911999952339,completion,,,,,,,low,low,,,,,,false,,,,true,399994.59999996424,399993.7999999523,394448.47,394464.6999999881,394481.888,400009.229,1,40,,
trial,html.Screen,8_14_0,2023-11-14T20:48:12.875Z,,,,2,0.0088741920055285,0.0058246074740588,,false,hh,2240.670999976166,response,0.5973013792558843,0.4675479965378511,-0.5999999999999994,0.6206104289086962,0.4999999999999994,-0.48073834789224407,high,high,,ISIC_4136663.JPG,,ISIC_0528044.JPG,412,false,lh,keypress(e),0,true,402250.1999999881,402249.89999997616,399992.585,399994.7999999523,400009.229,402263.518,1,40,15,
sequence,flow.Sequence,8_14,2023-11-14T20:48:12.876Z,,,,,,,,,,2240.670999976166,completion,,,,,,,high,high,,,,,,false,,,,true,402250.7999999523,402249.89999997616,399992.585,399994.7999999523,400009.229,402263.518,1,40,,
trial,html.Screen,8_15_0,2023-11-14T20:48:16.411Z,,,,2,-0.024731486864197,-0.0504232274546553,,false,hl,3522.3819999761763,response,0.3895378900972009,0.4675479965378511,-0.5499999999999994,-0.4769660882026637,0.4999999999999994,-0.48073834789224407,high,low,,ISIC_4782878.JPG,,ISIC_9335652.JPG,278,false,hh,keypress(i),0,true,405786.2999999523,405785.89999997616,402246.756,402251,402263.518,405803.711,1,40,16,
sequence,flow.Sequence,8_15,2023-11-14T20:48:16.412Z,,,,,,,,,,3522.3819999761763,completion,,,,,,,high,low,,,,,,false,,,,true,405786.7999999523,405785.89999997616,402246.756,402250.89999997616,402263.518,405803.711,1,40,,
trial,html.Screen,8_16_0,2023-11-14T20:48:21.123Z,,,,2,0.0080817964357627,-0.0444435264307931,,true,hl,4693.888999964227,response,0.3739844545936031,0.4675479965378511,-0.4999999999999994,-0.3587958400709498,0.4999999999999994,-0.48073834789224407,high,low,,ISIC_0013165.JPG,,ISIC_0033681.JPG,278,false,hl,keypress(j),0,true,410498,410497.59999996424,405787.202,405787,405803.711,410512.861,1,40,17,
sequence,flow.Sequence,8_16,2023-11-14T20:48:21.123Z,,,,,,,,,,4693.888999964227,completion,,,,,,,high,low,,,,,,false,,,,true,410498.39999997616,410497.59999996424,405787.202,405786.89999997616,405803.711,410512.861,1,40,,
trial,html.Screen,8_17_0,2023-11-14T20:48:23.802Z,,,,2,-0.0501343550751953,-0.0101991443736165,,false,hh,2663.8389999881038,response,0.3687790699474084,0.41754799653785113,-0.4999999999999994,0.3575192061061831,0.4999999999999994,-0.48073834789224407,high,high,,ISIC_4232761.JPG,,ISIC_0058946.JPG,412,false,ll,keypress(f),0,true,413176.7999999523,413176.6999999881,410496.193,410498.59999996424,410512.861,413184.761,1,40,18,
sequence,flow.Sequence,8_17,2023-11-14T20:48:23.802Z,,,,,,,,,,2663.8389999881038,completion,,,,,,,high,high,,,,,,false,,,,true,413177,413176.6999999881,410496.193,410498.59999996424,410512.861,413184.761,1,40,,
trial,html.Screen,8_18_0,2023-11-14T20:48:28.498Z,,,,2,-0.0727065082131878,-0.0601627969482033,,false,lh,4687.9389999880805,response,-0.3902401221856585,0.4675479965378511,-0.4999999999999994,0.5033303910130854,0.4999999999999994,-0.48073834789224407,low,high,,ISIC_2245069.JPG,,ISIC_0014027.JPG,236,false,hl,keypress(j),0,true,417872.89999997616,417872.6999999881,413168.122,413177.09999996424,413184.761,417877.167,1,40,19,
sequence,flow.Sequence,8_18,2023-11-14T20:48:28.498Z,,,,,,,,,,4687.9389999880805,completion,,,,,,,low,high,,,,,,false,,,,true,417873.09999996424,417872.6999999881,413168.122,413177.09999996424,413184.761,417877.167,1,40,,
trial,html.Screen,8_19_0,2023-11-14T20:48:33.171Z,,,,2,,0.0102871556606504,,true,ll,4668.6329999523,response,-0.6077016477491108,0.4675479965378511,-0.4999999999999994,-0.5246027191436131,0.4999999999999994,-0.48073834789224407,low,low,,ISIC_1805163.JPG,,ISIC_1777398.JPG,466,false,ll,keypress(f),0,true,422546.1999999881,422545.7999999523,417860.398,417873.2999999523,417877.167,422552.889,1,40,20,
sequence,flow.Sequence,8_19,2023-11-14T20:48:33.172Z,,,,,,,,,,4668.6329999523,completion,,,,,,,low,low,,,,,,false,,,,true,422546.6999999881,422545.7999999523,417860.398,417873.1999999881,417877.167,422552.889,1,40,,
trial,html.Screen,8_20_0,2023-11-14T20:48:41.755Z,,,,2,-0.0394300226801425,0.0536115913979284,,false,lh,8576.910999952292,response,-0.3021368515554389,0.4675479965378511,-0.4999999999999994,0.4122617873124302,0.4999999999999994,-0.4307383478922441,low,high,,ISIC_0046983.JPG,,ISIC_6974830.JPG,236,false,hh,keypress(i),0,true,431130.09999996424,431129.7999999523,422536.331,422546.89999997616,422552.889,431136.254,1,40,21,
sequence,flow.Sequence,8_20,2023-11-14T20:48:41.755Z,,,,,,,,,,8576.910999952292,completion,,,,,,,low,high,,,,,,false,,,,true,431130.59999996424,431129.7999999523,422536.331,422546.89999997616,422552.889,431136.254,1,40,,
trial,html.Screen,8_21_0,2023-11-14T20:48:45.595Z,,,,2,0.0542893032276609,-0.0176656364422514,,true,hl,3833.545999952301,response,0.3920952722281022,0.4675479965378511,-0.4999999999999994,-0.467870452146819,0.4999999999999994,-0.4307383478922441,high,low,,ISIC_0024516.JPG,,ISIC_0008621.JPG,308,false,hl,keypress(j),0,true,434970.1999999881,434969.7999999523,431119.721,431130.7999999523,431136.254,434977.058,1,40,22,
sequence,flow.Sequence,8_21,2023-11-14T20:48:45.596Z,,,,,,,,,,3833.545999952301,completion,,,,,,,high,low,,,,,,false,,,,true,434970.59999996424,434969.7999999523,431119.721,431130.7999999523,431136.254,434977.058,1,40,,
trial,html.Screen,8_22_0,2023-11-14T20:48:48.388Z,,,,2,0.0175203912019758,0.0427513576747051,,true,hl,2784.64199998806,response,0.2918193257059615,0.4675479965378511,-0.4999999999999994,-0.2687723145573659,0.4999999999999994,-0.4307383478922441,high,low,,ISIC_0056292.JPG,,ISIC_4393704.JPG,308,false,hl,keypress(j),0,true,437762.09999996424,437761.6999999881,434960.696,434970.89999997616,434977.058,437765.915,1,40,23,
sequence,flow.Sequence,8_22,2023-11-14T20:48:48.389Z,,,,,,,,,,2784.64199998806,completion,,,,,,,high,low,,,,,,false,,,,true,437762.5,437761.6999999881,434960.696,434970.89999997616,434977.058,437765.915,1,40,,
trial,html.Screen,8_23_0,2023-11-14T20:48:53.685Z,,,,2,0.0199950873045219,0.0172506388509166,,false,hl,5292.085000000021,response,0.4899523808197892,0.41754799653785113,-0.4999999999999994,-0.542478816347148,0.4999999999999994,-0.3807383478922441,high,low,,ISIC_0029906.JPG,,ISIC_0028616.JPG,339,false,hh,keypress(i),0,true,443058.2999999523,443058,437749.378,437762.7999999523,437765.915,443076.411,1,40,24,
sequence,flow.Sequence,8_23,2023-11-14T20:48:53.685Z,,,,,,,,,,5292.085000000021,completion,,,,,,,high,low,,,,,,false,,,,true,443058.7999999523,443058,437749.378,437762.6999999881,437765.915,443076.411,1,40,,
trial,html.Screen,8_24_0,2023-11-14T20:49:02.171Z,,,,2,0.0495531443078245,0.0310660434153916,,false,hh,8468.188999964215,response,0.2745944532883382,0.4675479965378511,-0.4999999999999994,0.6202214134473811,0.4999999999999994,-0.4307383478922441,high,high,,ISIC_0013719.JPG,,ISIC_5971591.JPG,412,false,ll,keypress(f),0,true,451544.6999999881,451544.59999996424,443059.651,443059.09999996424,443076.411,451559.483,1,40,25,
sequence,flow.Sequence,8_24,2023-11-14T20:49:02.171Z,,,,,,,,,,8468.188999964215,completion,,,,,,,high,high,,,,,,false,,,,true,451544.7999999523,451544.59999996424,443059.651,443059,443076.411,451559.483,1,40,,
trial,html.Screen,8_25_0,2023-11-14T20:49:06.492Z,,,,2,0.0527477970410472,0.0575970798158164,,false,lh,4306.316999952309,response,-0.351174752746194,0.4675479965378511,-0.4999999999999994,0.367406507312186,0.4999999999999994,-0.4307383478922441,low,high,,ISIC_0667763.JPG,,ISIC_6056692.JPG,236,false,hh,keypress(i),0,true,455866.09999996424,455865.7999999523,451542.681,451545,451559.483,455884.519,1,40,26,
sequence,flow.Sequence,8_25,2023-11-14T20:49:06.493Z,,,,,,,,,,4306.316999952309,completion,,,,,,,low,high,,,,,,false,,,,true,455866.59999996424,455865.7999999523,451542.681,451544.89999997616,451559.483,455884.519,1,40,,
trial,html.Screen,8_26_0,2023-11-14T20:49:09.307Z,,,,2,0.0107170641394226,-0.0596294643429623,,false,lh,2795.780999952345,response,-0.4398504909140056,0.4675479965378511,-0.4999999999999994,0.3199562806487943,0.4999999999999994,-0.4307383478922441,low,high,,ISIC_0005291.JPG,,ISIC_9338761.JPG,236,false,hh,keypress(i),0,true,458680.2999999523,458680.2999999523,455851.006,455866.89999997616,455884.519,458689.897,1,40,27,
sequence,flow.Sequence,8_26,2023-11-14T20:49:09.307Z,,,,,,,,,,2795.780999952345,completion,,,,,,,low,high,,,,,,false,,,,true,458680.5,458680.2999999523,455851.006,455866.89999997616,455884.519,458689.897,1,40,,
trial,html.Screen,8_27_0,2023-11-14T20:49:11.388Z,,,,2,0.0632965338582772,0.0107588824722911,,true,hh,2071.902999952319,response,0.483694744840468,0.4675479965378511,-0.4999999999999994,0.6921549322602714,0.4999999999999994,-0.4307383478922441,high,high,,ISIC_1265755.JPG,,ISIC_0011095.JPG,412,false,hh,keypress(i),0,true,460762,460761.7999999523,458673.4,458680.5,458689.897,460777.429,1,40,28,
sequence,flow.Sequence,8_27,2023-11-14T20:49:11.389Z,,,,,,,,,,2071.902999952319,completion,,,,,,,high,high,,,,,,false,,,,true,460762.5,460761.7999999523,458673.4,458680.5,458689.897,460777.429,1,40,,
trial,html.Screen,8_28_0,2023-11-14T20:49:14.722Z,,,,2,0.0374659946425444,0.0086043094957617,,false,ll,3318.5709999999963,response,-0.3764514922009683,0.4675479965378511,-0.4999999999999994,-0.5427965528544328,0.45605560645453286,-0.4307383478922441,low,low,,ISIC_0033051.JPG,,ISIC_3288342.JPG,488,false,lh,keypress(e),0,true,464096.09999996424,464096,460760.685,460762.7999999523,460777.429,464100.417,1,40,29,
sequence,flow.Sequence,8_28,2023-11-14T20:49:14.722Z,,,,,,,,,,3318.5709999999963,completion,,,,,,,low,low,,,,,,false,,,,true,464096.1999999881,464096,460760.685,460762.6999999881,460777.429,464100.417,1,40,,
trial,html.Screen,8_29_0,2023-11-14T20:49:19.756Z,,,,2,0.0198696495649504,-0.0387952353063878,,false,lh,5029.3829999523,response,-0.3694096583257735,0.4675479965378511,-0.4999999999999994,0.4625124318996649,0.45605560645453286,-0.48073834789224407,low,high,,ISIC_6735970.JPG,,ISIC_2739547.JPG,261,false,ll,keypress(f),0,true,469130.09999996424,469129.7999999523,464083.917,464096.2999999523,464100.417,469143.733,1,40,30,
sequence,flow.Sequence,8_29,2023-11-14T20:49:19.757Z,,,,,,,,,,5029.3829999523,completion,,,,,,,low,high,,,,,,false,,,,true,469130.59999996424,469129.7999999523,464083.917,464096.1999999881,464100.417,469143.733,1,40,,
trial,html.Screen,8_30_0,2023-11-14T20:49:23.684Z,,,,2,0.001445457736793,0.0165307427449982,,false,hl,3913.8669999642298,response,0.4161004533807185,0.4675479965378511,-0.4999999999999994,-0.5095449637528707,0.45605560645453286,-0.48073834789224407,high,low,,ISIC_0027350.JPG,,ISIC_0012065.JPG,278,false,ll,keypress(f),0,true,473057.89999997616,473057.59999996424,469127.011,469130.7999999523,469143.733,473068.01,1,40,31,
sequence,flow.Sequence,8_30,2023-11-14T20:49:23.685Z,,,,,,,,,,3913.8669999642298,completion,,,,,,,high,low,,,,,,false,,,,true,473058.39999997616,473057.59999996424,469127.011,469130.6999999881,469143.733,473068.01,1,40,,
trial,html.Screen,8_31_0,2023-11-14T20:49:28.748Z,,,,2,0.0418938536494534,-0.0678614270583654,,true,hh,5053.789999952307,response,0.4158764638602013,0.4675479965378511,-0.4999999999999994,0.481700918790271,0.45605560645453286,-0.48073834789224407,high,high,,ISIC_0027573.JPG,,ISIC_3166276.JPG,415,false,hh,keypress(i),0,true,478122,478121.7999999523,473051.313,473058.59999996424,473068.01,478127.634,1,40,32,
sequence,flow.Sequence,8_31,2023-11-14T20:49:28.749Z,,,,,,,,,,5053.789999952307,completion,,,,,,,high,high,,,,,,false,,,,true,478122.59999996424,478121.7999999523,473051.313,473058.59999996424,473068.01,478127.634,1,40,,
trial,html.Screen,8_32_0,2023-11-14T20:49:32.852Z,,,,2,-0.0718464495991687,0.0429653518314044,,true,hh,4098.165999952296,response,0.4313122980836302,0.4675479965378511,-0.4999999999999994,0.441481068203,0.45605560645453286,-0.48073834789224407,high,high,,ISIC_0028597.JPG,,ISIC_0031941.JPG,415,false,hh,keypress(i),0,true,482226.1999999881,482225.7999999523,478110.888,478122.7999999523,478127.634,482235.618,1,40,33,
sequence,flow.Sequence,8_32,2023-11-14T20:49:32.853Z,,,,,,,,,,4098.165999952296,completion,,,,,,,high,high,,,,,,false,,,,true,482226.6999999881,482225.7999999523,478110.888,478122.7999999523,478127.634,482235.618,1,40,,
trial,html.Screen,8_33_0,2023-11-14T20:49:36.924Z,,,,2,0.0644356642124594,-0.0565130492997401,,false,ll,4061.8819999999832,response,-0.4754940739672,0.41754799653785113,-0.4999999999999994,-0.4643762074141209,0.40605560645453287,-0.48073834789224407,low,low,,ISIC_7520843.JPG,,ISIC_0014221.JPG,466,false,hl,keypress(j),0,true,486297.7999999523,486297.5,482218.915,482227,482235.618,486310.502,1,40,34,
sequence,flow.Sequence,8_33,2023-11-14T20:49:36.925Z,,,,,,,,,,4061.8819999999832,completion,,,,,,,low,low,,,,,,false,,,,true,486298.2999999523,486297.5,482218.915,482226.89999997616,482235.618,486310.502,1,40,,
trial,html.Screen,8_34_0,2023-11-14T20:49:39.468Z,,,,2,-0.0524649813000588,0.0155452034299028,,false,ll,2530.5979999642586,response,-0.3153371222608715,0.41754799653785113,-0.4999999999999994,-0.6276675853379836,0.40605560645453287,-0.48073834789224407,low,low,,ISIC_0030087.JPG,,ISIC_0010960.JPG,466,false,hl,keypress(j),0,true,488841.2999999523,488841.09999996424,486293.737,486298.59999996424,486310.502,488848.553,1,40,35,
sequence,flow.Sequence,8_34,2023-11-14T20:49:39.468Z,,,,,,,,,,2530.5979999642586,completion,,,,,,,low,low,,,,,,false,,,,true,488841.59999996424,488841.09999996424,486293.737,486298.5,486310.502,488848.553,1,40,,
trial,html.Screen,8_35_0,2023-11-14T20:49:41.740Z,,,,2,0.0065172941585523,-0.0118857043117315,,false,ll,2264.9469999999856,response,-0.4324261852546222,0.41754799653785113,-0.4999999999999994,-0.5669117056035528,0.40605560645453287,-0.48073834789224407,low,low,,ISIC_6119202.JPG,,ISIC_4425766.JPG,466,false,hl,keypress(j),0,true,491113.7999999523,491113.5,488832.022,488841.7999999523,488848.553,491119.591,1,40,36,
sequence,flow.Sequence,8_35,2023-11-14T20:49:41.741Z,,,,,,,,,,2264.9469999999856,completion,,,,,,,low,low,,,,,,false,,,,true,491114.39999997616,491113.5,488832.022,488841.7999999523,488848.553,491119.591,1,40,,
trial,html.Screen,8_36_0,2023-11-14T20:49:43.844Z,,,,2,-0.0009714874637896,0.0174815595031679,,false,hl,2098.3089999761432,response,0.5310260169959041,0.41754799653785113,-0.4999999999999994,-0.3025934026820932,0.40605560645453287,-0.48073834789224407,high,low,,ISIC_9848743.JPG,,ISIC_3655327.JPG,300,false,lh,keypress(e),0,true,493218.1999999881,493217.89999997616,491102.985,491114.5,491119.591,493223.662,1,40,37,
sequence,flow.Sequence,8_36,2023-11-14T20:49:43.845Z,,,,,,,,,,2098.3089999761432,completion,,,,,,,high,low,,,,,,false,,,,true,493218.6999999881,493217.89999997616,491102.985,491114.5,491119.591,493223.662,1,40,,
trial,html.Screen,8_37_0,2023-11-14T20:49:46.405Z,,,,2,0.0388334549081915,-0.0303399972963369,,false,lh,2553.837999999989,response,-0.3675116349566818,0.4675479965378511,-0.4999999999999994,0.2666199488815631,0.40605560645453287,-0.48073834789224407,low,high,,ISIC_4961708.JPG,,ISIC_4026808.JPG,293,false,hl,keypress(j),0,true,495777.6999999881,495777.5,493207.152,493218.89999997616,493223.662,495795.382,1,40,38,
sequence,flow.Sequence,8_37,2023-11-14T20:49:46.406Z,,,,,,,,,,2553.837999999989,completion,,,,,,,low,high,,,,,,false,,,,true,495778.1999999881,495777.5,493207.152,493218.89999997616,493223.662,495795.382,1,40,,
trial,html.Screen,8_38_0,2023-11-14T20:49:49.029Z,,,,2,0.0418938536494534,-0.0678614270583654,,false,hh,2606.1180000000168,response,0.6337040621751633,0.4675479965378511,-0.4999999999999994,0.5568521856662413,0.45605560645453286,-0.48073834789224407,high,high,,ISIC_0027573.JPG,,ISIC_0063026.JPG,415,false,ll,keypress(f),0,true,498401.7999999523,498401.5,495778.898,495778.5,495795.382,498417.213,1,40,39,
sequence,flow.Sequence,8_38,2023-11-14T20:49:49.030Z,,,,,,,,,,2606.1180000000168,completion,,,,,,,high,high,,,,,,false,,,,true,498402.2999999523,498401.5,495778.898,495778.39999997616,495795.382,498417.213,1,40,,
trial,html.Screen,8_39_0,2023-11-14T20:49:52.246Z,,,,2,-0.066631540328269,-0.005292120470259,,false,lh,3200.4869999880902,response,-0.4743086685314678,0.4675479965378511,-0.4999999999999994,0.6304034394061928,0.45605560645453286,-0.48073834789224407,low,high,,ISIC_8041550.JPG,,ISIC_8843901.JPG,261,false,hh,keypress(i),0,true,501618.09999996424,501617.6999999881,498400.42,498402.5,498417.213,501623.332,1,40,40,
sequence,flow.Sequence,8_39,2023-11-14T20:49:52.246Z,,,,,,,,,,3200.4869999880902,completion,,,,,,,low,high,,,,,,false,,,,true,501618.7999999523,501617.6999999881,498400.42,498402.5,498417.213,501623.332,1,40,,
stair_loop,flow.Loop,8,2023-11-14T20:49:52.247Z,,,,,,,,,,159654.8279999881,completion,,,,,,,,,,,,,,false,,,,true,501619.09999996424,501617.6999999881,341946.347,341936.59999996424,341962.872,501623.332,1,40,,
exp_instructions,html.Screen,9,2023-11-14T20:50:16.821Z,,,,,,,,,,24569.567999976163,response,,,,,,,,,,,,,,,continue,keypress(Space),,,526193.6999999881,526192.8999999762,501606.734,501619.39999997616,501623.332,526204.481,,,,
trial,html.Screen,10_0_0,2023-11-14T20:50:19.877Z,,,,1,-0.0700576547090477,0.0026956749740767,,false,lh,3044.9189999761293,response,-0.4996298027449516,0.45504799653785116,-0.4999999999999994,0.3651283757062158,0.46113336387271947,-0.4557383478922442,low,high,,ISIC_7212271.JPG,9,ISIC_4532303.JPG,253,false,hh,keypress(i),0,false,529249.7999999523,529249.3999999762,526187.981,526194.0999999642,526204.481,529260.486,4,500,1,
break,html.Screen,10_0_1,2023-11-14T20:50:19.879Z,,,,,,,,,,NaN,,,,,,,,low,high,,,,,,false,,,,false,529251.3999999762,529251,,529250.1999999881,,529260.486,4,500,,
break_continue,html.Screen,10_0_2,2023-11-14T20:50:19.880Z,,,,,,,,,,NaN,,,,,,,,low,high,,,,,,false,,,,false,529252.6999999881,529252.0999999642,,529251.5999999642,,529260.486,4,500,,
sequence,flow.Sequence,10_0,2023-11-14T20:50:19.881Z,,,,,,,,,,3047.6189999642083,completion,,,,,,,low,high,,,,,,false,,,,false,529253.0999999642,529252.0999999642,526187.981,526194.0999999642,526204.481,529260.486,4,500,,
trial,html.Screen,10_1_0,2023-11-14T20:50:23.598Z,,,,1,0.0367060100866019,0.0630207980628495,,false,hl,3709.2139999880455,response,0.294339521069648,0.45504799653785116,-0.4999999999999994,-0.2915293702747095,0.46113336387271947,-0.4557383478922442,high,low,,ISIC_0028396.JPG,9,ISIC_0014233.JPG,298,false,lh,keypress(e),0,false,532970,532969.6999999881,529243.887,529253.2999999523,529260.486,532984.515,4,500,2,
break,html.Screen,10_1_1,2023-11-14T20:50:23.599Z,,,,,,,,,,NaN,,,,,,,,high,low,,,,,,false,,,,false,532971.2999999523,532970.8999999762,,532970.3999999762,,532984.515,4,500,,
break_continue,html.Screen,10_1_2,2023-11-14T20:50:23.600Z,,,,,,,,,,NaN,,,,,,,,high,low,,,,,,false,,,,false,532972.0999999642,532971.7999999523,,532971.5,,532984.515,4,500,,
sequence,flow.Sequence,10_1,2023-11-14T20:50:23.600Z,,,,,,,,,,3711.3139999522828,completion,,,,,,,high,low,,,,,,false,,,,false,532972.3999999762,532971.7999999523,529243.887,529253.2999999523,529260.486,532984.515,4,500,,
trial,html.Screen,10_2_0,2023-11-14T20:50:26.444Z,,,,1,-0.0220026381002083,0.0170756452911772,,false,hl,2831.384999976144,response,0.4413184567617069,0.45504799653785116,-0.4999999999999994,-0.4714830209629193,0.46113336387271947,-0.4557383478922442,high,low,,ISIC_5347806.JPG,9,ISIC_2304753.JPG,298,false,ll,keypress(f),0,false,535816,535815.8999999762,532967.775,532972.5999999642,532984.515,535823.354,4,500,3,
break,html.Screen,10_2_1,2023-11-14T20:50:26.444Z,,,,,,,,,,NaN,,,,,,,,high,low,,,,,,false,,,,false,535816.1999999881,535816.1999999881,,535816.0999999642,,535823.354,4,500,,
break_continue,html.Screen,10_2_2,2023-11-14T20:50:26.444Z,,,,,,,,,,NaN,,,,,,,,high,low,,,,,,false,,,,false,535816.5,535816.2999999523,,535816.2999999523,,535823.354,4,500,,
sequence,flow.Sequence,10_2,2023-11-14T20:50:26.444Z,,,,,,,,,,2831.7849999523023,completion,,,,,,,high,low,,,,,,false,,,,false,535816.5,535816.2999999523,532967.775,532972.5999999642,532984.515,535823.354,4,500,,
trial,html.Screen,10_3_0,2023-11-14T20:50:29.278Z,,,,1,-0.0480293506029756,-0.0744454320613987,,false,lh,2826.345999988029,response,-0.3306266207218366,0.45504799653785116,-0.4999999999999994,0.3879821439665599,0.46113336387271947,-0.4557383478922442,low,high,,ISIC_1798471.JPG,9,ISIC_0061870.JPG,253,false,hh,keypress(i),0,false,538650,538649.6999999881,535806.698,535816.5,535823.354,538662.215,4,500,4,
break,html.Screen,10_3_1,2023-11-14T20:50:29.279Z,,,,,,,,,,NaN,,,,,,,,low,high,,,,,,false,,,,false,538651.0999999642,538650.8999999762,,538650.3999999762,,538662.215,4,500,,
break_continue,html.Screen,10_3_2,2023-11-14T20:50:29.280Z,,,,,,,,,,NaN,,,,,,,,low,high,,,,,,false,,,,false,538652,538651.5999999642,,538651.2999999523,,538662.215,4,500,,
sequence,flow.Sequence,10_3,2023-11-14T20:50:29.280Z,,,,,,,,,,2828.245999964187,completion,,,,,,,low,high,,,,,,false,,,,false,538652.2999999523,538651.5999999642,535806.698,535816.5,535823.354,538662.215,4,500,,
trial,html.Screen,10_4_0,2023-11-14T20:50:32.092Z,,,,1,-0.0200295718112167,-0.0155559071275806,,false,hh,2802.084999952349,response,0.4921073699451551,0.45504799653785116,-0.4999999999999994,0.5535712185937799,0.46113336387271947,-0.4557383478922442,high,high,,ISIC_0061343.JPG,9,ISIC_8153123.JPG,408,false,lh,keypress(e),0,false,541464.5,541464.2999999523,538645.61,538652.5,538662.215,541467.493,4,500,5,
break,html.Screen,10_4_1,2023-11-14T20:50:32.092Z,,,,,,,,,,NaN,,,,,,,,high,high,,,,,,false,,,,false,541464.8999999762,541464.7999999523,,541464.5999999642,,541467.493,4,500,,
break_continue,html.Screen,10_4_2,2023-11-14T20:50:32.093Z,,,,,,,,,,NaN,,,,,,,,high,high,,,,,,false,,,,false,541465.0999999642,541465,,541464.8999999762,,541467.493,4,500,,
sequence,flow.Sequence,10_4,2023-11-14T20:50:32.093Z,,,,,,,,,,2802.7850000000326,completion,,,,,,,high,high,,,,,,false,,,,false,541465.1999999881,541465,538645.61,538652.5,538662.215,541467.493,4,500,,
trial,html.Screen,10_5_0,2023-11-14T20:50:36.428Z,,,,1,0.045779466401051,0.0137769797231127,,false,lh,4332.506999999983,response,-0.5262018282246107,0.45504799653785116,-0.4999999999999994,0.4180755300963287,0.46113336387271947,-0.4557383478922442,low,high,,ISIC_0000504.JPG,9,ISIC_0070689.JPG,253,false,hh,keypress(i),0,false,545800.1999999881,545800,541450.973,541465.2999999523,541467.493,545826.013,4,500,6,
break,html.Screen,10_5_1,2023-11-14T20:50:36.428Z,,,,,,,,,,NaN,,,,,,,,low,high,,,,,,false,,,,false,545800.3999999762,545800.2999999523,,545800.2999999523,,545826.013,4,500,,
break_continue,html.Screen,10_5_2,2023-11-14T20:50:36.428Z,,,,,,,,,,NaN,,,,,,,,low,high,,,,,,false,,,,false,545800.5999999642,545800.5,,545800.3999999762,,545826.013,4,500,,
sequence,flow.Sequence,10_5,2023-11-14T20:50:36.428Z,,,,,,,,,,4333.006999999983,completion,,,,,,,low,high,,,,,,false,,,,false,545800.6999999881,545800.5,541450.973,541465.2999999523,541467.493,545826.013,4,500,,
trial,html.Screen,10_6_0,2023-11-14T20:50:40.638Z,,,,1,0.0145962222125655,0.0525495878509009,,true,hh,4183.686999988044,response,0.2888992432527152,0.45504799653785116,-0.4999999999999994,0.5625657264212047,0.46113336387271947,-0.4557383478922442,high,high,,ISIC_4248013.JPG,10,ISIC_0014903.JPG,408,false,hh,keypress(i),0,false,550009.8999999762,550009.6999999881,545809.295,545800.6999999881,545826.013,550017.449,4,500,7,
break,html.Screen,10_6_1,2023-11-14T20:50:40.639Z,,,,,,,,,,NaN,,,,,,,,high,high,,,,,,false,,,,false,550011.2999999523,550010.8999999762,,550010.3999999762,,550017.449,4,500,,
break_continue,html.Screen,10_6_2,2023-11-14T20:50:40.640Z,,,,,,,,,,NaN,,,,,,,,high,high,,,,,,false,,,,false,550012.1999999881,550011.7999999523,,550011.5,,550017.449,4,500,,
sequence,flow.Sequence,10_6,2023-11-14T20:50:40.640Z,,,,,,,,,,4185.786999952281,completion,,,,,,,high,high,,,,,,false,,,,false,550012.3999999762,550011.7999999523,545809.295,545800.6999999881,545826.013,550017.449,4,500,,
trial,html.Screen,10_7_0,2023-11-14T20:50:42.797Z,,,,1,0.0448994009031783,-0.0708723658092544,,false,hh,2152.0509999999776,response,0.4176962582299166,0.45504799653785116,-0.4999999999999994,0.4168502843542545,0.46113336387271947,-0.4557383478922442,high,high,,ISIC_0025238.JPG,9,ISIC_8629635.JPG,408,false,ll,keypress(f),0,false,552169.8999999762,552169.5,550000.756,550012.6999999881,550017.449,552188.961,4,500,8,
break,html.Screen,10_7_1,2023-11-14T20:50:42.799Z,,,,,,,,,,NaN,,,,,,,,high,high,,,,,,false,,,,false,552171.0999999642,552170.6999999881,,552170.2999999523,,552188.961,4,500,,
break_continue,html.Screen,10_7_2,2023-11-14T20:50:42.799Z,,,,,,,,,,NaN,,,,,,,,high,high,,,,,,false,,,,false,552171.8999999762,552171.5,,552171.2999999523,,552188.961,4,500,,
sequence,flow.Sequence,10_7,2023-11-14T20:50:42.800Z,,,,,,,,,,2154.0509999999776,completion,,,,,,,high,high,,,,,,false,,,,false,552172.1999999881,552171.5,550000.756,550012.5999999642,550017.449,552188.961,4,500,,
trial,html.Screen,10_8_0,2023-11-14T20:50:48.519Z,,,,1,0.0542893032276609,-0.0176656364422514,,false,lh,5700.938999976148,response,-0.4621870881672764,0.45504799653785116,-0.4999999999999994,0.2724618520721065,0.46113336387271947,-0.4557383478922442,low,high,,ISIC_0024516.JPG,9,ISIC_9458746.JPG,253,false,hl,keypress(j),0,false,557890.2999999523,557889.8999999762,552155.103,552172.5,552188.961,557899.511,4,500,9,
break,html.Screen,10_8_1,2023-11-14T20:50:48.520Z,,,,,,,,,,NaN,,,,,,,,low,high,,,,,,false,,,,false,557891.7999999523,557891.1999999881,,557890.6999999881,,557899.511,4,500,,
break_continue,html.Screen,10_8_2,2023-11-14T20:50:48.522Z,,,,,,,,,,NaN,,,,,,,,low,high,,,,,,false,,,,false,557893.0999999642,557892.5,,557892.0999999642,,557899.511,4,500,,
sequence,flow.Sequence,10_8,2023-11-14T20:50:48.522Z,,,,,,,,,,5703.53899999999,completion,,,,,,,low,high,,,,,,false,,,,false,557893.3999999762,557892.5,552155.103,552172.5,552188.961,557899.511,4,500,,
trial,html.Screen,10_9_0,2023-11-14T20:50:50.959Z,,,,1,0.0273175221875807,0.0515126441328492,,false,lh,2430.488999999943,response,-0.5046807053914899,0.45504799653785116,-0.4999999999999994,0.4887885091208009,0.46113336387271947,-0.4557383478922442,low,high,,ISIC_0064034.JPG,9,ISIC_0026497.JPG,253,false,hh,keypress(i),0,false,560330.2999999523,560330,557882.978,557893.6999999881,557899.511,560337.526,4,500,10,
break,html.Screen,10_9_1,2023-11-14T20:50:50.960Z,,,,,,,,,,NaN,,,,,,,,low,high,,,,,,false,,,,false,560331.3999999762,560331.1999999881,,560330.5999999642,,560337.526,4,500,,
break_continue,html.Screen,10_9_2,2023-11-14T20:50:50.961Z,,,,,,,,,,NaN,,,,,,,,low,high,,,,,,false,,,,false,560332.2999999523,560331.8999999762,,560331.5999999642,,560337.526,4,500,,
sequence,flow.Sequence,10_9,2023-11-14T20:50:50.961Z,,,,,,,,,,2432.3889999761013,completion,,,,,,,low,high,,,,,,false,,,,false,560332.5999999642,560331.8999999762,557882.978,557893.5999999642,557899.511,560337.526,4,500,,
trial,html.Screen,10_10_0,2023-11-14T20:50:54.455Z,,,,1,-0.0718464495991687,0.0429653518314044,,true,hh,3488.1739999881247,response,0.2887538222925317,0.45504799653785116,-0.4999999999999994,0.5836193738116164,0.46113336387271947,-0.4557383478922442,high,high,,ISIC_0028597.JPG,10,ISIC_0031278.JPG,408,false,hh,keypress(i),0,false,563826,563825.6999999881,560321.105,560332.7999999523,560337.526,563845.305,4,500,11,
break,html.Screen,10_10_1,2023-11-14T20:50:54.456Z,,,,,,,,,,NaN,,,,,,,,high,high,,,,,,false,,,,false,563827.0999999642,563826.8999999762,,563826.3999999762,,563845.305,4,500,,
break_continue,html.Screen,10_10_2,2023-11-14T20:50:54.457Z,,,,,,,,,,NaN,,,,,,,,high,high,,,,,,false,,,,false,563828.0999999642,563827.5999999642,,563827.2999999523,,563845.305,4,500,,
sequence,flow.Sequence,10_10,2023-11-14T20:50:54.457Z,,,,,,,,,,3490.073999964283,completion,,,,,,,high,high,,,,,,false,,,,false,563828.5,563827.5999999642,560321.105,560332.7999999523,560337.526,563845.305,4,500,,
trial,html.Screen,10_11_0,2023-11-14T20:50:58.158Z,,,,1,-0.0085390023861227,-0.051110950799465,,false,lh,3684.394999988028,response,-0.4424953596273369,0.45504799653785116,-0.4999999999999994,0.578075680807843,0.46113336387271947,-0.4557383478922442,low,high,,ISIC_6268546.JPG,9,ISIC_0027627.JPG,253,false,ll,keypress(f),0,false,567530,567529.6999999881,563811.21,563828.6999999881,563845.305,567534.872,4,500,12,
break,html.Screen,10_11_1,2023-11-14T20:50:58.160Z,,,,,,,,,,NaN,,,,,,,,low,high,,,,,,false,,,,false,567531.1999999881,567530.7999999523,,567530.3999999762,,567534.872,4,500,,
break_continue,html.Screen,10_11_2,2023-11-14T20:50:58.161Z,,,,,,,,,,NaN,,,,,,,,low,high,,,,,,false,,,,false,567532,567531.5999999642,,567531.3999999762,,567534.872,4,500,,
sequence,flow.Sequence,10_11,2023-11-14T20:50:58.161Z,,,,,,,,,,3686.294999964186,completion,,,,,,,low,high,,,,,,false,,,,false,567532.2999999523,567531.5999999642,563811.21,563828.5999999642,563845.305,567534.872,4,500,,
trial,html.Screen,10_12_0,2023-11-14T20:51:00.702Z,,,,1,0.0603356922898045,0.0630785445312754,,true,lh,2538.527999976184,response,-0.4565406773309096,0.45504799653785116,-0.4999999999999994,0.3611802930945754,0.46113336387271947,-0.4557383478922442,low,high,,ISIC_9996128.JPG,8,ISIC_0046331.JPG,253,false,lh,keypress(e),0,false,570073.6999999881,570073.3999999762,567518.345,567532.5,567534.872,570090.082,4,500,13,
break,html.Screen,10_12_1,2023-11-14T20:51:00.703Z,,,,,,,,,,NaN,,,,,,,,low,high,,,,,,false,,,,false,570074.8999999762,570074.5999999642,,570074.1999999881,,570090.082,4,500,,
break_continue,html.Screen,10_12_2,2023-11-14T20:51:00.704Z,,,,,,,,,,NaN,,,,,,,,low,high,,,,,,false,,,,false,570075.7999999523,570075.2999999523,,570075.0999999642,,570090.082,4,500,,
sequence,flow.Sequence,10_12,2023-11-14T20:51:00.705Z,,,,,,,,,,2540.4279999523424,completion,,,,,,,low,high,,,,,,false,,,,false,570076.0999999642,570075.2999999523,567518.345,567532.5,567534.872,570090.082,4,500,,
trial,html.Screen,10_13_0,2023-11-14T20:51:03.759Z,,,,1,0.0478761683145946,-0.012927090508672,,false,lh,3039.617999988026,response,-0.3340988448688699,0.45504799653785116,-0.4999999999999994,0.6194586406592697,0.46113336387271947,-0.4557383478922442,low,high,,ISIC_9631669.JPG,8,ISIC_5580000.JPG,253,false,hl,keypress(j),0,false,573130,573129.6999999881,570073.143,570076.2999999523,570090.082,573146.029,4,500,14,
break,html.Screen,10_13_1,2023-11-14T20:51:03.760Z,,,,,,,,,,NaN,,,,,,,,low,high,,,,,,false,,,,false,573131.1999999881,573130.8999999762,,573130.3999999762,,573146.029,4,500,,
break_continue,html.Screen,10_13_2,2023-11-14T20:51:03.761Z,,,,,,,,,,NaN,,,,,,,,low,high,,,,,,false,,,,false,573132,573131.6999999881,,573131.3999999762,,573146.029,4,500,,
sequence,flow.Sequence,10_13,2023-11-14T20:51:03.761Z,,,,,,,,,,3041.617999988026,completion,,,,,,,low,high,,,,,,false,,,,false,573132.2999999523,573131.6999999881,570073.143,570076.1999999881,570090.082,573146.029,4,500,,
trial,html.Screen,10_14_0,2023-11-14T20:51:07.502Z,,,,1,-0.0633291412406864,0.0446580444004686,,false,ll,3727.3709999761777,response,-0.5913326967642568,0.45504799653785116,-0.4999999999999994,-0.2572354010396661,0.46113336387271947,-0.4557383478922442,low,low,,ISIC_0010718.JPG,10,ISIC_4311777.JPG,480,false,hl,keypress(j),0,false,576873.7999999523,576873.3999999762,573129.228,573132.5,573146.029,576886.651,4,500,15,
break,html.Screen,10_14_1,2023-11-14T20:51:07.503Z,,,,,,,,,,NaN,,,,,,,,low,low,,,,,,false,,,,false,576874.8999999762,576874.6999999881,,576874.1999999881,,576886.651,4,500,,
break_continue,html.Screen,10_14_2,2023-11-14T20:51:07.504Z,,,,,,,,,,NaN,,,,,,,,low,low,,,,,,false,,,,false,576875.7999999523,576875.3999999762,,576875.1999999881,,576886.651,4,500,,
sequence,flow.Sequence,10_14,2023-11-14T20:51:07.505Z,,,,,,,,,,3729.3709999761777,completion,,,,,,,low,low,,,,,,false,,,,false,576876.1999999881,576875.3999999762,573129.228,573132.5,573146.029,576886.651,4,500,,
trial,html.Screen,10_15_0,2023-11-14T20:51:11.463Z,,,,1,-0.0462522625051681,-0.0088419594888635,,true,lh,3947.0489999881247,response,-0.3492181979178479,0.45504799653785116,-0.4999999999999994,0.4000533132034632,0.46113336387271947,-0.4557383478922442,low,high,,ISIC_1945381.JPG,9,ISIC_3696726.JPG,253,false,lh,keypress(e),0,false,580834.0999999642,580833.6999999881,576869.634,576876.3999999762,576886.651,580844.126,4,500,16,
break,html.Screen,10_15_1,2023-11-14T20:51:11.464Z,,,,,,,,,,NaN,,,,,,,,low,high,,,,,,false,,,,false,580835.3999999762,580834.8999999762,,580834.5,,580844.126,4,500,,
break_continue,html.Screen,10_15_2,2023-11-14T20:51:11.465Z,,,,,,,,,,NaN,,,,,,,,low,high,,,,,,false,,,,false,580836.6999999881,580836.0999999642,,580835.6999999881,,580844.126,4,500,,
sequence,flow.Sequence,10_15,2023-11-14T20:51:11.466Z,,,,,,,,,,3949.448999964283,completion,,,,,,,low,high,,,,,,false,,,,false,580837.1999999881,580836.0999999642,576869.634,576876.3999999762,576886.651,580844.126,4,500,,
trial,html.Screen,10_16_0,2023-11-14T20:51:15.957Z,,,,1,0.0223011224608011,-0.0466190802905965,,false,hl,4484.3739999999525,response,0.3290089216629918,0.45504799653785116,-0.4999999999999994,-0.4454743525499745,0.46113336387271947,-0.4557383478922442,high,low,,ISIC_0028041.JPG,8,ISIC_9499185.JPG,298,false,ll,keypress(f),0,false,585328.6999999881,585328.5,580827.654,580837.2999999523,580844.126,585336.142,4,500,17,
break,html.Screen,10_16_1,2023-11-14T20:51:15.958Z,,,,,,,,,,NaN,,,,,,,,high,low,,,,,,false,,,,false,585329.0999999642,585328.8999999762,,585328.6999999881,,585336.142,4,500,,
break_continue,html.Screen,10_16_2,2023-11-14T20:51:15.958Z,,,,,,,,,,NaN,,,,,,,,high,low,,,,,,false,,,,false,585329.2999999523,585329.0999999642,,585329.0999999642,,585336.142,4,500,,
sequence,flow.Sequence,10_16,2023-11-14T20:51:15.958Z,,,,,,,,,,4484.97399996419,completion,,,,,,,high,low,,,,,,false,,,,false,585329.3999999762,585329.0999999642,580827.654,580837.1999999881,580844.126,585336.142,4,500,,
trial,html.Screen,10_17_0,2023-11-14T20:51:19.311Z,,,,1,-0.0200295718112167,-0.0155559071275806,,false,lh,3345.5579999880865,response,-0.6896174535758711,0.45504799653785116,-0.4999999999999994,0.3582066561910394,0.46113336387271947,-0.4557383478922442,low,high,,ISIC_0061343.JPG,9,ISIC_7746479.JPG,253,false,ll,keypress(f),0,false,588682.0999999642,588681.6999999881,585319.634,585329.3999999762,585336.142,588692.771,4,500,18,
break,html.Screen,10_17_1,2023-11-14T20:51:19.312Z,,,,,,,,,,NaN,,,,,,,,low,high,,,,,,false,,,,false,588683.1999999881,588682.8999999762,,588682.3999999762,,588692.771,4,500,,
break_continue,html.Screen,10_17_2,2023-11-14T20:51:19.313Z,,,,,,,,,,NaN,,,,,,,,low,high,,,,,,false,,,,false,588684.1999999881,588683.7999999523,,588683.5,,588692.771,4,500,,
sequence,flow.Sequence,10_17,2023-11-14T20:51:19.313Z,,,,,,,,,,3347.6579999523237,completion,,,,,,,low,high,,,,,,false,,,,false,588684.5,588683.7999999523,585319.634,585329.3999999762,585336.142,588692.771,4,500,,
trial,html.Screen,10_18_0,2023-11-14T20:51:22.263Z,,,,1,0.0473541545202326,-0.0294076954053606,,false,hh,2941.4289999881294,response,0.5565532413037697,0.45504799653785116,-0.4999999999999994,0.6437058660162371,0.46113336387271947,-0.4557383478922442,high,high,,ISIC_0034065.JPG,9,ISIC_0026545.JPG,408,false,hl,keypress(j),0,false,591634.3999999762,591634.1999999881,588676.175,588684.7999999523,588692.771,591648.702,4,500,19,
break,html.Screen,10_18_1,2023-11-14T20:51:22.263Z,,,,,,,,,,NaN,,,,,,,,high,high,,,,,,false,,,,false,591635,591634.7999999523,,591634.5999999642,,591648.702,4,500,,
break_continue,html.Screen,10_18_2,2023-11-14T20:51:22.264Z,,,,,,,,,,NaN,,,,,,,,high,high,,,,,,false,,,,false,591635.2999999523,591635.1999999881,,591635,,591648.702,4,500,,
sequence,flow.Sequence,10_18,2023-11-14T20:51:22.264Z,,,,,,,,,,2942.4289999881294,completion,,,,,,,high,high,,,,,,false,,,,false,591635.5,591635.1999999881,588676.175,588684.5999999642,588692.771,591648.702,4,500,,
trial,html.Screen,10_19_0,2023-11-14T20:51:26.925Z,,,,1,-0.0308384937406319,0.0038396364323947,,true,hl,4647.897999964189,response,0.4357908979726582,0.45504799653785116,-0.4999999999999994,-0.3712143211160967,0.46113336387271947,-0.4557383478922442,high,low,,ISIC_0029825.JPG,8,ISIC_7912104.JPG,298,false,hl,keypress(j),0,false,596296.6999999881,596296.5999999642,591631.978,591635.5,591648.702,596307.6,4,500,20,
break,html.Screen,10_19_1,2023-11-14T20:51:26.926Z,,,,,,,,,,NaN,,,,,,,,high,low,,,,,,false,,,,false,596297.0999999642,596297.0999999642,,596296.8999999762,,596307.6,4,500,,
break_continue,html.Screen,10_19_2,2023-11-14T20:51:26.926Z,,,,,,,,,,NaN,,,,,,,,high,low,,,,,,false,,,,false,596297.5,596297.3999999762,,596297.2999999523,,596307.6,4,500,,
sequence,flow.Sequence,10_19,2023-11-14T20:51:26.926Z,,,,,,,,,,4648.69799997611,completion,,,,,,,high,low,,,,,,false,,,,false,596297.5999999642,596297.3999999762,591631.978,591635.5,591648.702,596307.6,4,500,,
trial,html.Screen,10_20_0,2023-11-14T20:51:30.022Z,,,,1,0.055893254685579,0.0187125006410995,,false,hh,3085.5999999881024,response,0.4926453113418687,0.45504799653785116,-0.4999999999999994,0.390958074505579,0.46113336387271947,-0.4557383478922442,high,high,,ISIC_0011779.JPG,9,ISIC_0000295.JPG,408,false,lh,keypress(e),0,false,599393.5999999642,599393.1999999881,596290.979,596297.6999999881,596307.6,599396.921,4,500,21,
break,html.Screen,10_20_1,2023-11-14T20:51:30.023Z,,,,,,,,,,NaN,,,,,,,,high,high,,,,,,false,,,,false,599394.6999999881,599394.5,,599394,,599396.921,4,500,,
break_continue,html.Screen,10_20_2,2023-11-14T20:51:30.024Z,,,,,,,,,,NaN,,,,,,,,high,high,,,,,,false,,,,false,599395.5,599395.0999999642,,599394.8999999762,,599396.921,4,500,,
sequence,flow.Sequence,10_20,2023-11-14T20:51:30.024Z,,,,,,,,,,3087.4999999642605,completion,,,,,,,high,high,,,,,,false,,,,false,599395.8999999762,599395.0999999642,596290.979,596297.5999999642,596307.6,599396.921,4,500,,
trial,html.Screen,10_21_0,2023-11-14T20:51:33.190Z,,,,1,0.0426957918502628,0.044166030546046,,true,ll,3164.579000000027,response,-0.5031651815938002,0.45504799653785116,-0.4999999999999994,-0.3872668902081859,0.46113336387271947,-0.4557383478922442,low,low,,ISIC_4649440.JPG,8,ISIC_0033104.JPG,480,false,ll,keypress(f),0,false,602561.8999999762,602561.5,599380.366,599396.0999999642,599396.921,602569.67,4,500,22,
break,html.Screen,10_21_1,2023-11-14T20:51:33.192Z,,,,,,,,,,NaN,,,,,,,,low,low,,,,,,false,,,,false,602563,602562.6999999881,,602562.2999999523,,602569.67,4,500,,
break_continue,html.Screen,10_21_2,2023-11-14T20:51:33.192Z,,,,,,,,,,NaN,,,,,,,,low,low,,,,,,false,,,,false,602563.8999999762,602563.5,,602563.1999999881,,602569.67,4,500,,
sequence,flow.Sequence,10_21,2023-11-14T20:51:33.193Z,,,,,,,,,,3166.579000000027,completion,,,,,,,low,low,,,,,,false,,,,false,602564.0999999642,602563.5,599380.366,599396,599396.921,602569.67,4,500,,
trial,html.Screen,10_22_0,2023-11-14T20:51:35.502Z,,,,1,0.0603356922898045,0.0630785445312754,,true,hh,2303.7299999761162,response,0.4147847014902765,0.45504799653785116,-0.4999999999999994,0.5336551250464673,0.46113336387271947,-0.4557383478922442,high,high,,ISIC_9996128.JPG,9,ISIC_5150200.JPG,408,false,hh,keypress(i),0,false,604873.6999999881,604873.3999999762,602553.235,602564.3999999762,602569.67,604890.934,4,500,23,
break,html.Screen,10_22_1,2023-11-14T20:51:35.503Z,,,,,,,,,,NaN,,,,,,,,high,high,,,,,,false,,,,false,604874.8999999762,604874.5999999642,,604874.0999999642,,604890.934,4,500,,
break_continue,html.Screen,10_22_2,2023-11-14T20:51:35.504Z,,,,,,,,,,NaN,,,,,,,,high,high,,,,,,false,,,,false,604875.6999999881,604875.2999999523,,604875.0999999642,,604890.934,4,500,,
sequence,flow.Sequence,10_22,2023-11-14T20:51:35.505Z,,,,,,,,,,2305.6299999522744,completion,,,,,,,high,high,,,,,,false,,,,false,604876.0999999642,604875.2999999523,602553.235,602564.2999999523,602569.67,604890.934,4,500,,
trial,html.Screen,10_23_0,2023-11-14T20:51:39.271Z,,,,1,0.0527477970410472,0.0575970798158164,,true,hl,3750.865999952308,response,0.5720055355085256,0.45504799653785116,-0.4999999999999994,-0.5359883150105137,0.46113336387271947,-0.4557383478922442,high,low,,ISIC_0667763.JPG,9,ISIC_0032569.JPG,298,false,hl,keypress(j),0,false,608642,608641.7999999523,604874.149,604876.2999999523,604890.934,608648.142,4,500,24,
break,html.Screen,10_23_1,2023-11-14T20:51:39.272Z,,,,,,,,,,NaN,,,,,,,,high,low,,,,,,false,,,,false,608643.1999999881,608643,,608642.3999999762,,608648.142,4,500,,
break_continue,html.Screen,10_23_2,2023-11-14T20:51:39.273Z,,,,,,,,,,NaN,,,,,,,,high,low,,,,,,false,,,,false,608644.0999999642,608643.6999999881,,608643.3999999762,,608648.142,4,500,,
sequence,flow.Sequence,10_23,2023-11-14T20:51:39.273Z,,,,,,,,,,3752.7659999880707,completion,,,,,,,high,low,,,,,,false,,,,false,608644.3999999762,608643.6999999881,604874.149,604876.1999999881,604890.934,608648.142,4,500,,
trial,html.Screen,10_24_0,2023-11-14T20:51:41.318Z,,,,1,0.0088741920055285,0.0058246074740588,,false,hh,2041.4579999642447,response,0.5784000216032654,0.45504799653785116,-0.4999999999999994,0.6379361243845953,0.46113336387271947,-0.4557383478922442,high,high,,ISIC_4136663.JPG,9,ISIC_0025766.JPG,408,false,lh,keypress(e),0,false,610689.8999999762,610689.5999999642,608631.628,608644.5999999642,608648.142,610702.42,4,500,25,
break,html.Screen,10_24_1,2023-11-14T20:51:41.320Z,,,,,,,,,,NaN,,,,,,,,high,high,,,,,,false,,,,false,610691.1999999881,610690.8999999762,,610690.3999999762,,610702.42,4,500,,
break_continue,html.Screen,10_24_2,2023-11-14T20:51:41.321Z,,,,,,,,,,NaN,,,,,,,,high,high,,,,,,false,,,,false,610692.0999999642,610691.7999999523,,610691.5,,610702.42,4,500,,
sequence,flow.Sequence,10_24,2023-11-14T20:51:41.321Z,,,,,,,,,,2043.6579999523237,completion,,,,,,,high,high,,,,,,false,,,,false,610692.3999999762,610691.7999999523,608631.628,608644.5,608648.142,610702.42,4,500,,
trial,html.Screen,10_25_0,2023-11-14T20:51:46.720Z,,,,1,0.0273855825278348,-0.0566295048930719,,false,hl,5387.479999976116,response,0.5975606019269692,0.45504799653785116,-0.4999999999999994,-0.4184387359414481,0.46113336387271947,-0.4557383478922442,high,low,,ISIC_0000141.JPG,10,ISIC_0063258.JPG,298,false,lh,keypress(e),0,false,616090.1999999881,616089.8999999762,610685.674,610692.6999999881,610702.42,616095.988,4,500,26,
break,html.Screen,10_25_1,2023-11-14T20:51:46.721Z,,,,,,,,,,NaN,,,,,,,,high,low,,,,,,false,,,,false,616091.3999999762,616091.0999999642,,616090.5999999642,,616095.988,4,500,,
break_continue,html.Screen,10_25_2,2023-11-14T20:51:46.722Z,,,,,,,,,,NaN,,,,,,,,high,low,,,,,,false,,,,false,616092.2999999523,616091.8999999762,,616091.6999999881,,616095.988,4,500,,
sequence,flow.Sequence,10_25,2023-11-14T20:51:46.722Z,,,,,,,,,,5389.479999976116,completion,,,,,,,high,low,,,,,,false,,,,false,616092.5999999642,616091.8999999762,610685.674,610692.5999999642,610702.42,616095.988,4,500,,
trial,html.Screen,10_26_0,2023-11-14T20:51:48.935Z,,,,1,-0.0118382036798625,-0.0300588245877227,,false,lh,2209.411999976146,response,-0.688327585680165,0.45504799653785116,-0.4999999999999994,0.5182616366465241,0.46113336387271947,-0.4557383478922442,low,high,,ISIC_4748605.JPG,9,ISIC_7824688.JPG,253,false,ll,keypress(f),0,false,618305.7999999523,618305.3999999762,616079.53,616092.7999999523,616095.988,618317.193,4,500,27,
break,html.Screen,10_26_1,2023-11-14T20:51:48.936Z,,,,,,,,,,NaN,,,,,,,,low,high,,,,,,false,,,,false,618307,618306.5999999642,,618306.1999999881,,618317.193,4,500,,
break_continue,html.Screen,10_26_2,2023-11-14T20:51:48.937Z,,,,,,,,,,NaN,,,,,,,,low,high,,,,,,false,,,,false,618307.6999999881,618307.3999999762,,618307.1999999881,,618317.193,4,500,,
sequence,flow.Sequence,10_26,2023-11-14T20:51:48.938Z,,,,,,,,,,2211.411999976146,completion,,,,,,,low,high,,,,,,false,,,,false,618308.0999999642,618307.3999999762,616079.53,616092.7999999523,616095.988,618317.193,4,500,,
trial,html.Screen,10_27_0,2023-11-14T20:51:53.751Z,,,,1,0.0080817964357627,-0.0444435264307931,,false,lh,4803.80700000003,response,-0.5379696758889608,0.45504799653785116,-0.4999999999999994,0.5838087971380028,0.46113336387271947,-0.4557383478922442,low,high,,ISIC_0013165.JPG,9,ISIC_0033206.JPG,253,false,hh,keypress(i),0,false,623121.1999999881,623121,618300.441,618308.2999999523,618317.193,623126.298,4,500,28,
break,html.Screen,10_27_1,2023-11-14T20:51:53.751Z,,,,,,,,,,NaN,,,,,,,,low,high,,,,,,false,,,,false,623122,623121.8999999762,,623121.5999999642,,623126.298,4,500,,
break_continue,html.Screen,10_27_2,2023-11-14T20:51:53.752Z,,,,,,,,,,NaN,,,,,,,,low,high,,,,,,false,,,,false,623122.5,623122.2999999523,,623122.0999999642,,623126.298,4,500,,
sequence,flow.Sequence,10_27,2023-11-14T20:51:53.752Z,,,,,,,,,,4805.106999952346,completion,,,,,,,low,high,,,,,,false,,,,false,623122.6999999881,623122.2999999523,618300.441,618308.1999999881,618317.193,623126.298,4,500,,
trial,html.Screen,10_28_0,2023-11-14T20:51:57.917Z,,,,1,-0.0703653376600499,0.0206740478999942,,false,ll,4161.501999952365,response,-0.4100558087754722,0.45504799653785116,-0.4999999999999994,-0.5328996766656453,0.46113336387271947,-0.4557383478922442,low,low,,ISIC_4899386.JPG,9,ISIC_8071637.JPG,480,false,hl,keypress(j),0,false,627287.8999999762,627287.7999999523,623109.865,623122.7999999523,623126.298,627301.093,4,500,29,
break,html.Screen,10_28_1,2023-11-14T20:51:57.918Z,,,,,,,,,,NaN,,,,,,,,low,low,,,,,,false,,,,false,627288.1999999881,627288.1999999881,,627288.0999999642,,627301.093,4,500,,
break_continue,html.Screen,10_28_2,2023-11-14T20:51:57.918Z,,,,,,,,,,NaN,,,,,,,,low,low,,,,,,false,,,,false,627288.5,627288.2999999523,,627288.2999999523,,627301.093,4,500,,
sequence,flow.Sequence,10_28,2023-11-14T20:51:57.918Z,,,,,,,,,,4162.001999952365,completion,,,,,,,low,low,,,,,,false,,,,false,627288.5,627288.2999999523,623109.865,623122.7999999523,623126.298,627301.093,4,500,,
trial,html.Screen,10_29_0,2023-11-14T20:52:02.751Z,,,,1,-0.0119001144851157,0.0063430114540141,,false,lh,4819.706999952323,response,-0.3310234999811019,0.45504799653785116,-0.4999999999999994,0.3833035075745458,0.46113336387271947,-0.4557383478922442,low,high,,ISIC_0003822.JPG,8,ISIC_0029970.JPG,253,false,hh,keypress(i),0,false,632121,632120.7999999523,627284.581,627288.5,627301.093,632127.143,4,500,30,
break,html.Screen,10_29_1,2023-11-14T20:52:02.751Z,,,,,,,,,,NaN,,,,,,,,low,high,,,,,,false,,,,false,632121.7999999523,632121.5,,632121.2999999523,,632127.143,4,500,,
break_continue,html.Screen,10_29_2,2023-11-14T20:52:02.752Z,,,,,,,,,,NaN,,,,,,,,low,high,,,,,,false,,,,false,632122.1999999881,632122,,632121.8999999762,,632127.143,4,500,,
sequence,flow.Sequence,10_29,2023-11-14T20:52:02.752Z,,,,,,,,,,4820.9070000000065,completion,,,,,,,low,high,,,,,,false,,,,false,632122.5,632122,627284.581,627288.5,627301.093,632127.143,4,500,,
trial,html.Screen,10_30_0,2023-11-14T20:52:06.552Z,,,,1,-0.0464691161264081,-0.0535296539628673,,false,ll,3794.556999988039,response,-0.3607183369801479,0.45504799653785116,-0.4999999999999994,-0.4292253772740462,0.46113336387271947,-0.4557383478922442,low,low,,ISIC_0758797.JPG,9,ISIC_4965832.JPG,480,false,hl,keypress(j),0,false,635922.0999999642,635921.6999999881,632110.442,632122.5999999642,632127.143,635934.738,4,500,31,
break,html.Screen,10_30_1,2023-11-14T20:52:06.553Z,,,,,,,,,,NaN,,,,,,,,low,low,,,,,,false,,,,false,635923.0999999642,635922.8999999762,,635922.3999999762,,635934.738,4,500,,
break_continue,html.Screen,10_30_2,2023-11-14T20:52:06.554Z,,,,,,,,,,NaN,,,,,,,,low,low,,,,,,false,,,,false,635924,635923.5999999642,,635923.3999999762,,635934.738,4,500,,
sequence,flow.Sequence,10_30,2023-11-14T20:52:06.554Z,,,,,,,,,,3796.456999964197,completion,,,,,,,low,low,,,,,,false,,,,false,635924.2999999523,635923.5999999642,632110.442,632122.5,632127.143,635934.738,4,500,,
trial,html.Screen,10_31_0,2023-11-14T20:52:13.023Z,,,,1,0.0080817964357627,-0.0444435264307931,,false,lh,6458.861999964225,response,-0.623245087791014,0.45504799653785116,-0.4999999999999994,0.4051408633843022,0.46113336387271947,-0.4557383478922442,low,high,,ISIC_0013165.JPG,9,ISIC_0027408.JPG,253,false,hh,keypress(i),0,false,642393.8999999762,642393.5999999642,635917.859,635924.5999999642,635934.738,642397.218,4,500,32,
break,html.Screen,10_31_1,2023-11-14T20:52:13.025Z,,,,,,,,,,NaN,,,,,,,,low,high,,,,,,false,,,,false,642395.0999999642,642394.7999999523,,642394.2999999523,,642397.218,4,500,,
break_continue,html.Screen,10_31_2,2023-11-14T20:52:13.025Z,,,,,,,,,,NaN,,,,,,,,low,high,,,,,,false,,,,false,642395.8999999762,642395.5,,642395.2999999523,,642397.218,4,500,,
sequence,flow.Sequence,10_31,2023-11-14T20:52:13.026Z,,,,,,,,,,6460.761999999988,completion,,,,,,,low,high,,,,,,false,,,,false,642396.1999999881,642395.5,635917.859,635924.5999999642,635934.738,642397.218,4,500,,
trial,html.Screen,10_32_0,2023-11-14T20:52:16.519Z,,,,1,0.0632965338582772,0.0107588824722911,,false,ll,3491.9819999880856,response,-0.3741762142596355,0.45504799653785116,-0.4999999999999994,-0.3512071103568882,0.46113336387271947,-0.4557383478922442,low,low,,ISIC_1265755.JPG,8,ISIC_7127760.JPG,480,false,hl,keypress(j),0,false,645889.5999999642,645889.1999999881,642380.674,642396.3999999762,642397.218,645920.909,4,500,33,
break,html.Screen,10_32_1,2023-11-14T20:52:16.520Z,,,,,,,,,,NaN,,,,,,,,low,low,,,,,,false,,,,false,645890.6999999881,645890.5,,645890,,645920.909,4,500,,
break_continue,html.Screen,10_32_2,2023-11-14T20:52:16.521Z,,,,,,,,,,NaN,,,,,,,,low,low,,,,,,false,,,,false,645891.6999999881,645891.2999999523,,645891,,645920.909,4,500,,
sequence,flow.Sequence,10_32,2023-11-14T20:52:16.521Z,,,,,,,,,,3494.081999952323,completion,,,,,,,low,low,,,,,,false,,,,false,645892,645891.2999999523,642380.674,642396.3999999762,642397.218,645920.909,4,500,,
trial,html.Screen,10_33_0,2023-11-14T20:52:19.352Z,,,,1,0.0478761683145946,-0.012927090508672,,true,hl,2801.190999964252,response,0.2803845656511735,0.45504799653785116,-0.4999999999999994,-0.4177018144146008,0.46113336387271947,-0.4557383478922442,high,low,,ISIC_9631669.JPG,10,ISIC_4292708.JPG,298,false,hl,keypress(j),0,false,648722.3999999762,648722.0999999642,645904.208,645892.1999999881,645920.909,648726.111,4,500,34,
break,html.Screen,10_33_1,2023-11-14T20:52:19.353Z,,,,,,,,,,NaN,,,,,,,,high,low,,,,,,false,,,,false,648723.5999999642,648723.1999999881,,648722.6999999881,,648726.111,4,500,,
break_continue,html.Screen,10_33_2,2023-11-14T20:52:19.354Z,,,,,,,,,,NaN,,,,,,,,high,low,,,,,,false,,,,false,648724.5,648724.0999999642,,648723.7999999523,,648726.111,4,500,,
sequence,flow.Sequence,10_33,2023-11-14T20:52:19.354Z,,,,,,,,,,2803.190999964252,completion,,,,,,,high,low,,,,,,false,,,,false,648724.7999999523,648724.0999999642,645904.208,645892.1999999881,645920.909,648726.111,4,500,,
trial,html.Screen,10_34_0,2023-11-14T20:52:22.503Z,,,,1,0.0527477970410472,0.0575970798158164,,false,ll,3147.4889999642037,response,-0.3074262545508274,0.45504799653785116,-0.4999999999999994,-0.5161470422018234,0.46113336387271947,-0.4557383478922442,low,low,,ISIC_0667763.JPG,10,ISIC_4540332.JPG,480,false,hl,keypress(j),0,false,651873.8999999762,651873.5999999642,648709.603,648725,648726.111,651882.268,4,500,35,
break,html.Screen,10_34_1,2023-11-14T20:52:22.505Z,,,,,,,,,,NaN,,,,,,,,low,low,,,,,,false,,,,false,651875,651874.7999999523,,651874.2999999523,,651882.268,4,500,,
break_continue,html.Screen,10_34_2,2023-11-14T20:52:22.505Z,,,,,,,,,,NaN,,,,,,,,low,low,,,,,,false,,,,false,651875.8999999762,651875.5,,651875.2999999523,,651882.268,4,500,,
sequence,flow.Sequence,10_34,2023-11-14T20:52:22.506Z,,,,,,,,,,3149.3889999999665,completion,,,,,,,low,low,,,,,,false,,,,false,651876.2999999523,651875.5,648709.603,648724.8999999762,648726.111,651882.268,4,500,,
trial,html.Screen,10_35_0,2023-11-14T20:52:24.255Z,,,,1,0.0199950873045219,0.0172506388509166,,false,hh,1743.23199999996,response,0.423131744384804,0.45504799653785116,-0.4999999999999994,0.5539660067063851,0.46113336387271947,-0.4557383478922442,high,high,,ISIC_0029906.JPG,9,ISIC_0060848.JPG,408,false,hl,keypress(j),0,false,653625.7999999523,653625.5,651865.796,651876.5,651882.268,653635.754,4,500,36,
break,html.Screen,10_35_1,2023-11-14T20:52:24.257Z,,,,,,,,,,NaN,,,,,,,,high,high,,,,,,false,,,,false,653627,653626.6999999881,,653626.1999999881,,653635.754,4,500,,
break_continue,html.Screen,10_35_2,2023-11-14T20:52:24.257Z,,,,,,,,,,NaN,,,,,,,,high,high,,,,,,false,,,,false,653628,653627.5,,653627.2999999523,,653635.754,4,500,,
sequence,flow.Sequence,10_35,2023-11-14T20:52:24.258Z,,,,,,,,,,1745.23199999996,completion,,,,,,,high,high,,,,,,false,,,,false,653628.1999999881,653627.5,651865.796,651876.5,651882.268,653635.754,4,500,,
trial,html.Screen,10_36_0,2023-11-14T20:52:26.086Z,,,,1,0.0632965338582772,0.0107588824722911,,false,lh,1820.7460000000428,response,-0.4062563230866927,0.45504799653785116,-0.4999999999999994,0.2946616314850061,0.46113336387271947,-0.4557383478922442,low,high,,ISIC_1265755.JPG,9,ISIC_0351547.JPG,253,false,hl,keypress(j),0,false,655456.5999999642,655456.5,653619.157,653628.5,653635.754,655472.821,4,500,37,
break,html.Screen,10_36_1,2023-11-14T20:52:26.087Z,,,,,,,,,,NaN,,,,,,,,low,high,,,,,,false,,,,false,655457.1999999881,655457,,655456.7999999523,,655472.821,4,500,,
break_continue,html.Screen,10_36_2,2023-11-14T20:52:26.087Z,,,,,,,,,,NaN,,,,,,,,low,high,,,,,,false,,,,false,655457.6999999881,655457.3999999762,,655457.2999999523,,655472.821,4,500,,
sequence,flow.Sequence,10_36,2023-11-14T20:52:26.087Z,,,,,,,,,,1821.645999976201,completion,,,,,,,low,high,,,,,,false,,,,false,655457.7999999523,655457.3999999762,653619.157,653628.3999999762,653635.754,655472.821,4,500,,
trial,html.Screen,10_37_0,2023-11-14T20:52:29.175Z,,,,1,-0.0447960916594447,-0.0451557856659748,,false,hl,3072.778999964241,response,0.36498546732145,0.45504799653785116,-0.4999999999999994,-0.4099686807948992,0.46113336387271947,-0.4557383478922442,high,low,,ISIC_1379405.JPG,8,ISIC_0030481.JPG,298,false,ll,keypress(f),0,false,658545.8999999762,658545.5999999642,655455.967,655457.8999999762,655472.821,658562.157,4,500,38,
break,html.Screen,10_37_1,2023-11-14T20:52:29.177Z,,,,,,,,,,NaN,,,,,,,,high,low,,,,,,false,,,,false,658547.0999999642,658546.7999999523,,658546.2999999523,,658562.157,4,500,,
break_continue,html.Screen,10_37_2,2023-11-14T20:52:29.178Z,,,,,,,,,,NaN,,,,,,,,high,low,,,,,,false,,,,false,658548,658547.6999999881,,658547.2999999523,,658562.157,4,500,,
sequence,flow.Sequence,10_37,2023-11-14T20:52:29.178Z,,,,,,,,,,3074.878999988083,completion,,,,,,,high,low,,,,,,false,,,,false,658548.2999999523,658547.6999999881,655455.967,655457.7999999523,655472.821,658562.157,4,500,,
trial,html.Screen,10_38_0,2023-11-14T20:52:33.336Z,,,,1,0.0629648527969799,-0.0694960898867798,,true,ll,4143.542999988073,response,-0.4805563128797317,0.45504799653785116,-0.4999999999999994,-0.6252908806539356,0.46113336387271947,-0.4557383478922442,low,low,,ISIC_0025597.JPG,10,ISIC_1871890.JPG,480,false,ll,keypress(f),0,false,662706.0999999642,662705.6999999881,658545.381,658548.5999999642,658562.157,662720.167,4,500,39,
break,html.Screen,10_38_1,2023-11-14T20:52:33.337Z,,,,,,,,,,NaN,,,,,,,,low,low,,,,,,false,,,,false,662707.1999999881,662707,,662706.5,,662720.167,4,500,,
break_continue,html.Screen,10_38_2,2023-11-14T20:52:33.338Z,,,,,,,,,,NaN,,,,,,,,low,low,,,,,,false,,,,false,662708.0999999642,662707.6999999881,,662707.3999999762,,662720.167,4,500,,
sequence,flow.Sequence,10_38,2023-11-14T20:52:33.338Z,,,,,,,,,,4145.542999988073,completion,,,,,,,low,low,,,,,,false,,,,false,662708.3999999762,662707.6999999881,658545.381,658548.5,658562.157,662720.167,4,500,,
trial,html.Screen,10_39_0,2023-11-14T20:52:37.223Z,,,,1,0.0388181790775959,-0.0049623405709465,,true,hh,3873.4329999642214,response,0.5925802686372642,0.45504799653785116,-0.4999999999999994,0.2770723899782939,0.46113336387271947,-0.4557383478922442,high,high,,ISIC_0061880.JPG,9,ISIC_2364150.JPG,408,false,hh,keypress(i),0,false,666594,666593.5999999642,662703.551,662708.5999999642,662720.167,666611.157,4,500,40,
break,html.Screen,10_39_1,2023-11-14T20:52:37.225Z,,,,,,,,,,NaN,,,,,,,,high,high,,,,,,false,,,,false,666595.0999999642,666594.8999999762,,666594.2999999523,,666611.157,4,500,,
break_continue,html.Screen,10_39_2,2023-11-14T20:52:37.226Z,,,,,,,,,,NaN,,,,,,,,high,high,,,,,,false,,,,false,666596,666595.5999999642,,666595.2999999523,,666611.157,4,500,,
sequence,flow.Sequence,10_39,2023-11-14T20:52:37.226Z,,,,,,,,,,3875.4329999642214,completion,,,,,,,high,high,,,,,,false,,,,false,666596.2999999523,666595.5999999642,662703.551,662708.5999999642,662720.167,666611.157,4,500,,
trial,html.Screen,10_40_0,2023-11-14T20:52:39.910Z,,,,1,-0.0076984477620101,-0.0069458408496562,,false,hh,2669.3429999999935,response,0.6167421172812195,0.45504799653785116,-0.4999999999999994,0.6421733271128099,0.46113336387271947,-0.4557383478922442,high,high,,ISIC_0000434.JPG,9,ISIC_0034313.JPG,408,false,lh,keypress(e),0,false,669280.5999999642,669280.5,666594.334,666596.5999999642,666611.157,669282.77,4,500,41,
break,html.Screen,10_40_1,2023-11-14T20:52:39.911Z,,,,,,,,,,NaN,,,,,,,,high,high,,,,,,false,,,,false,669281,669281,,669280.6999999881,,669282.77,4,500,,
break_continue,html.Screen,10_40_2,2023-11-14T20:52:39.911Z,,,,,,,,,,NaN,,,,,,,,high,high,,,,,,false,,,,false,669281.3999999762,669281.1999999881,,669281.0999999642,,669282.77,4,500,,
sequence,flow.Sequence,10_40,2023-11-14T20:52:39.911Z,,,,,,,,,,2670.0429999880726,completion,,,,,,,high,high,,,,,,false,,,,false,669281.5,669281.1999999881,666594.334,666596.5,666611.157,669282.77,4,500,,
trial,html.Screen,10_41_0,2023-11-14T20:52:41.760Z,,,,1,0.0199950873045219,0.0172506388509166,,true,lh,1846.9299999880604,response,-0.3544333460105467,0.45504799653785116,-0.4999999999999994,0.2724054552608638,0.46113336387271947,-0.4557383478922442,low,high,,ISIC_0029906.JPG,9,ISIC_0063496.JPG,253,false,lh,keypress(e),0,false,671130,671129.6999999881,669266.28,669281.5,669282.77,671136.412,4,500,42,
break,html.Screen,10_41_1,2023-11-14T20:52:41.761Z,,,,,,,,,,NaN,,,,,,,,low,high,,,,,,false,,,,false,671131.1999999881,671130.8999999762,,671130.5,,671136.412,4,500,,
break_continue,html.Screen,10_41_2,2023-11-14T20:52:41.762Z,,,,,,,,,,NaN,,,,,,,,low,high,,,,,,false,,,,false,671132.0999999642,671131.6999999881,,671131.5,,671136.412,4,500,,
sequence,flow.Sequence,10_41,2023-11-14T20:52:41.762Z,,,,,,,,,,1848.9299999880604,completion,,,,,,,low,high,,,,,,false,,,,false,671132.3999999762,671131.6999999881,669266.28,669281.5,669282.77,671136.412,4,500,,
trial,html.Screen,10_42_0,2023-11-14T20:52:45.408Z,,,,1,-0.0715931084231032,0.011427878877272,,true,lh,3641.587999999989,response,-0.4330015077125896,0.45504799653785116,-0.4999999999999994,0.4783979673053792,0.46113336387271947,-0.4557383478922442,low,high,,ISIC_1470250.JPG,9,ISIC_0026470.JPG,253,false,lh,keypress(e),0,false,674778.3999999762,674778,671119.664,671132.5999999642,671136.412,674793.733,4,500,43,
break,html.Screen,10_42_1,2023-11-14T20:52:45.409Z,,,,,,,,,,NaN,,,,,,,,low,high,,,,,,false,,,,false,674779.6999999881,674779.2999999523,,674778.7999999523,,674793.733,4,500,,
break_continue,html.Screen,10_42_2,2023-11-14T20:52:45.410Z,,,,,,,,,,NaN,,,,,,,,low,high,,,,,,false,,,,false,674780.2999999523,674780.2999999523,,674779.8999999762,,674793.733,4,500,,
sequence,flow.Sequence,10_42,2023-11-14T20:52:45.410Z,,,,,,,,,,3643.887999952305,completion,,,,,,,low,high,,,,,,false,,,,false,674780.3999999762,674780.2999999523,671119.664,671132.5999999642,671136.412,674793.733,4,500,,
trial,html.Screen,10_43_0,2023-11-14T20:52:48.064Z,,,,1,0.0607839218394147,0.0567408401627122,,false,hh,2639.8669999642298,response,0.301807471152184,0.45504799653785116,-0.4999999999999994,0.5663432943224943,0.46113336387271947,-0.4557383478922442,high,high,,ISIC_0026901.JPG,10,ISIC_6982386.JPG,408,false,ll,keypress(f),0,false,677433.8999999762,677433.5999999642,674777.021,674780.3999999762,674793.733,677448.635,4,500,44,
break,html.Screen,10_43_1,2023-11-14T20:52:48.066Z,,,,,,,,,,NaN,,,,,,,,high,high,,,,,,false,,,,false,677435,677434.7999999523,,677434.1999999881,,677448.635,4,500,,
break_continue,html.Screen,10_43_2,2023-11-14T20:52:48.066Z,,,,,,,,,,NaN,,,,,,,,high,high,,,,,,false,,,,false,677435.8999999762,677435.3999999762,,677435.1999999881,,677448.635,4,500,,
sequence,flow.Sequence,10_43,2023-11-14T20:52:48.067Z,,,,,,,,,,2641.6669999761507,completion,,,,,,,high,high,,,,,,false,,,,false,677436.0999999642,677435.3999999762,674777.021,674780.3999999762,674793.733,677448.635,4,500,,
trial,html.Screen,10_44_0,2023-11-14T20:52:50.312Z,,,,1,0.0273175221875807,0.0515126441328492,,false,hl,2233.0649999880698,response,0.3050030217934963,0.45504799653785116,-0.4999999999999994,-0.2598830927937791,0.46113336387271947,-0.4557383478922442,high,low,,ISIC_0064034.JPG,9,ISIC_0014826.JPG,298,false,hh,keypress(i),0,false,679682,679681.6999999881,677432.193,677436.2999999523,677448.635,679686.324,4,500,45,
break,html.Screen,10_44_1,2023-11-14T20:52:50.314Z,,,,,,,,,,NaN,,,,,,,,high,low,,,,,,false,,,,false,679683.0999999642,679682.7999999523,,679682.3999999762,,679686.324,4,500,,
break_continue,html.Screen,10_44_2,2023-11-14T20:52:50.314Z,,,,,,,,,,NaN,,,,,,,,high,low,,,,,,false,,,,false,679683.8999999762,679683.5,,679683.3999999762,,679686.324,4,500,,
sequence,flow.Sequence,10_44,2023-11-14T20:52:50.315Z,,,,,,,,,,2234.8649999999907,completion,,,,,,,high,low,,,,,,false,,,,false,679684.1999999881,679683.5,677432.193,677436.1999999881,677448.635,679686.324,4,500,,
trial,html.Screen,10_45_0,2023-11-14T20:52:52.801Z,,,,1,0.0542893032276609,-0.0176656364422514,,true,hl,2483.3759999880567,response,0.3873832783602354,0.45504799653785116,-0.4999999999999994,-0.446831656905133,0.46113336387271947,-0.4557383478922442,high,low,,ISIC_0024516.JPG,9,ISIC_0062208.JPG,298,false,hl,keypress(j),0,false,682170,682169.6999999881,679669.835,679684.5,679686.324,682174.482,4,500,46,
break,html.Screen,10_45_1,2023-11-14T20:52:52.802Z,,,,,,,,,,NaN,,,,,,,,high,low,,,,,,false,,,,false,682171.1999999881,682170.8999999762,,682170.3999999762,,682174.482,4,500,,
break_continue,html.Screen,10_45_2,2023-11-14T20:52:52.803Z,,,,,,,,,,NaN,,,,,,,,high,low,,,,,,false,,,,false,682172.0999999642,682171.6999999881,,682171.5,,682174.482,4,500,,
sequence,flow.Sequence,10_45,2023-11-14T20:52:52.803Z,,,,,,,,,,2485.3759999880567,completion,,,,,,,high,low,,,,,,false,,,,false,682172.3999999762,682171.6999999881,679669.835,679684.5,679686.324,682174.482,4,500,,
trial,html.Screen,10_46_0,2023-11-14T20:52:57.489Z,,,,1,0.0388181790775959,-0.0049623405709465,,false,hl,4683.417999976198,response,0.3213233691050843,0.45504799653785116,-0.4999999999999994,-0.3900066510616879,0.46113336387271947,-0.4557383478922442,high,low,,ISIC_0061880.JPG,9,ISIC_1604845.JPG,298,false,hh,keypress(i),0,false,686858.2999999523,686857.8999999762,682158.009,682172.6999999881,682174.482,686867.064,4,500,47,
break,html.Screen,10_46_1,2023-11-14T20:52:57.490Z,,,,,,,,,,NaN,,,,,,,,high,low,,,,,,false,,,,false,686859.3999999762,686859.0999999642,,686858.6999999881,,686867.064,4,500,,
break_continue,html.Screen,10_46_2,2023-11-14T20:52:57.491Z,,,,,,,,,,NaN,,,,,,,,high,low,,,,,,false,,,,false,686860.3999999762,686860,,686859.6999999881,,686867.064,4,500,,
sequence,flow.Sequence,10_46,2023-11-14T20:52:57.491Z,,,,,,,,,,4685.51800000004,completion,,,,,,,high,low,,,,,,false,,,,false,686860.5999999642,686860,682158.009,682172.5999999642,682174.482,686867.064,4,500,,
trial,html.Screen,10_47_0,2023-11-14T20:53:00.817Z,,,,1,0.0478761683145946,-0.012927090508672,,false,hl,3318.635999988066,response,0.5092845414434499,0.45504799653785116,-0.4999999999999994,-0.634300188181445,0.46113336387271947,-0.4557383478922442,high,low,,ISIC_9631669.JPG,9,ISIC_0062812.JPG,298,false,hh,keypress(i),0,false,690186,690185.6999999881,686850.512,686860.8999999762,686867.064,690190.158,4,500,48,
break,html.Screen,10_47_1,2023-11-14T20:53:00.818Z,,,,,,,,,,NaN,,,,,,,,high,low,,,,,,false,,,,false,690187.1999999881,690186.8999999762,,690186.3999999762,,690190.158,4,500,,
break_continue,html.Screen,10_47_2,2023-11-14T20:53:00.818Z,,,,,,,,,,NaN,,,,,,,,high,low,,,,,,false,,,,false,690188,690187.5,,690187.2999999523,,690190.158,4,500,,
sequence,flow.Sequence,10_47,2023-11-14T20:53:00.819Z,,,,,,,,,,3320.435999999987,completion,,,,,,,high,low,,,,,,false,,,,false,690188.2999999523,690187.5,686850.512,686860.7999999523,686867.064,690190.158,4,500,,
trial,html.Screen,10_48_0,2023-11-14T20:53:06.655Z,,,,1,0.0065172941585523,-0.0118857043117315,,true,hl,5834.341999999946,response,0.5723924693513213,0.45504799653785116,-0.4999999999999994,-0.3154880264128892,0.46113336387271947,-0.4557383478922442,high,low,,ISIC_6119202.JPG,9,ISIC_0313507.JPG,298,false,hl,keypress(j),0,false,696024.5999999642,696024.5,690173.596,690188.5,690190.158,696034.85,4,500,49,
break,html.Screen,10_48_1,2023-11-14T20:53:06.656Z,,,,,,,,,,NaN,,,,,,,,high,low,,,,,,false,,,,false,696025.0999999642,696025,,696024.6999999881,,696034.85,4,500,,
break_continue,html.Screen,10_48_2,2023-11-14T20:53:06.656Z,,,,,,,,,,NaN,,,,,,,,high,low,,,,,,false,,,,false,696025.2999999523,696025.0999999642,,696025.0999999642,,696034.85,4,500,,
sequence,flow.Sequence,10_48,2023-11-14T20:53:06.656Z,,,,,,,,,,5834.941999964183,completion,,,,,,,high,low,,,,,,false,,,,false,696025.3999999762,696025.0999999642,690173.596,690188.3999999762,690190.158,696034.85,4,500,,
trial,html.Screen,10_49_0,2023-11-14T20:53:09.817Z,,,,1,-0.068830656047477,0.0471494209282208,,true,hl,3150.9499999523396,response,0.413911013343327,0.45504799653785116,-0.4999999999999994,-0.2597710681429912,0.46113336387271947,-0.4557383478922442,high,low,,ISIC_0029982.JPG,9,ISIC_3673517.JPG,298,false,hl,keypress(j),0,false,699186.1999999881,699185.7999999523,696018.223,696025.5,696034.85,699190.981,4,500,50,
break,html.Screen,10_49_1,2023-11-14T20:53:09.818Z,,,,,,,,,,NaN,,,,,,,,high,low,,,,,,false,,,,false,699187.2999999523,699187,,699186.5999999642,,699190.981,4,500,,
break_continue,html.Screen,10_49_2,2023-11-14T20:53:09.819Z,,,,,,,,,,NaN,,,,,,,,high,low,,,,,,false,,,,false,699188.1999999881,699187.6999999881,,699187.5,,699190.981,4,500,,
