sender,sender_type,sender_id,timestamp,meta,,age,blockNo,c1,c2,condition,correct,correctResponse,duration,ended_on,f1,f1_high,f1_low,f2,f2_high,f2_low,feature_level1,feature_level2,gender,img_left,img_reveal,img_right,n_target_images,practice,response,response_action,selection_duration,staircase,time_commit,time_end,time_render,time_run,time_show,time_switch,total_blocks,total_trials,trialNo,url
informed_consent,html.Screen,0,2023-11-14T18:38:31.857Z,"{""labjs_version"":""20.2.4"",""labjs_build"":{""flavor"":""development"",""commit"":""f5b4a49f956347addd546a832a3327688c2c0fef""},""location"":""https://labjs.felixhenninger.com/api/labjs_preview/index.html"",""userAgent"":""Mozilla/5.0 (Windows NT 10.0; Win64; x64) AppleWebKit/537.36 (KHTML, like Gecko) Chrome/119.0.0.0 Safari/537.36"",""platform"":""Win32"",""language"":""en-US"",""locale"":""en-US"",""timeZone"":""America/Chicago"",""timezoneOffset"":360,""screen_width"":1920,""screen_height"":1080,""scroll_width"":945,""scroll_height"":918,""window_innerWidth"":945,""window_innerHeight"":966,""devicePixelRatio"":1}",,,,,,,,,19980.905000000745,response,,,,,,,,,,,,,,,consent,click button,,,20757.800000000745,20749.300000000745,751.733,743.8000000007451,768.395,20751.712,,,,{}
Demography form,html.Form,1,2023-11-14T18:38:44.945Z,,,19,,,,,,,13094.488000001118,form submission,,,,,,,,,female,,,,,,,,,,33846.300000000745,33846.20000000112,20735.201,20758.10000000149,20751.712,33851.69,,,,
Welcome,html.Screen,2,2023-11-14T18:39:07.297Z,,,,,,,"[""asym"",""bor""]",,,22345.809999999998,response,,,,,,,,,,,,,,,continue,click button,,,56198,56197.5,33835.295,33846.40000000037,33851.69,56201.616,,,,
demo_instructions,html.Screen,3,2023-11-14T18:39:56.195Z,,,,,,,,,,48891.68400000074,response,,,,,,,,,,,,,,,continue,click button,,,105093.70000000112,105093.30000000075,56185.074,56198.20000000112,56201.616,105101.486,,,,
trial,html.Screen,4_0_0,2023-11-14T18:40:08.151Z,,,,0,1.0213365328004047,-1.088524359911891,,true,lh,11948.414000000368,response,-0.991282840649944,1.0499999999999998,-1.0499999999999998,0.9397921099839784,1.0499999999999998,-1.0499999999999998,low,high,,ISIC_5434229.JPG,,ISIC_0000463.JPG,21,true,lh,keypress(e),100,false,117050.30000000075,117049.90000000037,105084.955,105093.90000000037,105101.486,117068.234,1,16,1,
sequence,flow.Sequence,4_0,2023-11-14T18:40:08.152Z,,,,,,,,,,11948.414000000368,completion,,,,,,,low,high,,,,,,true,,,,false,117051,117049.90000000037,105084.955,105093.90000000037,105101.486,117068.234,1,16,,
trial,html.Screen,4_1_0,2023-11-14T18:40:17.522Z,,,,0,0.991146183030456,-0.9949639823722534,,true,lh,9352.266000000003,response,-1.2364994561934892,1.0499999999999998,-1.0499999999999998,0.9174173651516624,1.0499999999999998,-1.0499999999999998,low,high,,ISIC_6342224.JPG,,ISIC_3481133.JPG,21,true,lh,keypress(e),100,false,126421,126420.5,117051.501,117051.40000000037,117068.234,126451.476,1,16,2,
sequence,flow.Sequence,4_1,2023-11-14T18:40:17.523Z,,,,,,,,,,9352.266000000003,completion,,,,,,,low,high,,,,,,true,,,,false,126421.70000000112,126420.5,117051.501,117051.30000000075,117068.234,126451.476,1,16,,
trial,html.Screen,4_2_0,2023-11-14T18:40:30.239Z,,,,0,1.0213365328004047,-1.088524359911891,,true,lh,12685.624000001495,response,-0.9454713230140772,1.0499999999999998,-1.0499999999999998,0.9245167441969216,1.0499999999999998,-1.0499999999999998,low,high,,ISIC_5434229.JPG,,ISIC_9101055.JPG,21,true,lh,keypress(e),100,false,139137.5,139137.1000000015,126435.028,126422.10000000149,126451.476,139168.108,1,16,3,
sequence,flow.Sequence,4_2,2023-11-14T18:40:30.240Z,,,,,,,,,,12685.624000001495,completion,,,,,,,low,high,,,,,,true,,,,false,139138.5,139137.1000000015,126435.028,126421.90000000037,126451.476,139168.108,1,16,,
trial,html.Screen,4_3_0,2023-11-14T18:40:36.122Z,,,,0,0.8947611078712571,-0.8960964505004638,,true,lh,5852.391999999993,response,-0.8809306963311293,1.0499999999999998,-1.0499999999999998,0.8614910030038974,1.0499999999999998,-1.0499999999999998,low,high,,ISIC_6441128.JPG,,ISIC_0013731.JPG,21,true,lh,keypress(e),100,false,145021,145020.5,139151.533,139138.80000000075,139168.108,145051.428,1,16,4,
sequence,flow.Sequence,4_3,2023-11-14T18:40:36.123Z,,,,,,,,,,5852.391999999993,completion,,,,,,,low,high,,,,,,true,,,,false,145021.5,145020.5,139151.533,139138.70000000112,139168.108,145051.428,1,16,,
trial,html.Screen,4_4_0,2023-11-14T18:40:55.827Z,,,,0,1.0678895386758027,1.0279759018569252,,true,ll,19673.172000001476,response,-0.9821381220613687,1.0499999999999998,-1.0499999999999998,-1.1931254848796,1.0499999999999998,-1.0499999999999998,low,low,,ISIC_0069933.JPG,,ISIC_4107717.JPG,111,true,ll,keypress(f),100,false,164725.1000000015,164724.6000000015,145035.011,145021.80000000075,145051.428,164751.482,1,16,5,
sequence,flow.Sequence,4_4,2023-11-14T18:40:55.827Z,,,,,,,,,,19673.172000001476,completion,,,,,,,low,low,,,,,,true,,,,false,164725.6000000015,164724.6000000015,145035.011,145021.70000000112,145051.428,164751.482,1,16,,
trial,html.Screen,4_5_0,2023-11-14T18:41:03.758Z,,,,0,0.8735470592544294,0.9785086585007428,,true,ll,7904.4180000003835,response,-1.101961018205887,1.0499999999999998,-1.0499999999999998,-0.891963134716088,1.0499999999999998,-1.0499999999999998,low,low,,ISIC_0047031.JPG,,ISIC_5625747.JPG,111,true,ll,keypress(f),100,false,172656.30000000075,172655.90000000037,164734.722,164726,164751.482,172684.651,1,16,6,
sequence,flow.Sequence,4_5,2023-11-14T18:41:03.758Z,,,,,,,,,,7904.4180000003835,completion,,,,,,,low,low,,,,,,true,,,,false,172656.90000000037,172655.90000000037,164734.722,164725.90000000037,164751.482,172684.651,1,16,,
trial,html.Screen,4_6_0,2023-11-14T18:41:09.707Z,,,,0,0.9263931440503964,0.9159664042920548,,true,ll,5918.848999999987,response,-0.8689515664606163,1.0499999999999998,-1.0499999999999998,-1.0538817435713148,1.0499999999999998,-1.0499999999999998,low,low,,ISIC_0053617.JPG,,ISIC_7333928.JPG,111,true,ll,keypress(f),100,false,178603.70000000112,178603.5,172668.025,172657.1000000015,172684.651,178634.702,1,16,7,
sequence,flow.Sequence,4_6,2023-11-14T18:41:09.708Z,,,,,,,,,,5918.848999999987,completion,,,,,,,low,low,,,,,,true,,,,false,178604.1000000015,178603.5,172668.025,172657,172684.651,178634.702,1,16,,
trial,html.Screen,4_7_0,2023-11-14T18:41:18.642Z,,,,0,0.9185517403328254,0.9975299101285906,,true,ll,8903.498000001127,response,-1.2023251949137908,1.0499999999999998,-1.0499999999999998,-0.883329474530484,1.0499999999999998,-1.0499999999999998,low,low,,ISIC_0011130.JPG,,ISIC_2620357.JPG,111,true,ll,keypress(f),100,false,187538.6000000015,187538.20000000112,178618.16,178604.30000000075,178634.702,187568.18,1,16,8,
sequence,flow.Sequence,4_7,2023-11-14T18:41:18.643Z,,,,,,,,,,8903.498000001127,completion,,,,,,,low,low,,,,,,true,,,,false,187539.20000000112,187538.20000000112,178618.16,178604.20000000112,178634.702,187568.18,1,16,,
trial,html.Screen,4_8_0,2023-11-14T18:41:40.209Z,,,,0,-0.7933921755497018,0.7692916291112835,,true,hl,21536.920000001497,response,0.796241477082623,0.9499999999999997,-0.9499999999999997,-0.9017449335975743,0.9499999999999997,-0.9499999999999997,high,low,,ISIC_7844825.JPG,,ISIC_8588033.JPG,26,true,hl,keypress(j),100,false,209105.40000000037,209105.1000000015,187551.319,187539.40000000037,187568.18,209134.558,1,16,9,
sequence,flow.Sequence,4_8,2023-11-14T18:41:40.209Z,,,,,,,,,,21536.920000001497,completion,,,,,,,high,low,,,,,,true,,,,false,209106,209105.1000000015,187551.319,187539.40000000037,187568.18,209134.558,1,16,,
trial,html.Screen,4_9_0,2023-11-14T18:41:51.352Z,,,,0,-0.8487429103619056,0.9778257804233036,,true,hl,11113.842000000383,response,1.0164576835546473,0.9499999999999997,-0.9499999999999997,-0.8120626538423016,0.9499999999999997,-0.9499999999999997,high,low,,ISIC_4554863.JPG,,ISIC_6002694.JPG,26,true,hl,keypress(j),100,false,220248.70000000112,220248.40000000037,209118.145,209106.30000000075,209134.558,220268.099,1,16,10,
sequence,flow.Sequence,4_9,2023-11-14T18:41:51.353Z,,,,,,,,,,11113.842000000383,completion,,,,,,,high,low,,,,,,true,,,,false,220249.20000000112,220248.40000000037,209118.145,209106.30000000075,209134.558,220268.099,1,16,,
trial,html.Screen,4_10_0,2023-11-14T18:42:03.044Z,,,,0,-0.8860551570327019,0.8067116931297591,,true,hl,11671.801000000385,response,1.0164576835546473,0.9499999999999997,-0.9499999999999997,-0.8120626538423016,0.9499999999999997,-0.9499999999999997,high,low,,ISIC_1457687.JPG,,ISIC_6002694.JPG,26,true,hl,keypress(j),100,false,231940.20000000112,231939.90000000037,220251.221,220249.5,220268.099,231967.802,1,16,11,
sequence,flow.Sequence,4_10,2023-11-14T18:42:03.044Z,,,,,,,,,,11671.801000000385,completion,,,,,,,high,low,,,,,,true,,,,false,231940.80000000075,231939.90000000037,220251.221,220249.40000000037,220268.099,231967.802,1,16,,
trial,html.Screen,4_11_0,2023-11-14T18:42:15.344Z,,,,0,-1.0865333402803938,1.0542635307358266,,true,hl,12271.198000000004,response,0.9235571765207048,0.9499999999999997,-0.9499999999999997,-1.0008081653938232,0.9499999999999997,-0.9499999999999997,high,low,,ISIC_0034006.JPG,,ISIC_8796632.JPG,26,true,hl,keypress(j),100,false,244239.40000000037,244239,231951.233,231941,231967.802,244267.773,1,16,12,
sequence,flow.Sequence,4_11,2023-11-14T18:42:15.345Z,,,,,,,,,,12271.198000000004,completion,,,,,,,high,low,,,,,,true,,,,false,244239.90000000037,244239,231951.233,231941,231967.802,244267.773,1,16,,
trial,html.Screen,4_12_0,2023-11-14T18:42:39.559Z,,,,0,-0.7647549879784493,-0.777443662430605,,true,hh,24186.627000000386,response,1.1135119625680223,0.9499999999999997,-0.9499999999999997,0.8824045702297937,0.9499999999999997,-0.9499999999999997,high,high,,ISIC_0012435.JPG,,ISIC_6899527.JPG,167,true,hh,keypress(i),100,false,268454.5,268454.4000000004,244251.148,244240.1000000015,244267.773,268484.606,1,16,13,
sequence,flow.Sequence,4_12,2023-11-14T18:42:39.559Z,,,,,,,,,,24186.627000000386,completion,,,,,,,high,high,,,,,,true,,,,false,268454.7000000011,268454.4000000004,244251.148,244240.1000000015,244267.773,268484.606,1,16,,
trial,html.Screen,4_13_0,2023-11-14T18:42:50.283Z,,,,0,-0.8463538475082831,-0.8806175558408877,,true,hh,10693.893999999971,response,1.007567553886196,0.9499999999999997,-0.9499999999999997,0.9379731610733476,0.9499999999999997,-0.9499999999999997,high,high,,ISIC_8916136.JPG,,ISIC_0030824.JPG,167,true,hh,keypress(i),100,false,279178.7000000011,279178.5,268467.977,268454.80000000075,268484.606,279201.038,1,16,14,
sequence,flow.Sequence,4_13,2023-11-14T18:42:50.284Z,,,,,,,,,,10693.893999999971,completion,,,,,,,high,high,,,,,,true,,,,false,279178.9000000004,279178.5,268467.977,268454.7000000011,268484.606,279201.038,1,16,,
trial,html.Screen,4_14_0,2023-11-14T18:42:53.712Z,,,,0,-1.030423594637164,-0.9418036199165556,,true,hh,3405.862000000372,response,1.0491289899026992,0.9499999999999997,-0.9499999999999997,1.058683139801412,0.9499999999999997,-0.9499999999999997,high,high,,ISIC_0010299.JPG,,ISIC_0010866.JPG,167,true,hh,keypress(i),100,false,282607.30000000075,282606.9000000004,279184.515,279179,279201.038,282634.333,1,16,15,
sequence,flow.Sequence,4_14,2023-11-14T18:42:53.713Z,,,,,,,,,,3405.862000000372,completion,,,,,,,high,high,,,,,,true,,,,false,282607.80000000075,282606.9000000004,279184.515,279179,279201.038,282634.333,1,16,,
trial,html.Screen,4_15_0,2023-11-14T18:42:58.987Z,,,,0,-0.9936778235464944,-0.9945365746760566,,true,hh,5247.567000000388,response,0.8177173885584471,0.9499999999999997,-0.9499999999999997,0.8140398867745896,0.9499999999999997,-0.9499999999999997,high,high,,ISIC_5108076.JPG,,ISIC_7196249.JPG,167,true,hh,keypress(i),100,false,287882.2000000011,287881.9000000004,282617.733,282608.1000000015,282634.333,287900.988,1,16,16,
sequence,flow.Sequence,4_15,2023-11-14T18:42:58.987Z,,,,,,,,,,5247.567000000388,completion,,,,,,,high,high,,,,,,true,,,,false,287882.7000000011,287881.9000000004,282617.733,282608,282634.333,287900.988,1,16,,
demonstration_loop,flow.Loop,4,2023-11-14T18:42:58.988Z,,,,,,,,,,182780.41400000037,completion,,,,,,,,,,,,,,true,,,,false,287882.9000000004,287881.9000000004,105084.955,105093.90000000037,105101.486,287900.988,1,16,,
practice_instructions,html.Screen,5,2023-11-14T18:43:17.375Z,,,,,,,,,,18359.812000000733,response,,,,,,,,,,,,,,,continue,click button,,,306269,306260.80000000075,287884.405,287883.1000000015,287900.988,306267.596,,,,
trial,html.Screen,6_0_0,2023-11-14T18:43:25.810Z,,,,1,-0.7549677203260853,-0.7875043010367262,,true,hh,8428.90399999998,response,0.9046170303418553,0.9499999999999997,-0.9499999999999997,0.8867328775712738,0.9499999999999997,-0.9499999999999997,high,high,,ISIC_7097665.JPG,,ISIC_0055759.JPG,167,true,hh,keypress(i),0,false,314704.2000000011,314696.5,306251.075,306269.2000000011,306267.596,314717.583,1,20,1,
sequence,flow.Sequence,6_0,2023-11-14T18:43:25.810Z,,,,,,,,,,8428.90399999998,completion,,,,,,,high,high,,,,,,true,,,,false,314704.30000000075,314696.5,306251.075,306269.2000000011,306267.596,314717.583,1,20,,
trial,html.Screen,6_1_0,2023-11-14T18:43:36.258Z,,,,1,-0.9433720631499012,1.0582071940347648,,true,hl,10434.517000001506,response,0.7723849213858904,0.9499999999999997,-0.9499999999999997,-0.888372424147899,0.9499999999999997,-0.9499999999999997,high,low,,ISIC_4890201.JPG,,ISIC_3884221.JPG,26,true,hl,keypress(j),0,false,325152.4000000004,325152.1000000015,314700.905,314704.5,314717.583,325167.818,1,20,2,
sequence,flow.Sequence,6_1,2023-11-14T18:43:36.259Z,,,,,,,,,,10434.517000001506,completion,,,,,,,high,low,,,,,,true,,,,false,325152.9000000004,325152.1000000015,314700.905,314704.5,314717.583,325167.818,1,20,,
trial,html.Screen,6_2_0,2023-11-14T18:43:41.794Z,,,,1,-0.7543493127539531,-0.9452304370934528,,true,hh,5519.982000000717,response,0.9262674596267249,0.9499999999999997,-0.9499999999999997,1.0275767908572495,0.9499999999999997,-0.9499999999999997,high,high,,ISIC_0029017.JPG,,ISIC_5415749.JPG,167,true,hh,keypress(i),0,false,330688.1000000015,330687.80000000075,325150.517,325153,325167.818,330701.008,1,20,3,
sequence,flow.Sequence,6_2,2023-11-14T18:43:41.795Z,,,,,,,,,,5519.982000000717,completion,,,,,,,high,high,,,,,,true,,,,false,330688.6000000015,330687.80000000075,325150.517,325153,325167.818,330701.008,1,20,,
trial,html.Screen,6_3_0,2023-11-14T18:43:47.721Z,,,,1,-1.0097932576366906,-1.0644834610939486,,true,hh,5913.9920000000275,response,0.8331144817673659,0.9499999999999997,-0.9499999999999997,0.9687545919760946,0.9499999999999997,-0.9499999999999997,high,high,,ISIC_8559515.JPG,,ISIC_0028075.JPG,167,true,hh,keypress(i),0,false,336615.2000000011,336615,330684.262,330688.80000000075,330701.008,336617.584,1,20,4,
sequence,flow.Sequence,6_3,2023-11-14T18:43:47.722Z,,,,,,,,,,5913.9920000000275,completion,,,,,,,high,high,,,,,,true,,,,false,336615.6000000015,336615,330684.262,330688.80000000075,330701.008,336617.584,1,20,,
trial,html.Screen,6_4_0,2023-11-14T18:43:58.708Z,,,,1,1.0213365328004047,-1.088524359911891,,,,11016.809000000008,timeout,-0.8809306963311293,0.9499999999999997,-0.9499999999999997,0.8614910030038974,0.9499999999999997,-0.9499999999999997,low,high,,ISIC_5434229.JPG,,ISIC_0013731.JPG,28,true,,,0,false,347602.1000000015,347601.80000000075,336600.815,336615.7000000011,336617.584,347634.393,1,20,5,
sequence,flow.Sequence,6_4,2023-11-14T18:43:58.709Z,,,,,,,,,,10984.216000000772,completion,,,,,,,low,high,,,,,,true,,,,false,347602.5,347601.80000000075,336600.815,336615.7000000011,336617.584,347634.393,1,20,,
trial,html.Screen,6_5_0,2023-11-14T18:44:03.752Z,,,,1,0.8125930874051923,1.10562749024409,,true,ll,5011.407000000763,response,-1.072671714258808,0.9499999999999997,-0.9499999999999997,-1.0208498389771272,0.9499999999999997,-0.9499999999999997,low,low,,ISIC_0072748.JPG,,ISIC_5218773.JPG,142,true,ll,keypress(f),0,false,352646,352645.80000000075,347617.76,347602.7000000011,347634.393,352650.773,1,20,6,
sequence,flow.Sequence,6_5,2023-11-14T18:44:03.752Z,,,,,,,,,,5011.407000000763,completion,,,,,,,low,low,,,,,,true,,,,false,352646.1000000015,352645.80000000075,347617.76,347602.7000000011,347634.393,352650.773,1,20,,
trial,html.Screen,6_6_0,2023-11-14T18:44:08.704Z,,,,1,0.8745213387814831,0.7523163498880049,,false,ll,4946.827000001504,response,-0.913084438298574,0.9499999999999997,-0.9499999999999997,-1.135180301076722,0.9499999999999997,-0.9499999999999997,low,low,,ISIC_0054677.JPG,,ISIC_8637134.JPG,142,true,lh,keypress(e),0,false,357597.6000000015,357597.6000000015,352634.102,352646.1000000015,352650.773,357600.777,1,20,7,
sequence,flow.Sequence,6_6,2023-11-14T18:44:08.704Z,,,,,,,,,,4946.827000001504,completion,,,,,,,low,low,,,,,,true,,,,false,357597.7000000011,357597.6000000015,352634.102,352646.1000000015,352650.773,357600.777,1,20,,
trial,html.Screen,6_7_0,2023-11-14T18:44:14.072Z,,,,1,-0.9696118525781644,0.9244148283103414,,true,hl,5365.423000001116,response,0.7871162143493278,0.9499999999999997,-0.9499999999999997,-0.8429329800778957,0.9499999999999997,-0.9499999999999997,high,low,,ISIC_7927525.JPG,,ISIC_3439215.JPG,26,true,hl,keypress(j),0,false,362966.30000000075,362966.2000000011,357584.187,357597.9000000004,357600.777,362985.328,1,20,8,
sequence,flow.Sequence,6_7,2023-11-14T18:44:14.072Z,,,,,,,,,,5365.423000001116,completion,,,,,,,high,low,,,,,,true,,,,false,362966.30000000075,362966.2000000011,357584.187,357597.80000000075,357600.777,362985.328,1,20,,
trial,html.Screen,6_8_0,2023-11-14T18:44:18.443Z,,,,1,-0.7798182602765784,-0.8643036808931337,,true,hh,4350.372000001138,response,0.838053327796249,0.9499999999999997,-0.9499999999999997,0.8312425167370745,0.9499999999999997,-0.9499999999999997,high,high,,ISIC_6703027.JPG,,ISIC_4834687.JPG,167,true,hh,keypress(i),0,false,367335.9000000004,367335.7000000011,362950.68,362966.4000000004,362985.328,367350.837,1,20,9,
sequence,flow.Sequence,6_8,2023-11-14T18:44:18.443Z,,,,,,,,,,4350.372000001138,completion,,,,,,,high,high,,,,,,true,,,,false,367336.4000000004,367335.7000000011,362950.68,362966.4000000004,362985.328,367350.837,1,20,,
trial,html.Screen,6_9_0,2023-11-14T18:44:22.419Z,,,,1,-1.1204797335739165,-0.9035622700206098,,true,hh,3960.363000001118,response,0.7659443953145213,0.9499999999999997,-0.9499999999999997,0.8045475801082378,0.9499999999999997,-0.9499999999999997,high,high,,ISIC_5688950.JPG,,ISIC_0028929.JPG,167,true,hh,keypress(i),0,false,371311.5,371311.2000000011,367333.958,367336.6000000015,367350.837,371317.419,1,20,10,
sequence,flow.Sequence,6_9,2023-11-14T18:44:22.419Z,,,,,,,,,,3960.363000001118,completion,,,,,,,high,high,,,,,,true,,,,false,371311.80000000075,371311.2000000011,367333.958,367336.5,367350.837,371317.419,1,20,,
trial,html.Screen,6_10_0,2023-11-14T18:44:31.273Z,,,,1,1.0115965332688306,-0.8282633603842442,,true,lh,8848.181000001496,response,-0.8534691366511764,0.9499999999999997,-0.9499999999999997,1.03975580494588,0.9499999999999997,-0.9499999999999997,low,high,,ISIC_1069587.JPG,,ISIC_0056788.JPG,28,true,lh,keypress(e),0,false,380165.6000000015,380165.6000000015,371300.923,371312,371317.419,380167.384,1,20,11,
sequence,flow.Sequence,6_10,2023-11-14T18:44:31.273Z,,,,,,,,,,8848.181000001496,completion,,,,,,,low,high,,,,,,true,,,,false,380165.7000000011,380165.6000000015,371300.923,371311.9000000004,371317.419,380167.384,1,20,,
trial,html.Screen,6_11_0,2023-11-14T18:44:35.707Z,,,,1,-0.9454713230140772,0.9245167441969216,,true,hl,4432.416000000725,response,0.809764442462202,0.9499999999999997,-0.9499999999999997,-1.005337148078696,0.9499999999999997,-0.9499999999999997,high,low,,ISIC_9101055.JPG,,ISIC_2379379.JPG,26,true,hl,keypress(j),0,false,384600.1000000015,384599.80000000075,380150.388,380165.80000000075,380167.384,384617.632,1,20,12,
sequence,flow.Sequence,6_11,2023-11-14T18:44:35.708Z,,,,,,,,,,4432.416000000725,completion,,,,,,,high,low,,,,,,true,,,,false,384600.4000000004,384599.80000000075,380150.388,380165.80000000075,380167.384,384617.632,1,20,,
trial,html.Screen,6_12_0,2023-11-14T18:44:42.139Z,,,,1,-1.1181734135756094,0.944560381774994,,true,hl,6413.568000001134,response,0.948927472020595,0.9499999999999997,-0.9499999999999997,-1.0660437155921598,0.9499999999999997,-0.9499999999999997,high,low,,ISIC_9688534.JPG,,ISIC_5808758.JPG,26,true,hl,keypress(j),0,false,391031.5,391031.2000000011,384600.593,384600.7000000011,384617.632,391034.07,1,20,13,
sequence,flow.Sequence,6_12,2023-11-14T18:44:42.139Z,,,,,,,,,,6413.568000001134,completion,,,,,,,high,low,,,,,,true,,,,false,391031.9000000004,391031.2000000011,384600.593,384600.7000000011,384617.632,391034.07,1,20,,
trial,html.Screen,6_13_0,2023-11-14T18:44:46.001Z,,,,1,0.7911024675435955,-0.7975977016137676,,true,lh,3859.3300000003655,response,-1.020990671779317,0.9499999999999997,-0.9499999999999997,1.0116513850520903,0.9499999999999997,-0.9499999999999997,low,high,,ISIC_5813642.JPG,,ISIC_0011995.JPG,28,true,lh,keypress(e),0,false,394893.6000000015,394893.4000000004,391017.427,391032.1000000015,391034.07,394900.652,1,20,14,
sequence,flow.Sequence,6_13,2023-11-14T18:44:46.001Z,,,,,,,,,,3859.3300000003655,completion,,,,,,,low,high,,,,,,true,,,,false,394893.7000000011,394893.4000000004,391017.427,391032,391034.07,394900.652,1,20,,
trial,html.Screen,6_14_0,2023-11-14T18:44:50.403Z,,,,1,-0.8979276789594874,0.925374811016654,,true,hl,4394.748000000371,response,0.8200962008791046,0.9499999999999997,-0.9499999999999997,-0.7936051642828523,0.9499999999999997,-0.9499999999999997,high,low,,ISIC_4208361.JPG,,ISIC_0027031.JPG,26,true,hl,keypress(j),0,false,399295.7000000011,399295.4000000004,394884.124,394893.7000000011,394900.652,399300.646,1,20,15,
sequence,flow.Sequence,6_14,2023-11-14T18:44:50.403Z,,,,,,,,,,4394.748000000371,completion,,,,,,,high,low,,,,,,true,,,,false,399296.30000000075,399295.4000000004,394884.124,394893.7000000011,394900.652,399300.646,1,20,,
trial,html.Screen,6_15_0,2023-11-14T18:44:55.753Z,,,,1,0.7870237732709365,-0.9172955251119376,,true,lh,5345.05400000111,response,-0.8179805381029407,0.9499999999999997,-0.9499999999999997,0.8578467162767749,0.9499999999999997,-0.9499999999999997,low,high,,ISIC_0057716.JPG,,ISIC_0067253.JPG,28,true,lh,keypress(e),0,false,404645.9000000004,404645.7000000011,399284.098,399296.4000000004,399300.646,404650.65,1,20,16,
sequence,flow.Sequence,6_15,2023-11-14T18:44:55.753Z,,,,,,,,,,5345.05400000111,completion,,,,,,,low,high,,,,,,true,,,,false,404645.9000000004,404645.7000000011,399284.098,399296.4000000004,399300.646,404650.65,1,20,,
trial,html.Screen,6_16_0,2023-11-14T18:45:05.403Z,,,,1,0.8068224817535752,0.8996141262602615,,true,ll,9644.75000000035,response,-0.8985413691921805,0.9499999999999997,-0.9499999999999997,-1.1177351920180405,0.9499999999999997,-0.9499999999999997,low,low,,ISIC_0059601.JPG,,ISIC_2805573.JPG,142,true,ll,keypress(f),0,false,414295.7000000011,414295.4000000004,404634.022,404646.1000000015,404650.65,414300.627,1,20,17,
sequence,flow.Sequence,6_16,2023-11-14T18:45:05.403Z,,,,,,,,,,9644.75000000035,completion,,,,,,,low,low,,,,,,true,,,,false,414296.1000000015,414295.4000000004,404634.022,404646.1000000015,404650.65,414300.627,1,20,,
trial,html.Screen,6_17_0,2023-11-14T18:45:11.561Z,,,,1,0.9585938767259125,0.8441404886756483,,true,ll,6152.873000000021,response,-0.9156713992395168,0.9499999999999997,-0.9499999999999997,-0.7552260165227174,0.9499999999999997,-0.9499999999999997,low,low,,ISIC_0055003.JPG,,ISIC_0732375.JPG,142,true,ll,keypress(f),0,false,420453.6000000015,420453.5,414283.713,414296.30000000075,414300.627,420467.29,1,20,18,
sequence,flow.Sequence,6_17,2023-11-14T18:45:11.561Z,,,,,,,,,,6152.873000000021,completion,,,,,,,low,low,,,,,,true,,,,false,420453.80000000075,420453.5,414283.713,414296.2000000011,414300.627,420467.29,1,20,,
trial,html.Screen,6_18_0,2023-11-14T18:45:17.891Z,,,,1,0.8947611078712571,-0.8960964505004638,,true,lh,6315.6100000003935,response,-1.0751036484083878,0.9499999999999997,-0.9499999999999997,1.143906455483852,0.9499999999999997,-0.9499999999999997,low,high,,ISIC_6441128.JPG,,ISIC_0064406.JPG,28,true,lh,keypress(e),0,false,426783.2000000011,426782.9000000004,420450.68,420453.80000000075,420467.29,426800.62,1,20,19,
sequence,flow.Sequence,6_18,2023-11-14T18:45:17.892Z,,,,,,,,,,6315.6100000003935,completion,,,,,,,low,high,,,,,,true,,,,false,426783.6000000015,426782.9000000004,420450.68,420453.80000000075,420467.29,426800.62,1,20,,
trial,html.Screen,6_19_0,2023-11-14T18:45:21.785Z,,,,1,0.9808380646997692,0.7749885350260185,,true,ll,3876.780000000377,response,-0.8854665385930431,0.9499999999999997,-0.9499999999999997,-1.0235331176078744,0.9499999999999997,-0.9499999999999997,low,low,,ISIC_0032190.JPG,,ISIC_0026889.JPG,142,true,ll,keypress(f),0,false,430677.5,430677.4000000004,426783.796,426783.7000000011,426800.62,430683.915,1,20,20,
sequence,flow.Sequence,6_19,2023-11-14T18:45:21.786Z,,,,,,,,,,3876.780000000377,completion,,,,,,,low,low,,,,,,true,,,,false,430677.5,430677.4000000004,426783.796,426783.7000000011,426800.62,430683.915,1,20,,
practice_loop,flow.Loop,6,2023-11-14T18:45:21.786Z,,,,,,,,,,124409.80400000035,completion,,,,,,,,,,,,,,true,,,,false,430677.7000000011,430677.4000000004,306251.075,306269.2000000011,306267.596,430683.915,1,20,,
stair_instructions,html.Screen,7,2023-11-14T18:45:25.601Z,,,,,,,,,,3808.4850000003935,response,,,,,,,,,,,,,,,continue,click button,,,434492.9000000004,434492.4000000004,430667.397,430677.7000000011,430683.915,434500.642,,,,
trial,html.Screen,8_0_0,2023-11-14T18:45:36.595Z,,,,2,0.0538169356437535,-0.0113486191005169,,,,11016.834000000032,timeout,-1.0865333402803938,0.9499999999999997,-0.9499999999999997,1.0542635307358266,0.9499999999999997,-0.9499999999999997,low,high,,ISIC_0009939.JPG,,ISIC_0034006.JPG,28,false,,,0,true,445487.30000000075,445487.2000000011,434484.148,434493,434500.642,445517.476,1,40,1,
sequence,flow.Sequence,8_0,2023-11-14T18:45:36.595Z,,,,,,,,,,10986.558000001125,completion,,,,,,,low,high,,,,,,false,,,,true,445487.4000000004,445487.2000000011,434484.148,434493,434500.642,445517.476,1,40,,
trial,html.Screen,8_1_0,2023-11-14T18:45:41.385Z,,,,2,0.0070725527271049,0.0049995141077508,,false,lh,4759.624000001466,response,-0.9454713230140772,0.9499999999999997,-0.9499999999999997,0.9245167441969216,0.9499999999999997,-0.9499999999999997,low,high,,ISIC_6124481.JPG,,ISIC_9101055.JPG,28,false,hl,keypress(j),0,true,450277.2000000011,450277.1000000015,445500.643,445487.5,445517.476,450300.747,1,40,2,
sequence,flow.Sequence,8_1,2023-11-14T18:45:41.385Z,,,,,,,,,,4759.624000001466,completion,,,,,,,low,high,,,,,,false,,,,true,450277.30000000075,450277.1000000015,445500.643,445487.5,445517.476,450300.747,1,40,,
trial,html.Screen,8_2_0,2023-11-14T18:45:46.780Z,,,,2,-0.0565575423757561,-0.0394300226801425,,true,lh,5370.653000000399,response,-0.7836356408583546,0.8999999999999997,-0.9499999999999997,1.1197925594706428,0.9499999999999997,-0.8999999999999997,low,high,,ISIC_0046983.JPG,,ISIC_0024961.JPG,28,false,lh,keypress(e),0,true,455671.6000000015,455671.4000000004,450283.999,450277.4000000004,450300.747,455684.013,1,40,3,
sequence,flow.Sequence,8_2,2023-11-14T18:45:46.780Z,,,,,,,,,,5370.653000000399,completion,,,,,,,low,high,,,,,,false,,,,true,455671.9000000004,455671.4000000004,450283.999,450277.4000000004,450300.747,455684.013,1,40,,
trial,html.Screen,8_3_0,2023-11-14T18:45:51.352Z,,,,2,0.039728379742806,-0.0228701131373768,,true,ll,4560.287000000768,response,-0.8046999383319134,0.8499999999999996,-0.8999999999999997,-0.6537294558548551,0.8999999999999997,-0.8499999999999996,low,low,,ISIC_0054073.JPG,,ISIC_0016103.JPG,193,false,ll,keypress(f),0,true,460244.4000000004,460244.30000000075,455667.264,455672.2000000011,455684.013,460250.595,1,40,4,
sequence,flow.Sequence,8_3,2023-11-14T18:45:51.353Z,,,,,,,,,,4560.287000000768,completion,,,,,,,low,low,,,,,,false,,,,true,460244.5,460244.30000000075,455667.264,455672.2000000011,455684.013,460250.595,1,40,,
trial,html.Screen,8_4_0,2023-11-14T18:45:54.355Z,,,,2,,-0.0264544974620926,,true,ll,2996.405000000028,response,-0.5847664410067994,0.7999999999999996,-0.6941677895951339,-0.7931448667306491,0.8499999999999996,-0.7999999999999996,low,low,,ISIC_0056991.JPG,,ISIC_4432898.JPG,288,false,ll,keypress(f),0,true,463247.30000000075,463247,460233.786,460244.5,460250.595,463250.55,1,40,5,
sequence,flow.Sequence,8_4,2023-11-14T18:45:54.356Z,,,,,,,,,,2996.405000000028,completion,,,,,,,low,low,,,,,,false,,,,true,463247.6000000015,463247,460233.786,460244.5,460250.595,463250.55,1,40,,
trial,html.Screen,8_5_0,2023-11-14T18:45:59.995Z,,,,2,0.0640778296621707,0.0387686079545705,,false,hl,5636.250000000757,response,0.8588102663741646,0.7499999999999996,-0.6441677895951339,-0.581477816398024,0.7999999999999996,-0.6234371612927521,high,low,,ISIC_0010124.JPG,,ISIC_0497390.JPG,117,false,hh,keypress(i),0,true,468887,468886.80000000075,463234.013,463247.80000000075,463250.55,468900.743,1,40,6,
sequence,flow.Sequence,8_5,2023-11-14T18:45:59.995Z,,,,,,,,,,5636.250000000757,completion,,,,,,,high,low,,,,,,false,,,,true,468887.4000000004,468886.80000000075,463234.013,463247.80000000075,463250.55,468900.743,1,40,,
trial,html.Screen,8_6_0,2023-11-14T18:46:06.659Z,,,,2,0.0217698886732706,-0.0410870915161425,,false,hl,6650.157000000356,response,0.870890871959296,0.7499999999999996,-0.5941677895951338,-0.4905383361302732,0.7499999999999996,-0.6234371612927521,high,low,,ISIC_0072173.JPG,,ISIC_4518384.JPG,117,false,lh,keypress(e),0,true,475551.1000000015,475550.9000000004,468883.826,468887.6000000015,468900.743,475567.177,1,40,7,
sequence,flow.Sequence,8_6,2023-11-14T18:46:06.660Z,,,,,,,,,,6650.157000000356,completion,,,,,,,high,low,,,,,,false,,,,true,475551.6000000015,475550.9000000004,468883.826,468887.6000000015,468900.743,475567.177,1,40,,
trial,html.Screen,8_7_0,2023-11-14T18:46:12.316Z,,,,2,0.0194167651857046,0.0726253809408601,,true,hh,5640.12300000072,response,0.8823757673223558,0.7499999999999996,-0.5441677895951338,0.5406642403656111,0.6999999999999995,-0.6234371612927521,high,high,,ISIC_0056692.JPG,,ISIC_0056635.JPG,284,false,hh,keypress(i),0,true,481207.6000000015,481207.30000000075,475550.394,475551.80000000075,475567.177,481217.175,1,40,8,
sequence,flow.Sequence,8_7,2023-11-14T18:46:12.316Z,,,,,,,,,,5640.12300000072,completion,,,,,,,high,high,,,,,,false,,,,true,481208,481207.30000000075,475550.394,475551.80000000075,475567.177,481217.175,1,40,,
trial,html.Screen,8_8_0,2023-11-14T18:46:17.837Z,,,,2,-0.009234249673026,-0.0627190878028592,,false,hh,5510.525000001129,response,0.756093304599422,0.6999999999999995,-0.4941677895951338,0.6446856711428899,0.7302283999181269,-0.573437161292752,high,high,,ISIC_0053760.JPG,,ISIC_0026167.JPG,281,false,hl,keypress(j),0,true,486728,486727.7000000011,481200.421,481208.30000000075,481217.175,486733.739,1,40,9,
sequence,flow.Sequence,8_8,2023-11-14T18:46:17.837Z,,,,,,,,,,5510.525000001129,completion,,,,,,,high,high,,,,,,false,,,,true,486728.30000000075,486727.7000000011,481200.421,481208.2000000011,481217.175,486733.739,1,40,,
trial,html.Screen,8_9_0,2023-11-14T18:46:23.123Z,,,,2,0.0544808612748248,-0.0240487075377862,,false,lh,5280.161000000371,response,-0.3923678185842216,0.6999999999999995,-0.4941677895951338,0.5960160746908962,0.7302283999181269,-0.523437161292752,low,high,,ISIC_4606646.JPG,,ISIC_7284399.JPG,140,false,ll,keypress(f),0,true,492014.2000000011,492013.9000000004,486717.23,486728.5,486733.739,492017.168,1,40,10,
sequence,flow.Sequence,8_9,2023-11-14T18:46:23.123Z,,,,,,,,,,5280.161000000371,completion,,,,,,,low,high,,,,,,false,,,,true,492014.6000000015,492013.9000000004,486717.23,486728.5,486733.739,492017.168,1,40,,
trial,html.Screen,8_10_0,2023-11-14T18:46:28.516Z,,,,2,0.0217698886732706,-0.0410870915161425,,true,hl,5389.5320000011125,response,0.5041724573138133,0.6499999999999995,-0.4941677895951338,-0.3622358416680616,0.7302283999181269,-0.473437161292752,high,low,,ISIC_0072173.JPG,,ISIC_8560106.JPG,200,false,hl,keypress(j),0,true,497407,497406.7000000011,492000.478,492014.80000000075,492017.168,497417.129,1,40,11,
sequence,flow.Sequence,8_10,2023-11-14T18:46:28.516Z,,,,,,,,,,5389.5320000011125,completion,,,,,,,high,low,,,,,,false,,,,true,497407.4000000004,497406.7000000011,492000.478,492014.7000000011,492017.168,497417.129,1,40,,
trial,html.Screen,8_11_0,2023-11-14T18:46:34.363Z,,,,2,-0.0693466529227737,-0.044703434393184,,true,hh,5837.071000001102,response,0.6077323209803579,0.5301328809566176,-0.4941677895951338,0.7033897940828756,0.6802283999181269,-0.473437161292752,high,high,,ISIC_0004217.JPG,,ISIC_7528996.JPG,340,false,hh,keypress(i),0,true,503254.30000000075,503254.2000000011,497400.471,497407.6000000015,497417.129,503267.28,1,40,12,
sequence,flow.Sequence,8_11,2023-11-14T18:46:34.364Z,,,,,,,,,,5837.071000001102,completion,,,,,,,high,high,,,,,,false,,,,true,503254.7000000011,503254.2000000011,497400.471,497407.5,497417.129,503267.28,1,40,,
trial,html.Screen,8_12_0,2023-11-14T18:46:43.676Z,,,,2,-0.0644357632656846,-0.0501167370292348,,false,hh,9300.120000000345,response,0.4176181360231383,0.4801328809566176,-0.4941677895951338,0.4850449404253323,0.6302283999181268,-0.473437161292752,high,high,,ISIC_5207050.JPG,,ISIC_9241732.JPG,365,false,lh,keypress(e),0,true,512567.6000000015,512567.4000000004,503250.46,503255,503267.28,512583.947,1,40,13,
sequence,flow.Sequence,8_12,2023-11-14T18:46:43.677Z,,,,,,,,,,9300.120000000345,completion,,,,,,,high,high,,,,,,false,,,,true,512568.1000000015,512567.4000000004,503250.46,503254.9000000004,503267.28,512583.947,1,40,,
trial,html.Screen,8_13_0,2023-11-14T18:46:49.892Z,,,,2,0.007397293189458,0.0174716772037504,,true,hl,6199.153000001505,response,0.5606117028311798,0.4801328809566176,-0.4941677895951338,-0.4866952046365917,0.6302283999181268,-0.473437161292752,high,low,,ISIC_0056226.JPG,,ISIC_8348712.JPG,289,false,hl,keypress(j),0,true,518783.30000000075,518783.1000000015,512566.738,512568.2000000011,512583.947,518800.36,1,40,14,
sequence,flow.Sequence,8_13,2023-11-14T18:46:49.893Z,,,,,,,,,,6199.153000001505,completion,,,,,,,high,low,,,,,,false,,,,true,518783.7000000011,518783.1000000015,512566.738,512568.1000000015,512583.947,518800.36,1,40,,
trial,html.Screen,8_14_0,2023-11-14T18:46:56.788Z,,,,2,-0.0021038737988857,0.0570427519488725,,false,hl,6878.940000000759,response,0.6335341177393429,0.4801328809566176,-0.4941677895951338,-0.3908199431364583,0.5802283999181268,-0.423437161292752,high,low,,ISIC_3596927.JPG,,ISIC_6208708.JPG,316,false,ll,keypress(f),0,true,525679.5,525679.3000000007,518783.73,518783.9000000004,518800.36,525683.733,1,40,15,
sequence,flow.Sequence,8_14,2023-11-14T18:46:56.789Z,,,,,,,,,,6878.940000000759,completion,,,,,,,high,low,,,,,,false,,,,true,525679.9000000004,525679.3000000007,518783.73,518783.9000000004,518800.36,525683.733,1,40,,
trial,html.Screen,8_15_0,2023-11-14T18:47:03.275Z,,,,2,0.0651705891246238,-0.0394586219902573,,true,hl,6482.567000000738,response,0.5476819578937169,0.4801328809566176,-0.4941677895951338,-0.3421430558150315,0.5302283999181268,-0.473437161292752,high,low,,ISIC_0013491.JPG,,ISIC_0013232.JPG,289,false,hl,keypress(j),0,true,532166.6000000015,532166.3000000007,525666.861,525680.1000000015,525683.733,532183.873,1,40,16,
sequence,flow.Sequence,8_15,2023-11-14T18:47:03.276Z,,,,,,,,,,6482.567000000738,completion,,,,,,,high,low,,,,,,false,,,,true,532166.9000000004,532166.3000000007,525666.861,525680,525683.733,532183.873,1,40,,
trial,html.Screen,8_16_0,2023-11-14T18:47:10.442Z,,,,2,0.0116094682222121,-0.0258434522530318,,false,hl,7149.327000001096,response,0.4685582073401164,0.4801328809566176,-0.4941677895951338,-0.4504649769975533,0.48022839991812677,-0.423437161292752,high,low,,ISIC_9239632.JPG,,ISIC_8666446.JPG,316,false,ll,keypress(f),0,true,539333.3000000007,539333.2000000011,532166.995,532167.2000000011,532183.873,539350.505,1,40,17,
sequence,flow.Sequence,8_16,2023-11-14T18:47:10.442Z,,,,,,,,,,7149.327000001096,completion,,,,,,,high,low,,,,,,false,,,,true,539333.4000000004,539333.2000000011,532166.995,532167.1000000015,532183.873,539350.505,1,40,,
trial,html.Screen,8_17_0,2023-11-14T18:47:13.909Z,,,,2,0.0050679133050021,-0.0009714874637896,,true,ll,3448.9949999999953,response,-0.5415906991844043,0.4801328809566176,-0.4941677895951338,-0.6526724457046548,0.48022839991812677,-0.473437161292752,low,low,,ISIC_9848743.JPG,,ISIC_4876193.JPG,486,false,ll,keypress(f),0,true,542799.7000000011,542799.5,539317.021,539333.5,539350.505,542817.201,1,40,18,
sequence,flow.Sequence,8_17,2023-11-14T18:47:13.909Z,,,,,,,,,,3448.9949999999953,completion,,,,,,,low,low,,,,,,false,,,,true,542800.1000000015,542799.5,539317.021,539333.4000000004,539350.505,542817.201,1,40,,
trial,html.Screen,8_18_0,2023-11-14T18:47:21.869Z,,,,2,-0.0051189696037511,0.0396625911332438,,false,hl,7941.499000001117,response,0.4993042617060183,0.4801328809566176,-0.4441677895951338,-0.2900506843982188,0.48022839991812677,-0.45156871135110405,high,low,,ISIC_9742891.JPG,,ISIC_0046633.JPG,299,false,hh,keypress(i),0,true,550758.9000000004,550758.7000000011,542800.211,542800.3000000007,542817.201,550766.906,1,40,19,
sequence,flow.Sequence,8_18,2023-11-14T18:47:21.869Z,,,,,,,,,,7941.499000001117,completion,,,,,,,high,low,,,,,,false,,,,true,550759.2000000011,550758.7000000011,542800.211,542800.2000000011,542817.201,550766.906,1,40,,
trial,html.Screen,8_19_0,2023-11-14T18:47:28.229Z,,,,2,-0.0292059717970335,-0.0718256867525069,,false,hh,6352.294000001159,response,0.2979506764613467,0.4801328809566176,-0.4441677895951338,0.3960799813165453,0.48022839991812677,-0.45156871135110405,high,high,,ISIC_1114966.JPG,,ISIC_0033007.JPG,408,false,ll,keypress(f),0,true,557119.5,557119.2000000011,550750.244,550759.5,550766.906,557133.639,1,40,20,
sequence,flow.Sequence,8_19,2023-11-14T18:47:28.230Z,,,,,,,,,,6352.294000001159,completion,,,,,,,high,high,,,,,,false,,,,true,557119.9000000004,557119.2000000011,550750.244,550759.4000000004,550766.906,557133.639,1,40,,
trial,html.Screen,8_20_0,2023-11-14T18:47:33.405Z,,,,2,0.0247880219471745,-0.0687761754603142,,true,hl,5161.461000001524,response,0.4555850326829644,0.4801328809566176,-0.4441677895951338,-0.4160279243848386,0.48022839991812677,-0.45156871135110405,high,low,,ISIC_0031745.JPG,,ISIC_3072382.JPG,299,false,hl,keypress(j),0,true,562295.4000000004,562295.1000000015,557117.002,557120,557133.639,562300.227,1,40,21,
sequence,flow.Sequence,8_20,2023-11-14T18:47:33.406Z,,,,,,,,,,5161.461000001524,completion,,,,,,,high,low,,,,,,false,,,,true,562295.9000000004,562295.1000000015,557117.002,557120,557133.639,562300.227,1,40,,
trial,html.Screen,8_21_0,2023-11-14T18:47:40.868Z,,,,2,-0.0102460616775615,0.0309670599545429,,false,lh,7458.173000000417,response,-0.2471346523843268,0.4801328809566176,-0.4441677895951338,0.5310260169959041,0.48022839991812677,-0.45156871135110405,low,high,,ISIC_0072041.JPG,,ISIC_3655327.JPG,271,false,hh,keypress(i),0,true,569758.7000000011,569758.4000000004,562283.617,562296,562300.227,569766.947,1,40,22,
sequence,flow.Sequence,8_21,2023-11-14T18:47:40.869Z,,,,,,,,,,7458.173000000417,completion,,,,,,,low,high,,,,,,false,,,,true,569759,569758.4000000004,562283.617,562296,562300.227,569766.947,1,40,,
trial,html.Screen,8_22_0,2023-11-14T18:47:47.877Z,,,,2,-0.0149482827359613,0.0661630859332833,,false,ll,7000.253000001074,response,-0.6673275088080878,0.4801328809566176,-0.4941677895951338,-0.3878495525363343,0.48022839991812677,-0.45156871135110405,low,low,,ISIC_6815524.JPG,,ISIC_9395707.JPG,490,false,lh,keypress(e),0,true,576767.3000000007,576767.2000000011,569749.946,569759.2000000011,569766.947,576783.78,1,40,23,
sequence,flow.Sequence,8_22,2023-11-14T18:47:47.878Z,,,,,,,,,,7000.253000001074,completion,,,,,,,low,low,,,,,,false,,,,true,576767.8000000007,576767.2000000011,569749.946,569759.2000000011,569766.947,576783.78,1,40,,
trial,html.Screen,8_23_0,2023-11-14T18:47:53.949Z,,,,2,-0.0113873532168551,-0.0054999201556291,,false,hh,6055.120000000345,response,0.3616229012242534,0.4801328809566176,-0.4941677895951338,0.4343243480445005,0.48022839991812677,-0.45156871135110405,high,high,,ISIC_8812621.JPG,,ISIC_0013525.JPG,408,false,hl,keypress(j),0,true,582839.2000000011,582838.9000000004,576766.863,576768,576783.78,582850.203,1,40,24,
sequence,flow.Sequence,8_23,2023-11-14T18:47:53.949Z,,,,,,,,,,6055.120000000345,completion,,,,,,,high,high,,,,,,false,,,,true,582839.5,582838.9000000004,576766.863,576767.9000000004,576783.78,582850.203,1,40,,
trial,html.Screen,8_24_0,2023-11-14T18:47:59.835Z,,,,2,-0.0102460616775615,0.0309670599545429,,false,hh,5874.997000001138,response,0.6179272892550339,0.4801328809566176,-0.4941677895951338,0.4765199119849577,0.48022839991812677,-0.45156871135110405,high,high,,ISIC_0072041.JPG,,ISIC_8911740.JPG,408,false,ll,keypress(f),0,true,588725.4000000004,588725.2000000011,582833.545,582839.7000000011,582850.203,588733.571,1,40,25,
sequence,flow.Sequence,8_24,2023-11-14T18:47:59.835Z,,,,,,,,,,5874.997000001138,completion,,,,,,,high,high,,,,,,false,,,,true,588725.4000000004,588725.2000000011,582833.545,582839.6000000015,582850.203,588733.571,1,40,,
trial,html.Screen,8_25_0,2023-11-14T18:48:03.404Z,,,,2,-0.009234249673026,-0.0627190878028592,,true,ll,3560.729000000749,response,-0.6428804214613505,0.4801328809566176,-0.4941677895951338,-0.5486726050076405,0.48022839991812677,-0.45156871135110405,low,low,,ISIC_0053760.JPG,,ISIC_0027132.JPG,490,false,ll,keypress(f),0,true,592294.5,592294.3000000007,588716.881,588725.5,588733.571,592300.126,1,40,26,
sequence,flow.Sequence,8_25,2023-11-14T18:48:03.405Z,,,,,,,,,,3560.729000000749,completion,,,,,,,low,low,,,,,,false,,,,true,592294.9000000004,592294.3000000007,588716.881,588725.5,588733.571,592300.126,1,40,,
trial,html.Screen,8_26_0,2023-11-14T18:48:14.341Z,,,,2,0.0070725527271049,0.0049995141077508,,true,lh,10930.474000001443,response,-0.6216732136510695,0.4801328809566176,-0.555103965134719,0.2856468426057901,0.48022839991812677,-0.45156871135110405,low,high,,ISIC_6124481.JPG,,ISIC_0012391.JPG,229,false,lh,keypress(e),0,true,603230.8000000007,603230.6000000015,592283.523,592295.1000000015,592300.126,603250.396,1,40,27,
sequence,flow.Sequence,8_26,2023-11-14T18:48:14.341Z,,,,,,,,,,10930.474000001443,completion,,,,,,,low,high,,,,,,false,,,,true,603231.3000000007,603230.6000000015,592283.523,592295.1000000015,592300.126,603250.396,1,40,,
trial,html.Screen,8_27_0,2023-11-14T18:48:21.046Z,,,,2,0.0544808612748248,-0.0240487075377862,,true,ll,6684.70400000154,response,-0.5880042679631254,0.4801328809566176,-0.505103965134719,-0.4497507507496759,0.48022839991812677,-0.45156871135110405,low,low,,ISIC_4606646.JPG,,ISIC_0034000.JPG,480,false,ll,keypress(f),0,true,609935.2000000011,609935.1000000015,603233.516,603231.5,603250.396,609950.218,1,40,28,
sequence,flow.Sequence,8_27,2023-11-14T18:48:21.046Z,,,,,,,,,,6684.70400000154,completion,,,,,,,low,low,,,,,,false,,,,true,609935.7000000011,609935.1000000015,603233.516,603231.5,603250.396,609950.218,1,40,,
trial,html.Screen,8_28_0,2023-11-14T18:48:26.548Z,,,,2,-0.0737104822171846,0.0725320314728604,,true,lh,5486.482000001124,response,-0.6029366212365675,0.4801328809566176,-0.5048387408070973,0.307782853967267,0.48022839991812677,-0.40156871135110406,low,high,,ISIC_0002862.JPG,,ISIC_2406492.JPG,257,false,lh,keypress(e),0,true,615436.8000000007,615436.7000000011,609933.246,609935.9000000004,609950.218,615450.044,1,40,29,
sequence,flow.Sequence,8_28,2023-11-14T18:48:26.548Z,,,,,,,,,,5486.482000001124,completion,,,,,,,low,high,,,,,,false,,,,true,615436.9000000004,615436.7000000011,609933.246,609935.8000000007,609950.218,615450.044,1,40,,
trial,html.Screen,8_29_0,2023-11-14T18:48:32.996Z,,,,2,-0.0245376145053177,0.0436993426328401,,true,hh,6434.956000000006,response,0.4516429692993575,0.4801328809566176,-0.45483874080709735,0.4977395003912175,0.4302283999181268,-0.40156871135110406,high,high,,ISIC_0056444.JPG,,ISIC_4781223.JPG,411,false,hh,keypress(i),0,true,621885.1000000015,621885,615433.36,615437,615450.044,621900.153,1,40,30,
sequence,flow.Sequence,8_29,2023-11-14T18:48:32.996Z,,,,,,,,,,6434.956000000006,completion,,,,,,,high,high,,,,,,false,,,,true,621885.2000000011,621885,615433.36,615436.9000000004,615450.044,621900.153,1,40,,
trial,html.Screen,8_30_0,2023-11-14T18:48:39.860Z,,,,2,0.0450282431170921,,,false,ll,6849.047000001068,response,-0.5721339734405174,0.4801328809566176,-0.45483874080709735,-0.3003773796877153,0.4302283999181268,-0.40156871135110406,low,low,,ISIC_1805163.JPG,,ISIC_9045601.JPG,530,false,hl,keypress(j),0,true,628749.3000000007,628749.2000000011,621883.171,621885.3000000007,621900.153,628767.046,1,40,31,
sequence,flow.Sequence,8_30,2023-11-14T18:48:39.860Z,,,,,,,,,,6849.047000001068,completion,,,,,,,low,low,,,,,,false,,,,true,628749.4000000004,628749.2000000011,621883.171,621885.3000000007,621900.153,628767.046,1,40,,
trial,html.Screen,8_31_0,2023-11-14T18:48:46.037Z,,,,2,-0.0644357632656846,-0.0501167370292348,,false,ll,6158.954000000027,response,-0.4700399098626282,0.4801328809566176,-0.45483874080709735,-0.362759556503249,0.4302283999181268,-0.45156871135110405,low,low,,ISIC_5207050.JPG,,ISIC_0046422.JPG,515,false,lh,keypress(e),0,true,634926.3000000007,634926,628733.373,628749.5,628767.046,634933.365,1,40,32,
sequence,flow.Sequence,8_31,2023-11-14T18:48:46.037Z,,,,,,,,,,6158.954000000027,completion,,,,,,,low,low,,,,,,false,,,,true,634926.7000000011,634926,628733.373,628749.4000000004,628767.046,634933.365,1,40,,
trial,html.Screen,8_32_0,2023-11-14T18:48:50.726Z,,,,2,-0.0113873532168551,-0.0054999201556291,,false,ll,4681.935000000754,response,-0.331665593861348,0.4801328809566176,-0.45483874080709735,-0.6455946340381131,0.4302283999181268,-0.45156871135110405,low,low,,ISIC_8812621.JPG,,ISIC_3701563.JPG,515,false,lh,keypress(e),0,true,639615.6000000015,639615.3000000007,634916.786,634926.9000000004,634933.365,639650.106,1,40,33,
sequence,flow.Sequence,8_32,2023-11-14T18:48:50.727Z,,,,,,,,,,4681.935000000754,completion,,,,,,,low,low,,,,,,false,,,,true,639616,639615.3000000007,634916.786,634926.9000000004,634933.365,639650.106,1,40,,
trial,html.Screen,8_33_0,2023-11-14T18:48:56.726Z,,,,2,0.0640778296621707,0.0387686079545705,,false,hl,5965.094000001089,response,0.6669021150735244,0.4801328809566176,-0.45483874080709735,-0.4144861126240574,0.4302283999181268,-0.45156871135110405,high,low,,ISIC_0010124.JPG,,ISIC_9163466.JPG,299,false,hh,keypress(i),0,true,645615.4000000004,645615.2000000011,639633.6,639616.1000000015,639650.106,645633.575,1,40,34,
sequence,flow.Sequence,8_33,2023-11-14T18:48:56.726Z,,,,,,,,,,5965.094000001089,completion,,,,,,,high,low,,,,,,false,,,,true,645615.8000000007,645615.2000000011,639633.6,639616.1000000015,639650.106,645633.575,1,40,,
trial,html.Screen,8_34_0,2023-11-14T18:49:05.789Z,,,,2,0.0217698886732706,-0.0410870915161425,,false,lh,9044.525000001537,response,-0.4919985483004544,0.4801328809566176,-0.45483874080709735,0.3815259486513303,0.4302283999181268,-0.45156871135110405,low,high,,ISIC_0072173.JPG,,ISIC_3520709.JPG,272,false,hl,keypress(j),0,true,654678.3000000007,654678.1000000015,645600.045,645615.9000000004,645633.575,654683.301,1,40,35,
sequence,flow.Sequence,8_34,2023-11-14T18:49:05.789Z,,,,,,,,,,9044.525000001537,completion,,,,,,,low,high,,,,,,false,,,,true,654678.6000000015,654678.1000000015,645600.045,645615.9000000004,645633.575,654683.301,1,40,,
trial,html.Screen,8_35_0,2023-11-14T18:49:09.717Z,,,,2,-0.0134764727102299,-0.0033499036460912,,false,ll,3922.7990000015125,response,-0.4085620787767833,0.4801328809566176,-0.45483874080709735,-0.4084154472315288,0.48022839991812677,-0.45156871135110405,low,low,,ISIC_0009998.JPG,,ISIC_2948896.JPG,515,false,lh,keypress(e),0,true,658606.3000000007,658606.1000000015,654666.611,654678.9000000004,654683.301,658616.694,1,40,36,
sequence,flow.Sequence,8_35,2023-11-14T18:49:09.717Z,,,,,,,,,,3922.7990000015125,completion,,,,,,,low,low,,,,,,false,,,,true,658606.7000000011,658606.1000000015,654666.611,654678.9000000004,654683.301,658616.694,1,40,,
trial,html.Screen,8_36_0,2023-11-14T18:49:14.230Z,,,,2,0.0509970506474296,0.0744820958440291,,false,hh,4502.305999999982,response,0.4743028911143829,0.4801328809566176,-0.45483874080709735,0.4293585010107659,0.48022839991812677,-0.45156871135110405,high,high,,ISIC_0009975.JPG,,ISIC_9241599.JPG,408,false,lh,keypress(e),0,true,663119.3000000007,663119,658600.035,658606.9000000004,658616.694,663133.53,1,40,37,
sequence,flow.Sequence,8_36,2023-11-14T18:49:14.230Z,,,,,,,,,,4502.305999999982,completion,,,,,,,high,high,,,,,,false,,,,true,663119.7000000011,663119,658600.035,658606.9000000004,658616.694,663133.53,1,40,,
trial,html.Screen,8_37_0,2023-11-14T18:49:19.215Z,,,,2,0.0389988030702649,0.0143212271490256,,false,hh,4969.469999999972,response,0.6613261875714178,0.4801328809566176,-0.45483874080709735,0.4694257959391162,0.48022839991812677,-0.45156871135110405,high,high,,ISIC_0064669.JPG,,ISIC_2829088.JPG,408,false,hl,keypress(j),0,true,668103.2000000011,668103,663116.759,663119.9000000004,663133.53,668116.861,1,40,38,
sequence,flow.Sequence,8_37,2023-11-14T18:49:19.215Z,,,,,,,,,,4969.469999999972,completion,,,,,,,high,high,,,,,,false,,,,true,668103.6000000015,668103,663116.759,663119.9000000004,663133.53,668116.861,1,40,,
trial,html.Screen,8_38_0,2023-11-14T18:49:27.438Z,,,,2,0.0389988030702649,0.0143212271490256,,false,lh,8209.339000001084,response,-0.5609265012715516,0.4801328809566176,-0.45483874080709735,0.2855892572043879,0.48022839991812677,-0.45156871135110405,low,high,,ISIC_0064669.JPG,,ISIC_9103090.JPG,264,false,hl,keypress(j),0,true,676326.5,676326.2000000011,668099.898,668103.8000000007,668116.861,676333.247,1,40,39,
sequence,flow.Sequence,8_38,2023-11-14T18:49:27.438Z,,,,,,,,,,8209.339000001084,completion,,,,,,,low,high,,,,,,false,,,,true,676326.9000000004,676326.2000000011,668099.898,668103.8000000007,668116.861,676333.247,1,40,,
trial,html.Screen,8_39_0,2023-11-14T18:49:37.206Z,,,,2,-0.0159061451859594,-0.0296598845560212,,false,lh,9760.853000001516,response,-0.6278135334147718,0.4801328809566176,-0.45483874080709735,0.5606297898191711,0.48022839991812677,-0.45156871135110405,low,high,,ISIC_0072564.JPG,,ISIC_0058303.JPG,264,false,hl,keypress(j),0,true,686094.4000000004,686094.1000000015,676316.328,676327.1000000015,676333.247,686099.884,1,40,40,
sequence,flow.Sequence,8_39,2023-11-14T18:49:37.206Z,,,,,,,,,,9760.853000001516,completion,,,,,,,low,high,,,,,,false,,,,true,686094.7000000011,686094.1000000015,676316.328,676327.1000000015,676333.247,686099.884,1,40,,
stair_loop,flow.Loop,8,2023-11-14T18:49:37.206Z,,,,,,,,,,251593.4580000015,completion,,,,,,,,,,,,,,false,,,,true,686095,686094.1000000015,434484.148,434493,434500.642,686099.884,1,40,,
exp_instructions,html.Screen,9,2023-11-14T18:50:02.110Z,,,,,,,,,,24898.21600000153,response,,,,,,,,,,,,,,,continue,keypress(Space),,,710998.7000000011,710998.1000000015,686082.894,686095.2000000011,686099.884,711016.938,,,,
trial,html.Screen,10_0_0,2023-11-14T18:50:07.403Z,,,,1,0.0415913596725838,-0.0543422987007948,,false,lh,5274.3620000007795,response,-0.5940148458258058,0.4801328809566174,-0.47166397787627046,0.6288785570130496,0.4652283999181268,-0.4440687113511042,low,high,,ISIC_0027956.JPG,8,ISIC_0025835.JPG,263,false,ll,keypress(f),0,false,716291.4000000004,716291.3000000007,710999.077,710999,711016.938,716299.861,4,500,1,
break,html.Screen,10_0_1,2023-11-14T18:50:07.403Z,,,,,,,,,,NaN,,,,,,,,low,high,,,,,,false,,,,false,716291.8000000007,716291.8000000007,,716291.6000000015,,716299.861,4,500,,
break_continue,html.Screen,10_0_2,2023-11-14T18:50:07.403Z,,,,,,,,,,NaN,,,,,,,,low,high,,,,,,false,,,,false,716292.1000000015,716292,,716291.9000000004,,716299.861,4,500,,
sequence,flow.Sequence,10_0,2023-11-14T18:50:07.404Z,,,,,,,,,,5275.0620000000345,completion,,,,,,,low,high,,,,,,false,,,,false,716292.1000000015,716292,710999.077,710999,711016.938,716299.861,4,500,,
trial,html.Screen,10_1_0,2023-11-14T18:50:13.718Z,,,,1,0.0660839342637046,-0.0657899819532072,,false,ll,6306.239000001457,response,-0.5616736841813308,0.4801328809566174,-0.47166397787627046,-0.4169894315927258,0.4652283999181268,-0.4440687113511042,low,low,,ISIC_0065477.JPG,9,ISIC_0026281.JPG,498,false,hl,keypress(j),0,false,722606.4000000004,722606.1000000015,716283.158,716292.3000000007,716299.861,722616.502,4,500,2,
break,html.Screen,10_1_1,2023-11-14T18:50:13.719Z,,,,,,,,,,NaN,,,,,,,,low,low,,,,,,false,,,,false,722607.4000000004,722607.1000000015,,722606.7000000011,,722616.502,4,500,,
break_continue,html.Screen,10_1_2,2023-11-14T18:50:13.719Z,,,,,,,,,,NaN,,,,,,,,low,low,,,,,,false,,,,false,722607.9000000004,722607.7000000011,,722607.6000000015,,722616.502,4,500,,
sequence,flow.Sequence,10_1,2023-11-14T18:50:13.720Z,,,,,,,,,,6307.839000001084,completion,,,,,,,low,low,,,,,,false,,,,false,722608.2000000011,722607.7000000011,716283.158,716292.2000000011,716299.861,722616.502,4,500,,
trial,html.Screen,10_2_0,2023-11-14T18:50:19.341Z,,,,1,0.0336891949856763,0.060314732178219,,true,hh,5612.2980000007665,response,0.6345556109065063,0.4801328809566174,-0.47166397787627046,0.296436039989876,0.4652283999181268,-0.4440687113511042,high,high,,ISIC_6192289.JPG,8,ISIC_0027764.JPG,407,false,hh,keypress(i),0,false,728228.9000000004,728228.8000000007,722599.783,722608.4000000004,722616.502,728233.067,4,500,3,
break,html.Screen,10_2_1,2023-11-14T18:50:19.341Z,,,,,,,,,,NaN,,,,,,,,high,high,,,,,,false,,,,false,728229.2000000011,728229.1000000015,,728229,,728233.067,4,500,,
break_continue,html.Screen,10_2_2,2023-11-14T18:50:19.341Z,,,,,,,,,,NaN,,,,,,,,high,high,,,,,,false,,,,false,728229.4000000004,728229.3000000007,,728229.2000000011,,728233.067,4,500,,
sequence,flow.Sequence,10_2,2023-11-14T18:50:19.342Z,,,,,,,,,,5612.7980000007665,completion,,,,,,,high,high,,,,,,false,,,,false,728229.5,728229.3000000007,722599.783,722608.3000000007,722616.502,728233.067,4,500,,
trial,html.Screen,10_3_0,2023-11-14T18:50:26.887Z,,,,1,0.0116094682222121,-0.0258434522530318,,true,ll,7541.833000000333,response,-0.3685970815921837,0.4801328809566174,-0.47166397787627046,-0.4157689679459186,0.4652283999181268,-0.4440687113511042,low,low,,ISIC_9239632.JPG,9,ISIC_6220953.JPG,498,false,ll,keypress(f),0,false,735775.2000000011,735774.9000000004,728216.585,728229.6000000015,728233.067,735783.064,4,500,4,
break,html.Screen,10_3_1,2023-11-14T18:50:26.888Z,,,,,,,,,,NaN,,,,,,,,low,low,,,,,,false,,,,false,735776.2000000011,735775.9000000004,,735775.6000000015,,735783.064,4,500,,
break_continue,html.Screen,10_3_2,2023-11-14T18:50:26.889Z,,,,,,,,,,NaN,,,,,,,,low,low,,,,,,false,,,,false,735776.8000000007,735776.6000000015,,735776.4000000004,,735783.064,4,500,,
sequence,flow.Sequence,10_3,2023-11-14T18:50:26.889Z,,,,,,,,,,7543.533000001451,completion,,,,,,,low,low,,,,,,false,,,,false,735776.9000000004,735776.6000000015,728216.585,728229.5,728233.067,735783.064,4,500,,
trial,html.Screen,10_4_0,2023-11-14T18:50:32.454Z,,,,1,0.0116094682222121,-0.0258434522530318,,false,ll,5558.8360000003595,response,-0.5096335382211149,0.4801328809566174,-0.47166397787627046,-0.3520264852440667,0.4652283999181268,-0.4440687113511042,low,low,,ISIC_9239632.JPG,8,ISIC_2161864.JPG,498,false,hh,keypress(i),0,false,741342.1000000015,741341.9000000004,735766.422,735777.1000000015,735783.064,741349.73,4,500,5,
break,html.Screen,10_4_1,2023-11-14T18:50:32.455Z,,,,,,,,,,NaN,,,,,,,,low,low,,,,,,false,,,,false,741343.1000000015,741342.9000000004,,741342.5,,741349.73,4,500,,
break_continue,html.Screen,10_4_2,2023-11-14T18:50:32.456Z,,,,,,,,,,NaN,,,,,,,,low,low,,,,,,false,,,,false,741343.7000000011,741343.5,,741343.3000000007,,741349.73,4,500,,
sequence,flow.Sequence,10_4,2023-11-14T18:50:32.456Z,,,,,,,,,,5560.435999999987,completion,,,,,,,low,low,,,,,,false,,,,false,741343.9000000004,741343.5,735766.422,735777.1000000015,735783.064,741349.73,4,500,,
trial,html.Screen,10_5_0,2023-11-14T18:50:36.214Z,,,,1,-0.000047919190197942736,-0.0462652940855003,,true,hl,3751.970000001136,response,0.3667085117372861,0.4801328809566174,-0.47166397787627046,-0.3677742909987275,0.4652283999181268,-0.4440687113511042,high,low,,ISIC_0011507.JPG,8,ISIC_0182020.JPG,303,false,hl,keypress(j),0,false,745101.9000000004,745101.7000000011,741332.948,741344.2000000011,741349.73,745116.421,4,500,6,
break,html.Screen,10_5_1,2023-11-14T18:50:36.215Z,,,,,,,,,,NaN,,,,,,,,high,low,,,,,,false,,,,false,745102.9000000004,745102.7000000011,,745102.3000000007,,745116.421,4,500,,
break_continue,html.Screen,10_5_2,2023-11-14T18:50:36.216Z,,,,,,,,,,NaN,,,,,,,,high,low,,,,,,false,,,,false,745103.5,745103.2000000011,,745103,,745116.421,4,500,,
sequence,flow.Sequence,10_5,2023-11-14T18:50:36.216Z,,,,,,,,,,3753.470000001136,completion,,,,,,,high,low,,,,,,false,,,,false,745103.6000000015,745103.2000000011,741332.948,741344.1000000015,741349.73,745116.421,4,500,,
trial,html.Screen,10_6_0,2023-11-14T18:50:42.135Z,,,,1,-0.0367218428225813,-0.0700576547090477,,false,ll,5905.9790000003995,response,-0.5441019652715983,0.4801328809566174,-0.47166397787627046,-0.6135679022908136,0.4652283999181268,-0.4440687113511042,low,low,,ISIC_7212271.JPG,9,ISIC_1850674.JPG,498,false,hh,keypress(i),0,false,751022.6000000015,751022.4000000004,745099.614,745103.8000000007,745116.421,751033.093,4,500,7,
break,html.Screen,10_6_1,2023-11-14T18:50:42.136Z,,,,,,,,,,NaN,,,,,,,,low,low,,,,,,false,,,,false,751023.6000000015,751023.3000000007,,751022.9000000004,,751033.093,4,500,,
break_continue,html.Screen,10_6_2,2023-11-14T18:50:42.136Z,,,,,,,,,,NaN,,,,,,,,low,low,,,,,,false,,,,false,751024.3000000007,751024.1000000015,,751023.8000000007,,751033.093,4,500,,
sequence,flow.Sequence,10_6,2023-11-14T18:50:42.137Z,,,,,,,,,,5907.679000001517,completion,,,,,,,low,low,,,,,,false,,,,false,751024.5,751024.1000000015,745099.614,745103.8000000007,745116.421,751033.093,4,500,,
trial,html.Screen,10_7_0,2023-11-14T18:50:49.302Z,,,,1,-0.0348234368746005,0.0236866303880924,,true,ll,7157.007000001497,response,-0.5920446542767612,0.4801328809566174,-0.47166397787627046,-0.2465673766699149,0.4652283999181268,-0.4440687113511042,low,low,,ISIC_0011099.JPG,9,ISIC_0067167.JPG,498,false,ll,keypress(f),0,false,758190.3000000007,758190.1000000015,751016.444,751024.7000000011,751033.093,758199.697,4,500,8,
break,html.Screen,10_7_1,2023-11-14T18:50:49.303Z,,,,,,,,,,NaN,,,,,,,,low,low,,,,,,false,,,,false,758191.2000000011,758191,,758190.6000000015,,758199.697,4,500,,
break_continue,html.Screen,10_7_2,2023-11-14T18:50:49.304Z,,,,,,,,,,NaN,,,,,,,,low,low,,,,,,false,,,,false,758191.8000000007,758191.6000000015,,758191.4000000004,,758199.697,4,500,,
sequence,flow.Sequence,10_7,2023-11-14T18:50:49.304Z,,,,,,,,,,7158.507000001497,completion,,,,,,,low,low,,,,,,false,,,,false,758192,758191.6000000015,751016.444,751024.6000000015,751033.093,758199.697,4,500,,
trial,html.Screen,10_8_0,2023-11-14T18:50:53.686Z,,,,1,0.0217698886732706,-0.0410870915161425,,true,hl,4374.103000000701,response,0.4291342981010787,0.4801328809566174,-0.47166397787627046,-0.308761265061473,0.4652283999181268,-0.4440687113511042,high,low,,ISIC_0072173.JPG,9,ISIC_7101810.JPG,303,false,hl,keypress(j),0,false,762574.2000000011,762573.8000000007,758183.156,758192.1000000015,758199.697,762583.022,4,500,9,
break,html.Screen,10_8_1,2023-11-14T18:50:53.687Z,,,,,,,,,,NaN,,,,,,,,high,low,,,,,,false,,,,false,762575.4000000004,762575,,762574.6000000015,,762583.022,4,500,,
break_continue,html.Screen,10_8_2,2023-11-14T18:50:53.688Z,,,,,,,,,,NaN,,,,,,,,high,low,,,,,,false,,,,false,762576.1000000015,762575.8000000007,,762575.6000000015,,762583.022,4,500,,
sequence,flow.Sequence,10_8,2023-11-14T18:50:53.688Z,,,,,,,,,,4376.103000000701,completion,,,,,,,high,low,,,,,,false,,,,false,762576.3000000007,762575.8000000007,758183.156,758192.1000000015,758199.697,762583.022,4,500,,
trial,html.Screen,10_9_0,2023-11-14T18:50:59.893Z,,,,1,-0.0531672914703651,0.0074883925434357,,false,lh,6197.378000000375,response,-0.3338206916916828,0.4801328809566174,-0.47166397787627046,0.277614898914698,0.4652283999181268,-0.4440687113511042,low,high,,ISIC_4177043.JPG,9,ISIC_1017377.JPG,263,false,ll,keypress(f),0,false,768780.5,768780.4000000004,762566.554,762576.5,762583.022,768782.952,4,500,10,
break,html.Screen,10_9_1,2023-11-14T18:50:59.893Z,,,,,,,,,,NaN,,,,,,,,low,high,,,,,,false,,,,false,768780.9000000004,768780.7000000011,,768780.6000000015,,768782.952,4,500,,
break_continue,html.Screen,10_9_2,2023-11-14T18:50:59.893Z,,,,,,,,,,NaN,,,,,,,,low,high,,,,,,false,,,,false,768781,768781,,768780.9000000004,,768782.952,4,500,,
sequence,flow.Sequence,10_9,2023-11-14T18:50:59.893Z,,,,,,,,,,6197.978000000003,completion,,,,,,,low,high,,,,,,false,,,,false,768781.1000000015,768781,762566.554,762576.4000000004,762583.022,768782.952,4,500,,
trial,html.Screen,10_10_0,2023-11-14T18:51:03.853Z,,,,1,-0.040191644178716,0.0622582668671422,,false,lh,3957.6480000014417,response,-0.3252101592106969,0.4801328809566174,-0.47166397787627046,0.4431507150502006,0.4652283999181268,-0.4440687113511042,low,high,,ISIC_6207688.JPG,10,ISIC_9699728.JPG,263,false,ll,keypress(f),0,false,772740.6000000015,772740.6000000015,768766.562,768781.2000000011,768782.952,772749.622,4,500,11,
break,html.Screen,10_10_1,2023-11-14T18:51:03.853Z,,,,,,,,,,NaN,,,,,,,,low,high,,,,,,false,,,,false,772741,772740.9000000004,,772740.7000000011,,772749.622,4,500,,
break_continue,html.Screen,10_10_2,2023-11-14T18:51:03.853Z,,,,,,,,,,NaN,,,,,,,,low,high,,,,,,false,,,,false,772741.1000000015,772741.1000000015,,772741,,772749.622,4,500,,
sequence,flow.Sequence,10_10,2023-11-14T18:51:03.853Z,,,,,,,,,,3958.1480000014417,completion,,,,,,,low,high,,,,,,false,,,,false,772741.2000000011,772741.1000000015,768766.562,768781.2000000011,768782.952,772749.622,4,500,,
trial,html.Screen,10_11_0,2023-11-14T18:51:09.230Z,,,,1,-0.0693466529227737,-0.044703434393184,,false,ll,5368.378000000026,response,-0.3981599257596586,0.4801328809566174,-0.47166397787627046,-0.2791876616635712,0.4652283999181268,-0.4440687113511042,low,low,,ISIC_0004217.JPG,9,ISIC_5167209.JPG,498,false,lh,keypress(e),0,false,778118.3000000007,778118,772733.245,772741.3000000007,772749.622,778133.174,4,500,12,
break,html.Screen,10_11_1,2023-11-14T18:51:09.231Z,,,,,,,,,,NaN,,,,,,,,low,low,,,,,,false,,,,false,778119.2000000011,778119,,778118.6000000015,,778133.174,4,500,,
break_continue,html.Screen,10_11_2,2023-11-14T18:51:09.232Z,,,,,,,,,,NaN,,,,,,,,low,low,,,,,,false,,,,false,778119.8000000007,778119.6000000015,,778119.4000000004,,778133.174,4,500,,
sequence,flow.Sequence,10_11,2023-11-14T18:51:09.232Z,,,,,,,,,,5369.978000001516,completion,,,,,,,low,low,,,,,,false,,,,false,778120.1000000015,778119.6000000015,772733.245,772741.3000000007,772749.622,778133.174,4,500,,
trial,html.Screen,10_12_0,2023-11-14T18:51:13.567Z,,,,1,0.0544808612748248,-0.0240487075377862,,true,lh,4321.5260000011185,response,-0.4925497485600881,0.4801328809566174,-0.47166397787627046,0.5611909438741424,0.4652283999181268,-0.4440687113511042,low,high,,ISIC_4606646.JPG,10,ISIC_0013501.JPG,263,false,lh,keypress(e),0,false,782455,782454.7000000011,778116.335,778120.3000000007,778133.174,782466.458,4,500,13,
break,html.Screen,10_12_1,2023-11-14T18:51:13.568Z,,,,,,,,,,NaN,,,,,,,,low,high,,,,,,false,,,,false,782455.9000000004,782455.7000000011,,782455.3000000007,,782466.458,4,500,,
break_continue,html.Screen,10_12_2,2023-11-14T18:51:13.569Z,,,,,,,,,,NaN,,,,,,,,low,high,,,,,,false,,,,false,782456.5,782456.3000000007,,782456.1000000015,,782466.458,4,500,,
sequence,flow.Sequence,10_12,2023-11-14T18:51:13.569Z,,,,,,,,,,4323.126000000746,completion,,,,,,,low,high,,,,,,false,,,,false,782456.8000000007,782456.3000000007,778116.335,778120.2000000011,778133.174,782466.458,4,500,,
trial,html.Screen,10_13_0,2023-11-14T18:51:18.933Z,,,,1,0.0194167651857046,0.0726253809408601,,false,hh,5353.742000001133,response,0.5888817859303347,0.4801328809566174,-0.47166397787627046,0.4960888893897615,0.4652283999181268,-0.4440687113511042,high,high,,ISIC_0056692.JPG,9,ISIC_0033653.JPG,407,false,ll,keypress(f),0,false,787820.3000000007,787820.2000000011,782449.665,782456.9000000004,782466.458,787832.94,4,500,14,
break,html.Screen,10_13_1,2023-11-14T18:51:18.934Z,,,,,,,,,,NaN,,,,,,,,high,high,,,,,,false,,,,false,787820.8000000007,787820.7000000011,,787820.4000000004,,787832.94,4,500,,
break_continue,html.Screen,10_13_2,2023-11-14T18:51:18.934Z,,,,,,,,,,NaN,,,,,,,,high,high,,,,,,false,,,,false,787821,787821,,787820.8000000007,,787832.94,4,500,,
sequence,flow.Sequence,10_13,2023-11-14T18:51:18.934Z,,,,,,,,,,5354.542000000016,completion,,,,,,,high,high,,,,,,false,,,,false,787821,787821,782449.665,782456.8000000007,782466.458,787832.94,4,500,,
trial,html.Screen,10_14_0,2023-11-14T18:51:25.175Z,,,,1,-0.0735635316240061,0.0537805418091709,,true,hl,6228.7600000011735,response,0.5884693953987199,0.4801328809566174,-0.47166397787627046,-0.463516962961075,0.4652283999181268,-0.4440687113511042,high,low,,ISIC_1761799.JPG,9,ISIC_0027305.JPG,303,false,hl,keypress(j),0,false,794061.9000000004,794061.7000000011,787816.347,787821.1000000015,787832.94,794066.257,4,500,15,
break,html.Screen,10_14_1,2023-11-14T18:51:25.176Z,,,,,,,,,,NaN,,,,,,,,high,low,,,,,,false,,,,false,794062.9000000004,794062.7000000011,,794062.2000000011,,794066.257,4,500,,
break_continue,html.Screen,10_14_2,2023-11-14T18:51:25.176Z,,,,,,,,,,NaN,,,,,,,,high,low,,,,,,false,,,,false,794063.4000000004,794063.2000000011,,794063,,794066.257,4,500,,
sequence,flow.Sequence,10_14,2023-11-14T18:51:25.176Z,,,,,,,,,,6230.2600000011735,completion,,,,,,,high,low,,,,,,false,,,,false,794063.7000000011,794063.2000000011,787816.347,787821.1000000015,787832.94,794066.257,4,500,,
trial,html.Screen,10_15_0,2023-11-14T18:51:32.023Z,,,,1,0.0085520978188085,-0.0464691161264081,,false,lh,6843.843000001507,response,-0.6238270810796768,0.4801328809566174,-0.47166397787627046,0.4729539523685004,0.4652283999181268,-0.4440687113511042,low,high,,ISIC_0758797.JPG,8,ISIC_0068576.JPG,263,false,hh,keypress(i),0,false,800910.4000000004,800910.1000000015,794049.714,794063.9000000004,794066.257,800916.253,4,500,16,
break,html.Screen,10_15_1,2023-11-14T18:51:32.024Z,,,,,,,,,,NaN,,,,,,,,low,high,,,,,,false,,,,false,800911.5,800911.1000000015,,800910.7000000011,,800916.253,4,500,,
break_continue,html.Screen,10_15_2,2023-11-14T18:51:32.025Z,,,,,,,,,,NaN,,,,,,,,low,high,,,,,,false,,,,false,800912.1000000015,800911.9000000004,,800911.7000000011,,800916.253,4,500,,
sequence,flow.Sequence,10_15,2023-11-14T18:51:32.025Z,,,,,,,,,,6845.643000000389,completion,,,,,,,low,high,,,,,,false,,,,false,800912.5,800911.9000000004,794049.714,794063.9000000004,794066.257,800916.253,4,500,,
trial,html.Screen,10_16_0,2023-11-14T18:51:36.727Z,,,,1,-0.0565575423757561,-0.0394300226801425,,true,lh,4697.4470000010915,response,-0.537949197559726,0.4801328809566174,-0.47166397787627046,0.266898007997037,0.4652283999181268,-0.4440687113511042,low,high,,ISIC_0046983.JPG,8,ISIC_0025759.JPG,263,false,lh,keypress(e),0,false,805613.9000000004,805613.7000000011,800899.47,800912.7000000011,800916.253,805616.286,4,500,17,
break,html.Screen,10_16_1,2023-11-14T18:51:36.728Z,,,,,,,,,,NaN,,,,,,,,low,high,,,,,,false,,,,false,805614.9000000004,805614.6000000015,,805614.3000000007,,805616.286,4,500,,
break_continue,html.Screen,10_16_2,2023-11-14T18:51:36.728Z,,,,,,,,,,NaN,,,,,,,,low,high,,,,,,false,,,,false,805615.4000000004,805615.2000000011,,805615,,805616.286,4,500,,
sequence,flow.Sequence,10_16,2023-11-14T18:51:36.728Z,,,,,,,,,,4698.9470000010915,completion,,,,,,,low,high,,,,,,false,,,,false,805615.7000000011,805615.2000000011,800899.47,800912.6000000015,800916.253,805616.286,4,500,,
trial,html.Screen,10_17_0,2023-11-14T18:51:42.024Z,,,,1,0.0401045651353626,0.053461375824197,,true,lh,5295.214000000036,response,-0.4092434905996118,0.4801328809566174,-0.47166397787627046,0.3437659761248539,0.4652283999181268,-0.4440687113511042,low,high,,ISIC_6483504.JPG,9,ISIC_0028642.JPG,263,false,lh,keypress(e),0,false,810911.5,810911.5,805599.685,805615.8000000007,805616.286,810932.905,4,500,18,
break,html.Screen,10_17_1,2023-11-14T18:51:42.025Z,,,,,,,,,,NaN,,,,,,,,low,high,,,,,,false,,,,false,810911.8000000007,810911.8000000007,,810911.7000000011,,810932.905,4,500,,
break_continue,html.Screen,10_17_2,2023-11-14T18:51:42.025Z,,,,,,,,,,NaN,,,,,,,,low,high,,,,,,false,,,,false,810912,810911.9000000004,,810911.9000000004,,810932.905,4,500,,
sequence,flow.Sequence,10_17,2023-11-14T18:51:42.025Z,,,,,,,,,,5295.614000000409,completion,,,,,,,low,high,,,,,,false,,,,false,810912.1000000015,810911.9000000004,805599.685,805615.8000000007,805616.286,810932.905,4,500,,
trial,html.Screen,10_18_0,2023-11-14T18:51:48.975Z,,,,1,0.039728379742806,-0.0228701131373768,,true,lh,6928.995000000345,response,-0.5356180402775108,0.4801328809566174,-0.47166397787627046,0.4527162937549286,0.4652283999181268,-0.4440687113511042,low,high,,ISIC_0054073.JPG,8,ISIC_6592334.JPG,263,false,lh,keypress(e),0,false,817862.1000000015,817861.9000000004,810916.395,810912.1000000015,810932.905,817866.249,4,500,19,
break,html.Screen,10_18_1,2023-11-14T18:51:48.976Z,,,,,,,,,,NaN,,,,,,,,low,high,,,,,,false,,,,false,817863.1000000015,817862.8000000007,,817862.4000000004,,817866.249,4,500,,
break_continue,html.Screen,10_18_2,2023-11-14T18:51:48.976Z,,,,,,,,,,NaN,,,,,,,,low,high,,,,,,false,,,,false,817863.7000000011,817863.5,,817863.3000000007,,817866.249,4,500,,
sequence,flow.Sequence,10_18,2023-11-14T18:51:48.977Z,,,,,,,,,,6930.594999999972,completion,,,,,,,low,high,,,,,,false,,,,false,817864,817863.5,810916.395,810912.1000000015,810932.905,817866.249,4,500,,
trial,html.Screen,10_19_0,2023-11-14T18:51:54.112Z,,,,1,-0.0546386976779619,0.0448724759283131,,true,hh,5132.551000000793,response,0.5727269620558624,0.4801328809566174,-0.47166397787627046,0.5721024689832612,0.4652283999181268,-0.4440687113511042,high,high,,ISIC_6722934.JPG,10,ISIC_0010797.JPG,407,false,hh,keypress(i),0,false,822999.1000000015,822998.8000000007,817849.688,817864.1000000015,817866.249,823016.444,4,500,20,
break,html.Screen,10_19_1,2023-11-14T18:51:54.113Z,,,,,,,,,,NaN,,,,,,,,high,high,,,,,,false,,,,false,823000.1000000015,822999.9000000004,,822999.5,,823016.444,4,500,,
break_continue,html.Screen,10_19_2,2023-11-14T18:51:54.113Z,,,,,,,,,,NaN,,,,,,,,high,high,,,,,,false,,,,false,823000.7000000011,823000.4000000004,,823000.2000000011,,823016.444,4,500,,
sequence,flow.Sequence,10_19,2023-11-14T18:51:54.114Z,,,,,,,,,,5134.15100000042,completion,,,,,,,high,high,,,,,,false,,,,false,823000.9000000004,823000.4000000004,817849.688,817864.1000000015,817866.249,823016.444,4,500,,
trial,html.Screen,10_20_0,2023-11-14T18:52:04.791Z,,,,1,-0.0367218428225813,-0.0700576547090477,,true,hl,10661.456000000355,response,0.342260616775595,0.4801328809566174,-0.47166397787627046,-0.4870345463830041,0.4652283999181268,-0.4440687113511042,high,low,,ISIC_7212271.JPG,9,ISIC_5164416.JPG,303,false,hl,keypress(j),0,false,833678.1000000015,833677.9000000004,822999.518,823001,823016.444,833682.811,4,500,21,
break,html.Screen,10_20_1,2023-11-14T18:52:04.792Z,,,,,,,,,,NaN,,,,,,,,high,low,,,,,,false,,,,false,833679.1000000015,833678.8000000007,,833678.5,,833682.811,4,500,,
break_continue,html.Screen,10_20_2,2023-11-14T18:52:04.792Z,,,,,,,,,,NaN,,,,,,,,high,low,,,,,,false,,,,false,833679.6000000015,833679.4000000004,,833679.3000000007,,833682.811,4,500,,
sequence,flow.Sequence,10_20,2023-11-14T18:52:04.793Z,,,,,,,,,,10662.956000000355,completion,,,,,,,high,low,,,,,,false,,,,false,833679.9000000004,833679.4000000004,822999.518,823001,823016.444,833682.811,4,500,,
trial,html.Screen,10_21_0,2023-11-14T18:52:12.854Z,,,,1,-0.0693466529227737,-0.044703434393184,,true,hh,8058.689000000013,response,0.2836445355973738,0.4801328809566174,-0.47166397787627046,0.427898364274163,0.4652283999181268,-0.4440687113511042,high,high,,ISIC_0004217.JPG,9,ISIC_0028488.JPG,407,false,hh,keypress(i),0,false,841741.7000000011,841741.5,833666.312,833680,833682.811,841749.449,4,500,22,
break,html.Screen,10_21_1,2023-11-14T18:52:12.855Z,,,,,,,,,,NaN,,,,,,,,high,high,,,,,,false,,,,false,841742.7000000011,841742.5,,841742.1000000015,,841749.449,4,500,,
break_continue,html.Screen,10_21_2,2023-11-14T18:52:12.856Z,,,,,,,,,,NaN,,,,,,,,high,high,,,,,,false,,,,false,841743.3000000007,841743.1000000015,,841742.8000000007,,841749.449,4,500,,
sequence,flow.Sequence,10_21,2023-11-14T18:52:12.856Z,,,,,,,,,,8060.289000001503,completion,,,,,,,high,high,,,,,,false,,,,false,841743.5,841743.1000000015,833666.312,833680,833682.811,841749.449,4,500,,
trial,html.Screen,10_22_0,2023-11-14T18:52:18.224Z,,,,1,-0.0362376068089956,-0.047825070846155,,false,ll,5360.45100000035,response,-0.4222155877313155,0.4801328809566174,-0.47166397787627046,-0.3283523180846844,0.4652283999181268,-0.4440687113511042,low,low,,ISIC_6985114.JPG,9,ISIC_5504286.JPG,498,false,lh,keypress(e),0,false,847110.2000000011,847109.9000000004,841732.672,841743.7000000011,841749.449,847116.111,4,500,23,
break,html.Screen,10_22_1,2023-11-14T18:52:18.225Z,,,,,,,,,,NaN,,,,,,,,low,low,,,,,,false,,,,false,847111.2000000011,847110.9000000004,,847110.5,,847116.111,4,500,,
break_continue,html.Screen,10_22_2,2023-11-14T18:52:18.225Z,,,,,,,,,,NaN,,,,,,,,low,low,,,,,,false,,,,false,847111.7000000011,847111.5,,847111.3000000007,,847116.111,4,500,,
sequence,flow.Sequence,10_22,2023-11-14T18:52:18.225Z,,,,,,,,,,5362.050999999978,completion,,,,,,,low,low,,,,,,false,,,,false,847111.9000000004,847111.5,841732.672,841743.6000000015,841749.449,847116.111,4,500,,
trial,html.Screen,10_23_0,2023-11-14T18:52:21.703Z,,,,1,0.0217698886732706,-0.0410870915161425,,false,hl,3473.289000000339,response,0.680013214488289,0.4801328809566174,-0.47166397787627046,-0.3540998053602018,0.4652283999181268,-0.4440687113511042,high,low,,ISIC_0072173.JPG,9,ISIC_1450548.JPG,303,false,ll,keypress(f),0,false,850589.7000000011,850589.4000000004,847099.519,847112.1000000015,847116.111,850599.509,4,500,24,
break,html.Screen,10_23_1,2023-11-14T18:52:21.704Z,,,,,,,,,,NaN,,,,,,,,high,low,,,,,,false,,,,false,850590.5,850590.4000000004,,850589.9000000004,,850599.509,4,500,,
break_continue,html.Screen,10_23_2,2023-11-14T18:52:21.704Z,,,,,,,,,,NaN,,,,,,,,high,low,,,,,,false,,,,false,850591.1000000015,850590.9000000004,,850590.7000000011,,850599.509,4,500,,
sequence,flow.Sequence,10_23,2023-11-14T18:52:21.705Z,,,,,,,,,,3474.789000000339,completion,,,,,,,high,low,,,,,,false,,,,false,850591.3000000007,850590.9000000004,847099.519,847112.1000000015,847116.111,850599.509,4,500,,
trial,html.Screen,10_24_0,2023-11-14T18:52:31.232Z,,,,1,0.0651705891246238,-0.0394586219902573,,false,hl,9519.191000001156,response,0.5024782519235462,0.4801328809566174,-0.47166397787627046,-0.3830691508012895,0.4652283999181268,-0.4440687113511042,high,low,,ISIC_0013491.JPG,9,ISIC_7351007.JPG,303,false,hh,keypress(i),0,false,860119,860118.7000000011,850582.763,850591.4000000004,850599.509,860132.75,4,500,25,
break,html.Screen,10_24_1,2023-11-14T18:52:31.233Z,,,,,,,,,,NaN,,,,,,,,high,low,,,,,,false,,,,false,860119.9000000004,860119.6000000015,,860119.2000000011,,860132.75,4,500,,
break_continue,html.Screen,10_24_2,2023-11-14T18:52:31.234Z,,,,,,,,,,NaN,,,,,,,,high,low,,,,,,false,,,,false,860120.4000000004,860120.2000000011,,860120,,860132.75,4,500,,
sequence,flow.Sequence,10_24,2023-11-14T18:52:31.234Z,,,,,,,,,,9520.691000001156,completion,,,,,,,high,low,,,,,,false,,,,false,860120.6000000015,860120.2000000011,850582.763,850591.4000000004,850599.509,860132.75,4,500,,
trial,html.Screen,10_25_0,2023-11-14T18:52:37.327Z,,,,1,0.0511770300585718,0.029030243555971,,false,hh,6080.75,response,0.3379430572995314,0.4801328809566174,-0.47166397787627046,0.6036635005884392,0.4652283999181268,-0.4440687113511042,high,high,,ISIC_6652978.JPG,9,ISIC_8344345.JPG,407,false,hl,keypress(j),0,false,866213.7000000011,866213.5,860116.11,860120.8000000007,860132.75,866216.13,4,500,26,
break,html.Screen,10_25_1,2023-11-14T18:52:37.328Z,,,,,,,,,,NaN,,,,,,,,high,high,,,,,,false,,,,false,866214.7000000011,866214.5,,866214.1000000015,,866216.13,4,500,,
break_continue,html.Screen,10_25_2,2023-11-14T18:52:37.329Z,,,,,,,,,,NaN,,,,,,,,high,high,,,,,,false,,,,false,866215.3000000007,866215.1000000015,,866214.9000000004,,866216.13,4,500,,
sequence,flow.Sequence,10_25,2023-11-14T18:52:37.329Z,,,,,,,,,,6082.35000000149,completion,,,,,,,high,high,,,,,,false,,,,false,866215.5,866215.1000000015,860116.11,860120.8000000007,860132.75,866216.13,4,500,,
trial,html.Screen,10_26_0,2023-11-14T18:52:44.576Z,,,,1,0.0111354529246037,-0.0585810480909377,,false,lh,7245.9700000014855,response,-0.526768158947276,0.4801328809566174,-0.47166397787627046,0.5857014611896589,0.4652283999181268,-0.4440687113511042,low,high,,ISIC_7858034.JPG,9,ISIC_3181358.JPG,263,false,ll,keypress(f),0,false,873462.4000000004,873462.1000000015,866199.466,866215.8000000007,866216.13,873466.08,4,500,27,
break,html.Screen,10_26_1,2023-11-14T18:52:44.577Z,,,,,,,,,,NaN,,,,,,,,low,high,,,,,,false,,,,false,873463.3000000007,873463.1000000015,,873462.7000000011,,873466.08,4,500,,
break_continue,html.Screen,10_26_2,2023-11-14T18:52:44.577Z,,,,,,,,,,NaN,,,,,,,,low,high,,,,,,false,,,,false,873463.9000000004,873463.7000000011,,873463.5,,873466.08,4,500,,
sequence,flow.Sequence,10_26,2023-11-14T18:52:44.578Z,,,,,,,,,,7247.570000001113,completion,,,,,,,low,high,,,,,,false,,,,false,873464.2000000011,873463.7000000011,866199.466,866215.7000000011,866216.13,873466.08,4,500,,
trial,html.Screen,10_27_0,2023-11-14T18:52:49.296Z,,,,1,0.0057914759495055,0.0074667911845194,,false,lh,4715.720000000787,response,-0.5372995903353294,0.4801328809566174,-0.47166397787627046,0.5012075955440087,0.4652283999181268,-0.4440687113511042,low,high,,ISIC_0058723.JPG,9,ISIC_7508320.JPG,263,false,hl,keypress(j),0,false,878182.1000000015,878181.8000000007,873449.489,873464.3000000007,873466.08,878199.448,4,500,28,
break,html.Screen,10_27_1,2023-11-14T18:52:49.297Z,,,,,,,,,,NaN,,,,,,,,low,high,,,,,,false,,,,false,878183.2000000011,878182.9000000004,,878182.4000000004,,878199.448,4,500,,
break_continue,html.Screen,10_27_2,2023-11-14T18:52:49.297Z,,,,,,,,,,NaN,,,,,,,,low,high,,,,,,false,,,,false,878183.7000000011,878183.6000000015,,878183.3000000007,,878199.448,4,500,,
sequence,flow.Sequence,10_27,2023-11-14T18:52:49.297Z,,,,,,,,,,4717.520000001532,completion,,,,,,,low,high,,,,,,false,,,,false,878184,878183.6000000015,873449.489,873464.2000000011,873466.08,878199.448,4,500,,
trial,html.Screen,10_28_0,2023-11-14T18:52:53.351Z,,,,1,0.0538169356437535,-0.0113486191005169,,true,hl,4038.052000000025,response,0.2952959979662586,0.4801328809566174,-0.47166397787627046,-0.5232891302424065,0.4652283999181268,-0.4440687113511042,high,low,,ISIC_0009939.JPG,9,ISIC_5659295.JPG,303,false,hl,keypress(j),0,false,882237.9000000004,882237.5,878182.842,878184.1000000015,878199.448,882249.503,4,500,29,
break,html.Screen,10_28_1,2023-11-14T18:52:53.352Z,,,,,,,,,,NaN,,,,,,,,high,low,,,,,,false,,,,false,882238.7000000011,882238.6000000015,,882238.2000000011,,882249.503,4,500,,
break_continue,html.Screen,10_28_2,2023-11-14T18:52:53.353Z,,,,,,,,,,NaN,,,,,,,,high,low,,,,,,false,,,,false,882239.4000000004,882239.3000000007,,882239,,882249.503,4,500,,
sequence,flow.Sequence,10_28,2023-11-14T18:52:53.353Z,,,,,,,,,,4039.85200000077,completion,,,,,,,high,low,,,,,,false,,,,false,882239.7000000011,882239.3000000007,878182.842,878184.1000000015,878199.448,882249.503,4,500,,
trial,html.Screen,10_29_0,2023-11-14T18:52:59.167Z,,,,1,0.0593670819812057,-0.0718390543903236,,false,hh,5803.897000000346,response,0.3554745402387751,0.4801328809566174,-0.47166397787627046,0.4172807130804959,0.4652283999181268,-0.4440687113511042,high,high,,ISIC_0062367.JPG,10,ISIC_5406677.JPG,407,false,lh,keypress(e),0,false,888053.7000000011,888053.4000000004,882232.647,882239.8000000007,882249.503,888082.885,4,500,30,
break,html.Screen,10_29_1,2023-11-14T18:52:59.168Z,,,,,,,,,,NaN,,,,,,,,high,high,,,,,,false,,,,false,888054.5,888054.3000000007,,888053.9000000004,,888082.885,4,500,,
break_continue,html.Screen,10_29_2,2023-11-14T18:52:59.168Z,,,,,,,,,,NaN,,,,,,,,high,high,,,,,,false,,,,false,888055,888054.8000000007,,888054.7000000011,,888082.885,4,500,,
sequence,flow.Sequence,10_29,2023-11-14T18:52:59.169Z,,,,,,,,,,5805.297000000719,completion,,,,,,,high,high,,,,,,false,,,,false,888055.2000000011,888054.8000000007,882232.647,882239.8000000007,882249.503,888082.885,4,500,,
trial,html.Screen,10_30_0,2023-11-14T18:53:03.792Z,,,,1,0.0070725527271049,0.0049995141077508,,true,lh,4595.614999999991,response,-0.3151510798680175,0.4801328809566174,-0.47166397787627046,0.2999216730215798,0.4652283999181268,-0.4440687113511042,low,high,,ISIC_6124481.JPG,9,ISIC_7612992.JPG,263,false,lh,keypress(e),0,false,892678.8000000007,892678.5,888066.159,888055.4000000004,888082.885,892682.718,4,500,31,
break,html.Screen,10_30_1,2023-11-14T18:53:03.793Z,,,,,,,,,,NaN,,,,,,,,low,high,,,,,,false,,,,false,892679.6000000015,892679.4000000004,,892679.1000000015,,892682.718,4,500,,
break_continue,html.Screen,10_30_2,2023-11-14T18:53:03.794Z,,,,,,,,,,NaN,,,,,,,,low,high,,,,,,false,,,,false,892680.2000000011,892680,,892679.8000000007,,892682.718,4,500,,
sequence,flow.Sequence,10_30,2023-11-14T18:53:03.794Z,,,,,,,,,,4597.114999999991,completion,,,,,,,low,high,,,,,,false,,,,false,892680.4000000004,892680,888066.159,888055.4000000004,888082.885,892682.718,4,500,,
trial,html.Screen,10_31_0,2023-11-14T18:53:09.213Z,,,,1,0.0660839342637046,-0.0657899819532072,,true,hl,5417.182000000379,response,0.4368184058176201,0.4801328809566174,-0.47166397787627046,-0.4454463467625749,0.4652283999181268,-0.4440687113511042,high,low,,ISIC_0065477.JPG,10,ISIC_0014557.JPG,303,false,hl,keypress(j),0,false,898100,898099.9000000004,892666.131,892680.5,892682.718,898132.806,4,500,32,
break,html.Screen,10_31_1,2023-11-14T18:53:09.214Z,,,,,,,,,,NaN,,,,,,,,high,low,,,,,,false,,,,false,898100.3000000007,898100.3000000007,,898100.2000000011,,898132.806,4,500,,
break_continue,html.Screen,10_31_2,2023-11-14T18:53:09.214Z,,,,,,,,,,NaN,,,,,,,,high,low,,,,,,false,,,,false,898100.5,898100.4000000004,,898100.4000000004,,898132.806,4,500,,
sequence,flow.Sequence,10_31,2023-11-14T18:53:09.214Z,,,,,,,,,,5417.682000000379,completion,,,,,,,high,low,,,,,,false,,,,false,898100.6000000015,898100.4000000004,892666.131,892680.5,892682.718,898132.806,4,500,,
trial,html.Screen,10_32_0,2023-11-14T18:53:14.407Z,,,,1,0.0593670819812057,-0.0718390543903236,,false,lh,5160.994000000763,response,-0.6371434069575536,0.4801328809566174,-0.47166397787627046,0.6399819289342282,0.4652283999181268,-0.4440687113511042,low,high,,ISIC_0062367.JPG,9,ISIC_0031325.JPG,263,false,ll,keypress(f),0,false,903294,903293.8000000007,898116.185,898100.6000000015,898132.806,903299.289,4,500,33,
break,html.Screen,10_32_1,2023-11-14T18:53:14.408Z,,,,,,,,,,NaN,,,,,,,,low,high,,,,,,false,,,,false,903295,903294.8000000007,,903294.4000000004,,903299.289,4,500,,
break_continue,html.Screen,10_32_2,2023-11-14T18:53:14.409Z,,,,,,,,,,NaN,,,,,,,,low,high,,,,,,false,,,,false,903295.6000000015,903295.5,,903295.2000000011,,903299.289,4,500,,
sequence,flow.Sequence,10_32,2023-11-14T18:53:14.409Z,,,,,,,,,,5162.694000000018,completion,,,,,,,low,high,,,,,,false,,,,false,903295.9000000004,903295.5,898116.185,898100.6000000015,898132.806,903299.289,4,500,,
trial,html.Screen,10_33_0,2023-11-14T18:53:19.880Z,,,,1,0.0217698886732706,-0.0410870915161425,,true,ll,5466.511000000755,response,-0.583546011730814,0.4801328809566174,-0.47166397787627046,-0.3008326876820681,0.4652283999181268,-0.4440687113511042,low,low,,ISIC_0072173.JPG,9,ISIC_4074537.JPG,498,false,ll,keypress(f),0,false,908766.1000000015,908765.8000000007,903282.858,903296.1000000015,903299.289,908782.79,4,500,34,
break,html.Screen,10_33_1,2023-11-14T18:53:19.881Z,,,,,,,,,,NaN,,,,,,,,low,low,,,,,,false,,,,false,908767,908766.7000000011,,908766.4000000004,,908782.79,4,500,,
break_continue,html.Screen,10_33_2,2023-11-14T18:53:19.882Z,,,,,,,,,,NaN,,,,,,,,low,low,,,,,,false,,,,false,908767.5,908767.3000000007,,908767.1000000015,,908782.79,4,500,,
sequence,flow.Sequence,10_33,2023-11-14T18:53:19.882Z,,,,,,,,,,5468.011000000755,completion,,,,,,,low,low,,,,,,false,,,,false,908767.7000000011,908767.3000000007,903282.858,903296,903299.289,908782.79,4,500,,
trial,html.Screen,10_34_0,2023-11-14T18:53:25.225Z,,,,1,-0.0644357632656846,-0.0501167370292348,,false,hl,5327.709999999963,response,0.6196342457522171,0.4801328809566174,-0.47166397787627046,-0.5935540313753808,0.4652283999181268,-0.4440687113511042,high,low,,ISIC_5207050.JPG,8,ISIC_8389650.JPG,303,false,lh,keypress(e),0,false,914110.7000000011,914110.5,908765.904,908768,908782.79,914115.927,4,500,35,
break,html.Screen,10_34_1,2023-11-14T18:53:25.226Z,,,,,,,,,,NaN,,,,,,,,high,low,,,,,,false,,,,false,914111.6000000015,914111.4000000004,,914111,,914115.927,4,500,,
break_continue,html.Screen,10_34_2,2023-11-14T18:53:25.226Z,,,,,,,,,,NaN,,,,,,,,high,low,,,,,,false,,,,false,914112.2000000011,914112,,914111.8000000007,,914115.927,4,500,,
sequence,flow.Sequence,10_34,2023-11-14T18:53:25.227Z,,,,,,,,,,5329.209999999963,completion,,,,,,,high,low,,,,,,false,,,,false,914112.4000000004,914112,908765.904,908767.8000000007,908782.79,914115.927,4,500,,
trial,html.Screen,10_35_0,2023-11-14T18:53:29.313Z,,,,1,-0.0531672914703651,0.0074883925434357,,false,lh,4082.37300000072,response,-0.5356180402775108,0.4801328809566174,-0.47166397787627046,0.4527162937549286,0.4652283999181268,-0.4440687113511042,low,high,,ISIC_4177043.JPG,9,ISIC_6592334.JPG,263,false,ll,keypress(f),0,false,918198.5,918198.3000000007,914099.491,914112.6000000015,914115.927,918216.187,4,500,36,
break,html.Screen,10_35_1,2023-11-14T18:53:29.314Z,,,,,,,,,,NaN,,,,,,,,low,high,,,,,,false,,,,false,918199.5,918199.3000000007,,918198.9000000004,,918216.187,4,500,,
break_continue,html.Screen,10_35_2,2023-11-14T18:53:29.314Z,,,,,,,,,,NaN,,,,,,,,low,high,,,,,,false,,,,false,918200,918199.9000000004,,918199.6000000015,,918216.187,4,500,,
sequence,flow.Sequence,10_35,2023-11-14T18:53:29.314Z,,,,,,,,,,4083.9730000003474,completion,,,,,,,low,high,,,,,,false,,,,false,918200.4000000004,918199.9000000004,914099.491,914112.5,914115.927,918216.187,4,500,,
trial,html.Screen,10_36_0,2023-11-14T18:53:33.278Z,,,,1,0.0069555338059566,-0.0310100918136373,,false,ll,3947.8129999999655,response,-0.5210361726732141,0.4801328809566174,-0.47166397787627046,-0.402559995868641,0.4652283999181268,-0.4440687113511042,low,low,,ISIC_0011177.JPG,9,ISIC_4680417.JPG,498,false,lh,keypress(e),0,false,922164,922164,918199.134,918200.6000000015,918216.187,922165.898,4,500,37,
break,html.Screen,10_36_1,2023-11-14T18:53:33.279Z,,,,,,,,,,NaN,,,,,,,,low,low,,,,,,false,,,,false,922164.4000000004,922164.3000000007,,922164.1000000015,,922165.898,4,500,,
break_continue,html.Screen,10_36_2,2023-11-14T18:53:33.279Z,,,,,,,,,,NaN,,,,,,,,low,low,,,,,,false,,,,false,922164.7000000011,922164.7000000011,,922164.5,,922165.898,4,500,,
sequence,flow.Sequence,10_36,2023-11-14T18:53:33.279Z,,,,,,,,,,3948.513000001083,completion,,,,,,,low,low,,,,,,false,,,,false,922164.8000000007,922164.7000000011,918199.134,918200.5,918216.187,922165.898,4,500,,
trial,html.Screen,10_37_0,2023-11-14T18:53:38.398Z,,,,1,-0.0159061451859594,-0.0296598845560212,,true,hl,5118.4020000007,response,0.5256499567255338,0.4801328809566174,-0.47166397787627046,-0.377638022532864,0.4652283999181268,-0.4440687113511042,high,low,,ISIC_0072564.JPG,9,ISIC_0014291.JPG,303,false,hl,keypress(j),0,false,927284.4000000004,927284.3000000007,922149.423,922164.8000000007,922165.898,927299.49,4,500,38,
break,html.Screen,10_37_1,2023-11-14T18:53:38.399Z,,,,,,,,,,NaN,,,,,,,,high,low,,,,,,false,,,,false,927284.7000000011,927284.6000000015,,927284.5,,927299.49,4,500,,
break_continue,html.Screen,10_37_2,2023-11-14T18:53:38.399Z,,,,,,,,,,NaN,,,,,,,,high,low,,,,,,false,,,,false,927284.9000000004,927284.9000000004,,927284.8000000007,,927299.49,4,500,,
sequence,flow.Sequence,10_37,2023-11-14T18:53:38.399Z,,,,,,,,,,5119.002000000328,completion,,,,,,,high,low,,,,,,false,,,,false,927284.9000000004,927284.9000000004,922149.423,922164.8000000007,922165.898,927299.49,4,500,,
trial,html.Screen,10_38_0,2023-11-14T18:53:45.904Z,,,,1,0.0050679133050021,-0.0009714874637896,,false,ll,7490.510000000009,response,-0.4134716282980656,0.4801328809566174,-0.47166397787627046,-0.2595140402971361,0.4652283999181268,-0.4440687113511042,low,low,,ISIC_9848743.JPG,9,ISIC_4271108.JPG,498,false,lh,keypress(e),0,false,934790.2000000011,934790,927282.433,927285.1000000015,927299.49,934799.201,4,500,39,
break,html.Screen,10_38_1,2023-11-14T18:53:45.905Z,,,,,,,,,,NaN,,,,,,,,low,low,,,,,,false,,,,false,934791.2000000011,934791,,934790.6000000015,,934799.201,4,500,,
break_continue,html.Screen,10_38_2,2023-11-14T18:53:45.906Z,,,,,,,,,,NaN,,,,,,,,low,low,,,,,,false,,,,false,934791.8000000007,934791.6000000015,,934791.4000000004,,934799.201,4,500,,
sequence,flow.Sequence,10_38,2023-11-14T18:53:45.906Z,,,,,,,,,,7492.110000001499,completion,,,,,,,low,low,,,,,,false,,,,false,934792.1000000015,934791.6000000015,927282.433,927285.1000000015,927299.49,934799.201,4,500,,
trial,html.Screen,10_39_0,2023-11-14T18:53:55.527Z,,,,1,-0.0688801591312476,-0.0185462113313342,,true,hl,9613.499000001117,response,0.2979206448653605,0.4801328809566174,-0.47166397787627046,-0.2443520148461323,0.4652283999181268,-0.4440687113511042,high,low,,ISIC_0067723.JPG,8,ISIC_6108795.JPG,303,false,hl,keypress(j),0,false,944412.8000000007,944412.7000000011,934782.623,934792.3000000007,934799.201,944415.849,4,500,40,
break,html.Screen,10_39_1,2023-11-14T18:53:55.527Z,,,,,,,,,,NaN,,,,,,,,high,low,,,,,,false,,,,false,944413.2000000011,944413.1000000015,,944413,,944415.849,4,500,,
break_continue,html.Screen,10_39_2,2023-11-14T18:53:55.527Z,,,,,,,,,,NaN,,,,,,,,high,low,,,,,,false,,,,false,944413.3000000007,944413.3000000007,,944413.2000000011,,944415.849,4,500,,
sequence,flow.Sequence,10_39,2023-11-14T18:53:55.527Z,,,,,,,,,,9614.099000000744,completion,,,,,,,high,low,,,,,,false,,,,false,944413.3000000007,944413.3000000007,934782.623,934792.2000000011,934799.201,944415.849,4,500,,
trial,html.Screen,10_40_0,2023-11-14T18:54:00.038Z,,,,1,-0.0367218428225813,-0.0700576547090477,,false,hh,4508.451000000699,response,0.436557226402868,0.4801328809566174,-0.47166397787627046,0.4649689062309556,0.4652283999181268,-0.4440687113511042,high,high,,ISIC_7212271.JPG,9,ISIC_1470245.JPG,407,false,lh,keypress(e),0,false,948924.4000000004,948924.3000000007,944399.037,944413.5,944415.849,948932.579,4,500,41,
break,html.Screen,10_40_1,2023-11-14T18:54:00.039Z,,,,,,,,,,NaN,,,,,,,,high,high,,,,,,false,,,,false,948924.7000000011,948924.6000000015,,948924.5,,948932.579,4,500,,
break_continue,html.Screen,10_40_2,2023-11-14T18:54:00.039Z,,,,,,,,,,NaN,,,,,,,,high,high,,,,,,false,,,,false,948924.8000000007,948924.8000000007,,948924.7000000011,,948932.579,4,500,,
sequence,flow.Sequence,10_40,2023-11-14T18:54:00.039Z,,,,,,,,,,4508.951000000699,completion,,,,,,,high,high,,,,,,false,,,,false,948925,948924.8000000007,944399.037,944413.4000000004,944415.849,948932.579,4,500,,
trial,html.Screen,10_41_0,2023-11-14T18:54:06.255Z,,,,1,0.0511770300585718,0.029030243555971,,false,hh,6208.221000000718,response,0.6659756082017932,0.4801328809566174,-0.47166397787627046,0.2820407513385539,0.4652283999181268,-0.4440687113511042,high,high,,ISIC_6652978.JPG,8,ISIC_0012049.JPG,407,false,lh,keypress(e),0,false,955140.8000000007,955140.8000000007,948915.971,948925,948932.579,955149.128,4,500,42,
break,html.Screen,10_41_1,2023-11-14T18:54:06.255Z,,,,,,,,,,NaN,,,,,,,,high,high,,,,,,false,,,,false,955141.1000000015,955141,,955140.9000000004,,955149.128,4,500,,
break_continue,html.Screen,10_41_2,2023-11-14T18:54:06.255Z,,,,,,,,,,NaN,,,,,,,,high,high,,,,,,false,,,,false,955141.3000000007,955141.2000000011,,955141.1000000015,,955149.128,4,500,,
sequence,flow.Sequence,10_41,2023-11-14T18:54:06.255Z,,,,,,,,,,6208.621000001091,completion,,,,,,,high,high,,,,,,false,,,,false,955141.3000000007,955141.2000000011,948915.971,948925,948932.579,955149.128,4,500,,
trial,html.Screen,10_42_0,2023-11-14T18:54:10.175Z,,,,1,0.0247880219471745,-0.0687761754603142,,false,lh,3911.371999999974,response,-0.2886212477521336,0.4801328809566174,-0.47166397787627046,0.2889635432639234,0.4652283999181268,-0.4440687113511042,low,high,,ISIC_0031745.JPG,9,ISIC_2864893.JPG,263,false,hl,keypress(j),0,false,959060.6000000015,959060.5,955132.619,955141.4000000004,955149.128,959065.876,4,500,43,
break,html.Screen,10_42_1,2023-11-14T18:54:10.175Z,,,,,,,,,,NaN,,,,,,,,low,high,,,,,,false,,,,false,959060.9000000004,959060.8000000007,,959060.6000000015,,959065.876,4,500,,
break_continue,html.Screen,10_42_2,2023-11-14T18:54:10.175Z,,,,,,,,,,NaN,,,,,,,,low,high,,,,,,false,,,,false,959061,959061,,959060.9000000004,,959065.876,4,500,,
sequence,flow.Sequence,10_42,2023-11-14T18:54:10.175Z,,,,,,,,,,3911.871999999974,completion,,,,,,,low,high,,,,,,false,,,,false,959061.1000000015,959061,955132.619,955141.4000000004,955149.128,959065.876,4,500,,
trial,html.Screen,10_43_0,2023-11-14T18:54:16.888Z,,,,1,-0.0265457942157377,-0.0704357137706731,,false,hl,6707.524000000325,response,0.53923985327424,0.4801328809566174,-0.47166397787627046,-0.3102187981192255,0.4652283999181268,-0.4440687113511042,high,low,,ISIC_3123377.JPG,10,ISIC_7423852.JPG,303,false,hh,keypress(i),0,false,965773.6000000015,965773.4000000004,959049.142,959061.2000000011,959065.876,965782.511,4,500,44,
break,html.Screen,10_43_1,2023-11-14T18:54:16.889Z,,,,,,,,,,NaN,,,,,,,,high,low,,,,,,false,,,,false,965774.5,965774.4000000004,,965773.9000000004,,965782.511,4,500,,
break_continue,html.Screen,10_43_2,2023-11-14T18:54:16.890Z,,,,,,,,,,NaN,,,,,,,,high,low,,,,,,false,,,,false,965775.1000000015,965774.9000000004,,965774.8000000007,,965782.511,4,500,,
sequence,flow.Sequence,10_43,2023-11-14T18:54:16.890Z,,,,,,,,,,6709.024000000325,completion,,,,,,,high,low,,,,,,false,,,,false,965775.4000000004,965774.9000000004,959049.142,959061.2000000011,959065.876,965782.511,4,500,,
trial,html.Screen,10_44_0,2023-11-14T18:54:21.945Z,,,,1,-0.0245585387483123,0.053462758614929,,false,hl,5048.189000001061,response,0.6196342457522171,0.4801328809566174,-0.47166397787627046,-0.5935540313753808,0.4652283999181268,-0.4440687113511042,high,low,,ISIC_3389704.JPG,8,ISIC_8389650.JPG,303,false,ll,keypress(f),0,false,970830.9000000004,970830.7000000011,965765.938,965775.5,965782.511,970849.725,4,500,45,
break,html.Screen,10_44_1,2023-11-14T18:54:21.946Z,,,,,,,,,,NaN,,,,,,,,high,low,,,,,,false,,,,false,970831.9000000004,970831.7000000011,,970831.2000000011,,970849.725,4,500,,
break_continue,html.Screen,10_44_2,2023-11-14T18:54:21.947Z,,,,,,,,,,NaN,,,,,,,,high,low,,,,,,false,,,,false,970832.5,970832.3000000007,,970832,,970849.725,4,500,,
sequence,flow.Sequence,10_44,2023-11-14T18:54:21.947Z,,,,,,,,,,5049.789000000688,completion,,,,,,,high,low,,,,,,false,,,,false,970832.8000000007,970832.3000000007,965765.938,965775.4000000004,965782.511,970849.725,4,500,,
trial,html.Screen,10_45_0,2023-11-14T18:54:28.177Z,,,,1,-0.059471106306043,0.0678292174694111,,true,ll,6212.675000000396,response,-0.4023127009560283,0.4801328809566174,-0.47166397787627046,-0.4272794645062143,0.4652283999181268,-0.4440687113511042,low,low,,ISIC_0015631.JPG,9,ISIC_6448312.JPG,498,false,ll,keypress(f),0,false,977062.7000000011,977062.4000000004,970815.874,970832.9000000004,970849.725,977065.771,4,500,46,
break,html.Screen,10_45_1,2023-11-14T18:54:28.178Z,,,,,,,,,,NaN,,,,,,,,low,low,,,,,,false,,,,false,977063.6000000015,977063.4000000004,,977063.1000000015,,977065.771,4,500,,
break_continue,html.Screen,10_45_2,2023-11-14T18:54:28.179Z,,,,,,,,,,NaN,,,,,,,,low,low,,,,,,false,,,,false,977064.1000000015,977064,,977063.7000000011,,977065.771,4,500,,
sequence,flow.Sequence,10_45,2023-11-14T18:54:28.179Z,,,,,,,,,,6214.275000000023,completion,,,,,,,low,low,,,,,,false,,,,false,977064.3000000007,977064,970815.874,970832.9000000004,970849.725,977065.771,4,500,,
trial,html.Screen,10_46_0,2023-11-14T18:54:32.999Z,,,,1,0.0450282431170921,,,false,ll,4818.629000000423,response,-0.3734062197182344,0.4801328809566174,-0.47166397787627046,-0.4861701121081029,0.4652283999181268,-0.4440687113511042,low,low,,ISIC_1805163.JPG,10,ISIC_0063672.JPG,498,false,hl,keypress(j),0,false,981884.5,981884.4000000004,977049.051,977064.6000000015,977065.771,981899.347,4,500,47,
break,html.Screen,10_46_1,2023-11-14T18:54:32.999Z,,,,,,,,,,NaN,,,,,,,,low,low,,,,,,false,,,,false,981884.7000000011,981884.7000000011,,981884.6000000015,,981899.347,4,500,,
break_continue,html.Screen,10_46_2,2023-11-14T18:54:32.999Z,,,,,,,,,,NaN,,,,,,,,low,low,,,,,,false,,,,false,981885,981884.8000000007,,981884.8000000007,,981899.347,4,500,,
sequence,flow.Sequence,10_46,2023-11-14T18:54:33.000Z,,,,,,,,,,4819.029000000795,completion,,,,,,,low,low,,,,,,false,,,,false,981885,981884.8000000007,977049.051,977064.6000000015,977065.771,981899.347,4,500,,
trial,html.Screen,10_47_0,2023-11-14T18:54:41.265Z,,,,1,0.0107854985447517,0.0478010417136109,,false,hh,8250.75300000154,response,0.4025923366969421,0.4801328809566174,-0.47166397787627046,0.5357689684524589,0.4652283999181268,-0.4440687113511042,high,high,,ISIC_0010500.JPG,9,ISIC_0056413.JPG,407,false,hl,keypress(j),0,false,990150.3000000007,990150.1000000015,981882.518,981885,981899.347,990165.983,4,500,48,
break,html.Screen,10_47_1,2023-11-14T18:54:41.266Z,,,,,,,,,,NaN,,,,,,,,high,high,,,,,,false,,,,false,990151.2000000011,990151,,990150.6000000015,,990165.983,4,500,,
break_continue,html.Screen,10_47_2,2023-11-14T18:54:41.266Z,,,,,,,,,,NaN,,,,,,,,high,high,,,,,,false,,,,false,990151.9000000004,990151.7000000011,,990151.5,,990165.983,4,500,,
sequence,flow.Sequence,10_47,2023-11-14T18:54:41.267Z,,,,,,,,,,8252.353000001167,completion,,,,,,,high,high,,,,,,false,,,,false,990152.1000000015,990151.7000000011,981882.518,981885,981899.347,990165.983,4,500,,
trial,html.Screen,10_48_0,2023-11-14T18:54:46.784Z,,,,1,-0.013431314305098,0.0140597582944232,,false,ll,5503.617000001483,response,-0.3036348560229055,0.4801328809566174,-0.47166397787627046,-0.4306000970589971,0.4652283999181268,-0.4440687113511042,low,low,,ISIC_0069617.JPG,9,ISIC_0027842.JPG,498,false,lh,keypress(e),0,false,995669.9000000004,995669.6000000015,990149.182,990152.3000000007,990165.983,995682.527,4,500,49,
break,html.Screen,10_48_1,2023-11-14T18:54:46.785Z,,,,,,,,,,NaN,,,,,,,,low,low,,,,,,false,,,,false,995670.8000000007,995670.5,,995670.2000000011,,995682.527,4,500,,
break_continue,html.Screen,10_48_2,2023-11-14T18:54:46.786Z,,,,,,,,,,NaN,,,,,,,,low,low,,,,,,false,,,,false,995671.3000000007,995671.1000000015,,995670.9000000004,,995682.527,4,500,,
sequence,flow.Sequence,10_48,2023-11-14T18:54:46.786Z,,,,,,,,,,5505.117000001483,completion,,,,,,,low,low,,,,,,false,,,,false,995671.5,995671.1000000015,990149.182,990152.2000000011,990165.983,995682.527,4,500,,
trial,html.Screen,10_49_0,2023-11-14T18:54:50.895Z,,,,1,-0.0693466529227737,-0.044703434393184,,false,ll,4097.573000001488,response,-0.4226176326736917,0.4801328809566174,-0.47166397787627046,-0.3912701323514075,0.4652283999181268,-0.4440687113511042,low,low,,ISIC_0004217.JPG,8,ISIC_0014598.JPG,498,false,lh,keypress(e),0,false,999780.2000000011,999780.1000000015,995665.699,995671.7000000011,995682.527,999782.309,4,500,50,
break,html.Screen,10_49_1,2023-11-14T18:54:50.895Z,,,,,,,,,,NaN,,,,,,,,low,low,,,,,,false,,,,false,999780.5,999780.4000000004,,999780.3000000007,,999782.309,4,500,,
break_continue,html.Screen,10_49_2,2023-11-14T18:54:50.895Z,,,,,,,,,,NaN,,,,,,,,low,low,,,,,,false,,,,false,999780.7000000011,999780.7000000011,,999780.6000000015,,999782.309,4,500,,
sequence,flow.Sequence,10_49,2023-11-14T18:54:50.895Z,,,,,,,,,,4098.173000001116,completion,,,,,,,low,low,,,,,,false,,,,false,999780.7000000011,999780.7000000011,995665.699,995671.7000000011,995682.527,999782.309,4,500,,
