sender,sender_type,sender_id,timestamp,meta,,age,blockNo,c1,c2,condition,correct,correctResponse,duration,ended_on,f1,f1_high,f1_low,f2,f2_high,f2_low,feature_level1,feature_level2,gender,img_left,img_reveal,img_right,n_target_images,practice,response,response_action,selection_duration,staircase,time_commit,time_end,time_render,time_run,time_show,time_switch,total_blocks,total_trials,trialNo,url
informed_consent,html.Screen,0,2023-11-14T20:24:01.165Z,"{""labjs_version"":""20.2.4"",""labjs_build"":{""flavor"":""development"",""commit"":""f5b4a49f956347addd546a832a3327688c2c0fef""},""location"":""https://labjs.felixhenninger.com/api/labjs_preview/index.html"",""userAgent"":""Mozilla/5.0 (Windows NT 10.0; Win64; x64) AppleWebKit/537.36 (KHTML, like Gecko) Chrome/119.0.0.0 Safari/537.36"",""platform"":""Win32"",""language"":""en-US"",""locale"":""en-US"",""timeZone"":""America/Chicago"",""timezoneOffset"":360,""screen_width"":1920,""screen_height"":1080,""scroll_width"":945,""scroll_height"":918,""window_innerWidth"":945,""window_innerHeight"":966,""devicePixelRatio"":1}",,,,,,,,,118709.07199999926,response,,,,,,,,,,,,,,,consent,click button,,,119531.69999999925,119522.69999999925,796.864,978.3999999985099,813.628,119350.049,,,,{}
Demography form,html.Form,1,2023-11-14T20:24:19.501Z,,,18,,,,,,,18517.35099999851,form submission,,,,,,,,,female,,,,,,,,,,137867.5,137867.3999999985,119315.738,119532.09999999776,119350.049,137683.875,,,,
Welcome,html.Screen,2,2023-11-14T20:26:02.109Z,,,,,,,"[""asym"",""col""]",,,102791.02499999851,response,,,,,,,,,,,,,,,continue,click button,,,240475.5,240474.8999999985,137667.183,137867.5,137683.875,240303.52,,,,
demo_instructions,html.Screen,3,2023-11-14T20:27:25.878Z,,,,,,,,,,83939.67999999927,response,,,,,,,,,,,,,,,continue,click button,,,324243.69999999925,324243.19999999925,240286.613,240475.59999999776,240303.52,324070.457,,,,
trial,html.Screen,4_0_0,2023-11-14T20:27:41.017Z,,,,0,1.155796217969438,-1.1646564121743912,,true,lh,15312.14299999777,response,-1.1890109863264902,0.9999999999999998,-0.9999999999999998,0.8867825318561365,0.9999999999999998,-0.9999999999999998,low,high,,ISIC_2685523.JPG,,ISIC_0072576.JPG,24,true,lh,keypress(e),100,false,339382.69999999925,339382.59999999776,324053.8,324243.799999997,324070.457,339218.946,1,16,1,
sequence,flow.Sequence,4_0,2023-11-14T20:27:41.017Z,,,,,,,,,,15312.14299999777,completion,,,,,,,low,high,,,,,,true,,,,false,339382.8999999985,339382.59999999776,324053.8,324243.799999997,324070.457,339218.946,1,16,,
trial,html.Screen,4_1_0,2023-11-14T20:27:46.621Z,,,,0,0.9212323139676136,-0.9882196642247332,,true,lh,5767.8539999970235,response,-1.1501717278509027,0.9999999999999998,-0.9999999999999998,0.8228936373136835,0.9999999999999998,-0.9999999999999998,low,high,,ISIC_0014255.JPG,,ISIC_8398000.JPG,24,true,lh,keypress(e),100,false,344987,344986.799999997,339202.301,339383,339218.946,344824.805,1,16,2,
sequence,flow.Sequence,4_1,2023-11-14T20:27:46.621Z,,,,,,,,,,5767.8539999970235,completion,,,,,,,low,high,,,,,,true,,,,false,344987.299999997,344986.799999997,339202.301,339382.8999999985,339218.946,344824.805,1,16,,
trial,html.Screen,4_2_0,2023-11-14T20:27:50.530Z,,,,0,0.8015753713975186,-1.0067065355978264,,true,lh,4071.094999998517,response,-1.1890109863264902,0.9999999999999998,-0.9999999999999998,0.8867825318561365,0.9999999999999998,-0.9999999999999998,low,high,,ISIC_0002119.JPG,,ISIC_0072576.JPG,24,true,lh,keypress(e),100,false,348896.19999999925,348895.8999999985,344808.132,344987.5,344824.805,348728.524,1,16,3,
sequence,flow.Sequence,4_2,2023-11-14T20:27:50.531Z,,,,,,,,,,4071.094999998517,completion,,,,,,,low,high,,,,,,true,,,,false,348896.69999999925,348895.8999999985,344808.132,344987.3999999985,344824.805,348728.524,1,16,,
trial,html.Screen,4_3_0,2023-11-14T20:27:55.546Z,,,,0,1.127346631538643,-0.8080854255453543,,true,lh,5183.275999997044,response,-1.1235224875125256,0.9999999999999998,-0.9999999999999998,0.8641223012137988,0.9999999999999998,-0.9999999999999998,low,high,,ISIC_0011045.JPG,,ISIC_0033901.JPG,24,true,lh,keypress(e),100,false,353912,353911.799999997,348711.838,348897,348728.524,353750.242,1,16,4,
sequence,flow.Sequence,4_3,2023-11-14T20:27:55.546Z,,,,,,,,,,5183.275999997044,completion,,,,,,,low,high,,,,,,true,,,,false,353912.19999999925,353911.799999997,348711.838,348896.8999999985,348728.524,353750.242,1,16,,
trial,html.Screen,4_4_0,2023-11-14T20:28:01.070Z,,,,0,1.086780249085418,0.8982771817382743,,true,ll,5685.357999997737,response,-0.913084438298574,0.9999999999999998,-0.9999999999999998,-0.8279199409322678,0.9999999999999998,-0.9999999999999998,low,low,,ISIC_0057821.JPG,,ISIC_8637134.JPG,111,true,ll,keypress(f),100,false,359435.799999997,359435.59999999776,353733.547,353912.3999999985,353750.242,359272.588,1,16,5,
sequence,flow.Sequence,4_4,2023-11-14T20:28:01.070Z,,,,,,,,,,5685.357999997737,completion,,,,,,,low,low,,,,,,true,,,,false,359436,359435.59999999776,353733.547,353912.299999997,353750.242,359272.588,1,16,,
trial,html.Screen,4_5_0,2023-11-14T20:28:06.004Z,,,,0,0.8826164980777871,1.1601445610079184,,true,ll,5096.611999999266,response,-0.894033318100927,0.9999999999999998,-0.9999999999999998,-0.9842451068179496,0.9999999999999998,-0.9999999999999998,low,low,,ISIC_0055169.JPG,,ISIC_0015298.JPG,111,true,ll,keypress(f),100,false,364369.59999999776,364369.19999999925,359255.925,359436.19999999925,359272.588,364194.216,1,16,6,
sequence,flow.Sequence,4_5,2023-11-14T20:28:06.004Z,,,,,,,,,,5096.611999999266,completion,,,,,,,low,low,,,,,,true,,,,false,364370,364369.19999999925,359255.925,359436.09999999776,359272.588,364194.216,1,16,,
trial,html.Screen,4_6_0,2023-11-14T20:28:24.554Z,,,,0,0.918811733700349,0.8487727309970138,,true,ll,18725.283999999985,response,-0.9597587651037712,0.9999999999999998,-0.9999999999999998,-0.8860066980618031,0.9999999999999998,-0.9999999999999998,low,low,,ISIC_0028152.JPG,,ISIC_7534592.JPG,111,true,ll,keypress(f),100,false,382919.69999999925,382919.5,364177.503,364370.19999999925,364194.216,382745.985,1,16,7,
sequence,flow.Sequence,4_6,2023-11-14T20:28:24.554Z,,,,,,,,,,18725.283999999985,completion,,,,,,,low,low,,,,,,true,,,,false,382920.09999999776,382919.5,364177.503,364370.09999999776,364194.216,382745.985,1,16,,
trial,html.Screen,4_7_0,2023-11-14T20:28:28.307Z,,,,0,0.8543323078107433,0.9163054072963652,,true,ll,3926.114999997779,response,-0.8191491070125395,0.9999999999999998,-0.9999999999999998,-0.9768428530424166,0.9999999999999998,-0.9999999999999998,low,low,,ISIC_0012070.JPG,,ISIC_2565986.JPG,111,true,ll,keypress(f),100,false,386672.299999997,386672.09999999776,382729.234,382920.3999999985,382745.985,386499.599,1,16,8,
sequence,flow.Sequence,4_7,2023-11-14T20:28:28.307Z,,,,,,,,,,3926.114999997779,completion,,,,,,,low,low,,,,,,true,,,,false,386672.3999999985,386672.09999999776,382729.234,382920.299999997,382745.985,386499.599,1,16,,
trial,html.Screen,4_8_0,2023-11-14T20:28:35.190Z,,,,0,-1.0003671514840182,0.8992716557663581,,true,hl,7055.401000000013,response,1.0088376543442317,0.9999999999999998,-0.9999999999999998,-0.8023075994977575,0.9999999999999998,-0.9999999999999998,high,low,,ISIC_0061749.JPG,,ISIC_7619234.JPG,24,true,hl,keypress(j),100,false,393555.299999997,393555,386482.929,386672.5,386499.599,393389.84,1,16,9,
sequence,flow.Sequence,4_8,2023-11-14T20:28:35.190Z,,,,,,,,,,7055.401000000013,completion,,,,,,,high,low,,,,,,true,,,,false,393555.59999999776,393555,386482.929,386672.5,386499.599,393389.84,1,16,,
trial,html.Screen,4_9_0,2023-11-14T20:28:38.396Z,,,,0,-0.8070820195894357,0.8958120092147633,,true,hl,3371.8599999992293,response,0.8407642478899736,0.9999999999999998,-0.9999999999999998,-0.9542322753334054,0.9999999999999998,-0.9999999999999998,high,low,,ISIC_0060585.JPG,,ISIC_9090822.JPG,24,true,hl,keypress(j),100,false,396761.8999999985,396761.69999999925,393373.241,393555.799999997,393389.84,396593.068,1,16,10,
sequence,flow.Sequence,4_9,2023-11-14T20:28:38.396Z,,,,,,,,,,3371.8599999992293,completion,,,,,,,high,low,,,,,,true,,,,false,396762.09999999776,396761.69999999925,393373.241,393555.69999999925,393389.84,396593.068,1,16,,
trial,html.Screen,4_10_0,2023-11-14T20:28:43.393Z,,,,0,-0.8644465729542988,0.8679598285079457,,true,hl,5165.3319999984815,response,0.9225524349657857,0.9999999999999998,-0.9999999999999998,-0.929746784178986,0.9999999999999998,-0.9999999999999998,high,low,,ISIC_6718969.JPG,,ISIC_0011077.JPG,24,true,hl,keypress(j),100,false,401758.59999999776,401758.3999999985,396576.519,396762.299999997,396593.068,401598.177,1,16,11,
sequence,flow.Sequence,4_10,2023-11-14T20:28:43.393Z,,,,,,,,,,5165.3319999984815,completion,,,,,,,high,low,,,,,,true,,,,false,401758.69999999925,401758.3999999985,396576.519,396762.299999997,396593.068,401598.177,1,16,,
trial,html.Screen,4_11_0,2023-11-14T20:28:45.541Z,,,,0,-0.8923602890201078,0.8351700666074688,,true,hl,2308.7229999984847,response,1.127346631538643,0.9999999999999998,-0.9999999999999998,-0.8080854255453543,0.9999999999999998,-0.9999999999999998,high,low,,ISIC_0033103.JPG,,ISIC_0011045.JPG,24,true,hl,keypress(j),100,false,403907.09999999776,403906.8999999985,401581.531,401758.799999997,401598.177,403733.541,1,16,12,
sequence,flow.Sequence,4_11,2023-11-14T20:28:45.542Z,,,,,,,,,,2308.7229999984847,completion,,,,,,,high,low,,,,,,true,,,,false,403907.19999999925,403906.8999999985,401581.531,401758.799999997,401598.177,403733.541,1,16,,
trial,html.Screen,4_12_0,2023-11-14T20:28:55.609Z,,,,0,-0.8317161304163111,-1.1627560037277045,,true,hh,10241.158999999228,response,1.0011647073734584,0.9999999999999998,-0.9999999999999998,1.090690958018423,0.9999999999999998,-0.9999999999999998,high,high,,ISIC_5909403.JPG,,ISIC_0021901.JPG,154,true,hh,keypress(i),100,false,413974.799999997,413974.69999999925,403716.866,403907.299999997,403733.541,413810.29,1,16,13,
sequence,flow.Sequence,4_12,2023-11-14T20:28:55.609Z,,,,,,,,,,10241.158999999228,completion,,,,,,,high,high,,,,,,true,,,,false,413975,413974.69999999925,403716.866,403907.19999999925,403733.541,413810.29,1,16,,
trial,html.Screen,4_13_0,2023-11-14T20:28:58.366Z,,,,0,-0.8867858784567559,-0.8318206308101198,,true,hh,2920.710000000021,response,0.9110220836651584,0.9999999999999998,-0.9999999999999998,0.9273440813991668,0.9999999999999998,-0.9999999999999998,high,high,,ISIC_0032494.JPG,,ISIC_8290994.JPG,154,true,hh,keypress(i),100,false,416731.299999997,416731,413793.625,413975,413810.29,416563.068,1,16,14,
sequence,flow.Sequence,4_13,2023-11-14T20:28:58.366Z,,,,,,,,,,2920.710000000021,completion,,,,,,,high,high,,,,,,true,,,,false,416731.5,416731,413793.625,413975,413810.29,416563.068,1,16,,
trial,html.Screen,4_14_0,2023-11-14T20:29:07.361Z,,,,0,-1.1990772227054871,-1.1224329926844498,,true,hh,9163.931999999972,response,1.0698162624196283,0.9999999999999998,-0.9999999999999998,1.0648460966097275,0.9999999999999998,-0.9999999999999998,high,high,,ISIC_3425388.JPG,,ISIC_0030552.JPG,154,true,hh,keypress(i),100,false,425727.19999999925,425727,416546.404,416731.59999999776,416563.068,425555.49,1,16,15,
sequence,flow.Sequence,4_14,2023-11-14T20:29:07.362Z,,,,,,,,,,9163.931999999972,completion,,,,,,,high,high,,,,,,true,,,,false,425727.5,425727,416546.404,416731.59999999776,416563.068,425555.49,1,16,,
trial,html.Screen,4_15_0,2023-11-14T20:29:11.719Z,,,,0,-1.1198725483375875,-0.8325245457585946,,true,hh,4528.809999997029,response,1.001509027138033,0.9999999999999998,-0.9999999999999998,0.834356631694593,0.9999999999999998,-0.9999999999999998,high,high,,ISIC_6967143.JPG,,ISIC_8621568.JPG,154,true,hh,keypress(i),100,false,430084.5,430084.299999997,425538.731,425727.69999999925,425555.49,429909.892,1,16,16,
sequence,flow.Sequence,4_15,2023-11-14T20:29:11.719Z,,,,,,,,,,4528.809999997029,completion,,,,,,,high,high,,,,,,true,,,,false,430084.799999997,430084.299999997,425538.731,425727.59999999776,425555.49,429909.892,1,16,,
demonstration_loop,flow.Loop,4,2023-11-14T20:29:11.719Z,,,,,,,,,,106013.84299999702,completion,,,,,,,,,,,,,,true,,,,false,430084.8999999985,430084.299999997,324053.8,324243.69999999925,324070.457,429909.892,1,16,,
practice_instructions,html.Screen,5,2023-11-14T20:29:29.069Z,,,,,,,,,,17517.207999997772,response,,,,,,,,,,,,,,,continue,click button,,,447434.8999999985,447427.09999999776,429893.022,430084.8999999985,429909.892,447243.735,,,,
trial,html.Screen,6_0_0,2023-11-14T20:29:39.866Z,,,,1,-0.9416900312335138,-0.9485840589720004,,,,10811.092000000004,timeout,1.0765208267927882,0.9999999999999998,-0.9999999999999998,0.8606651260669556,0.9999999999999998,-0.9999999999999998,high,high,,ISIC_2784686.JPG,,ISIC_5313574.JPG,154,true,,,0,false,458231.8999999985,458231.59999999776,447227.298,447435,447243.735,458054.827,1,20,1,
sequence,flow.Sequence,6_0,2023-11-14T20:29:39.866Z,,,,,,,,,,10987.864999997779,completion,,,,,,,high,high,,,,,,true,,,,false,458231.8999999985,458231.59999999776,447227.298,447435,447243.735,458054.827,1,20,,
trial,html.Screen,6_1_0,2023-11-14T20:29:44.283Z,,,,1,-1.1569583426015195,-1.02258614327008,,true,hh,4594.372999999265,response,1.1584542819627714,0.9999999999999998,-0.9999999999999998,0.9718566025210856,0.9999999999999998,-0.9999999999999998,high,high,,ISIC_5705973.JPG,,ISIC_0010162.JPG,154,true,hh,keypress(i),0,false,462649.19999999925,462649.19999999925,458038.134,458232.09999999776,458054.827,462475.7,1,20,2,
sequence,flow.Sequence,6_1,2023-11-14T20:29:44.284Z,,,,,,,,,,4594.372999999265,completion,,,,,,,high,high,,,,,,true,,,,false,462649.299999997,462649.19999999925,458038.134,458232.09999999776,458054.827,462475.7,1,20,,
trial,html.Screen,6_2_0,2023-11-14T20:29:47.007Z,,,,1,-1.0143509683988825,1.0281980567462463,,true,hl,2896.1999999984982,response,1.1592423187534993,0.9999999999999998,-0.9999999999999998,-1.067128884093211,0.9999999999999998,-0.9999999999999998,high,low,,ISIC_0062031.JPG,,ISIC_6854940.JPG,24,true,hl,keypress(j),0,false,465372.299999997,465371.8999999985,462458.973,462649.5,462475.7,465195.085,1,20,3,
sequence,flow.Sequence,6_2,2023-11-14T20:29:47.007Z,,,,,,,,,,2896.1999999984982,completion,,,,,,,high,low,,,,,,true,,,,false,465372.799999997,465371.8999999985,462458.973,462649.5,462475.7,465195.085,1,20,,
trial,html.Screen,6_3_0,2023-11-14T20:29:50.582Z,,,,1,0.9566823908868002,-0.9602125665128364,,true,lh,3752.714999996999,response,-0.8644465729542988,0.9999999999999998,-0.9999999999999998,0.8679598285079457,0.9999999999999998,-0.9999999999999998,low,high,,ISIC_0056784.JPG,,ISIC_6718969.JPG,24,true,lh,keypress(e),0,false,468948,468947.799999997,465178.383,465373,465195.085,468765.272,1,20,4,
sequence,flow.Sequence,6_3,2023-11-14T20:29:50.583Z,,,,,,,,,,3752.714999996999,completion,,,,,,,low,high,,,,,,true,,,,false,468948.19999999925,468947.799999997,465178.383,465372.8999999985,465195.085,468765.272,1,20,,
trial,html.Screen,6_4_0,2023-11-14T20:29:53.062Z,,,,1,-0.8779374983479176,0.9745548032823428,,true,hl,2662.1279999985127,response,0.9566823908868002,0.9999999999999998,-0.9999999999999998,-0.9602125665128364,0.9999999999999998,-0.9999999999999998,high,low,,ISIC_2991354.JPG,,ISIC_0056784.JPG,24,true,hl,keypress(j),0,false,471427.5,471427.3999999985,468748.771,468948.3999999985,468765.272,471251.318,1,20,5,
sequence,flow.Sequence,6_4,2023-11-14T20:29:53.062Z,,,,,,,,,,2662.1279999985127,completion,,,,,,,high,low,,,,,,true,,,,false,471427.69999999925,471427.3999999985,468748.771,468948.3999999985,468765.272,471251.318,1,20,,
trial,html.Screen,6_5_0,2023-11-14T20:29:54.887Z,,,,1,1.1048442481887897,0.8090139128440115,,true,ll,2000.7819999977364,response,-0.8285454085852607,0.9999999999999998,-0.9999999999999998,-0.8539676082936701,0.9999999999999998,-0.9999999999999998,low,low,,ISIC_0057539.JPG,,ISIC_2131707.JPG,111,true,ll,keypress(f),0,false,473252.3999999985,473252.09999999776,471234.498,471427.799999997,471251.318,473069.596,1,20,6,
sequence,flow.Sequence,6_5,2023-11-14T20:29:54.887Z,,,,,,,,,,2000.7819999977364,completion,,,,,,,low,low,,,,,,true,,,,false,473252.69999999925,473252.09999999776,471234.498,471427.69999999925,471251.318,473069.596,1,20,,
trial,html.Screen,6_6_0,2023-11-14T20:29:57.374Z,,,,1,0.903200901040808,0.8884252535933715,,true,ll,2669.9039999999804,response,-1.1581797104086708,0.9999999999999998,-0.9999999999999998,-0.8335188945351617,0.9999999999999998,-0.9999999999999998,low,low,,ISIC_0065260.JPG,,ISIC_4168757.JPG,111,true,ll,keypress(f),0,false,475739.59999999776,475739.5,473052.882,473252.799999997,473069.596,475555.427,1,20,7,
sequence,flow.Sequence,6_6,2023-11-14T20:29:57.374Z,,,,,,,,,,2669.9039999999804,completion,,,,,,,low,low,,,,,,true,,,,false,475739.69999999925,475739.5,473052.882,473252.799999997,473069.596,475555.427,1,20,,
trial,html.Screen,6_7_0,2023-11-14T20:29:59.382Z,,,,1,1.0822170028935367,-1.1654796154432183,,true,lh,2192.4729999984847,response,-0.9013888878932071,0.9999999999999998,-0.9999999999999998,0.9328095253308732,0.9999999999999998,-0.9999999999999998,low,high,,ISIC_7288818.JPG,,ISIC_0068259.JPG,24,true,lh,keypress(e),0,false,477748.09999999776,477747.8999999985,475538.707,475739.799999997,475555.427,477574.35,1,20,8,
sequence,flow.Sequence,6_7,2023-11-14T20:29:59.383Z,,,,,,,,,,2192.4729999984847,completion,,,,,,,low,high,,,,,,true,,,,false,477748.299999997,477747.8999999985,475538.707,475739.799999997,475555.427,477574.35,1,20,,
trial,html.Screen,6_8_0,2023-11-14T20:30:01.871Z,,,,1,-1.1501717278509027,0.8228936373136835,,true,hl,2661.749999997788,response,0.8181754542205604,0.9999999999999998,-0.9999999999999998,-0.8285141543298179,0.9999999999999998,-0.9999999999999998,high,low,,ISIC_8398000.JPG,,ISIC_3812485.JPG,24,true,hl,keypress(j),0,false,480236.299999997,480236.09999999776,477540.857,477748.3999999985,477574.35,480060.096,1,20,9,
sequence,flow.Sequence,6_8,2023-11-14T20:30:01.871Z,,,,,,,,,,2661.749999997788,completion,,,,,,,high,low,,,,,,true,,,,false,480236.59999999776,480236.09999999776,477540.857,477748.3999999985,477574.35,480060.096,1,20,,
trial,html.Screen,6_9_0,2023-11-14T20:30:04.518Z,,,,1,-0.8200367443437355,-1.1363137800725187,,true,hh,2823.703999997,response,0.9858885614273278,0.9999999999999998,-0.9999999999999998,1.050716657084935,0.9999999999999998,-0.9999999999999998,high,high,,ISIC_0553565.JPG,,ISIC_0055498.JPG,154,true,hh,keypress(i),0,false,482884,482883.799999997,480043.246,480236.799999997,480060.096,482695.913,1,20,10,
sequence,flow.Sequence,6_9,2023-11-14T20:30:04.519Z,,,,,,,,,,2823.703999997,completion,,,,,,,high,high,,,,,,true,,,,false,482884.19999999925,482883.799999997,480043.246,480236.69999999925,480060.096,482695.913,1,20,,
trial,html.Screen,6_10_0,2023-11-14T20:30:07.182Z,,,,1,-0.9597587651037712,-0.8860066980618031,,true,hh,2851.6869999977644,response,0.8050443016688825,0.9999999999999998,-0.9999999999999998,0.9509237118003132,0.9999999999999998,-0.9999999999999998,high,high,,ISIC_7534592.JPG,,ISIC_0000554.JPG,154,true,hh,keypress(i),0,false,485547.799999997,485547.59999999776,482679.397,482884.3999999985,482695.913,485365.39,1,20,11,
sequence,flow.Sequence,6_10,2023-11-14T20:30:07.182Z,,,,,,,,,,2851.6869999977644,completion,,,,,,,high,high,,,,,,true,,,,false,485547.799999997,485547.59999999776,482679.397,482884.3999999985,482695.913,485365.39,1,20,,
trial,html.Screen,6_11_0,2023-11-14T20:30:09.582Z,,,,1,-0.8069690440362255,0.8262727717500657,,true,hl,2582.309999999241,response,1.127346631538643,0.9999999999999998,-0.9999999999999998,-0.8080854255453543,0.9999999999999998,-0.9999999999999998,high,low,,ISIC_0028469.JPG,,ISIC_0011045.JPG,24,true,hl,keypress(j),0,false,487947.799999997,487947.69999999925,485348.536,485547.8999999985,485365.39,487767.857,1,20,12,
sequence,flow.Sequence,6_11,2023-11-14T20:30:09.582Z,,,,,,,,,,2582.309999999241,completion,,,,,,,high,low,,,,,,true,,,,false,487948.09999999776,487947.69999999925,485348.536,485547.8999999985,485365.39,487767.857,1,20,,
trial,html.Screen,6_12_0,2023-11-14T20:30:12.094Z,,,,1,-0.9204445772182712,-0.927445785309251,,true,hh,2692.0429999984917,response,1.000067575413479,0.9999999999999998,-0.9999999999999998,0.963498103069642,0.9999999999999998,-0.9999999999999998,high,high,,ISIC_7839741.JPG,,ISIC_0061531.JPG,154,true,hh,keypress(i),0,false,490460.09999999776,490459.8999999985,487751.099,487948.299999997,487767.857,490287.343,1,20,13,
sequence,flow.Sequence,6_12,2023-11-14T20:30:12.095Z,,,,,,,,,,2692.0429999984917,completion,,,,,,,high,high,,,,,,true,,,,false,490460.299999997,490459.8999999985,487751.099,487948.19999999925,487767.857,490287.343,1,20,,
trial,html.Screen,6_13_0,2023-11-14T20:30:15.254Z,,,,1,-0.8070820195894357,0.8958120092147633,,true,hl,3332.6570000000065,response,1.1547137855907486,0.9999999999999998,-0.9999999999999998,-1.0185275168641534,0.9999999999999998,-0.9999999999999998,high,low,,ISIC_0060585.JPG,,ISIC_7604870.JPG,24,true,hl,keypress(j),0,false,493620.09999999776,493620,490253.565,490460.3999999985,490287.343,493440.131,1,20,14,
sequence,flow.Sequence,6_13,2023-11-14T20:30:15.255Z,,,,,,,,,,3332.6570000000065,completion,,,,,,,high,low,,,,,,true,,,,false,493620.299999997,493620,490253.565,490460.3999999985,490287.343,493440.131,1,20,,
trial,html.Screen,6_14_0,2023-11-14T20:30:17.966Z,,,,1,1.1865123670952926,0.984272725788402,,true,ll,2891.869000000006,response,-0.9487751044258608,0.9999999999999998,-0.9999999999999998,-0.9230722071334148,0.9999999999999998,-0.9999999999999998,low,low,,ISIC_7096389.JPG,,ISIC_4568084.JPG,111,true,ll,keypress(f),0,false,496332.19999999925,496332,493423.484,493620.5,493440.131,496142.675,1,20,15,
sequence,flow.Sequence,6_14,2023-11-14T20:30:17.967Z,,,,,,,,,,2891.869000000006,completion,,,,,,,low,low,,,,,,true,,,,false,496332.3999999985,496332,493423.484,493620.5,493440.131,496142.675,1,20,,
trial,html.Screen,6_15_0,2023-11-14T20:30:20.862Z,,,,1,1.0700930503975157,-0.923753102263735,,true,lh,3084.8250000000116,response,-0.8479396253253069,0.9999999999999998,-0.9999999999999998,1.011054319516718,0.9999999999999998,-0.9999999999999998,low,high,,ISIC_0000022.JPG,,ISIC_0063521.JPG,24,true,lh,keypress(e),0,false,499227.59999999776,499227.5,496125.961,496332.5,496142.675,499045.783,1,20,16,
sequence,flow.Sequence,6_15,2023-11-14T20:30:20.862Z,,,,,,,,,,3084.8250000000116,completion,,,,,,,low,high,,,,,,true,,,,false,499227.69999999925,499227.5,496125.961,496332.3999999985,496142.675,499045.783,1,20,,
trial,html.Screen,6_16_0,2023-11-14T20:30:23.342Z,,,,1,0.8407642478899736,-0.9542322753334054,,true,lh,2662.016999997024,response,-1.1235224875125256,0.9999999999999998,-0.9999999999999998,0.8641223012137988,0.9999999999999998,-0.9999999999999998,low,high,,ISIC_9090822.JPG,,ISIC_0033901.JPG,24,true,lh,keypress(e),0,false,501708,501707.799999997,499029.087,499227.799999997,499045.783,501531.455,1,20,17,
sequence,flow.Sequence,6_16,2023-11-14T20:30:23.342Z,,,,,,,,,,2662.016999997024,completion,,,,,,,low,high,,,,,,true,,,,false,501708.19999999925,501707.799999997,499029.087,499227.69999999925,499045.783,501531.455,1,20,,
trial,html.Screen,6_17_0,2023-11-14T20:30:25.278Z,,,,1,0.9850572151440374,1.028720908260899,,false,ll,2112.1449999977485,response,-1.0730492496332733,0.9999999999999998,-0.9999999999999998,-1.0252626598876022,0.9999999999999998,-0.9999999999999998,low,low,,ISIC_0068993.JPG,,ISIC_0007029.JPG,111,true,lh,keypress(e),0,false,503643.69999999925,503643.59999999776,501514.879,501708.299999997,501531.455,503466.9,1,20,18,
sequence,flow.Sequence,6_17,2023-11-14T20:30:25.278Z,,,,,,,,,,2112.1449999977485,completion,,,,,,,low,low,,,,,,true,,,,false,503643.799999997,503643.59999999776,501514.879,501708.299999997,501531.455,503466.9,1,20,,
trial,html.Screen,6_18_0,2023-11-14T20:30:27.286Z,,,,1,1.1547137855907486,-1.0185275168641534,,true,lh,2184.8999999969965,response,-0.8644465729542988,0.9999999999999998,-0.9999999999999998,0.8679598285079457,0.9999999999999998,-0.9999999999999998,low,high,,ISIC_7604870.JPG,,ISIC_6718969.JPG,24,true,lh,keypress(e),0,false,505652.09999999776,505651.799999997,503450.023,503643.799999997,503466.9,505468.876,1,20,19,
sequence,flow.Sequence,6_18,2023-11-14T20:30:27.287Z,,,,,,,,,,2184.8999999969965,completion,,,,,,,low,high,,,,,,true,,,,false,505652.299999997,505651.799999997,503450.023,503643.799999997,503466.9,505468.876,1,20,,
trial,html.Screen,6_19_0,2023-11-14T20:30:29.879Z,,,,1,0.8752617287758995,0.8023740329006754,,true,ll,2775.1240000000107,response,-0.869721192450462,0.9999999999999998,-0.9999999999999998,-0.843152880400445,0.9999999999999998,-0.9999999999999998,low,low,,ISIC_0033968.JPG,,ISIC_0000012.JPG,111,true,ll,keypress(f),0,false,508244.19999999925,508244,505452.22,505652.3999999985,505468.876,508054.63,1,20,20,
sequence,flow.Sequence,6_19,2023-11-14T20:30:29.879Z,,,,,,,,,,2775.1240000000107,completion,,,,,,,low,low,,,,,,true,,,,false,508244.5,508244,505452.22,505652.299999997,505468.876,508054.63,1,20,,
practice_loop,flow.Loop,6,2023-11-14T20:30:29.879Z,,,,,,,,,,61000.265000000014,completion,,,,,,,,,,,,,,true,,,,false,508244.59999999776,508244,447227.298,447435,447243.735,508054.63,1,20,,
stair_instructions,html.Screen,7,2023-11-14T20:31:42.830Z,,,,,,,,,,73140.46999999776,response,,,,,,,,,,,,,,,continue,click button,,,581195.6999999993,581195.0999999978,508038.037,508244.69999999925,508054.63,581010.954,,,,
trial,html.Screen,8_0_0,2023-11-14T20:31:52.892Z,,,,2,0.0023664502831079,0.0252784582169994,,false,hl,10246.945999998483,response,0.8620516892494489,0.9999999999999998,-0.9999999999999998,-1.1108509340502866,0.9999999999999998,-0.9999999999999998,high,low,,ISIC_4156010.JPG,,ISIC_5557806.JPG,24,false,lh,keypress(e),0,true,591258,591257.8999999985,580994.34,581195.799999997,581010.954,591087.752,1,40,1,
sequence,flow.Sequence,8_0,2023-11-14T20:31:52.892Z,,,,,,,,,,10246.945999998483,completion,,,,,,,high,low,,,,,,false,,,,true,591258.0999999978,591257.8999999985,580994.34,581195.6999999993,581010.954,591087.752,1,40,,
trial,html.Screen,8_1_0,2023-11-14T20:32:00.030Z,,,,2,-0.0488365673064833,0.0229344142397166,,false,hh,7307.947999999276,response,0.8161955089001555,0.9999999999999998,-0.9499999999999997,0.8163157349016503,0.9499999999999997,-0.9999999999999998,high,high,,ISIC_0056915.JPG,,ISIC_0030139.JPG,153,false,ll,keypress(f),0,true,598395.8999999985,598395.6999999993,591071.215,591258.1999999993,591087.752,598211.524,1,40,2,
sequence,flow.Sequence,8_1,2023-11-14T20:32:00.030Z,,,,,,,,,,7307.947999999276,completion,,,,,,,high,high,,,,,,false,,,,true,598396.0999999978,598395.6999999993,591071.215,591258.0999999978,591087.752,598211.524,1,40,,
trial,html.Screen,8_2_0,2023-11-14T20:32:08.167Z,,,,2,0.0077673378094614,0.0021810768579373,,true,hh,8320.476000000024,response,1.0931477426281198,0.9999999999999998,-0.8999999999999997,0.8421248340065566,0.9499999999999997,-0.9499999999999997,high,high,,ISIC_0067621.JPG,,ISIC_0026531.JPG,153,false,hh,keypress(i),0,true,606532.1999999993,606532,598194.97,598396.0999999978,598211.524,606353.156,1,40,3,
sequence,flow.Sequence,8_2,2023-11-14T20:32:08.167Z,,,,,,,,,,8320.476000000024,completion,,,,,,,high,high,,,,,,false,,,,true,606532.5,606532,598194.97,598396.0999999978,598211.524,606353.156,1,40,,
trial,html.Screen,8_3_0,2023-11-14T20:32:16.351Z,,,,2,-0.0646883165340005,-0.0250974824557198,,false,ll,8362.844000000041,response,-0.9487751044258608,0.9499999999999997,-0.8499999999999996,-0.9230722071334148,0.8999999999999997,-0.8999999999999997,low,low,,ISIC_0069515.JPG,,ISIC_4568084.JPG,184,false,lh,keypress(e),0,true,614716.1999999993,614716,606336.165,606532.5,606353.156,614527.872,1,40,4,
sequence,flow.Sequence,8_3,2023-11-14T20:32:16.351Z,,,,,,,,,,8362.844000000041,completion,,,,,,,low,low,,,,,,false,,,,true,614716.3999999985,614716,606336.165,606532.5,606353.156,614527.872,1,40,,
trial,html.Screen,8_4_0,2023-11-14T20:32:23.895Z,,,,2,-0.0296179945324451,-0.074433472160252,,false,ll,7732.327999999281,response,-0.7089609901892074,0.8999999999999997,-0.8499999999999996,-0.883703756647157,0.8499999999999996,-0.8999999999999997,low,low,,ISIC_0026982.JPG,,ISIC_1142933.JPG,184,false,lh,keypress(e),0,true,622260.299999997,622260.1999999993,614511.151,614716.5999999978,614527.872,622085.477,1,40,5,
sequence,flow.Sequence,8_4,2023-11-14T20:32:23.895Z,,,,,,,,,,7732.327999999281,completion,,,,,,,low,low,,,,,,false,,,,true,622260.5,622260.1999999993,614511.151,614716.5,614527.872,622085.477,1,40,,
trial,html.Screen,8_5_0,2023-11-14T20:32:28.169Z,,,,2,-0.0686816131231518,0.0045217849100701,,true,lh,4449.023000000045,response,-0.7555963738331037,0.8499999999999996,-0.8499999999999996,0.8728259922218632,0.7999999999999996,-0.8999999999999997,low,high,,ISIC_5707761.JPG,,ISIC_3060248.JPG,68,false,lh,keypress(e),0,true,626534.6999999993,626534.5,622068.756,622260.5999999978,622085.477,626356.386,1,40,6,
sequence,flow.Sequence,8_5,2023-11-14T20:32:28.169Z,,,,,,,,,,4449.023000000045,completion,,,,,,,low,high,,,,,,false,,,,true,626534.799999997,626534.5,622068.756,622260.5999999978,622085.477,626356.386,1,40,,
trial,html.Screen,8_6_0,2023-11-14T20:32:32.935Z,,,,2,0.0040788697657958,0.0696367106527537,,true,ll,4943.613999999943,response,-0.8012073849444404,0.7999999999999996,-0.6322786820111554,-0.7079823492956061,0.7574754131142099,-0.8499999999999996,low,low,,ISIC_0066882.JPG,,ISIC_0030703.JPG,254,false,ll,keypress(f),0,true,631300.0999999978,631300,626339.751,626534.8999999985,626356.386,631111.122,1,40,7,
sequence,flow.Sequence,8_6,2023-11-14T20:32:32.935Z,,,,,,,,,,4943.613999999943,completion,,,,,,,low,low,,,,,,false,,,,true,631300.3999999985,631300,626339.751,626534.8999999985,626356.386,631111.122,1,40,,
trial,html.Screen,8_7_0,2023-11-14T20:32:38.847Z,,,,2,-0.004212480280886,-0.0518491070608022,,false,hl,6100.777999998536,response,0.9128554359750156,0.7499999999999996,-0.5822786820111554,-0.739303798149096,0.7074754131142098,-0.7999999999999996,high,low,,ISIC_2945324.JPG,,ISIC_0030985.JPG,102,false,ll,keypress(f),0,true,637212.0999999978,637211.8999999985,631094.528,631300.3999999985,631111.122,637033.744,1,40,8,
sequence,flow.Sequence,8_7,2023-11-14T20:32:38.847Z,,,,,,,,,,6100.777999998536,completion,,,,,,,high,low,,,,,,false,,,,true,637212.299999997,637211.8999999985,631094.528,631300.3999999985,631111.122,637033.744,1,40,,
trial,html.Screen,8_8_0,2023-11-14T20:32:45.783Z,,,,2,-0.0646883165340005,-0.0250974824557198,,true,hh,7114.155999998562,response,0.8835058339726064,0.7499999999999996,-0.5322786820111554,0.6023798001975138,0.6574754131142098,-0.7999999999999996,high,high,,ISIC_0069515.JPG,,ISIC_0069595.JPG,267,false,hh,keypress(i),0,true,644148,644147.8999999985,637017.044,637212.3999999985,637033.744,643974.489,1,40,9,
sequence,flow.Sequence,8_8,2023-11-14T20:32:45.783Z,,,,,,,,,,7114.155999998562,completion,,,,,,,high,high,,,,,,false,,,,true,644148.0999999978,644147.8999999985,637017.044,637212.3999999985,637033.744,643974.489,1,40,,
trial,html.Screen,8_9_0,2023-11-14T20:32:56.587Z,,,,2,0.0339906816361373,0.0603913124071272,,,,10793.655000000028,timeout,-0.570492493998649,0.6999999999999995,-0.48227868201115537,0.5746372506892189,0.6074754131142097,-0.7499999999999996,low,high,,ISIC_1258763.JPG,,ISIC_0071586.JPG,239,false,,,0,true,654951.8999999985,654951.6999999993,643940.5,644148.1999999993,643974.489,654768.144,1,40,10,
sequence,flow.Sequence,8_9,2023-11-14T20:32:56.587Z,,,,,,,,,,10977.210999999312,completion,,,,,,,low,high,,,,,,false,,,,true,654952.0999999978,654951.6999999993,643940.5,644148.1999999993,643974.489,654768.144,1,40,,
trial,html.Screen,8_10_0,2023-11-14T20:33:03.840Z,,,,2,-0.0372699196710335,0.0646614895271859,,false,lh,7436.356000000029,response,-0.3627244968958144,0.6999999999999995,-0.48227868201115537,0.473140536875029,0.6074754131142097,-0.7499999999999996,low,high,,ISIC_1175170.JPG,,ISIC_5938680.JPG,239,false,ll,keypress(f),0,true,662204.6999999993,662204.5,654751.686,654952.1999999993,654768.144,662025.398,1,40,11,
sequence,flow.Sequence,8_10,2023-11-14T20:33:03.840Z,,,,,,,,,,7436.356000000029,completion,,,,,,,low,high,,,,,,false,,,,true,662205,662204.5,654751.686,654952.1999999993,654768.144,662025.398,1,40,,
trial,html.Screen,8_11_0,2023-11-14T20:33:07.575Z,,,,2,-0.0658524437333868,0.0334357178485904,,false,hh,3914.8019999992102,response,0.6168138779300408,0.6499999999999995,-0.48227868201115537,0.5866130253923263,0.6074754131142097,-0.6999999999999995,high,high,,ISIC_8015541.JPG,,ISIC_0029740.JPG,309,false,lh,keypress(e),0,true,665940.299999997,665940.1999999993,662008.82,662205.0999999978,662025.398,665762.73,1,40,12,
sequence,flow.Sequence,8_11,2023-11-14T20:33:07.575Z,,,,,,,,,,3914.8019999992102,completion,,,,,,,high,high,,,,,,false,,,,true,665940.5,665940.1999999993,662008.82,662205.0999999978,662025.398,665762.73,1,40,,
trial,html.Screen,8_12_0,2023-11-14T20:33:13.167Z,,,,2,0.0203374006918297,-0.0594475300019112,,false,lh,5769.1699999985285,response,-0.4858654322464266,0.6499999999999995,-0.48227868201115537,0.5644144600099418,0.6074754131142097,-0.6499999999999995,low,high,,ISIC_0028579.JPG,,ISIC_9780632.JPG,239,false,ll,keypress(f),0,true,671532.0999999978,671531.8999999985,665745.793,665940.6999999993,665762.73,671351.473,1,40,13,
sequence,flow.Sequence,8_12,2023-11-14T20:33:13.167Z,,,,,,,,,,5769.1699999985285,completion,,,,,,,low,high,,,,,,false,,,,true,671532.299999997,671531.8999999985,665745.793,665940.5999999978,665762.73,671351.473,1,40,,
trial,html.Screen,8_13_0,2023-11-14T20:33:16.671Z,,,,2,-0.0514357258480358,-0.006520984995476,,false,hh,3684.527000000002,response,0.5729106068469645,0.5999999999999994,-0.48227868201115537,0.7135782671594406,0.6074754131142097,-0.5999999999999994,high,high,,ISIC_0031386.JPG,,ISIC_0033856.JPG,322,false,lh,keypress(e),0,true,675036.1999999993,675036,671334.765,671532.3999999985,671351.473,674855.007,1,40,14,
sequence,flow.Sequence,8_13,2023-11-14T20:33:16.671Z,,,,,,,,,,3684.527000000002,completion,,,,,,,high,high,,,,,,false,,,,true,675036.3999999985,675036,671334.765,671532.3999999985,671351.473,674855.007,1,40,,
trial,html.Screen,8_14_0,2023-11-14T20:33:21.735Z,,,,2,-0.0488365673064833,0.0229344142397166,,true,hl,5245.192999999272,response,0.4248996874637721,0.5999999999999994,-0.48227868201115537,-0.6527068677186888,0.6074754131142097,-0.5499999999999994,high,low,,ISIC_0056915.JPG,,ISIC_4738636.JPG,206,false,hl,keypress(j),0,true,680100.299999997,680100.1999999993,674838.211,675036.5,674855.007,679927.042,1,40,15,
sequence,flow.Sequence,8_14,2023-11-14T20:33:21.735Z,,,,,,,,,,5245.192999999272,completion,,,,,,,high,low,,,,,,false,,,,true,680100.5999999978,680100.1999999993,674838.211,675036.5,674855.007,679927.042,1,40,,
trial,html.Screen,8_15_0,2023-11-14T20:33:26.143Z,,,,2,0.0071892445601978,-0.0246015408628738,,true,hl,4581.257999997004,response,0.4713224272042806,0.5499999999999994,-0.48227868201115537,-0.7526736411978232,0.5574754131142097,-0.5960053329338924,high,low,,ISIC_0014133.JPG,,ISIC_6569060.JPG,223,false,hl,keypress(j),0,true,684508.3999999985,684508.299999997,679893.305,680100.5999999978,679927.042,684331.208,1,40,16,
sequence,flow.Sequence,8_15,2023-11-14T20:33:26.144Z,,,,,,,,,,4581.257999997004,completion,,,,,,,high,low,,,,,,false,,,,true,684508.6999999993,684508.299999997,679893.305,680100.5999999978,679927.042,684331.208,1,40,,
trial,html.Screen,8_16_0,2023-11-14T20:33:29.287Z,,,,2,-0.0474755744799381,-0.0692210794081785,,false,ll,3320.8919999977807,response,-0.6321471322168797,0.4999999999999994,-0.48227868201115537,-0.691993042343718,0.5074754131142096,-0.5460053329338923,low,low,,ISIC_8794567.JPG,,ISIC_0025595.JPG,445,false,lh,keypress(e),0,true,687652.299999997,687652.0999999978,684314.48,684508.8999999985,684331.208,687467.508,1,40,17,
sequence,flow.Sequence,8_16,2023-11-14T20:33:29.287Z,,,,,,,,,,3320.8919999977807,completion,,,,,,,low,low,,,,,,false,,,,true,687652.5,687652.0999999978,684314.48,684508.799999997,684331.208,687467.508,1,40,,
trial,html.Screen,8_17_0,2023-11-14T20:33:36.495Z,,,,2,-0.0321039635696159,-0.020496766286318,,false,hl,7392.291999996989,response,0.5049392085113823,0.4999999999999994,-0.48227868201115537,-0.612679234038425,0.45747541311420964,-0.5460053329338923,high,low,,ISIC_0058063.JPG,,ISIC_7460111.JPG,242,false,hh,keypress(i),0,true,694859.8999999985,694859.799999997,687451.04,687652.5999999978,687467.508,694674.814,1,40,18,
sequence,flow.Sequence,8_17,2023-11-14T20:33:36.495Z,,,,,,,,,,7392.291999996989,completion,,,,,,,high,low,,,,,,false,,,,true,694860,694859.799999997,687451.04,687652.5999999978,687467.508,694674.814,1,40,,
trial,html.Screen,8_18_0,2023-11-14T20:33:42.127Z,,,,2,-0.0367218428225813,0.0026956749740767,,false,ll,5817.185999999987,response,-0.44787561864093,0.4999999999999994,-0.48227868201115537,-0.7442360536244076,0.45747541311420964,-0.5460053329338923,low,low,,ISIC_7212271.JPG,,ISIC_8796769.JPG,445,false,lh,keypress(e),0,true,700492.0999999978,700492,694658.076,694860,694674.814,700313.959,1,40,19,
sequence,flow.Sequence,8_18,2023-11-14T20:33:42.127Z,,,,,,,,,,5817.185999999987,completion,,,,,,,low,low,,,,,,false,,,,true,700492.1999999993,700492,694658.076,694860,694674.814,700313.959,1,40,,
trial,html.Screen,8_19_0,2023-11-14T20:33:48.415Z,,,,2,0.0362472736315994,0.0492979048777824,,false,hl,6466.140999997733,response,0.584475572955044,0.4999999999999994,-0.48227868201115537,-0.4043436449836587,0.45747541311420964,-0.5460053329338923,high,low,,ISIC_5312584.JPG,,ISIC_0029562.JPG,242,false,lh,keypress(e),0,true,706780.299999997,706780.0999999978,700296.987,700492.299999997,700313.959,706603.355,1,40,20,
sequence,flow.Sequence,8_19,2023-11-14T20:33:48.416Z,,,,,,,,,,6466.140999997733,completion,,,,,,,high,low,,,,,,false,,,,true,706780.5999999978,706780.0999999978,700296.987,700492.299999997,700313.959,706603.355,1,40,,
trial,html.Screen,8_20_0,2023-11-14T20:33:54.271Z,,,,2,0.0420795830016583,-0.0226772711905177,,false,hl,6032.944999997038,response,0.3406742870614351,0.4999999999999994,-0.48227868201115537,-0.5811052050391725,0.45747541311420964,-0.5460053329338923,high,low,,ISIC_0638857.JPG,,ISIC_2126035.JPG,242,false,hh,keypress(i),0,true,712636.5,712636.299999997,706586.634,706780.6999999993,706603.355,712459.344,1,40,21,
sequence,flow.Sequence,8_20,2023-11-14T20:33:54.272Z,,,,,,,,,,6032.944999997038,completion,,,,,,,high,low,,,,,,false,,,,true,712636.799999997,712636.299999997,706586.634,706780.6999999993,706603.355,712459.344,1,40,,
trial,html.Screen,8_21_0,2023-11-14T20:34:00.055Z,,,,2,-0.0296179945324451,-0.074433472160252,,true,lh,5960.355999999214,response,-0.3172297100661941,0.4999999999999994,-0.48227868201115537,0.3491057233705587,0.45747541311420964,-0.5460053329338923,low,high,,ISIC_0026982.JPG,,ISIC_0063191.JPG,306,false,lh,keypress(e),0,true,718419.799999997,718419.6999999993,712442.635,712636.799999997,712459.344,718231.639,1,40,22,
sequence,flow.Sequence,8_21,2023-11-14T20:34:00.055Z,,,,,,,,,,5960.355999999214,completion,,,,,,,low,high,,,,,,false,,,,true,718420,718419.6999999993,712442.635,712636.799999997,712459.344,718231.639,1,40,,
trial,html.Screen,8_22_0,2023-11-14T20:34:05.896Z,,,,2,-0.0565575423757561,0.0536115913979284,,true,lh,6028.960999997798,response,-0.4188544363604846,0.4999999999999994,-0.4322786820111554,0.3165071416322171,0.4813419952649996,-0.4960053329338923,low,high,,ISIC_0046983.JPG,,ISIC_4793961.JPG,299,false,lh,keypress(e),0,true,724260.799999997,724260.5999999978,718214.871,718420,718231.639,724088.945,1,40,23,
sequence,flow.Sequence,8_22,2023-11-14T20:34:05.896Z,,,,,,,,,,6028.960999997798,completion,,,,,,,low,high,,,,,,false,,,,true,724261.0999999978,724260.5999999978,718214.871,718420,718231.639,724088.945,1,40,,
trial,html.Screen,8_23_0,2023-11-14T20:34:12.399Z,,,,2,-0.0050319651598106,0.047524453347389,,false,hl,6675.254999999306,response,0.5685814156754376,0.4999999999999994,-0.4322786820111554,-0.3774339098958725,0.4813419952649996,-0.4960053329338923,high,low,,ISIC_0027081.JPG,,ISIC_0030820.JPG,256,false,hh,keypress(i),0,true,730764.3999999985,730764.1999999993,724054.187,724261.1999999993,724088.945,730577.356,1,40,24,
sequence,flow.Sequence,8_23,2023-11-14T20:34:12.400Z,,,,,,,,,,6675.254999999306,completion,,,,,,,high,low,,,,,,false,,,,true,730764.799999997,730764.1999999993,724054.187,724261.1999999993,724088.945,730577.356,1,40,,
trial,html.Screen,8_24_0,2023-11-14T20:34:17.464Z,,,,2,0.0339906816361373,0.0603913124071272,,true,hh,5251.243999997736,response,0.570285182729728,0.4999999999999994,-0.4322786820111554,0.5996288796927439,0.4813419952649996,-0.4960053329338923,high,high,,ISIC_1258763.JPG,,ISIC_0033068.JPG,352,false,hh,keypress(i),0,true,735828.6999999993,735828.5999999978,730560.808,730764.8999999985,730577.356,735649.131,1,40,25,
sequence,flow.Sequence,8_24,2023-11-14T20:34:17.464Z,,,,,,,,,,5251.243999997736,completion,,,,,,,high,high,,,,,,false,,,,true,735829.0999999978,735828.5999999978,730560.808,730764.799999997,730577.356,735649.131,1,40,,
trial,html.Screen,8_25_0,2023-11-14T20:34:22.711Z,,,,2,0.0523524458062335,-0.0048771624512062,,true,lh,5427.168999996968,response,-0.4491680387823112,0.46943329920258275,-0.4322786820111554,0.4588409751197836,0.4313419952649996,-0.4960053329338923,low,high,,ISIC_0010379.JPG,,ISIC_0031304.JPG,322,false,lh,keypress(e),0,true,741076.3999999985,741076.299999997,735632.508,735829.1999999993,735649.131,740887.705,1,40,26,
sequence,flow.Sequence,8_25,2023-11-14T20:34:22.712Z,,,,,,,,,,5427.168999996968,completion,,,,,,,low,high,,,,,,false,,,,true,741076.5999999978,741076.299999997,735632.508,735829.1999999993,735649.131,740887.705,1,40,,
trial,html.Screen,8_26_0,2023-11-14T20:34:27.695Z,,,,2,0.0480684603309257,-0.0620119776873313,,true,hh,5172.594999997062,response,0.3623351571042946,0.46943329920258275,-0.3822786820111554,0.2525399240059742,0.4313419952649996,-0.4960053329338923,high,high,,ISIC_0645834.JPG,,ISIC_6997433.JPG,392,false,hh,keypress(i),0,true,746060.5,746060.299999997,740871.054,741076.799999997,740887.705,745876.002,1,40,27,
sequence,flow.Sequence,8_26,2023-11-14T20:34:27.696Z,,,,,,,,,,5172.594999997062,completion,,,,,,,high,high,,,,,,false,,,,true,746060.799999997,746060.299999997,740871.054,741076.799999997,740887.705,745876.002,1,40,,
trial,html.Screen,8_27_0,2023-11-14T20:34:34.119Z,,,,2,0.0399381815506136,0.0177751789152893,,false,hl,6608.097999997786,response,0.4653721166166787,0.46943329920258275,-0.3822786820111554,-0.3394101060324473,0.3813419952649996,-0.4960053329338923,high,low,,ISIC_3981425.JPG,,ISIC_5476277.JPG,281,false,hh,keypress(i),0,true,752484.299999997,752484.0999999978,745859.243,746060.799999997,745876.002,752299.054,1,40,28,
sequence,flow.Sequence,8_27,2023-11-14T20:34:34.120Z,,,,,,,,,,6608.097999997786,completion,,,,,,,high,low,,,,,,false,,,,true,752484.5999999978,752484.0999999978,745859.243,746060.799999997,745876.002,752299.054,1,40,,
trial,html.Screen,8_28_0,2023-11-14T20:34:39.191Z,,,,2,-0.0001106800768269,0.0404747734408496,,false,lh,5257.145999999251,response,-0.3586945321372499,0.46943329920258275,-0.3822786820111554,0.2223579804803936,0.3813419952649996,-0.4960053329338923,low,high,,ISIC_5706192.JPG,,ISIC_8791744.JPG,352,false,hl,keypress(j),0,true,757556.299999997,757556.1999999993,752282.439,752484.799999997,752299.054,757370.828,1,40,29,
sequence,flow.Sequence,8_28,2023-11-14T20:34:39.192Z,,,,,,,,,,5257.145999999251,completion,,,,,,,low,high,,,,,,false,,,,true,757556.5999999978,757556.1999999993,752282.439,752484.6999999993,752299.054,757370.828,1,40,,
trial,html.Screen,8_29_0,2023-11-14T20:34:43.248Z,,,,2,-0.0001106800768269,0.0404747734408496,,true,lh,4241.47199999704,response,-0.582329390280888,0.46943329920258275,-0.4322786820111554,0.4760140783906083,0.4313419952649996,-0.4960053329338923,low,high,,ISIC_5706192.JPG,,ISIC_0027411.JPG,322,false,lh,keypress(e),0,true,761612.5,761612.299999997,757354.238,757556.6999999993,757370.828,761424.89,1,40,30,
sequence,flow.Sequence,8_29,2023-11-14T20:34:43.248Z,,,,,,,,,,4241.47199999704,completion,,,,,,,low,high,,,,,,false,,,,true,761612.6999999993,761612.299999997,757354.238,757556.6999999993,757370.828,761424.89,1,40,,
trial,html.Screen,8_30_0,2023-11-14T20:34:47.696Z,,,,2,-0.0321039635696159,-0.020496766286318,,false,hh,4635.409999997006,response,0.5343315006515573,0.46943329920258275,-0.4322786820111554,0.4416794055775316,0.4313419952649996,-0.4960053329338923,high,high,,ISIC_0058063.JPG,,ISIC_9935444.JPG,392,false,hl,keypress(j),0,true,766060.5,766060.299999997,761408.435,761612.799999997,761424.89,765879.368,1,40,31,
sequence,flow.Sequence,8_30,2023-11-14T20:34:47.696Z,,,,,,,,,,4635.409999997006,completion,,,,,,,high,high,,,,,,false,,,,true,766060.6999999993,766060.299999997,761408.435,761612.6999999993,761424.89,765879.368,1,40,,
trial,html.Screen,8_31_0,2023-11-14T20:34:55.496Z,,,,2,-0.0191999585302269,0.0745789212985316,,true,ll,7981.131999999983,response,-0.337098513778375,0.46943329920258275,-0.4322786820111554,-0.5640116303821162,0.4813419952649996,-0.4960053329338923,low,low,,ISIC_4024062.JPG,,ISIC_0339930.JPG,475,false,ll,keypress(f),0,true,773860.5999999978,773860.5,765862.658,766060.799999997,765879.368,773687.669,1,40,32,
sequence,flow.Sequence,8_31,2023-11-14T20:34:55.496Z,,,,,,,,,,7981.131999999983,completion,,,,,,,low,low,,,,,,false,,,,true,773860.8999999985,773860.5,765862.658,766060.799999997,765879.368,773687.669,1,40,,
trial,html.Screen,8_32_0,2023-11-14T20:35:00.743Z,,,,2,-0.0597592587797575,,,false,hh,5420.5309999992605,response,0.4106949502870872,0.46943329920258275,-0.3822786820111554,0.4006106071717407,0.4813419952649996,-0.4960053329338923,high,high,,ISIC_0071367.JPG,,ISIC_9351418.JPG,371,false,hl,keypress(j),0,true,779108.299999997,779108.1999999993,773653.871,773861.0999999978,773687.669,778925.816,1,40,33,
sequence,flow.Sequence,8_32,2023-11-14T20:35:00.744Z,,,,,,,,,,5420.5309999992605,completion,,,,,,,high,high,,,,,,false,,,,true,779108.5,779108.1999999993,773653.871,773861,773687.669,778925.816,1,40,,
trial,html.Screen,8_33_0,2023-11-14T20:35:05.479Z,,,,2,-0.0597592587797575,,,false,ll,4918.083999998518,response,-0.2679347670869885,0.46943329920258275,-0.3822786820111554,-0.5661107306589584,0.4813419952649996,-0.4960053329338923,low,low,,ISIC_0071367.JPG,,ISIC_9047184.JPG,466,false,hl,keypress(j),0,true,783844,783843.8999999985,778909.006,779108.6999999993,778925.816,783663.838,1,40,34,
sequence,flow.Sequence,8_33,2023-11-14T20:35:05.479Z,,,,,,,,,,4918.083999998518,completion,,,,,,,low,low,,,,,,false,,,,true,783844.0999999978,783843.8999999985,778909.006,779108.6999999993,778925.816,783663.838,1,40,,
trial,html.Screen,8_34_0,2023-11-14T20:35:12.360Z,,,,2,0.0458738008498492,0.0084690422621415,,false,ll,7060.561999998521,response,-0.2972976947265102,0.46943329920258275,-0.4322786820111554,-0.4823461558241963,0.4813419952649996,-0.4960053329338923,low,low,,ISIC_4026019.JPG,,ISIC_0013831.JPG,475,false,lh,keypress(e),0,true,790724.5,790724.3999999985,783647.083,783844.0999999978,783663.838,790537.367,1,40,35,
sequence,flow.Sequence,8_34,2023-11-14T20:35:12.360Z,,,,,,,,,,7060.561999998521,completion,,,,,,,low,low,,,,,,false,,,,true,790724.6999999993,790724.3999999985,783647.083,783844.0999999978,783663.838,790537.367,1,40,,
trial,html.Screen,8_35_0,2023-11-14T20:35:18.191Z,,,,2,0.0700745968706567,0.013891147856594,,true,hh,6018.832999999286,response,0.3392135310725134,0.46943329920258275,-0.48227868201115537,0.4683380479747848,0.4813419952649996,-0.4960053329338923,high,high,,ISIC_0054663.JPG,,ISIC_0000466.JPG,371,false,hh,keypress(i),0,true,796556.299999997,796556.1999999993,790520.671,790724.8999999985,790537.367,796376.67,1,40,36,
sequence,flow.Sequence,8_35,2023-11-14T20:35:18.192Z,,,,,,,,,,6018.832999999286,completion,,,,,,,high,high,,,,,,false,,,,true,796556.5,796556.1999999993,790520.671,790724.799999997,790537.367,796376.67,1,40,,
trial,html.Screen,8_36_0,2023-11-14T20:35:23.376Z,,,,2,-0.0361875505619981,0.0291457404567876,,false,ll,5363.729999998468,response,-0.6061078702645484,0.41943329920258277,-0.48227868201115537,-0.4051611852672979,0.4813419952649996,-0.4960053329338923,low,low,,ISIC_0027480.JPG,,ISIC_2151856.JPG,459,false,hh,keypress(i),0,true,801740.5999999978,801740.3999999985,796359.867,796556.5999999978,796376.67,801565.207,1,40,37,
sequence,flow.Sequence,8_36,2023-11-14T20:35:23.376Z,,,,,,,,,,5363.729999998468,completion,,,,,,,low,low,,,,,,false,,,,true,801740.6999999993,801740.3999999985,796359.867,796556.5999999978,796376.67,801565.207,1,40,,
trial,html.Screen,8_37_0,2023-11-14T20:35:31.944Z,,,,2,0.0420795830016583,-0.0226772711905177,,false,hl,8743.092999996967,response,0.2676681273057967,0.41943329920258277,-0.48227868201115537,-0.5195036878201403,0.4813419952649996,-0.4960053329338923,high,low,,ISIC_0638857.JPG,,ISIC_6779421.JPG,297,false,hh,keypress(i),0,true,810308.5,810308.299999997,801548.367,801740.799999997,801565.207,810123.632,1,40,38,
sequence,flow.Sequence,8_37,2023-11-14T20:35:31.944Z,,,,,,,,,,8743.092999996967,completion,,,,,,,high,low,,,,,,false,,,,true,810308.6999999993,810308.299999997,801548.367,801740.799999997,801565.207,810123.632,1,40,,
trial,html.Screen,8_38_0,2023-11-14T20:35:37.184Z,,,,2,0.0629926578251803,-0.0626296407938785,,true,lh,5425.368000000017,response,-0.6278135334147718,0.46943329920258275,-0.48227868201115537,0.6341645142460736,0.4813419952649996,-0.4960053329338923,low,high,,ISIC_0027043.JPG,,ISIC_0058303.JPG,288,false,lh,keypress(e),0,true,815549.299999997,815549,810106.93,810308.8999999985,810123.632,815362.221,1,40,39,
sequence,flow.Sequence,8_38,2023-11-14T20:35:37.185Z,,,,,,,,,,5425.368000000017,completion,,,,,,,low,high,,,,,,false,,,,true,815549.5999999978,815549,810106.93,810308.799999997,810123.632,815362.221,1,40,,
trial,html.Screen,8_39_0,2023-11-14T20:35:45.880Z,,,,2,-0.0277178575053843,-0.0645068093068572,,false,ll,8882.078999997,response,-0.6689204437892962,0.46943329920258275,-0.48227868201115537,-0.6619621949114218,0.45125128111042917,-0.4960053329338923,low,low,,ISIC_0010807.JPG,,ISIC_0013733.JPG,459,false,hl,keypress(j),0,true,824244.3999999985,824244.299999997,815345.571,815549.8999999985,815362.221,824071.947,1,40,40,
sequence,flow.Sequence,8_39,2023-11-14T20:35:45.880Z,,,,,,,,,,8882.078999997,completion,,,,,,,low,low,,,,,,false,,,,true,824244.6999999993,824244.299999997,815345.571,815549.799999997,815362.221,824071.947,1,40,,
stair_loop,flow.Loop,8,2023-11-14T20:35:45.880Z,,,,,,,,,,243233.345999997,completion,,,,,,,,,,,,,,false,,,,true,824244.799999997,824244.299999997,580994.34,581195.6999999993,581010.954,824071.947,1,40,,
exp_instructions,html.Screen,9,2023-11-14T20:40:10.447Z,,,,,,,,,,264739.95299999847,response,,,,,,,,,,,,,,,continue,keypress(Space),,,1088812.3999999985,1088811.8999999985,824037.516,824244.8999999985,824071.947,1088635.818,,,,
trial,html.Screen,10_0_0,2023-11-14T20:40:18.741Z,,,,1,0.0362472736315994,0.0492979048777824,,false,ll,8470.18200000003,response,-0.4875928598877057,0.47207497440193713,-0.43727868201115533,-0.5751726119390834,0.4574508013421921,-0.5010053329338924,low,low,,ISIC_5312584.JPG,10,ISIC_7581199.JPG,475,false,lh,keypress(e),0,false,1097106.0999999978,1097106,1088616.616,1088812.5,1088635.818,1096927.467,4,500,1,
break,html.Screen,10_0_1,2023-11-14T20:40:18.741Z,,,,,,,,,,NaN,,,,,,,,low,low,,,,,,false,,,,false,1097106.8999999985,1097106.8999999985,,1097106.5,,1096927.467,4,500,,
break_continue,html.Screen,10_0_2,2023-11-14T20:40:18.742Z,,,,,,,,,,NaN,,,,,,,,low,low,,,,,,false,,,,false,1097107.299999997,1097107.1999999993,,1097107,,1096927.467,4,500,,
sequence,flow.Sequence,10_0,2023-11-14T20:40:18.742Z,,,,,,,,,,8471.381999999285,completion,,,,,,,low,low,,,,,,false,,,,false,1097107.299999997,1097107.1999999993,1088616.616,1088812.5,1088635.818,1096927.467,4,500,,
trial,html.Screen,10_1_0,2023-11-14T20:40:23.223Z,,,,1,-0.0063515208248796,-0.0194177605767913,,true,ll,4661.232999999309,response,-0.5752815734636574,0.47207497440193713,-0.43727868201115533,-0.6770593578760992,0.4574508013421921,-0.5010053329338924,low,low,,ISIC_5281908.JPG,10,ISIC_0448485.JPG,475,false,ll,keypress(f),0,false,1101588.8999999985,1101588.6999999993,1096910.692,1097107.3999999985,1096927.467,1101416.46,4,500,2,
break,html.Screen,10_1_1,2023-11-14T20:40:23.224Z,,,,,,,,,,NaN,,,,,,,,low,low,,,,,,false,,,,false,1101589.5,1101589.299999997,,1101589.0999999978,,1101416.46,4,500,,
break_continue,html.Screen,10_1_2,2023-11-14T20:40:23.224Z,,,,,,,,,,NaN,,,,,,,,low,low,,,,,,false,,,,false,1101589.799999997,1101589.799999997,,1101589.5999999978,,1101416.46,4,500,,
sequence,flow.Sequence,10_1,2023-11-14T20:40:23.225Z,,,,,,,,,,4662.332999997074,completion,,,,,,,low,low,,,,,,false,,,,false,1101590,1101589.799999997,1096910.692,1097107.3999999985,1096927.467,1101416.46,4,500,,
trial,html.Screen,10_2_0,2023-11-14T20:40:26.559Z,,,,1,-0.0744767864787991,0.0482768027208112,,true,hh,3507.939999998547,response,0.4962658443875807,0.47207497440193713,-0.43727868201115533,0.4712802935931147,0.4574508013421921,-0.5010053329338924,high,high,,ISIC_0011482.JPG,9,ISIC_0010934.JPG,375,false,hh,keypress(i),0,false,1104924.5999999978,1104924.3999999985,1101382.012,1101590.0999999978,1101416.46,1104735.201,4,500,3,
break,html.Screen,10_2_1,2023-11-14T20:40:26.560Z,,,,,,,,,,NaN,,,,,,,,high,high,,,,,,false,,,,false,1104925.1999999993,1104925,,1104924.6999999993,,1104735.201,4,500,,
break_continue,html.Screen,10_2_2,2023-11-14T20:40:26.560Z,,,,,,,,,,NaN,,,,,,,,high,high,,,,,,false,,,,false,1104925.5,1104925.299999997,,1104925.1999999993,,1104735.201,4,500,,
sequence,flow.Sequence,10_2,2023-11-14T20:40:26.560Z,,,,,,,,,,3508.839999997057,completion,,,,,,,high,high,,,,,,false,,,,false,1104925.5999999978,1104925.299999997,1101382.012,1101590.0999999978,1101416.46,1104735.201,4,500,,
trial,html.Screen,10_3_0,2023-11-14T20:40:30.168Z,,,,1,0.0560021488981517,-0.0058131881595011,,false,hh,3797.6989999986254,response,0.3433322681583688,0.47207497440193713,-0.43727868201115533,0.5594254740341711,0.4574508013421921,-0.5010053329338924,high,high,,ISIC_0000077.JPG,10,ISIC_0034253.JPG,375,false,lh,keypress(e),0,false,1108533,1108532.8999999985,1104718.589,1104925.6999999993,1104735.201,1108355.678,4,500,4,
break,html.Screen,10_3_1,2023-11-14T20:40:30.168Z,,,,,,,,,,NaN,,,,,,,,high,high,,,,,,false,,,,false,1108533.5,1108533.3999999985,,1108533.1999999993,,1108355.678,4,500,,
break_continue,html.Screen,10_3_2,2023-11-14T20:40:30.168Z,,,,,,,,,,NaN,,,,,,,,high,high,,,,,,false,,,,false,1108534,1108533.8999999985,,1108533.6999999993,,1108355.678,4,500,,
sequence,flow.Sequence,10_3,2023-11-14T20:40:30.169Z,,,,,,,,,,3798.6989999986254,completion,,,,,,,high,high,,,,,,false,,,,false,1108534.1999999993,1108533.8999999985,1104718.589,1104925.6999999993,1104735.201,1108355.678,4,500,,
trial,html.Screen,10_4_0,2023-11-14T20:40:33.615Z,,,,1,-0.0127320821962457,0.0315308940184827,,true,lh,3624.621999996947,response,-0.3721010267964005,0.47207497440193713,-0.43727868201115533,0.2589381733599138,0.4574508013421921,-0.5010053329338924,low,high,,ISIC_8156101.JPG,9,ISIC_4734950.JPG,310,false,lh,keypress(e),0,false,1111980.3999999985,1111980.299999997,1108338.788,1108534.1999999993,1108355.678,1111792.233,4,500,5,
break,html.Screen,10_4_1,2023-11-14T20:40:33.615Z,,,,,,,,,,NaN,,,,,,,,low,high,,,,,,false,,,,false,1111980.799999997,1111980.5999999978,,1111980.5,,1111792.233,4,500,,
break_continue,html.Screen,10_4_2,2023-11-14T20:40:33.615Z,,,,,,,,,,NaN,,,,,,,,low,high,,,,,,false,,,,false,1111980.8999999985,1111980.799999997,,1111980.799999997,,1111792.233,4,500,,
sequence,flow.Sequence,10_4,2023-11-14T20:40:33.615Z,,,,,,,,,,3625.121999996947,completion,,,,,,,low,high,,,,,,false,,,,false,1111981,1111980.799999997,1108338.788,1108534.1999999993,1108355.678,1111792.233,4,500,,
trial,html.Screen,10_5_0,2023-11-14T20:40:37.967Z,,,,1,0.0668201703083464,-0.0222223530621927,,true,lh,4540.4669999992475,response,-0.5168000368804999,0.47207497440193713,-0.43727868201115533,0.6438333602086477,0.4574508013421921,-0.5010053329338924,low,high,,ISIC_8321148.JPG,9,ISIC_0013977.JPG,310,false,lh,keypress(e),0,false,1116332.8999999985,1116332.6999999993,1111775.758,1111981,1111792.233,1116146.627,4,500,6,
break,html.Screen,10_5_1,2023-11-14T20:40:37.968Z,,,,,,,,,,NaN,,,,,,,,low,high,,,,,,false,,,,false,1116333.5999999978,1116333.5,,1116333.0999999978,,1116146.627,4,500,,
break_continue,html.Screen,10_5_2,2023-11-14T20:40:37.969Z,,,,,,,,,,NaN,,,,,,,,low,high,,,,,,false,,,,false,1116334,1116333.8999999985,,1116333.6999999993,,1116146.627,4,500,,
sequence,flow.Sequence,10_5,2023-11-14T20:40:37.969Z,,,,,,,,,,4541.666999998502,completion,,,,,,,low,high,,,,,,false,,,,false,1116334.1999999993,1116333.8999999985,1111775.758,1111981,1111792.233,1116146.627,4,500,,
trial,html.Screen,10_6_0,2023-11-14T20:40:42.015Z,,,,1,-0.0488365673064833,0.0229344142397166,,false,ll,4234.07299999916,response,-0.2509577437919091,0.47207497440193713,-0.43727868201115533,-0.5004317795114973,0.4574508013421921,-0.5010053329338924,low,low,,ISIC_0056915.JPG,9,ISIC_0071118.JPG,475,false,hl,keypress(j),0,false,1120380.799999997,1120380.6999999993,1116129.924,1116334.299999997,1116146.627,1120200.765,4,500,7,
break,html.Screen,10_6_1,2023-11-14T20:40:42.016Z,,,,,,,,,,NaN,,,,,,,,low,low,,,,,,false,,,,false,1120381.5999999978,1120381.299999997,,1120381,,1120200.765,4,500,,
break_continue,html.Screen,10_6_2,2023-11-14T20:40:42.016Z,,,,,,,,,,NaN,,,,,,,,low,low,,,,,,false,,,,false,1120382,1120381.8999999985,,1120381.6999999993,,1120200.765,4,500,,
sequence,flow.Sequence,10_6,2023-11-14T20:40:42.017Z,,,,,,,,,,4235.272999998415,completion,,,,,,,low,low,,,,,,false,,,,false,1120382.0999999978,1120381.8999999985,1116129.924,1116334.299999997,1116146.627,1120200.765,4,500,,
trial,html.Screen,10_7_0,2023-11-14T20:40:49.071Z,,,,1,0.040352316356354,0.0039626669358928,,true,ll,7235.834999997867,response,-0.4154856239479161,0.47207497440193713,-0.43727868201115533,-0.5177263528731867,0.4574508013421921,-0.5010053329338924,low,low,,ISIC_3018550.JPG,8,ISIC_0006727.JPG,475,false,ll,keypress(f),0,false,1127436.6999999993,1127436.5999999978,1120184.197,1120382.299999997,1120200.765,1127257.892,4,500,8,
break,html.Screen,10_7_1,2023-11-14T20:40:49.072Z,,,,,,,,,,NaN,,,,,,,,low,low,,,,,,false,,,,false,1127437.299999997,1127437.0999999978,,1127436.8999999985,,1127257.892,4,500,,
break_continue,html.Screen,10_7_2,2023-11-14T20:40:49.072Z,,,,,,,,,,NaN,,,,,,,,low,low,,,,,,false,,,,false,1127437.6999999993,1127437.5,,1127437.3999999985,,1127257.892,4,500,,
sequence,flow.Sequence,10_7,2023-11-14T20:40:49.072Z,,,,,,,,,,7236.735000000102,completion,,,,,,,low,low,,,,,,false,,,,false,1127437.8999999985,1127437.5,1120184.197,1120382.299999997,1120200.765,1127257.892,4,500,,
trial,html.Screen,10_8_0,2023-11-14T20:40:54.231Z,,,,1,-0.0386453938786174,-0.0465908665241285,,true,hl,5338.807999999262,response,0.589842623071249,0.47207497440193713,-0.43727868201115533,-0.5410176323280439,0.4574508013421921,-0.5010053329338924,high,low,,ISIC_1698119.JPG,9,ISIC_2271767.JPG,277,false,hl,keypress(j),0,false,1132596.8999999985,1132596.6999999993,1127241.271,1127438.0999999978,1127257.892,1132412.907,4,500,9,
break,html.Screen,10_8_1,2023-11-14T20:40:54.232Z,,,,,,,,,,NaN,,,,,,,,high,low,,,,,,false,,,,false,1132597.5,1132597.3999999985,,1132597.0999999978,,1132412.907,4,500,,
break_continue,html.Screen,10_8_2,2023-11-14T20:40:54.232Z,,,,,,,,,,NaN,,,,,,,,high,low,,,,,,false,,,,false,1132597.8999999985,1132597.799999997,,1132597.6999999993,,1132412.907,4,500,,
sequence,flow.Sequence,10_8,2023-11-14T20:40:54.233Z,,,,,,,,,,5339.907999997027,completion,,,,,,,high,low,,,,,,false,,,,false,1132598.0999999978,1132597.799999997,1127241.271,1127438,1127257.892,1132412.907,4,500,,
trial,html.Screen,10_9_0,2023-11-14T20:41:02.991Z,,,,1,0.0700745968706567,0.013891147856594,,true,hh,8943.59300000011,response,0.6394321901379793,0.47207497440193713,-0.43727868201115533,0.5530332121756102,0.4574508013421921,-0.5010053329338924,high,high,,ISIC_0054663.JPG,10,ISIC_9785077.JPG,375,false,hh,keypress(i),0,false,1141356.5999999978,1141356.5,1132396.297,1132598.1999999993,1132412.907,1141171.698,4,500,10,
break,html.Screen,10_9_1,2023-11-14T20:41:02.991Z,,,,,,,,,,NaN,,,,,,,,high,high,,,,,,false,,,,false,1141357,1141356.8999999985,,1141356.6999999993,,1141171.698,4,500,,
break_continue,html.Screen,10_9_2,2023-11-14T20:41:02.992Z,,,,,,,,,,NaN,,,,,,,,high,high,,,,,,false,,,,false,1141357.1999999993,1141357.0999999978,,1141357,,1141171.698,4,500,,
sequence,flow.Sequence,10_9,2023-11-14T20:41:02.992Z,,,,,,,,,,8944.192999997875,completion,,,,,,,high,high,,,,,,false,,,,false,1141357.1999999993,1141357.0999999978,1132396.297,1132598.0999999978,1132412.907,1141171.698,4,500,,
trial,html.Screen,10_10_0,2023-11-14T20:41:08.015Z,,,,1,-0.0372699196710335,0.0646614895271859,,true,ll,5208.801999999909,response,-0.4345819393127739,0.47207497440193713,-0.43727868201115533,-0.5083153560135969,0.4574508013421921,-0.5010053329338924,low,low,,ISIC_1175170.JPG,9,ISIC_0057702.JPG,475,false,ll,keypress(f),0,false,1146380.6999999993,1146380.5,1141155.023,1141357.299999997,1141171.698,1146193.396,4,500,11,
break,html.Screen,10_10_1,2023-11-14T20:41:08.016Z,,,,,,,,,,NaN,,,,,,,,low,low,,,,,,false,,,,false,1146381.3999999985,1146381.1999999993,,1146380.8999999985,,1146193.396,4,500,,
break_continue,html.Screen,10_10_2,2023-11-14T20:41:08.016Z,,,,,,,,,,NaN,,,,,,,,low,low,,,,,,false,,,,false,1146381.799999997,1146381.5999999978,,1146381.5,,1146193.396,4,500,,
sequence,flow.Sequence,10_10,2023-11-14T20:41:08.016Z,,,,,,,,,,5209.901999997674,completion,,,,,,,low,low,,,,,,false,,,,false,1146382,1146381.5999999978,1141155.023,1141357.299999997,1141171.698,1146193.396,4,500,,
trial,html.Screen,10_11_0,2023-11-14T20:41:14.449Z,,,,1,-0.0327772618698018,0.0056908372048728,,false,hl,6620.303999999305,response,0.6489101988378059,0.47207497440193713,-0.43727868201115533,-0.5928991313516737,0.4574508013421921,-0.5010053329338924,high,low,,ISIC_7897925.JPG,10,ISIC_0021052.JPG,277,false,hh,keypress(i),0,false,1152814,1152813.6999999993,1146176.672,1146382.0999999978,1146193.396,1152633.142,4,500,12,
break,html.Screen,10_11_1,2023-11-14T20:41:14.450Z,,,,,,,,,,NaN,,,,,,,,high,low,,,,,,false,,,,false,1152814.799999997,1152814.6999999993,,1152814.299999997,,1152633.142,4,500,,
break_continue,html.Screen,10_11_2,2023-11-14T20:41:14.451Z,,,,,,,,,,NaN,,,,,,,,high,low,,,,,,false,,,,false,1152815.5,1152815.1999999993,,1152815,,1152633.142,4,500,,
sequence,flow.Sequence,10_11,2023-11-14T20:41:14.451Z,,,,,,,,,,6621.803999999305,completion,,,,,,,high,low,,,,,,false,,,,false,1152815.6999999993,1152815.1999999993,1146176.672,1146382.0999999978,1146193.396,1152633.142,4,500,,
trial,html.Screen,10_12_0,2023-11-14T20:41:18.768Z,,,,1,-0.0565575423757561,0.0536115913979284,,false,ll,4499.057999999262,response,-0.3753938790171454,0.47207497440193713,-0.43727868201115533,-0.3284956736883813,0.4574508013421921,-0.5010053329338924,low,low,,ISIC_0046983.JPG,9,ISIC_0046450.JPG,475,false,lh,keypress(e),0,false,1157132.3999999985,1157132.1999999993,1152616.545,1152815.8999999985,1152633.142,1156954.196,4,500,13,
break,html.Screen,10_12_1,2023-11-14T20:41:18.768Z,,,,,,,,,,NaN,,,,,,,,low,low,,,,,,false,,,,false,1157132.6999999993,1157132.6999999993,,1157132.5,,1156954.196,4,500,,
break_continue,html.Screen,10_12_2,2023-11-14T20:41:18.769Z,,,,,,,,,,NaN,,,,,,,,low,low,,,,,,false,,,,false,1157133.0999999978,1157132.8999999985,,1157132.799999997,,1156954.196,4,500,,
sequence,flow.Sequence,10_12,2023-11-14T20:41:18.769Z,,,,,,,,,,4499.757999998517,completion,,,,,,,low,low,,,,,,false,,,,false,1157133.0999999978,1157132.8999999985,1152616.545,1152815.799999997,1152633.142,1156954.196,4,500,,
trial,html.Screen,10_13_0,2023-11-14T20:41:24.672Z,,,,1,-0.0514357258480358,-0.006520984995476,,true,ll,6082.503999999259,response,-0.4318945922897084,0.47207497440193713,-0.43727868201115533,-0.6719969524833546,0.4574508013421921,-0.5010053329338924,low,low,,ISIC_0031386.JPG,9,ISIC_0013688.JPG,475,false,ll,keypress(f),0,false,1163036.8999999985,1163036.6999999993,1156937.672,1157133.1999999993,1156954.196,1162860.239,4,500,14,
break,html.Screen,10_13_1,2023-11-14T20:41:24.673Z,,,,,,,,,,NaN,,,,,,,,low,low,,,,,,false,,,,false,1163037.5,1163037.3999999985,,1163037.0999999978,,1162860.239,4,500,,
break_continue,html.Screen,10_13_2,2023-11-14T20:41:24.673Z,,,,,,,,,,NaN,,,,,,,,low,low,,,,,,false,,,,false,1163037.799999997,1163037.799999997,,1163037.5999999978,,1162860.239,4,500,,
sequence,flow.Sequence,10_13,2023-11-14T20:41:24.673Z,,,,,,,,,,6083.6039999970235,completion,,,,,,,low,low,,,,,,false,,,,false,1163038,1163037.799999997,1156937.672,1157133.0999999978,1156954.196,1162860.239,4,500,,
trial,html.Screen,10_14_0,2023-11-14T20:41:28.009Z,,,,1,-0.0597592587797575,,,false,hl,3512.56099999696,response,0.2931738000426772,0.47207497440193713,-0.43727868201115533,-0.4562313458859291,0.4574508013421921,-0.5010053329338924,high,low,,ISIC_0071367.JPG,9,ISIC_1729223.JPG,277,false,ll,keypress(f),0,false,1166373.0999999978,1166372.799999997,1162843.473,1163038.0999999978,1162860.239,1166196.881,4,500,15,
break,html.Screen,10_14_1,2023-11-14T20:41:28.009Z,,,,,,,,,,NaN,,,,,,,,high,low,,,,,,false,,,,false,1166373.6999999993,1166373.5,,1166373.299999997,,1166196.881,4,500,,
break_continue,html.Screen,10_14_2,2023-11-14T20:41:28.010Z,,,,,,,,,,NaN,,,,,,,,high,low,,,,,,false,,,,false,1166374.1999999993,1166374,,1166373.8999999985,,1166196.881,4,500,,
sequence,flow.Sequence,10_14,2023-11-14T20:41:28.010Z,,,,,,,,,,3513.7609999999404,completion,,,,,,,high,low,,,,,,false,,,,false,1166374.3999999985,1166374,1162843.473,1163038.0999999978,1162860.239,1166196.881,4,500,,
trial,html.Screen,10_15_0,2023-11-14T20:41:32.384Z,,,,1,-0.0063515208248796,-0.0194177605767913,,true,ll,4551.218999997713,response,-0.275547741481179,0.47207497440193713,-0.43727868201115533,-0.4971043157857354,0.4574508013421921,-0.5010053329338924,low,low,,ISIC_5281908.JPG,9,ISIC_7642142.JPG,475,false,ll,keypress(f),0,false,1170748.1999999993,1170748.0999999978,1166180.027,1166374.5999999978,1166196.881,1170567.901,4,500,16,
break,html.Screen,10_15_1,2023-11-14T20:41:32.384Z,,,,,,,,,,NaN,,,,,,,,low,low,,,,,,false,,,,false,1170748.3999999985,1170748.3999999985,,1170748.299999997,,1170567.901,4,500,,
break_continue,html.Screen,10_15_2,2023-11-14T20:41:32.384Z,,,,,,,,,,NaN,,,,,,,,low,low,,,,,,false,,,,false,1170748.6999999993,1170748.5999999978,,1170748.5,,1170567.901,4,500,,
sequence,flow.Sequence,10_15,2023-11-14T20:41:32.384Z,,,,,,,,,,4551.718999997713,completion,,,,,,,low,low,,,,,,false,,,,false,1170748.8999999985,1170748.5999999978,1166180.027,1166374.5999999978,1166196.881,1170567.901,4,500,,
trial,html.Screen,10_16_0,2023-11-14T20:41:39.329Z,,,,1,-0.0372699196710335,0.0646614895271859,,false,lh,7125.098999999929,response,-0.5793871655126073,0.47207497440193713,-0.43727868201115533,0.3149904112305618,0.4574508013421921,-0.5010053329338924,low,high,,ISIC_1175170.JPG,9,ISIC_7190243.JPG,310,false,hl,keypress(j),0,false,1177693.1999999993,1177693,1170551.138,1170748.8999999985,1170567.901,1177508.079,4,500,17,
break,html.Screen,10_16_1,2023-11-14T20:41:39.329Z,,,,,,,,,,NaN,,,,,,,,low,high,,,,,,false,,,,false,1177693.8999999985,1177693.799999997,,1177693.5,,1177508.079,4,500,,
break_continue,html.Screen,10_16_2,2023-11-14T20:41:39.330Z,,,,,,,,,,NaN,,,,,,,,low,high,,,,,,false,,,,false,1177694.299999997,1177694.0999999978,,1177694,,1177508.079,4,500,,
sequence,flow.Sequence,10_16,2023-11-14T20:41:39.330Z,,,,,,,,,,7126.198999997694,completion,,,,,,,low,high,,,,,,false,,,,false,1177694.5,1177694.0999999978,1170551.138,1170748.8999999985,1170567.901,1177508.079,4,500,,
trial,html.Screen,10_17_0,2023-11-14T20:41:45.472Z,,,,1,-0.0127364719403411,-0.0549103570808099,,true,hl,6328.320999998599,response,0.5595911279987963,0.47207497440193713,-0.43727868201115533,-0.3474850599564587,0.4574508013421921,-0.5010053329338924,high,low,,ISIC_0054705.JPG,10,ISIC_0010648.JPG,277,false,hl,keypress(j),0,false,1183836.5999999978,1183836.3999999985,1177491.44,1177694.5999999978,1177508.079,1183647.523,4,500,18,
break,html.Screen,10_17_1,2023-11-14T20:41:45.472Z,,,,,,,,,,NaN,,,,,,,,high,low,,,,,,false,,,,false,1183836.8999999985,1183836.8999999985,,1183836.6999999993,,1183647.523,4,500,,
break_continue,html.Screen,10_17_2,2023-11-14T20:41:45.473Z,,,,,,,,,,NaN,,,,,,,,high,low,,,,,,false,,,,false,1183837.0999999978,1183837,,1183836.8999999985,,1183647.523,4,500,,
sequence,flow.Sequence,10_17,2023-11-14T20:41:45.473Z,,,,,,,,,,6328.921000000089,completion,,,,,,,high,low,,,,,,false,,,,false,1183837.1999999993,1183837,1177491.44,1177694.5999999978,1177508.079,1183647.523,4,500,,
trial,html.Screen,10_18_0,2023-11-14T20:41:53.008Z,,,,1,0.0702697127166421,0.0314752704888287,,false,hl,7724.976999999955,response,0.5005763868972287,0.47207497440193713,-0.43727868201115533,-0.3991338869088489,0.4574508013421921,-0.5010053329338924,high,low,,ISIC_0033881.JPG,9,ISIC_0055742.JPG,277,false,ll,keypress(f),0,false,1191372.5,1191372.5,1183630.792,1183837.1999999993,1183647.523,1191188.411,4,500,19,
break,html.Screen,10_18_1,2023-11-14T20:41:53.008Z,,,,,,,,,,NaN,,,,,,,,high,low,,,,,,false,,,,false,1191372.8999999985,1191372.799999997,,1191372.6999999993,,1191188.411,4,500,,
break_continue,html.Screen,10_18_2,2023-11-14T20:41:53.009Z,,,,,,,,,,NaN,,,,,,,,high,low,,,,,,false,,,,false,1191373,1191373,,1191373,,1191188.411,4,500,,
sequence,flow.Sequence,10_18,2023-11-14T20:41:53.009Z,,,,,,,,,,7725.476999999955,completion,,,,,,,high,low,,,,,,false,,,,false,1191373.0999999978,1191373,1183630.792,1183837.1999999993,1183647.523,1191188.411,4,500,,
trial,html.Screen,10_19_0,2023-11-14T20:41:58.240Z,,,,1,0.0362472736315994,0.0492979048777824,,true,hl,5416.188999997685,response,0.4777017055001812,0.47207497440193713,-0.43727868201115533,-0.5208119280786172,0.4574508013421921,-0.5010053329338924,high,low,,ISIC_5312584.JPG,8,ISIC_6918995.JPG,277,false,hl,keypress(j),0,false,1196604.799999997,1196604.5999999978,1191171.773,1191373.1999999993,1191188.411,1196427.016,4,500,20,
break,html.Screen,10_19_1,2023-11-14T20:41:58.241Z,,,,,,,,,,NaN,,,,,,,,high,low,,,,,,false,,,,false,1196605.3999999985,1196605.299999997,,1196605.0999999978,,1196427.016,4,500,,
break_continue,html.Screen,10_19_2,2023-11-14T20:41:58.241Z,,,,,,,,,,NaN,,,,,,,,high,low,,,,,,false,,,,false,1196605.8999999985,1196605.799999997,,1196605.5999999978,,1196427.016,4,500,,
sequence,flow.Sequence,10_19,2023-11-14T20:41:58.242Z,,,,,,,,,,5417.38899999694,completion,,,,,,,high,low,,,,,,false,,,,false,1196606,1196605.799999997,1191171.773,1191373.0999999978,1191188.411,1196427.016,4,500,,
trial,html.Screen,10_20_0,2023-11-14T20:42:03.784Z,,,,1,-0.0051046740562181,0.0178832721027728,,false,hh,5721.1839999991935,response,0.4292942418656199,0.47207497440193713,-0.43727868201115533,0.3997110760684896,0.4574508013421921,-0.5010053329338924,high,high,,ISIC_9545819.JPG,9,ISIC_0059065.JPG,375,false,lh,keypress(e),0,false,1202148.299999997,1202148.1999999993,1196410.365,1196606.0999999978,1196427.016,1201965.834,4,500,21,
break,html.Screen,10_20_1,2023-11-14T20:42:03.784Z,,,,,,,,,,NaN,,,,,,,,high,high,,,,,,false,,,,false,1202148.6999999993,1202148.6999999993,,1202148.5,,1201965.834,4,500,,
break_continue,html.Screen,10_20_2,2023-11-14T20:42:03.784Z,,,,,,,,,,NaN,,,,,,,,high,high,,,,,,false,,,,false,1202148.8999999985,1202148.8999999985,,1202148.6999999993,,1201965.834,4,500,,
sequence,flow.Sequence,10_20,2023-11-14T20:42:03.784Z,,,,,,,,,,5721.883999998448,completion,,,,,,,high,high,,,,,,false,,,,false,1202149,1202148.8999999985,1196410.365,1196606.0999999978,1196427.016,1201965.834,4,500,,
trial,html.Screen,10_21_0,2023-11-14T20:42:07.761Z,,,,1,-0.0386453938786174,-0.0465908665241285,,true,lh,4159.065999998478,response,-0.3172297100661941,0.47207497440193713,-0.43727868201115533,0.3491057233705587,0.4574508013421921,-0.5010053329338924,low,high,,ISIC_1698119.JPG,9,ISIC_0063191.JPG,310,false,lh,keypress(e),0,false,1206125,1206124.8999999985,1201949.162,1202149,1201965.834,1205936.527,4,500,22,
break,html.Screen,10_21_1,2023-11-14T20:42:07.761Z,,,,,,,,,,NaN,,,,,,,,low,high,,,,,,false,,,,false,1206125.6999999993,1206125.5999999978,,1206125.299999997,,1205936.527,4,500,,
break_continue,html.Screen,10_21_2,2023-11-14T20:42:07.762Z,,,,,,,,,,NaN,,,,,,,,low,high,,,,,,false,,,,false,1206126.1999999993,1206125.8999999985,,1206125.8999999985,,1205936.527,4,500,,
sequence,flow.Sequence,10_21,2023-11-14T20:42:07.762Z,,,,,,,,,,4160.065999998478,completion,,,,,,,low,high,,,,,,false,,,,false,1206126.299999997,1206125.8999999985,1201949.162,1202149,1201965.834,1205936.527,4,500,,
trial,html.Screen,10_22_0,2023-11-14T20:42:13.560Z,,,,1,-0.0474755744799381,-0.0692210794081785,,false,ll,5988.172999999253,response,-0.4226284992314573,0.47207497440193713,-0.43727868201115533,-0.5870666669136667,0.4574508013421921,-0.5010053329338924,low,low,,ISIC_8794567.JPG,9,ISIC_1018265.JPG,475,false,lh,keypress(e),0,false,1211924.799999997,1211924.6999999993,1205919.916,1206126.5,1205936.527,1211742.281,4,500,23,
break,html.Screen,10_22_1,2023-11-14T20:42:13.561Z,,,,,,,,,,NaN,,,,,,,,low,low,,,,,,false,,,,false,1211925.299999997,1211925.1999999993,,1211924.8999999985,,1211742.281,4,500,,
break_continue,html.Screen,10_22_2,2023-11-14T20:42:13.561Z,,,,,,,,,,NaN,,,,,,,,low,low,,,,,,false,,,,false,1211925.5999999978,1211925.5,,1211925.299999997,,1211742.281,4,500,,
sequence,flow.Sequence,10_22,2023-11-14T20:42:13.561Z,,,,,,,,,,5988.972999999998,completion,,,,,,,low,low,,,,,,false,,,,false,1211925.6999999993,1211925.5,1205919.916,1206126.3999999985,1205936.527,1211742.281,4,500,,
trial,html.Screen,10_23_0,2023-11-14T20:42:17.432Z,,,,1,-0.0050319651598106,0.047524453347389,,true,lh,4054.118999998551,response,-0.3230140070491235,0.47207497440193713,-0.43727868201115533,0.3123768342679173,0.4574508013421921,-0.5010053329338924,low,high,,ISIC_0027081.JPG,10,ISIC_2457024.JPG,310,false,lh,keypress(e),0,false,1215796.5999999978,1215796.3999999985,1211725.766,1211925.799999997,1211742.281,1215612.843,4,500,24,
break,html.Screen,10_23_1,2023-11-14T20:42:17.432Z,,,,,,,,,,NaN,,,,,,,,low,high,,,,,,false,,,,false,1215797,1215796.8999999985,,1215796.6999999993,,1215612.843,4,500,,
break_continue,html.Screen,10_23_2,2023-11-14T20:42:17.433Z,,,,,,,,,,NaN,,,,,,,,low,high,,,,,,false,,,,false,1215797.1999999993,1215797.0999999978,,1215797.0999999978,,1215612.843,4,500,,
sequence,flow.Sequence,10_23,2023-11-14T20:42:17.433Z,,,,,,,,,,4054.818999997806,completion,,,,,,,low,high,,,,,,false,,,,false,1215797.299999997,1215797.0999999978,1211725.766,1211925.799999997,1211742.281,1215612.843,4,500,,
trial,html.Screen,10_24_0,2023-11-14T20:42:20.568Z,,,,1,0.0458738008498492,0.0084690422621415,,true,lh,3319.756999997655,response,-0.3412203946461636,0.47207497440193713,-0.43727868201115533,0.2608740023730364,0.4574508013421921,-0.5010053329338924,low,high,,ISIC_4026019.JPG,9,ISIC_3110909.JPG,310,false,lh,keypress(e),0,false,1218932.6999999993,1218932.5999999978,1215596.321,1215797.3999999985,1215612.843,1218749.38,4,500,25,
break,html.Screen,10_24_1,2023-11-14T20:42:20.569Z,,,,,,,,,,NaN,,,,,,,,low,high,,,,,,false,,,,false,1218933.0999999978,1218933,,1218932.8999999985,,1218749.38,4,500,,
break_continue,html.Screen,10_24_2,2023-11-14T20:42:20.569Z,,,,,,,,,,NaN,,,,,,,,low,high,,,,,,false,,,,false,1218933.3999999985,1218933.299999997,,1218933.1999999993,,1218749.38,4,500,,
sequence,flow.Sequence,10_24,2023-11-14T20:42:20.569Z,,,,,,,,,,3320.45699999691,completion,,,,,,,low,high,,,,,,false,,,,false,1218933.5999999978,1218933.299999997,1215596.321,1215797.3999999985,1215612.843,1218749.38,4,500,,
trial,html.Screen,10_25_0,2023-11-14T20:42:26.464Z,,,,1,0.0085520978188085,-0.0535296539628673,,false,hl,6078.819999999367,response,0.5049392085113823,0.47207497440193713,-0.43727868201115533,-0.612679234038425,0.4574508013421921,-0.5010053329338924,high,low,,ISIC_0758797.JPG,10,ISIC_7460111.JPG,277,false,ll,keypress(f),0,false,1224828.299999997,1224828.1999999993,1218732.733,1218933.6999999993,1218749.38,1224638.564,4,500,26,
break,html.Screen,10_25_1,2023-11-14T20:42:26.464Z,,,,,,,,,,NaN,,,,,,,,high,low,,,,,,false,,,,false,1224828.6999999993,1224828.6999999993,,1224828.5,,1224638.564,4,500,,
break_continue,html.Screen,10_25_2,2023-11-14T20:42:26.464Z,,,,,,,,,,NaN,,,,,,,,high,low,,,,,,false,,,,false,1224828.8999999985,1224828.799999997,,1224828.6999999993,,1224638.564,4,500,,
sequence,flow.Sequence,10_25,2023-11-14T20:42:26.464Z,,,,,,,,,,6079.4199999971315,completion,,,,,,,high,low,,,,,,false,,,,false,1224828.8999999985,1224828.799999997,1218732.733,1218933.6999999993,1218749.38,1224638.564,4,500,,
trial,html.Screen,10_26_0,2023-11-14T20:42:33.224Z,,,,1,0.012810673904807,-0.00400964452501,,false,lh,6950.235999997007,response,-0.3162698255738486,0.47207497440193713,-0.43727868201115533,0.4718513467646285,0.4574508013421921,-0.5010053329338924,low,high,,ISIC_0064656.JPG,9,ISIC_5994286.JPG,310,false,hh,keypress(i),0,false,1231589,1231588.799999997,1224621.944,1224829,1224638.564,1231412.029,4,500,27,
break,html.Screen,10_26_1,2023-11-14T20:42:33.225Z,,,,,,,,,,NaN,,,,,,,,low,high,,,,,,false,,,,false,1231589.5,1231589.3999999985,,1231589.1999999993,,1231412.029,4,500,,
break_continue,html.Screen,10_26_2,2023-11-14T20:42:33.225Z,,,,,,,,,,NaN,,,,,,,,low,high,,,,,,false,,,,false,1231589.8999999985,1231589.799999997,,1231589.6999999993,,1231412.029,4,500,,
sequence,flow.Sequence,10_26,2023-11-14T20:42:33.226Z,,,,,,,,,,6951.235999997007,completion,,,,,,,low,high,,,,,,false,,,,false,1231590.0999999978,1231589.799999997,1224621.944,1224828.8999999985,1224638.564,1231412.029,4,500,,
trial,html.Screen,10_27_0,2023-11-14T20:42:38.528Z,,,,1,-0.0658524437333868,0.0334357178485904,,true,lh,5480.070999997668,response,-0.4881993713464916,0.47207497440193713,-0.43727868201115533,0.4895033550258909,0.4574508013421921,-0.5010053329338924,low,high,,ISIC_8015541.JPG,9,ISIC_0026655.JPG,310,false,lh,keypress(e),0,false,1236892.1999999993,1236892.0999999978,1231395.414,1231590.1999999993,1231412.029,1236717.342,4,500,28,
break,html.Screen,10_27_1,2023-11-14T20:42:38.528Z,,,,,,,,,,NaN,,,,,,,,low,high,,,,,,false,,,,false,1236892.5,1236892.3999999985,,1236892.299999997,,1236717.342,4,500,,
break_continue,html.Screen,10_27_2,2023-11-14T20:42:38.528Z,,,,,,,,,,NaN,,,,,,,,low,high,,,,,,false,,,,false,1236892.6999999993,1236892.6999999993,,1236892.6999999993,,1236717.342,4,500,,
sequence,flow.Sequence,10_27,2023-11-14T20:42:38.528Z,,,,,,,,,,5480.670999999158,completion,,,,,,,low,high,,,,,,false,,,,false,1236892.799999997,1236892.6999999993,1231395.414,1231590.0999999978,1231412.029,1236717.342,4,500,,
trial,html.Screen,10_28_0,2023-11-14T20:42:43.513Z,,,,1,0.0458738008498492,0.0084690422621415,,false,lh,5159.757999997819,response,-0.3927013357633684,0.47207497440193713,-0.43727868201115533,0.3037556686402411,0.4574508013421921,-0.5010053329338924,low,high,,ISIC_4026019.JPG,10,ISIC_1083681.JPG,310,false,ll,keypress(f),0,false,1241877.1999999993,1241877.0999999978,1236700.727,1236892.8999999985,1236717.342,1241688.977,4,500,29,
break,html.Screen,10_28_1,2023-11-14T20:42:43.513Z,,,,,,,,,,NaN,,,,,,,,low,high,,,,,,false,,,,false,1241877.8999999985,1241877.6999999993,,1241877.3999999985,,1241688.977,4,500,,
break_continue,html.Screen,10_28_2,2023-11-14T20:42:43.514Z,,,,,,,,,,NaN,,,,,,,,low,high,,,,,,false,,,,false,1241878.299999997,1241878.0999999978,,1241878,,1241688.977,4,500,,
sequence,flow.Sequence,10_28,2023-11-14T20:42:43.514Z,,,,,,,,,,5160.757999997819,completion,,,,,,,low,high,,,,,,false,,,,false,1241878.3999999985,1241878.0999999978,1236700.727,1236892.8999999985,1236717.342,1241688.977,4,500,,
trial,html.Screen,10_29_0,2023-11-14T20:42:48.600Z,,,,1,0.00126575685933,0.0325046559638838,,true,hh,5275.422999998555,response,0.617649478377407,0.47207497440193713,-0.43727868201115533,0.4907994921336002,0.4574508013421921,-0.5010053329338924,high,high,,ISIC_5682259.JPG,9,ISIC_0000462.JPG,375,false,hh,keypress(i),0,false,1246964.5999999978,1246964.3999999985,1241672.4,1241878.5999999978,1241688.977,1246777.39,4,500,30,
break,html.Screen,10_29_1,2023-11-14T20:42:48.600Z,,,,,,,,,,NaN,,,,,,,,high,high,,,,,,false,,,,false,1246964.8999999985,1246964.799999997,,1246964.6999999993,,1246777.39,4,500,,
break_continue,html.Screen,10_29_2,2023-11-14T20:42:48.601Z,,,,,,,,,,NaN,,,,,,,,high,high,,,,,,false,,,,false,1246965,1246965,,1246964.8999999985,,1246777.39,4,500,,
sequence,flow.Sequence,10_29,2023-11-14T20:42:48.601Z,,,,,,,,,,5276.023000000045,completion,,,,,,,high,high,,,,,,false,,,,false,1246965.0999999978,1246965,1241672.4,1241878.5,1241688.977,1246777.39,4,500,,
trial,html.Screen,10_30_0,2023-11-14T20:42:57.578Z,,,,1,-0.0207120852539861,-0.0589023744433183,,false,hl,9164.610000000102,response,0.5805226032685602,0.47207497440193713,-0.43727868201115533,-0.3599670835830587,0.4574508013421921,-0.5010053329338924,high,low,,ISIC_7973601.JPG,9,ISIC_3777798.JPG,277,false,hh,keypress(i),0,false,1255942.1999999993,1255942,1246760.783,1246965.1999999993,1246777.39,1255753.056,4,500,31,
break,html.Screen,10_30_1,2023-11-14T20:42:57.579Z,,,,,,,,,,NaN,,,,,,,,high,low,,,,,,false,,,,false,1255943.0999999978,1255942.8999999985,,1255942.5,,1255753.056,4,500,,
break_continue,html.Screen,10_30_2,2023-11-14T20:42:57.579Z,,,,,,,,,,NaN,,,,,,,,high,low,,,,,,false,,,,false,1255943.6999999993,1255943.5,,1255943.299999997,,1255753.056,4,500,,
sequence,flow.Sequence,10_30,2023-11-14T20:42:57.579Z,,,,,,,,,,9166.110000000102,completion,,,,,,,high,low,,,,,,false,,,,false,1255943.8999999985,1255943.5,1246760.783,1246965.0999999978,1246777.39,1255753.056,4,500,,
trial,html.Screen,10_31_0,2023-11-14T20:43:03.928Z,,,,1,-0.010035581303589,0.0100711721396864,,true,hl,6539.243999996921,response,0.4515020134584401,0.47207497440193713,-0.43727868201115533,-0.5494267626379239,0.4574508013421921,-0.5010053329338924,high,low,,ISIC_0030592.JPG,10,ISIC_0003201.JPG,277,false,hl,keypress(j),0,false,1262292.3999999985,1262292.299999997,1255736.268,1255944,1255753.056,1262109.353,4,500,32,
break,html.Screen,10_31_1,2023-11-14T20:43:03.928Z,,,,,,,,,,NaN,,,,,,,,high,low,,,,,,false,,,,false,1262292.8999999985,1262292.799999997,,1262292.5,,1262109.353,4,500,,
break_continue,html.Screen,10_31_2,2023-11-14T20:43:03.929Z,,,,,,,,,,NaN,,,,,,,,high,low,,,,,,false,,,,false,1262293.0999999978,1262293,,1262293,,1262109.353,4,500,,
sequence,flow.Sequence,10_31,2023-11-14T20:43:03.929Z,,,,,,,,,,6539.943999999901,completion,,,,,,,high,low,,,,,,false,,,,false,1262293.1999999993,1262293,1255736.268,1255944,1255753.056,1262109.353,4,500,,
trial,html.Screen,10_32_0,2023-11-14T20:43:08.288Z,,,,1,-0.0597592587797575,,,false,hh,4543.0469999986235,response,0.4279965311245668,0.47207497440193713,-0.43727868201115533,0.334234417769549,0.4574508013421921,-0.5010053329338924,high,high,,ISIC_0071367.JPG,9,ISIC_0030122.JPG,375,false,hl,keypress(j),0,false,1266652.5,1266652.3999999985,1262092.672,1262293.299999997,1262109.353,1266463.719,4,500,33,
break,html.Screen,10_32_1,2023-11-14T20:43:08.289Z,,,,,,,,,,NaN,,,,,,,,high,high,,,,,,false,,,,false,1266653.0999999978,1266652.8999999985,,1266652.6999999993,,1266463.719,4,500,,
break_continue,html.Screen,10_32_2,2023-11-14T20:43:08.289Z,,,,,,,,,,NaN,,,,,,,,high,high,,,,,,false,,,,false,1266653.299999997,1266653.1999999993,,1266653.0999999978,,1266463.719,4,500,,
sequence,flow.Sequence,10_32,2023-11-14T20:43:08.289Z,,,,,,,,,,4543.846999999369,completion,,,,,,,high,high,,,,,,false,,,,false,1266653.3999999985,1266653.1999999993,1262092.672,1262293.299999997,1262109.353,1266463.719,4,500,,
trial,html.Screen,10_33_0,2023-11-14T20:43:16.017Z,,,,1,-0.0050319651598106,0.047524453347389,,false,hl,7916.980999999214,response,0.584475572955044,0.47207497440193713,-0.43727868201115533,-0.4043436449836587,0.4574508013421921,-0.5010053329338924,high,low,,ISIC_0027081.JPG,9,ISIC_0029562.JPG,277,false,ll,keypress(f),0,false,1274380.799999997,1274380.6999999993,1266447.041,1266653.3999999985,1266463.719,1274204.983,4,500,34,
break,html.Screen,10_33_1,2023-11-14T20:43:16.017Z,,,,,,,,,,NaN,,,,,,,,high,low,,,,,,false,,,,false,1274381.1999999993,1274381.0999999978,,1274380.8999999985,,1274204.983,4,500,,
break_continue,html.Screen,10_33_2,2023-11-14T20:43:16.017Z,,,,,,,,,,NaN,,,,,,,,high,low,,,,,,false,,,,false,1274381.3999999985,1274381.299999997,,1274381.1999999993,,1274204.983,4,500,,
sequence,flow.Sequence,10_33,2023-11-14T20:43:16.017Z,,,,,,,,,,7917.580999996979,completion,,,,,,,high,low,,,,,,false,,,,false,1274381.5,1274381.299999997,1266447.041,1266653.3999999985,1266463.719,1274204.983,4,500,,
trial,html.Screen,10_34_0,2023-11-14T20:43:22.649Z,,,,1,0.0050679133050021,0.0174815595031679,,true,ll,6807.816999997012,response,-0.4057219925163503,0.47207497440193713,-0.43727868201115533,-0.4633268907810171,0.4574508013421921,-0.5010053329338924,low,low,,ISIC_9848743.JPG,9,ISIC_7621412.JPG,475,false,ll,keypress(f),0,false,1281013,1281012.799999997,1274188.16,1274381.5999999978,1274204.983,1280828.164,4,500,35,
break,html.Screen,10_34_1,2023-11-14T20:43:22.650Z,,,,,,,,,,NaN,,,,,,,,low,low,,,,,,false,,,,false,1281013.6999999993,1281013.5,,1281013.1999999993,,1280828.164,4,500,,
break_continue,html.Screen,10_34_2,2023-11-14T20:43:22.650Z,,,,,,,,,,NaN,,,,,,,,low,low,,,,,,false,,,,false,1281014,1281013.8999999985,,1281013.6999999993,,1280828.164,4,500,,
sequence,flow.Sequence,10_34,2023-11-14T20:43:22.650Z,,,,,,,,,,6808.916999998502,completion,,,,,,,low,low,,,,,,false,,,,false,1281014.1999999993,1281013.8999999985,1274188.16,1274381.5,1274204.983,1280828.164,4,500,,
trial,html.Screen,10_35_0,2023-11-14T20:43:32.200Z,,,,1,0.0523524458062335,-0.0048771624512062,,true,ll,9736.135999996914,response,-0.2910581381208475,0.47207497440193713,-0.43727868201115533,-0.4053853433503586,0.4574508013421921,-0.5010053329338924,low,low,,ISIC_0010379.JPG,8,ISIC_6661691.JPG,475,false,ll,keypress(f),0,false,1290564.3999999985,1290564.299999997,1280811.494,1281014.1999999993,1280828.164,1290387.89,4,500,36,
break,html.Screen,10_35_1,2023-11-14T20:43:32.201Z,,,,,,,,,,NaN,,,,,,,,low,low,,,,,,false,,,,false,1290564.6999999993,1290564.5999999978,,1290564.3999999985,,1290387.89,4,500,,
break_continue,html.Screen,10_35_2,2023-11-14T20:43:32.201Z,,,,,,,,,,NaN,,,,,,,,low,low,,,,,,false,,,,false,1290564.8999999985,1290564.8999999985,,1290564.799999997,,1290387.89,4,500,,
sequence,flow.Sequence,10_35,2023-11-14T20:43:32.201Z,,,,,,,,,,9736.735999998404,completion,,,,,,,low,low,,,,,,false,,,,false,1290565,1290564.8999999985,1280811.494,1281014.1999999993,1280828.164,1290387.89,4,500,,
trial,html.Screen,10_36_0,2023-11-14T20:43:39.065Z,,,,1,-0.0086413421586899,-0.0360184993500958,,true,ll,7040.509999998612,response,-0.2427578418459973,0.47207497440193713,-0.43727868201115533,-0.6830146629579753,0.4574508013421921,-0.5010053329338924,low,low,,ISIC_0010767.JPG,9,ISIC_4011169.JPG,475,false,ll,keypress(f),0,false,1297428.5999999978,1297428.3999999985,1290371.09,1290565,1290387.89,1297244.575,4,500,37,
break,html.Screen,10_36_1,2023-11-14T20:43:39.065Z,,,,,,,,,,NaN,,,,,,,,low,low,,,,,,false,,,,false,1297428.8999999985,1297428.6999999993,,1297428.5999999978,,1297244.575,4,500,,
break_continue,html.Screen,10_36_2,2023-11-14T20:43:39.065Z,,,,,,,,,,NaN,,,,,,,,low,low,,,,,,false,,,,false,1297429.0999999978,1297429,,1297428.8999999985,,1297244.575,4,500,,
sequence,flow.Sequence,10_36,2023-11-14T20:43:39.065Z,,,,,,,,,,7041.110000000102,completion,,,,,,,low,low,,,,,,false,,,,false,1297429.1999999993,1297429,1290371.09,1290565,1290387.89,1297244.575,4,500,,
trial,html.Screen,10_37_0,2023-11-14T20:43:47.105Z,,,,1,0.0310298232022856,0.0697438859399019,,false,hl,8223.824999998556,response,0.3765391449572915,0.47207497440193713,-0.43727868201115533,-0.5017667070519076,0.4574508013421921,-0.5010053329338924,high,low,,ISIC_0027669.JPG,9,ISIC_9222136.JPG,277,false,ll,keypress(f),0,false,1305468.5,1305468.3999999985,1297227.992,1297429.1999999993,1297244.575,1305285.929,4,500,38,
break,html.Screen,10_37_1,2023-11-14T20:43:47.105Z,,,,,,,,,,NaN,,,,,,,,high,low,,,,,,false,,,,false,1305468.8999999985,1305468.6999999993,,1305468.5999999978,,1305285.929,4,500,,
break_continue,html.Screen,10_37_2,2023-11-14T20:43:47.105Z,,,,,,,,,,NaN,,,,,,,,high,low,,,,,,false,,,,false,1305469,1305468.8999999985,,1305468.8999999985,,1305285.929,4,500,,
sequence,flow.Sequence,10_37,2023-11-14T20:43:47.105Z,,,,,,,,,,8224.324999998556,completion,,,,,,,high,low,,,,,,false,,,,false,1305469.0999999978,1305468.8999999985,1297227.992,1297429.1999999993,1297244.575,1305285.929,4,500,,
trial,html.Screen,10_38_0,2023-11-14T20:43:53.817Z,,,,1,0.0702697127166421,0.0314752704888287,,true,lh,6894.870999997016,response,-0.6205558224888951,0.47207497440193713,-0.43727868201115533,0.6360681213028734,0.4574508013421921,-0.5010053329338924,low,high,,ISIC_0033881.JPG,9,ISIC_0034217.JPG,310,false,lh,keypress(e),0,false,1312181.0999999978,1312180.799999997,1305269.16,1305469.0999999978,1305285.929,1311992.676,4,500,39,
break,html.Screen,10_38_1,2023-11-14T20:43:53.818Z,,,,,,,,,,NaN,,,,,,,,low,high,,,,,,false,,,,false,1312181.5,1312181.3999999985,,1312181.1999999993,,1311992.676,4,500,,
break_continue,html.Screen,10_38_2,2023-11-14T20:43:53.818Z,,,,,,,,,,NaN,,,,,,,,low,high,,,,,,false,,,,false,1312181.799999997,1312181.6999999993,,1312181.5999999978,,1311992.676,4,500,,
sequence,flow.Sequence,10_38,2023-11-14T20:43:53.818Z,,,,,,,,,,6895.770999999251,completion,,,,,,,low,high,,,,,,false,,,,false,1312181.8999999985,1312181.6999999993,1305269.16,1305469.0999999978,1305285.929,1311992.676,4,500,,
trial,html.Screen,10_39_0,2023-11-14T20:44:00.993Z,,,,1,-0.0474755744799381,-0.0692210794081785,,false,hh,7363.923999997787,response,0.5029912083444595,0.47207497440193713,-0.43727868201115533,0.4567996353584917,0.4574508013421921,-0.5010053329338924,high,high,,ISIC_8794567.JPG,9,ISIC_0011987.JPG,375,false,lh,keypress(e),0,false,1319356.6999999993,1319356.5999999978,1311975.853,1312182,1311992.676,1319183.648,4,500,40,
break,html.Screen,10_39_1,2023-11-14T20:44:00.993Z,,,,,,,,,,NaN,,,,,,,,high,high,,,,,,false,,,,false,1319357.0999999978,1319357,,1319356.799999997,,1319183.648,4,500,,
break_continue,html.Screen,10_39_2,2023-11-14T20:44:00.993Z,,,,,,,,,,NaN,,,,,,,,high,high,,,,,,false,,,,false,1319357.299999997,1319357.1999999993,,1319357.0999999978,,1319183.648,4,500,,
sequence,flow.Sequence,10_39,2023-11-14T20:44:00.993Z,,,,,,,,,,7364.523999999277,completion,,,,,,,high,high,,,,,,false,,,,false,1319357.3999999985,1319357.1999999993,1311975.853,1312181.8999999985,1311992.676,1319183.648,4,500,,
trial,html.Screen,10_40_0,2023-11-14T20:44:05.321Z,,,,1,-0.0380440426394326,-0.0685633753763444,,false,lh,4501.05199999921,response,-0.4463585996550201,0.47207497440193713,-0.43727868201115533,0.5016267685273991,0.4574508013421921,-0.5010053329338924,low,high,,ISIC_0032680.JPG,9,ISIC_0070351.JPG,310,false,ll,keypress(f),0,false,1323684.8999999985,1323684.6999999993,1319149.962,1319357.5,1319183.648,1323504.412,4,500,41,
break,html.Screen,10_40_1,2023-11-14T20:44:05.321Z,,,,,,,,,,NaN,,,,,,,,low,high,,,,,,false,,,,false,1323685.1999999993,1323685,,1323685,,1323504.412,4,500,,
break_continue,html.Screen,10_40_2,2023-11-14T20:44:05.321Z,,,,,,,,,,NaN,,,,,,,,low,high,,,,,,false,,,,false,1323685.299999997,1323685.299999997,,1323685.1999999993,,1323504.412,4,500,,
sequence,flow.Sequence,10_40,2023-11-14T20:44:05.321Z,,,,,,,,,,4501.651999996975,completion,,,,,,,low,high,,,,,,false,,,,false,1323685.3999999985,1323685.299999997,1319149.962,1319357.3999999985,1319183.648,1323504.412,4,500,,
trial,html.Screen,10_41_0,2023-11-14T20:44:10.851Z,,,,1,0.0203374006918297,-0.0594475300019112,,true,hh,5708.087999999989,response,0.5401877429391928,0.47207497440193713,-0.43727868201115533,0.4151692296435079,0.4574508013421921,-0.5010053329338924,high,high,,ISIC_0028579.JPG,9,ISIC_8492957.JPG,375,false,hh,keypress(i),0,false,1329212.5999999978,1329212.5,1323487.704,1323685.5,1323504.412,1329026.378,4,500,42,
break,html.Screen,10_41_1,2023-11-14T20:44:10.851Z,,,,,,,,,,NaN,,,,,,,,high,high,,,,,,false,,,,false,1329213,1329212.8999999985,,1329212.6999999993,,1329026.378,4,500,,
break_continue,html.Screen,10_41_2,2023-11-14T20:44:10.851Z,,,,,,,,,,NaN,,,,,,,,high,high,,,,,,false,,,,false,1329213.0999999978,1329213,,1329213,,1329026.378,4,500,,
sequence,flow.Sequence,10_41,2023-11-14T20:44:10.851Z,,,,,,,,,,5708.587999999989,completion,,,,,,,high,high,,,,,,false,,,,false,1329213.1999999993,1329213,1323487.704,1323685.3999999985,1323504.412,1329026.378,4,500,,
trial,html.Screen,10_42_0,2023-11-14T20:44:18.988Z,,,,1,0.0023664502831079,0.0252784582169994,,true,hh,8322.921999996994,response,0.5925872827109729,0.47207497440193713,-0.43727868201115533,0.3600120235874198,0.4574508013421921,-0.5010053329338924,high,high,,ISIC_4156010.JPG,9,ISIC_4523382.JPG,375,false,hh,keypress(i),0,false,1337349.3999999985,1337349.299999997,1329009.925,1329213.1999999993,1329026.378,1337167.921,4,500,43,
break,html.Screen,10_42_1,2023-11-14T20:44:18.988Z,,,,,,,,,,NaN,,,,,,,,high,high,,,,,,false,,,,false,1337350.0999999978,1337350,,1337349.6999999993,,1337167.921,4,500,,
break_continue,html.Screen,10_42_2,2023-11-14T20:44:18.989Z,,,,,,,,,,NaN,,,,,,,,high,high,,,,,,false,,,,false,1337350.5999999978,1337350.5,,1337350.299999997,,1337167.921,4,500,,
sequence,flow.Sequence,10_42,2023-11-14T20:44:18.989Z,,,,,,,,,,8324.121999999974,completion,,,,,,,high,high,,,,,,false,,,,false,1337350.6999999993,1337350.5,1329009.925,1329213.1999999993,1329026.378,1337167.921,4,500,,
trial,html.Screen,10_43_0,2023-11-14T20:44:24.819Z,,,,1,0.0700745968706567,0.013891147856594,,false,lh,6012.578999999911,response,-0.6249626712880252,0.47207497440193713,-0.43727868201115533,0.4055184980394838,0.4574508013421921,-0.5010053329338924,low,high,,ISIC_0054663.JPG,9,ISIC_5029636.JPG,310,false,hh,keypress(i),0,false,1343180.6999999993,1343180.5,1337151.204,1337350.8999999985,1337167.921,1343008.249,4,500,44,
break,html.Screen,10_43_1,2023-11-14T20:44:24.819Z,,,,,,,,,,NaN,,,,,,,,low,high,,,,,,false,,,,false,1343181,1343180.8999999985,,1343180.799999997,,1343008.249,4,500,,
break_continue,html.Screen,10_43_2,2023-11-14T20:44:24.819Z,,,,,,,,,,NaN,,,,,,,,low,high,,,,,,false,,,,false,1343181.1999999993,1343181.0999999978,,1343181,,1343008.249,4,500,,
sequence,flow.Sequence,10_43,2023-11-14T20:44:24.819Z,,,,,,,,,,6013.178999997675,completion,,,,,,,low,high,,,,,,false,,,,false,1343181.299999997,1343181.0999999978,1337151.204,1337350.799999997,1337167.921,1343008.249,4,500,,
trial,html.Screen,10_44_0,2023-11-14T20:44:33.003Z,,,,1,0.0166849894750452,-0.0371614812368835,,false,ll,8356.350999997696,response,-0.4735303979391336,0.47207497440193713,-0.43727868201115533,-0.4383641092830119,0.4574508013421921,-0.5010053329338924,low,low,,ISIC_6231450.JPG,8,ISIC_0067160.JPG,475,false,hl,keypress(j),0,false,1351364.6999999993,1351364.5999999978,1342973.822,1343181.299999997,1343008.249,1351181.898,4,500,45,
break,html.Screen,10_44_1,2023-11-14T20:44:33.003Z,,,,,,,,,,NaN,,,,,,,,low,low,,,,,,false,,,,false,1351365.0999999978,1351364.8999999985,,1351364.8999999985,,1351181.898,4,500,,
break_continue,html.Screen,10_44_2,2023-11-14T20:44:33.003Z,,,,,,,,,,NaN,,,,,,,,low,low,,,,,,false,,,,false,1351365.1999999993,1351365.1999999993,,1351365.0999999978,,1351181.898,4,500,,
sequence,flow.Sequence,10_44,2023-11-14T20:44:33.003Z,,,,,,,,,,8356.950999999186,completion,,,,,,,low,low,,,,,,false,,,,false,1351365.299999997,1351365.1999999993,1342973.822,1343181.299999997,1343008.249,1351181.898,4,500,,
trial,html.Screen,10_45_0,2023-11-14T20:44:37.611Z,,,,1,-0.0127320821962457,0.0315308940184827,,true,ll,4790.70199999772,response,-0.4424841914942711,0.47207497440193713,-0.43727868201115533,-0.4881400919662449,0.4574508013421921,-0.5010053329338924,low,low,,ISIC_8156101.JPG,9,ISIC_1920685.JPG,475,false,ll,keypress(f),0,false,1355972.6999999993,1355972.5999999978,1351165.108,1351365.299999997,1351181.898,1355786.514,4,500,46,
break,html.Screen,10_45_1,2023-11-14T20:44:37.611Z,,,,,,,,,,NaN,,,,,,,,low,low,,,,,,false,,,,false,1355973,1355972.8999999985,,1355972.799999997,,1355786.514,4,500,,
break_continue,html.Screen,10_45_2,2023-11-14T20:44:37.611Z,,,,,,,,,,NaN,,,,,,,,low,low,,,,,,false,,,,false,1355973.0999999978,1355973,,1355973,,1355786.514,4,500,,
sequence,flow.Sequence,10_45,2023-11-14T20:44:37.611Z,,,,,,,,,,4791.101999999955,completion,,,,,,,low,low,,,,,,false,,,,false,1355973.1999999993,1355973,1351165.108,1351365.299999997,1351181.898,1355786.514,4,500,,
trial,html.Screen,10_46_0,2023-11-14T20:44:44.036Z,,,,1,0.040352316356354,0.0039626669358928,,false,lh,6610.6859999992885,response,-0.2581863062408484,0.47207497440193713,-0.43727868201115533,0.417753527404173,0.4574508013421921,-0.5010053329338924,low,high,,ISIC_3018550.JPG,9,ISIC_0072828.JPG,310,false,hh,keypress(i),0,false,1362397.3999999985,1362397.1999999993,1355769.784,1355973.299999997,1355786.514,1362209.615,4,500,47,
break,html.Screen,10_46_1,2023-11-14T20:44:44.036Z,,,,,,,,,,NaN,,,,,,,,low,high,,,,,,false,,,,false,1362397.799999997,1362397.6999999993,,1362397.5,,1362209.615,4,500,,
break_continue,html.Screen,10_46_2,2023-11-14T20:44:44.036Z,,,,,,,,,,NaN,,,,,,,,low,high,,,,,,false,,,,false,1362398.1999999993,1362398.0999999978,,1362398,,1362209.615,4,500,,
sequence,flow.Sequence,10_46,2023-11-14T20:44:44.037Z,,,,,,,,,,6611.585999997798,completion,,,,,,,low,high,,,,,,false,,,,false,1362398.3999999985,1362398.0999999978,1355769.784,1355973.1999999993,1355786.514,1362209.615,4,500,,
trial,html.Screen,10_47_0,2023-11-14T20:44:49.683Z,,,,1,-0.0127320821962457,0.0315308940184827,,false,hl,5834.784999998519,response,0.2746477391087839,0.47207497440193713,-0.43727868201115533,-0.3680343503200335,0.4574508013421921,-0.5010053329338924,high,low,,ISIC_8156101.JPG,9,ISIC_3617159.JPG,277,false,ll,keypress(f),0,false,1368044.5,1368044.3999999985,1362192.931,1362398.5,1362209.615,1367865.289,4,500,48,
break,html.Screen,10_47_1,2023-11-14T20:44:49.683Z,,,,,,,,,,NaN,,,,,,,,high,low,,,,,,false,,,,false,1368044.6999999993,1368044.6999999993,,1368044.5,,1367865.289,4,500,,
break_continue,html.Screen,10_47_2,2023-11-14T20:44:49.683Z,,,,,,,,,,NaN,,,,,,,,high,low,,,,,,false,,,,false,1368045,1368045,,1368044.8999999985,,1367865.289,4,500,,
sequence,flow.Sequence,10_47,2023-11-14T20:44:49.683Z,,,,,,,,,,5835.385000000009,completion,,,,,,,high,low,,,,,,false,,,,false,1368045,1368045,1362192.931,1362398.5,1362209.615,1367865.289,4,500,,
trial,html.Screen,10_48_0,2023-11-14T20:44:54.268Z,,,,1,-0.0386453938786174,-0.0465908665241285,,false,hl,4763.910999999149,response,0.5024782519235462,0.47207497440193713,-0.43727868201115533,-0.5257812957521265,0.4574508013421921,-0.5010053329338924,high,low,,ISIC_1698119.JPG,8,ISIC_7351007.JPG,277,false,hh,keypress(i),0,false,1372629.299999997,1372629.1999999993,1367848.522,1368045.0999999978,1367865.289,1372453.18,4,500,49,
break,html.Screen,10_48_1,2023-11-14T20:44:54.268Z,,,,,,,,,,NaN,,,,,,,,high,low,,,,,,false,,,,false,1372629.8999999985,1372629.6999999993,,1372629.5,,1372453.18,4,500,,
break_continue,html.Screen,10_48_2,2023-11-14T20:44:54.268Z,,,,,,,,,,NaN,,,,,,,,high,low,,,,,,false,,,,false,1372630.1999999993,1372630.0999999978,,1372630,,1372453.18,4,500,,
sequence,flow.Sequence,10_48,2023-11-14T20:44:54.269Z,,,,,,,,,,4764.810999997659,completion,,,,,,,high,low,,,,,,false,,,,false,1372630.3999999985,1372630.0999999978,1367848.522,1368045.0999999978,1367865.289,1372453.18,4,500,,
trial,html.Screen,10_49_0,2023-11-14T20:45:00.155Z,,,,1,0.0399381815506136,0.0177751789152893,,true,hh,6063.41999999783,response,0.5977702388277913,0.47207497440193713,-0.43727868201115533,0.607769766943302,0.4574508013421921,-0.5010053329338924,high,high,,ISIC_3981425.JPG,8,ISIC_0065537.JPG,375,false,hh,keypress(i),0,false,1378516.6999999993,1378516.5999999978,1372436.607,1372630.5,1372453.18,1378342.562,4,500,50,
break,html.Screen,10_49_1,2023-11-14T20:45:00.155Z,,,,,,,,,,NaN,,,,,,,,high,high,,,,,,false,,,,false,1378517.0999999978,1378517,,1378516.799999997,,1378342.562,4,500,,
