sender,sender_type,sender_id,timestamp,meta,blockNo,c1,c2,condition,correct,correctResponse,duration,ended_on,f1,f1_high,f1_low,f2,f2_high,f2_low,feature_level1,feature_level2,img_left,img_reveal,img_right,n_target_images,practice,response,response_action,selection_duration,staircase,time_commit,time_end,time_render,time_run,time_show,time_switch,total_blocks,total_trials,trialNo,url,age,gender
informed_consent,html.Screen,0,2023-11-13T15:22:32.110Z,"{""labjs_version"":""20.2.4"",""labjs_build"":{""flavor"":""development"",""commit"":""f5b4a49f956347addd546a832a3327688c2c0fef""},""location"":""https://labjs.felixhenninger.com/api/labjs_preview/index.html"",""userAgent"":""Mozilla/5.0 (Windows NT 10.0; Win64; x64) AppleWebKit/537.36 (KHTML, like Gecko) Chrome/119.0.0.0 Safari/537.36"",""platform"":""Win32"",""language"":""en-US"",""locale"":""en-US"",""timeZone"":""America/Chicago"",""timezoneOffset"":360,""screen_width"":2560,""screen_height"":1440,""scroll_width"":1265,""scroll_height"":1278,""window_innerWidth"":1265,""window_innerHeight"":1326,""devicePixelRatio"":1}",,,,,,,1388905.95,response,,,,,,,,,,,,,,consent,click button,,,1389403,1389397.5,474.706,573.6,491.55,1389306.305,,,,{},,
Welcome,html.Screen,1,2023-11-13T15:23:38.658Z,,,,,,,,66643.795,response,,,,,,,,,,,,,,continue,click button,,,1455950.9,1455950.1,1389289.609,1389403.2,1389306.305,1455861.395,,,,,24,female
demo_instructions,html.Screen,2,2023-11-13T15:23:58.186Z,,,,,"[""col"",""sym""]",,,19616.405,response,,,,,,,,,,,,,,continue,click button,,,1475478.5,1475477.8,1455845.1,1455951,1455861.395,1475410.914,,,,,,
trial,html.Screen,3_0_0,2023-11-13T15:24:15.100Z,,0,-0.004877162,0.052352446,,TRUE,lh,16981.786,response,-0.956673317,1.05,-1.05,0.868885918,1.05,-1.05,low,high,ISIC_0010379.JPG,,ISIC_0640770.JPG,21,TRUE,lh,keypress(e),100,FALSE,1492393.2,1492392.7,1475394.258,1475478.6,1475410.914,1492325.077,1,16,1,,,
sequence,flow.Sequence,3_0,2023-11-13T15:24:15.101Z,,,,,,,,16981.786,completion,,,,,,,low,high,,,,,TRUE,,,,FALSE,1492394.1,1492392.7,1475394.258,1475478.6,1475410.914,1492325.077,1,16,,,,
trial,html.Screen,3_1_0,2023-11-13T15:24:19.683Z,,0,-0.004877162,0.052352446,,TRUE,lh,4650.323,response,-1.171271536,1.05,-1.05,1.026446399,1.05,-1.05,low,high,ISIC_0010379.JPG,,ISIC_7889838.JPG,21,TRUE,lh,keypress(e),100,FALSE,1496976,1496975.4,1492308.582,1492394.4,1492325.077,1496895.517,1,16,2,,,
sequence,flow.Sequence,3_1,2023-11-13T15:24:19.684Z,,,,,,,,4650.323,completion,,,,,,,low,high,,,,,TRUE,,,,FALSE,1496976.9,1496975.4,1492308.582,1492394.4,1492325.077,1496895.517,1,16,,,,
trial,html.Screen,3_2_0,2023-11-13T15:24:22.555Z,,0,-0.022222353,0.06682017,,TRUE,lh,2952.083,response,-0.929746784,1.05,-1.05,0.922552435,1.05,-1.05,low,high,ISIC_8321148.JPG,,ISIC_0011077.JPG,21,TRUE,lh,keypress(e),100,FALSE,1499848.3,1499847.6,1496878.859,1496977.5,1496895.517,1499781.271,1,16,3,,,
sequence,flow.Sequence,3_2,2023-11-13T15:24:22.557Z,,,,,,,,2952.083,completion,,,,,,,low,high,,,,,TRUE,,,,FALSE,1499849.5,1499847.6,1496878.859,1496977.3,1496895.517,1499781.271,1,16,,,,
trial,html.Screen,3_3_0,2023-11-13T15:24:25.284Z,,0,0.06466149,-0.03726992,,TRUE,lh,2795.429,response,-0.883317539,1.05,-1.05,1.082730233,1.05,-1.05,low,high,ISIC_1175170.JPG,,ISIC_0011933.JPG,21,TRUE,lh,keypress(e),100,FALSE,1502577.1,1502576.7,1499764.604,1499850,1499781.271,1502500.395,1,16,4,,,
sequence,flow.Sequence,3_3,2023-11-13T15:24:25.285Z,,,,,,,,2795.429,completion,,,,,,,low,high,,,,,TRUE,,,,FALSE,1502577.7,1502576.7,1499764.604,1499849.9,1499781.271,1502500.395,1,16,,,,
trial,html.Screen,3_4_0,2023-11-13T15:24:27.482Z,,0,0.049297905,0.036247274,,FALSE,ll,2274.105,response,-1.091507924,1.05,-1.05,-1.164259648,1.05,-1.05,low,low,ISIC_5312584.JPG,,ISIC_0765584.JPG,86,TRUE,lh,keypress(e),100,FALSE,1504775,1504774.5,1502483.373,1502578,1502500.395,1504701.894,1,16,5,,,
sequence,flow.Sequence,3_4,2023-11-13T15:24:27.483Z,,,,,,,,2274.105,completion,,,,,,,low,low,,,,,TRUE,,,,FALSE,1504775.7,1504774.5,1502483.373,1502577.9,1502500.395,1504701.894,1,16,,,,
trial,html.Screen,3_5_0,2023-11-13T15:24:33.825Z,,0,-0.053529654,0.008552098,,TRUE,ll,6415.106,response,-1.132540313,1.05,-1.05,-1.151000145,1.05,-1.05,low,low,ISIC_0758797.JPG,,ISIC_0009959.JPG,86,TRUE,ll,keypress(f),100,FALSE,1511117.6,1511117,1504685.457,1504776,1504701.894,1511040.522,1,16,6,,,
sequence,flow.Sequence,3_5,2023-11-13T15:24:33.825Z,,,,,,,,6415.106,completion,,,,,,,low,low,,,,,TRUE,,,,FALSE,1511118.4,1511117,1504685.457,1504776,1504701.894,1511040.522,1,16,,,,
trial,html.Screen,3_6_0,2023-11-13T15:24:36.105Z,,0,0.055819459,-0.073342595,,TRUE,ll,2357.178,response,-0.904605309,1.05,-1.05,-0.9512445,1.05,-1.05,low,low,ISIC_0026756.JPG,,ISIC_0059170.JPG,86,TRUE,ll,keypress(f),100,FALSE,1513398.2,1513397.7,1511023.827,1511118.7,1511040.522,1513325.699,1,16,7,,,
sequence,flow.Sequence,3_6,2023-11-13T15:24:36.106Z,,,,,,,,2357.178,completion,,,,,,,low,low,,,,,TRUE,,,,FALSE,1513398.8,1513397.7,1511023.827,1511118.6,1511040.522,1513325.699,1,16,,,,
trial,html.Screen,3_7_0,2023-11-13T15:24:41.728Z,,0,0.074578921,-0.019199959,,TRUE,ll,5694.501,response,-1.08466354,1.05,-1.05,-1.163833464,1.05,-1.05,low,low,ISIC_4024062.JPG,,ISIC_4718313.JPG,86,TRUE,ll,keypress(f),100,FALSE,1519020.7,1519020.2,1513309.265,1513399,1513325.699,1518947.328,1,16,8,,,
sequence,flow.Sequence,3_7,2023-11-13T15:24:41.728Z,,,,,,,,5694.501,completion,,,,,,,low,low,,,,,TRUE,,,,FALSE,1519021.3,1519020.2,1513309.265,1513398.9,1513325.699,1518947.328,1,16,,,,
trial,html.Screen,3_8_0,2023-11-13T15:24:50.503Z,,0,0.06153559,-0.024524679,,FALSE,hl,8848.072,response,0.958564244,1,-1,-1.064425982,1,-1,high,low,ISIC_0034144.JPG,,ISIC_3203344.JPG,24,TRUE,ll,keypress(f),100,FALSE,1527795.9,1527795.4,1518930.315,1519021.6,1518947.328,1527721.179,1,16,9,,,
sequence,flow.Sequence,3_8,2023-11-13T15:24:50.504Z,,,,,,,,8848.072,completion,,,,,,,high,low,,,,,TRUE,,,,FALSE,1527796.7,1527795.4,1518930.315,1519021.4,1518947.328,1527721.179,1,16,,,,
trial,html.Screen,3_9_0,2023-11-13T15:24:58.559Z,,0,0.055819459,-0.073342595,,TRUE,hl,8129.921,response,0.974554803,1,-1,-0.877937498,1,-1,high,low,ISIC_0026756.JPG,,ISIC_2991354.JPG,24,TRUE,hl,keypress(j),100,FALSE,1535851.5,1535851.1,1527704.25,1527797,1527721.179,1535777.856,1,16,10,,,
sequence,flow.Sequence,3_9,2023-11-13T15:24:58.559Z,,,,,,,,8129.921,completion,,,,,,,high,low,,,,,TRUE,,,,FALSE,1535852.3,1535851.1,1527704.25,1527796.9,1527721.179,1535777.856,1,16,,,,
trial,html.Screen,3_10_0,2023-11-13T15:25:04.406Z,,0,0.032829959,0.057231856,,TRUE,hl,5920.544,response,1.005421006,1,-1,-0.944511496,1,-1,high,low,ISIC_0397464.JPG,,ISIC_0033807.JPG,24,TRUE,hl,keypress(j),100,FALSE,1541698.9,1541698.4,1535760.91,1535852.5,1535777.856,1541632.721,1,16,11,,,
sequence,flow.Sequence,3_10,2023-11-13T15:25:04.407Z,,,,,,,,5920.544,completion,,,,,,,high,low,,,,,TRUE,,,,FALSE,1541699.6,1541698.4,1535760.91,1535852.5,1535777.856,1541632.721,1,16,,,,
trial,html.Screen,3_11_0,2023-11-13T15:25:11.741Z,,0,0.073617867,-0.0029979,,TRUE,hl,7400.179,response,1.005421006,1,-1,-0.944511496,1,-1,high,low,ISIC_9745038.JPG,,ISIC_0033807.JPG,24,TRUE,hl,keypress(j),100,FALSE,1549033.3,1549032.9,1541615.864,1541699.9,1541632.721,1548955.424,1,16,12,,,
sequence,flow.Sequence,3_11,2023-11-13T15:25:11.741Z,,,,,,,,7400.179,completion,,,,,,,high,low,,,,,TRUE,,,,FALSE,1549033.9,1549032.9,1541615.864,1541699.8,1541632.721,1548955.424,1,16,,,,
trial,html.Screen,3_12_0,2023-11-13T15:25:16.597Z,,0,-0.004877162,0.052352446,,TRUE,hh,4933.276,response,0.809013913,1,-1,1.104844248,1,-1,high,high,ISIC_0010379.JPG,,ISIC_0057539.JPG,154,TRUE,hh,keypress(i),100,FALSE,1553889.4,1553888.7,1548938.542,1549034.2,1548955.424,1553809.393,1,16,13,,,
sequence,flow.Sequence,3_12,2023-11-13T15:25:16.598Z,,,,,,,,4933.276,completion,,,,,,,high,high,,,,,TRUE,,,,FALSE,1553890.3,1553888.7,1548938.542,1549034.1,1548955.424,1553809.393,1,16,,,,
trial,html.Screen,3_13_0,2023-11-13T15:25:19.102Z,,0,-0.004877162,0.052352446,,TRUE,hh,2584.807,response,1.090690958,1,-1,1.001164707,1,-1,high,high,ISIC_0010379.JPG,,ISIC_0021901.JPG,154,TRUE,hh,keypress(i),100,FALSE,1556394.7,1556394.2,1553792.552,1553890.7,1553809.393,1556328.174,1,16,14,,,
sequence,flow.Sequence,3_13,2023-11-13T15:25:19.103Z,,,,,,,,2584.807,completion,,,,,,,high,high,,,,,TRUE,,,,FALSE,1556395.7,1556394.2,1553792.552,1553890.6,1553809.393,1556328.174,1,16,,,,
trial,html.Screen,3_14_0,2023-11-13T15:25:22.822Z,,0,-0.012881242,-0.01892956,,TRUE,hh,3785.726,response,0.860665126,1,-1,1.076520827,1,-1,high,high,ISIC_0010372.JPG,,ISIC_5313574.JPG,154,TRUE,hh,keypress(i),100,FALSE,1560114.5,1560113.9,1556311.274,1556396.1,1556328.174,1560047.678,1,16,15,,,
sequence,flow.Sequence,3_14,2023-11-13T15:25:22.823Z,,,,,,,,3785.726,completion,,,,,,,high,high,,,,,TRUE,,,,FALSE,1560115.4,1560113.9,1556311.274,1556395.9,1556328.174,1560047.678,1,16,,,,
trial,html.Screen,3_15_0,2023-11-13T15:25:29.308Z,,0,0.010071172,-0.010035581,,TRUE,hh,6552.622,response,1.185052823,1,-1,1.018568531,1,-1,high,high,ISIC_0030592.JPG,,ISIC_0057180.JPG,154,TRUE,hh,keypress(i),100,FALSE,1566600.5,1566600.3,1560031.073,1560115.7,1560047.678,1566536.691,1,16,16,,,
sequence,flow.Sequence,3_15,2023-11-13T15:25:29.308Z,,,,,,,,6552.622,completion,,,,,,,high,high,,,,,TRUE,,,,FALSE,1566600.7,1566600.3,1560031.073,1560115.6,1560047.678,1566536.691,1,16,,,,
demonstration_loop,flow.Loop,3,2023-11-13T15:25:29.308Z,,,,,,,,91189.386,completion,,,,,,,,,,,,,TRUE,,,,FALSE,1566600.9,1566600.3,1475394.258,1475478.6,1475410.914,1566536.691,1,16,,,,
practice_instructions,html.Screen,4,2023-11-13T15:25:50.463Z,,,,,,,,21212.809,response,,,,,,,,,,,,,,continue,click button,,,1587756.8,1587749.5,1566519.931,1566600.9,1566536.691,1587670.338,,,,,,
trial,html.Screen,5_0_0,2023-11-13T15:26:01.451Z,,1,0.002695675,-0.036721843,,,,11009.162,timeout,-0.928217189,1,-1,0.856194655,1,-1,low,high,ISIC_7212271.JPG,,ISIC_3065032.JPG,24,TRUE,,,0,FALSE,1598744.6,1598744.4,1587653.695,1587756.9,1587670.338,1598679.5,1,20,1,,,
sequence,flow.Sequence,5_0,2023-11-13T15:26:01.451Z,,,,,,,,11074.062,completion,,,,,,,low,high,,,,,TRUE,,,,FALSE,1598744.7,1598744.4,1587653.695,1587756.9,1587670.338,1598679.5,1,20,,,,
trial,html.Screen,5_1_0,2023-11-13T15:26:04.426Z,,1,0.049297905,0.036247274,,TRUE,hl,3039.3,response,0.870797302,1,-1,-0.859129426,1,-1,high,low,ISIC_5312584.JPG,,ISIC_0055841.JPG,24,TRUE,hl,keypress(j),0,FALSE,1601718.8,1601718.8,1598662.75,1598744.7,1598679.5,1601648.943,1,20,2,,,
sequence,flow.Sequence,5_1,2023-11-13T15:26:04.426Z,,,,,,,,3039.3,completion,,,,,,,high,low,,,,,TRUE,,,,FALSE,1601719,1601718.8,1598662.75,1598744.7,1598679.5,1601648.943,1,20,,,,
trial,html.Screen,5_2_0,2023-11-13T15:26:07.227Z,,1,0.02914574,-0.036187551,,TRUE,hl,2871.457,response,0.910176419,1,-1,-0.806956275,1,-1,high,low,ISIC_0027480.JPG,,ISIC_0046596.JPG,24,TRUE,hl,keypress(j),0,FALSE,1604520.8,1604520.4,1601631.983,1601719.1,1601648.943,1604434.344,1,20,3,,,
sequence,flow.Sequence,5_2,2023-11-13T15:26:07.228Z,,,,,,,,2871.457,completion,,,,,,,high,low,,,,,TRUE,,,,FALSE,1604521.4,1604520.4,1601631.983,1601719.1,1601648.943,1604434.344,1,20,,,,
trial,html.Screen,5_3_0,2023-11-13T15:26:09.852Z,,1,0.069781088,-0.031188432,,TRUE,hl,2710.056,response,0.842890377,1,-1,-1.006154818,1,-1,high,low,ISIC_4870676.JPG,,ISIC_0069970.JPG,24,TRUE,hl,keypress(j),0,FALSE,1607144.9,1607144.4,1604417.535,1604521.7,1604434.344,1607053.224,1,20,4,,,
sequence,flow.Sequence,5_3,2023-11-13T15:26:09.852Z,,,,,,,,2710.056,completion,,,,,,,high,low,,,,,TRUE,,,,FALSE,1607145.5,1607144.4,1604417.535,1604521.7,1604434.344,1607053.224,1,20,,,,
trial,html.Screen,5_4_0,2023-11-13T15:26:15.084Z,,1,0.027910815,0.006093407,,TRUE,ll,5323.376,response,-0.97928909,1,-1,-0.899744999,1,-1,low,low,ISIC_0032604.JPG,,ISIC_0469314.JPG,111,TRUE,ll,keypress(f),0,FALSE,1612377,1612376.6,1607036.782,1607145.9,1607053.224,1612290.746,1,20,5,,,
sequence,flow.Sequence,5_4,2023-11-13T15:26:15.084Z,,,,,,,,5323.376,completion,,,,,,,low,low,,,,,TRUE,,,,FALSE,1612377.6,1612376.6,1607036.782,1607145.7,1607053.224,1612290.746,1,20,,,,
trial,html.Screen,5_5_0,2023-11-13T15:26:21.305Z,,1,0.032504656,0.001265757,,TRUE,hh,6307.254,response,0.958723073,1,-1,1.109729032,1,-1,high,high,ISIC_5682259.JPG,,ISIC_0055289.JPG,154,TRUE,hh,keypress(i),0,FALSE,1618598.1,1618598,1612274.355,1612377.9,1612290.746,1618512.578,1,20,6,,,
sequence,flow.Sequence,5_5,2023-11-13T15:26:21.305Z,,,,,,,,6307.254,completion,,,,,,,high,high,,,,,TRUE,,,,FALSE,1618598.3,1618598,1612274.355,1612377.7,1612290.746,1618512.578,1,20,,,,
trial,html.Screen,5_6_0,2023-11-13T15:26:25.178Z,,1,-0.004009645,0.012810674,,TRUE,ll,3958.822,response,-1.078931263,1,-1,-1.160473417,1,-1,low,low,ISIC_0064656.JPG,,ISIC_3950753.JPG,111,TRUE,ll,keypress(f),0,FALSE,1622471.5,1622471.4,1618496.095,1618598.4,1618512.578,1622382.603,1,20,7,,,
sequence,flow.Sequence,5_6,2023-11-13T15:26:25.178Z,,,,,,,,3958.822,completion,,,,,,,low,low,,,,,TRUE,,,,FALSE,1622471.7,1622471.4,1618496.095,1618598.4,1618512.578,1622382.603,1,20,,,,
trial,html.Screen,5_7_0,2023-11-13T15:26:29.675Z,,1,0.055819459,-0.073342595,,TRUE,hh,4585.597,response,0.868184396,1,-1,1.042408629,1,-1,high,high,ISIC_0026756.JPG,,ISIC_0026738.JPG,154,TRUE,hh,keypress(i),0,FALSE,1626968.6,1626968.2,1622365.596,1622471.7,1622382.603,1626886.25,1,20,8,,,
sequence,flow.Sequence,5_7,2023-11-13T15:26:29.676Z,,,,,,,,4585.597,completion,,,,,,,high,high,,,,,TRUE,,,,FALSE,1626969,1626968.2,1622365.596,1622471.7,1622382.603,1626886.25,1,20,,,,
trial,html.Screen,5_8_0,2023-11-13T15:26:33.867Z,,1,0.069636711,0.00407887,,TRUE,ll,4273.45,response,-0.860592133,1,-1,-1.106379615,1,-1,low,low,ISIC_0066882.JPG,,ISIC_0064071.JPG,111,TRUE,ll,keypress(f),0,FALSE,1631160.1,1631159.7,1626869.285,1626969.1,1626886.25,1631073.516,1,20,9,,,
sequence,flow.Sequence,5_8,2023-11-13T15:26:33.867Z,,,,,,,,4273.45,completion,,,,,,,low,low,,,,,TRUE,,,,FALSE,1631160.4,1631159.7,1626869.285,1626969,1626886.25,1631073.516,1,20,,,,
trial,html.Screen,5_9_0,2023-11-13T15:26:41.740Z,,1,-0.069221079,-0.047475574,,TRUE,lh,7959.484,response,-0.950068904,1,-1,0.987379433,1,-1,low,high,ISIC_8794567.JPG,,ISIC_0013498.JPG,24,TRUE,lh,keypress(e),0,FALSE,1639033.5,1639033,1631056.575,1631160.6,1631073.516,1638946.241,1,20,10,,,
sequence,flow.Sequence,5_9,2023-11-13T15:26:41.741Z,,,,,,,,7959.484,completion,,,,,,,low,high,,,,,TRUE,,,,FALSE,1639034.1,1639033,1631056.575,1631160.6,1631073.516,1638946.241,1,20,,,,
trial,html.Screen,5_10_0,2023-11-13T15:26:46.700Z,,1,-0.022762665,0.037779184,,TRUE,hh,5046.259,response,0.936535825,1,-1,1.019373573,1,-1,high,high,ISIC_7167479.JPG,,ISIC_0071951.JPG,154,TRUE,hh,keypress(i),0,FALSE,1643992.8,1643992.5,1638929.632,1639034.4,1638946.241,1643900.37,1,20,11,,,
sequence,flow.Sequence,5_10,2023-11-13T15:26:46.700Z,,,,,,,,5046.259,completion,,,,,,,high,high,,,,,TRUE,,,,FALSE,1643993.4,1643992.5,1638929.632,1639034.4,1638946.241,1643900.37,1,20,,,,
trial,html.Screen,5_11_0,2023-11-13T15:26:50.780Z,,1,-0.068563375,-0.038044043,,TRUE,lh,4172.43,response,-0.802307599,1,-1,1.008837654,1,-1,low,high,ISIC_0032680.JPG,,ISIC_7619234.JPG,24,TRUE,lh,keypress(e),0,FALSE,1648073.2,1648072.8,1643883.838,1643993.7,1643900.37,1647987.036,1,20,12,,,
sequence,flow.Sequence,5_11,2023-11-13T15:26:50.781Z,,,,,,,,4172.43,completion,,,,,,,low,high,,,,,TRUE,,,,FALSE,1648073.9,1648072.8,1643883.838,1643993.7,1643900.37,1647987.036,1,20,,,,
trial,html.Screen,5_12_0,2023-11-13T15:26:55.788Z,,1,0.017883272,-0.005104674,,TRUE,ll,5093.564,response,-0.907829267,1,-1,-0.967434314,1,-1,low,low,ISIC_9545819.JPG,,ISIC_0011668.JPG,111,TRUE,ll,keypress(f),0,FALSE,1653081,1653080.6,1647970.105,1648074.2,1647987.036,1652991.205,1,20,13,,,
sequence,flow.Sequence,5_12,2023-11-13T15:26:55.789Z,,,,,,,,5093.564,completion,,,,,,,low,low,,,,,TRUE,,,,FALSE,1653081.6,1653080.6,1647970.105,1648074.1,1647987.036,1652991.205,1,20,,,,
trial,html.Screen,5_13_0,2023-11-13T15:27:00.108Z,,1,0.010287156,0.045028243,,TRUE,lh,4408.695,response,-0.808085426,1,-1,1.127346632,1,-1,low,high,ISIC_1805163.JPG,,ISIC_0011045.JPG,24,TRUE,lh,keypress(e),0,FALSE,1657400.4,1657399.9,1652974.511,1653081.9,1652991.205,1657311.402,1,20,14,,,
sequence,flow.Sequence,5_13,2023-11-13T15:27:00.108Z,,,,,,,,4408.695,completion,,,,,,,low,high,,,,,TRUE,,,,FALSE,1657400.9,1657399.9,1652974.511,1653081.8,1652991.205,1657311.402,1,20,,,,
trial,html.Screen,5_14_0,2023-11-13T15:27:03.177Z,,1,-0.022222353,0.06682017,,TRUE,hh,3158.598,response,0.946404304,1,-1,1.073353722,1,-1,high,high,ISIC_8321148.JPG,,ISIC_0055293.JPG,154,TRUE,hh,keypress(i),0,FALSE,1660470.1,1660470,1657294.93,1657401.1,1657311.402,1660380.441,1,20,15,,,
sequence,flow.Sequence,5_14,2023-11-13T15:27:03.177Z,,,,,,,,3158.598,completion,,,,,,,high,high,,,,,TRUE,,,,FALSE,1660470.2,1660470,1657294.93,1657401,1657311.402,1660380.441,1,20,,,,
trial,html.Screen,5_15_0,2023-11-13T15:27:06.860Z,,1,0.032829959,0.057231856,,TRUE,hh,3772.259,response,0.925776674,1,-1,1.139992575,1,-1,high,high,ISIC_0397464.JPG,,ISIC_7331345.JPG,154,TRUE,hh,keypress(i),0,FALSE,1664153.1,1664152.7,1660363.881,1660470.2,1660380.441,1664067.025,1,20,16,,,
sequence,flow.Sequence,5_15,2023-11-13T15:27:06.861Z,,,,,,,,3772.259,completion,,,,,,,high,high,,,,,TRUE,,,,FALSE,1664153.7,1664152.7,1660363.881,1660470.2,1660380.441,1664067.025,1,20,,,,
trial,html.Screen,5_16_0,2023-11-13T15:27:12.172Z,,1,-0.022222353,0.06682017,,TRUE,ll,5397.075,response,-0.897167818,1,-1,-1.16791824,1,-1,low,low,ISIC_8321148.JPG,,ISIC_0025085.JPG,111,TRUE,ll,keypress(f),0,FALSE,1669464.4,1669464.1,1664050.333,1664154,1664067.025,1669371.43,1,20,17,,,
sequence,flow.Sequence,5_16,2023-11-13T15:27:12.172Z,,,,,,,,5397.075,completion,,,,,,,low,low,,,,,TRUE,,,,FALSE,1669464.9,1669464.1,1664050.333,1664153.9,1664067.025,1669371.43,1,20,,,,
trial,html.Screen,5_17_0,2023-11-13T15:27:15.356Z,,1,0.01748156,0.005067913,,TRUE,hl,3277.07,response,0.842890377,1,-1,-1.006154818,1,-1,high,low,ISIC_9848743.JPG,,ISIC_0069970.JPG,24,TRUE,hl,keypress(j),0,FALSE,1672648.8,1672648.5,1669354.689,1669465.2,1669371.43,1672557.397,1,20,18,,,
sequence,flow.Sequence,5_17,2023-11-13T15:27:15.357Z,,,,,,,,3277.07,completion,,,,,,,high,low,,,,,TRUE,,,,FALSE,1672649.4,1672648.5,1669354.689,1669465,1669371.43,1672557.397,1,20,,,,
trial,html.Screen,5_18_0,2023-11-13T15:27:18.106Z,,1,0.010287156,0.045028243,,TRUE,hl,2840.903,response,1.104705848,1,-1,-0.815235489,1,-1,high,low,ISIC_1805163.JPG,,ISIC_0010283.JPG,24,TRUE,hl,keypress(j),0,FALSE,1675398.5,1675398.3,1672540.747,1672649.8,1672557.397,1675309.473,1,20,19,,,
sequence,flow.Sequence,5_18,2023-11-13T15:27:18.106Z,,,,,,,,2840.903,completion,,,,,,,high,low,,,,,TRUE,,,,FALSE,1675398.6,1675398.3,1672540.747,1672649.7,1672557.397,1675309.473,1,20,,,,
trial,html.Screen,5_19_0,2023-11-13T15:27:20.828Z,,1,,-0.059759259,,TRUE,lh,2810.727,response,-0.956673317,1,-1,0.868885918,1,-1,low,high,ISIC_0071367.JPG,,ISIC_0640770.JPG,24,TRUE,lh,keypress(e),0,FALSE,1678120.6,1678120.2,1675293.254,1675398.7,1675309.473,1678028.595,1,20,20,,,
sequence,flow.Sequence,5_19,2023-11-13T15:27:20.829Z,,,,,,,,2810.727,completion,,,,,,,low,high,,,,,TRUE,,,,FALSE,1678121.3,1678120.2,1675293.254,1675398.6,1675309.473,1678028.595,1,20,,,,
practice_loop,flow.Loop,5,2023-11-13T15:27:20.829Z,,,,,,,,90449.862,completion,,,,,,,,,,,,,TRUE,,,,FALSE,1678121.9,1678120.2,1587653.695,1587756.9,1587670.338,1678028.595,1,20,,,,
stair_instructions,html.Screen,6,2023-11-13T15:29:55.321Z,,,,,,,,154585.205,response,,,,,,,,,,,,,,continue,click button,,,1832614.3,1832613.8,1678012.104,1678122.1,1678028.595,1832522.85,,,,,,
trial,html.Screen,7_0_0,2023-11-13T15:30:04.327Z,,2,0.002181077,0.007767338,,,,9024.383,timeout,0.842327022,1,-1,-1.122474597,1,-1,high,low,ISIC_0067621.JPG,,ISIC_0057032.JPG,24,FALSE,,,0,TRUE,1841620.1,1841619.9,1832506.273,1832614.4,1832522.85,1841547.233,1,40,1,,,
sequence,flow.Sequence,7_0,2023-11-13T15:30:04.327Z,,,,,,,,9097.05,completion,,,,,,,high,low,,,,,FALSE,,,,TRUE,1841620.3,1841619.9,1832506.273,1832614.4,1832522.85,1841547.233,1,40,,,,
trial,html.Screen,7_1_0,2023-11-13T15:30:08.978Z,,2,0.02914574,-0.036187551,,TRUE,lh,4723.567,response,-1.180640477,1,-1,0.967024038,1,-1,low,high,ISIC_0027480.JPG,,ISIC_0002288.JPG,24,FALSE,lh,keypress(e),0,TRUE,1846270.8,1846270.8,1841530.352,1841620.5,1841547.233,1846201.041,1,40,2,,,
sequence,flow.Sequence,7_1,2023-11-13T15:30:08.978Z,,,,,,,,4723.567,completion,,,,,,,low,high,,,,,FALSE,,,,TRUE,1846271,1846270.8,1841530.352,1841620.4,1841547.233,1846201.041,1,40,,,,
trial,html.Screen,7_2_0,2023-11-13T15:30:13.139Z,,2,0.013891148,0.070074597,,TRUE,hh,4230.859,response,1.011174416,0.95,-0.95,1.084683602,0.95,-0.95,high,high,ISIC_0054663.JPG,,ISIC_0069946.JPG,164,FALSE,hh,keypress(i),0,TRUE,1850432,1850431.9,1846184.417,1846271,1846201.041,1850337.71,1,40,3,,,
sequence,flow.Sequence,7_2,2023-11-13T15:30:13.139Z,,,,,,,,4230.859,completion,,,,,,,high,high,,,,,FALSE,,,,TRUE,1850432.2,1850431.9,1846184.417,1846271,1846201.041,1850337.71,1,40,,,,
trial,html.Screen,7_3_0,2023-11-13T15:30:17.052Z,,2,-0.039571353,0.053916918,,FALSE,ll,4007.19,response,-0.878974742,0.9,-0.9,-0.721895055,0.92585382,-0.9,low,low,ISIC_1076091.JPG,,ISIC_0062734.JPG,171,FALSE,lh,keypress(e),0,TRUE,1854345.2,1854344.9,1850321.245,1850432.3,1850337.71,1854257.715,1,40,4,,,
sequence,flow.Sequence,7_3,2023-11-13T15:30:17.053Z,,,,,,,,4007.19,completion,,,,,,,low,low,,,,,FALSE,,,,TRUE,1854345.9,1854344.9,1850321.245,1850432.3,1850337.71,1854257.715,1,40,,,,
trial,html.Screen,7_4_0,2023-11-13T15:30:20.380Z,,2,0.010287156,0.045028243,,FALSE,hl,3415.085,response,0.878835674,0.85,-0.92980761,-0.717897379,0.87585382,-0.9,high,low,ISIC_1805163.JPG,,ISIC_3963183.JPG,47,FALSE,ll,keypress(f),0,TRUE,1857673.2,1857672.8,1854241.243,1854346.2,1854257.715,1857594.027,1,40,5,,,
sequence,flow.Sequence,7_4,2023-11-13T15:30:20.381Z,,,,,,,,3415.085,completion,,,,,,,high,low,,,,,FALSE,,,,TRUE,1857673.9,1857672.8,1854241.243,1854346.1,1854257.715,1857594.027,1,40,,,,
trial,html.Screen,7_5_0,2023-11-13T15:30:25.148Z,,2,0.074578921,-0.019199959,,FALSE,ll,4846.873,response,-0.827919941,0.85,-0.87980761,-0.913084438,0.82585382,-0.85,low,low,ISIC_4024062.JPG,,ISIC_8637134.JPG,189,FALSE,hl,keypress(j),0,TRUE,1862441.2,1862440.9,1857576.856,1857674.2,1857594.027,1862365.635,1,40,6,,,
sequence,flow.Sequence,7_5,2023-11-13T15:30:25.149Z,,,,,,,,4846.873,completion,,,,,,,low,low,,,,,FALSE,,,,TRUE,1862441.9,1862440.9,1857576.856,1857674.1,1857594.027,1862365.635,1,40,,,,
trial,html.Screen,7_6_0,2023-11-13T15:30:29.340Z,,2,-0.012609741,0.012020986,,FALSE,hh,4267.165,response,0.886704137,0.8,-0.87980761,0.673452989,0.77585382,-0.715490908,high,high,ISIC_0069379.JPG,,ISIC_0030910.JPG,234,FALSE,lh,keypress(e),0,TRUE,1866633.2,1866632.8,1862331.188,1862442.1,1862365.635,1866551.158,1,40,7,,,
sequence,flow.Sequence,7_6,2023-11-13T15:30:29.341Z,,,,,,,,4267.165,completion,,,,,,,high,high,,,,,FALSE,,,,TRUE,1866634,1866632.8,1862331.188,1862442.1,1862365.635,1866551.158,1,40,,,,
trial,html.Screen,7_7_0,2023-11-13T15:30:36.124Z,,2,-0.074433472,-0.029617995,,FALSE,ll,6866.042,response,-0.780475055,0.8,-0.82980761,-0.526798007,0.72585382,-0.665490908,low,low,ISIC_0026982.JPG,,ISIC_0002899.JPG,263,FALSE,hl,keypress(j),0,TRUE,1873417.5,1873417.2,1866534.612,1866634.3,1866551.158,1873341.084,1,40,8,,,
sequence,flow.Sequence,7_7,2023-11-13T15:30:36.125Z,,,,,,,,6866.042,completion,,,,,,,low,low,,,,,FALSE,,,,TRUE,1873418.3,1873417.2,1866534.612,1866634.2,1866551.158,1873341.084,1,40,,,,
trial,html.Screen,7_8_0,2023-11-13T15:30:40.556Z,,2,0.073617867,-0.0029979,,FALSE,lh,4507.716,response,-0.75858929,0.75,-0.82980761,0.59318311,0.67585382,-0.615490908,low,high,ISIC_9745038.JPG,,ISIC_2096695.JPG,111,FALSE,ll,keypress(f),0,TRUE,1877849.2,1877848.8,1873306.883,1873418.5,1873341.084,1877760.4,1,40,9,,,
sequence,flow.Sequence,7_8,2023-11-13T15:30:40.557Z,,,,,,,,4507.716,completion,,,,,,,low,high,,,,,FALSE,,,,TRUE,1877849.9,1877848.8,1873306.883,1873418.4,1873341.084,1877760.4,1,40,,,,
trial,html.Screen,7_9_0,2023-11-13T15:30:49.556Z,,2,0.047524453,-0.005031965,,,,9024.373,timeout,0.521896048,0.7,-0.77980761,0.689972771,0.67585382,-0.565490908,high,high,ISIC_0027081.JPG,,ISIC_0054523.JPG,297,FALSE,,,0,TRUE,1886848.6,1886848.2,1877743.719,1877850.1,1877760.4,1886784.773,1,40,10,,,
sequence,flow.Sequence,7_9,2023-11-13T15:30:49.556Z,,,,,,,,9087.8,completion,,,,,,,high,high,,,,,FALSE,,,,TRUE,1886849.1,1886848.2,1877743.719,1877850.1,1877760.4,1886784.773,1,40,,,,
trial,html.Screen,7_10_0,2023-11-13T15:30:53.500Z,,2,0.002695675,-0.036721843,,FALSE,hl,4008.227,response,0.802917364,0.7,-0.77980761,-0.59888764,0.67585382,-0.565490908,high,low,ISIC_7212271.JPG,,ISIC_2733043.JPG,170,FALSE,lh,keypress(e),0,TRUE,1890793.5,1890793,1886767.944,1886849.4,1886784.773,1890704.452,1,40,11,,,
sequence,flow.Sequence,7_10,2023-11-13T15:30:53.501Z,,,,,,,,4008.227,completion,,,,,,,high,low,,,,,FALSE,,,,TRUE,1890794,1890793,1886767.944,1886849.4,1886784.773,1890704.452,1,40,,,,
trial,html.Screen,7_11_0,2023-11-13T15:30:55.772Z,,2,0.069781088,-0.031188432,,FALSE,ll,2360.548,response,-0.694427877,0.7,-0.72980761,-0.414457056,0.62585382,-0.565490908,low,low,ISIC_4870676.JPG,,ISIC_3031937.JPG,333,FALSE,lh,keypress(e),0,TRUE,1893065.4,1893065,1890687.985,1890794.2,1890704.452,1892973.06,1,40,12,,,
sequence,flow.Sequence,7_11,2023-11-13T15:30:55.773Z,,,,,,,,2360.548,completion,,,,,,,low,low,,,,,FALSE,,,,TRUE,1893066,1893065,1890687.985,1890794.1,1890704.452,1892973.06,1,40,,,,
trial,html.Screen,7_12_0,2023-11-13T15:30:59.964Z,,2,0.023131623,-0.050018284,,FALSE,lh,4283.44,response,-0.71826131,0.65,-0.626508584,0.694437629,0.57585382,-0.565490908,low,high,ISIC_2246150.JPG,,ISIC_6831108.JPG,208,FALSE,hh,keypress(i),0,TRUE,1897256.7,1897256.5,1892956.369,1893066.4,1892973.06,1897176.457,1,40,13,,,
sequence,flow.Sequence,7_12,2023-11-13T15:30:59.964Z,,,,,,,,4283.44,completion,,,,,,,low,high,,,,,FALSE,,,,TRUE,1897257,1897256.5,1892956.369,1893066.3,1892973.06,1897176.457,1,40,,,,
trial,html.Screen,7_13_0,2023-11-13T15:31:04.812Z,,2,-0.051849107,-0.00421248,,FALSE,ll,4928.643,response,-0.571001521,0.6,-0.626508584,-0.664237769,0.52585382,-0.515490908,low,low,ISIC_2945324.JPG,,ISIC_0008619.JPG,391,FALSE,hl,keypress(j),0,TRUE,1902105.5,1902105.1,1897159.534,1897257.2,1897176.457,1902013.863,1,40,14,,,
sequence,flow.Sequence,7_13,2023-11-13T15:31:04.813Z,,,,,,,,4928.643,completion,,,,,,,low,low,,,,,FALSE,,,,TRUE,1902106.2,1902105.1,1897159.534,1897257.2,1897176.457,1902013.863,1,40,,,,
trial,html.Screen,7_14_0,2023-11-13T15:31:07.930Z,,2,-0.052390235,-0.019361072,,FALSE,hh,3208.737,response,0.729406799,0.55,-0.626508584,0.278240042,0.47585382,-0.465490908,high,high,ISIC_4066726.JPG,,ISIC_5067317.JPG,360,FALSE,lh,keypress(e),0,TRUE,1905222.7,1905222.6,1901997.321,1902106.5,1902013.863,1905132.957,1,40,15,,,
sequence,flow.Sequence,7_14,2023-11-13T15:31:07.930Z,,,,,,,,3208.737,completion,,,,,,,high,high,,,,,FALSE,,,,TRUE,1905222.9,1905222.6,1901997.321,1902106.5,1902013.863,1905132.957,1,40,,,,
trial,html.Screen,7_15_0,2023-11-13T15:31:12.618Z,,2,0.005690837,-0.032777262,,FALSE,hh,4777.543,response,0.57476041,0.55,-0.576508584,0.615717202,0.42585382,-0.465490908,high,high,ISIC_7897925.JPG,,ISIC_1897507.JPG,362,FALSE,lh,keypress(e),0,TRUE,1909910.7,1909910.5,1905116.611,1905223,1905132.957,1909820.25,1,40,16,,,
sequence,flow.Sequence,7_15,2023-11-13T15:31:12.618Z,,,,,,,,4777.543,completion,,,,,,,high,high,,,,,FALSE,,,,TRUE,1909910.8,1909910.5,1905116.611,1905222.9,1905132.957,1909820.25,1,40,,,,
trial,html.Screen,7_16_0,2023-11-13T15:31:21.421Z,,2,-0.024601541,0.007189245,,FALSE,hh,8892.95,response,0.389902368,0.55,-0.526508584,0.498710336,0.42585382,-0.465490908,high,high,ISIC_0014133.JPG,,ISIC_0033393.JPG,362,FALSE,lh,keypress(e),0,TRUE,1918713.8,1918713.2,1909803.718,1909910.9,1909820.25,1918627.569,1,40,17,,,
sequence,flow.Sequence,7_16,2023-11-13T15:31:21.421Z,,,,,,,,8892.95,completion,,,,,,,high,high,,,,,FALSE,,,,TRUE,1918714.4,1918713.2,1909803.718,1909910.9,1909820.25,1918627.569,1,40,,,,
trial,html.Screen,7_17_0,2023-11-13T15:31:30.423Z,,2,0.013411804,0.055551189,,,,9024.245,timeout,0.376222496,0.55,-0.476508584,0.519483738,0.457213769,-0.465490908,high,high,ISIC_2228511.JPG,,ISIC_8931948.JPG,367,FALSE,,,0,TRUE,1927715.7,1927715.2,1918611.169,1918714.6,1918627.569,1927651.814,1,40,18,,,
sequence,flow.Sequence,7_17,2023-11-13T15:31:30.423Z,,,,,,,,9087.631,completion,,,,,,,high,high,,,,,FALSE,,,,TRUE,1927716.1,1927715.2,1918611.169,1918714.6,1918627.569,1927651.814,1,40,,,,
trial,html.Screen,7_18_0,2023-11-13T15:31:37.900Z,,2,0.073617867,-0.0029979,,TRUE,lh,7541.286,response,-0.482006861,0.55,-0.476508584,0.571382536,0.457213769,-0.465490908,low,high,ISIC_9745038.JPG,,ISIC_2993032.JPG,304,FALSE,lh,keypress(e),0,TRUE,1935193.6,1935193.1,1927635.281,1927716.4,1927651.814,1935108.171,1,40,19,,,
sequence,flow.Sequence,7_18,2023-11-13T15:31:37.901Z,,,,,,,,7541.286,completion,,,,,,,low,high,,,,,FALSE,,,,TRUE,1935194.2,1935193.1,1927635.281,1927716.3,1927651.814,1935108.171,1,40,,,,
trial,html.Screen,7_19_0,2023-11-13T15:31:41.740Z,,2,-0.036018499,-0.008641342,,FALSE,hl,3924.529,response,0.493198348,0.5,-0.476508584,-0.544721299,0.457213769,-0.465490908,high,low,ISIC_0010767.JPG,,ISIC_0066798.JPG,286,FALSE,lh,keypress(e),0,TRUE,1939033.1,1939032.7,1935091.25,1935194.5,1935108.171,1938944.377,1,40,20,,,
sequence,flow.Sequence,7_19,2023-11-13T15:31:41.741Z,,,,,,,,3924.529,completion,,,,,,,high,low,,,,,FALSE,,,,TRUE,1939033.7,1939032.7,1935091.25,1935194.4,1935108.171,1938944.377,1,40,,,,
trial,html.Screen,7_20_0,2023-11-13T15:31:46.684Z,,2,,-0.059759259,,TRUE,hl,5032.523,response,0.576930409,0.5,-0.476508584,-0.29365128,0.457213769,-0.465490908,high,low,ISIC_0071367.JPG,,ISIC_0001111.JPG,286,FALSE,hl,keypress(j),0,TRUE,1943977.3,1943976.9,1938927.969,1939033.9,1938944.377,1943898.73,1,40,21,,,
sequence,flow.Sequence,7_20,2023-11-13T15:31:46.685Z,,,,,,,,5032.523,completion,,,,,,,high,low,,,,,FALSE,,,,TRUE,1943978,1943976.9,1938927.969,1939033.9,1938944.377,1943898.73,1,40,,,,
trial,html.Screen,7_21_0,2023-11-13T15:31:52.220Z,,2,0.005690837,-0.032777262,,TRUE,lh,5614.07,response,-0.56898213,0.5,-0.476508584,0.27036891,0.457213769,-0.465490908,low,high,ISIC_7897925.JPG,,ISIC_0000483.JPG,304,FALSE,lh,keypress(e),0,TRUE,1949513.3,1949512.8,1943881.957,1943978.2,1943898.73,1949436.991,1,40,22,,,
sequence,flow.Sequence,7_21,2023-11-13T15:31:52.221Z,,,,,,,,5614.07,completion,,,,,,,low,high,,,,,FALSE,,,,TRUE,1949513.8,1949512.8,1943881.957,1943978.2,1943898.73,1949436.991,1,40,,,,
trial,html.Screen,7_22_0,2023-11-13T15:31:57.388Z,,2,-0.041772692,-0.018797017,,FALSE,hl,5243.309,response,0.565157057,0.5,-0.475494496,-0.266195719,0.407213769,-0.465490908,high,low,ISIC_9312164.JPG,,ISIC_5031549.JPG,286,FALSE,lh,keypress(e),0,TRUE,1954680.7,1954680.3,1949402.792,1949514.1,1949436.991,1954590.592,1,40,23,,,
sequence,flow.Sequence,7_22,2023-11-13T15:31:57.388Z,,,,,,,,5243.309,completion,,,,,,,high,low,,,,,FALSE,,,,TRUE,1954681.3,1954680.3,1949402.792,1949514,1949436.991,1954590.592,1,40,,,,
trial,html.Screen,7_23_0,2023-11-13T15:32:04.985Z,,2,-0.019417761,-0.006351521,,FALSE,lh,7687.508,response,-0.32240565,0.5,-0.475494496,0.487693596,0.407213769,-0.465490908,low,high,ISIC_5281908.JPG,,ISIC_0013766.JPG,323,FALSE,hh,keypress(i),0,TRUE,1962278.1,1962278.1,1954573.872,1954681.6,1954590.592,1962196.805,1,40,24,,,
sequence,flow.Sequence,7_23,2023-11-13T15:32:04.985Z,,,,,,,,7687.508,completion,,,,,,,low,high,,,,,FALSE,,,,TRUE,1962278.2,1962278.1,1954573.872,1954681.5,1954590.592,1962196.805,1,40,,,,
trial,html.Screen,7_24_0,2023-11-13T15:32:13.992Z,,2,-0.022677271,0.042079583,,,,9024.536,timeout,0.56441446,0.5,-0.475494496,-0.485865432,0.407213769,-0.465490908,high,low,ISIC_0638857.JPG,,ISIC_9780632.JPG,286,FALSE,,,0,TRUE,1971285.1,1971284.7,1962180.281,1962278.2,1962196.805,1971221.341,1,40,25,,,
sequence,flow.Sequence,7_24,2023-11-13T15:32:13.992Z,,,,,,,,9087.895,completion,,,,,,,high,low,,,,,FALSE,,,,TRUE,1971285.6,1971284.7,1962180.281,1962278.2,1962196.805,1971221.341,1,40,,,,
trial,html.Screen,7_25_0,2023-11-13T15:32:19.564Z,,2,-0.062629641,0.062992658,,FALSE,ll,5635.559,response,-0.62726051,0.5,-0.475494496,-0.388085109,0.407213769,-0.465490908,low,low,ISIC_0027043.JPG,,ISIC_5971574.JPG,477,FALSE,lh,keypress(e),0,TRUE,1976857.5,1976856.9,1971204.679,1971285.8,1971221.341,1976775.626,1,40,26,,,
sequence,flow.Sequence,7_25,2023-11-13T15:32:19.565Z,,,,,,,,5635.559,completion,,,,,,,low,low,,,,,FALSE,,,,TRUE,1976858.1,1976856.9,1971204.679,1971285.8,1971221.341,1976775.626,1,40,,,,
trial,html.Screen,7_26_0,2023-11-13T15:32:25.932Z,,2,0.047524453,-0.005031965,,FALSE,lh,6449.074,response,-0.418438736,0.5,-0.475494496,0.295227426,0.407213769,-0.465490908,low,high,ISIC_0027081.JPG,,ISIC_0063258.JPG,323,FALSE,hh,keypress(i),0,TRUE,1983225.1,1983224.7,1976758.957,1976858.4,1976775.626,1983147.93,1,40,27,,,
sequence,flow.Sequence,7_26,2023-11-13T15:32:25.933Z,,,,,,,,6449.074,completion,,,,,,,low,high,,,,,FALSE,,,,TRUE,1983225.7,1983224.7,1976758.957,1976858.2,1976775.626,1983147.93,1,40,,,,
trial,html.Screen,7_27_0,2023-11-13T15:32:29.691Z,,2,-0.022222353,0.06682017,,TRUE,hh,3836.17,response,0.552595746,0.5,-0.475494496,0.404888027,0.357213769,-0.465490908,high,high,ISIC_8321148.JPG,,ISIC_0055253.JPG,376,FALSE,hh,keypress(i),0,TRUE,1986984.3,1986984.1,1983114.152,1983226,1983147.93,1986900.735,1,40,28,,,
sequence,flow.Sequence,7_27,2023-11-13T15:32:29.691Z,,,,,,,,3836.17,completion,,,,,,,high,high,,,,,FALSE,,,,TRUE,1986984.7,1986984.1,1983114.152,1983226,1983147.93,1986900.735,1,40,,,,
trial,html.Screen,7_28_0,2023-11-13T15:32:38.695Z,,2,-0.074433472,-0.029617995,,,,9024.287,timeout,0.381312968,0.5,-0.475494496,0.471782338,0.357213769,-0.465490908,high,high,ISIC_0026982.JPG,,ISIC_0030077.JPG,376,FALSE,,,0,TRUE,1995988,1995987.8,1986884.039,1986984.7,1986900.735,1995925.022,1,40,29,,,
sequence,flow.Sequence,7_28,2023-11-13T15:32:38.695Z,,,,,,,,9087.065,completion,,,,,,,high,high,,,,,FALSE,,,,TRUE,1995988.1,1995987.8,1986884.039,1986984.7,1986900.735,1995925.022,1,40,,,,
trial,html.Screen,7_29_0,2023-11-13T15:32:43.866Z,,2,0.048276803,-0.074476786,,TRUE,hl,5234.278,response,0.501087304,0.5,-0.475494496,-0.597744844,0.357213769,-0.465490908,high,low,ISIC_0011482.JPG,,ISIC_8630818.JPG,286,FALSE,hl,keypress(j),0,TRUE,2001159.4,2001159.3,1995908.093,1995988.2,1995925.022,2001078.978,1,40,30,,,
sequence,flow.Sequence,7_29,2023-11-13T15:32:43.867Z,,,,,,,,5234.278,completion,,,,,,,high,low,,,,,FALSE,,,,TRUE,2001159.8,2001159.3,1995908.093,1995988.2,1995925.022,2001078.978,1,40,,,,
trial,html.Screen,7_30_0,2023-11-13T15:32:52.874Z,,2,0.032504656,0.001265757,,,,9024.365,timeout,-0.609263874,0.476841525,-0.475494496,-0.586231156,0.357213769,-0.465490908,low,low,ISIC_5682259.JPG,,ISIC_7850786.JPG,477,FALSE,,,0,TRUE,2010167.3,2010166.8,2001062.401,2001159.9,2001078.978,2010103.343,1,40,31,,,
sequence,flow.Sequence,7_30,2023-11-13T15:32:52.875Z,,,,,,,,9087.822,completion,,,,,,,low,low,,,,,FALSE,,,,TRUE,2010167.9,2010166.8,2001062.401,2001159.8,2001078.978,2010103.343,1,40,,,,
trial,html.Screen,7_31_0,2023-11-13T15:32:56.812Z,,2,0.06153559,-0.024524679,,TRUE,lh,4001.357,response,-0.481800012,0.476841525,-0.475494496,0.365426222,0.357213769,-0.465490908,low,high,ISIC_0034144.JPG,,ISIC_0000517.JPG,327,FALSE,lh,keypress(e),0,TRUE,2014105.2,2014104.7,2010086.812,2010168.2,2010103.343,2014023.084,1,40,32,,,
sequence,flow.Sequence,7_31,2023-11-13T15:32:56.813Z,,,,,,,,4001.357,completion,,,,,,,low,high,,,,,FALSE,,,,TRUE,2014105.7,2014104.7,2010086.812,2010168,2010103.343,2014023.084,1,40,,,,
trial,html.Screen,7_32_0,2023-11-13T15:33:03.772Z,,2,0.002181077,0.007767338,,TRUE,lh,7041.416,response,-0.336625607,0.476841525,-0.475494496,0.207308119,0.357213769,-0.465490908,low,high,ISIC_0067621.JPG,,ISIC_6988514.JPG,327,FALSE,lh,keypress(e),0,TRUE,2021064.9,2021064.5,2014006.659,2014106,2014023.084,2020978.794,1,40,33,,,
sequence,flow.Sequence,7_32,2023-11-13T15:33:03.772Z,,,,,,,,7041.416,completion,,,,,,,low,high,,,,,FALSE,,,,TRUE,2021065.4,2021064.5,2014006.659,2014105.9,2014023.084,2020978.794,1,40,,,,
trial,html.Screen,7_33_0,2023-11-13T15:33:08.300Z,,2,0.004521785,-0.068681613,,TRUE,hl,4614.106,response,0.639939404,0.476841525,-0.425494496,-0.371978619,0.357213769,-0.465490908,high,low,ISIC_5707761.JPG,,ISIC_0064033.JPG,293,FALSE,hl,keypress(j),0,TRUE,2025593.3,2025592.9,2020961.993,2021065.6,2020978.794,2025516.548,1,40,34,,,
sequence,flow.Sequence,7_33,2023-11-13T15:33:08.301Z,,,,,,,,4614.106,completion,,,,,,,high,low,,,,,FALSE,,,,TRUE,2025594,2025592.9,2020961.993,2021065.6,2020978.794,2025516.548,1,40,,,,
trial,html.Screen,7_34_0,2023-11-13T15:33:12.668Z,,2,-0.049996355,0.039584906,,FALSE,ll,4443.852,response,-0.447488787,0.476841525,-0.425494496,-0.37626572,0.357213769,-0.415490908,low,low,ISIC_4042619.JPG,,ISIC_4088647.JPG,492,FALSE,hl,keypress(j),0,TRUE,2029960.7,2029960.4,2025482.754,2025594.2,2025516.548,2029869.542,1,40,35,,,
sequence,flow.Sequence,7_34,2023-11-13T15:33:12.668Z,,,,,,,,4443.852,completion,,,,,,,low,low,,,,,FALSE,,,,TRUE,2029961.3,2029960.4,2025482.754,2025594.2,2025516.548,2029869.542,1,40,,,,
trial,html.Screen,7_35_0,2023-11-13T15:33:18.985Z,,2,0.002181077,0.007767338,,FALSE,hh,6408.958,response,0.418784578,0.476841525,-0.475494496,0.456262621,0.357213769,-0.415490908,high,high,ISIC_0067621.JPG,,ISIC_0055450.JPG,380,FALSE,ll,keypress(f),0,TRUE,2036278.5,2036278.5,2029852.997,2029961.5,2029869.542,2036191.4,1,40,36,,,
sequence,flow.Sequence,7_35,2023-11-13T15:33:18.986Z,,,,,,,,6408.958,completion,,,,,,,high,high,,,,,FALSE,,,,TRUE,2036278.6,2036278.5,2029852.997,2029961.5,2029869.542,2036191.4,1,40,,,,
trial,html.Screen,7_36_0,2023-11-13T15:33:22.620Z,,2,-0.037161481,0.016684989,,TRUE,lh,3721.4,response,-0.54708507,0.476841525,-0.475494496,0.301359979,0.407213769,-0.415490908,low,high,ISIC_6231450.JPG,,ISIC_1328488.JPG,323,FALSE,lh,keypress(e),0,TRUE,2039913.3,2039912.8,2036174.784,2036278.7,2036191.4,2039827.757,1,40,37,,,
sequence,flow.Sequence,7_36,2023-11-13T15:33:22.621Z,,,,,,,,3721.4,completion,,,,,,,low,high,,,,,FALSE,,,,TRUE,2039913.9,2039912.8,2036174.784,2036278.7,2036191.4,2039827.757,1,40,,,,
trial,html.Screen,7_37_0,2023-11-13T15:33:27.131Z,,2,0.029247219,0.015898772,,FALSE,hl,4595.743,response,0.534804387,0.476841525,-0.475494496,-0.505841705,0.407213769,-0.415490908,high,low,ISIC_1366765.JPG,,ISIC_0015245.JPG,305,FALSE,ll,keypress(f),0,TRUE,2044423.7,2044423.5,2039810.906,2039914.1,2039827.757,2044331.536,1,40,38,,,
sequence,flow.Sequence,7_37,2023-11-13T15:33:27.131Z,,,,,,,,4595.743,completion,,,,,,,high,low,,,,,FALSE,,,,TRUE,2044423.9,2044423.5,2039810.906,2039914,2039827.757,2044331.536,1,40,,,,
trial,html.Screen,7_38_0,2023-11-13T15:33:34.233Z,,2,-0.064506809,-0.027717858,,FALSE,ll,7194.964,response,-0.419364049,0.476841525,-0.475494496,-0.230594274,0.407213769,-0.365490908,low,low,ISIC_0010807.JPG,,ISIC_8503961.JPG,474,FALSE,hh,keypress(i),0,TRUE,2051526.6,2051526.5,2044314.86,2044424.1,2044331.536,2051437.242,1,40,39,,,
sequence,flow.Sequence,7_38,2023-11-13T15:33:34.234Z,,,,,,,,7194.964,completion,,,,,,,low,low,,,,,FALSE,,,,TRUE,2051526.6,2051526.5,2044314.86,2044424,2044331.536,2051437.242,1,40,,,,
trial,html.Screen,7_39_0,2023-11-13T15:33:40.204Z,,2,-0.069221079,-0.047475574,,FALSE,ll,6059.458,response,-0.50363335,0.476841525,-0.475494496,-0.36126788,0.407213769,-0.415490908,low,low,ISIC_8794567.JPG,,ISIC_8957571.JPG,485,FALSE,hh,keypress(i),0,TRUE,2057497.1,2057496.7,2051420.817,2051526.6,2051437.242,2057409.006,1,40,40,,,
sequence,flow.Sequence,7_39,2023-11-13T15:33:40.205Z,,,,,,,,6059.458,completion,,,,,,,low,low,,,,,FALSE,,,,TRUE,2057497.6,2057496.7,2051420.817,2051526.6,2051437.242,2057409.006,1,40,,,,
stair_loop,flow.Loop,7,2023-11-13T15:33:40.205Z,,,,,,,,224973.85,completion,,,,,,,,,,,,,FALSE,,,,TRUE,2057498,2057496.7,1832506.273,1832614.4,1832522.85,2057409.006,1,40,,,,
exp_instructions,html.Screen,8,2023-11-13T15:33:49.738Z,,,,,,,,9621.794,response,,,,,,,,,,,,,,continue,keypress(Space),,,2067031.3,2067030.8,2057392.133,2057498.2,2057409.006,2066950.423,,,,,,
trial,html.Screen,9_0_0,2023-11-13T15:33:58.752Z,,1,-0.006520985,-0.051435726,,,,9024.219,timeout,0.543827051,0.488420763,-0.470595905,-0.499297577,0.389713769,-0.447990908,high,low,ISIC_0031386.JPG,10,ISIC_0013678.JPG,294,FALSE,,,0,FALSE,2076045.1,2076045,2066933.576,2067031.5,2066950.423,2075974.642,4,800,1,,,
break,html.Screen,9_0_1,2023-11-13T15:33:58.752Z,,,,,,,,NaN,,,,,,,,high,low,,,,,FALSE,,,,FALSE,2076045.6,2076045.5,,2076045.2,,2075974.642,4,800,,,,
break_continue,html.Screen,9_0_2,2023-11-13T15:33:58.753Z,,,,,,,,NaN,,,,,,,,high,low,,,,,FALSE,,,,FALSE,2076045.9,2076045.8,,2076045.7,,2075974.642,4,800,,,,
sequence,flow.Sequence,9_0,2023-11-13T15:33:58.753Z,,,,,,,,9095.377,completion,,,,,,,high,low,,,,,FALSE,,,,FALSE,2076046.1,2076045.8,2066933.576,2067031.4,2066950.423,2075974.642,4,800,,,,
trial,html.Screen,9_1_0,2023-11-13T15:34:02.412Z,,1,-0.062011978,0.04806846,,FALSE,lh,3730.358,response,-0.637414664,0.488420763,-0.470595905,0.511713319,0.389713769,-0.447990908,low,high,ISIC_0645834.JPG,9,ISIC_0061152.JPG,334,FALSE,hl,keypress(j),0,FALSE,2079705.4,2079705,2075957.843,2076046.1,2075974.642,2079644.028,4,800,2,,,
break,html.Screen,9_1_1,2023-11-13T15:34:02.414Z,,,,,,,,NaN,,,,,,,,low,high,,,,,FALSE,,,,FALSE,2079707.2,2079706.6,,2079705.9,,2079644.028,4,800,,,,
break_continue,html.Screen,9_1_2,2023-11-13T15:34:02.415Z,,,,,,,,NaN,,,,,,,,low,high,,,,,FALSE,,,,FALSE,2079708.3,2079707.8,,2079707.5,,2079644.028,4,800,,,,
sequence,flow.Sequence,9_1,2023-11-13T15:34:02.415Z,,,,,,,,3733.158,completion,,,,,,,low,high,,,,,FALSE,,,,FALSE,2079708.6,2079707.8,2075957.843,2076046.1,2075974.642,2079644.028,4,800,,,,
trial,html.Screen,9_2_0,2023-11-13T15:34:09.660Z,,1,0.005690837,-0.032777262,,FALSE,ll,7308.672,response,-0.378606829,0.488420763,-0.470595905,-0.365329814,0.389713769,-0.447990908,low,low,ISIC_7897925.JPG,10,ISIC_6320497.JPG,470,FALSE,hl,keypress(j),0,FALSE,2086953.1,2086952.7,2079627.325,2079708.7,2079644.028,2086866.924,4,800,3,,,
break,html.Screen,9_2_1,2023-11-13T15:34:09.661Z,,,,,,,,NaN,,,,,,,,low,low,,,,,FALSE,,,,FALSE,2086954.7,2086954.2,,2086953.6,,2086866.924,4,800,,,,
break_continue,html.Screen,9_2_2,2023-11-13T15:34:09.663Z,,,,,,,,NaN,,,,,,,,low,low,,,,,FALSE,,,,FALSE,2086955.8,2086955.4,,2086955.1,,2086866.924,4,800,,,,
sequence,flow.Sequence,9_2,2023-11-13T15:34:09.663Z,,,,,,,,7311.372,completion,,,,,,,low,low,,,,,FALSE,,,,FALSE,2086956.2,2086955.4,2079627.325,2079708.6,2079644.028,2086866.924,4,800,,,,
trial,html.Screen,9_3_0,2023-11-13T15:34:16.892Z,,1,0.01748156,0.005067913,,FALSE,ll,7318.276,response,-0.528290425,0.488420763,-0.470595905,-0.506737864,0.389713769,-0.447990908,low,low,ISIC_9848743.JPG,10,ISIC_0591226.JPG,470,FALSE,hh,keypress(i),0,FALSE,2094185.7,2094185.2,2086850.075,2086956.4,2086866.924,2094106.302,4,800,4,,,
break,html.Screen,9_3_1,2023-11-13T15:34:16.894Z,,,,,,,,NaN,,,,,,,,low,low,,,,,FALSE,,,,FALSE,2094187.5,2094186.9,,2094186.2,,2094106.302,4,800,,,,
break_continue,html.Screen,9_3_2,2023-11-13T15:34:16.895Z,,,,,,,,NaN,,,,,,,,low,low,,,,,FALSE,,,,FALSE,2094188.6,2094188.2,,2094187.8,,2094106.302,4,800,,,,
sequence,flow.Sequence,9_3,2023-11-13T15:34:16.896Z,,,,,,,,7321.276,completion,,,,,,,low,low,,,,,FALSE,,,,FALSE,2094189.1,2094188.2,2086850.075,2086956.4,2086866.924,2094106.302,4,800,,,,
trial,html.Screen,9_4_0,2023-11-13T15:34:23.691Z,,1,0.069781088,-0.031188432,,FALSE,ll,6877.598,response,-0.321946568,0.488420763,-0.470595905,-0.604838355,0.389713769,-0.447990908,low,low,ISIC_4870676.JPG,10,ISIC_7562708.JPG,470,FALSE,lh,keypress(e),0,FALSE,2100984.2,2100983.9,2094089.493,2094189.4,2094106.302,2100894.944,4,800,5,,,
break,html.Screen,9_4_1,2023-11-13T15:34:23.692Z,,,,,,,,NaN,,,,,,,,low,low,,,,,FALSE,,,,FALSE,2100985.1,2100984.9,,2100984.5,,2100894.944,4,800,,,,
break_continue,html.Screen,9_4_2,2023-11-13T15:34:23.693Z,,,,,,,,NaN,,,,,,,,low,low,,,,,FALSE,,,,FALSE,2100985.8,2100985.4,,2100985.3,,2100894.944,4,800,,,,
sequence,flow.Sequence,9_4,2023-11-13T15:34:23.693Z,,,,,,,,6879.098,completion,,,,,,,low,low,,,,,FALSE,,,,FALSE,2100985.9,2100985.4,2094089.493,2094189.3,2094106.302,2100894.944,4,800,,,,
trial,html.Screen,9_5_0,2023-11-13T15:34:29.675Z,,1,-0.005813188,0.056002149,,TRUE,lh,6072.956,response,-0.614309853,0.488420763,-0.470595905,0.577886011,0.389713769,-0.447990908,low,high,ISIC_0000077.JPG,9,ISIC_1470934.JPG,334,FALSE,lh,keypress(e),0,FALSE,2106968.1,2106967.9,2100878.309,2100986.1,2100894.944,2106883.239,4,800,6,,,
break,html.Screen,9_5_1,2023-11-13T15:34:29.675Z,,,,,,,,NaN,,,,,,,,low,high,,,,,FALSE,,,,FALSE,2106968.5,2106968.5,,2106968.3,,2106883.239,4,800,,,,
break_continue,html.Screen,9_5_2,2023-11-13T15:34:29.675Z,,,,,,,,NaN,,,,,,,,low,high,,,,,FALSE,,,,FALSE,2106968.7,2106968.6,,2106968.5,,2106883.239,4,800,,,,
sequence,flow.Sequence,9_5,2023-11-13T15:34:29.675Z,,,,,,,,6073.656,completion,,,,,,,low,high,,,,,FALSE,,,,FALSE,2106968.7,2106968.6,2100878.309,2100986.1,2100894.944,2106883.239,4,800,,,,
trial,html.Screen,9_6_0,2023-11-13T15:34:35.723Z,,1,-0.006520985,-0.051435726,,TRUE,ll,6132.961,response,-0.491462914,0.488420763,-0.470595905,-0.470162294,0.389713769,-0.447990908,low,low,ISIC_0031386.JPG,9,ISIC_3926305.JPG,470,FALSE,ll,keypress(f),0,FALSE,2113016.6,2113016.2,2106866.539,2106968.7,2106883.239,2112938.562,4,800,7,,,
break,html.Screen,9_6_1,2023-11-13T15:34:35.724Z,,,,,,,,NaN,,,,,,,,low,low,,,,,FALSE,,,,FALSE,2113017.6,2113017.3,,2113016.9,,2112938.562,4,800,,,,
break_continue,html.Screen,9_6_2,2023-11-13T15:34:35.725Z,,,,,,,,NaN,,,,,,,,low,low,,,,,FALSE,,,,FALSE,2113018.3,2113018,,2113017.8,,2112938.562,4,800,,,,
sequence,flow.Sequence,9_6,2023-11-13T15:34:35.725Z,,,,,,,,6134.761,completion,,,,,,,low,low,,,,,FALSE,,,,FALSE,2113018.4,2113018,2106866.539,2106968.7,2106883.239,2112938.562,4,800,,,,
trial,html.Screen,9_7_0,2023-11-13T15:34:41.818Z,,1,,-0.059759259,,FALSE,hl,6172.638,response,0.36311076,0.488420763,-0.470595905,-0.325651962,0.389713769,-0.447990908,high,low,ISIC_0071367.JPG,10,ISIC_0032615.JPG,294,FALSE,lh,keypress(e),0,FALSE,2119111.3,2119111.2,2112905.142,2113018.7,2112938.562,2119026.773,4,800,8,,,
break,html.Screen,9_7_1,2023-11-13T15:34:41.818Z,,,,,,,,NaN,,,,,,,,high,low,,,,,FALSE,,,,FALSE,2119111.6,2119111.6,,2119111.4,,2119026.773,4,800,,,,
break_continue,html.Screen,9_7_2,2023-11-13T15:34:41.819Z,,,,,,,,NaN,,,,,,,,high,low,,,,,FALSE,,,,FALSE,2119112,2119111.9,,2119111.7,,2119026.773,4,800,,,,
sequence,flow.Sequence,9_7,2023-11-13T15:34:41.819Z,,,,,,,,6173.338,completion,,,,,,,high,low,,,,,FALSE,,,,FALSE,2119112.1,2119111.9,2112905.142,2113018.6,2112938.562,2119026.773,4,800,,,,
trial,html.Screen,9_8_0,2023-11-13T15:34:50.794Z,,1,0.038499682,0.053467626,,TRUE,lh,9060.527,response,-0.661585269,0.488420763,-0.470595905,0.494613632,0.389713769,-0.447990908,low,high,ISIC_0030484.JPG,9,ISIC_6201338.JPG,334,FALSE,lh,keypress(e),0,FALSE,2128087.5,2128087.3,2119009.943,2119112.1,2119026.773,2128017.529,4,800,9,,,
break,html.Screen,9_8_1,2023-11-13T15:34:50.795Z,,,,,,,,NaN,,,,,,,,low,high,,,,,FALSE,,,,FALSE,2128088.1,2128087.9,,2128087.7,,2128017.529,4,800,,,,
break_continue,html.Screen,9_8_2,2023-11-13T15:34:50.795Z,,,,,,,,NaN,,,,,,,,low,high,,,,,FALSE,,,,FALSE,2128088.4,2128088.3,,2128088.2,,2128017.529,4,800,,,,
sequence,flow.Sequence,9_8,2023-11-13T15:34:50.795Z,,,,,,,,9061.527,completion,,,,,,,low,high,,,,,FALSE,,,,FALSE,2128088.6,2128088.3,2119009.943,2119112.1,2119026.773,2128017.529,4,800,,,,
trial,html.Screen,9_9_0,2023-11-13T15:34:59.579Z,,1,0.005510945,-0.072946633,,FALSE,hh,8854.171,response,0.463552271,0.488420763,-0.470595905,0.217278853,0.389713769,-0.447990908,high,high,ISIC_0032597.JPG,17,ISIC_0010869.JPG,381,FALSE,ll,keypress(f),0,FALSE,2136872,2136871.7,2128000.856,2128088.6,2128017.529,2136791.611,4,800,10,,,
break,html.Screen,9_9_1,2023-11-13T15:34:59.579Z,,,,,,,,NaN,,,,,,,,high,high,,,,,FALSE,,,,FALSE,2136872.6,2136872.5,,2136872.1,,2136791.611,4,800,,,,
break_continue,html.Screen,9_9_2,2023-11-13T15:34:59.580Z,,,,,,,,NaN,,,,,,,,high,high,,,,,FALSE,,,,FALSE,2136872.9,2136872.7,,2136872.6,,2136791.611,4,800,,,,
sequence,flow.Sequence,9_9,2023-11-13T15:34:59.580Z,,,,,,,,8855.171,completion,,,,,,,high,high,,,,,FALSE,,,,FALSE,2136873,2136872.7,2128000.856,2128088.6,2128017.529,2136791.611,4,800,,,,
trial,html.Screen,9_10_0,2023-11-13T15:35:06.010Z,,1,-0.024601541,0.007189245,,FALSE,hl,6511.489,response,0.478055923,0.488420763,-0.470595905,-0.463914054,0.389713769,-0.447990908,high,low,ISIC_0014133.JPG,8,ISIC_0941085.JPG,294,FALSE,lh,keypress(e),0,FALSE,2143303.3,2143303.1,2136774.664,2136873.1,2136791.611,2143213.231,4,800,11,,,
break,html.Screen,9_10_1,2023-11-13T15:35:06.010Z,,,,,,,,NaN,,,,,,,,high,low,,,,,FALSE,,,,FALSE,2143303.6,2143303.5,,2143303.4,,2143213.231,4,800,,,,
break_continue,html.Screen,9_10_2,2023-11-13T15:35:06.011Z,,,,,,,,NaN,,,,,,,,high,low,,,,,FALSE,,,,FALSE,2143303.8,2143303.8,,2143303.7,,2143213.231,4,800,,,,
sequence,flow.Sequence,9_10,2023-11-13T15:35:06.011Z,,,,,,,,6512.189,completion,,,,,,,high,low,,,,,FALSE,,,,FALSE,2143304,2143303.8,2136774.664,2136873,2136791.611,2143213.231,4,800,,,,
trial,html.Screen,9_11_0,2023-11-13T15:35:11.164Z,,1,-0.054910357,-0.012736472,,FALSE,hh,5244.069,response,0.476947257,0.488420763,-0.470595905,0.253976697,0.389713769,-0.447990908,high,high,ISIC_0054705.JPG,9,ISIC_0070822.JPG,381,FALSE,hl,keypress(j),0,FALSE,2148457.8,2148457.3,2143196.745,2143304.1,2143213.231,2148367.619,4,800,12,,,
break,html.Screen,9_11_1,2023-11-13T15:35:11.166Z,,,,,,,,NaN,,,,,,,,high,high,,,,,FALSE,,,,FALSE,2148459.5,2148459,,2148458.3,,2148367.619,4,800,,,,
break_continue,html.Screen,9_11_2,2023-11-13T15:35:11.167Z,,,,,,,,NaN,,,,,,,,high,high,,,,,FALSE,,,,FALSE,2148460.6,2148460.2,,2148459.8,,2148367.619,4,800,,,,
sequence,flow.Sequence,9_11,2023-11-13T15:35:11.168Z,,,,,,,,5246.969,completion,,,,,,,high,high,,,,,FALSE,,,,FALSE,2148460.9,2148460.2,2143196.745,2143304,2143213.231,2148367.619,4,800,,,,
trial,html.Screen,9_12_0,2023-11-13T15:35:16.332Z,,1,0.032504656,0.001265757,,FALSE,lh,5257.681,response,-0.399558376,0.488420763,-0.470595905,0.393683754,0.389713769,-0.447990908,low,high,ISIC_5682259.JPG,9,ISIC_9324486.JPG,334,FALSE,ll,keypress(f),0,FALSE,2153625.7,2153625.3,2148351.116,2148461.2,2148367.619,2153538.533,4,800,13,,,
break,html.Screen,9_12_1,2023-11-13T15:35:16.334Z,,,,,,,,NaN,,,,,,,,low,high,,,,,FALSE,,,,FALSE,2153627.2,2153626.8,,2153626.1,,2153538.533,4,800,,,,
break_continue,html.Screen,9_12_2,2023-11-13T15:35:16.335Z,,,,,,,,NaN,,,,,,,,low,high,,,,,FALSE,,,,FALSE,2153628.3,2153627.8,,2153627.4,,2153538.533,4,800,,,,
sequence,flow.Sequence,9_12,2023-11-13T15:35:16.335Z,,,,,,,,5260.181,completion,,,,,,,low,high,,,,,FALSE,,,,FALSE,2153628.5,2153627.8,2148351.116,2148461.1,2148367.619,2153538.533,4,800,,,,
trial,html.Screen,9_13_0,2023-11-13T15:35:25.333Z,,1,0.074578921,-0.019199959,,,,9024.275,timeout,0.358606846,0.488420763,-0.470595905,-0.289182106,0.389713769,-0.447990908,high,low,ISIC_4024062.JPG,9,ISIC_0484171.JPG,294,FALSE,,,0,FALSE,2162626.8,2162626.4,2153522.104,2153628.9,2153538.533,2162562.808,4,800,14,,,
break,html.Screen,9_13_1,2023-11-13T15:35:25.335Z,,,,,,,,NaN,,,,,,,,high,low,,,,,FALSE,,,,FALSE,2162628.1,2162627.9,,2162627.2,,2162562.808,4,800,,,,
break_continue,html.Screen,9_13_2,2023-11-13T15:35:25.336Z,,,,,,,,NaN,,,,,,,,high,low,,,,,FALSE,,,,FALSE,2162629.3,2162628.8,,2162628.5,,2162562.808,4,800,,,,
sequence,flow.Sequence,9_13,2023-11-13T15:35:25.336Z,,,,,,,,9090.267,completion,,,,,,,high,low,,,,,FALSE,,,,FALSE,2162629.7,2162628.8,2153522.104,2153628.8,2153538.533,2162562.808,4,800,,,,
trial,html.Screen,9_14_0,2023-11-13T15:35:32.444Z,,1,-0.020496766,-0.032103964,,FALSE,ll,7173.992,response,-0.272504832,0.488420763,-0.470595905,-0.529023896,0.389713769,-0.447990908,low,low,ISIC_0058063.JPG,8,ISIC_6785041.JPG,470,FALSE,hh,keypress(i),0,FALSE,2169737.3,2169736.8,2162546.258,2162630,2162562.808,2169651.85,4,800,15,,,
break,html.Screen,9_14_1,2023-11-13T15:35:32.445Z,,,,,,,,NaN,,,,,,,,low,low,,,,,FALSE,,,,FALSE,2169738.6,2169738.2,,2169737.7,,2169651.85,4,800,,,,
break_continue,html.Screen,9_14_2,2023-11-13T15:35:32.446Z,,,,,,,,NaN,,,,,,,,low,low,,,,,FALSE,,,,FALSE,2169739.7,2169739.3,,2169739,,2169651.85,4,800,,,,
sequence,flow.Sequence,9_14,2023-11-13T15:35:32.447Z,,,,,,,,7176.492,completion,,,,,,,low,low,,,,,FALSE,,,,FALSE,2169740.1,2169739.3,2162546.258,2162629.9,2162562.808,2169651.85,4,800,,,,
trial,html.Screen,9_15_0,2023-11-13T15:35:38.956Z,,1,0.003962667,0.040352316,,FALSE,ll,6597.45,response,-0.501298169,0.488420763,-0.470595905,-0.543671808,0.389713769,-0.447990908,low,low,ISIC_3018550.JPG,10,ISIC_0064964.JPG,470,FALSE,hl,keypress(j),0,FALSE,2176249.7,2176249.3,2169635.135,2169740.4,2169651.85,2176157.282,4,800,16,,,
break,html.Screen,9_15_1,2023-11-13T15:35:38.958Z,,,,,,,,NaN,,,,,,,,low,low,,,,,FALSE,,,,FALSE,2176251.2,2176250.9,,2176250.2,,2176157.282,4,800,,,,
break_continue,html.Screen,9_15_2,2023-11-13T15:35:38.959Z,,,,,,,,NaN,,,,,,,,low,low,,,,,FALSE,,,,FALSE,2176252.3,2176251.8,,2176251.5,,2176157.282,4,800,,,,
sequence,flow.Sequence,9_15,2023-11-13T15:35:38.959Z,,,,,,,,6599.95,completion,,,,,,,low,low,,,,,FALSE,,,,FALSE,2176252.7,2176251.8,2169635.135,2169740.4,2169651.85,2176157.282,4,800,,,,
trial,html.Screen,9_16_0,2023-11-13T15:35:47.372Z,,1,-0.0185002,0.005791476,,TRUE,lh,8507.618,response,-0.464376207,0.488420763,-0.470595905,0.268127106,0.389713769,-0.447990908,low,high,ISIC_0058723.JPG,9,ISIC_0014221.JPG,334,FALSE,lh,keypress(e),0,FALSE,2184665.2,2184664.9,2176140.628,2176253,2176157.282,2184580.933,4,800,17,,,
break,html.Screen,9_16_1,2023-11-13T15:35:47.373Z,,,,,,,,NaN,,,,,,,,low,high,,,,,FALSE,,,,FALSE,2184666.5,2184666.2,,2184665.6,,2184580.933,4,800,,,,
break_continue,html.Screen,9_16_2,2023-11-13T15:35:47.374Z,,,,,,,,NaN,,,,,,,,low,high,,,,,FALSE,,,,FALSE,2184667.6,2184667.1,,2184666.8,,2184580.933,4,800,,,,
sequence,flow.Sequence,9_16,2023-11-13T15:35:47.374Z,,,,,,,,8509.818,completion,,,,,,,low,high,,,,,FALSE,,,,FALSE,2184667.8,2184667.1,2176140.628,2176252.9,2176157.282,2184580.933,4,800,,,,
trial,html.Screen,9_17_0,2023-11-13T15:35:56.375Z,,1,-0.016267092,-0.036598136,,,,9024.251,timeout,-0.355053667,0.488420763,-0.470595905,-0.305470287,0.389713769,-0.447990908,low,low,ISIC_0982855.JPG,9,ISIC_0031807.JPG,470,FALSE,,,0,FALSE,2193668.5,2193668.1,2184564.417,2184668.1,2184580.933,2193605.184,4,800,18,,,
break,html.Screen,9_17_1,2023-11-13T15:35:56.376Z,,,,,,,,NaN,,,,,,,,low,low,,,,,FALSE,,,,FALSE,2193669.3,2193669.1,,2193668.8,,2193605.184,4,800,,,,
break_continue,html.Screen,9_17_2,2023-11-13T15:35:56.376Z,,,,,,,,NaN,,,,,,,,low,low,,,,,FALSE,,,,FALSE,2193669.9,2193669.7,,2193669.5,,2193605.184,4,800,,,,
sequence,flow.Sequence,9_17,2023-11-13T15:35:56.377Z,,,,,,,,9088.767,completion,,,,,,,low,low,,,,,FALSE,,,,FALSE,2193670,2193669.7,2184564.417,2184668.1,2184580.933,2193605.184,4,800,,,,
trial,html.Screen,9_18_0,2023-11-13T15:36:03.853Z,,1,0.005690837,-0.032777262,,FALSE,hh,7540.716,response,0.582373735,0.488420763,-0.470595905,0.408173185,0.389713769,-0.447990908,high,high,ISIC_7897925.JPG,9,ISIC_0013530.JPG,381,FALSE,ll,keypress(f),0,FALSE,2201146.5,2201145.9,2193588.467,2193670.1,2193605.184,2201061.16,4,800,19,,,
break,html.Screen,9_18_1,2023-11-13T15:36:03.855Z,,,,,,,,NaN,,,,,,,,high,high,,,,,FALSE,,,,FALSE,2201148.2,2201147.8,,2201147.1,,2201061.16,4,800,,,,
break_continue,html.Screen,9_18_2,2023-11-13T15:36:03.856Z,,,,,,,,NaN,,,,,,,,high,high,,,,,FALSE,,,,FALSE,2201149.3,2201148.8,,2201148.5,,2201061.16,4,800,,,,
sequence,flow.Sequence,9_18,2023-11-13T15:36:03.856Z,,,,,,,,7543.616,completion,,,,,,,high,high,,,,,FALSE,,,,FALSE,2201149.6,2201148.8,2193588.467,2193670.1,2193605.184,2201061.16,4,800,,,,
trial,html.Screen,9_19_0,2023-11-13T15:36:10.220Z,,1,0.040474773,-0.00011068,,FALSE,lh,6451.84,response,-0.355565388,0.488420763,-0.470595905,0.387674444,0.389713769,-0.447990908,low,high,ISIC_5706192.JPG,9,ISIC_0010770.JPG,334,FALSE,hh,keypress(i),0,FALSE,2207513.5,2207513,2201044.408,2201149.9,2201061.16,2207433.215,4,800,20,,,
break,html.Screen,9_19_1,2023-11-13T15:36:10.221Z,,,,,,,,NaN,,,,,,,,low,high,,,,,FALSE,,,,FALSE,2207514.7,2207514.4,,2207513.9,,2207433.215,4,800,,,,
break_continue,html.Screen,9_19_2,2023-11-13T15:36:10.222Z,,,,,,,,NaN,,,,,,,,low,high,,,,,FALSE,,,,FALSE,2207515.6,2207515.2,,2207515,,2207433.215,4,800,,,,
sequence,flow.Sequence,9_19,2023-11-13T15:36:10.222Z,,,,,,,,6454.04,completion,,,,,,,low,high,,,,,FALSE,,,,FALSE,2207515.9,2207515.2,2201044.408,2201149.8,2201061.16,2207433.215,4,800,,,,
trial,html.Screen,9_20_0,2023-11-13T15:36:19.227Z,,1,0.038499682,0.053467626,,,,9024.321,timeout,0.594959072,0.488420763,-0.470595905,0.371247981,0.389713769,-0.447990908,high,high,ISIC_0030484.JPG,9,ISIC_0070313.JPG,381,FALSE,,,0,FALSE,2216520.9,2216520.7,2207416.655,2207516.2,2207433.215,2216457.536,4,800,21,,,
break,html.Screen,9_20_1,2023-11-13T15:36:19.228Z,,,,,,,,NaN,,,,,,,,high,high,,,,,FALSE,,,,FALSE,2216521.4,2216521.3,,2216521.1,,2216457.536,4,800,,,,
break_continue,html.Screen,9_20_2,2023-11-13T15:36:19.228Z,,,,,,,,NaN,,,,,,,,high,high,,,,,FALSE,,,,FALSE,2216521.8,2216521.6,,2216521.5,,2216457.536,4,800,,,,
sequence,flow.Sequence,9_20,2023-11-13T15:36:19.228Z,,,,,,,,9088.385,completion,,,,,,,high,high,,,,,FALSE,,,,FALSE,2216521.9,2216521.6,2207416.655,2207516.1,2207433.215,2216457.536,4,800,,,,
trial,html.Screen,9_21_0,2023-11-13T15:36:24.060Z,,1,0.038499682,0.053467626,,FALSE,hh,4895.464,response,0.548279471,0.488420763,-0.470595905,0.206077519,0.389713769,-0.447990908,high,high,ISIC_0030484.JPG,8,ISIC_0054982.JPG,381,FALSE,hl,keypress(j),0,FALSE,2221353.5,2221353,2216440.764,2216522.1,2216457.536,2221261.258,4,800,22,,,
break,html.Screen,9_21_1,2023-11-13T15:36:24.062Z,,,,,,,,NaN,,,,,,,,high,high,,,,,FALSE,,,,FALSE,2221355,2221354.5,,2221353.9,,2221261.258,4,800,,,,
break_continue,html.Screen,9_21_2,2023-11-13T15:36:24.063Z,,,,,,,,NaN,,,,,,,,high,high,,,,,FALSE,,,,FALSE,2221356,2221355.6,,2221355.3,,2221261.258,4,800,,,,
sequence,flow.Sequence,9_21,2023-11-13T15:36:24.063Z,,,,,,,,4898.064,completion,,,,,,,high,high,,,,,FALSE,,,,FALSE,2221356.4,2221355.6,2216440.764,2216522,2216457.536,2221261.258,4,800,,,,
trial,html.Screen,9_22_0,2023-11-13T15:36:33.055Z,,1,0.069743886,0.031029823,,,,9024.348,timeout,-0.47728969,0.488420763,-0.470595905,-0.613539154,0.389713769,-0.447990908,low,low,ISIC_0027669.JPG,9,ISIC_2638895.JPG,470,FALSE,,,0,FALSE,2230348.6,2230348.5,2221244.555,2221356.7,2221261.258,2230285.606,4,800,23,,,
break,html.Screen,9_22_1,2023-11-13T15:36:33.056Z,,,,,,,,NaN,,,,,,,,low,low,,,,,FALSE,,,,FALSE,2230349,2230348.9,,2230348.8,,2230285.606,4,800,,,,
break_continue,html.Screen,9_22_2,2023-11-13T15:36:33.056Z,,,,,,,,NaN,,,,,,,,low,low,,,,,FALSE,,,,FALSE,2230349.6,2230349.3,,2230349.1,,2230285.606,4,800,,,,
sequence,flow.Sequence,9_22,2023-11-13T15:36:33.056Z,,,,,,,,9088.042,completion,,,,,,,low,low,,,,,FALSE,,,,FALSE,2230349.9,2230349.3,2221244.555,2221356.6,2221261.258,2230285.606,4,800,,,,
trial,html.Screen,9_23_0,2023-11-13T15:36:42.080Z,,1,-0.058902374,-0.020712085,,,,9024.159,timeout,0.549469415,0.488420763,-0.470595905,0.546373149,0.389713769,-0.447990908,high,high,ISIC_7973601.JPG,9,ISIC_0031028.JPG,381,FALSE,,,0,FALSE,2239373.5,2239373.1,2230268.689,2230350,2230285.606,2239309.765,4,800,24,,,
break,html.Screen,9_23_1,2023-11-13T15:36:42.081Z,,,,,,,,NaN,,,,,,,,high,high,,,,,FALSE,,,,FALSE,2239374.8,2239374.5,,2239373.9,,2239309.765,4,800,,,,
break_continue,html.Screen,9_23_2,2023-11-13T15:36:42.082Z,,,,,,,,NaN,,,,,,,,high,high,,,,,FALSE,,,,FALSE,2239375.9,2239375.4,,2239375.1,,2239309.765,4,800,,,,
sequence,flow.Sequence,9_23,2023-11-13T15:36:42.083Z,,,,,,,,9089.794,completion,,,,,,,high,high,,,,,FALSE,,,,FALSE,2239376.2,2239375.4,2230268.689,2230350,2230285.606,2239309.765,4,800,,,,
trial,html.Screen,9_24_0,2023-11-13T15:36:47.004Z,,1,0.023131623,-0.050018284,,TRUE,hl,4987.535,response,0.478741178,0.488420763,-0.470595905,-0.585868073,0.389713769,-0.447990908,high,low,ISIC_2246150.JPG,5,ISIC_0055440.JPG,294,FALSE,hl,keypress(j),0,FALSE,2244297.8,2244297.3,2239292.931,2239376.5,2239309.765,2244213.803,4,800,25,,,
break,html.Screen,9_24_1,2023-11-13T15:36:47.006Z,,,,,,,,NaN,,,,,,,,high,low,,,,,FALSE,,,,FALSE,2244299.2,2244298.8,,2244298.2,,2244213.803,4,800,,,,
break_continue,html.Screen,9_24_2,2023-11-13T15:36:47.007Z,,,,,,,,NaN,,,,,,,,high,low,,,,,FALSE,,,,FALSE,2244300.2,2244299.7,,2244299.4,,2244213.803,4,800,,,,
sequence,flow.Sequence,9_24,2023-11-13T15:36:47.007Z,,,,,,,,4989.935,completion,,,,,,,high,low,,,,,FALSE,,,,FALSE,2244300.5,2244299.7,2239292.931,2239376.4,2239309.765,2244213.803,4,800,,,,
trial,html.Screen,9_25_0,2023-11-13T15:36:51.900Z,,1,-0.005813188,0.056002149,,FALSE,hl,4979.297,response,0.301773181,0.488420763,-0.470595905,-0.554166773,0.389713769,-0.447990908,high,low,ISIC_0000077.JPG,9,ISIC_0004691.JPG,294,FALSE,lh,keypress(e),0,FALSE,2249193.5,2249193.1,2244196.984,2244300.7,2244213.803,2249117.882,4,800,26,,,
break,html.Screen,9_25_1,2023-11-13T15:36:51.901Z,,,,,,,,NaN,,,,,,,,high,low,,,,,FALSE,,,,FALSE,2249194.9,2249194.5,,2249193.9,,2249117.882,4,800,,,,
break_continue,html.Screen,9_25_2,2023-11-13T15:36:51.902Z,,,,,,,,NaN,,,,,,,,high,low,,,,,FALSE,,,,FALSE,2249195.7,2249195.3,,2249195.1,,2249117.882,4,800,,,,
sequence,flow.Sequence,9_25,2023-11-13T15:36:51.902Z,,,,,,,,4981.497,completion,,,,,,,high,low,,,,,FALSE,,,,FALSE,2249195.9,2249195.3,2244196.984,2244300.7,2244213.803,2249117.882,4,800,,,,
trial,html.Screen,9_26_0,2023-11-13T15:36:55.659Z,,1,-0.062629641,0.062992658,,FALSE,lh,3834.818,response,-0.596938709,0.488420763,-0.470595905,0.205348359,0.389713769,-0.447990908,low,high,ISIC_0027043.JPG,9,ISIC_6398283.JPG,334,FALSE,hh,keypress(i),0,FALSE,2252953.1,2252952.7,2249100.956,2249196.1,2249117.882,2252870.714,4,800,27,,,
break,html.Screen,9_26_1,2023-11-13T15:36:55.661Z,,,,,,,,NaN,,,,,,,,low,high,,,,,FALSE,,,,FALSE,2252954.2,2252953.9,,2252953.4,,2252870.714,4,800,,,,
break_continue,html.Screen,9_26_2,2023-11-13T15:36:55.661Z,,,,,,,,NaN,,,,,,,,low,high,,,,,FALSE,,,,FALSE,2252955,2252954.7,,2252954.5,,2252870.714,4,800,,,,
sequence,flow.Sequence,9_26,2023-11-13T15:36:55.662Z,,,,,,,,3836.818,completion,,,,,,,low,high,,,,,FALSE,,,,FALSE,2252955.3,2252954.7,2249100.956,2249196,2249117.882,2252870.714,4,800,,,,
trial,html.Screen,9_27_0,2023-11-13T15:37:02.028Z,,1,,-0.059759259,,FALSE,hh,6450.586,response,0.300463683,0.488420763,-0.470595905,0.194108292,0.389713769,-0.447990908,high,high,ISIC_0071367.JPG,9,ISIC_8664315.JPG,381,FALSE,ll,keypress(f),0,FALSE,2259321.7,2259321.3,2252854.22,2252955.5,2252870.714,2259242.671,4,800,28,,,
break,html.Screen,9_27_1,2023-11-13T15:37:02.030Z,,,,,,,,NaN,,,,,,,,high,high,,,,,FALSE,,,,FALSE,2259323.2,2259322.8,,2259322.2,,2259242.671,4,800,,,,
break_continue,html.Screen,9_27_2,2023-11-13T15:37:02.031Z,,,,,,,,NaN,,,,,,,,high,high,,,,,FALSE,,,,FALSE,2259324.3,2259323.8,,2259323.5,,2259242.671,4,800,,,,
sequence,flow.Sequence,9_27,2023-11-13T15:37:02.031Z,,,,,,,,6453.086,completion,,,,,,,high,high,,,,,FALSE,,,,FALSE,2259324.7,2259323.8,2252854.22,2252955.5,2252870.714,2259242.671,4,800,,,,
trial,html.Screen,9_28_0,2023-11-13T15:37:08.891Z,,1,-0.039571353,0.053916918,,TRUE,ll,6941.729,response,-0.337991643,0.488420763,-0.470595905,-0.335820624,0.389713769,-0.447990908,low,low,ISIC_1076091.JPG,8,ISIC_9023152.JPG,470,FALSE,ll,keypress(f),0,FALSE,2266184.7,2266184.4,2259226.181,2259324.9,2259242.671,2266098.284,4,800,29,,,
break,html.Screen,9_28_1,2023-11-13T15:37:08.892Z,,,,,,,,NaN,,,,,,,,low,low,,,,,FALSE,,,,FALSE,2266185.7,2266185.4,,2266185,,2266098.284,4,800,,,,
break_continue,html.Screen,9_28_2,2023-11-13T15:37:08.893Z,,,,,,,,NaN,,,,,,,,low,low,,,,,FALSE,,,,FALSE,2266186.4,2266186.1,,2266185.8,,2266098.284,4,800,,,,
sequence,flow.Sequence,9_28,2023-11-13T15:37:08.893Z,,,,,,,,6943.429,completion,,,,,,,low,low,,,,,FALSE,,,,FALSE,2266186.6,2266186.1,2259226.181,2259324.9,2259242.671,2266098.284,4,800,,,,
trial,html.Screen,9_29_0,2023-11-13T15:37:13.486Z,,1,-0.052390235,-0.019361072,,FALSE,hh,4680.416,response,0.651510791,0.488420763,-0.470595905,0.379848354,0.389713769,-0.447990908,high,high,ISIC_4066726.JPG,9,ISIC_0064014.JPG,381,FALSE,lh,keypress(e),0,FALSE,2270779.2,2270778.7,2266081.844,2266186.8,2266098.284,2270702.674,4,800,30,,,
break,html.Screen,9_29_1,2023-11-13T15:37:13.488Z,,,,,,,,NaN,,,,,,,,high,high,,,,,FALSE,,,,FALSE,2270781.3,2270780.7,,2270779.9,,2270702.674,4,800,,,,
break_continue,html.Screen,9_29_2,2023-11-13T15:37:13.489Z,,,,,,,,NaN,,,,,,,,high,high,,,,,FALSE,,,,FALSE,2270782.6,2270782.1,,2270781.7,,2270702.674,4,800,,,,
sequence,flow.Sequence,9_29,2023-11-13T15:37:13.489Z,,,,,,,,4683.816,completion,,,,,,,high,high,,,,,FALSE,,,,FALSE,2270783,2270782.1,2266081.844,2266186.7,2266098.284,2270702.674,4,800,,,,
trial,html.Screen,9_30_0,2023-11-13T15:37:22.497Z,,1,-0.006520985,-0.051435726,,,,9023.759,timeout,0.332537434,0.488420763,-0.470595905,-0.418535833,0.389713769,-0.447990908,high,low,ISIC_0031386.JPG,10,ISIC_5504560.JPG,294,FALSE,,,0,FALSE,2279790.2,2279789.8,2270668.831,2270783.3,2270702.674,2279726.433,4,800,31,,,
break,html.Screen,9_30_1,2023-11-13T15:37:22.498Z,,,,,,,,NaN,,,,,,,,high,low,,,,,FALSE,,,,FALSE,2279791,2279790.8,,2279790.4,,2279726.433,4,800,,,,
break_continue,html.Screen,9_30_2,2023-11-13T15:37:22.498Z,,,,,,,,NaN,,,,,,,,high,low,,,,,FALSE,,,,FALSE,2279791.6,2279791.4,,2279791.2,,2279726.433,4,800,,,,
sequence,flow.Sequence,9_30,2023-11-13T15:37:22.498Z,,,,,,,,9088.726,completion,,,,,,,high,low,,,,,FALSE,,,,FALSE,2279791.8,2279791.4,2270668.831,2270783.3,2270702.674,2279726.433,4,800,,,,
trial,html.Screen,9_31_0,2023-11-13T15:37:30.765Z,,1,-0.022222353,0.06682017,,FALSE,ll,8331.267,response,-0.437846273,0.488420763,-0.470595905,-0.251148899,0.389713769,-0.447990908,low,low,ISIC_8321148.JPG,9,ISIC_8967786.JPG,470,FALSE,hh,keypress(i),0,FALSE,2288058.1,2288057.7,2279709.848,2279791.9,2279726.433,2287966.435,4,800,32,,,
break,html.Screen,9_31_1,2023-11-13T15:37:30.766Z,,,,,,,,NaN,,,,,,,,low,low,,,,,FALSE,,,,FALSE,2288059.6,2288059.3,,2288058.6,,2287966.435,4,800,,,,
break_continue,html.Screen,9_31_2,2023-11-13T15:37:30.767Z,,,,,,,,NaN,,,,,,,,low,low,,,,,FALSE,,,,FALSE,2288060.7,2288060.3,,2288059.9,,2287966.435,4,800,,,,
sequence,flow.Sequence,9_31,2023-11-13T15:37:30.768Z,,,,,,,,8333.867,completion,,,,,,,low,low,,,,,FALSE,,,,FALSE,2288061.1,2288060.3,2279709.848,2279791.9,2279726.433,2287966.435,4,800,,,,
trial,html.Screen,9_32_0,2023-11-13T15:37:36.044Z,,1,-0.053529654,0.008552098,,TRUE,hl,5370.965,response,0.478055923,0.488420763,-0.470595905,-0.463914054,0.389713769,-0.447990908,high,low,ISIC_0758797.JPG,8,ISIC_0941085.JPG,294,FALSE,hl,keypress(j),0,FALSE,2293337.8,2293337.4,2287949.558,2288061.4,2287966.435,2293254.042,4,800,33,,,
break,html.Screen,9_32_1,2023-11-13T15:37:36.046Z,,,,,,,,NaN,,,,,,,,high,low,,,,,FALSE,,,,FALSE,2293339.5,2293339,,2293338.3,,2293254.042,4,800,,,,
break_continue,html.Screen,9_32_2,2023-11-13T15:37:36.047Z,,,,,,,,NaN,,,,,,,,high,low,,,,,FALSE,,,,FALSE,2293340.6,2293340.2,,2293339.8,,2293254.042,4,800,,,,
sequence,flow.Sequence,9_32,2023-11-13T15:37:36.047Z,,,,,,,,5373.765,completion,,,,,,,high,low,,,,,FALSE,,,,FALSE,2293341,2293340.2,2287949.558,2288061.3,2287966.435,2293254.042,4,800,,,,
trial,html.Screen,9_33_0,2023-11-13T15:37:42.521Z,,1,0.049297905,0.036247274,,TRUE,lh,6560.558,response,-0.375734438,0.488420763,-0.470595905,0.421099851,0.389713769,-0.447990908,low,high,ISIC_5312584.JPG,9,ISIC_6647306.JPG,334,FALSE,lh,keypress(e),0,FALSE,2299814.6,2299814.6,2293237.58,2293341.3,2293254.042,2299725.952,4,800,34,,,
break,html.Screen,9_33_1,2023-11-13T15:37:42.521Z,,,,,,,,NaN,,,,,,,,low,high,,,,,FALSE,,,,FALSE,2299814.8,2299814.8,,2299814.7,,2299725.952,4,800,,,,
break_continue,html.Screen,9_33_2,2023-11-13T15:37:42.521Z,,,,,,,,NaN,,,,,,,,low,high,,,,,FALSE,,,,FALSE,2299815,2299814.9,,2299814.8,,2299725.952,4,800,,,,
sequence,flow.Sequence,9_33,2023-11-13T15:37:42.521Z,,,,,,,,6560.858,completion,,,,,,,low,high,,,,,FALSE,,,,FALSE,2299815,2299814.9,2293237.58,2293341.2,2293254.042,2299725.952,4,800,,,,
trial,html.Screen,9_34_0,2023-11-13T15:37:51.521Z,,1,0.017883272,-0.005104674,,,,9024.463,timeout,0.289319678,0.488420763,-0.470595905,-0.537949198,0.389713769,-0.447990908,high,low,ISIC_9545819.JPG,9,ISIC_0025759.JPG,294,FALSE,,,0,FALSE,2308814.2,2308813.7,2299709.657,2299815,2299725.952,2308750.415,4,800,35,,,
break,html.Screen,9_34_1,2023-11-13T15:37:51.522Z,,,,,,,,NaN,,,,,,,,high,low,,,,,FALSE,,,,FALSE,2308815.5,2308815.2,,2308814.6,,2308750.415,4,800,,,,
break_continue,html.Screen,9_34_2,2023-11-13T15:37:51.523Z,,,,,,,,NaN,,,,,,,,high,low,,,,,FALSE,,,,FALSE,2308816.4,2308816,,2308815.8,,2308750.415,4,800,,,,
sequence,flow.Sequence,9_34,2023-11-13T15:37:51.523Z,,,,,,,,9090.048,completion,,,,,,,high,low,,,,,FALSE,,,,FALSE,2308816.7,2308816,2299709.657,2299815,2299725.952,2308750.415,4,800,,,,
trial,html.Screen,9_35_0,2023-11-13T15:38:00.413Z,,1,0.005690837,-0.032777262,,FALSE,ll,8955.385,response,-0.420484316,0.488420763,-0.470595905,-0.615732973,0.389713769,-0.447990908,low,low,ISIC_7897925.JPG,2,ISIC_2202486.JPG,470,FALSE,lh,keypress(e),0,FALSE,2317706.4,2317705.8,2308733.825,2308817,2308750.415,2317640.894,4,800,36,,,
break,html.Screen,9_35_1,2023-11-13T15:38:00.414Z,,,,,,,,NaN,,,,,,,,low,low,,,,,FALSE,,,,FALSE,2317707.6,2317707.3,,2317706.8,,2317640.894,4,800,,,,
break_continue,html.Screen,9_35_2,2023-11-13T15:38:00.415Z,,,,,,,,NaN,,,,,,,,low,low,,,,,FALSE,,,,FALSE,2317708.3,2317707.9,,2317707.7,,2317640.894,4,800,,,,
sequence,flow.Sequence,9_35,2023-11-13T15:38:00.415Z,,,,,,,,8957.485,completion,,,,,,,low,low,,,,,FALSE,,,,FALSE,2317708.5,2317707.9,2308733.825,2308816.8,2308750.415,2317640.894,4,800,,,,
trial,html.Screen,9_36_0,2023-11-13T15:38:04.825Z,,1,-0.068563375,-0.038044043,,FALSE,hh,4477.506,response,0.50764896,0.488420763,-0.470595905,0.259297887,0.389713769,-0.447990908,high,high,ISIC_0032680.JPG,9,ISIC_5747942.JPG,381,FALSE,ll,keypress(f),0,FALSE,2322118.5,2322118.4,2317624.508,2317708.7,2317640.894,2322027.73,4,800,37,,,
break,html.Screen,9_36_1,2023-11-13T15:38:04.825Z,,,,,,,,NaN,,,,,,,,high,high,,,,,FALSE,,,,FALSE,2322118.8,2322118.7,,2322118.6,,2322027.73,4,800,,,,
break_continue,html.Screen,9_36_2,2023-11-13T15:38:04.825Z,,,,,,,,NaN,,,,,,,,high,high,,,,,FALSE,,,,FALSE,2322118.9,2322118.8,,2322118.8,,2322027.73,4,800,,,,
sequence,flow.Sequence,9_36,2023-11-13T15:38:04.825Z,,,,,,,,4477.906,completion,,,,,,,high,high,,,,,FALSE,,,,FALSE,2322118.9,2322118.8,2317624.508,2317708.6,2317640.894,2322027.73,4,800,,,,
trial,html.Screen,9_37_0,2023-11-13T15:38:10.940Z,,1,0.032829959,0.057231856,,TRUE,ll,6205.67,response,-0.344163868,0.488420763,-0.470595905,-0.31890571,0.389713769,-0.447990908,low,low,ISIC_0397464.JPG,9,ISIC_7227223.JPG,470,FALSE,ll,keypress(f),0,FALSE,2328233.8,2328233.4,2322010.951,2322118.9,2322027.73,2328149.841,4,800,38,,,
break,html.Screen,9_37_1,2023-11-13T15:38:10.942Z,,,,,,,,NaN,,,,,,,,low,low,,,,,FALSE,,,,FALSE,2328235.4,2328234.9,,2328234.3,,2328149.841,4,800,,,,
break_continue,html.Screen,9_37_2,2023-11-13T15:38:10.943Z,,,,,,,,NaN,,,,,,,,low,low,,,,,FALSE,,,,FALSE,2328236.6,2328236,,2328235.8,,2328149.841,4,800,,,,
sequence,flow.Sequence,9_37,2023-11-13T15:38:10.943Z,,,,,,,,6208.27,completion,,,,,,,low,low,,,,,FALSE,,,,FALSE,2328236.9,2328236,2322010.951,2322118.9,2322027.73,2328149.841,4,800,,,,
trial,html.Screen,9_38_0,2023-11-13T15:38:17.293Z,,1,0.002695675,-0.036721843,,FALSE,ll,6435.959,response,-0.296829951,0.488420763,-0.470595905,-0.420287881,0.389713769,-0.447990908,low,low,ISIC_7212271.JPG,8,ISIC_9011718.JPG,470,FALSE,lh,keypress(e),0,FALSE,2334586.2,2334585.8,2328133.222,2328237.2,2328149.841,2334505.187,4,800,39,,,
break,html.Screen,9_38_1,2023-11-13T15:38:17.294Z,,,,,,,,NaN,,,,,,,,low,low,,,,,FALSE,,,,FALSE,2334587.9,2334587.4,,2334586.8,,2334505.187,4,800,,,,
break_continue,html.Screen,9_38_2,2023-11-13T15:38:17.295Z,,,,,,,,NaN,,,,,,,,low,low,,,,,FALSE,,,,FALSE,2334589,2334588.5,,2334588.2,,2334505.187,4,800,,,,
sequence,flow.Sequence,9_38,2023-11-13T15:38:17.296Z,,,,,,,,6438.659,completion,,,,,,,low,low,,,,,FALSE,,,,FALSE,2334589.4,2334588.5,2328133.222,2328237.1,2328149.841,2334505.187,4,800,,,,
trial,html.Screen,9_39_0,2023-11-13T15:38:24.748Z,,1,0.008777453,0.011855531,,FALSE,lh,7535.913,response,-0.624796412,0.488420763,-0.470595905,0.560611703,0.389713769,-0.447990908,low,high,ISIC_6488658.JPG,8,ISIC_8348712.JPG,334,FALSE,ll,keypress(f),0,FALSE,2342041.5,2342041.1,2334488.393,2334589.7,2334505.187,2341961.249,4,800,40,,,
break,html.Screen,9_39_1,2023-11-13T15:38:24.749Z,,,,,,,,NaN,,,,,,,,low,high,,,,,FALSE,,,,FALSE,2342042.8,2342042.4,,2342041.8,,2341961.249,4,800,,,,
break_continue,html.Screen,9_39_2,2023-11-13T15:38:24.750Z,,,,,,,,NaN,,,,,,,,low,high,,,,,FALSE,,,,FALSE,2342043.8,2342043.4,,2342043.1,,2341961.249,4,800,,,,
sequence,flow.Sequence,9_39,2023-11-13T15:38:24.750Z,,,,,,,,7538.213,completion,,,,,,,low,high,,,,,FALSE,,,,FALSE,2342044.1,2342043.4,2334488.393,2334589.6,2334505.187,2341961.249,4,800,,,,
trial,html.Screen,9_40_0,2023-11-13T15:38:29.740Z,,1,-0.022677271,0.042079583,,FALSE,hh,5071.951,response,0.377930357,0.488420763,-0.470595905,0.211711547,0.389713769,-0.447990908,high,high,ISIC_0638857.JPG,9,ISIC_2153686.JPG,381,FALSE,hl,keypress(j),0,FALSE,2347033.6,2347033.2,2341944.466,2342044.3,2341961.249,2346948.511,4,800,41,,,
break,html.Screen,9_40_1,2023-11-13T15:38:29.741Z,,,,,,,,NaN,,,,,,,,high,high,,,,,FALSE,,,,FALSE,2347034.9,2347034.5,,2347034,,2346948.511,4,800,,,,
break_continue,html.Screen,9_40_2,2023-11-13T15:38:29.742Z,,,,,,,,NaN,,,,,,,,high,high,,,,,FALSE,,,,FALSE,2347035.9,2347035.5,,2347035.2,,2346948.511,4,800,,,,
sequence,flow.Sequence,9_40,2023-11-13T15:38:29.742Z,,,,,,,,5074.251,completion,,,,,,,high,high,,,,,FALSE,,,,FALSE,2347036.1,2347035.5,2341944.466,2342044.2,2341961.249,2346948.511,4,800,,,,
trial,html.Screen,9_41_0,2023-11-13T15:38:38.742Z,,1,0.047524453,-0.005031965,,,,9024.033,timeout,0.566711942,0.488420763,-0.470595905,0.515337089,0.389713769,-0.447990908,high,high,ISIC_0027081.JPG,10,ISIC_8007849.JPG,381,FALSE,,,0,FALSE,2356035.5,2356035.5,2346931.859,2347036.3,2346948.511,2355972.544,4,800,42,,,
break,html.Screen,9_41_1,2023-11-13T15:38:38.742Z,,,,,,,,NaN,,,,,,,,high,high,,,,,FALSE,,,,FALSE,2356035.9,2356035.8,,2356035.7,,2355972.544,4,800,,,,
break_continue,html.Screen,9_41_2,2023-11-13T15:38:38.743Z,,,,,,,,NaN,,,,,,,,high,high,,,,,FALSE,,,,FALSE,2356036.2,2356036.1,,2356036.1,,2355972.544,4,800,,,,
sequence,flow.Sequence,9_41,2023-11-13T15:38:38.743Z,,,,,,,,9087.589,completion,,,,,,,high,high,,,,,FALSE,,,,FALSE,2356036.3,2356036.1,2346931.859,2347036.3,2346948.511,2355972.544,4,800,,,,
trial,html.Screen,9_42_0,2023-11-13T15:38:47.766Z,,1,0.06153559,-0.024524679,,,,9024.107,timeout,-0.497141725,0.488420763,-0.470595905,-0.455424704,0.389713769,-0.447990908,low,low,ISIC_0034144.JPG,9,ISIC_0361149.JPG,470,FALSE,,,0,FALSE,2365059.8,2365059.7,2355956.027,2356036.4,2355972.544,2364996.651,4,800,43,,,
break,html.Screen,9_42_1,2023-11-13T15:38:47.766Z,,,,,,,,NaN,,,,,,,,low,low,,,,,FALSE,,,,FALSE,2365060.1,2365060,,2365059.9,,2364996.651,4,800,,,,
break_continue,html.Screen,9_42_2,2023-11-13T15:38:47.767Z,,,,,,,,NaN,,,,,,,,low,low,,,,,FALSE,,,,FALSE,2365060.3,2365060.3,,2365060.2,,2364996.651,4,800,,,,
sequence,flow.Sequence,9_42,2023-11-13T15:38:47.767Z,,,,,,,,9087.756,completion,,,,,,,low,low,,,,,FALSE,,,,FALSE,2365060.5,2365060.3,2355956.027,2356036.3,2355972.544,2364996.651,4,800,,,,
trial,html.Screen,9_43_0,2023-11-13T15:38:55.769Z,,1,-0.022677271,0.042079583,,FALSE,hl,8066.249,response,0.491216703,0.488420763,-0.470595905,-0.283559631,0.389713769,-0.447990908,high,low,ISIC_0638857.JPG,10,ISIC_7621389.JPG,294,FALSE,hh,keypress(i),0,FALSE,2373062.9,2373062.9,2364980.015,2365060.6,2364996.651,2372969.856,4,800,44,,,
break,html.Screen,9_43_1,2023-11-13T15:38:55.770Z,,,,,,,,NaN,,,,,,,,high,low,,,,,FALSE,,,,FALSE,2373063.2,2373063.1,,2373063.1,,2372969.856,4,800,,,,
break_continue,html.Screen,9_43_2,2023-11-13T15:38:55.770Z,,,,,,,,NaN,,,,,,,,high,low,,,,,FALSE,,,,FALSE,2373063.4,2373063.3,,2373063.3,,2372969.856,4,800,,,,
sequence,flow.Sequence,9_43,2023-11-13T15:38:55.770Z,,,,,,,,8066.649,completion,,,,,,,high,low,,,,,FALSE,,,,FALSE,2373063.4,2373063.3,2364980.015,2365060.6,2364996.651,2372969.856,4,800,,,,
trial,html.Screen,9_44_0,2023-11-13T15:39:03.052Z,,1,-0.062629641,0.062992658,,FALSE,ll,7375.644,response,-0.64867934,0.488420763,-0.470595905,-0.583546012,0.389713769,-0.447990908,low,low,ISIC_0027043.JPG,10,ISIC_4074537.JPG,470,FALSE,hl,keypress(j),0,FALSE,2380346,2380345.5,2372953.382,2373063.4,2372969.856,2380259.358,4,800,45,,,
break,html.Screen,9_44_1,2023-11-13T15:39:03.054Z,,,,,,,,NaN,,,,,,,,low,low,,,,,FALSE,,,,FALSE,2380347.4,2380347,,2380346.4,,2380259.358,4,800,,,,
break_continue,html.Screen,9_44_2,2023-11-13T15:39:03.055Z,,,,,,,,NaN,,,,,,,,low,low,,,,,FALSE,,,,FALSE,2380348.4,2380348,,2380347.7,,2380259.358,4,800,,,,
sequence,flow.Sequence,9_44,2023-11-13T15:39:03.055Z,,,,,,,,7378.144,completion,,,,,,,low,low,,,,,FALSE,,,,FALSE,2380348.7,2380348,2372953.382,2373063.4,2372969.856,2380259.358,4,800,,,,
trial,html.Screen,9_45_0,2023-11-13T15:39:12.054Z,,1,-0.0185002,0.005791476,,,,9024.471,timeout,0.544351867,0.488420763,-0.470595905,-0.524268201,0.389713769,-0.447990908,high,low,ISIC_0058723.JPG,9,ISIC_8027899.JPG,294,FALSE,,,0,FALSE,2389347.6,2389347.1,2380242.516,2380349,2380259.358,2389283.829,4,800,46,,,
break,html.Screen,9_45_1,2023-11-13T15:39:12.055Z,,,,,,,,NaN,,,,,,,,high,low,,,,,FALSE,,,,FALSE,2389349,2389348.6,,2389348.1,,2389283.829,4,800,,,,
break_continue,html.Screen,9_45_2,2023-11-13T15:39:12.056Z,,,,,,,,NaN,,,,,,,,high,low,,,,,FALSE,,,,FALSE,2389349.9,2389349.5,,2389349.3,,2389283.829,4,800,,,,
sequence,flow.Sequence,9_45,2023-11-13T15:39:12.057Z,,,,,,,,9090.142,completion,,,,,,,high,low,,,,,FALSE,,,,FALSE,2389350.2,2389349.5,2380242.516,2380349,2380259.358,2389283.829,4,800,,,,
trial,html.Screen,9_46_0,2023-11-13T15:39:16.604Z,,1,0.002181077,0.007767338,,FALSE,hh,4613.771,response,0.609343848,0.488420763,-0.470595905,0.331788698,0.389713769,-0.447990908,high,high,ISIC_0067621.JPG,8,ISIC_0059855.JPG,381,FALSE,hl,keypress(j),0,FALSE,2393898,2393897.6,2389267.119,2389350.6,2389283.829,2393803.97,4,800,47,,,
break,html.Screen,9_46_1,2023-11-13T15:39:16.606Z,,,,,,,,NaN,,,,,,,,high,high,,,,,FALSE,,,,FALSE,2393899.5,2393899.2,,2393898.4,,2393803.97,4,800,,,,
break_continue,html.Screen,9_46_2,2023-11-13T15:39:16.607Z,,,,,,,,NaN,,,,,,,,high,high,,,,,FALSE,,,,FALSE,2393900.7,2393900.1,,2393899.8,,2393803.97,4,800,,,,
sequence,flow.Sequence,9_46,2023-11-13T15:39:16.607Z,,,,,,,,4616.271,completion,,,,,,,high,high,,,,,FALSE,,,,FALSE,2393901,2393900.1,2389267.119,2389350.4,2389283.829,2393803.97,4,800,,,,
trial,html.Screen,9_47_0,2023-11-13T15:39:21.580Z,,1,-0.039571353,0.053916918,,FALSE,hl,5069.53,response,0.307398229,0.488420763,-0.470595905,-0.352769389,0.389713769,-0.447990908,high,low,ISIC_1076091.JPG,10,ISIC_6201199.JPG,294,FALSE,hh,keypress(i),0,FALSE,2398873.9,2398873.5,2393787.254,2393901.2,2393803.97,2398791.499,4,800,48,,,
break,html.Screen,9_47_1,2023-11-13T15:39:21.582Z,,,,,,,,NaN,,,,,,,,high,low,,,,,FALSE,,,,FALSE,2398875.4,2398875,,2398874.4,,2398791.499,4,800,,,,
break_continue,html.Screen,9_47_2,2023-11-13T15:39:21.583Z,,,,,,,,NaN,,,,,,,,high,low,,,,,FALSE,,,,FALSE,2398876.4,2398876,,2398875.7,,2398791.499,4,800,,,,
sequence,flow.Sequence,9_47,2023-11-13T15:39:21.583Z,,,,,,,,5072.03,completion,,,,,,,high,low,,,,,FALSE,,,,FALSE,2398876.7,2398876,2393787.254,2393901.2,2393803.97,2398791.499,4,800,,,,
trial,html.Screen,9_48_0,2023-11-13T15:39:26.124Z,,1,0.069781088,-0.031188432,,FALSE,hl,4625.701,response,0.684790594,0.488420763,-0.470595905,-0.460012516,0.389713769,-0.447990908,high,low,ISIC_4870676.JPG,9,ISIC_0070860.JPG,294,FALSE,lh,keypress(e),0,FALSE,2403417.6,2403417.2,2398774.909,2398877,2398791.499,2403328.504,4,800,49,,,
break,html.Screen,9_48_1,2023-11-13T15:39:26.125Z,,,,,,,,NaN,,,,,,,,high,low,,,,,FALSE,,,,FALSE,2403419,2403418.6,,2403418,,2403328.504,4,800,,,,
break_continue,html.Screen,9_48_2,2023-11-13T15:39:26.126Z,,,,,,,,NaN,,,,,,,,high,low,,,,,FALSE,,,,FALSE,2403419.9,2403419.6,,2403419.3,,2403328.504,4,800,,,,
sequence,flow.Sequence,9_48,2023-11-13T15:39:26.127Z,,,,,,,,4628.101,completion,,,,,,,high,low,,,,,FALSE,,,,FALSE,2403420.3,2403419.6,2398774.909,2398876.9,2398791.499,2403328.504,4,800,,,,
trial,html.Screen,9_49_0,2023-11-13T15:39:30.316Z,,1,0.029247219,0.015898772,,FALSE,hl,4280.996,response,0.393735912,0.488420763,-0.470595905,-0.264891774,0.389713769,-0.447990908,high,low,ISIC_1366765.JPG,9,ISIC_9407667.JPG,294,FALSE,lh,keypress(e),0,FALSE,2407609.9,2407609.5,2403311.982,2403420.6,2403328.504,2407532.205,4,800,50,,,
break,html.Screen,9_49_1,2023-11-13T15:39:30.317Z,,,,,,,,NaN,,,,,,,,high,low,,,,,FALSE,,,,FALSE,2407611.2,2407610.7,,2407610.2,,2407532.205,4,800,,,,
break_continue,html.Screen,9_49_2,2023-11-13T15:39:30.318Z,,,,,,,,NaN,,,,,,,,high,low,,,,,FALSE,,,,FALSE,2407612.1,2407611.7,,2407611.4,,2407532.205,4,800,,,,
sequence,flow.Sequence,9_49,2023-11-13T15:39:30.319Z,,,,,,,,4283.196,completion,,,,,,,high,low,,,,,FALSE,,,,FALSE,2407612.3,2407611.7,2403311.982,2403420.5,2403328.504,2407532.205,4,800,,,,
trial,html.Screen,9_50_0,2023-11-13T15:39:35.132Z,,1,0.013411804,0.055551189,,FALSE,ll,4893.295,response,-0.508130621,0.488420763,-0.470595905,-0.506766458,0.389713769,-0.447990908,low,low,ISIC_2228511.JPG,9,ISIC_1727826.JPG,470,FALSE,lh,keypress(e),0,FALSE,2412426,2412425.5,2407498.642,2407612.6,2407532.205,2412335.932,4,800,51,,,
break,html.Screen,9_50_1,2023-11-13T15:39:35.134Z,,,,,,,,NaN,,,,,,,,low,low,,,,,FALSE,,,,FALSE,2412427.6,2412427.1,,2412426.4,,2412335.932,4,800,,,,
break_continue,html.Screen,9_50_2,2023-11-13T15:39:35.135Z,,,,,,,,NaN,,,,,,,,low,low,,,,,FALSE,,,,FALSE,2412428.8,2412428.3,,2412427.9,,2412335.932,4,800,,,,
sequence,flow.Sequence,9_50,2023-11-13T15:39:35.136Z,,,,,,,,4896.095,completion,,,,,,,low,low,,,,,FALSE,,,,FALSE,2412429.2,2412428.3,2407498.642,2407612.5,2407532.205,2412335.932,4,800,,,,
trial,html.Screen,9_51_0,2023-11-13T15:39:43.037Z,,1,0.023131623,-0.050018284,,FALSE,hh,7993.868,response,0.33131353,0.488420763,-0.470595905,0.476863319,0.389713769,-0.447990908,high,high,ISIC_2246150.JPG,10,ISIC_0069385.JPG,381,FALSE,lh,keypress(e),0,FALSE,2420330.2,2420329.8,2412319.45,2412429.6,2412335.932,2420242.507,4,800,52,,,
break,html.Screen,9_51_1,2023-11-13T15:39:43.038Z,,,,,,,,NaN,,,,,,,,high,high,,,,,FALSE,,,,FALSE,2420331.4,2420331.1,,2420330.6,,2420242.507,4,800,,,,
break_continue,html.Screen,9_51_2,2023-11-13T15:39:43.039Z,,,,,,,,NaN,,,,,,,,high,high,,,,,FALSE,,,,FALSE,2420332.3,2420332,,2420331.7,,2420242.507,4,800,,,,
sequence,flow.Sequence,9_51,2023-11-13T15:39:43.039Z,,,,,,,,7996.068,completion,,,,,,,high,high,,,,,FALSE,,,,FALSE,2420332.6,2420332,2412319.45,2412429.4,2412335.932,2420242.507,4,800,,,,
trial,html.Screen,9_52_0,2023-11-13T15:39:49.244Z,,1,-0.031248688,-0.019989769,,TRUE,ll,6295.093,response,-0.578876586,0.488420763,-0.470595905,-0.363331238,0.389713769,-0.447990908,low,low,ISIC_5482426.JPG,9,ISIC_0030085.JPG,470,FALSE,ll,keypress(f),0,FALSE,2426538,2426537.6,2420225.969,2420332.9,2420242.507,2426447.659,4,800,53,,,
break,html.Screen,9_52_1,2023-11-13T15:39:49.246Z,,,,,,,,NaN,,,,,,,,low,low,,,,,FALSE,,,,FALSE,2426539.6,2426539.1,,2426538.5,,2426447.659,4,800,,,,
break_continue,html.Screen,9_52_2,2023-11-13T15:39:49.247Z,,,,,,,,NaN,,,,,,,,low,low,,,,,FALSE,,,,FALSE,2426540.7,2426540.3,,2426539.9,,2426447.659,4,800,,,,
sequence,flow.Sequence,9_52,2023-11-13T15:39:49.247Z,,,,,,,,6297.793,completion,,,,,,,low,low,,,,,FALSE,,,,FALSE,2426541,2426540.3,2420225.969,2420332.7,2420242.507,2426447.659,4,800,,,,
trial,html.Screen,9_53_0,2023-11-13T15:39:54.205Z,,1,-0.064506809,-0.027717858,,FALSE,hh,5050.341,response,0.296131698,0.488420763,-0.470595905,0.434978266,0.389713769,-0.447990908,high,high,ISIC_0010807.JPG,10,ISIC_2151178.JPG,381,FALSE,lh,keypress(e),0,FALSE,2431498.4,2431498,2426430.831,2426541.3,2426447.659,2431418.668,4,800,54,,,
break,html.Screen,9_53_1,2023-11-13T15:39:54.206Z,,,,,,,,NaN,,,,,,,,high,high,,,,,FALSE,,,,FALSE,2431499.8,2431499.4,,2431498.9,,2431418.668,4,800,,,,
break_continue,html.Screen,9_53_2,2023-11-13T15:39:54.207Z,,,,,,,,NaN,,,,,,,,high,high,,,,,FALSE,,,,FALSE,2431500.8,2431500.5,,2431500.1,,2431418.668,4,800,,,,
sequence,flow.Sequence,9_53,2023-11-13T15:39:54.207Z,,,,,,,,5052.841,completion,,,,,,,high,high,,,,,FALSE,,,,FALSE,2431501.3,2431500.5,2426430.831,2426541.3,2426447.659,2431418.668,4,800,,,,
trial,html.Screen,9_54_0,2023-11-13T15:39:58.156Z,,1,-0.005813188,0.056002149,,FALSE,hh,4031.232,response,0.559425474,0.488420763,-0.470595905,0.343332268,0.389713769,-0.447990908,high,high,ISIC_0000077.JPG,9,ISIC_0034253.JPG,381,FALSE,lh,keypress(e),0,FALSE,2435450.3,2435449.9,2431401.93,2431501.3,2431418.668,2435371.93,4,800,55,,,
break,html.Screen,9_54_1,2023-11-13T15:39:58.158Z,,,,,,,,NaN,,,,,,,,high,high,,,,,FALSE,,,,FALSE,2435451.7,2435451.3,,2435450.7,,2435371.93,4,800,,,,
break_continue,html.Screen,9_54_2,2023-11-13T15:39:58.159Z,,,,,,,,NaN,,,,,,,,high,high,,,,,FALSE,,,,FALSE,2435452.7,2435452.3,,2435452,,2435371.93,4,800,,,,
sequence,flow.Sequence,9_54,2023-11-13T15:39:58.159Z,,,,,,,,4033.632,completion,,,,,,,high,high,,,,,FALSE,,,,FALSE,2435453,2435452.3,2431401.93,2431501.3,2431418.668,2435371.93,4,800,,,,
trial,html.Screen,9_55_0,2023-11-13T15:40:07.166Z,,1,-0.023387178,0.040260608,,,,9023.893,timeout,-0.495705406,0.488420763,-0.470595905,0.509102268,0.389713769,-0.447990908,low,high,ISIC_0024401.JPG,9,ISIC_5932383.JPG,334,FALSE,,,0,FALSE,2444459.7,2444459.2,2435355.165,2435453.2,2435371.93,2444395.823,4,800,56,,,
break,html.Screen,9_55_1,2023-11-13T15:40:07.167Z,,,,,,,,NaN,,,,,,,,low,high,,,,,FALSE,,,,FALSE,2444461.1,2444460.7,,2444460.2,,2444395.823,4,800,,,,
break_continue,html.Screen,9_55_2,2023-11-13T15:40:07.168Z,,,,,,,,NaN,,,,,,,,low,high,,,,,FALSE,,,,FALSE,2444462,2444461.6,,2444461.4,,2444395.823,4,800,,,,
sequence,flow.Sequence,9_55,2023-11-13T15:40:07.169Z,,,,,,,,9089.67,completion,,,,,,,low,high,,,,,FALSE,,,,FALSE,2444462.4,2444461.6,2435355.165,2435453.1,2435371.93,2444395.823,4,800,,,,
trial,html.Screen,9_56_0,2023-11-13T15:40:15.465Z,,1,0.017775179,0.039938182,,TRUE,lh,8363.177,response,-0.531020876,0.488420763,-0.470595905,0.520945386,0.389713769,-0.447990908,low,high,ISIC_3981425.JPG,10,ISIC_0031079.JPG,334,FALSE,lh,keypress(e),0,FALSE,2452759.1,2452759,2444379.157,2444462.7,2444395.823,2452669.268,4,800,57,,,
break,html.Screen,9_56_1,2023-11-13T15:40:15.466Z,,,,,,,,NaN,,,,,,,,low,high,,,,,FALSE,,,,FALSE,2452759.5,2452759.4,,2452759.3,,2452669.268,4,800,,,,
break_continue,html.Screen,9_56_2,2023-11-13T15:40:15.466Z,,,,,,,,NaN,,,,,,,,low,high,,,,,FALSE,,,,FALSE,2452759.7,2452759.6,,2452759.6,,2452669.268,4,800,,,,
sequence,flow.Sequence,9_56,2023-11-13T15:40:15.466Z,,,,,,,,8363.777,completion,,,,,,,low,high,,,,,FALSE,,,,FALSE,2452759.8,2452759.6,2444379.157,2444462.6,2444395.823,2452669.268,4,800,,,,
trial,html.Screen,9_57_0,2023-11-13T15:40:20.428Z,,1,-0.023387178,0.040260608,,FALSE,hh,5052.032,response,0.42258651,0.488420763,-0.470595905,0.268013161,0.389713769,-0.447990908,high,high,ISIC_0024401.JPG,8,ISIC_0024313.JPG,381,FALSE,hl,keypress(j),0,FALSE,2457721.7,2457721.3,2452652.296,2452759.9,2452669.268,2457640.092,4,800,58,,,
break,html.Screen,9_57_1,2023-11-13T15:40:20.429Z,,,,,,,,NaN,,,,,,,,high,high,,,,,FALSE,,,,FALSE,2457723.1,2457722.6,,2457722.2,,2457640.092,4,800,,,,
break_continue,html.Screen,9_57_2,2023-11-13T15:40:20.430Z,,,,,,,,NaN,,,,,,,,high,high,,,,,FALSE,,,,FALSE,2457724.2,2457723.8,,2457723.5,,2457640.092,4,800,,,,
sequence,flow.Sequence,9_57,2023-11-13T15:40:20.431Z,,,,,,,,5054.532,completion,,,,,,,high,high,,,,,FALSE,,,,FALSE,2457724.4,2457723.8,2452652.296,2452759.9,2452669.268,2457640.092,4,800,,,,
trial,html.Screen,9_58_0,2023-11-13T15:40:24.940Z,,1,-0.004009645,0.012810674,,FALSE,hl,4593.608,response,0.627961455,0.488420763,-0.470595905,-0.416780076,0.389713769,-0.447990908,high,low,ISIC_0064656.JPG,9,ISIC_4453506.JPG,294,FALSE,hh,keypress(i),0,FALSE,2462234.1,2462233.7,2457623.371,2457724.7,2457640.092,2462143.831,4,800,59,,,
break,html.Screen,9_58_1,2023-11-13T15:40:24.942Z,,,,,,,,NaN,,,,,,,,high,low,,,,,FALSE,,,,FALSE,2462235.9,2462235.3,,2462234.6,,2462143.831,4,800,,,,
break_continue,html.Screen,9_58_2,2023-11-13T15:40:24.943Z,,,,,,,,NaN,,,,,,,,high,low,,,,,FALSE,,,,FALSE,2462237,2462236.5,,2462236.2,,2462143.831,4,800,,,,
sequence,flow.Sequence,9_58,2023-11-13T15:40:24.944Z,,,,,,,,4596.408,completion,,,,,,,high,low,,,,,FALSE,,,,FALSE,2462237.4,2462236.5,2457623.371,2457724.6,2457640.092,2462143.831,4,800,,,,
trial,html.Screen,9_59_0,2023-11-13T15:40:33.938Z,,1,0.005690837,-0.032777262,,,,9024.075,timeout,-0.445924983,0.488420763,-0.470595905,0.388456235,0.389713769,-0.447990908,low,high,ISIC_7897925.JPG,8,ISIC_6761269.JPG,334,FALSE,,,0,FALSE,2471232,2471231.7,2462127.242,2462237.6,2462143.831,2471167.906,4,800,60,,,
break,html.Screen,9_59_1,2023-11-13T15:40:33.939Z,,,,,,,,NaN,,,,,,,,low,high,,,,,FALSE,,,,FALSE,2471233.2,2471232.9,,2471232.7,,2471167.906,4,800,,,,
break_continue,html.Screen,9_59_2,2023-11-13T15:40:33.940Z,,,,,,,,NaN,,,,,,,,low,high,,,,,FALSE,,,,FALSE,2471233.8,2471233.6,,2471233.4,,2471167.906,4,800,,,,
sequence,flow.Sequence,9_59,2023-11-13T15:40:33.940Z,,,,,,,,9089.769,completion,,,,,,,low,high,,,,,FALSE,,,,FALSE,2471234,2471233.6,2462127.242,2462237.5,2462143.831,2471167.906,4,800,,,,
trial,html.Screen,9_60_0,2023-11-13T15:40:39.420Z,,1,0.016661785,0.03506975,,TRUE,hh,5545.594,response,0.409100269,0.488420763,-0.470595905,0.410084933,0.389713769,-0.447990908,high,high,ISIC_0024423.JPG,9,ISIC_0067830.JPG,381,FALSE,hh,keypress(i),0,FALSE,2476713.9,2476713.5,2471151.199,2471234.1,2471167.906,2476622.423,4,800,61,,,
break,html.Screen,9_60_1,2023-11-13T15:40:39.422Z,,,,,,,,NaN,,,,,,,,high,high,,,,,FALSE,,,,FALSE,2476715.4,2476715,,2476714.4,,2476622.423,4,800,,,,
break_continue,html.Screen,9_60_2,2023-11-13T15:40:39.423Z,,,,,,,,NaN,,,,,,,,high,high,,,,,FALSE,,,,FALSE,2476716.3,2476716,,2476715.7,,2476622.423,4,800,,,,
sequence,flow.Sequence,9_60,2023-11-13T15:40:39.423Z,,,,,,,,5548.094,completion,,,,,,,high,high,,,,,FALSE,,,,FALSE,2476716.8,2476716,2471151.199,2471234.1,2471167.906,2476622.423,4,800,,,,
trial,html.Screen,9_61_0,2023-11-13T15:40:44.605Z,,1,0.013891148,0.070074597,,FALSE,lh,5275.577,response,-0.654370725,0.488420763,-0.470595905,0.36136729,0.389713769,-0.447990908,low,high,ISIC_0054663.JPG,9,ISIC_8160596.JPG,334,FALSE,hl,keypress(j),0,FALSE,2481898.5,2481898,2476605.93,2476717,2476622.423,2481810.063,4,800,62,,,
break,html.Screen,9_61_1,2023-11-13T15:40:44.606Z,,,,,,,,NaN,,,,,,,,low,high,,,,,FALSE,,,,FALSE,2481900.1,2481899.6,,2481899,,2481810.063,4,800,,,,
break_continue,html.Screen,9_61_2,2023-11-13T15:40:44.607Z,,,,,,,,NaN,,,,,,,,low,high,,,,,FALSE,,,,FALSE,2481901.3,2481900.8,,2481900.4,,2481810.063,4,800,,,,
sequence,flow.Sequence,9_61,2023-11-13T15:40:44.608Z,,,,,,,,5278.377,completion,,,,,,,low,high,,,,,FALSE,,,,FALSE,2481901.6,2481900.8,2476605.93,2476717,2476622.423,2481810.063,4,800,,,,
trial,html.Screen,9_62_0,2023-11-13T15:40:49.932Z,,1,0.022934414,-0.048836567,,FALSE,hh,5415.737,response,0.309298715,0.488420763,-0.470595905,0.36951158,0.389713769,-0.447990908,high,high,ISIC_0056915.JPG,9,ISIC_0070217.JPG,381,FALSE,ll,keypress(f),0,FALSE,2487226.3,2487225.8,2481793.354,2481902.2,2481810.063,2487148.103,4,800,63,,,
break,html.Screen,9_62_1,2023-11-13T15:40:49.934Z,,,,,,,,NaN,,,,,,,,high,high,,,,,FALSE,,,,FALSE,2487227.9,2487227.3,,2487226.7,,2487148.103,4,800,,,,
break_continue,html.Screen,9_62_2,2023-11-13T15:40:49.935Z,,,,,,,,NaN,,,,,,,,high,high,,,,,FALSE,,,,FALSE,2487229,2487228.5,,2487228.2,,2487148.103,4,800,,,,
sequence,flow.Sequence,9_62,2023-11-13T15:40:49.936Z,,,,,,,,5418.437,completion,,,,,,,high,high,,,,,FALSE,,,,FALSE,2487229.3,2487228.5,2481793.354,2481902.1,2481810.063,2487148.103,4,800,,,,
trial,html.Screen,9_63_0,2023-11-13T15:40:58.942Z,,1,-0.074433472,-0.029617995,,,,9023.85,timeout,0.322855441,0.488420763,-0.470595905,-0.34090674,0.389713769,-0.447990908,high,low,ISIC_0026982.JPG,8,ISIC_1874480.JPG,294,FALSE,,,0,FALSE,2496236.2,2496235.6,2487131.227,2487229.6,2487148.103,2496171.953,4,800,64,,,
break,html.Screen,9_63_1,2023-11-13T15:40:58.944Z,,,,,,,,NaN,,,,,,,,high,low,,,,,FALSE,,,,FALSE,2496237.6,2496237.2,,2496236.7,,2496171.953,4,800,,,,
break_continue,html.Screen,9_63_2,2023-11-13T15:40:58.945Z,,,,,,,,NaN,,,,,,,,high,low,,,,,FALSE,,,,FALSE,2496238.7,2496238.2,,2496237.9,,2496171.953,4,800,,,,
sequence,flow.Sequence,9_63,2023-11-13T15:40:58.945Z,,,,,,,,9090.097,completion,,,,,,,high,low,,,,,FALSE,,,,FALSE,2496239.1,2496238.2,2487131.227,2487229.5,2487148.103,2496171.953,4,800,,,,
trial,html.Screen,9_64_0,2023-11-13T15:41:05.529Z,,1,-0.009233203,-0.068318567,,TRUE,hl,6650.547,response,0.443259173,0.488420763,-0.470595905,-0.54805199,0.389713769,-0.447990908,high,low,ISIC_3652847.JPG,8,ISIC_0025127.JPG,294,FALSE,hl,keypress(j),0,FALSE,2502822.6,2502822.5,2496155.46,2496239.4,2496171.953,2502745.124,4,800,65,,,
break,html.Screen,9_64_1,2023-11-13T15:41:05.529Z,,,,,,,,NaN,,,,,,,,high,low,,,,,FALSE,,,,FALSE,2502822.9,2502822.8,,2502822.7,,2502745.124,4,800,,,,
break_continue,html.Screen,9_64_2,2023-11-13T15:41:05.529Z,,,,,,,,NaN,,,,,,,,high,low,,,,,FALSE,,,,FALSE,2502823,2502822.9,,2502822.9,,2502745.124,4,800,,,,
sequence,flow.Sequence,9_64,2023-11-13T15:41:05.529Z,,,,,,,,6650.947,completion,,,,,,,high,low,,,,,FALSE,,,,FALSE,2502823.1,2502822.9,2496155.46,2496239.3,2496171.953,2502745.124,4,800,,,,
trial,html.Screen,9_65_0,2023-11-13T15:41:11.180Z,,1,0.003962667,0.040352316,,FALSE,ll,5728.676,response,-0.501075162,0.488420763,-0.470595905,-0.414407021,0.389713769,-0.447990908,low,low,ISIC_3018550.JPG,9,ISIC_1226440.JPG,470,FALSE,lh,keypress(e),0,FALSE,2508474.3,2508473.8,2502710.806,2502823.1,2502745.124,2508382.112,4,800,66,,,
break,html.Screen,9_65_1,2023-11-13T15:41:11.182Z,,,,,,,,NaN,,,,,,,,low,low,,,,,FALSE,,,,FALSE,2508475.8,2508475.3,,2508474.7,,2508382.112,4,800,,,,
break_continue,html.Screen,9_65_2,2023-11-13T15:41:11.183Z,,,,,,,,NaN,,,,,,,,low,low,,,,,FALSE,,,,FALSE,2508476.8,2508476.4,,2508476.2,,2508382.112,4,800,,,,
sequence,flow.Sequence,9_65,2023-11-13T15:41:11.183Z,,,,,,,,5731.276,completion,,,,,,,low,low,,,,,FALSE,,,,FALSE,2508477.2,2508476.4,2502710.806,2502823.1,2502745.124,2508382.112,4,800,,,,
trial,html.Screen,9_66_0,2023-11-13T15:41:14.285Z,,1,-0.023387178,0.040260608,,FALSE,hl,3195.988,response,0.491216703,0.488420763,-0.470595905,-0.283559631,0.389713769,-0.447990908,high,low,ISIC_0024401.JPG,9,ISIC_7621389.JPG,294,FALSE,hh,keypress(i),0,FALSE,2511578.6,2511578.1,2508365.627,2508477.5,2508382.112,2511502.183,4,800,67,,,
break,html.Screen,9_66_1,2023-11-13T15:41:14.286Z,,,,,,,,NaN,,,,,,,,high,low,,,,,FALSE,,,,FALSE,2511580.1,2511579.6,,2511579,,2511502.183,4,800,,,,
break_continue,html.Screen,9_66_2,2023-11-13T15:41:14.287Z,,,,,,,,NaN,,,,,,,,high,low,,,,,FALSE,,,,FALSE,2511581.3,2511580.9,,2511580.5,,2511502.183,4,800,,,,
sequence,flow.Sequence,9_66,2023-11-13T15:41:14.288Z,,,,,,,,3198.788,completion,,,,,,,high,low,,,,,FALSE,,,,FALSE,2511581.7,2511580.9,2508365.627,2508477.5,2508382.112,2511502.183,4,800,,,,
trial,html.Screen,9_67_0,2023-11-13T15:41:23.295Z,,1,0.010071172,-0.010035581,,,,9023.172,timeout,-0.616571901,0.488420763,-0.470595905,-0.469658175,0.389713769,-0.447990908,low,low,ISIC_0030592.JPG,8,ISIC_3503213.JPG,470,FALSE,,,0,FALSE,2520589.2,2520588.7,2511468.161,2511582,2511502.183,2520525.355,4,800,68,,,
break,html.Screen,9_67_1,2023-11-13T15:41:23.296Z,,,,,,,,NaN,,,,,,,,low,low,,,,,FALSE,,,,FALSE,2520590.1,2520589.9,,2520589.7,,2520525.355,4,800,,,,
break_continue,html.Screen,9_67_2,2023-11-13T15:41:23.297Z,,,,,,,,NaN,,,,,,,,low,low,,,,,FALSE,,,,FALSE,2520590.5,2520590.4,,2520590.2,,2520525.355,4,800,,,,
sequence,flow.Sequence,9_67,2023-11-13T15:41:23.297Z,,,,,,,,9088.217,completion,,,,,,,low,low,,,,,FALSE,,,,FALSE,2520590.7,2520590.4,2511468.161,2511582,2511502.183,2520525.355,4,800,,,,
trial,html.Screen,9_68_0,2023-11-13T15:41:30.685Z,,1,0.023131623,-0.050018284,,FALSE,hh,7453.145,response,0.521533439,0.488420763,-0.470595905,0.348704877,0.389713769,-0.447990908,high,high,ISIC_2246150.JPG,9,ISIC_0054963.JPG,381,FALSE,hl,keypress(j),0,FALSE,2527978.9,2527978.5,2520508.705,2520590.8,2520525.355,2527898.47,4,800,69,,,
break,html.Screen,9_68_1,2023-11-13T15:41:30.686Z,,,,,,,,NaN,,,,,,,,high,high,,,,,FALSE,,,,FALSE,2527980.2,2527979.9,,2527979.3,,2527898.47,4,800,,,,
break_continue,html.Screen,9_68_2,2023-11-13T15:41:30.687Z,,,,,,,,NaN,,,,,,,,high,high,,,,,FALSE,,,,FALSE,2527981,2527980.7,,2527980.5,,2527898.47,4,800,,,,
sequence,flow.Sequence,9_68,2023-11-13T15:41:30.687Z,,,,,,,,7455.345,completion,,,,,,,high,high,,,,,FALSE,,,,FALSE,2527981.2,2527980.7,2520508.705,2520590.7,2520525.355,2527898.47,4,800,,,,
trial,html.Screen,9_69_0,2023-11-13T15:41:35.580Z,,1,0.031530894,-0.012732082,,FALSE,ll,4975.43,response,-0.546236254,0.488420763,-0.470595905,-0.422002508,0.389713769,-0.447990908,low,low,ISIC_8156101.JPG,9,ISIC_9933790.JPG,470,FALSE,lh,keypress(e),0,FALSE,2532874.3,2532873.9,2527881.305,2527981.4,2527898.47,2532785.523,4,800,70,,,
break,html.Screen,9_69_1,2023-11-13T15:41:35.582Z,,,,,,,,NaN,,,,,,,,low,low,,,,,FALSE,,,,FALSE,2532875.8,2532875.3,,2532874.7,,2532785.523,4,800,,,,
break_continue,html.Screen,9_69_2,2023-11-13T15:41:35.583Z,,,,,,,,NaN,,,,,,,,low,low,,,,,FALSE,,,,FALSE,2532876.8,2532876.4,,2532876.1,,2532785.523,4,800,,,,
sequence,flow.Sequence,9_69,2023-11-13T15:41:35.583Z,,,,,,,,4977.93,completion,,,,,,,low,low,,,,,FALSE,,,,FALSE,2532877.1,2532876.4,2527881.305,2527981.4,2527898.47,2532785.523,4,800,,,,
trial,html.Screen,9_70_0,2023-11-13T15:41:44.397Z,,1,0.032829959,0.057231856,,FALSE,lh,8904.477,response,-0.578890145,0.488420763,-0.470595905,0.238304133,0.389713769,-0.447990908,low,high,ISIC_0397464.JPG,9,ISIC_0350472.JPG,334,FALSE,ll,keypress(f),0,FALSE,2541690.5,2541690,2532768.876,2532877.4,2532785.523,2541609.656,4,800,71,,,
break,html.Screen,9_70_1,2023-11-13T15:41:44.398Z,,,,,,,,NaN,,,,,,,,low,high,,,,,FALSE,,,,FALSE,2541691.9,2541691.5,,2541691,,2541609.656,4,800,,,,
break_continue,html.Screen,9_70_2,2023-11-13T15:41:44.399Z,,,,,,,,NaN,,,,,,,,low,high,,,,,FALSE,,,,FALSE,2541693.1,2541692.6,,2541692.3,,2541609.656,4,800,,,,
sequence,flow.Sequence,9_70,2023-11-13T15:41:44.400Z,,,,,,,,8907.077,completion,,,,,,,low,high,,,,,FALSE,,,,FALSE,2541693.5,2541692.6,2532768.876,2532877.3,2532785.523,2541609.656,4,800,,,,
trial,html.Screen,9_71_0,2023-11-13T15:41:50.141Z,,1,-0.004877162,0.052352446,,FALSE,hh,5824.644,response,0.412887718,0.488420763,-0.470595905,0.296500099,0.389713769,-0.447990908,high,high,ISIC_0010379.JPG,9,ISIC_0011127.JPG,381,FALSE,ll,keypress(f),0,FALSE,2547434.6,2547434.3,2541593.137,2541693.7,2541609.656,2547347.591,4,800,72,,,
break,html.Screen,9_71_1,2023-11-13T15:41:50.142Z,,,,,,,,NaN,,,,,,,,high,high,,,,,FALSE,,,,FALSE,2547436.2,2547435.8,,2547435.2,,2547347.591,4,800,,,,
break_continue,html.Screen,9_71_2,2023-11-13T15:41:50.143Z,,,,,,,,NaN,,,,,,,,high,high,,,,,FALSE,,,,FALSE,2547437.4,2547436.9,,2547436.6,,2547347.591,4,800,,,,
sequence,flow.Sequence,9_71,2023-11-13T15:41:50.144Z,,,,,,,,5827.244,completion,,,,,,,high,high,,,,,FALSE,,,,FALSE,2547437.8,2547436.9,2541593.137,2541693.6,2541609.656,2547347.591,4,800,,,,
