sender,sender_type,sender_id,timestamp,meta,,age,blockNo,c1,c2,condition,correct,correctResponse,duration,ended_on,f1,f1_high,f1_low,f2,f2_high,f2_low,feature_level1,feature_level2,gender,img_left,img_reveal,img_right,n_target_images,practice,response,response_action,selection_duration,staircase,time_commit,time_end,time_render,time_run,time_show,time_switch,total_blocks,total_trials,trialNo,url
informed_consent,html.Screen,0,2023-11-14T22:32:42.686Z,"{""labjs_version"":""20.2.4"",""labjs_build"":{""flavor"":""development"",""commit"":""f5b4a49f956347addd546a832a3327688c2c0fef""},""location"":""https://labjs.felixhenninger.com/api/labjs_preview/index.html"",""userAgent"":""Mozilla/5.0 (Windows NT 10.0; Win64; x64) AppleWebKit/537.36 (KHTML, like Gecko) Chrome/119.0.0.0 Safari/537.36"",""platform"":""Win32"",""language"":""en-US"",""locale"":""en-US"",""timeZone"":""America/Chicago"",""timezoneOffset"":360,""screen_width"":1920,""screen_height"":1080,""scroll_width"":945,""scroll_height"":918,""window_innerWidth"":945,""window_innerHeight"":966,""devicePixelRatio"":1}",,,,,,,,,15957.988,response,,,,,,,,,,,,,,,consent,click button,,,16612.5,16603,628.264,628.3999999985099,645.012,16611.631,,,,{}
Demography form,html.Form,1,2023-11-14T22:32:49.469Z,,,19,,,,,,,6784.068999999254,form submission,,,,,,,,,female,,,,,,,,,,23395.800000000745,23395.699999999255,16595.107,16612.800000000745,16611.631,23411.783,,,,
Welcome,html.Screen,2,2023-11-14T22:32:59.645Z,,,,,,,"[""bor"",""col""]",,,10159.11699999851,response,,,,,,,,,,,,,,,continue,click button,,,33571.39999999851,33570.89999999851,23394.973,23395.89999999851,23411.783,33578.359,,,,
demo_instructions,html.Screen,3,2023-11-14T22:33:16.045Z,,,,,,,,,,16392.641000000003,response,,,,,,,,,,,,,,,continue,click button,,,49971.699999999255,49971,33561.89,33571.599999997765,33578.359,49978.345,,,,
trial,html.Screen,4_0_0,2023-11-14T22:33:28.900Z,,,,0,1.0926414044454305,-0.7741624649032207,,true,lh,12848.054999998509,response,-0.8110121381849364,0.8999999999999997,-0.8999999999999997,0.7563142141851558,0.8999999999999997,-0.8999999999999997,low,high,,ISIC_2355513.JPG,,ISIC_0033605.JPG,29,true,lh,keypress(e),100,false,62826.599999997765,62826.39999999851,49961.812,49971.800000000745,49978.345,62845.208,1,16,1,
sequence,flow.Sequence,4_0,2023-11-14T22:33:28.900Z,,,,,,,,,,12848.054999998509,completion,,,,,,,low,high,,,,,,true,,,,false,62827,62826.39999999851,49961.812,49971.800000000745,49978.345,62845.208,1,16,,
trial,html.Screen,4_1_0,2023-11-14T22:33:36.266Z,,,,0,1.0153439398566937,-0.93001438372942,,true,lh,7347.191999998511,response,-0.7088606387153258,0.8999999999999997,-0.8999999999999997,0.948610930521224,0.8999999999999997,-0.8999999999999997,low,high,,ISIC_8211214.JPG,,ISIC_0026293.JPG,29,true,lh,keypress(e),100,false,70192.69999999925,70192.39999999851,62828.405,62827.300000000745,62845.208,70211.782,1,16,2,
sequence,flow.Sequence,4_1,2023-11-14T22:33:36.266Z,,,,,,,,,,7347.191999998511,completion,,,,,,,low,high,,,,,,true,,,,false,70193,70192.39999999851,62828.405,62827.199999999255,62845.208,70211.782,1,16,,
trial,html.Screen,4_2_0,2023-11-14T22:33:41.216Z,,,,0,0.9138670886161264,-0.8414121478342018,,true,lh,4931.117999998503,response,-0.8830264383952469,0.8999999999999997,-0.8999999999999997,0.8635562538060516,0.8999999999999997,-0.8999999999999997,low,high,,ISIC_6709052.JPG,,ISIC_0032258.JPG,29,true,lh,keypress(e),100,false,75143.09999999776,75142.89999999851,70195.079,70193.19999999925,70211.782,75161.912,1,16,3,
sequence,flow.Sequence,4_2,2023-11-14T22:33:41.216Z,,,,,,,,,,4931.117999998503,completion,,,,,,,low,high,,,,,,true,,,,false,75143.30000000075,75142.89999999851,70195.079,70193.19999999925,70211.782,75161.912,1,16,,
trial,html.Screen,4_3_0,2023-11-14T22:33:47.461Z,,,,0,0.7629099401226335,-0.8515956627075536,,true,lh,6226.287999999258,response,-1.0329549150636406,0.8999999999999997,-0.8999999999999997,1.01584100839286,0.8999999999999997,-0.8999999999999997,low,high,,ISIC_0028718.JPG,,ISIC_0054670.JPG,29,true,lh,keypress(e),100,false,81388.30000000075,81388.19999999925,75145.034,75143.5,75161.912,81411.767,1,16,4,
sequence,flow.Sequence,4_3,2023-11-14T22:33:47.461Z,,,,,,,,,,6226.287999999258,completion,,,,,,,low,high,,,,,,true,,,,false,81388.59999999776,81388.19999999925,75145.034,75143.5,75161.912,81411.767,1,16,,
trial,html.Screen,4_4_0,2023-11-14T22:34:08.986Z,,,,0,0.9179483069507334,0.8157414137646586,,true,ll,21500.632999998503,response,-1.0002918079433898,0.8999999999999997,-0.8999999999999997,-0.7125870798722836,0.8999999999999997,-0.8999999999999997,low,low,,ISIC_0032892.JPG,,ISIC_0678758.JPG,169,true,ll,keypress(f),100,false,102912.59999999776,102912.39999999851,81395.086,81388.69999999925,81411.767,102928.649,1,16,5,
sequence,flow.Sequence,4_4,2023-11-14T22:34:08.986Z,,,,,,,,,,21500.632999998503,completion,,,,,,,low,low,,,,,,true,,,,false,102913.09999999776,102912.39999999851,81395.086,81388.59999999776,81411.767,102928.649,1,16,,
trial,html.Screen,4_5_0,2023-11-14T22:34:14.818Z,,,,0,0.7452700151122865,0.7438857109222746,,true,ll,5816.350999999995,response,-0.748409616109011,0.8999999999999997,-0.8999999999999997,-0.7872751354576192,0.8999999999999997,-0.8999999999999997,low,low,,ISIC_0027067.JPG,,ISIC_4894929.JPG,169,true,ll,keypress(f),100,false,108745.19999999925,108745,102911.808,102913.19999999925,102928.649,108761.799,1,16,6,
sequence,flow.Sequence,4_5,2023-11-14T22:34:14.818Z,,,,,,,,,,5816.350999999995,completion,,,,,,,low,low,,,,,,true,,,,false,108745.30000000075,108745,102911.808,102913.19999999925,102928.649,108761.799,1,16,,
trial,html.Screen,4_6_0,2023-11-14T22:34:19.574Z,,,,0,0.748203467481012,0.990072838603998,,true,ll,4739.501000000746,response,-0.979674241817633,0.8999999999999997,-0.8999999999999997,-0.8567251746816678,0.8999999999999997,-0.8999999999999997,low,low,,ISIC_0065735.JPG,,ISIC_0006757.JPG,169,true,ll,keypress(f),100,false,113501.5,113501.30000000075,108745.123,108745.39999999851,108761.799,113528.457,1,16,7,
sequence,flow.Sequence,4_6,2023-11-14T22:34:19.575Z,,,,,,,,,,4739.501000000746,completion,,,,,,,low,low,,,,,,true,,,,false,113501.59999999776,113501.30000000075,108745.123,108745.39999999851,108761.799,113528.457,1,16,,
trial,html.Screen,4_7_0,2023-11-14T22:34:33.179Z,,,,0,0.7200546926039536,0.7206544552694351,,true,ll,13576.74299999926,response,-0.8465917022244419,0.8999999999999997,-0.8999999999999997,-1.0121558062445464,0.8999999999999997,-0.8999999999999997,low,low,,ISIC_7334117.JPG,,ISIC_6914698.JPG,169,true,ll,keypress(f),100,false,127105.39999999851,127105.19999999925,113511.768,113501.69999999925,113528.457,127128.455,1,16,8,
sequence,flow.Sequence,4_7,2023-11-14T22:34:33.179Z,,,,,,,,,,13576.74299999926,completion,,,,,,,low,low,,,,,,true,,,,false,127105.5,127105.19999999925,113511.768,113501.69999999925,113528.457,127128.455,1,16,,
trial,html.Screen,4_8_0,2023-11-14T22:34:38.543Z,,,,0,-0.7991459998473059,1.0280788723474688,,true,hl,5340.744999999253,response,0.8867328775712738,0.8999999999999997,-0.8999999999999997,-1.0063426986460375,0.8999999999999997,-0.8999999999999997,high,low,,ISIC_7951202.JPG,,ISIC_0055759.JPG,43,true,hl,keypress(j),100,false,132469.5,132469.19999999925,127111.924,127105.59999999776,127128.455,132495.149,1,16,9,
sequence,flow.Sequence,4_8,2023-11-14T22:34:38.543Z,,,,,,,,,,5340.744999999253,completion,,,,,,,high,low,,,,,,true,,,,false,132469.59999999776,132469.19999999925,127111.924,127105.5,127128.455,132495.149,1,16,,
trial,html.Screen,4_9_0,2023-11-14T22:34:44.674Z,,,,0,-0.7010101889216934,0.9022783418178474,,true,hl,6105.65100000074,response,0.7016609136175869,0.8999999999999997,-0.8999999999999997,-0.8694041951927121,0.8999999999999997,-0.8999999999999997,high,low,,ISIC_0057858.JPG,,ISIC_0897876.JPG,43,true,hl,keypress(j),100,false,138601,138600.80000000075,132478.447,132469.69999999925,132495.149,138628.5,1,16,10,
sequence,flow.Sequence,4_9,2023-11-14T22:34:44.675Z,,,,,,,,,,6105.65100000074,completion,,,,,,,high,low,,,,,,true,,,,false,138601.19999999925,138600.80000000075,132478.447,132469.59999999776,132495.149,138628.5,1,16,,
trial,html.Screen,4_10_0,2023-11-14T22:34:47.192Z,,,,0,-0.7246771568562105,0.9161385080362604,,true,hl,2489.89999999851,response,0.8867328775712738,0.8999999999999997,-0.8999999999999997,-1.0063426986460375,0.8999999999999997,-0.8999999999999997,high,low,,ISIC_0028225.JPG,,ISIC_0055759.JPG,43,true,hl,keypress(j),100,false,141118.59999999776,141118.3999999985,138611.88,138601.3999999985,138628.5,141145.348,1,16,11,
sequence,flow.Sequence,4_10,2023-11-14T22:34:47.192Z,,,,,,,,,,2489.89999999851,completion,,,,,,,high,low,,,,,,true,,,,false,141118.69999999925,141118.3999999985,138611.88,138601.30000000075,138628.5,141145.348,1,16,,
trial,html.Screen,4_11_0,2023-11-14T22:34:49.322Z,,,,0,-0.8472024037189965,0.986370061404882,,true,hl,2103.5519999985117,response,0.7629099401226335,0.8999999999999997,-0.8999999999999997,-0.8515956627075536,0.8999999999999997,-0.8999999999999997,high,low,,ISIC_0054355.JPG,,ISIC_0028718.JPG,43,true,hl,keypress(j),100,false,143249.09999999776,143248.8999999985,141128.655,141118.80000000075,141145.348,143278.695,1,16,12,
sequence,flow.Sequence,4_11,2023-11-14T22:34:49.323Z,,,,,,,,,,2103.5519999985117,completion,,,,,,,high,low,,,,,,true,,,,false,143249.30000000075,143248.8999999985,141128.655,141118.69999999925,141145.348,143278.695,1,16,,
trial,html.Screen,4_12_0,2023-11-14T22:34:52.623Z,,,,0,-0.8063086831157171,-0.7804750549895122,,true,hh,3270.804999999993,response,0.7991796180405828,0.8999999999999997,-0.8999999999999997,0.8257025902625775,0.8999999999999997,-0.8999999999999997,high,high,,ISIC_0002899.JPG,,ISIC_0010478.JPG,184,true,hh,keypress(i),100,false,146549.80000000075,146549.5,143261.946,143249.3999999985,143278.695,146578.684,1,16,13,
sequence,flow.Sequence,4_12,2023-11-14T22:34:52.623Z,,,,,,,,,,3270.804999999993,completion,,,,,,,high,high,,,,,,true,,,,false,146550,146549.5,143261.946,143249.3999999985,143278.695,146578.684,1,16,,
trial,html.Screen,4_13_0,2023-11-14T22:34:54.596Z,,,,0,-0.7439440729702499,-0.8804089534894812,,true,hh,1943.8159999999916,response,0.7983870329622347,0.8999999999999997,-0.8999999999999997,1.044985095430835,0.8999999999999997,-0.8999999999999997,high,high,,ISIC_2839431.JPG,,ISIC_0032372.JPG,184,true,hh,keypress(i),100,false,148522.59999999776,148522.5,146561.935,146550.09999999776,146578.684,148545.199,1,16,14,
sequence,flow.Sequence,4_13,2023-11-14T22:34:54.596Z,,,,,,,,,,1943.8159999999916,completion,,,,,,,high,high,,,,,,true,,,,false,148522.80000000075,148522.5,146561.935,146550.09999999776,146578.684,148545.199,1,16,,
trial,html.Screen,4_14_0,2023-11-14T22:34:58.903Z,,,,0,-0.9691635021928308,-1.0761216763182415,,true,hh,4284.801000000007,response,0.7991796180405828,0.8999999999999997,-0.8999999999999997,0.8257025902625775,0.8999999999999997,-0.8999999999999997,high,high,,ISIC_8169564.JPG,,ISIC_0010478.JPG,184,true,hh,keypress(i),100,false,152830.09999999776,152830,148528.725,148522.8999999985,148545.199,152861.853,1,16,15,
sequence,flow.Sequence,4_14,2023-11-14T22:34:58.904Z,,,,,,,,,,4284.801000000007,completion,,,,,,,high,high,,,,,,true,,,,false,152830.3999999985,152830,148528.725,148522.8999999985,148545.199,152861.853,1,16,,
trial,html.Screen,4_15_0,2023-11-14T22:35:03.277Z,,,,0,-1.0389084131983195,-0.7349392452912339,,true,hh,4341.646999999997,response,0.9159664042920548,0.8999999999999997,-0.8999999999999997,0.96519839238634,0.8999999999999997,-0.8999999999999997,high,high,,ISIC_4460849.JPG,,ISIC_0053617.JPG,184,true,hh,keypress(i),100,false,157203.69999999925,157203.5,152845.293,152830.3999999985,152861.853,157228.574,1,16,16,
sequence,flow.Sequence,4_15,2023-11-14T22:35:03.277Z,,,,,,,,,,4341.646999999997,completion,,,,,,,high,high,,,,,,true,,,,false,157203.80000000075,157203.5,152845.293,152830.3999999985,152861.853,157228.574,1,16,,
demonstration_loop,flow.Loop,4,2023-11-14T22:35:03.277Z,,,,,,,,,,107225.155,completion,,,,,,,,,,,,,,true,,,,false,157203.8999999985,157203.5,49961.812,49971.800000000745,49978.345,157228.574,1,16,,
practice_instructions,html.Screen,5,2023-11-14T22:35:24.349Z,,,,,,,,,,21038.426000000007,response,,,,,,,,,,,,,,,continue,click button,,,178275.59999999776,178267,157211.848,157203.8999999985,157228.574,178278.514,,,,
trial,html.Screen,6_0_0,2023-11-14T22:35:28.677Z,,,,1,-0.8428710898223032,-0.7657532100141601,,true,hh,4313.986000000004,response,1.0924307772114292,0.8999999999999997,-0.8999999999999997,0.725341168321984,0.8999999999999997,-0.8999999999999997,high,high,,ISIC_7141361.JPG,,ISIC_0024929.JPG,184,true,hh,keypress(i),0,false,182603.3999999985,182592.5,178262.109,178275.80000000075,178278.514,182611.882,1,20,1,
sequence,flow.Sequence,6_0,2023-11-14T22:35:28.677Z,,,,,,,,,,4313.986000000004,completion,,,,,,,high,high,,,,,,true,,,,false,182603.5,182592.5,178262.109,178275.69999999925,178278.514,182611.882,1,20,,
trial,html.Screen,6_1_0,2023-11-14T22:35:31.327Z,,,,1,-1.085906502329253,-0.8769314895018409,,true,hh,2640.6179999999877,response,1.0172828675249892,0.8999999999999997,-0.8999999999999997,0.7195583354712407,0.8999999999999997,-0.8999999999999997,high,high,,ISIC_2693412.JPG,,ISIC_0033696.JPG,184,true,hh,keypress(i),0,false,185252.69999999925,185252.5,182595.193,182603.59999999776,182611.882,185261.984,1,20,2,
sequence,flow.Sequence,6_1,2023-11-14T22:35:31.327Z,,,,,,,,,,2640.6179999999877,completion,,,,,,,high,high,,,,,,true,,,,false,185253.09999999776,185252.5,182595.193,182603.59999999776,182611.882,185261.984,1,20,,
trial,html.Screen,6_2_0,2023-11-14T22:35:35.718Z,,,,1,1.061329542878903,1.0605755702127622,,true,ll,4381.715999999258,response,-0.8071149391753215,0.8999999999999997,-0.8999999999999997,-0.9485840589720004,0.8999999999999997,-0.8999999999999997,low,low,,ISIC_0065622.JPG,,ISIC_2784686.JPG,169,true,ll,keypress(f),0,false,189643.80000000075,189643.69999999925,185245.122,185253.3999999985,185261.984,189663.125,1,20,3,
sequence,flow.Sequence,6_2,2023-11-14T22:35:35.718Z,,,,,,,,,,4381.715999999258,completion,,,,,,,low,low,,,,,,true,,,,false,189644,189643.69999999925,185245.122,185253.3999999985,185261.984,189663.125,1,20,,
trial,html.Screen,6_3_0,2023-11-14T22:35:37.638Z,,,,1,0.7991796180405828,0.8257025902625775,,true,ll,1900.375,response,-0.7945270488878992,0.8999999999999997,-0.8999999999999997,-0.9054354695775536,0.8999999999999997,-0.8999999999999997,low,low,,ISIC_0010478.JPG,,ISIC_5820693.JPG,169,true,ll,keypress(f),0,false,191563.69999999925,191563.5,189628.625,189644.09999999776,189663.125,191578.792,1,20,4,
sequence,flow.Sequence,6_3,2023-11-14T22:35:37.638Z,,,,,,,,,,1900.375,completion,,,,,,,low,low,,,,,,true,,,,false,191563.80000000075,191563.5,189628.625,189644.09999999776,189663.125,191578.792,1,20,,
trial,html.Screen,6_4_0,2023-11-14T22:35:39.470Z,,,,1,1.098939882801048,0.7469537600215133,,true,ll,1816.807999997778,response,-0.9381357191664412,0.8999999999999997,-0.8999999999999997,-0.7568873197636701,0.8999999999999997,-0.8999999999999997,low,low,,ISIC_0059897.JPG,,ISIC_9808863.JPG,169,true,ll,keypress(f),0,false,193395.69999999925,193395.59999999776,191561.824,191563.8999999985,191578.792,193411.925,1,20,5,
sequence,flow.Sequence,6_4,2023-11-14T22:35:39.470Z,,,,,,,,,,1816.807999997778,completion,,,,,,,low,low,,,,,,true,,,,false,193395.8999999985,193395.59999999776,191561.824,191563.80000000075,191578.792,193411.925,1,20,,
trial,html.Screen,6_5_0,2023-11-14T22:35:41.477Z,,,,1,-0.8044219203899928,-0.7681076927463542,,true,hh,1991.5750000000116,response,0.7950276358398455,0.8999999999999997,-0.8999999999999997,1.087838988516297,0.8999999999999997,-0.8999999999999997,high,high,,ISIC_0028768.JPG,,ISIC_0032019.JPG,184,true,hh,keypress(i),0,false,195403.69999999925,195403.5,193395.224,193396,193411.925,195411.925,1,20,6,
sequence,flow.Sequence,6_5,2023-11-14T22:35:41.478Z,,,,,,,,,,1991.5750000000116,completion,,,,,,,high,high,,,,,,true,,,,false,195403.80000000075,195403.5,193395.224,193396,193411.925,195411.925,1,20,,
trial,html.Screen,6_6_0,2023-11-14T22:35:43.846Z,,,,1,1.0788024398087033,-0.9911875460374616,,true,lh,2359.8750000007567,response,-0.7308116448711435,0.8999999999999997,-0.8999999999999997,0.908713834988551,0.8999999999999997,-0.8999999999999997,low,high,,ISIC_5951430.JPG,,ISIC_7811951.JPG,29,true,lh,keypress(e),0,false,197772,197771.80000000075,195395.2,195403.8999999985,195411.925,197778.613,1,20,7,
sequence,flow.Sequence,6_6,2023-11-14T22:35:43.846Z,,,,,,,,,,2359.8750000007567,completion,,,,,,,low,high,,,,,,true,,,,false,197772.30000000075,197771.80000000075,195395.2,195403.8999999985,195411.925,197778.613,1,20,,
trial,html.Screen,6_7_0,2023-11-14T22:35:45.477Z,,,,1,-0.9966799416482932,-0.7513707283535042,,true,hh,1624.687000000733,response,0.8642861042532918,0.8999999999999997,-0.8999999999999997,0.7071725768452852,0.8999999999999997,-0.8999999999999997,high,high,,ISIC_7489895.JPG,,ISIC_0011315.JPG,184,true,hh,keypress(i),0,false,199403.5,199403.30000000075,197761.813,197772.30000000075,197778.613,199411.969,1,20,8,
sequence,flow.Sequence,6_7,2023-11-14T22:35:45.477Z,,,,,,,,,,1624.687000000733,completion,,,,,,,high,high,,,,,,true,,,,false,199403.59999999776,199403.30000000075,197761.813,197772.30000000075,197778.613,199411.969,1,20,,
trial,html.Screen,6_8_0,2023-11-14T22:35:47.702Z,,,,1,-0.8075741539776473,0.7326891894107508,,true,hl,2215.831000000733,response,0.8350129142228142,0.8999999999999997,-0.8999999999999997,-0.8172547818270586,0.8999999999999997,-0.8999999999999997,high,low,,ISIC_3428523.JPG,,ISIC_0301568.JPG,43,true,hl,keypress(j),0,false,201628,201627.80000000075,199395.22,199403.69999999925,199411.969,201645.352,1,20,9,
sequence,flow.Sequence,6_8,2023-11-14T22:35:47.702Z,,,,,,,,,,2215.831000000733,completion,,,,,,,high,low,,,,,,true,,,,false,201628.09999999776,201627.80000000075,199395.22,199403.69999999925,199411.969,201645.352,1,20,,
trial,html.Screen,6_9_0,2023-11-14T22:35:53.646Z,,,,1,0.8867328775712738,-1.0063426986460375,,true,lh,5926.948000000732,response,-1.058275612142778,0.8999999999999997,-0.8999999999999997,0.7824898568540655,0.8999999999999997,-0.8999999999999997,low,high,,ISIC_0055759.JPG,,ISIC_4906385.JPG,29,true,lh,keypress(e),0,false,207572.5,207572.30000000075,201612.041,201628.19999999925,201645.352,207578.531,1,20,10,
sequence,flow.Sequence,6_9,2023-11-14T22:35:53.647Z,,,,,,,,,,5926.948000000732,completion,,,,,,,low,high,,,,,,true,,,,false,207572.8999999985,207572.30000000075,201612.041,201628.19999999925,201645.352,207578.531,1,20,,
trial,html.Screen,6_10_0,2023-11-14T22:35:56.062Z,,,,1,-0.8075741539776473,0.7326891894107508,,true,hl,2409.269000000757,response,1.0153439398566937,0.8999999999999997,-0.8999999999999997,-0.93001438372942,0.8999999999999997,-0.8999999999999997,high,low,,ISIC_3428523.JPG,,ISIC_8211214.JPG,43,true,hl,keypress(j),0,false,209988,209987.80000000075,207561.794,207573.09999999776,207578.531,209995.271,1,20,11,
sequence,flow.Sequence,6_10,2023-11-14T22:35:56.062Z,,,,,,,,,,2409.269000000757,completion,,,,,,,high,low,,,,,,true,,,,false,209988.09999999776,209987.80000000075,207561.794,207573,207578.531,209995.271,1,20,,
trial,html.Screen,6_11_0,2023-11-14T22:35:58.182Z,,,,1,0.8824429342294199,0.8627090057984027,,true,ll,2112.529000000737,response,-0.9867903749582616,0.8999999999999997,-0.8999999999999997,-0.779537769597012,0.8999999999999997,-0.8999999999999997,low,low,,ISIC_0015193.JPG,,ISIC_7168122.JPG,169,true,ll,keypress(f),0,false,212107.80000000075,212107.80000000075,209978.64,209988.30000000075,209995.271,212111.843,1,20,12,
sequence,flow.Sequence,6_11,2023-11-14T22:35:58.182Z,,,,,,,,,,2112.529000000737,completion,,,,,,,low,low,,,,,,true,,,,false,212108,212107.80000000075,209978.64,209988.30000000075,209995.271,212111.843,1,20,,
trial,html.Screen,6_12_0,2023-11-14T22:36:00.382Z,,,,1,0.7723423895392068,-0.7630051745722757,,true,lh,2196.3569999992615,response,-0.8513427412482127,0.8999999999999997,-0.8999999999999997,0.9295303568095064,0.8999999999999997,-0.8999999999999997,low,high,,ISIC_9694911.JPG,,ISIC_0034164.JPG,29,true,lh,keypress(e),0,false,214308.3999999985,214308.19999999925,212095.247,212108.19999999925,212111.843,214311.944,1,20,13,
sequence,flow.Sequence,6_12,2023-11-14T22:36:00.383Z,,,,,,,,,,2196.3569999992615,completion,,,,,,,low,high,,,,,,true,,,,false,214308.80000000075,214308.19999999925,212095.247,212108.09999999776,212111.843,214311.944,1,20,,
trial,html.Screen,6_13_0,2023-11-14T22:36:01.790Z,,,,1,-0.7246771568562105,0.9161385080362604,,true,hl,1404.0560000000114,response,1.045301444872812,0.8999999999999997,-0.8999999999999997,-1.0872560254441277,0.8999999999999997,-0.8999999999999997,high,low,,ISIC_0028225.JPG,,ISIC_4507700.JPG,43,true,hl,keypress(j),0,false,215716.19999999925,215716,214295.404,214309,214311.944,215728.805,1,20,14,
sequence,flow.Sequence,6_13,2023-11-14T22:36:01.790Z,,,,,,,,,,1404.0560000000114,completion,,,,,,,high,low,,,,,,true,,,,false,215716.30000000075,215716,214295.404,214309,214311.944,215728.805,1,20,,
trial,html.Screen,6_14_0,2023-11-14T22:36:03.317Z,,,,1,0.9633172970727744,-0.8472659344792351,,true,lh,1514.495000000752,response,-0.7010101889216934,0.8999999999999997,-0.8999999999999997,0.9022783418178474,0.8999999999999997,-0.8999999999999997,low,high,,ISIC_0067172.JPG,,ISIC_0057858.JPG,29,true,lh,keypress(e),0,false,217243.30000000075,217243.30000000075,215712.003,215716.5,215728.805,217245.196,1,20,15,
sequence,flow.Sequence,6_14,2023-11-14T22:36:03.317Z,,,,,,,,,,1514.495000000752,completion,,,,,,,low,high,,,,,,true,,,,false,217243.5,217243.30000000075,215712.003,215716.5,215728.805,217245.196,1,20,,
trial,html.Screen,6_15_0,2023-11-14T22:36:04.710Z,,,,1,-1.0453124399868816,0.8986747280184286,,true,hl,1390.7039999985136,response,1.045301444872812,0.8999999999999997,-0.8999999999999997,-1.0872560254441277,0.8999999999999997,-0.8999999999999997,high,low,,ISIC_0013967.JPG,,ISIC_4507700.JPG,43,true,hl,keypress(j),0,false,218636.09999999776,218635.8999999985,217228.57,217243.5,217245.196,218645.277,1,20,16,
sequence,flow.Sequence,6_15,2023-11-14T22:36:04.710Z,,,,,,,,,,1390.7039999985136,completion,,,,,,,high,low,,,,,,true,,,,false,218636.3999999985,218635.8999999985,217228.57,217243.5,217245.196,218645.277,1,20,,
trial,html.Screen,6_16_0,2023-11-14T22:36:07.439Z,,,,1,-0.7991459998473059,1.0280788723474688,,true,hl,2719.122999998508,response,1.0788024398087033,0.8999999999999997,-0.8999999999999997,-0.9911875460374616,0.8999999999999997,-0.8999999999999997,high,low,,ISIC_7951202.JPG,,ISIC_5951430.JPG,43,true,hl,keypress(j),0,false,221364.69999999925,221364.3999999985,218628.611,218636.5,218645.277,221378.819,1,20,17,
sequence,flow.Sequence,6_16,2023-11-14T22:36:07.439Z,,,,,,,,,,2719.122999998508,completion,,,,,,,high,low,,,,,,true,,,,false,221365,221364.3999999985,218628.611,218636.5,218645.277,221378.819,1,20,,
trial,html.Screen,6_17_0,2023-11-14T22:36:09.926Z,,,,1,0.7872534775441857,-0.8441107693833454,,true,lh,2473.4810000007565,response,-0.8719231363109603,0.8999999999999997,-0.8999999999999997,0.7704280220140033,0.8999999999999997,-0.8999999999999997,low,high,,ISIC_0028788.JPG,,ISIC_0029453.JPG,29,true,lh,keypress(e),0,false,223852.5,223852.30000000075,221361.898,221365.19999999925,221378.819,223862.045,1,20,18,
sequence,flow.Sequence,6_17,2023-11-14T22:36:09.927Z,,,,,,,,,,2473.4810000007565,completion,,,,,,,low,high,,,,,,true,,,,false,223852.8999999985,223852.30000000075,221361.898,221365.19999999925,221378.819,223862.045,1,20,,
trial,html.Screen,6_18_0,2023-11-14T22:36:12.277Z,,,,1,-0.9961674882214306,-0.7490338425009774,,true,hh,2341.454999999987,response,1.061329542878903,0.8999999999999997,-0.8999999999999997,1.0605755702127622,0.8999999999999997,-0.8999999999999997,high,high,,ISIC_0624779.JPG,,ISIC_0065622.JPG,184,true,hh,keypress(i),0,false,226203.69999999925,226203.5,223845.202,223853,223862.045,226211.923,1,20,19,
sequence,flow.Sequence,6_18,2023-11-14T22:36:12.278Z,,,,,,,,,,2341.454999999987,completion,,,,,,,high,high,,,,,,true,,,,false,226203.69999999925,226203.5,223845.202,223853,223862.045,226211.923,1,20,,
trial,html.Screen,6_19_0,2023-11-14T22:36:14.902Z,,,,1,0.9179483069507334,0.8157414137646586,,true,ll,2616.276999999245,response,-0.8086813973201046,0.8999999999999997,-0.8999999999999997,-0.8107888307699666,0.8999999999999997,-0.8999999999999997,low,low,,ISIC_0032892.JPG,,ISIC_3013468.JPG,169,true,ll,keypress(f),0,false,228828.3999999985,228828.19999999925,226195.404,226203.8999999985,226211.923,228845.336,1,20,20,
sequence,flow.Sequence,6_19,2023-11-14T22:36:14.903Z,,,,,,,,,,2616.276999999245,completion,,,,,,,low,low,,,,,,true,,,,false,228828.69999999925,228828.19999999925,226195.404,226203.8999999985,226211.923,228845.336,1,20,,
practice_loop,flow.Loop,6,2023-11-14T22:36:14.903Z,,,,,,,,,,50549.68599999926,completion,,,,,,,,,,,,,,true,,,,false,228828.8999999985,228828.19999999925,178262.109,178275.69999999925,178278.514,228845.336,1,20,,
stair_instructions,html.Screen,7,2023-11-14T22:36:31.029Z,,,,,,,,,,16109.863999999245,response,,,,,,,,,,,,,,,continue,click button,,,244955.69999999925,244955.19999999925,228828.701,228829,228845.336,244961.939,,,,
trial,html.Screen,8_0_0,2023-11-14T22:36:42.024Z,,,,2,-0.0606387586319451,-0.0283716809868572,,,,11016.877999999997,timeout,1.0679712388489528,0.8999999999999997,-0.8999999999999997,1.0509600192807842,0.8999999999999997,-0.8999999999999997,high,high,,ISIC_0061158.JPG,,ISIC_0015180.JPG,184,false,,,0,true,255950.3999999985,255950.30000000075,244945.514,244955.80000000075,244961.939,255978.817,1,40,1,
sequence,flow.Sequence,8_0,2023-11-14T22:36:42.024Z,,,,,,,,,,10988.361000000732,completion,,,,,,,high,high,,,,,,false,,,,true,255950.59999999776,255950.30000000075,244945.514,244955.80000000075,244961.939,255978.817,1,40,,
trial,html.Screen,8_1_0,2023-11-14T22:36:50.485Z,,,,2,-0.0643519619373155,-0.0340638715725122,,false,hh,8432.483000000735,response,0.7194072444457746,0.8999999999999997,-0.8999999999999997,0.8090139128440115,0.8999999999999997,-0.8999999999999997,high,high,,ISIC_0066401.JPG,,ISIC_0057539.JPG,184,false,hl,keypress(j),0,true,264411.5,264411.30000000075,255962.033,255950.59999999776,255978.817,264428.788,1,40,2,
sequence,flow.Sequence,8_1,2023-11-14T22:36:50.485Z,,,,,,,,,,8432.483000000735,completion,,,,,,,high,high,,,,,,false,,,,true,264411.59999999776,264411.30000000075,255962.033,255950.59999999776,255978.817,264428.788,1,40,,
trial,html.Screen,8_2_0,2023-11-14T22:37:00.191Z,,,,2,0.0603356922898045,0.0630785445312754,,true,hl,9688.311999997764,response,0.8350129142228142,0.8999999999999997,-0.8499999999999996,-0.8172547818270586,0.8999999999999997,-0.8499999999999996,high,low,,ISIC_9996128.JPG,,ISIC_0301568.JPG,47,false,hl,keypress(j),0,true,274117.3999999985,274117.09999999776,264411.961,264411.69999999925,264428.788,274128.669,1,40,3,
sequence,flow.Sequence,8_2,2023-11-14T22:37:00.191Z,,,,,,,,,,9688.311999997764,completion,,,,,,,high,low,,,,,,false,,,,true,274117.80000000075,274117.09999999776,264411.961,264411.69999999925,264428.788,274128.669,1,40,,
trial,html.Screen,8_3_0,2023-11-14T22:37:07.094Z,,,,2,-0.0634150092059303,0.0177502973253611,,false,hh,6891.5309999992605,response,0.7195729696054269,0.6772100793342943,-0.7999999999999996,0.7751162193317498,0.8499999999999996,-0.7999999999999996,high,high,,ISIC_0032433.JPG,,ISIC_0034036.JPG,277,false,lh,keypress(e),0,true,281020.19999999925,281020.19999999925,274111.979,274117.8999999985,274128.669,281028.653,1,40,4,
sequence,flow.Sequence,8_3,2023-11-14T22:37:07.094Z,,,,,,,,,,6891.5309999992605,completion,,,,,,,high,high,,,,,,false,,,,true,281020.5,281020.19999999925,274111.979,274117.8999999985,274128.669,281028.653,1,40,,
trial,html.Screen,8_4_0,2023-11-14T22:37:18.086Z,,,,2,0.0644356642124594,-0.0565130492997401,,,,11016.661000000022,timeout,0.5466187803915553,0.6772100793342943,-0.7499999999999996,0.7214191573004313,0.8499999999999996,-0.7499999999999996,high,high,,ISIC_7520843.JPG,,ISIC_5877410.JPG,277,false,,,0,true,292012.80000000075,292012.5,281011.932,281020.59999999776,281028.653,292045.314,1,40,5,
sequence,flow.Sequence,8_4,2023-11-14T22:37:18.086Z,,,,,,,,,,10983.847000000009,completion,,,,,,,high,high,,,,,,false,,,,true,292013.09999999776,292012.5,281011.932,281020.5,281028.653,292045.314,1,40,,
trial,html.Screen,8_5_0,2023-11-14T22:37:23.901Z,,,,2,-0.0643519619373155,-0.0340638715725122,,false,hh,5782.085999998497,response,0.8380649167521746,0.6772100793342943,-0.7499999999999996,0.7135701709445428,0.8499999999999996,-0.7499999999999996,high,high,,ISIC_0066401.JPG,,ISIC_0010061.JPG,277,false,lh,keypress(e),0,true,297827.5,297827.3999999985,292028.793,292013.30000000075,292045.314,297846.056,1,40,6,
sequence,flow.Sequence,8_5,2023-11-14T22:37:23.901Z,,,,,,,,,,5782.085999998497,completion,,,,,,,high,high,,,,,,false,,,,true,297827.69999999925,297827.3999999985,292028.793,292013.19999999925,292045.314,297846.056,1,40,,
trial,html.Screen,8_6_0,2023-11-14T22:37:31.246Z,,,,2,-0.068830656047477,0.0471494209282208,,false,hl,7325.643999999273,response,0.7612472458680769,0.6772100793342943,-0.6999999999999995,-0.729960233427452,0.8499999999999996,-0.6999999999999995,high,low,,ISIC_0029982.JPG,,ISIC_5307210.JPG,117,false,lh,keypress(e),0,true,305171.8999999985,305171.69999999925,297812.142,297827.69999999925,297846.056,305178.679,1,40,7,
sequence,flow.Sequence,8_6,2023-11-14T22:37:31.246Z,,,,,,,,,,7325.643999999273,completion,,,,,,,high,low,,,,,,false,,,,true,305172,305171.69999999925,297812.142,297827.69999999925,297846.056,305178.679,1,40,,
trial,html.Screen,8_7_0,2023-11-14T22:37:35.686Z,,,,2,-0.0462522625051681,-0.0088419594888635,,true,hl,4433.121000000741,response,0.7723423895392068,0.6772100793342943,-0.6499999999999995,-0.7630051745722757,0.7999999999999996,-0.6999999999999995,high,low,,ISIC_1945381.JPG,,ISIC_9694911.JPG,117,false,hl,keypress(j),0,true,309612,309611.80000000075,305161.772,305172.09999999776,305178.679,309628.835,1,40,8,
sequence,flow.Sequence,8_7,2023-11-14T22:37:35.686Z,,,,,,,,,,4433.121000000741,completion,,,,,,,high,low,,,,,,false,,,,true,309612,309611.80000000075,305161.772,305172.09999999776,305178.679,309628.835,1,40,,
trial,html.Screen,8_8_0,2023-11-14T22:37:43.407Z,,,,2,0.0123274848503577,-0.0516828290734233,,true,hl,7703.564999998489,response,0.5803072865068658,0.6272100793342943,-0.5999999999999994,-0.7826748527560388,0.7499999999999996,-0.6499999999999995,high,low,,ISIC_0056790.JPG,,ISIC_0030171.JPG,149,false,hl,keypress(j),0,true,317332.59999999776,317332.3999999985,309612.01,309612.09999999776,309628.835,317345.38,1,40,9,
sequence,flow.Sequence,8_8,2023-11-14T22:37:43.407Z,,,,,,,,,,7703.564999998489,completion,,,,,,,high,low,,,,,,false,,,,true,317333,317332.3999999985,309612.01,309612.09999999776,309628.835,317345.38,1,40,,
trial,html.Screen,8_9_0,2023-11-14T22:37:52.030Z,,,,2,0.0273855825278348,-0.0566295048930719,,false,lh,8610.619999999995,response,-0.4320427786988694,0.5763248380230361,-0.5499999999999994,0.7180970937276707,0.6999999999999995,-0.6728400136641571,low,high,,ISIC_0000141.JPG,,ISIC_6712342.JPG,146,false,hl,keypress(j),0,true,325956.09999999776,325956,317328.54,317333.09999999776,317345.38,325962.013,1,40,10,
sequence,flow.Sequence,8_9,2023-11-14T22:37:52.030Z,,,,,,,,,,8610.619999999995,completion,,,,,,,low,high,,,,,,false,,,,true,325956.30000000075,325956,317328.54,317333.09999999776,317345.38,325962.013,1,40,,
trial,html.Screen,8_10_0,2023-11-14T22:37:58.838Z,,,,2,0.0198696495649504,-0.0387952353063878,,false,lh,6801.886999998533,response,-0.4458829192141271,0.5263248380230361,-0.5499999999999994,0.8728259922218632,0.6999999999999995,-0.6228400136641571,low,high,,ISIC_6735970.JPG,,ISIC_3060248.JPG,146,false,hl,keypress(j),0,true,332764.09999999776,332763.8999999985,325945.078,325956.30000000075,325962.013,332778.885,1,40,11,
sequence,flow.Sequence,8_10,2023-11-14T22:37:58.838Z,,,,,,,,,,6801.886999998533,completion,,,,,,,low,high,,,,,,false,,,,true,332764.3999999985,332763.8999999985,325945.078,325956.30000000075,325962.013,332778.885,1,40,,
trial,html.Screen,8_11_0,2023-11-14T22:38:03.182Z,,,,2,,0.0102871556606504,,true,hh,4329.2149999977555,response,0.5584412786567172,0.4763248380230361,-0.5499999999999994,0.6152298619478147,0.6999999999999995,-0.572840013664157,high,high,,ISIC_1805163.JPG,,ISIC_0011780.JPG,338,false,hh,keypress(i),0,true,337108.19999999925,337108.09999999776,332761.936,332764.5,332778.885,337112.052,1,40,12,
sequence,flow.Sequence,8_11,2023-11-14T22:38:03.182Z,,,,,,,,,,4329.2149999977555,completion,,,,,,,high,high,,,,,,false,,,,true,337108.3999999985,337108.09999999776,332761.936,332764.5,332778.885,337112.052,1,40,,
trial,html.Screen,8_12_0,2023-11-14T22:38:11.422Z,,,,2,-0.0544036313884697,-0.0564516462775647,,true,ll,8235.847999998485,response,-0.6511236647537911,0.4763248380230361,-0.4999999999999994,-0.683272164119457,0.6499999999999995,-0.522840013664157,low,low,,ISIC_7441957.JPG,,ISIC_0030911.JPG,451,false,ll,keypress(f),0,true,345348,345347.8999999985,337095.345,337108.59999999776,337112.052,345362.134,1,40,13,
sequence,flow.Sequence,8_12,2023-11-14T22:38:11.422Z,,,,,,,,,,8235.847999998485,completion,,,,,,,low,low,,,,,,false,,,,true,345348.30000000075,345347.8999999985,337095.345,337108.5,337112.052,345362.134,1,40,,
trial,html.Screen,8_13_0,2023-11-14T22:38:18.878Z,,,,2,-0.0119001144851157,0.0063430114540141,,false,lh,7441.565999999235,response,-0.3096762165391505,0.4763248380230361,-0.4999999999999994,0.4726211809984315,0.5999999999999994,-0.472840013664157,low,high,,ISIC_0003822.JPG,,ISIC_0033738.JPG,193,false,hh,keypress(i),0,true,352803.80000000075,352803.69999999925,345345.094,345348.3999999985,345362.134,352812.134,1,40,14,
sequence,flow.Sequence,8_13,2023-11-14T22:38:18.878Z,,,,,,,,,,7441.565999999235,completion,,,,,,,low,high,,,,,,false,,,,true,352803.8999999985,352803.69999999925,345345.094,345348.3999999985,345362.134,352812.134,1,40,,
trial,html.Screen,8_14_0,2023-11-14T22:38:26.670Z,,,,2,-0.0423567271646023,-0.0380126882576854,,false,lh,7783.86599999998,response,-0.6128275930978432,0.4763248380230361,-0.4999999999999994,0.4426131265846625,0.5999999999999994,-0.472840013664157,low,high,,ISIC_0046932.JPG,,ISIC_0028910.JPG,193,false,hh,keypress(i),0,true,360596.19999999925,360596,352795.316,352804,352812.134,360612.215,1,40,15,
sequence,flow.Sequence,8_14,2023-11-14T22:38:26.670Z,,,,,,,,,,7783.86599999998,completion,,,,,,,low,high,,,,,,false,,,,true,360596.30000000075,360596,352795.316,352804,352812.134,360612.215,1,40,,
trial,html.Screen,8_15_0,2023-11-14T22:38:35.174Z,,,,2,-0.0447960916594447,-0.0451557856659748,,false,hl,8487.58500000072,response,0.5133530030942434,0.4763248380230361,-0.4999999999999994,-0.3477033682541056,0.5999999999999994,-0.472840013664157,high,low,,ISIC_1379405.JPG,,ISIC_0033662.JPG,282,false,ll,keypress(f),0,true,369099.8999999985,369099.80000000075,360595.134,360596.5,360612.215,369112.1,1,40,16,
sequence,flow.Sequence,8_15,2023-11-14T22:38:35.174Z,,,,,,,,,,8487.58500000072,completion,,,,,,,high,low,,,,,,false,,,,true,369100,369099.80000000075,360595.134,360596.3999999985,360612.215,369112.1,1,40,,
trial,html.Screen,8_16_0,2023-11-14T22:38:41.895Z,,,,2,-0.0462522625051681,-0.0088419594888635,,false,lh,6708.200000000768,response,-0.6541827333096658,0.4763248380230361,-0.4999999999999994,0.3959861126475122,0.5499999999999994,-0.472840013664157,low,high,,ISIC_1945381.JPG,,ISIC_4789784.JPG,215,false,ll,keypress(f),0,true,375820.3999999985,375820.30000000075,369095.129,369100,369112.1,375828.75,1,40,17,
sequence,flow.Sequence,8_16,2023-11-14T22:38:41.895Z,,,,,,,,,,6708.200000000768,completion,,,,,,,low,high,,,,,,false,,,,true,375820.80000000075,375820.30000000075,369095.129,369100,369112.1,375828.75,1,40,,
trial,html.Screen,8_17_0,2023-11-14T22:38:48.142Z,,,,2,0.0426957918502628,0.044166030546046,,false,ll,6238.849999997765,response,-0.5764926348526587,0.4763248380230361,-0.4999999999999994,-0.5890046156350918,0.5499999999999994,-0.472840013664157,low,low,,ISIC_4649440.JPG,,ISIC_4867043.JPG,467,false,hl,keypress(j),0,true,382067.80000000075,382067.59999999776,375811.883,375820.8999999985,375828.75,382078.76,1,40,18,
sequence,flow.Sequence,8_17,2023-11-14T22:38:48.142Z,,,,,,,,,,6238.849999997765,completion,,,,,,,low,low,,,,,,false,,,,true,382067.8999999985,382067.59999999776,375811.883,375820.8999999985,375828.75,382078.76,1,40,,
trial,html.Screen,8_18_0,2023-11-14T22:38:56.263Z,,,,2,-0.0703653376600499,0.0206740478999942,,false,hh,8109.540000000736,response,0.327978849556485,0.4763248380230361,-0.4999999999999994,0.5770766498045617,0.4999999999999994,-0.472840013664157,high,high,,ISIC_4899386.JPG,,ISIC_0028984.JPG,407,false,hl,keypress(j),0,true,390188.5,390188.30000000075,382061.998,382067.8999999985,382078.76,390195.491,1,40,19,
sequence,flow.Sequence,8_18,2023-11-14T22:38:56.263Z,,,,,,,,,,8109.540000000736,completion,,,,,,,high,high,,,,,,false,,,,true,390188.80000000075,390188.30000000075,382061.998,382067.8999999985,382078.76,390195.491,1,40,,
trial,html.Screen,8_19_0,2023-11-14T22:38:59.455Z,,,,2,-0.0447960916594447,-0.0451557856659748,,true,hl,3184.90899999853,response,0.3211798862332903,0.4763248380230361,-0.4999999999999994,-0.4707271381735113,0.4999999999999994,-0.472840013664157,high,low,,ISIC_1379405.JPG,,ISIC_5484776.JPG,282,false,hl,keypress(j),0,true,393380.5,393380.3999999985,390178.598,390188.80000000075,390195.491,393395.523,1,40,20,
sequence,flow.Sequence,8_19,2023-11-14T22:38:59.455Z,,,,,,,,,,3184.90899999853,completion,,,,,,,high,low,,,,,,false,,,,true,393380.80000000075,393380.3999999985,390178.598,390188.80000000075,390195.491,393395.523,1,40,,
trial,html.Screen,8_20_0,2023-11-14T22:39:07.070Z,,,,2,-0.0367706518941078,0.0161069838272154,,true,ll,7599.876999998523,response,-0.3688045492361603,0.4263248380230361,-0.4999999999999994,-0.6559921137925869,0.4999999999999994,-0.47986587690430155,low,low,,ISIC_0033419.JPG,,ISIC_7914631.JPG,467,false,ll,keypress(f),0,true,400995.5,400995.3999999985,393378.81,393381,393395.523,401012.11,1,40,21,
sequence,flow.Sequence,8_20,2023-11-14T22:39:07.070Z,,,,,,,,,,7599.876999998523,completion,,,,,,,low,low,,,,,,false,,,,true,400995.69999999925,400995.3999999985,393378.81,393380.8999999985,393395.523,401012.11,1,40,,
trial,html.Screen,8_21_0,2023-11-14T22:39:12.558Z,,,,2,-0.0367744112927588,-0.0324865661712824,,false,hl,5471.489999997779,response,0.2814209767098595,0.4263248380230361,-0.4999999999999994,-0.471569075467678,0.4999999999999994,-0.47986587690430155,high,low,,ISIC_4523565.JPG,,ISIC_0055287.JPG,301,false,lh,keypress(e),0,true,406483.80000000075,406483.59999999776,400995.35,400995.80000000075,401012.11,406495.562,1,40,22,
sequence,flow.Sequence,8_21,2023-11-14T22:39:12.558Z,,,,,,,,,,5471.489999997779,completion,,,,,,,high,low,,,,,,false,,,,true,406483.8999999985,406483.59999999776,400995.35,400995.80000000075,401012.11,406495.562,1,40,,
trial,html.Screen,8_22_0,2023-11-14T22:39:18.254Z,,,,2,-0.0249297455748133,0.055986418955019,,false,lh,5684.238000000769,response,-0.5039211554118489,0.4763248380230361,-0.4999999999999994,0.4258960807284371,0.4999999999999994,-0.47986587690430155,low,high,,ISIC_3900049.JPG,,ISIC_0032133.JPG,236,false,hh,keypress(i),0,true,412180,412179.80000000075,406478.66,406483.8999999985,406495.562,412195.589,1,40,23,
sequence,flow.Sequence,8_22,2023-11-14T22:39:18.254Z,,,,,,,,,,5684.238000000769,completion,,,,,,,low,high,,,,,,false,,,,true,412180.19999999925,412179.80000000075,406478.66,406483.8999999985,406495.562,412195.589,1,40,,
trial,html.Screen,8_23_0,2023-11-14T22:39:26.095Z,,,,2,-0.0727065082131878,-0.0601627969482033,,false,ll,7824.810999998532,response,-0.4754940739672,0.4763248380230361,-0.4999999999999994,-0.4643762074141209,0.4999999999999994,-0.47986587690430155,low,low,,ISIC_2245069.JPG,,ISIC_0014221.JPG,467,false,hl,keypress(j),0,true,420020.59999999776,420020.3999999985,412178.697,412180.30000000075,412195.589,420028.836,1,40,24,
sequence,flow.Sequence,8_23,2023-11-14T22:39:26.095Z,,,,,,,,,,7824.810999998532,completion,,,,,,,low,low,,,,,,false,,,,true,420020.8999999985,420020.3999999985,412178.697,412180.30000000075,412195.589,420028.836,1,40,,
trial,html.Screen,8_24_0,2023-11-14T22:39:30.622Z,,,,2,0.0644356642124594,-0.0565130492997401,,false,lh,4518.863999999245,response,-0.3547781854921005,0.4763248380230361,-0.4999999999999994,0.4367780174666536,0.4999999999999994,-0.47986587690430155,low,high,,ISIC_7520843.JPG,,ISIC_8340256.JPG,236,false,hl,keypress(j),0,true,424547.80000000075,424547.69999999925,420011.95,420021,420028.836,424562.239,1,40,25,
sequence,flow.Sequence,8_24,2023-11-14T22:39:30.622Z,,,,,,,,,,4518.863999999245,completion,,,,,,,low,high,,,,,,false,,,,true,424548.09999999776,424547.69999999925,420011.95,420021,420028.836,424562.239,1,40,,
trial,html.Screen,8_25_0,2023-11-14T22:39:39.414Z,,,,2,-0.0715931084231032,0.011427878877272,,false,ll,8777.860999997763,response,-0.5842201153798159,0.4763248380230361,-0.4999999999999994,-0.6482881821715625,0.4999999999999994,-0.47986587690430155,low,low,,ISIC_1470250.JPG,,ISIC_0765585.JPG,467,false,hl,keypress(j),0,true,433340.19999999925,433340.09999999776,424545.509,424548.09999999776,424562.239,433345.524,1,40,26,
sequence,flow.Sequence,8_25,2023-11-14T22:39:39.415Z,,,,,,,,,,8777.860999997763,completion,,,,,,,low,low,,,,,,false,,,,true,433340.3999999985,433340.09999999776,424545.509,424548.09999999776,424562.239,433345.524,1,40,,
trial,html.Screen,8_26_0,2023-11-14T22:39:44.127Z,,,,2,-0.0258224118104549,0.0029364553353019,,false,hh,4706.675999999279,response,0.3470767966996619,0.4763248380230361,-0.4999999999999994,0.4903235618444233,0.4999999999999994,-0.47986587690430155,high,high,,ISIC_8325226.JPG,,ISIC_6132976.JPG,407,false,lh,keypress(e),0,true,438052.3999999985,438052.19999999925,433328.542,433340.5,433345.524,438062.229,1,40,27,
sequence,flow.Sequence,8_26,2023-11-14T22:39:44.127Z,,,,,,,,,,4706.675999999279,completion,,,,,,,high,high,,,,,,false,,,,true,438052.80000000075,438052.19999999925,433328.542,433340.3999999985,433345.524,438062.229,1,40,,
trial,html.Screen,8_27_0,2023-11-14T22:39:49.014Z,,,,2,0.0326050223870869,0.0579165897319751,,false,ll,4877.370999997773,response,-0.4846789909075447,0.4763248380230361,-0.4999999999999994,-0.3579529464170519,0.4999999999999994,-0.47986587690430155,low,low,,ISIC_4570724.JPG,,ISIC_0014114.JPG,467,false,hl,keypress(j),0,true,442939.59999999776,442939.59999999776,438045.393,438052.8999999985,438062.229,442945.594,1,40,28,
sequence,flow.Sequence,8_27,2023-11-14T22:39:49.014Z,,,,,,,,,,4877.370999997773,completion,,,,,,,low,low,,,,,,false,,,,true,442939.69999999925,442939.59999999776,438045.393,438052.80000000075,438062.229,442945.594,1,40,,
trial,html.Screen,8_28_0,2023-11-14T22:39:59.998Z,,,,2,-0.0480293506029756,-0.0744454320613987,,false,ll,10978.305999998527,response,-0.4762376189935846,0.4763248380230361,-0.4999999999999994,-0.4321479543308046,0.4999999999999994,-0.47986587690430155,low,low,,ISIC_1798471.JPG,,ISIC_7699223.JPG,467,false,lh,keypress(e),0,true,453924,453923.8999999985,442928.721,442939.80000000075,442945.594,453945.541,1,40,29,
sequence,flow.Sequence,8_28,2023-11-14T22:39:59.998Z,,,,,,,,,,10978.305999998527,completion,,,,,,,low,low,,,,,,false,,,,true,453924.19999999925,453923.8999999985,442928.721,442939.80000000075,442945.594,453945.541,1,40,,
trial,html.Screen,8_29_0,2023-11-14T22:40:10.638Z,,,,2,0.0374659946425444,0.0086043094957617,,false,ll,10618.558999997738,response,-0.3631444553616363,0.4763248380230361,-0.4999999999999994,-0.5087672851522869,0.4999999999999994,-0.47986587690430155,low,low,,ISIC_0033051.JPG,,ISIC_0032551.JPG,467,false,hl,keypress(j),0,true,464564.19999999925,464564.09999999776,453928.853,453924.3999999985,453945.541,464579.11,1,40,30,
sequence,flow.Sequence,8_29,2023-11-14T22:40:10.639Z,,,,,,,,,,10618.558999997738,completion,,,,,,,low,low,,,,,,false,,,,true,464564.5,464564.09999999776,453928.853,453924.30000000075,453945.541,464579.11,1,40,,
trial,html.Screen,8_30_0,2023-11-14T22:40:17.279Z,,,,2,-0.0727065082131878,-0.0601627969482033,,false,hl,6625.690000000759,response,0.3157479238867785,0.4763248380230361,-0.4999999999999994,-0.4184092844259016,0.4999999999999994,-0.47986587690430155,high,low,,ISIC_2245069.JPG,,ISIC_3009493.JPG,281,false,ll,keypress(f),0,true,471205.09999999776,471204.80000000075,464561.992,464564.59999999776,464579.11,471212.275,1,40,31,
sequence,flow.Sequence,8_30,2023-11-14T22:40:17.280Z,,,,,,,,,,6625.690000000759,completion,,,,,,,high,low,,,,,,false,,,,true,471205.5,471204.80000000075,464561.992,464564.5,464579.11,471212.275,1,40,,
trial,html.Screen,8_31_0,2023-11-14T22:40:27.935Z,,,,2,-0.0586798548295751,0.0060040805764433,,true,hl,10648.324999997742,response,0.2918745197189231,0.4763248380230361,-0.4999999999999994,-0.6679329000558144,0.4999999999999994,-0.47986587690430155,high,low,,ISIC_1552232.JPG,,ISIC_7562175.JPG,281,false,hl,keypress(j),0,true,481860.8999999985,481860.59999999776,471195.408,471205.69999999925,471212.275,481879.58,1,40,32,
sequence,flow.Sequence,8_31,2023-11-14T22:40:27.935Z,,,,,,,,,,10648.324999997742,completion,,,,,,,high,low,,,,,,false,,,,true,481861.19999999925,481860.59999999776,471195.408,471205.69999999925,471212.275,481879.58,1,40,,
trial,html.Screen,8_32_0,2023-11-14T22:40:33.087Z,,,,2,-0.0634150092059303,0.0177502973253611,,false,hh,5132.220000000729,response,0.4903889517776406,0.4763248380230361,-0.4999999999999994,0.3389781181126367,0.4999999999999994,-0.49317109224085803,high,high,,ISIC_0032433.JPG,,ISIC_0033496.JPG,407,false,lh,keypress(e),0,true,487012,487011.80000000075,481845.324,481861.5,481879.58,487029.036,1,40,33,
sequence,flow.Sequence,8_32,2023-11-14T22:40:33.087Z,,,,,,,,,,5132.220000000729,completion,,,,,,,high,high,,,,,,false,,,,true,487012.19999999925,487011.80000000075,481845.324,481861.3999999985,481879.58,487029.036,1,40,,
trial,html.Screen,8_33_0,2023-11-14T22:40:38.127Z,,,,2,0.0586587895724749,0.0220047273041276,,false,lh,5022.764000000723,response,-0.509078554188922,0.4763248380230361,-0.4999999999999994,0.3294375471326191,0.4999999999999994,-0.49317109224085803,low,high,,ISIC_0028320.JPG,,ISIC_6385074.JPG,236,false,hl,keypress(j),0,true,492051.8999999985,492051.80000000075,487012.101,487012.19999999925,487029.036,492062.388,1,40,34,
sequence,flow.Sequence,8_33,2023-11-14T22:40:38.127Z,,,,,,,,,,5022.764000000723,completion,,,,,,,low,high,,,,,,false,,,,true,492052,492051.80000000075,487012.101,487012.19999999925,487029.036,492062.388,1,40,,
trial,html.Screen,8_34_0,2023-11-14T22:40:42.712Z,,,,2,0.0607839218394147,0.0567408401627122,,false,hh,4574.211999997788,response,0.4960888893897615,0.4763248380230361,-0.4999999999999994,0.3005400967460773,0.4999999999999994,-0.49317109224085803,high,high,,ISIC_0026901.JPG,,ISIC_0033653.JPG,407,false,hl,keypress(j),0,true,496636.80000000075,496636.59999999776,492045.491,492052.09999999776,492062.388,496645.581,1,40,35,
sequence,flow.Sequence,8_34,2023-11-14T22:40:42.712Z,,,,,,,,,,4574.211999997788,completion,,,,,,,high,high,,,,,,false,,,,true,496637.3999999985,496636.59999999776,492045.491,492052.09999999776,492062.388,496645.581,1,40,,
trial,html.Screen,8_35_0,2023-11-14T22:40:47.679Z,,,,2,0.0418938536494534,-0.0678614270583654,,false,ll,4958.018999997759,response,-0.4755504912882455,0.4763248380230361,-0.4999999999999994,-0.2935958001391305,0.4999999999999994,-0.49317109224085803,low,low,,ISIC_0027573.JPG,,ISIC_0653633.JPG,459,false,hl,keypress(j),0,true,501603.69999999925,501603.59999999776,496628.905,496637.5,496645.581,501612.342,1,40,36,
sequence,flow.Sequence,8_35,2023-11-14T22:40:47.679Z,,,,,,,,,,4958.018999997759,completion,,,,,,,low,low,,,,,,false,,,,true,501603.8999999985,501603.59999999776,496628.905,496637.5,496645.581,501612.342,1,40,,
trial,html.Screen,8_36_0,2023-11-14T22:40:52.991Z,,,,2,-0.0286056110007553,-0.036125199756515,,false,lh,5303.657999999996,response,-0.3547781854921005,0.4763248380230361,-0.4999999999999994,0.4367780174666536,0.4999999999999994,-0.49317109224085803,low,high,,ISIC_6535558.JPG,,ISIC_8340256.JPG,236,false,hl,keypress(j),0,true,506916.19999999925,506916,501595.61,501603.8999999985,501612.342,506928.959,1,40,37,
sequence,flow.Sequence,8_36,2023-11-14T22:40:52.991Z,,,,,,,,,,5303.657999999996,completion,,,,,,,low,high,,,,,,false,,,,true,506916.3999999985,506916,501595.61,501603.8999999985,501612.342,506928.959,1,40,,
trial,html.Screen,8_37_0,2023-11-14T22:40:57.951Z,,,,2,-0.0715931084231032,0.011427878877272,,true,hl,4946.940999998536,response,0.2998479387724702,0.4763248380230361,-0.4999999999999994,-0.3241519745179422,0.4999999999999994,-0.49317109224085803,high,low,,ISIC_1470250.JPG,,ISIC_0009880.JPG,267,false,hl,keypress(j),0,true,511876,511875.8999999985,506912.079,506916.5,506928.959,511878.946,1,40,38,
sequence,flow.Sequence,8_37,2023-11-14T22:40:57.951Z,,,,,,,,,,4946.940999998536,completion,,,,,,,high,low,,,,,,false,,,,true,511876.30000000075,511875.8999999985,506912.079,506916.5,506928.959,511878.946,1,40,,
trial,html.Screen,8_38_0,2023-11-14T22:41:06.416Z,,,,2,0.0542893032276609,-0.0176656364422514,,true,lh,8461.554000000004,response,-0.6045952254527632,0.4263248380230361,-0.4999999999999994,0.5087911048959001,0.4999999999999994,-0.44317109224085804,low,high,,ISIC_0024516.JPG,,ISIC_7888517.JPG,236,false,lh,keypress(e),0,true,520340.69999999925,520340.5,511862.195,511876.30000000075,511878.946,520345.606,1,40,39,
sequence,flow.Sequence,8_38,2023-11-14T22:41:06.416Z,,,,,,,,,,8461.554000000004,completion,,,,,,,low,high,,,,,,false,,,,true,520341.09999999776,520340.5,511862.195,511876.30000000075,511878.946,520345.606,1,40,,
trial,html.Screen,8_39_0,2023-11-14T22:41:14.319Z,,,,2,-0.0394300226801425,0.0536115913979284,,true,ll,7898.393999999971,response,-0.4598581117316851,0.4263248380230361,-0.4999999999999994,-0.2586271182910612,0.4999999999999994,-0.44317109224085804,low,low,,ISIC_0046983.JPG,,ISIC_2030997.JPG,481,false,ll,keypress(f),0,true,528244,528244,520328.88,520341.19999999925,520345.606,528262.808,1,40,40,
sequence,flow.Sequence,8_39,2023-11-14T22:41:14.319Z,,,,,,,,,,7898.393999999971,completion,,,,,,,low,low,,,,,,false,,,,true,528244.3000000007,528244,520328.88,520341.19999999925,520345.606,528262.808,1,40,,
stair_loop,flow.Loop,8,2023-11-14T22:41:14.319Z,,,,,,,,,,283282.061,completion,,,,,,,,,,,,,,false,,,,true,528244.3999999985,528244,244945.514,244955.80000000075,244961.939,528262.808,1,40,,
exp_instructions,html.Screen,9,2023-11-14T22:41:20.655Z,,,,,,,,,,6316.591999998549,response,,,,,,,,,,,,,,,continue,keypress(Space),,,534579.8000000007,534579.3999999985,528228.831,528244.5,528262.808,534595.67,,,,
trial,html.Screen,10_0_0,2023-11-14T22:41:28.843Z,,,,1,-0.0700576547090477,0.0026956749740767,,false,lh,8172.630000000703,response,-0.3195742451227316,0.46632483802303615,-0.4999999999999994,0.680427473682068,0.4999999999999994,-0.4801879630389241,low,high,,ISIC_7212271.JPG,9,ISIC_0060979.JPG,236,false,ll,keypress(f),0,false,542768.3999999985,542768.3000000007,534578.945,534580,534595.67,542779.051,4,500,1,
break,html.Screen,10_0_1,2023-11-14T22:41:28.844Z,,,,,,,,,,NaN,,,,,,,,low,high,,,,,,false,,,,false,542769.1999999993,542768.8999999985,,542768.5999999978,,542779.051,4,500,,
break_continue,html.Screen,10_0_2,2023-11-14T22:41:28.844Z,,,,,,,,,,NaN,,,,,,,,low,high,,,,,,false,,,,false,542769.5,542769.3999999985,,542769.1999999993,,542779.051,4,500,,
sequence,flow.Sequence,10_0,2023-11-14T22:41:28.845Z,,,,,,,,,,8173.729999998468,completion,,,,,,,low,high,,,,,,false,,,,false,542769.6999999993,542769.3999999985,534578.945,534580,534595.67,542779.051,4,500,,
trial,html.Screen,10_1_0,2023-11-14T22:41:33.385Z,,,,1,0.0107170641394226,-0.0596294643429623,,true,hl,4529.249000000767,response,0.3407140088493364,0.46632483802303615,-0.4999999999999994,-0.615258386465835,0.4999999999999994,-0.4801879630389241,high,low,,ISIC_0005291.JPG,11,ISIC_4288845.JPG,280,false,hl,keypress(j),0,false,547308.5,547308.3000000007,542762.235,542769.8000000007,542779.051,547312.37,4,500,2,
break,html.Screen,10_1_1,2023-11-14T22:41:33.386Z,,,,,,,,,,NaN,,,,,,,,high,low,,,,,,false,,,,false,547309.1999999993,547308.8999999985,,547308.5999999978,,547312.37,4,500,,
break_continue,html.Screen,10_1_2,2023-11-14T22:41:33.386Z,,,,,,,,,,NaN,,,,,,,,high,low,,,,,,false,,,,false,547309.6999999993,547309.3999999985,,547309.1999999993,,547312.37,4,500,,
sequence,flow.Sequence,10_1,2023-11-14T22:41:33.386Z,,,,,,,,,,4530.348999998532,completion,,,,,,,high,low,,,,,,false,,,,false,547309.8000000007,547309.3999999985,542762.235,542769.8000000007,542779.051,547312.37,4,500,,
trial,html.Screen,10_2_0,2023-11-14T22:41:34.921Z,,,,1,-0.0572065166118795,0.0247840126545907,,true,ll,1532.0299999985145,response,-0.4749399048483686,0.46632483802303615,-0.4999999999999994,-0.6409305615360108,0.4999999999999994,-0.4801879630389241,low,low,,ISIC_0024565.JPG,9,ISIC_2753279.JPG,467,false,ll,keypress(f),0,false,548844.6999999993,548844.3999999985,547295.637,547310,547312.37,548862.368,4,500,3,
break,html.Screen,10_2_1,2023-11-14T22:41:34.922Z,,,,,,,,,,NaN,,,,,,,,low,low,,,,,,false,,,,false,548845.6999999993,548845.5,,548845,,548862.368,4,500,,
break_continue,html.Screen,10_2_2,2023-11-14T22:41:34.923Z,,,,,,,,,,NaN,,,,,,,,low,low,,,,,,false,,,,false,548846.3000000007,548846,,548845.8999999985,,548862.368,4,500,,
sequence,flow.Sequence,10_2,2023-11-14T22:41:34.923Z,,,,,,,,,,1533.6300000000047,completion,,,,,,,low,low,,,,,,false,,,,false,548846.5,548846,547295.637,547310,547312.37,548862.368,4,500,,
trial,html.Screen,10_3_0,2023-11-14T22:41:36.544Z,,,,1,0.0644356642124594,-0.0565130492997401,,false,ll,1605.4320000007283,response,-0.5436316244290208,0.46632483802303615,-0.4999999999999994,-0.3874694782882114,0.4999999999999994,-0.4801879630389241,low,low,,ISIC_7520843.JPG,9,ISIC_4102922.JPG,467,false,hh,keypress(i),0,false,550467.8000000007,550467.8000000007,548829.101,548846.5999999978,548862.368,550479.144,4,500,4,
break,html.Screen,10_3_1,2023-11-14T22:41:36.545Z,,,,,,,,,,NaN,,,,,,,,low,low,,,,,,false,,,,false,550468.1999999993,550468,,550467.8999999985,,550479.144,4,500,,
break_continue,html.Screen,10_3_2,2023-11-14T22:41:36.545Z,,,,,,,,,,NaN,,,,,,,,low,low,,,,,,false,,,,false,550468.3000000007,550468.3000000007,,550468.1999999993,,550479.144,4,500,,
sequence,flow.Sequence,10_3,2023-11-14T22:41:36.545Z,,,,,,,,,,1605.9320000007283,completion,,,,,,,low,low,,,,,,false,,,,false,550468.5,550468.3000000007,548829.101,548846.5999999978,548862.368,550479.144,4,500,,
trial,html.Screen,10_4_0,2023-11-14T22:41:38.465Z,,,,1,-0.0447960916594447,-0.0451557856659748,,false,hh,1908.9559999977937,response,0.4513975171733412,0.46632483802303615,-0.4999999999999994,0.410903857284249,0.4999999999999994,-0.4801879630389241,high,high,,ISIC_1379405.JPG,9,ISIC_0000213.JPG,411,false,lh,keypress(e),0,false,552388.1999999993,552388.0999999978,550462.551,550468.5,550479.144,552395.741,4,500,5,
break,html.Screen,10_4_1,2023-11-14T22:41:38.465Z,,,,,,,,,,NaN,,,,,,,,high,high,,,,,,false,,,,false,552388.8000000007,552388.6999999993,,552388.3999999985,,552395.741,4,500,,
break_continue,html.Screen,10_4_2,2023-11-14T22:41:38.466Z,,,,,,,,,,NaN,,,,,,,,high,high,,,,,,false,,,,false,552389.1999999993,552389,,552388.8000000007,,552395.741,4,500,,
sequence,flow.Sequence,10_4,2023-11-14T22:41:38.466Z,,,,,,,,,,1909.8560000000289,completion,,,,,,,high,high,,,,,,false,,,,false,552389.3000000007,552389,550462.551,550468.5,550479.144,552395.741,4,500,,
trial,html.Screen,10_5_0,2023-11-14T22:41:39.721Z,,,,1,0.0495531443078245,0.0310660434153916,,false,ll,1248.3589999977266,response,-0.5460710479664818,0.46632483802303615,-0.4999999999999994,-0.3028117630836955,0.4999999999999994,-0.4801879630389241,low,low,,ISIC_0013719.JPG,9,ISIC_1962845.JPG,467,false,hl,keypress(j),0,false,553644.3000000007,553644.0999999978,552379.026,552389.3999999985,552395.741,553663.22,4,500,6,
break,html.Screen,10_5_1,2023-11-14T22:41:39.721Z,,,,,,,,,,NaN,,,,,,,,low,low,,,,,,false,,,,false,553645,553644.6999999993,,553644.5,,553663.22,4,500,,
break_continue,html.Screen,10_5_2,2023-11-14T22:41:39.722Z,,,,,,,,,,NaN,,,,,,,,low,low,,,,,,false,,,,false,553645.3000000007,553645.0999999978,,553645,,553663.22,4,500,,
sequence,flow.Sequence,10_5,2023-11-14T22:41:39.722Z,,,,,,,,,,1249.3589999977266,completion,,,,,,,low,low,,,,,,false,,,,false,553645.3999999985,553645.0999999978,552379.026,552389.3999999985,552395.741,553663.22,4,500,,
trial,html.Screen,10_6_0,2023-11-14T22:41:40.785Z,,,,1,-0.0394300226801425,0.0536115913979284,,false,hh,1044.6799999985378,response,0.4493148293330686,0.46632483802303615,-0.4999999999999994,0.3494435231998525,0.4999999999999994,-0.4801879630389241,high,high,,ISIC_0046983.JPG,9,ISIC_0011086.JPG,411,false,lh,keypress(e),0,false,554708.0999999978,554707.8999999985,553629.237,553645.5999999978,553663.22,554729.287,4,500,7,
break,html.Screen,10_6_1,2023-11-14T22:41:40.785Z,,,,,,,,,,NaN,,,,,,,,high,high,,,,,,false,,,,false,554708.6999999993,554708.5999999978,,554708.3000000007,,554729.287,4,500,,
break_continue,html.Screen,10_6_2,2023-11-14T22:41:40.786Z,,,,,,,,,,NaN,,,,,,,,high,high,,,,,,false,,,,false,554709.0999999978,554708.8999999985,,554708.8000000007,,554729.287,4,500,,
sequence,flow.Sequence,10_6,2023-11-14T22:41:40.786Z,,,,,,,,,,1045.6799999985378,completion,,,,,,,high,high,,,,,,false,,,,false,554709.1999999993,554708.8999999985,553629.237,553645.5999999978,553663.22,554729.287,4,500,,
trial,html.Screen,10_7_0,2023-11-14T22:41:44.673Z,,,,1,0.044991036470624,-0.0185124638005965,,true,hl,3867.4129999992438,response,0.3190441006711638,0.46632483802303615,-0.4999999999999994,-0.4000195945387447,0.4999999999999994,-0.4801879630389241,high,low,,ISIC_2457859.JPG,9,ISIC_0032112.JPG,280,false,hl,keypress(j),0,false,558596.8999999985,558596.6999999993,554712.378,554709.3000000007,554729.287,558612.418,4,500,8,
break,html.Screen,10_7_1,2023-11-14T22:41:44.674Z,,,,,,,,,,NaN,,,,,,,,high,low,,,,,,false,,,,false,558597.6999999993,558597.5999999978,,558597.0999999978,,558612.418,4,500,,
break_continue,html.Screen,10_7_2,2023-11-14T22:41:44.675Z,,,,,,,,,,NaN,,,,,,,,high,low,,,,,,false,,,,false,558598.5,558598.1999999993,,558598,,558612.418,4,500,,
sequence,flow.Sequence,10_7,2023-11-14T22:41:44.675Z,,,,,,,,,,3868.9129999992438,completion,,,,,,,high,low,,,,,,false,,,,false,558598.6999999993,558598.1999999993,554712.378,554709.3000000007,554729.287,558612.418,4,500,,
trial,html.Screen,10_8_0,2023-11-14T22:41:52.329Z,,,,1,-0.0464691161264081,-0.0535296539628673,,false,ll,7640.181999997818,response,-0.5775881213191619,0.46632483802303615,-0.4999999999999994,-0.3825311665697594,0.4999999999999994,-0.4801879630389241,low,low,,ISIC_0758797.JPG,9,ISIC_0033083.JPG,467,false,lh,keypress(e),0,false,566252.8999999985,566252.5999999978,558595.894,558598.8000000007,558612.418,566262.358,4,500,9,
break,html.Screen,10_8_1,2023-11-14T22:41:52.330Z,,,,,,,,,,NaN,,,,,,,,low,low,,,,,,false,,,,false,566253.8000000007,566253.3999999985,,566253.0999999978,,566262.358,4,500,,
break_continue,html.Screen,10_8_2,2023-11-14T22:41:52.331Z,,,,,,,,,,NaN,,,,,,,,low,low,,,,,,false,,,,false,566254.3999999985,566254.0999999978,,566253.8999999985,,566262.358,4,500,,
sequence,flow.Sequence,10_8,2023-11-14T22:41:52.331Z,,,,,,,,,,7641.681999997818,completion,,,,,,,low,low,,,,,,false,,,,false,566254.5999999978,566254.0999999978,558595.894,558598.8000000007,558612.418,566262.358,4,500,,
trial,html.Screen,10_9_0,2023-11-14T22:41:58.777Z,,,,1,0.055893254685579,0.0187125006410995,,false,ll,6437.541999998502,response,-0.6142171527599622,0.46632483802303615,-0.4999999999999994,-0.4664130646979357,0.4999999999999994,-0.4801879630389241,low,low,,ISIC_0011779.JPG,9,ISIC_9947624.JPG,467,false,hl,keypress(j),0,false,572700,572699.8999999985,566245.75,566254.6999999993,566262.358,572712.353,4,500,10,
break,html.Screen,10_9_1,2023-11-14T22:41:58.777Z,,,,,,,,,,NaN,,,,,,,,low,low,,,,,,false,,,,false,572700.5,572700.3999999985,,572700.1999999993,,572712.353,4,500,,
break_continue,html.Screen,10_9_2,2023-11-14T22:41:58.777Z,,,,,,,,,,NaN,,,,,,,,low,low,,,,,,false,,,,false,572700.8000000007,572700.6999999993,,572700.5999999978,,572712.353,4,500,,
sequence,flow.Sequence,10_9,2023-11-14T22:41:58.778Z,,,,,,,,,,6438.3419999992475,completion,,,,,,,low,low,,,,,,false,,,,false,572701,572700.6999999993,566245.75,566254.6999999993,566262.358,572712.353,4,500,,
trial,html.Screen,10_10_0,2023-11-14T22:42:08.817Z,,,,1,0.0367060100866019,0.0630207980628495,,false,lh,10027.447000000742,response,-0.4398504909140056,0.46632483802303615,-0.4999999999999994,0.3199562806487943,0.4999999999999994,-0.4801879630389241,low,high,,ISIC_0028396.JPG,9,ISIC_9338761.JPG,236,false,hh,keypress(i),0,false,582740,582739.8000000007,572695.737,572701.0999999978,572712.353,582762.377,4,500,11,
break,html.Screen,10_10_1,2023-11-14T22:42:08.817Z,,,,,,,,,,NaN,,,,,,,,low,high,,,,,,false,,,,false,582740.5,582740.5,,582740.1999999993,,582762.377,4,500,,
break_continue,html.Screen,10_10_2,2023-11-14T22:42:08.817Z,,,,,,,,,,NaN,,,,,,,,low,high,,,,,,false,,,,false,582740.8999999985,582740.6999999993,,582740.6999999993,,582762.377,4,500,,
sequence,flow.Sequence,10_10,2023-11-14T22:42:08.818Z,,,,,,,,,,10028.346999999252,completion,,,,,,,low,high,,,,,,false,,,,false,582741.0999999978,582740.6999999993,572695.737,572701,572712.353,582762.377,4,500,,
trial,html.Screen,10_11_0,2023-11-14T22:42:13.729Z,,,,1,-0.0076984477620101,-0.0069458408496562,,false,lh,4890.123000000021,response,-0.5451509630947735,0.46632483802303615,-0.4999999999999994,0.672507692695175,0.4999999999999994,-0.4801879630389241,low,high,,ISIC_0000434.JPG,9,ISIC_0001149.JPG,236,false,hl,keypress(j),0,false,587652.8000000007,587652.5,582745.718,582741.1999999993,582762.377,587662.393,4,500,12,
break,html.Screen,10_11_1,2023-11-14T22:42:13.730Z,,,,,,,,,,NaN,,,,,,,,low,high,,,,,,false,,,,false,587653.5999999978,587653.3999999985,,587653.0999999978,,587662.393,4,500,,
break_continue,html.Screen,10_11_2,2023-11-14T22:42:13.731Z,,,,,,,,,,NaN,,,,,,,,low,high,,,,,,false,,,,false,587654.3000000007,587654,,587653.8000000007,,587662.393,4,500,,
sequence,flow.Sequence,10_11,2023-11-14T22:42:13.731Z,,,,,,,,,,4891.623000000021,completion,,,,,,,low,high,,,,,,false,,,,false,587654.5,587654,582745.718,582741.1999999993,582762.377,587662.393,4,500,,
trial,html.Screen,10_12_0,2023-11-14T22:42:17.081Z,,,,1,-0.0085390023861227,-0.051110950799465,,false,lh,3341.706999997725,response,-0.5268897351432202,0.46632483802303615,-0.4999999999999994,0.3402457294440664,0.4999999999999994,-0.4801879630389241,low,high,,ISIC_6268546.JPG,9,ISIC_0030519.JPG,236,false,hh,keypress(i),0,false,591004.1999999993,591004.0999999978,587645.697,587654.5999999978,587662.393,591012.409,4,500,13,
break,html.Screen,10_12_1,2023-11-14T22:42:17.081Z,,,,,,,,,,NaN,,,,,,,,low,high,,,,,,false,,,,false,591004.8999999985,591004.8000000007,,591004.3999999985,,591012.409,4,500,,
break_continue,html.Screen,10_12_2,2023-11-14T22:42:17.082Z,,,,,,,,,,NaN,,,,,,,,low,high,,,,,,false,,,,false,591005.3000000007,591005.0999999978,,591004.8999999985,,591012.409,4,500,,
sequence,flow.Sequence,10_12,2023-11-14T22:42:17.082Z,,,,,,,,,,3342.706999997725,completion,,,,,,,low,high,,,,,,false,,,,false,591005.5,591005.0999999978,587645.697,587654.5999999978,587662.393,591012.409,4,500,,
trial,html.Screen,10_13_0,2023-11-14T22:42:20.488Z,,,,1,0.039520186367207,0.0377961575607372,,false,hl,3399.091000000015,response,0.3855834796403247,0.46632483802303615,-0.4999999999999994,-0.670842510652198,0.4999999999999994,-0.4801879630389241,high,low,,ISIC_6356149.JPG,9,ISIC_1706912.JPG,280,false,ll,keypress(f),0,false,594411.5999999978,594411.5,590995.751,591005.5,591012.409,594429.798,4,500,14,
break,html.Screen,10_13_1,2023-11-14T22:42:20.488Z,,,,,,,,,,NaN,,,,,,,,high,low,,,,,,false,,,,false,594411.8999999985,594411.8000000007,,594411.6999999993,,594429.798,4,500,,
break_continue,html.Screen,10_13_2,2023-11-14T22:42:20.489Z,,,,,,,,,,NaN,,,,,,,,high,low,,,,,,false,,,,false,594412.0999999978,594412,,594411.8999999985,,594429.798,4,500,,
sequence,flow.Sequence,10_13,2023-11-14T22:42:20.489Z,,,,,,,,,,3399.591000000015,completion,,,,,,,high,low,,,,,,false,,,,false,594412.1999999993,594412,590995.751,591005.5,591012.409,594429.798,4,500,,
trial,html.Screen,10_14_0,2023-11-14T22:42:29.610Z,,,,1,0.0200376619013301,0.0451764418954947,,false,ll,9101.601999998558,response,-0.6203065255520929,0.46632483802303615,-0.4999999999999994,-0.4882228758295148,0.4999999999999994,-0.4801879630389241,low,low,,ISIC_0026087.JPG,10,ISIC_1731109.JPG,467,false,lh,keypress(e),0,false,603531.5999999978,603531.3999999985,594395.674,594412.1999999993,594429.798,603545.997,4,500,15,
break,html.Screen,10_14_1,2023-11-14T22:42:29.610Z,,,,,,,,,,NaN,,,,,,,,low,low,,,,,,false,,,,false,603531.8999999985,603531.8000000007,,603531.6999999993,,603545.997,4,500,,
break_continue,html.Screen,10_14_2,2023-11-14T22:42:29.611Z,,,,,,,,,,NaN,,,,,,,,low,low,,,,,,false,,,,false,603532.0999999978,603532,,603532,,603545.997,4,500,,
sequence,flow.Sequence,10_14,2023-11-14T22:42:29.611Z,,,,,,,,,,9102.202000000048,completion,,,,,,,low,low,,,,,,false,,,,false,603532.3000000007,603532,594395.674,594412.1999999993,594429.798,603545.997,4,500,,
trial,html.Screen,10_15_0,2023-11-14T22:42:40.609Z,,,,1,-0.0118382036798625,-0.0300588245877227,,,,11016.437000000034,timeout,0.383855509928194,0.46632483802303615,-0.4999999999999994,-0.352794800820947,0.4999999999999994,-0.4801879630389241,high,low,,ISIC_4748605.JPG,9,ISIC_0068837.JPG,280,false,,,0,false,614530.3000000007,614529.8999999985,603529.231,603532.3999999985,603545.997,614562.434,4,500,16,
break,html.Screen,10_15_1,2023-11-14T22:42:40.610Z,,,,,,,,,,NaN,,,,,,,,high,low,,,,,,false,,,,false,614531.5,614531.0999999978,,614530.6999999993,,614562.434,4,500,,
break_continue,html.Screen,10_15_2,2023-11-14T22:42:40.611Z,,,,,,,,,,NaN,,,,,,,,high,low,,,,,,false,,,,false,614532.3999999985,614531.8999999985,,614531.6999999993,,614562.434,4,500,,
sequence,flow.Sequence,10_15,2023-11-14T22:42:40.611Z,,,,,,,,,,10985.902999998536,completion,,,,,,,high,low,,,,,,false,,,,false,614532.6999999993,614531.8999999985,603529.231,603532.3999999985,603545.997,614562.434,4,500,,
trial,html.Screen,10_16_0,2023-11-14T22:42:42.003Z,,,,1,0.0478761683145946,-0.012927090508672,,true,lh,1361.6659999977564,response,-0.5604595516398297,0.46632483802303615,-0.4999999999999994,0.6710037550860145,0.4999999999999994,-0.4801879630389241,low,high,,ISIC_9631669.JPG,8,ISIC_4303228.JPG,236,false,lh,keypress(e),0,false,615924.1999999993,615924.0999999978,614545.785,614533,614562.434,615929.114,4,500,17,
break,html.Screen,10_16_1,2023-11-14T22:42:42.003Z,,,,,,,,,,NaN,,,,,,,,low,high,,,,,,false,,,,false,615924.5999999978,615924.5999999978,,615924.3000000007,,615929.114,4,500,,
break_continue,html.Screen,10_16_2,2023-11-14T22:42:42.003Z,,,,,,,,,,NaN,,,,,,,,low,high,,,,,,false,,,,false,615925,615924.8999999985,,615924.6999999993,,615929.114,4,500,,
sequence,flow.Sequence,10_16,2023-11-14T22:42:42.004Z,,,,,,,,,,1362.4659999985015,completion,,,,,,,low,high,,,,,,false,,,,false,615925.0999999978,615924.8999999985,614545.785,614532.8999999985,614562.434,615929.114,4,500,,
trial,html.Screen,10_17_0,2023-11-14T22:42:46.331Z,,,,1,0.0367060100866019,0.0630207980628495,,false,ll,4323.085999999312,response,-0.4121356054017115,0.46632483802303615,-0.4999999999999994,-0.5363261192200737,0.4999999999999994,-0.4801879630389241,low,low,,ISIC_0028396.JPG,8,ISIC_7253401.JPG,467,false,hh,keypress(i),0,false,620252.3999999985,620252.1999999993,615912.421,615925.3000000007,615929.114,620262.529,4,500,18,
break,html.Screen,10_17_1,2023-11-14T22:42:46.331Z,,,,,,,,,,NaN,,,,,,,,low,low,,,,,,false,,,,false,620253,620252.8999999985,,620252.5,,620262.529,4,500,,
break_continue,html.Screen,10_17_2,2023-11-14T22:42:46.332Z,,,,,,,,,,NaN,,,,,,,,low,low,,,,,,false,,,,false,620253.3999999985,620253.1999999993,,620253.0999999978,,620262.529,4,500,,
sequence,flow.Sequence,10_17,2023-11-14T22:42:46.332Z,,,,,,,,,,4324.085999999312,completion,,,,,,,low,low,,,,,,false,,,,false,620253.5,620253.1999999993,615912.421,615925.1999999993,615929.114,620262.529,4,500,,
trial,html.Screen,10_18_0,2023-11-14T22:42:53.715Z,,,,1,0.0478761683145946,-0.012927090508672,,true,lh,7373.570999997784,response,-0.3148009022422365,0.46632483802303615,-0.4999999999999994,0.4296784230117955,0.4999999999999994,-0.4801879630389241,low,high,,ISIC_9631669.JPG,9,ISIC_9544832.JPG,236,false,lh,keypress(e),0,false,627636.3999999985,627636.0999999978,620245.795,620253.6999999993,620262.529,627645.84,4,500,19,
break,html.Screen,10_18_1,2023-11-14T22:42:53.715Z,,,,,,,,,,NaN,,,,,,,,low,high,,,,,,false,,,,false,627636.8999999985,627636.8000000007,,627636.5999999978,,627645.84,4,500,,
break_continue,html.Screen,10_18_2,2023-11-14T22:42:53.716Z,,,,,,,,,,NaN,,,,,,,,low,high,,,,,,false,,,,false,627637.3999999985,627637.1999999993,,627637.0999999978,,627645.84,4,500,,
sequence,flow.Sequence,10_18,2023-11-14T22:42:53.716Z,,,,,,,,,,7374.6709999992745,completion,,,,,,,low,high,,,,,,false,,,,false,627637.5,627637.1999999993,620245.795,620253.6999999993,620262.529,627645.84,4,500,,
trial,html.Screen,10_19_0,2023-11-14T22:42:57.210Z,,,,1,0.0478761683145946,-0.012927090508672,,true,lh,3485.9600000007777,response,-0.6636359310119,0.46632483802303615,-0.4999999999999994,0.3390886954347484,0.4999999999999994,-0.4801879630389241,low,high,,ISIC_9631669.JPG,9,ISIC_4131353.JPG,236,false,lh,keypress(e),0,false,631132,631131.8000000007,627629.152,627637.5999999978,627645.84,631145.817,4,500,20,
break,html.Screen,10_19_1,2023-11-14T22:42:57.211Z,,,,,,,,,,NaN,,,,,,,,low,high,,,,,,false,,,,false,631132.5,631132.3999999985,,631132.1999999993,,631145.817,4,500,,
break_continue,html.Screen,10_19_2,2023-11-14T22:42:57.211Z,,,,,,,,,,NaN,,,,,,,,low,high,,,,,,false,,,,false,631132.8999999985,631132.8000000007,,631132.6999999993,,631145.817,4,500,,
sequence,flow.Sequence,10_19,2023-11-14T22:42:57.211Z,,,,,,,,,,3486.9600000007777,completion,,,,,,,low,high,,,,,,false,,,,false,631133.0999999978,631132.8000000007,627629.152,627637.5999999978,627645.84,631145.817,4,500,,
trial,html.Screen,10_20_0,2023-11-14T22:43:01.507Z,,,,1,-0.0267918352484299,-0.0630167830859455,,false,hl,4282.483000000706,response,0.5935406865478525,0.46632483802303615,-0.4999999999999994,-0.6173559107471093,0.4999999999999994,-0.4801879630389241,high,low,,ISIC_0064874.JPG,9,ISIC_1806179.JPG,280,false,lh,keypress(e),0,false,635428.5,635428.3000000007,631129.193,631133.1999999993,631145.817,635446.033,4,500,21,
break,html.Screen,10_20_1,2023-11-14T22:43:01.508Z,,,,,,,,,,NaN,,,,,,,,high,low,,,,,,false,,,,false,635429.0999999978,635429,,635428.6999999993,,635446.033,4,500,,
break_continue,html.Screen,10_20_2,2023-11-14T22:43:01.508Z,,,,,,,,,,NaN,,,,,,,,high,low,,,,,,false,,,,false,635429.6999999993,635429.3999999985,,635429.3000000007,,635446.033,4,500,,
sequence,flow.Sequence,10_20,2023-11-14T22:43:01.508Z,,,,,,,,,,4283.582999998471,completion,,,,,,,high,low,,,,,,false,,,,false,635429.8000000007,635429.3999999985,631129.193,631133.1999999993,631145.817,635446.033,4,500,,
trial,html.Screen,10_21_0,2023-11-14T22:43:04.251Z,,,,1,0.039520186367207,0.0377961575607372,,false,hl,2726.066999997711,response,0.3720661229794769,0.46632483802303615,-0.4999999999999994,-0.4281296275179169,0.4999999999999994,-0.4801879630389241,high,low,,ISIC_6356149.JPG,9,ISIC_8516223.JPG,280,false,lh,keypress(e),0,false,638172.3000000007,638172.0999999978,635412.49,635430,635446.033,638179.096,4,500,22,
break,html.Screen,10_21_1,2023-11-14T22:43:04.251Z,,,,,,,,,,NaN,,,,,,,,high,low,,,,,,false,,,,false,638172.8000000007,638172.8000000007,,638172.5,,638179.096,4,500,,
break_continue,html.Screen,10_21_2,2023-11-14T22:43:04.252Z,,,,,,,,,,NaN,,,,,,,,high,low,,,,,,false,,,,false,638173.3000000007,638173.0999999978,,638173,,638179.096,4,500,,
sequence,flow.Sequence,10_21,2023-11-14T22:43:04.252Z,,,,,,,,,,2727.066999997711,completion,,,,,,,high,low,,,,,,false,,,,false,638173.3999999985,638173.0999999978,635412.49,635430,635446.033,638179.096,4,500,,
trial,html.Screen,10_22_0,2023-11-14T22:43:10.803Z,,,,1,-0.0715931084231032,0.011427878877272,,false,lh,6544.90399999998,response,-0.4407511298470755,0.46632483802303615,-0.4999999999999994,0.3183049310244018,0.4999999999999994,-0.4801879630389241,low,high,,ISIC_1470250.JPG,9,ISIC_0013084.JPG,236,false,ll,keypress(f),0,false,644724.0999999978,644724,638162.582,638173.5999999978,638179.096,644729.126,4,500,23,
break,html.Screen,10_22_1,2023-11-14T22:43:10.803Z,,,,,,,,,,NaN,,,,,,,,low,high,,,,,,false,,,,false,644724.5999999978,644724.5,,644724.3000000007,,644729.126,4,500,,
break_continue,html.Screen,10_22_2,2023-11-14T22:43:10.803Z,,,,,,,,,,NaN,,,,,,,,low,high,,,,,,false,,,,false,644725,644724.8000000007,,644724.6999999993,,644729.126,4,500,,
sequence,flow.Sequence,10_22,2023-11-14T22:43:10.803Z,,,,,,,,,,6545.7040000007255,completion,,,,,,,low,high,,,,,,false,,,,false,644725.0999999978,644724.8000000007,638162.582,638173.5999999978,638179.096,644729.126,4,500,,
trial,html.Screen,10_23_0,2023-11-14T22:43:16.642Z,,,,1,-0.0258224118104549,0.0029364553353019,,true,lh,5834.773999998462,response,-0.3653189671979873,0.46632483802303615,-0.4999999999999994,0.664165378861265,0.4999999999999994,-0.4801879630389241,low,high,,ISIC_8325226.JPG,9,ISIC_0031155.JPG,236,false,lh,keypress(e),0,false,650564,650563.8999999985,644712.443,644725.1999999993,644729.126,650579.343,4,500,24,
break,html.Screen,10_23_1,2023-11-14T22:43:16.643Z,,,,,,,,,,NaN,,,,,,,,low,high,,,,,,false,,,,false,650564.3000000007,650564.1999999993,,650564.0999999978,,650579.343,4,500,,
break_continue,html.Screen,10_23_2,2023-11-14T22:43:16.643Z,,,,,,,,,,NaN,,,,,,,,low,high,,,,,,false,,,,false,650564.5999999978,650564.5,,650564.3999999985,,650579.343,4,500,,
sequence,flow.Sequence,10_23,2023-11-14T22:43:16.643Z,,,,,,,,,,5835.3739999999525,completion,,,,,,,low,high,,,,,,false,,,,false,650564.6999999993,650564.5,644712.443,644725.1999999993,644729.126,650579.343,4,500,,
trial,html.Screen,10_24_0,2023-11-14T22:43:22.946Z,,,,1,0.049790040126711,-0.0195291725171472,,false,hh,6288.556999998516,response,0.2888992432527152,0.46632483802303615,-0.4999999999999994,0.5625657264212047,0.4999999999999994,-0.4801879630389241,high,high,,ISIC_0372902.JPG,8,ISIC_0014903.JPG,411,false,ll,keypress(f),0,false,656868,656867.8999999985,650562.509,650564.6999999993,650579.343,656879.21,4,500,25,
break,html.Screen,10_24_1,2023-11-14T22:43:22.947Z,,,,,,,,,,NaN,,,,,,,,high,high,,,,,,false,,,,false,656868.5999999978,656868.5,,656868.1999999993,,656879.21,4,500,,
break_continue,html.Screen,10_24_2,2023-11-14T22:43:22.947Z,,,,,,,,,,NaN,,,,,,,,high,high,,,,,,false,,,,false,656869,656868.8999999985,,656868.6999999993,,656879.21,4,500,,
sequence,flow.Sequence,10_24,2023-11-14T22:43:22.947Z,,,,,,,,,,6289.556999998516,completion,,,,,,,high,high,,,,,,false,,,,false,656869.0999999978,656868.8999999985,650562.509,650564.6999999993,650579.343,656879.21,4,500,,
trial,html.Screen,10_25_0,2023-11-14T22:43:28.435Z,,,,1,-0.0480293506029756,-0.0744454320613987,,false,ll,5477.389999997802,response,-0.4512474075714766,0.46632483802303615,-0.4999999999999994,-0.5643945346492624,0.4999999999999994,-0.4801879630389241,low,low,,ISIC_1798471.JPG,9,ISIC_0010555.JPG,467,false,hh,keypress(i),0,false,662356.8999999985,662356.5999999978,656862.402,656869.0999999978,656879.21,662362.488,4,500,26,
break,html.Screen,10_25_1,2023-11-14T22:43:28.436Z,,,,,,,,,,NaN,,,,,,,,low,low,,,,,,false,,,,false,662357.6999999993,662357.3999999985,,662357.1999999993,,662362.488,4,500,,
break_continue,html.Screen,10_25_2,2023-11-14T22:43:28.437Z,,,,,,,,,,NaN,,,,,,,,low,low,,,,,,false,,,,false,662358.1999999993,662358,,662357.8000000007,,662362.488,4,500,,
sequence,flow.Sequence,10_25,2023-11-14T22:43:28.437Z,,,,,,,,,,5478.790000000037,completion,,,,,,,low,low,,,,,,false,,,,false,662358.3999999985,662358,656862.402,656869.0999999978,656879.21,662362.488,4,500,,
trial,html.Screen,10_26_0,2023-11-14T22:43:32.084Z,,,,1,0.0542893032276609,-0.0176656364422514,,false,lh,3641.312000000733,response,-0.4260549117224826,0.46632483802303615,-0.4999999999999994,0.3275953610710683,0.4999999999999994,-0.4801879630389241,low,high,,ISIC_0024516.JPG,9,ISIC_0060719.JPG,236,false,hl,keypress(j),0,false,666004,666003.8000000007,662345.765,662358.5999999978,662362.488,666012.661,4,500,27,
break,html.Screen,10_26_1,2023-11-14T22:43:32.084Z,,,,,,,,,,NaN,,,,,,,,low,high,,,,,,false,,,,false,666004.1999999993,666004.1999999993,,666004,,666012.661,4,500,,
break_continue,html.Screen,10_26_2,2023-11-14T22:43:32.085Z,,,,,,,,,,NaN,,,,,,,,low,high,,,,,,false,,,,false,666004.5,666004.3999999985,,666004.3999999985,,666012.661,4,500,,
sequence,flow.Sequence,10_26,2023-11-14T22:43:32.085Z,,,,,,,,,,3641.911999998498,completion,,,,,,,low,high,,,,,,false,,,,false,666004.5,666004.3999999985,662345.765,662358.5,662362.488,666012.661,4,500,,
trial,html.Screen,10_27_0,2023-11-14T22:43:33.965Z,,,,1,0.039520186367207,0.0377961575607372,,false,ll,1871.8390000000363,response,-0.347873065512961,0.46632483802303615,-0.4999999999999994,-0.6440302059803747,0.4999999999999994,-0.4801879630389241,low,low,,ISIC_6356149.JPG,9,ISIC_0765973.JPG,467,false,lh,keypress(e),0,false,667884.6999999993,667884.5,665995.729,666004.6999999993,666012.661,667895.868,4,500,28,
break,html.Screen,10_27_1,2023-11-14T22:43:33.966Z,,,,,,,,,,NaN,,,,,,,,low,low,,,,,,false,,,,false,667885.5,667885.3000000007,,667884.8999999985,,667895.868,4,500,,
break_continue,html.Screen,10_27_2,2023-11-14T22:43:33.966Z,,,,,,,,,,NaN,,,,,,,,low,low,,,,,,false,,,,false,667886.1999999993,667885.8999999985,,667885.6999999993,,667895.868,4,500,,
sequence,flow.Sequence,10_27,2023-11-14T22:43:33.967Z,,,,,,,,,,1873.2389999985462,completion,,,,,,,low,low,,,,,,false,,,,false,667886.3999999985,667885.8999999985,665995.729,666004.5999999978,666012.661,667895.868,4,500,,
trial,html.Screen,10_28_0,2023-11-14T22:43:35.932Z,,,,1,,0.0102871556606504,,false,ll,1956.0319999984931,response,-0.6791355686919245,0.46632483802303615,-0.4999999999999994,-0.3172603579495277,0.4999999999999994,-0.4801879630389241,low,low,,ISIC_1805163.JPG,9,ISIC_9436034.JPG,467,false,hh,keypress(i),0,false,669852.0999999978,669851.8999999985,667879.235,667886.5,667895.868,669862.639,4,500,29,
break,html.Screen,10_28_1,2023-11-14T22:43:35.933Z,,,,,,,,,,NaN,,,,,,,,low,low,,,,,,false,,,,false,669852.3999999985,669852.3000000007,,669852.1999999993,,669862.639,4,500,,
break_continue,html.Screen,10_28_2,2023-11-14T22:43:35.933Z,,,,,,,,,,NaN,,,,,,,,low,low,,,,,,false,,,,false,669852.6999999993,669852.5,,669852.3999999985,,669862.639,4,500,,
sequence,flow.Sequence,10_28,2023-11-14T22:43:35.933Z,,,,,,,,,,1956.6319999999832,completion,,,,,,,low,low,,,,,,false,,,,false,669852.6999999993,669852.5,667879.235,667886.5,667895.868,669862.639,4,500,,
trial,html.Screen,10_29_0,2023-11-14T22:43:39.022Z,,,,1,-0.0544036313884697,-0.0564516462775647,,false,lh,3078.6610000007786,response,-0.3650753802430913,0.46632483802303615,-0.4999999999999994,0.3535593482750923,0.4999999999999994,-0.4801879630389241,low,high,,ISIC_7441957.JPG,10,ISIC_9936773.JPG,236,false,hl,keypress(j),0,false,672941.5,672941.3000000007,669845.883,669852.8000000007,669862.639,672945.825,4,500,30,
break,html.Screen,10_29_1,2023-11-14T22:43:39.023Z,,,,,,,,,,NaN,,,,,,,,low,high,,,,,,false,,,,false,672942.6999999993,672942.3000000007,,672941.8999999985,,672945.825,4,500,,
break_continue,html.Screen,10_29_2,2023-11-14T22:43:39.024Z,,,,,,,,,,NaN,,,,,,,,low,high,,,,,,false,,,,false,672943.5,672943.1999999993,,672942.8999999985,,672945.825,4,500,,
sequence,flow.Sequence,10_29,2023-11-14T22:43:39.024Z,,,,,,,,,,3080.5609999992885,completion,,,,,,,low,high,,,,,,false,,,,false,672943.6999999993,672943.1999999993,669845.883,669852.8000000007,669862.639,672945.825,4,500,,
trial,html.Screen,10_30_0,2023-11-14T22:43:41.349Z,,,,1,0.0542893032276609,-0.0176656364422514,,false,ll,2322.6750000000466,response,-0.6325516787742204,0.46632483802303615,-0.4999999999999994,-0.4441337124497728,0.4999999999999994,-0.4801879630389241,low,low,,ISIC_0024516.JPG,9,ISIC_0962787.JPG,467,false,hl,keypress(j),0,false,675268.8000000007,675268.5,672929.377,672943.8999999985,672945.825,675279.184,4,500,31,
break,html.Screen,10_30_1,2023-11-14T22:43:41.350Z,,,,,,,,,,NaN,,,,,,,,low,low,,,,,,false,,,,false,675269.5999999978,675269.3999999985,,675269,,675279.184,4,500,,
break_continue,html.Screen,10_30_2,2023-11-14T22:43:41.350Z,,,,,,,,,,NaN,,,,,,,,low,low,,,,,,false,,,,false,675270.1999999993,675269.8999999985,,675269.8000000007,,675279.184,4,500,,
sequence,flow.Sequence,10_30,2023-11-14T22:43:41.351Z,,,,,,,,,,2324.0749999985565,completion,,,,,,,low,low,,,,,,false,,,,false,675270.5,675269.8999999985,672929.377,672943.8999999985,672945.825,675279.184,4,500,,
trial,html.Screen,10_31_0,2023-11-14T22:43:48.389Z,,,,1,0.0164027439304477,-0.0082910758715273,,false,lh,7029.515999999247,response,-0.4469982931733027,0.46632483802303615,-0.4999999999999994,0.3086096061535766,0.4999999999999994,-0.4801879630389241,low,high,,ISIC_7381224.JPG,9,ISIC_0192596.JPG,236,false,hh,keypress(i),0,false,682308.8999999985,682308.6999999993,675262.444,675270.5999999978,675279.184,682312.548,4,500,32,
break,html.Screen,10_31_1,2023-11-14T22:43:48.390Z,,,,,,,,,,NaN,,,,,,,,low,high,,,,,,false,,,,false,682309.8999999985,682309.5999999978,,682309.3000000007,,682312.548,4,500,,
break_continue,html.Screen,10_31_2,2023-11-14T22:43:48.391Z,,,,,,,,,,NaN,,,,,,,,low,high,,,,,,false,,,,false,682310.5999999978,682310.3000000007,,682310,,682312.548,4,500,,
sequence,flow.Sequence,10_31,2023-11-14T22:43:48.391Z,,,,,,,,,,7031.116000000737,completion,,,,,,,low,high,,,,,,false,,,,false,682310.8000000007,682310.3000000007,675262.444,675270.5999999978,675279.184,682312.548,4,500,,
trial,html.Screen,10_32_0,2023-11-14T22:43:57.765Z,,,,1,0.0088741920055285,0.0058246074740588,,true,hh,9371.752000000793,response,0.4367324643640278,0.46632483802303615,-0.4999999999999994,0.5497664613670868,0.4999999999999994,-0.4801879630389241,high,high,,ISIC_4136663.JPG,9,ISIC_0072559.JPG,411,false,hh,keypress(i),0,false,691684.5,691684.3000000007,682295.912,682311,682312.548,691695.835,4,500,33,
break,html.Screen,10_32_1,2023-11-14T22:43:57.765Z,,,,,,,,,,NaN,,,,,,,,high,high,,,,,,false,,,,false,691685.0999999978,691685,,691684.6999999993,,691695.835,4,500,,
break_continue,html.Screen,10_32_2,2023-11-14T22:43:57.766Z,,,,,,,,,,NaN,,,,,,,,high,high,,,,,,false,,,,false,691685.6999999993,691685.3999999985,,691685.3000000007,,691695.835,4,500,,
sequence,flow.Sequence,10_32,2023-11-14T22:43:57.766Z,,,,,,,,,,9372.851999998558,completion,,,,,,,high,high,,,,,,false,,,,false,691685.8000000007,691685.3999999985,682295.912,682310.8999999985,682312.548,691695.835,4,500,,
trial,html.Screen,10_33_0,2023-11-14T22:44:02.285Z,,,,1,0.0074667911845194,-0.018500200317654,,true,hh,4508.264999997802,response,0.6621907779173694,0.46632483802303615,-0.4999999999999994,0.3108723068871261,0.4999999999999994,-0.4801879630389241,high,high,,ISIC_0058723.JPG,9,ISIC_1067985.JPG,411,false,hh,keypress(i),0,false,696204.3000000007,696204.0999999978,691679.057,691685.8999999985,691695.835,696212.486,4,500,34,
break,html.Screen,10_33_1,2023-11-14T22:44:02.285Z,,,,,,,,,,NaN,,,,,,,,high,high,,,,,,false,,,,false,696204.8999999985,696204.8000000007,,696204.5999999978,,696212.486,4,500,,
break_continue,html.Screen,10_33_2,2023-11-14T22:44:02.286Z,,,,,,,,,,NaN,,,,,,,,high,high,,,,,,false,,,,false,696205.5,696205.1999999993,,696205.0999999978,,696212.486,4,500,,
sequence,flow.Sequence,10_33,2023-11-14T22:44:02.286Z,,,,,,,,,,4509.364999999292,completion,,,,,,,high,high,,,,,,false,,,,false,696205.5999999978,696205.1999999993,691679.057,691685.8999999985,691695.835,696212.486,4,500,,
trial,html.Screen,10_34_0,2023-11-14T22:44:06.972Z,,,,1,-0.0524649813000588,0.0155452034299028,,true,hh,4679.3140000007115,response,0.5214326348477533,0.46632483802303615,-0.4999999999999994,0.3028749565625039,0.4999999999999994,-0.4801879630389241,high,high,,ISIC_0030087.JPG,9,ISIC_0072087.JPG,411,false,hh,keypress(i),0,false,700892,700891.8000000007,696195.844,696205.6999999993,696212.486,700895.856,4,500,35,
break,html.Screen,10_34_1,2023-11-14T22:44:06.972Z,,,,,,,,,,NaN,,,,,,,,high,high,,,,,,false,,,,false,700892.3000000007,700892.1999999993,,700892.0999999978,,700895.856,4,500,,
break_continue,html.Screen,10_34_2,2023-11-14T22:44:06.973Z,,,,,,,,,,NaN,,,,,,,,high,high,,,,,,false,,,,false,700892.3999999985,700892.3999999985,,700892.3000000007,,700895.856,4,500,,
sequence,flow.Sequence,10_34,2023-11-14T22:44:06.973Z,,,,,,,,,,4679.913999998476,completion,,,,,,,high,high,,,,,,false,,,,false,700892.5,700892.3999999985,696195.844,696205.5999999978,696212.486,700895.856,4,500,,
trial,html.Screen,10_35_0,2023-11-14T22:44:12.932Z,,,,1,0.0577614292269216,0.035892232596533,,true,lh,5955.944000000716,response,-0.4700735722283845,0.46632483802303615,-0.4999999999999994,0.4803987828763377,0.4999999999999994,-0.4801879630389241,low,high,,ISIC_8363485.JPG,8,ISIC_7144739.JPG,236,false,lh,keypress(e),0,false,706851.8999999985,706851.8000000007,700879.134,700892.5,700895.856,706862.6,4,500,36,
break,html.Screen,10_35_1,2023-11-14T22:44:12.932Z,,,,,,,,,,NaN,,,,,,,,low,high,,,,,,false,,,,false,706852.1999999993,706852.0999999978,,706852,,706862.6,4,500,,
break_continue,html.Screen,10_35_2,2023-11-14T22:44:12.933Z,,,,,,,,,,NaN,,,,,,,,low,high,,,,,,false,,,,false,706852.3999999985,706852.3000000007,,706852.3000000007,,706862.6,4,500,,
sequence,flow.Sequence,10_35,2023-11-14T22:44:12.933Z,,,,,,,,,,5956.444000000716,completion,,,,,,,low,high,,,,,,false,,,,false,706852.5,706852.3000000007,700879.134,700892.5,700895.856,706862.6,4,500,,
trial,html.Screen,10_36_0,2023-11-14T22:44:14.716Z,,,,1,0.0632965338582772,0.0107588824722911,,false,lh,1772.9000000000233,response,-0.430868195896926,0.46632483802303615,-0.4999999999999994,0.4609791632917914,0.4999999999999994,-0.4801879630389241,low,high,,ISIC_1265755.JPG,10,ISIC_1870415.JPG,236,false,ll,keypress(f),0,false,708635.5999999978,708635.5,706845.863,706852.5999999978,706862.6,708645.995,4,500,37,
break,html.Screen,10_36_1,2023-11-14T22:44:14.716Z,,,,,,,,,,NaN,,,,,,,,low,high,,,,,,false,,,,false,708635.8999999985,708635.8000000007,,708635.5999999978,,708645.995,4,500,,
break_continue,html.Screen,10_36_2,2023-11-14T22:44:14.716Z,,,,,,,,,,NaN,,,,,,,,low,high,,,,,,false,,,,false,708636.0999999978,708636,,708635.8999999985,,708645.995,4,500,,
sequence,flow.Sequence,10_36,2023-11-14T22:44:14.716Z,,,,,,,,,,1773.4000000000233,completion,,,,,,,low,high,,,,,,false,,,,false,708636.0999999978,708636,706845.863,706852.5999999978,706862.6,708645.995,4,500,,
trial,html.Screen,10_37_0,2023-11-14T22:44:16.245Z,,,,1,0.0418938536494534,-0.0678614270583654,,false,lh,1518.6049999977695,response,-0.4591458660927925,0.46632483802303615,-0.4999999999999994,0.5850134461019285,0.4999999999999994,-0.4801879630389241,low,high,,ISIC_0027573.JPG,8,ISIC_3449290.JPG,236,false,hh,keypress(i),0,false,710164.8999999985,710164.5999999978,708629.178,708636.1999999993,708645.995,710179.261,4,500,38,
break,html.Screen,10_37_1,2023-11-14T22:44:16.246Z,,,,,,,,,,NaN,,,,,,,,low,high,,,,,,false,,,,false,710165.8000000007,710165.5999999978,,710165.1999999993,,710179.261,4,500,,
break_continue,html.Screen,10_37_2,2023-11-14T22:44:16.247Z,,,,,,,,,,NaN,,,,,,,,low,high,,,,,,false,,,,false,710166.5,710166.1999999993,,710166,,710179.261,4,500,,
sequence,flow.Sequence,10_37,2023-11-14T22:44:16.247Z,,,,,,,,,,1520.2049999992596,completion,,,,,,,low,high,,,,,,false,,,,false,710166.6999999993,710166.1999999993,708629.178,708636.1999999993,708645.995,710179.261,4,500,,
trial,html.Screen,10_38_0,2023-11-14T22:44:17.924Z,,,,1,0.045779466401051,0.0137769797231127,,false,ll,1664.5390000006882,response,-0.5706921180014212,0.46632483802303615,-0.4999999999999994,-0.6603271752494263,0.4999999999999994,-0.4801879630389241,low,low,,ISIC_0000504.JPG,9,ISIC_3685955.JPG,467,false,lh,keypress(e),0,false,711844,711843.8000000007,710162.634,710166.8999999985,710179.261,711845.875,4,500,39,
break,html.Screen,10_38_1,2023-11-14T22:44:17.925Z,,,,,,,,,,NaN,,,,,,,,low,low,,,,,,false,,,,false,711844.3999999985,711844.3000000007,,711844.0999999978,,711845.875,4,500,,
break_continue,html.Screen,10_38_2,2023-11-14T22:44:17.925Z,,,,,,,,,,NaN,,,,,,,,low,low,,,,,,false,,,,false,711844.6999999993,711844.5999999978,,711844.5,,711845.875,4,500,,
sequence,flow.Sequence,10_38,2023-11-14T22:44:17.925Z,,,,,,,,,,1665.338999997708,completion,,,,,,,low,low,,,,,,false,,,,false,711844.8000000007,711844.5999999978,710162.634,710166.8000000007,710179.261,711845.875,4,500,,
trial,html.Screen,10_39_0,2023-11-14T22:44:19.436Z,,,,1,0.0395587463147856,-0.0645068093068572,,false,lh,1510.2249999977648,response,-0.5121130250713763,0.46632483802303615,-0.4999999999999994,0.4029133291862986,0.4999999999999994,-0.4801879630389241,low,high,,ISIC_0010807.JPG,9,ISIC_0519705.JPG,236,false,hl,keypress(j),0,false,713356.1999999993,713356.0999999978,711829.199,711844.8999999985,711845.875,713362.58,4,500,40,
break,html.Screen,10_39_1,2023-11-14T22:44:19.437Z,,,,,,,,,,NaN,,,,,,,,low,high,,,,,,false,,,,false,713356.6999999993,713356.5999999978,,713356.3999999985,,713362.58,4,500,,
break_continue,html.Screen,10_39_2,2023-11-14T22:44:19.437Z,,,,,,,,,,NaN,,,,,,,,low,high,,,,,,false,,,,false,713357.0999999978,713356.8999999985,,713356.8999999985,,713362.58,4,500,,
sequence,flow.Sequence,10_39,2023-11-14T22:44:19.437Z,,,,,,,,,,1511.0249999985099,completion,,,,,,,low,high,,,,,,false,,,,false,713357.3000000007,713356.8999999985,711829.199,711844.8999999985,711845.875,713362.58,4,500,,
trial,html.Screen,10_40_0,2023-11-14T22:44:22.052Z,,,,1,0.055893254685579,0.0187125006410995,,false,hl,2609.220000000787,response,0.3546729064031369,0.46632483802303615,-0.4999999999999994,-0.5766392947607881,0.4999999999999994,-0.4801879630389241,high,low,,ISIC_0011779.JPG,9,ISIC_0053611.JPG,280,false,lh,keypress(e),0,false,715971.8999999985,715971.8000000007,713345.898,713357.3999999985,713362.58,715979.241,4,500,41,
break,html.Screen,10_40_1,2023-11-14T22:44:22.052Z,,,,,,,,,,NaN,,,,,,,,high,low,,,,,,false,,,,false,715972.1999999993,715972.0999999978,,715972,,715979.241,4,500,,
break_continue,html.Screen,10_40_2,2023-11-14T22:44:22.053Z,,,,,,,,,,NaN,,,,,,,,high,low,,,,,,false,,,,false,715972.5,715972.3000000007,,715972.3000000007,,715979.241,4,500,,
sequence,flow.Sequence,10_40,2023-11-14T22:44:22.053Z,,,,,,,,,,2609.720000000787,completion,,,,,,,high,low,,,,,,false,,,,false,715972.5,715972.3000000007,713345.898,713357.3000000007,713362.58,715979.241,4,500,,
trial,html.Screen,10_41_0,2023-11-14T22:44:23.716Z,,,,1,0.0527477970410472,0.0575970798158164,,false,ll,1656.4589999992168,response,-0.640359493165528,0.46632483802303615,-0.4999999999999994,-0.5938260068076072,0.4999999999999994,-0.4801879630389241,low,low,,ISIC_0667763.JPG,9,ISIC_0004667.JPG,467,false,hh,keypress(i),0,false,717635.8000000007,717635.6999999993,715962.627,715972.5999999978,715979.241,717646.059,4,500,42,
break,html.Screen,10_41_1,2023-11-14T22:44:23.716Z,,,,,,,,,,NaN,,,,,,,,low,low,,,,,,false,,,,false,717636.0999999978,717636,,717635.8999999985,,717646.059,4,500,,
break_continue,html.Screen,10_41_2,2023-11-14T22:44:23.716Z,,,,,,,,,,NaN,,,,,,,,low,low,,,,,,false,,,,false,717636.3000000007,717636.1999999993,,717636.0999999978,,717646.059,4,500,,
sequence,flow.Sequence,10_41,2023-11-14T22:44:23.717Z,,,,,,,,,,1656.9589999992168,completion,,,,,,,low,low,,,,,,false,,,,false,717636.3000000007,717636.1999999993,715962.627,715972.5999999978,715979.241,717646.059,4,500,,
trial,html.Screen,10_42_0,2023-11-14T22:44:26.212Z,,,,1,-0.0444523556175667,-0.066384682611553,,false,lh,2485.5409999977564,response,-0.3821016693614505,0.46632483802303615,-0.4999999999999994,0.3618508948625896,0.4999999999999994,-0.4801879630389241,low,high,,ISIC_0029409.JPG,9,ISIC_1886756.JPG,236,false,hh,keypress(i),0,false,720131.8000000007,720131.5999999978,717629.231,717636.3999999985,717646.059,720162.569,4,500,43,
break,html.Screen,10_42_1,2023-11-14T22:44:26.212Z,,,,,,,,,,NaN,,,,,,,,low,high,,,,,,false,,,,false,720132.0999999978,720132,,720131.8999999985,,720162.569,4,500,,
break_continue,html.Screen,10_42_2,2023-11-14T22:44:26.212Z,,,,,,,,,,NaN,,,,,,,,low,high,,,,,,false,,,,false,720132.3000000007,720132.1999999993,,720132.0999999978,,720162.569,4,500,,
sequence,flow.Sequence,10_42,2023-11-14T22:44:26.213Z,,,,,,,,,,2486.1409999992466,completion,,,,,,,low,high,,,,,,false,,,,false,720132.3999999985,720132.1999999993,717629.231,717636.3999999985,717646.059,720162.569,4,500,,
trial,html.Screen,10_43_0,2023-11-14T22:44:28.014Z,,,,1,-0.0718464495991687,0.0429653518314044,,false,lh,1770.7310000007274,response,-0.4240130649364615,0.46632483802303615,-0.4999999999999994,0.6897816265213811,0.4999999999999994,-0.4801879630389241,low,high,,ISIC_0028597.JPG,9,ISIC_0070422.JPG,236,false,ll,keypress(f),0,false,721933.5999999978,721933.3000000007,720145.873,720132.3999999985,720162.569,721945.917,4,500,44,
break,html.Screen,10_43_1,2023-11-14T22:44:28.015Z,,,,,,,,,,NaN,,,,,,,,low,high,,,,,,false,,,,false,721934.5999999978,721934.3999999985,,721933.8999999985,,721945.917,4,500,,
break_continue,html.Screen,10_43_2,2023-11-14T22:44:28.015Z,,,,,,,,,,NaN,,,,,,,,low,high,,,,,,false,,,,false,721935.3999999985,721935,,721934.8999999985,,721945.917,4,500,,
sequence,flow.Sequence,10_43,2023-11-14T22:44:28.016Z,,,,,,,,,,1772.4309999999823,completion,,,,,,,low,high,,,,,,false,,,,false,721935.5999999978,721935,720145.873,720132.3999999985,720162.569,721945.917,4,500,,
trial,html.Screen,10_44_0,2023-11-14T22:44:30.030Z,,,,1,-0.0286056110007553,-0.036125199756515,,false,ll,2001.982999998494,response,-0.628234392414947,0.46632483802303615,-0.4999999999999994,-0.6546535880694141,0.4999999999999994,-0.4801879630389241,low,low,,ISIC_6535558.JPG,9,ISIC_5116614.JPG,467,false,lh,keypress(e),0,false,723947.8999999985,723947.8999999985,721929.249,721935.6999999993,721945.917,723962.615,4,500,45,
break,html.Screen,10_44_1,2023-11-14T22:44:30.030Z,,,,,,,,,,NaN,,,,,,,,low,low,,,,,,false,,,,false,723948.3999999985,723948.3000000007,,723948.0999999978,,723962.615,4,500,,
break_continue,html.Screen,10_44_2,2023-11-14T22:44:30.031Z,,,,,,,,,,NaN,,,,,,,,low,low,,,,,,false,,,,false,723948.6999999993,723948.5,,723948.3999999985,,723962.615,4,500,,
sequence,flow.Sequence,10_44,2023-11-14T22:44:30.031Z,,,,,,,,,,2002.5829999999842,completion,,,,,,,low,low,,,,,,false,,,,false,723948.6999999993,723948.5,721929.249,721935.6999999993,721945.917,723962.615,4,500,,
trial,html.Screen,10_45_0,2023-11-14T22:44:31.934Z,,,,1,,0.0102871556606504,,false,lh,1889.4849999977741,response,-0.4343208514492875,0.46632483802303615,-0.4999999999999994,0.3605003162259453,0.4999999999999994,-0.4801879630389241,low,high,,ISIC_1805163.JPG,9,ISIC_0071972.JPG,236,false,hl,keypress(j),0,false,725852.1999999993,725852.0999999978,723946.005,723948.8000000007,723962.615,725879.375,4,500,46,
break,html.Screen,10_45_1,2023-11-14T22:44:31.935Z,,,,,,,,,,NaN,,,,,,,,low,high,,,,,,false,,,,false,725852.6999999993,725852.5999999978,,725852.3999999985,,725879.375,4,500,,
break_continue,html.Screen,10_45_2,2023-11-14T22:44:31.935Z,,,,,,,,,,NaN,,,,,,,,low,high,,,,,,false,,,,false,725853.0999999978,725852.8999999985,,725852.8000000007,,725879.375,4,500,,
sequence,flow.Sequence,10_45,2023-11-14T22:44:31.935Z,,,,,,,,,,1890.2849999985192,completion,,,,,,,low,high,,,,,,false,,,,false,725853.1999999993,725852.8999999985,723946.005,723948.8000000007,723962.615,725879.375,4,500,,
trial,html.Screen,10_46_0,2023-11-14T22:44:34.039Z,,,,1,0.0223011224608011,-0.0466190802905965,,false,hl,2077.125,response,0.3855834796403247,0.46632483802303615,-0.4999999999999994,-0.670842510652198,0.4999999999999994,-0.4801879630389241,high,low,,ISIC_0028041.JPG,9,ISIC_1706912.JPG,280,false,lh,keypress(e),0,false,727956.8000000007,727956.5,725862.554,725853.3000000007,725879.375,727962.6,4,500,47,
break,html.Screen,10_46_1,2023-11-14T22:44:34.039Z,,,,,,,,,,NaN,,,,,,,,high,low,,,,,,false,,,,false,727957.3999999985,727957.3000000007,,727957,,727962.6,4,500,,
break_continue,html.Screen,10_46_2,2023-11-14T22:44:34.040Z,,,,,,,,,,NaN,,,,,,,,high,low,,,,,,false,,,,false,727957.8999999985,727957.6999999993,,727957.5,,727962.6,4,500,,
sequence,flow.Sequence,10_46,2023-11-14T22:44:34.040Z,,,,,,,,,,2078.324999999255,completion,,,,,,,high,low,,,,,,false,,,,false,727958,727957.6999999993,725862.554,725853.3000000007,725879.375,727962.6,4,500,,
trial,html.Screen,10_47_0,2023-11-14T22:44:36.415Z,,,,1,-0.0586798548295751,0.0060040805764433,,false,lh,2369.799999998533,response,-0.6900637275306071,0.46632483802303615,-0.4999999999999994,0.4808051847718565,0.4999999999999994,-0.4801879630389241,low,high,,ISIC_1552232.JPG,9,ISIC_0029290.JPG,236,false,ll,keypress(f),0,false,730332.5999999978,730332.3999999985,727945.893,727958.1999999993,727962.6,730345.98,4,500,48,
break,html.Screen,10_47_1,2023-11-14T22:44:36.415Z,,,,,,,,,,NaN,,,,,,,,low,high,,,,,,false,,,,false,730333.3000000007,730333.0999999978,,730332.8999999985,,730345.98,4,500,,
break_continue,html.Screen,10_47_2,2023-11-14T22:44:36.416Z,,,,,,,,,,NaN,,,,,,,,low,high,,,,,,false,,,,false,730333.8000000007,730333.5999999978,,730333.3999999985,,730345.98,4,500,,
sequence,flow.Sequence,10_47,2023-11-14T22:44:36.416Z,,,,,,,,,,2370.999999997788,completion,,,,,,,low,high,,,,,,false,,,,false,730333.8999999985,730333.5999999978,727945.893,727958.1999999993,727962.6,730345.98,4,500,,
trial,html.Screen,10_48_0,2023-11-14T22:44:38.038Z,,,,1,0.0644356642124594,-0.0565130492997401,,false,hl,1609.9199999985285,response,0.3678568362907068,0.46632483802303615,-0.4999999999999994,-0.5271099391269322,0.4999999999999994,-0.4801879630389241,high,low,,ISIC_7520843.JPG,9,ISIC_0010967.JPG,280,false,hh,keypress(i),0,false,731956.0999999978,731955.8999999985,730329.395,730334.0999999978,730345.98,731962.639,4,500,49,
break,html.Screen,10_48_1,2023-11-14T22:44:38.038Z,,,,,,,,,,NaN,,,,,,,,high,low,,,,,,false,,,,false,731956.5,731956.5,,731956.3000000007,,731962.639,4,500,,
break_continue,html.Screen,10_48_2,2023-11-14T22:44:38.039Z,,,,,,,,,,NaN,,,,,,,,high,low,,,,,,false,,,,false,731956.8999999985,731956.5999999978,,731956.5999999978,,731962.639,4,500,,
sequence,flow.Sequence,10_48,2023-11-14T22:44:38.039Z,,,,,,,,,,1610.6199999977835,completion,,,,,,,high,low,,,,,,false,,,,false,731956.8999999985,731956.5999999978,730329.395,730334.0999999978,730345.98,731962.639,4,500,,
trial,html.Screen,10_49_0,2023-11-14T22:44:39.606Z,,,,1,0.0418938536494534,-0.0678614270583654,,false,hh,1561.8610000000335,response,0.5337441555444427,0.46632483802303615,-0.4999999999999994,0.520315774415681,0.4999999999999994,-0.4801879630389241,high,high,,ISIC_0027573.JPG,9,ISIC_0011114.JPG,411,false,ll,keypress(f),0,false,733524.5999999978,733524.5,731946.024,731957,731962.639,733529.28,4,500,50,
break,html.Screen,10_49_1,2023-11-14T22:44:39.607Z,,,,,,,,,,NaN,,,,,,,,high,high,,,,,,false,,,,false,733525.0999999978,733525,,733524.8000000007,,733529.28,4,500,,
break_continue,html.Screen,10_49_2,2023-11-14T22:44:39.607Z,,,,,,,,,,NaN,,,,,,,,high,high,,,,,,false,,,,false,733525.6999999993,733525.3999999985,,733525.3000000007,,733529.28,4,500,,
sequence,flow.Sequence,10_49,2023-11-14T22:44:39.608Z,,,,,,,,,,1562.7609999985434,completion,,,,,,,high,high,,,,,,false,,,,false,733525.6999999993,733525.3999999985,731946.024,731956.8999999985,731962.639,733529.28,4,500,,
