sender,sender_type,sender_id,timestamp,meta,,age,blockNo,c1,c2,condition,correct,correctResponse,duration,ended_on,f1,f1_high,f1_low,f2,f2_high,f2_low,feature_level1,feature_level2,gender,img_left,img_reveal,img_right,n_target_images,practice,response,response_action,selection_duration,staircase,time_commit,time_end,time_render,time_run,time_show,time_switch,total_blocks,total_trials,trialNo,url
informed_consent,html.Screen,0,2023-11-15T19:39:01.041Z,"{""labjs_version"":""20.2.4"",""labjs_build"":{""flavor"":""development"",""commit"":""f5b4a49f956347addd546a832a3327688c2c0fef""},""location"":""https://labjs.felixhenninger.com/api/labjs_preview/index.html"",""userAgent"":""Mozilla/5.0 (Windows NT 10.0; Win64; x64) AppleWebKit/537.36 (KHTML, like Gecko) Chrome/119.0.0.0 Safari/537.36"",""platform"":""Win32"",""language"":""en-US"",""locale"":""en-US"",""timeZone"":""America/Chicago"",""timezoneOffset"":360,""screen_width"":1680,""screen_height"":1050,""scroll_width"":825,""scroll_height"":888,""window_innerWidth"":825,""window_innerHeight"":936,""devicePixelRatio"":1}",,,,,,,,,32448.43200002384,response,,,,,,,,,,,,,,,consent,click button,,,33100.30000001192,33091.60000002384,626.344,623,643.168,33123.156,,,,{}
Demography form,html.Form,1,2023-11-15T19:39:10.601Z,,,18,,,,,,,9537.144000011918,form submission,,,,,,,,,female,,,,,,,,,,42660.40000000596,42660.30000001192,33106.397,33100.60000002384,33123.156,42675.088,,,,
Welcome,html.Screen,2,2023-11-15T19:39:42.361Z,,,,,,,"[""asym"",""bor""]",,,31744.612000017878,response,,,,,,,,,,,,,,,continue,click button,,,74420.40000000596,74419.70000001788,42658.142,42660.5,42675.088,74436.913,,,,
demo_instructions,html.Screen,3,2023-11-15T19:40:24.729Z,,,,,,,,,,42350.98700000596,response,,,,,,,,,,,,,,,continue,click button,,,116788.40000000596,116787.90000000596,74419.988,74420.60000002384,74436.913,116802.489,,,,
trial,html.Screen,4_0_0,2023-11-15T19:40:35.963Z,,,,0,0.991146183030456,-0.9949639823722534,,true,lh,11220.31100001192,response,-0.8579451262594331,1.0499999999999998,-1.0499999999999998,0.9633172970727744,1.0499999999999998,-1.0499999999999998,low,high,,ISIC_6342224.JPG,,ISIC_0067172.JPG,21,true,lh,keypress(e),100,false,128023,128022.80000001192,116785.963,116788.60000002384,116802.489,128041.03,1,16,1,
sequence,flow.Sequence,4_0,2023-11-15T19:40:35.971Z,,,,,,,,,,11220.31100001192,completion,,,,,,,low,high,,,,,,true,,,,false,128030.40000000596,128022.80000001192,116785.963,116788.60000002384,116802.489,128041.03,1,16,,
trial,html.Screen,4_1_0,2023-11-15T19:41:03.688Z,,,,0,0.948927472020595,-1.0660437155921598,,true,lh,27704.87000000596,response,-1.011737552725394,1.0499999999999998,-1.0499999999999998,0.8500530224490773,1.0499999999999998,-1.0499999999999998,low,high,,ISIC_5808758.JPG,,ISIC_2998367.JPG,21,true,lh,keypress(e),100,false,155746.60000002384,155745.90000000596,128024.358,128030.5,128041.03,155761.905,1,16,2,
sequence,flow.Sequence,4_1,2023-11-15T19:41:03.689Z,,,,,,,,,,27704.87000000596,completion,,,,,,,low,high,,,,,,true,,,,false,155747.60000002384,155745.90000000596,128024.358,128030.5,128041.03,155761.905,1,16,,
trial,html.Screen,4_2_0,2023-11-15T19:41:11.903Z,,,,0,1.0213365328004047,-1.088524359911891,,true,lh,8198.995000005962,response,-0.869932994914832,1.0499999999999998,-1.0499999999999998,0.8880533324432531,1.0499999999999998,-1.0499999999999998,low,high,,ISIC_5434229.JPG,,ISIC_8617084.JPG,21,true,lh,keypress(e),100,false,163961.60000002384,163960.90000000596,155745.212,155747.90000000596,155761.905,163977.674,1,16,3,
sequence,flow.Sequence,4_2,2023-11-15T19:41:11.904Z,,,,,,,,,,8198.995000005962,completion,,,,,,,low,high,,,,,,true,,,,false,163962.5,163960.90000000596,155745.212,155747.70000001788,155761.905,163977.674,1,16,,
trial,html.Screen,4_3_0,2023-11-15T19:41:32.507Z,,,,0,0.948927472020595,-1.0660437155921598,,true,lh,20588.126000011922,response,-1.020990671779317,1.0499999999999998,-1.0499999999999998,1.0116513850520903,1.0499999999999998,-1.0499999999999998,low,high,,ISIC_5808758.JPG,,ISIC_0011995.JPG,21,true,lh,keypress(e),100,false,184566,184565.80000001192,163961.064,163962.80000001192,163977.674,184584.491,1,16,4,
sequence,flow.Sequence,4_3,2023-11-15T19:41:32.507Z,,,,,,,,,,20588.126000011922,completion,,,,,,,low,high,,,,,,true,,,,false,184566.20000001788,184565.80000001192,163961.064,163962.70000001788,163977.674,184584.491,1,16,,
trial,html.Screen,4_4_0,2023-11-15T19:41:52.065Z,,,,0,1.0088070132449485,1.0292526683018866,,true,ll,19538.50899999999,response,-1.0366777133497644,1.0499999999999998,-1.0499999999999998,-0.8674472391512381,1.0499999999999998,-1.0499999999999998,low,low,,ISIC_0059314.JPG,,ISIC_0014431.JPG,111,true,ll,keypress(f),100,false,204123.5,204123,184567.735,184566.40000000596,184584.491,204139.19,1,16,5,
sequence,flow.Sequence,4_4,2023-11-15T19:41:52.065Z,,,,,,,,,,19538.50899999999,completion,,,,,,,low,low,,,,,,true,,,,false,204124.30000001192,204123,184567.735,184566.40000000596,184584.491,204139.19,1,16,,
trial,html.Screen,4_5_0,2023-11-15T19:42:04.813Z,,,,0,1.1135119625680223,0.8824045702297937,,true,ll,12732.610000011919,response,-1.241406480986552,1.0499999999999998,-1.0499999999999998,-1.081912821786771,1.0499999999999998,-1.0499999999999998,low,low,,ISIC_6899527.JPG,,ISIC_4223155.JPG,111,true,ll,keypress(f),100,false,216872.40000000596,216871.80000001192,204122.572,204124.60000002384,204139.19,216897.372,1,16,6,
sequence,flow.Sequence,4_5,2023-11-15T19:42:04.814Z,,,,,,,,,,12732.610000011919,completion,,,,,,,low,low,,,,,,true,,,,false,216873.30000001192,216871.80000001192,204122.572,204124.5,204139.19,216897.372,1,16,,
trial,html.Screen,4_6_0,2023-11-15T19:42:17.034Z,,,,0,0.9263931440503964,0.9159664042920548,,true,ll,12195.528000005957,response,-1.2406755059898278,1.0499999999999998,-1.0499999999999998,-0.870899898309629,1.0499999999999998,-1.0499999999999998,low,low,,ISIC_0053617.JPG,,ISIC_7947847.JPG,111,true,ll,keypress(f),100,false,229093.40000000596,229092.90000000596,216880.72,216873.60000002384,216897.372,229121.368,1,16,7,
sequence,flow.Sequence,4_6,2023-11-15T19:42:17.035Z,,,,,,,,,,12195.528000005957,completion,,,,,,,low,low,,,,,,true,,,,false,229094.10000002384,229092.90000000596,216880.72,216873.60000002384,216897.372,229121.368,1,16,,
trial,html.Screen,4_7_0,2023-11-15T19:42:29.928Z,,,,0,0.9249963751334934,0.8954921660911329,,true,ll,12864.932000011933,response,-1.0858641668099058,1.0499999999999998,-1.0499999999999998,-1.1638942560200525,1.0499999999999998,-1.0499999999999998,low,low,,ISIC_6404049.JPG,,ISIC_5439597.JPG,111,true,ll,keypress(f),100,false,241986.80000001192,241986.30000001192,229104.472,229094.30000001192,229121.368,242013.125,1,16,8,
sequence,flow.Sequence,4_7,2023-11-15T19:42:29.928Z,,,,,,,,,,12864.932000011933,completion,,,,,,,low,low,,,,,,true,,,,false,241987.40000000596,241986.30000001192,229104.472,229094.20000001788,229121.368,242013.125,1,16,,
trial,html.Screen,4_8_0,2023-11-15T19:42:46.646Z,,,,0,-0.8179805381029407,0.8578467162767749,,true,hl,16691.27500000596,response,0.7911024675435955,0.9499999999999997,-0.9499999999999997,-0.7975977016137676,0.9499999999999997,-0.9499999999999997,high,low,,ISIC_0067253.JPG,,ISIC_5813642.JPG,26,true,hl,keypress(j),100,false,258704.70000001788,258704.40000000596,241996.285,241987.70000001788,242013.125,258728.901,1,16,9,
sequence,flow.Sequence,4_8,2023-11-15T19:42:46.647Z,,,,,,,,,,16691.27500000596,completion,,,,,,,high,low,,,,,,true,,,,false,258705.40000000596,258704.40000000596,241996.285,241987.60000002384,242013.125,258728.901,1,16,,
trial,html.Screen,4_9_0,2023-11-15T19:43:02.707Z,,,,0,-0.8860551570327019,0.8067116931297591,,true,hl,16036.899000011908,response,0.809764442462202,0.9499999999999997,-0.9499999999999997,-1.005337148078696,0.9499999999999997,-0.9499999999999997,high,low,,ISIC_1457687.JPG,,ISIC_2379379.JPG,26,true,hl,keypress(j),100,false,274766,274765.8000000119,258712.11,258705.70000001788,258728.901,274793.543,1,16,10,
sequence,flow.Sequence,4_9,2023-11-15T19:43:02.708Z,,,,,,,,,,16036.899000011908,completion,,,,,,,high,low,,,,,,true,,,,false,274766.3000000119,274765.8000000119,258712.11,258705.60000002384,258728.901,274793.543,1,16,,
trial,html.Screen,4_10_0,2023-11-15T19:43:10.808Z,,,,0,-0.9696118525781644,0.9244148283103414,,true,hl,8073.257000011916,response,0.948927472020595,0.9499999999999997,-0.9499999999999997,-1.0660437155921598,0.9499999999999997,-0.9499999999999997,high,low,,ISIC_7927525.JPG,,ISIC_5808758.JPG,26,true,hl,keypress(j),100,false,282867.3000000119,282866.8000000119,274776.882,274766.40000000596,274793.543,282892.657,1,16,11,
sequence,flow.Sequence,4_10,2023-11-15T19:43:10.809Z,,,,,,,,,,8073.257000011916,completion,,,,,,,high,low,,,,,,true,,,,false,282867.90000000596,282866.8000000119,274776.882,274766.40000000596,274793.543,282892.657,1,16,,
trial,html.Screen,4_11_0,2023-11-15T19:43:17.367Z,,,,0,-0.8179805381029407,0.8578467162767749,,true,hl,6532.243000005954,response,0.796241477082623,0.9499999999999997,-0.9499999999999997,-0.9017449335975743,0.9499999999999997,-0.9499999999999997,high,low,,ISIC_0067253.JPG,,ISIC_8588033.JPG,26,true,hl,keypress(j),100,false,289425.2000000179,289424.90000000596,282875.805,282868.2000000179,282892.657,289455.3,1,16,12,
sequence,flow.Sequence,4_11,2023-11-15T19:43:17.367Z,,,,,,,,,,6532.243000005954,completion,,,,,,,high,low,,,,,,true,,,,false,289425.90000000596,289424.90000000596,282875.805,282868.10000002384,282892.657,289455.3,1,16,,
trial,html.Screen,4_12_0,2023-11-15T19:43:27.523Z,,,,0,-0.8529242055711017,-0.9691635021928308,,true,hh,10126.300000023853,response,1.135372722680314,0.9499999999999997,-0.9499999999999997,1.0926414044454305,0.9499999999999997,-0.9499999999999997,high,high,,ISIC_8169564.JPG,,ISIC_2355513.JPG,167,true,hh,keypress(i),100,false,299581.8000000119,299581.60000002384,289438.631,289426.2000000179,289455.3,299608.441,1,16,13,
sequence,flow.Sequence,4_12,2023-11-15T19:43:27.523Z,,,,,,,,,,10126.300000023853,completion,,,,,,,high,high,,,,,,true,,,,false,299582,299581.60000002384,289438.631,289426.2000000179,289455.3,299608.441,1,16,,
trial,html.Screen,4_13_0,2023-11-15T19:43:35.336Z,,,,0,-1.007248440493079,-0.8493817247965978,,true,hh,7786.25900001789,response,1.135372722680314,0.9499999999999997,-0.9499999999999997,1.0926414044454305,0.9499999999999997,-0.9499999999999997,high,high,,ISIC_0030219.JPG,,ISIC_2355513.JPG,167,true,hh,keypress(i),100,false,307394.8000000119,307394.7000000179,299591.847,299582.10000002384,299608.441,307423.787,1,16,14,
sequence,flow.Sequence,4_13,2023-11-15T19:43:35.336Z,,,,,,,,,,7786.25900001789,completion,,,,,,,high,high,,,,,,true,,,,false,307394.90000000596,307394.7000000179,299591.847,299582,299608.441,307423.787,1,16,,
trial,html.Screen,4_14_0,2023-11-15T19:43:41.900Z,,,,0,-0.8778348457214913,-0.8379442136072591,,true,hh,6534.813000023831,response,0.9303292478996148,0.9499999999999997,-0.9499999999999997,1.0396291493634244,0.9499999999999997,-0.9499999999999997,high,high,,ISIC_0013213.JPG,,ISIC_0068580.JPG,167,true,hh,keypress(i),100,false,313959,313958.60000002384,307407.041,307395,307423.787,313986.357,1,16,15,
sequence,flow.Sequence,4_14,2023-11-15T19:43:41.901Z,,,,,,,,,,6534.813000023831,completion,,,,,,,high,high,,,,,,true,,,,false,313959.60000002384,313958.60000002384,307407.041,307395,307423.787,313986.357,1,16,,
trial,html.Screen,4_15_0,2023-11-15T19:43:49.209Z,,,,0,-0.8093178584833343,-1.0777929856705222,,true,hh,7281.043000005942,response,0.964474443901612,0.9499999999999997,-0.9499999999999997,0.7951271207785265,0.9499999999999997,-0.9499999999999997,high,high,,ISIC_6171084.JPG,,ISIC_8325260.JPG,167,true,hh,keypress(i),100,false,321267.90000000596,321267.40000000596,313969.667,313959.90000000596,313986.357,321283.884,1,16,16,
sequence,flow.Sequence,4_15,2023-11-15T19:43:49.210Z,,,,,,,,,,7281.043000005942,completion,,,,,,,high,high,,,,,,true,,,,false,321268.5,321267.40000000596,313969.667,313959.8000000119,313986.357,321283.884,1,16,,
demonstration_loop,flow.Loop,4,2023-11-15T19:43:49.210Z,,,,,,,,,,204464.91100000596,completion,,,,,,,,,,,,,,true,,,,false,321268.8000000119,321267.40000000596,116785.963,116788.60000002384,116802.489,321283.884,1,16,,
practice_instructions,html.Screen,5,2023-11-15T19:44:22.738Z,,,,,,,,,,33504.11599999998,response,,,,,,,,,,,,,,,continue,click button,,,354796.7000000179,354788,321267.24,321269,321283.884,354799.087,,,,
trial,html.Screen,6_0_0,2023-11-15T19:44:33.737Z,,,,1,-0.8487429103619056,0.9778257804233036,,,,11021.656000000017,timeout,0.948927472020595,0.9499999999999997,-0.9499999999999997,-1.0660437155921598,0.9499999999999997,-0.9499999999999997,high,low,,ISIC_4554863.JPG,,ISIC_5808758.JPG,26,true,,,0,false,365795.10000002384,365795,354782.459,354796.7000000179,354799.087,365820.743,1,40,1,
sequence,flow.Sequence,6_0,2023-11-15T19:44:33.737Z,,,,,,,,,,10995.913,completion,,,,,,,high,low,,,,,,true,,,,false,365795.3000000119,365795,354782.459,354796.7000000179,354799.087,365820.743,1,40,,
trial,html.Screen,6_1_0,2023-11-15T19:44:39.082Z,,,,1,-0.869932994914832,0.8880533324432531,,true,hl,5319.357000023825,response,0.8035152873995188,0.9499999999999997,-0.9499999999999997,-0.82868450251632,0.9499999999999997,-0.9499999999999997,high,low,,ISIC_8617084.JPG,,ISIC_0010671.JPG,26,true,hl,keypress(j),0,false,371140.2000000179,371140.10000002384,365803.892,365795.3000000119,365820.743,371164.294,1,40,2,
sequence,flow.Sequence,6_1,2023-11-15T19:44:39.082Z,,,,,,,,,,5319.357000023825,completion,,,,,,,high,low,,,,,,true,,,,false,371140.3000000119,371140.10000002384,365803.892,365795.3000000119,365820.743,371164.294,1,40,,
trial,html.Screen,6_2_0,2023-11-15T19:44:42.436Z,,,,1,-1.030423594637164,-0.9418036199165556,,true,hh,3329.3060000238474,response,1.135372722680314,0.9499999999999997,-0.9499999999999997,1.0926414044454305,0.9499999999999997,-0.9499999999999997,high,high,,ISIC_0010299.JPG,,ISIC_2355513.JPG,167,true,hh,keypress(i),0,false,374494,374493.60000002384,371147.815,371140.40000000596,371164.294,374504.078,1,40,3,
sequence,flow.Sequence,6_2,2023-11-15T19:44:42.437Z,,,,,,,,,,3329.3060000238474,completion,,,,,,,high,high,,,,,,true,,,,false,374494.5,374493.60000002384,371147.815,371140.3000000119,371164.294,374504.078,1,40,,
trial,html.Screen,6_3_0,2023-11-15T19:44:47.348Z,,,,1,-1.020990671779317,1.0116513850520903,,false,hl,4901.522000023862,response,0.7809949855371787,0.9499999999999997,-0.9499999999999997,-0.8493861117004308,0.9499999999999997,-0.9499999999999997,high,low,,ISIC_0011995.JPG,,ISIC_7450481.JPG,26,true,ll,keypress(f),0,false,379405.90000000596,379405.60000002384,374487.397,374494.7000000179,374504.078,379413.67,1,40,4,
sequence,flow.Sequence,6_3,2023-11-15T19:44:47.349Z,,,,,,,,,,4901.522000023862,completion,,,,,,,high,low,,,,,,true,,,,false,379406.40000000596,379405.60000002384,374487.397,374494.7000000179,374504.078,379413.67,1,40,,
trial,html.Screen,6_4_0,2023-11-15T19:44:52.756Z,,,,1,-0.858338058340649,0.9540612223480284,,true,hl,5400.330000000016,response,0.8947611078712571,0.9499999999999997,-0.9499999999999997,-0.8960964505004638,0.9499999999999997,-0.9499999999999997,high,low,,ISIC_8922893.JPG,,ISIC_6441128.JPG,26,true,hl,keypress(j),0,false,384814.40000000596,384814,379397.087,379406.7000000179,379413.67,384824.24,1,40,5,
sequence,flow.Sequence,6_4,2023-11-15T19:44:52.757Z,,,,,,,,,,5400.330000000016,completion,,,,,,,high,low,,,,,,true,,,,false,384814.7000000179,384814,379397.087,379406.60000002384,379413.67,384824.24,1,40,,
trial,html.Screen,6_5_0,2023-11-15T19:44:56.452Z,,,,1,-0.924867075003666,-0.9114881908569834,,true,hh,3685.2600000000093,response,1.021420495018506,0.9499999999999997,-0.9499999999999997,0.8195763659090913,0.9499999999999997,-0.9499999999999997,high,high,,ISIC_7499769.JPG,,ISIC_0011493.JPG,167,true,hh,keypress(i),0,false,388509.90000000596,388509.5,384807.567,384815,384824.24,388514.7,1,40,6,
sequence,flow.Sequence,6_5,2023-11-15T19:44:56.453Z,,,,,,,,,,3685.2600000000093,completion,,,,,,,high,high,,,,,,true,,,,false,388510.3000000119,388509.5,384807.567,384814.90000000596,384824.24,388514.7,1,40,,
trial,html.Screen,6_6_0,2023-11-15T19:45:00.276Z,,,,1,-1.011737552725394,0.8500530224490773,,false,hl,3819.1000000119093,response,0.8623414234919863,0.9499999999999997,-0.9499999999999997,-0.782830143980698,0.9499999999999997,-0.9499999999999997,high,low,,ISIC_2998367.JPG,,ISIC_2727016.JPG,26,true,lh,keypress(e),0,false,392334.10000002384,392333.8000000119,388498.147,388510.60000002384,388514.7,392338.841,1,40,7,
sequence,flow.Sequence,6_6,2023-11-15T19:45:00.277Z,,,,,,,,,,3819.1000000119093,completion,,,,,,,high,low,,,,,,true,,,,false,392334.5,392333.8000000119,388498.147,388510.60000002384,388514.7,392338.841,1,40,,
trial,html.Screen,6_7_0,2023-11-15T19:45:05.292Z,,,,1,-0.8399241413841876,-0.9343381610425818,,true,hh,5011.059000005946,response,1.0088070132449485,0.9499999999999997,-0.9499999999999997,1.0292526683018866,0.9499999999999997,-0.9499999999999997,high,high,,ISIC_9203914.JPG,,ISIC_0059314.JPG,167,true,hh,keypress(i),0,false,397350.3000000119,397349.90000000596,392322.294,392334.8000000119,392338.841,397365.341,1,40,8,
sequence,flow.Sequence,6_7,2023-11-15T19:45:05.293Z,,,,,,,,,,5011.059000005946,completion,,,,,,,high,high,,,,,,true,,,,false,397350.7000000179,397349.90000000596,392322.294,392334.7000000179,392338.841,397365.341,1,40,,
trial,html.Screen,6_8_0,2023-11-15T19:45:10.131Z,,,,1,-0.8626849314423831,-0.8919402924145458,,true,hh,4823.059000005946,response,1.0657476601009717,0.9499999999999997,-0.9499999999999997,0.970732112511705,0.9499999999999997,-0.9499999999999997,high,high,,ISIC_0026371.JPG,,ISIC_0010778.JPG,167,true,hh,keypress(i),0,false,402188.5,402188.40000000596,397348.77,397351,397365.341,402191.296,1,40,9,
sequence,flow.Sequence,6_8,2023-11-15T19:45:10.131Z,,,,,,,,,,4823.059000005946,completion,,,,,,,high,high,,,,,,true,,,,false,402188.7000000179,402188.40000000596,397348.77,397350.90000000596,397365.341,402191.296,1,40,,
trial,html.Screen,6_9_0,2023-11-15T19:45:15.052Z,,,,1,0.7870237732709365,-0.9172955251119376,,true,lh,4918.404000017908,response,-0.869932994914832,0.9499999999999997,-0.9499999999999997,0.8880533324432531,0.9499999999999997,-0.9499999999999997,low,high,,ISIC_0057716.JPG,,ISIC_8617084.JPG,28,true,lh,keypress(e),0,false,407109.90000000596,407109.7000000179,402174.784,402188.8000000119,402191.296,407117.54,1,40,10,
sequence,flow.Sequence,6_9,2023-11-15T19:45:15.053Z,,,,,,,,,,4918.404000017908,completion,,,,,,,low,high,,,,,,true,,,,false,407110.5,407109.7000000179,402174.784,402188.8000000119,402191.296,407117.54,1,40,,
trial,html.Screen,6_10_0,2023-11-15T19:45:19.484Z,,,,1,1.0088070132449485,1.0292526683018866,,false,ll,4424.360000005981,response,-0.8200367443437355,0.9499999999999997,-0.9499999999999997,-0.8336927721396412,0.9499999999999997,-0.9499999999999997,low,low,,ISIC_0059314.JPG,,ISIC_0553565.JPG,142,true,hl,keypress(j),0,false,411542.2000000179,411541.90000000596,407101.045,407110.7000000179,407117.54,411559.551,1,40,11,
sequence,flow.Sequence,6_10,2023-11-15T19:45:19.485Z,,,,,,,,,,4424.360000005981,completion,,,,,,,low,low,,,,,,true,,,,false,411542.7000000179,411541.90000000596,407101.045,407110.7000000179,407117.54,411559.551,1,40,,
trial,html.Screen,6_11_0,2023-11-15T19:45:25.428Z,,,,1,0.991146183030456,-0.9949639823722534,,true,lh,5926.249000011943,response,-0.8179805381029407,0.9499999999999997,-0.9499999999999997,0.8578467162767749,0.9499999999999997,-0.9499999999999997,low,high,,ISIC_6342224.JPG,,ISIC_0067253.JPG,28,true,lh,keypress(e),0,false,417486.10000002384,417485.8000000119,411543.081,411542.90000000596,411559.551,417505.032,1,40,12,
sequence,flow.Sequence,6_11,2023-11-15T19:45:25.429Z,,,,,,,,,,5926.249000011943,completion,,,,,,,low,high,,,,,,true,,,,false,417486.60000002384,417485.8000000119,411543.081,411542.8000000119,411559.551,417505.032,1,40,,
trial,html.Screen,6_12_0,2023-11-15T19:45:32.476Z,,,,1,-0.7933921755497018,0.7692916291112835,,true,hl,7028.868000005954,response,0.8947611078712571,0.9499999999999997,-0.9499999999999997,-0.8960964505004638,0.9499999999999997,-0.9499999999999997,high,low,,ISIC_7844825.JPG,,ISIC_6441128.JPG,26,true,hl,keypress(j),0,false,424534.2000000179,424533.90000000596,417471.239,417487,417505.032,424551.755,1,40,13,
sequence,flow.Sequence,6_12,2023-11-15T19:45:32.477Z,,,,,,,,,,7028.868000005954,completion,,,,,,,high,low,,,,,,true,,,,false,424534.7000000179,424533.90000000596,417471.239,417486.90000000596,417505.032,424551.755,1,40,,
trial,html.Screen,6_13_0,2023-11-15T19:45:39.476Z,,,,1,1.1254252603792554,1.0263116781284176,,true,ll,6981.945000017877,response,-0.9156713992395168,0.9499999999999997,-0.9499999999999997,-0.7552260165227174,0.9499999999999997,-0.9499999999999997,low,low,,ISIC_0032420.JPG,,ISIC_0732375.JPG,142,true,ll,keypress(f),0,false,431534.10000002384,431533.7000000179,424534.913,424535,424551.755,431548.484,1,40,14,
sequence,flow.Sequence,6_13,2023-11-15T19:45:39.477Z,,,,,,,,,,6981.945000017877,completion,,,,,,,low,low,,,,,,true,,,,false,431534.5,431533.7000000179,424534.913,424534.90000000596,424551.755,431548.484,1,40,,
trial,html.Screen,6_14_0,2023-11-15T19:45:43.381Z,,,,1,0.887838744955182,-0.7545096650863988,,false,lh,3889.4160000059637,response,-0.9579209317488,0.9499999999999997,-0.9499999999999997,1.0147487101263497,0.9499999999999997,-0.9499999999999997,low,high,,ISIC_1488727.JPG,,ISIC_8124482.JPG,28,true,ll,keypress(f),0,false,435438.10000002384,435437.90000000596,431531.914,431534.8000000119,431548.484,435456.338,1,40,15,
sequence,flow.Sequence,6_14,2023-11-15T19:45:43.381Z,,,,,,,,,,3889.4160000059637,completion,,,,,,,low,high,,,,,,true,,,,false,435438.60000002384,435437.90000000596,431531.914,431534.7000000179,431548.484,435456.338,1,40,,
trial,html.Screen,6_15_0,2023-11-15T19:45:48.844Z,,,,1,-0.8179805381029407,0.8578467162767749,,true,hl,5444.662000000011,response,0.9388660854518424,0.9499999999999997,-0.9499999999999997,-0.79533948698576,0.9499999999999997,-0.9499999999999997,high,low,,ISIC_0067253.JPG,,ISIC_9291926.JPG,26,true,hl,keypress(j),0,false,440901.2000000179,440901,435439.317,435438.8000000119,435456.338,440916.784,1,40,16,
sequence,flow.Sequence,6_15,2023-11-15T19:45:48.844Z,,,,,,,,,,5444.662000000011,completion,,,,,,,high,low,,,,,,true,,,,false,440901.5,440901,435439.317,435438.8000000119,435456.338,440916.784,1,40,,
trial,html.Screen,6_16_0,2023-11-15T19:45:53.597Z,,,,1,0.7916641003387539,0.8795523971208432,,false,ll,4737.216000000015,response,-1.0375203228848855,0.9499999999999997,-0.9499999999999997,-0.9394358755892184,0.9499999999999997,-0.9499999999999997,low,low,,ISIC_0069635.JPG,,ISIC_4264600.JPG,142,true,hh,keypress(i),0,false,445654.3000000119,445654,440900.195,440901.7000000179,440916.784,445659.247,1,40,17,
sequence,flow.Sequence,6_16,2023-11-15T19:45:53.597Z,,,,,,,,,,4737.216000000015,completion,,,,,,,low,low,,,,,,true,,,,false,445654.8000000119,445654,440900.195,440901.60000002384,440916.784,445659.247,1,40,,
trial,html.Screen,6_17_0,2023-11-15T19:46:00.957Z,,,,1,0.838053327796249,0.8312425167370745,,true,ll,7354.553000011947,response,-0.9902329779187954,0.9499999999999997,-0.9499999999999997,-0.8162558842613786,0.9499999999999997,-0.9499999999999997,low,low,,ISIC_4834687.JPG,,ISIC_5559730.JPG,142,true,ll,keypress(f),0,false,453014.10000002384,453013.8000000119,445642.752,445655.10000002384,445659.247,453023.561,1,40,18,
sequence,flow.Sequence,6_17,2023-11-15T19:46:00.957Z,,,,,,,,,,7354.553000011947,completion,,,,,,,low,low,,,,,,true,,,,false,453014.60000002384,453013.8000000119,445642.752,445655,445659.247,453023.561,1,40,,
trial,html.Screen,6_18_0,2023-11-15T19:46:04.811Z,,,,1,0.7871162143493278,-0.8429329800778957,,false,lh,3844.6390000178944,response,-0.879102500583965,0.9499999999999997,-0.9499999999999997,1.0933081951979773,0.9499999999999997,-0.9499999999999997,low,high,,ISIC_3439215.JPG,,ISIC_0046223.JPG,28,true,ll,keypress(f),0,false,456868.40000000596,456868.2000000179,453007.043,453014.8000000119,453023.561,456881.12,1,40,19,
sequence,flow.Sequence,6_18,2023-11-15T19:46:04.811Z,,,,,,,,,,3844.6390000178944,completion,,,,,,,low,high,,,,,,true,,,,false,456868.5,456868.2000000179,453007.043,453014.8000000119,453023.561,456881.12,1,40,,
trial,html.Screen,6_19_0,2023-11-15T19:46:07.805Z,,,,1,-0.9031332540970408,-0.853200189915778,,true,hh,2980.6800000119256,response,1.021420495018506,0.9499999999999997,-0.9499999999999997,0.8195763659090913,0.9499999999999997,-0.9499999999999997,high,high,,ISIC_4679971.JPG,,ISIC_0011493.JPG,167,true,hh,keypress(i),0,false,459862,459861.8000000119,456864.513,456868.60000002384,456881.12,459870.354,1,40,20,
sequence,flow.Sequence,6_19,2023-11-15T19:46:07.805Z,,,,,,,,,,2980.6800000119256,completion,,,,,,,high,high,,,,,,true,,,,false,459862.5,459861.8000000119,456864.513,456868.60000002384,456881.12,459870.354,1,40,,
trial,html.Screen,6_20_0,2023-11-15T19:46:11.540Z,,,,1,1.0762260610050776,1.082709423673037,,true,ll,3727.146000000008,response,-1.0064329161780483,0.9499999999999997,-0.9499999999999997,-0.7918012854539199,0.9499999999999997,-0.9499999999999997,low,low,,ISIC_0058666.JPG,,ISIC_0033137.JPG,142,true,ll,keypress(f),0,false,463597.90000000596,463597.5,459853.774,459862.8000000119,459870.354,463611.103,1,40,21,
sequence,flow.Sequence,6_20,2023-11-15T19:46:11.541Z,,,,,,,,,,3727.146000000008,completion,,,,,,,low,low,,,,,,true,,,,false,463598.40000000596,463597.5,459853.774,459862.7000000179,459870.354,463611.103,1,40,,
trial,html.Screen,6_21_0,2023-11-15T19:46:15.507Z,,,,1,-0.8487429103619056,0.9778257804233036,,false,hl,3953.396999999997,response,0.7833710010171356,0.9499999999999997,-0.9499999999999997,-0.9315588090336896,0.9499999999999997,-0.9499999999999997,high,low,,ISIC_4554863.JPG,,ISIC_3826102.JPG,26,true,lh,keypress(e),0,false,467564.7000000179,467564.5,463594.173,463598.60000002384,463611.103,467568.572,1,40,22,
sequence,flow.Sequence,6_21,2023-11-15T19:46:15.507Z,,,,,,,,,,3953.396999999997,completion,,,,,,,high,low,,,,,,true,,,,false,467564.90000000596,467564.5,463594.173,463598.60000002384,463611.103,467568.572,1,40,,
trial,html.Screen,6_22_0,2023-11-15T19:46:18.812Z,,,,1,-1.0375203228848855,-0.9394358755892184,,true,hh,3300.828000005975,response,0.8404161492288882,0.9499999999999997,-0.9499999999999997,0.757299739884202,0.9499999999999997,-0.9499999999999997,high,high,,ISIC_4264600.JPG,,ISIC_0034256.JPG,167,true,hh,keypress(i),0,false,470869.5,470869.40000000596,467551.871,467564.90000000596,467568.572,470875.07,1,40,23,
sequence,flow.Sequence,6_22,2023-11-15T19:46:18.812Z,,,,,,,,,,3300.828000005975,completion,,,,,,,high,high,,,,,,true,,,,false,470869.7000000179,470869.40000000596,467551.871,467564.90000000596,467568.572,470875.07,1,40,,
trial,html.Screen,6_23_0,2023-11-15T19:46:23.067Z,,,,1,-0.8003549678836777,-0.7922238790731763,,true,hh,4249.730000011914,response,0.9185517403328254,0.9499999999999997,-0.9499999999999997,0.9975299101285906,0.9499999999999997,-0.9499999999999997,high,high,,ISIC_0028780.JPG,,ISIC_0011130.JPG,167,true,hh,keypress(i),0,false,475124.90000000596,475124.8000000119,470858.51,470869.8000000119,470875.07,475133.353,1,40,24,
sequence,flow.Sequence,6_23,2023-11-15T19:46:23.068Z,,,,,,,,,,4249.730000011914,completion,,,,,,,high,high,,,,,,true,,,,false,475125.10000002384,475124.8000000119,470858.51,470869.8000000119,470875.07,475133.353,1,40,,
trial,html.Screen,6_24_0,2023-11-15T19:46:26.781Z,,,,1,0.9873794329144926,-0.7991077882008257,,false,lh,3704.646999999997,response,-1.0751036484083878,0.9499999999999997,-0.9499999999999997,1.143906455483852,0.9499999999999997,-0.9499999999999997,low,high,,ISIC_0013498.JPG,,ISIC_0064406.JPG,28,true,hl,keypress(j),0,false,478838.3000000119,478838,475116.537,475125.2000000179,475133.353,478857.83,1,40,25,
sequence,flow.Sequence,6_24,2023-11-15T19:46:26.781Z,,,,,,,,,,3704.646999999997,completion,,,,,,,low,high,,,,,,true,,,,false,478838.7000000179,478838,475116.537,475125.10000002384,475133.353,478857.83,1,40,,
trial,html.Screen,6_25_0,2023-11-15T19:46:29.925Z,,,,1,1.007567553886196,0.9379731610733476,,true,ll,3124.070000005944,response,-0.8399241413841876,0.9499999999999997,-0.9499999999999997,-0.9343381610425818,0.9499999999999997,-0.9499999999999997,low,low,,ISIC_0030824.JPG,,ISIC_9203914.JPG,142,true,ll,keypress(f),0,false,481982.10000002384,481981.90000000596,478823.882,478839.10000002384,478857.83,481996.898,1,40,26,
sequence,flow.Sequence,6_25,2023-11-15T19:46:29.925Z,,,,,,,,,,3124.070000005944,completion,,,,,,,low,low,,,,,,true,,,,false,481982.60000002384,481981.90000000596,478823.882,478839,478857.83,481996.898,1,40,,
trial,html.Screen,6_26_0,2023-11-15T19:46:33.820Z,,,,1,-0.8579451262594331,0.9633172970727744,,false,hl,3880.502000005974,response,0.887838744955182,0.9499999999999997,-0.9499999999999997,-0.7545096650863988,0.9499999999999997,-0.9499999999999997,high,low,,ISIC_0067172.JPG,,ISIC_1488727.JPG,26,true,hh,keypress(i),0,false,485877.8000000119,485877.40000000596,481980.201,481982.90000000596,481996.898,485887.597,1,40,27,
sequence,flow.Sequence,6_26,2023-11-15T19:46:33.821Z,,,,,,,,,,3880.502000005974,completion,,,,,,,high,low,,,,,,true,,,,false,485878.40000000596,485877.40000000596,481980.201,481982.90000000596,481996.898,485887.597,1,40,,
trial,html.Screen,6_27_0,2023-11-15T19:46:37.437Z,,,,1,-0.8859261802814055,-0.9191342361964594,,false,hh,3606.503000023833,response,0.8426401499140178,0.9499999999999997,-0.9499999999999997,0.9561650569523902,0.9499999999999997,-0.9499999999999997,high,high,,ISIC_0029395.JPG,,ISIC_0060380.JPG,167,true,lh,keypress(e),0,false,489494.5,489494.10000002384,485871.067,485878.7000000179,485887.597,489511.546,1,40,28,
sequence,flow.Sequence,6_27,2023-11-15T19:46:37.437Z,,,,,,,,,,3606.503000023833,completion,,,,,,,high,high,,,,,,true,,,,false,489495,489494.10000002384,485871.067,485878.60000002384,485887.597,489511.546,1,40,,
trial,html.Screen,6_28_0,2023-11-15T19:46:41.933Z,,,,1,-0.9102336581208296,-1.0305113346799688,,true,hh,4478.254000011948,response,1.0490239046679242,0.9499999999999997,-0.9499999999999997,0.772342084429769,0.9499999999999997,-0.9499999999999997,high,high,,ISIC_0068530.JPG,,ISIC_0071430.JPG,167,true,hh,keypress(i),0,false,493990.10000002384,493989.8000000119,489494.675,489495.2000000179,489511.546,494003.509,1,40,29,
sequence,flow.Sequence,6_28,2023-11-15T19:46:41.933Z,,,,,,,,,,4478.254000011948,completion,,,,,,,high,high,,,,,,true,,,,false,493990.60000002384,493989.8000000119,489494.675,489495.10000002384,489511.546,494003.509,1,40,,
trial,html.Screen,6_29_0,2023-11-15T19:46:45.829Z,,,,1,-0.858338058340649,0.9540612223480284,,false,hl,3882.3910000059404,response,0.7809949855371787,0.9499999999999997,-0.9499999999999997,-0.8493861117004308,0.9499999999999997,-0.9499999999999997,high,low,,ISIC_8922893.JPG,,ISIC_7450481.JPG,26,true,hh,keypress(i),0,false,497886.3000000119,497885.90000000596,493986.853,493990.8000000119,494003.509,497894.281,1,40,30,
sequence,flow.Sequence,6_29,2023-11-15T19:46:45.829Z,,,,,,,,,,3882.3910000059404,completion,,,,,,,high,low,,,,,,true,,,,false,497886.7000000179,497885.90000000596,493986.853,493990.8000000119,494003.509,497894.281,1,40,,
trial,html.Screen,6_30_0,2023-11-15T19:46:50.709Z,,,,1,0.8658216082775305,0.9788979939580964,,true,ll,4871.519000011904,response,-1.0014506884079168,0.9499999999999997,-0.9499999999999997,-0.8483652665994107,0.9499999999999997,-0.9499999999999997,low,low,,ISIC_0331389.JPG,,ISIC_1110583.JPG,142,true,ll,keypress(f),0,false,502766,502765.8000000119,497877.798,497886.90000000596,497894.281,502770.518,1,40,31,
sequence,flow.Sequence,6_30,2023-11-15T19:46:50.709Z,,,,,,,,,,4871.519000011904,completion,,,,,,,low,low,,,,,,true,,,,false,502766.40000000596,502765.8000000119,497877.798,497886.8000000119,497894.281,502770.518,1,40,,
trial,html.Screen,6_31_0,2023-11-15T19:46:53.637Z,,,,1,-0.9071602543711612,-1.073798502866343,,true,hh,2923.08200002386,response,0.9303292478996148,0.9499999999999997,-0.9499999999999997,1.0396291493634244,0.9499999999999997,-0.9499999999999997,high,high,,ISIC_6676776.JPG,,ISIC_0068580.JPG,167,true,hh,keypress(i),0,false,505693.90000000596,505693.60000002384,502753.923,502766.60000002384,502770.518,505709.651,1,40,32,
sequence,flow.Sequence,6_31,2023-11-15T19:46:53.637Z,,,,,,,,,,2923.08200002386,completion,,,,,,,high,high,,,,,,true,,,,false,505694.40000000596,505693.60000002384,502753.923,502766.5,502770.518,505709.651,1,40,,
trial,html.Screen,6_32_0,2023-11-15T19:46:58.789Z,,,,1,0.7871162143493278,-0.8429329800778957,,true,lh,5135.949000023829,response,-0.879102500583965,0.9499999999999997,-0.9499999999999997,1.0933081951979773,0.9499999999999997,-0.9499999999999997,low,high,,ISIC_3439215.JPG,,ISIC_0046223.JPG,28,true,lh,keypress(e),0,false,510846,510845.60000002384,505693.04,505694.7000000179,505709.651,510852.817,1,40,33,
sequence,flow.Sequence,6_32,2023-11-15T19:46:58.789Z,,,,,,,,,,5135.949000023829,completion,,,,,,,low,high,,,,,,true,,,,false,510846.5,510845.60000002384,505693.04,505694.60000002384,505709.651,510852.817,1,40,,
trial,html.Screen,6_33_0,2023-11-15T19:47:02.901Z,,,,1,1.0130095662293503,1.098939882801048,,true,ll,4105.183000000019,response,-0.7504722488504932,0.9499999999999997,-0.9499999999999997,-1.117673118196769,0.9499999999999997,-0.9499999999999997,low,low,,ISIC_0059897.JPG,,ISIC_0028027.JPG,142,true,ll,keypress(f),0,false,514958.2000000179,514958,510836.358,510846.7000000179,510852.817,514960.876,1,40,34,
sequence,flow.Sequence,6_33,2023-11-15T19:47:02.901Z,,,,,,,,,,4105.183000000019,completion,,,,,,,low,low,,,,,,true,,,,false,514958.7000000179,514958,510836.358,510846.60000002384,510852.817,514960.876,1,40,,
trial,html.Screen,6_34_0,2023-11-15T19:47:09.773Z,,,,1,0.9235571765207048,-1.0008081653938232,,true,lh,6868.624000000011,response,-0.8541581294181414,0.9499999999999997,-0.9499999999999997,0.7637475587255248,0.9499999999999997,-0.9499999999999997,low,high,,ISIC_8796632.JPG,,ISIC_0014782.JPG,28,true,lh,keypress(e),0,false,521829.90000000596,521829.5,514944.409,514958.90000000596,514960.876,521840.951,1,40,35,
sequence,flow.Sequence,6_34,2023-11-15T19:47:09.773Z,,,,,,,,,,6868.624000000011,completion,,,,,,,low,high,,,,,,true,,,,false,521830.3000000119,521829.5,514944.409,514958.8000000119,514960.876,521840.951,1,40,,
trial,html.Screen,6_35_0,2023-11-15T19:47:14.917Z,,,,1,0.9787884514439864,1.139528725910855,,true,ll,5133.048999999999,response,-0.8755959065262388,0.9499999999999997,-0.9499999999999997,-1.093284184366194,0.9499999999999997,-0.9499999999999997,low,low,,ISIC_0032726.JPG,,ISIC_8096177.JPG,142,true,ll,keypress(f),0,false,526974.3000000119,526974,521824.351,521830.60000002384,521840.951,526984.286,1,40,36,
sequence,flow.Sequence,6_35,2023-11-15T19:47:14.918Z,,,,,,,,,,5133.048999999999,completion,,,,,,,low,low,,,,,,true,,,,false,526974.8000000119,526974,521824.351,521830.5,521840.951,526984.286,1,40,,
trial,html.Screen,6_36_0,2023-11-15T19:47:18.171Z,,,,1,0.8426512029386741,0.7924499678897714,,true,ll,3244.0140000119573,response,-0.8093923499033241,0.9499999999999997,-0.9499999999999997,-1.102485543525293,0.9499999999999997,-0.9499999999999997,low,low,,ISIC_0013636.JPG,,ISIC_1208705.JPG,142,true,ll,keypress(f),0,false,530228.400000006,530228.3000000119,526967.655,526975.1000000238,526984.286,530240.74,1,40,37,
sequence,flow.Sequence,6_36,2023-11-15T19:47:18.171Z,,,,,,,,,,3244.0140000119573,completion,,,,,,,low,low,,,,,,true,,,,false,530228.400000006,530228.3000000119,526967.655,526975.1000000238,526984.286,530240.74,1,40,,
trial,html.Screen,6_37_0,2023-11-15T19:47:24.085Z,,,,1,1.0022829373011404,-0.8311726972863814,,true,lh,5900.860000023851,response,-1.011737552725394,0.9499999999999997,-0.9499999999999997,0.8500530224490773,0.9499999999999997,-0.9499999999999997,low,high,,ISIC_0033287.JPG,,ISIC_2998367.JPG,28,true,lh,keypress(e),0,false,536141.900000006,536141.6000000238,530224.09,530228.5,530240.74,536152.067,1,40,38,
sequence,flow.Sequence,6_37,2023-11-15T19:47:24.085Z,,,,,,,,,,5900.860000023851,completion,,,,,,,low,high,,,,,,true,,,,false,536142.400000006,536141.6000000238,530224.09,530228.5,530240.74,536152.067,1,40,,
trial,html.Screen,6_38_0,2023-11-15T19:47:29.693Z,,,,1,0.809764442462202,-1.005337148078696,,false,lh,5597.833000005921,response,-0.8487429103619056,0.9499999999999997,-0.9499999999999997,0.9778257804233036,0.9499999999999997,-0.9499999999999997,low,high,,ISIC_2379379.JPG,,ISIC_4554863.JPG,28,true,ll,keypress(f),0,false,541750.2000000179,541749.900000006,536135.394,536142.7000000179,536152.067,541763.072,1,40,39,
sequence,flow.Sequence,6_38,2023-11-15T19:47:29.693Z,,,,,,,,,,5597.833000005921,completion,,,,,,,low,high,,,,,,true,,,,false,541750.7000000179,541749.900000006,536135.394,536142.6000000238,536152.067,541763.072,1,40,,
trial,html.Screen,6_39_0,2023-11-15T19:47:34.389Z,,,,1,0.7638895244791114,-0.7780412100090998,,true,lh,4682.728000011877,response,-0.8979276789594874,0.9499999999999997,-0.9499999999999997,0.925374811016654,0.9499999999999997,-0.9499999999999997,low,high,,ISIC_0026516.JPG,,ISIC_4208361.JPG,28,true,lh,keypress(e),0,false,546446.2000000179,546445.8000000119,541746.515,541750.900000006,541763.072,546455.455,1,40,40,
sequence,flow.Sequence,6_39,2023-11-15T19:47:34.389Z,,,,,,,,,,4682.728000011877,completion,,,,,,,low,high,,,,,,true,,,,false,546446.6000000238,546445.8000000119,541746.515,541750.900000006,541763.072,546455.455,1,40,,
practice_loop,flow.Loop,6,2023-11-15T19:47:34.390Z,,,,,,,,,,191646.71300001192,completion,,,,,,,,,,,,,,true,,,,false,546447,546445.8000000119,354782.459,354796.7000000179,354799.087,546455.455,1,40,,
stair_instructions,html.Screen,7,2023-11-15T19:47:39.091Z,,,,,,,,,,4692.845000011963,response,,,,,,,,,,,,,,,continue,click button,,,551148.7000000179,551148.3000000119,546438.943,546447.2000000179,546455.455,551164.836,,,,
trial,html.Screen,8_0_0,2023-11-15T19:47:42.442Z,,,,2,0.0070725527271049,0.0049995141077508,,true,hh,3334.1639999999898,response,1.1253220985777015,0.9499999999999997,-0.9499999999999997,1.108725659461368,0.9499999999999997,-0.9499999999999997,high,high,,ISIC_6124481.JPG,,ISIC_0054954.JPG,167,false,hh,keypress(i),0,true,554499.1000000238,554499,551148.204,551148.8000000119,551164.836,554521.233,1,40,1,
sequence,flow.Sequence,8_0,2023-11-15T19:47:42.442Z,,,,,,,,,,3334.1639999999898,completion,,,,,,,high,high,,,,,,false,,,,true,554499.2000000179,554499,551148.204,551148.8000000119,551164.836,554521.233,1,40,,
trial,html.Screen,8_1_0,2023-11-15T19:47:45.724Z,,,,2,0.0538169356437535,-0.0113486191005169,,false,hl,3259.667000005953,response,0.948927472020595,0.9499999999999997,-0.9499999999999997,-1.0660437155921598,0.9499999999999997,-0.9499999999999997,high,low,,ISIC_0009939.JPG,,ISIC_5808758.JPG,26,false,lh,keypress(e),0,true,557781,557780.900000006,554504.488,554499.3000000119,554521.233,557794.39,1,40,2,
sequence,flow.Sequence,8_1,2023-11-15T19:47:45.724Z,,,,,,,,,,3259.667000005953,completion,,,,,,,high,low,,,,,,false,,,,true,557781.2000000179,557780.900000006,554504.488,554499.3000000119,554521.233,557794.39,1,40,,
trial,html.Screen,8_2_0,2023-11-15T19:47:50.549Z,,,,2,-0.0159061451859594,-0.0296598845560212,,false,ll,4811.5100000059465,response,-0.8985413691921805,0.9999999999999998,-0.9499999999999997,-1.1177351920180405,0.9499999999999997,-0.9999999999999998,low,low,,ISIC_0072564.JPG,,ISIC_2805573.JPG,140,false,hh,keypress(i),0,true,562606.2000000179,562605.900000006,557777.714,557781.2000000179,557794.39,562620.48,1,40,3,
sequence,flow.Sequence,8_2,2023-11-15T19:47:50.550Z,,,,,,,,,,4811.5100000059465,completion,,,,,,,low,low,,,,,,false,,,,true,562606.7000000179,562605.900000006,557777.714,557781.2000000179,557794.39,562620.48,1,40,,
trial,html.Screen,8_3_0,2023-11-15T19:47:54.582Z,,,,2,0.0107854985447517,0.0478010417136109,,false,ll,4017.920000005979,response,-1.0878102877901663,0.9999999999999998,-0.9999999999999998,-0.9483364581769096,0.9499999999999997,-1.0499999999999998,low,low,,ISIC_0010500.JPG,,ISIC_1413242.JPG,113,false,hl,keypress(j),0,true,566638.7000000179,566638.400000006,562603.724,562606.900000006,562620.48,566644.765,1,40,4,
sequence,flow.Sequence,8_3,2023-11-15T19:47:54.582Z,,,,,,,,,,4017.920000005979,completion,,,,,,,low,low,,,,,,false,,,,true,566639.1000000238,566638.400000006,562603.724,562606.900000006,562620.48,566644.765,1,40,,
trial,html.Screen,8_4_0,2023-11-15T19:47:57.899Z,,,,2,-0.0693466529227737,-0.044703434393184,,true,hh,3310.835000023828,response,0.8345422969075986,0.9999999999999998,-1.0499999999999998,1.01309388434443,0.9499999999999997,-1.0499999999999998,high,high,,ISIC_0004217.JPG,,ISIC_1241817.JPG,155,false,hh,keypress(i),0,true,569955.7000000179,569955.6000000238,566628.151,566639.400000006,566644.765,569968.086,1,40,5,
sequence,flow.Sequence,8_4,2023-11-15T19:47:57.899Z,,,,,,,,,,3310.835000023828,completion,,,,,,,high,high,,,,,,false,,,,true,569955.8000000119,569955.6000000238,566628.151,566639.3000000119,566644.765,569968.086,1,40,,
trial,html.Screen,8_5_0,2023-11-15T19:48:03.821Z,,,,2,-0.0367218428225813,-0.0700576547090477,,false,hl,5909.91399999999,response,0.809764442462202,0.9499999999999997,-0.9999999999999998,-1.005337148078696,0.8238180906260142,-0.9999999999999998,high,low,,ISIC_7212271.JPG,,ISIC_2379379.JPG,20,false,lh,keypress(e),0,true,575878.3000000119,575878,569951.372,569955.900000006,569968.086,575896.284,1,40,6,
sequence,flow.Sequence,8_5,2023-11-15T19:48:03.822Z,,,,,,,,,,5909.91399999999,completion,,,,,,,high,low,,,,,,false,,,,true,575878.8000000119,575878,569951.372,569955.8000000119,569968.086,575896.284,1,40,,
trial,html.Screen,8_6_0,2023-11-15T19:48:08.381Z,,,,2,-0.0220322185490382,-0.0740918837949419,,false,lh,4541.116000005975,response,-0.9454713230140772,0.9999999999999998,-0.9999999999999998,0.9245167441969216,0.8238180906260142,-1.0499999999999998,low,high,,ISIC_8105020.JPG,,ISIC_9101055.JPG,40,false,hh,keypress(i),0,true,580437.6000000238,580437.400000006,575879.577,575879,575896.284,580471.718,1,40,7,
sequence,flow.Sequence,8_6,2023-11-15T19:48:08.381Z,,,,,,,,,,4541.116000005975,completion,,,,,,,low,high,,,,,,false,,,,true,580437.8000000119,580437.400000006,575879.577,575879,575896.284,580471.718,1,40,,
trial,html.Screen,8_7_0,2023-11-15T19:48:12.108Z,,,,2,0.0593670819812057,-0.0718390543903236,,false,lh,3693.5820000119274,response,-0.990489579313564,0.9999999999999998,-1.0499999999999998,0.7747897983133127,0.8238180906260142,-1.0499999999999998,low,high,,ISIC_0062367.JPG,,ISIC_7030404.JPG,37,false,ll,keypress(f),0,true,584165.400000006,584165.3000000119,580454.992,580438.1000000238,580471.718,584178.997,1,40,8,
sequence,flow.Sequence,8_7,2023-11-15T19:48:12.109Z,,,,,,,,,,3693.5820000119274,completion,,,,,,,low,high,,,,,,false,,,,true,584165.8000000119,584165.3000000119,580454.992,580438,580471.718,584178.997,1,40,,
trial,html.Screen,8_8_0,2023-11-15T19:48:18.259Z,,,,2,-0.0113873532168551,-0.0054999201556291,,false,hh,6137.4030000059865,response,0.924451458330822,0.9999999999999998,-1.0499999999999998,0.6889615648592681,0.8738180906260142,-1.0499999999999998,high,high,,ISIC_8812621.JPG,,ISIC_9744305.JPG,171,false,ll,keypress(f),0,true,590316.5,590316.400000006,584162.362,584165.900000006,584178.997,590324.143,1,40,9,
sequence,flow.Sequence,8_8,2023-11-15T19:48:18.260Z,,,,,,,,,,6137.4030000059865,completion,,,,,,,high,high,,,,,,false,,,,true,590316.6000000238,590316.400000006,584162.362,584165.900000006,584178.997,590324.143,1,40,,
trial,html.Screen,8_9_0,2023-11-15T19:48:23.717Z,,,,2,-0.009234249673026,-0.0627190878028592,,false,ll,5450.057000017841,response,-0.9684792294535484,1.0499999999999998,-1.0499999999999998,-0.9741930282015964,0.9238180906260143,-1.0499999999999998,low,low,,ISIC_0053760.JPG,,ISIC_3372750.JPG,111,false,hl,keypress(j),0,true,595774.5,595774.2000000179,590307.697,590316.7000000179,590324.143,595784.802,1,40,10,
sequence,flow.Sequence,8_9,2023-11-15T19:48:23.718Z,,,,,,,,,,5450.057000017841,completion,,,,,,,low,low,,,,,,false,,,,true,595775.1000000238,595774.2000000179,590307.697,590316.6000000238,590324.143,595784.802,1,40,,
trial,html.Screen,8_10_0,2023-11-15T19:48:26.397Z,,,,2,-0.013431314305098,0.0140597582944232,,true,hh,2669.197999999975,response,1.0491289899026992,1.0499999999999998,-1.0999999999999999,1.058683139801412,0.9238180906260143,-1.0499999999999998,high,high,,ISIC_0069617.JPG,,ISIC_0010866.JPG,152,false,hh,keypress(i),0,true,598454.3000000119,598454,595768.16,595775.2000000179,595784.802,598456.783,1,40,11,
sequence,flow.Sequence,8_10,2023-11-15T19:48:26.398Z,,,,,,,,,,2669.197999999975,completion,,,,,,,high,high,,,,,,false,,,,true,598454.7000000179,598454,595768.16,595775.2000000179,595784.802,598456.783,1,40,,
trial,html.Screen,8_11_0,2023-11-15T19:48:31.069Z,,,,2,0.0509970506474296,0.0744820958440291,,true,ll,4669.216999999946,response,-0.9821381220613687,1.0499999999999998,-1.0999999999999999,-1.1931254848796,0.9238180906260143,-1.0499999999999998,low,low,,ISIC_0009975.JPG,,ISIC_4107717.JPG,100,false,ll,keypress(f),0,true,603126.3000000119,603126,598440.134,598455,598456.783,603132.468,1,40,12,
sequence,flow.Sequence,8_11,2023-11-15T19:48:31.070Z,,,,,,,,,,4669.216999999946,completion,,,,,,,low,low,,,,,,false,,,,true,603126.900000006,603126,598440.134,598454.900000006,598456.783,603132.468,1,40,,
trial,html.Screen,8_12_0,2023-11-15T19:48:33.579Z,,,,2,-0.0051189696037511,0.0396625911332438,,true,hh,2503.8320000119274,response,1.188743606919222,1.0499999999999998,-1.0999999999999999,1.0980226451001782,0.9238180906260143,-1.0376318034704843,high,high,,ISIC_9742891.JPG,,ISIC_0060481.JPG,152,false,hh,keypress(i),0,true,605636.400000006,605636.3000000119,603115.844,603127.1000000238,603132.468,605654.907,1,40,13,
sequence,flow.Sequence,8_12,2023-11-15T19:48:33.579Z,,,,,,,,,,2503.8320000119274,completion,,,,,,,high,high,,,,,,false,,,,true,605636.5,605636.3000000119,603115.844,603127,603132.468,605654.907,1,40,,
trial,html.Screen,8_13_0,2023-11-15T19:48:39.734Z,,,,2,0.039728379742806,-0.0228701131373768,,false,lh,6135.393000011914,response,-1.27543269240326,0.9999999999999998,-1.0999999999999999,0.80839597388021,0.8738180906260142,-1.0376318034704843,low,high,,ISIC_0054073.JPG,,ISIC_3296136.JPG,24,false,ll,keypress(f),0,true,611790.7000000179,611790.3000000119,605620.719,605636.6000000238,605654.907,611799.327,1,40,14,
sequence,flow.Sequence,8_13,2023-11-15T19:48:39.734Z,,,,,,,,,,6135.393000011914,completion,,,,,,,low,high,,,,,,false,,,,true,611791.2000000179,611790.3000000119,605620.719,605636.5,605654.907,611799.327,1,40,,
trial,html.Screen,8_14_0,2023-11-15T19:48:44.853Z,,,,2,0.0111354529246037,-0.0585810480909377,,true,lh,5110.672999999952,response,-0.879102500583965,0.9999999999999998,-1.0787854072323142,1.0933081951979773,0.9238180906260143,-1.0376318034704843,low,high,,ISIC_7858034.JPG,,ISIC_0046223.JPG,24,false,lh,keypress(e),0,true,616910.3000000119,616910,611782.718,611791.5,611799.327,616926.132,1,40,15,
sequence,flow.Sequence,8_14,2023-11-15T19:48:44.854Z,,,,,,,,,,5110.672999999952,completion,,,,,,,low,high,,,,,,false,,,,true,616910.8000000119,616910,611782.718,611791.3000000119,611799.327,616926.132,1,40,,
trial,html.Screen,8_15_0,2023-11-15T19:48:50.766Z,,,,2,0.0608867680161491,0.0206384042070211,,false,lh,5896.068000017898,response,-1.1097716037944447,0.9999999999999998,-1.0787854072323142,0.726994437314983,0.9238180906260143,-1.0376318034704843,low,high,,ISIC_0640806.JPG,,ISIC_0000139.JPG,24,false,ll,keypress(f),0,true,622822.5,622822.2000000179,616909.475,616911,616926.132,622837.537,1,40,16,
sequence,flow.Sequence,8_15,2023-11-15T19:48:50.766Z,,,,,,,,,,5896.068000017898,completion,,,,,,,low,high,,,,,,false,,,,true,622822.900000006,622822.2000000179,616909.475,616910.900000006,616926.132,622837.537,1,40,,
trial,html.Screen,8_16_0,2023-11-15T19:48:55.645Z,,,,2,-0.0112310719058792,0.0469047359904117,,true,lh,4864.462999999989,response,-0.8809306963311293,0.9999999999999998,-1.0287854072323142,0.8614910030038974,0.9738180906260143,-1.0376318034704843,low,high,,ISIC_0068184.JPG,,ISIC_0013731.JPG,23,false,lh,keypress(e),0,true,627702.3000000119,627702,622820.925,622823.1000000238,622837.537,627713.646,1,40,17,
sequence,flow.Sequence,8_16,2023-11-15T19:48:55.646Z,,,,,,,,,,4864.462999999989,completion,,,,,,,low,high,,,,,,false,,,,true,627702.7000000179,627702,622820.925,622823.1000000238,622837.537,627713.646,1,40,,
trial,html.Screen,8_17_0,2023-11-15T19:48:58.477Z,,,,2,0.0111354529246037,-0.0585810480909377,,true,hh,2820.3540000000503,response,0.9808380646997692,0.9999999999999998,-1.0287854072323142,0.7749885350260185,0.9738180906260143,-1.0376318034704843,high,high,,ISIC_7858034.JPG,,ISIC_0032190.JPG,147,false,hh,keypress(i),0,true,630534.3000000119,630534,627697.135,627702.900000006,627713.646,630552.748,1,40,18,
sequence,flow.Sequence,8_17,2023-11-15T19:48:58.478Z,,,,,,,,,,2820.3540000000503,completion,,,,,,,high,high,,,,,,false,,,,true,630534.7000000179,630534,627697.135,627702.900000006,627713.646,630552.748,1,40,,
trial,html.Screen,8_18_0,2023-11-15T19:49:02.573Z,,,,2,-0.0531672914703651,0.0074883925434357,,false,hl,4077.3520000238204,response,0.8947611078712571,0.9499999999999997,-0.9787854072323141,-0.8960964505004638,0.7779132998628937,-0.9876318034704843,high,low,,ISIC_4177043.JPG,,ISIC_6441128.JPG,24,false,hh,keypress(i),0,true,634630.400000006,634630.1000000238,630519.23,630535,630552.748,634643.821,1,40,19,
sequence,flow.Sequence,8_18,2023-11-15T19:49:02.574Z,,,,,,,,,,4077.3520000238204,completion,,,,,,,high,low,,,,,,false,,,,true,634630.8000000119,634630.1000000238,630519.23,630535,630552.748,634643.821,1,40,,
trial,html.Screen,8_19_0,2023-11-15T19:49:06.862Z,,,,2,-0.040191644178716,0.0622582668671422,,true,hl,4274.379000017885,response,0.6507198070497014,0.837799586285513,-0.9287854072323141,-0.8917645531587611,0.7279132998628937,-0.9876318034704843,high,low,,ISIC_6207688.JPG,,ISIC_8781751.JPG,37,false,hl,keypress(j),0,true,638918.5,638918.2000000179,634627.297,634631.1000000238,634643.821,638935.733,1,40,20,
sequence,flow.Sequence,8_19,2023-11-15T19:49:06.862Z,,,,,,,,,,4274.379000017885,completion,,,,,,,high,low,,,,,,false,,,,true,638918.900000006,638918.2000000179,634627.297,634631.1000000238,634643.821,638935.733,1,40,,
trial,html.Screen,8_20_0,2023-11-15T19:49:12.630Z,,,,2,-0.013431314305098,0.0140597582944232,,true,hl,5751.167000005953,response,0.6714344890480403,0.837799586285513,-0.9287854072323141,-0.9362962536620838,0.7279132998628937,-0.9876318034704843,high,low,,ISIC_0069617.JPG,,ISIC_3691320.JPG,37,false,hl,keypress(j),0,true,644687.2000000179,644686.900000006,638918.918,638919.2000000179,638935.733,644696.751,1,40,21,
sequence,flow.Sequence,8_20,2023-11-15T19:49:12.631Z,,,,,,,,,,5751.167000005953,completion,,,,,,,high,low,,,,,,false,,,,true,644687.7000000179,644686.900000006,638918.918,638919.2000000179,638935.733,644696.751,1,40,,
trial,html.Screen,8_21_0,2023-11-15T19:49:17.356Z,,,,2,0.0027483411352856,0.0100996915276271,,false,ll,4716.2489999999525,response,-0.7422736922357102,0.7877995862855129,-0.9287854072323141,-0.9021253278345898,0.7279132998628937,-0.8640304034104225,low,low,,ISIC_7364041.JPG,,ISIC_0031582.JPG,177,false,hl,keypress(j),0,true,649413.2000000179,649413,644679.916,644687.900000006,644696.751,649422.645,1,40,22,
sequence,flow.Sequence,8_21,2023-11-15T19:49:17.356Z,,,,,,,,,,4716.2489999999525,completion,,,,,,,low,low,,,,,,false,,,,true,649413.3000000119,649413,644679.916,644687.900000006,644696.751,649422.645,1,40,,
trial,html.Screen,8_22_0,2023-11-15T19:49:19.533Z,,,,2,-0.0735635316240061,0.0537805418091709,,true,hh,2167.0550000178628,response,0.8543323078107433,0.7877995862855129,-0.9787854072323141,0.7461766562126003,0.7279132998628937,-0.8640304034104225,high,high,,ISIC_1761799.JPG,,ISIC_0012070.JPG,266,false,hh,keypress(i),0,true,651590,651589.7000000179,649405.905,649413.5,649422.645,651593.514,1,40,23,
sequence,flow.Sequence,8_22,2023-11-15T19:49:19.534Z,,,,,,,,,,2167.0550000178628,completion,,,,,,,high,high,,,,,,false,,,,true,651590.5,651589.7000000179,649405.905,649413.400000006,649422.645,651593.514,1,40,,
trial,html.Screen,8_23_0,2023-11-15T19:49:25.045Z,,,,2,0.0116094682222121,-0.0258434522530318,,false,lh,5508.4860000000335,response,-0.8146088897683552,0.7877995862855129,-0.9787854072323141,0.5340499057158709,0.7279132998628937,-0.8640304034104225,low,high,,ISIC_9239632.JPG,,ISIC_0070814.JPG,54,false,ll,keypress(f),0,true,657102.3000000119,657102,651576.885,651590.8000000119,651593.514,657121.452,1,40,24,
sequence,flow.Sequence,8_23,2023-11-15T19:49:25.046Z,,,,,,,,,,5508.4860000000335,completion,,,,,,,low,high,,,,,,false,,,,true,657102.6000000238,657102,651576.885,651590.7000000179,651593.514,657121.452,1,40,,
trial,html.Screen,8_24_0,2023-11-15T19:49:30.965Z,,,,2,-0.0565575423757561,-0.0394300226801425,,false,lh,5900.648000023793,response,-1.011737552725394,0.7877995862855129,-0.9787854072323141,0.8500530224490773,0.7779132998628937,-0.8640304034104225,low,high,,ISIC_0046983.JPG,,ISIC_2998367.JPG,49,false,hh,keypress(i),0,true,663022.400000006,663022.1000000238,657087.593,657102.900000006,657121.452,663032.449,1,40,25,
sequence,flow.Sequence,8_24,2023-11-15T19:49:30.966Z,,,,,,,,,,5900.648000023793,completion,,,,,,,low,high,,,,,,false,,,,true,663022.900000006,663022.1000000238,657087.593,657102.8000000119,657121.452,663032.449,1,40,,
trial,html.Screen,8_25_0,2023-11-15T19:49:35.036Z,,,,2,-0.0149482827359613,0.0661630859332833,,true,hh,4060.3510000118986,response,0.8665886246441876,0.7877995862855129,-1.0287854072323142,0.8507210279123499,0.7779132998628937,-0.8640304034104225,high,high,,ISIC_6815524.JPG,,ISIC_1071355.JPG,252,false,hh,keypress(i),0,true,667092.900000006,667092.8000000119,663015.875,663023.1000000238,663032.449,667107.033,1,40,26,
sequence,flow.Sequence,8_25,2023-11-15T19:49:35.036Z,,,,,,,,,,4060.3510000118986,completion,,,,,,,high,high,,,,,,false,,,,true,667093.1000000238,667092.8000000119,663015.875,663023,663032.449,667107.033,1,40,,
trial,html.Screen,8_26_0,2023-11-15T19:49:39.726Z,,,,2,-0.0051189696037511,0.0396625911332438,,false,ll,4675.267000011867,response,-0.8763527075016911,0.8003870251807136,-1.0287854072323142,-0.8957887978691169,0.8003870251807136,-0.8640304034104225,low,low,,ISIC_9742891.JPG,,ISIC_8943906.JPG,166,false,lh,keypress(e),0,true,671782.6000000238,671782.3000000119,667090.528,667093.2000000179,667107.033,671799.646,1,40,27,
sequence,flow.Sequence,8_26,2023-11-15T19:49:39.726Z,,,,,,,,,,4675.267000011867,completion,,,,,,,low,low,,,,,,false,,,,true,671783.1000000238,671782.3000000119,667090.528,667093.1000000238,667107.033,671799.646,1,40,,
trial,html.Screen,8_27_0,2023-11-15T19:49:46.030Z,,,,2,0.0324770283903853,0.0249968632204382,,true,ll,6286.554000017932,response,-1.1727618800748076,0.8003870251807136,-1.0287854072323142,-0.7193286557553458,0.8003870251807136,-0.9140304034104225,low,low,,ISIC_7266462.JPG,,ISIC_9690371.JPG,148,false,ll,keypress(f),0,true,678086.5,678086.2000000179,671782.957,671783.400000006,671799.646,678095.073,1,40,28,
sequence,flow.Sequence,8_27,2023-11-15T19:49:46.030Z,,,,,,,,,,6286.554000017932,completion,,,,,,,low,low,,,,,,false,,,,true,678087,678086.2000000179,671782.957,671783.3000000119,671799.646,678095.073,1,40,,
trial,html.Screen,8_28_0,2023-11-15T19:49:51.166Z,,,,2,-0.0367218428225813,-0.0700576547090477,,false,lh,5127.1270000179065,response,-0.7401156491866404,0.8003870251807136,-0.8960452679150767,0.94165594025755,0.8003870251807136,-0.9140304034104225,low,high,,ISIC_7212271.JPG,,ISIC_0072429.JPG,55,false,hl,keypress(j),0,true,683222.6000000238,683222.2000000179,678078.516,678087.3000000119,678095.073,683238.425,1,40,29,
sequence,flow.Sequence,8_28,2023-11-15T19:49:51.166Z,,,,,,,,,,5127.1270000179065,completion,,,,,,,low,high,,,,,,false,,,,true,683223.1000000238,683222.2000000179,678078.516,678087.2000000179,678095.073,683238.425,1,40,,
trial,html.Screen,8_29_0,2023-11-15T19:49:58.006Z,,,,2,-0.040191644178716,0.0622582668671422,,false,hl,6823.475000005914,response,0.6142525467088931,0.8003870251807136,-0.9460452679150767,-0.9311865209554536,0.8503870251807136,-0.9140304034104225,high,low,,ISIC_6207688.JPG,,ISIC_3474609.JPG,46,false,lh,keypress(e),0,true,690062.2000000179,690061.900000006,683221.779,683223.3000000119,683238.425,690068.399,1,40,30,
sequence,flow.Sequence,8_29,2023-11-15T19:49:58.006Z,,,,,,,,,,6823.475000005914,completion,,,,,,,high,low,,,,,,false,,,,true,690062.7000000179,690061.900000006,683221.779,683223.3000000119,683238.425,690068.399,1,40,,
trial,html.Screen,8_30_0,2023-11-15T19:50:01.638Z,,,,2,-0.0693466529227737,-0.044703434393184,,false,lh,3626.0010000059847,response,-0.8534691366511764,0.8503870251807136,-0.9460452679150767,1.03975580494588,0.8503870251807136,-0.9640304034104226,low,high,,ISIC_0004217.JPG,,ISIC_0056788.JPG,43,false,hh,keypress(i),0,true,693694.8000000119,693694.400000006,690051.6,690062.900000006,690068.399,693708.903,1,40,31,
sequence,flow.Sequence,8_30,2023-11-15T19:50:01.639Z,,,,,,,,,,3626.0010000059847,completion,,,,,,,low,high,,,,,,false,,,,true,693695.2000000179,693694.400000006,690051.6,690062.900000006,690068.399,693708.903,1,40,,
trial,html.Screen,8_31_0,2023-11-15T19:50:07.470Z,,,,2,0.0450282431170921,,,true,ll,5816.997000005911,response,-0.7977113275495125,0.8503870251807136,-0.9960452679150767,-0.923711824877252,0.8503870251807136,-0.9640304034104226,low,low,,ISIC_1805163.JPG,,ISIC_1023354.JPG,138,false,ll,keypress(f),0,true,699526.2000000179,699525.900000006,693692.231,693695.5,693708.903,699536.774,1,40,32,
sequence,flow.Sequence,8_31,2023-11-15T19:50:07.470Z,,,,,,,,,,5816.997000005911,completion,,,,,,,low,low,,,,,,false,,,,true,699526.7000000179,699525.900000006,693692.231,693695.400000006,693708.903,699536.774,1,40,,
trial,html.Screen,8_32_0,2023-11-15T19:50:13.958Z,,,,2,-0.0113873532168551,-0.0054999201556291,,false,ll,6477.626000005985,response,-1.0858641668099058,0.8503870251807136,-0.9960452679150767,-1.1638942560200525,0.8503870251807136,-0.9640304034104226,low,low,,ISIC_8812621.JPG,,ISIC_5439597.JPG,138,false,hl,keypress(j),0,true,706014.8000000119,706014.400000006,699520.25,699527,699536.774,706033.008,1,40,33,
sequence,flow.Sequence,8_32,2023-11-15T19:50:13.959Z,,,,,,,,,,6477.626000005985,completion,,,,,,,low,low,,,,,,false,,,,true,706015.3000000119,706014.400000006,699520.25,699526.8000000119,699536.774,706033.008,1,40,,
trial,html.Screen,8_33_0,2023-11-15T19:50:16.398Z,,,,2,0.0050679133050021,-0.0009714874637896,,true,hh,2421.092000023811,response,1.0470490803707713,0.8503870251807136,-1.0460452679150767,0.9267385554195492,0.8503870251807136,-0.9938030404486522,high,high,,ISIC_9848743.JPG,,ISIC_0058649.JPG,217,false,hh,keypress(i),0,true,708454.400000006,708454.1000000238,706015.961,706015.5,706033.008,708471.081,1,40,34,
sequence,flow.Sequence,8_33,2023-11-15T19:50:16.398Z,,,,,,,,,,2421.092000023811,completion,,,,,,,high,high,,,,,,false,,,,true,708454.900000006,708454.1000000238,706015.961,706015.400000006,706033.008,708471.081,1,40,,
trial,html.Screen,8_34_0,2023-11-15T19:50:20.476Z,,,,2,0.0593670819812057,-0.0718390543903236,,false,hl,4061.819000005955,response,0.991146183030456,0.8503870251807136,-1.0460452679150767,-0.9949639823722534,0.9368938178951602,-0.9938030404486522,high,low,,ISIC_0062367.JPG,,ISIC_6342224.JPG,34,false,hh,keypress(i),0,true,712533.1000000238,712532.900000006,708454.352,708455.1000000238,708471.081,712545.514,1,40,35,
sequence,flow.Sequence,8_34,2023-11-15T19:50:20.477Z,,,,,,,,,,4061.819000005955,completion,,,,,,,high,low,,,,,,false,,,,true,712533.3000000119,712532.900000006,708454.352,708455,708471.081,712545.514,1,40,,
trial,html.Screen,8_35_0,2023-11-15T19:50:26.677Z,,,,2,-0.013431314305098,0.0140597582944232,,false,hl,6187.586000023875,response,0.9235571765207048,0.9190976317006134,-0.9960452679150766,-1.0008081653938232,0.8868938178951602,-0.9938030404486522,high,low,,ISIC_0069617.JPG,,ISIC_8796632.JPG,25,false,hh,keypress(i),0,true,718733.2000000179,718733.1000000238,712528.916,712533.400000006,712545.514,718740.853,1,40,36,
sequence,flow.Sequence,8_35,2023-11-15T19:50:26.677Z,,,,,,,,,,6187.586000023875,completion,,,,,,,high,low,,,,,,false,,,,true,718733.5,718733.1000000238,712528.916,712533.400000006,712545.514,718740.853,1,40,,
trial,html.Screen,8_36_0,2023-11-15T19:50:33.342Z,,,,2,-0.059471106306043,0.0678292174694111,,false,hl,6657.347000017879,response,0.7871162143493278,0.8690976317006134,-0.9460452679150766,-0.8429329800778957,0.8368938178951602,-0.9938030404486522,high,low,,ISIC_0015631.JPG,,ISIC_3439215.JPG,31,false,lh,keypress(e),0,true,725398.5,725398.2000000179,718724.231,718733.6000000238,718740.853,725403.792,1,40,37,
sequence,flow.Sequence,8_36,2023-11-15T19:50:33.342Z,,,,,,,,,,6657.347000017879,completion,,,,,,,high,low,,,,,,false,,,,true,725399,725398.2000000179,718724.231,718733.6000000238,718740.853,725403.792,1,40,,
trial,html.Screen,8_37_0,2023-11-15T19:50:39.159Z,,,,2,-0.0693466529227737,-0.044703434393184,,true,hh,5811.008000011905,response,1.057567724570464,0.9190976317006134,-0.9460452679150766,0.7906457140772123,0.8368938178951602,-1.0438030404486522,high,high,,ISIC_0004217.JPG,,ISIC_0034162.JPG,208,false,hh,keypress(i),0,true,731215.2000000179,731214.8000000119,725387.19,725399.2000000179,725403.792,731231.787,1,40,38,
sequence,flow.Sequence,8_37,2023-11-15T19:50:39.159Z,,,,,,,,,,5811.008000011905,completion,,,,,,,high,high,,,,,,false,,,,true,731215.7000000179,731214.8000000119,725387.19,725399.1000000238,725403.792,731231.787,1,40,,
trial,html.Screen,8_38_0,2023-11-15T19:50:45.396Z,,,,2,-0.009234249673026,-0.0627190878028592,,true,ll,6220.712999999989,response,-1.007248440493079,0.9190976317006134,-0.9460452679150766,-0.8493817247965978,0.8368938178951602,-1.0438030404486522,low,low,,ISIC_0053760.JPG,,ISIC_0030219.JPG,130,false,ll,keypress(f),0,true,737452.7000000179,737452.5,731215.066,731216,731231.787,737460.587,1,40,39,
sequence,flow.Sequence,8_38,2023-11-15T19:50:45.396Z,,,,,,,,,,6220.712999999989,completion,,,,,,,low,low,,,,,,false,,,,true,737452.8000000119,737452.5,731215.066,731215.900000006,731231.787,737460.587,1,40,,
trial,html.Screen,8_39_0,2023-11-15T19:50:48.774Z,,,,2,0.0217698886732706,-0.0410870915161425,,false,hl,3369.213000011863,response,0.7118141631588264,0.8690976317006134,-0.8960452679150765,-1.0369885917487718,0.7868938178951601,-0.9938030404486522,high,low,,ISIC_0072173.JPG,,ISIC_6917681.JPG,31,false,ll,keypress(f),0,true,740830.1000000238,740829.8000000119,737444.098,737452.900000006,737460.587,740833.834,1,40,40,
sequence,flow.Sequence,8_39,2023-11-15T19:50:48.774Z,,,,,,,,,,3369.213000011863,completion,,,,,,,high,low,,,,,,false,,,,true,740830.6000000238,740829.8000000119,737444.098,737452.8000000119,737460.587,740833.834,1,40,,
stair_loop,flow.Loop,8,2023-11-15T19:50:48.774Z,,,,,,,,,,189664.9640000119,completion,,,,,,,,,,,,,,false,,,,true,740830.900000006,740829.8000000119,551148.204,551148.8000000119,551164.836,740833.834,1,40,,
exp_instructions,html.Screen,9,2023-11-15T19:51:04.878Z,,,,,,,,,,16099.46600001189,response,,,,,,,,,,,,,,,continue,keypress(Space),,,756934.2000000179,756933.3000000119,740817.09,740831,740833.834,756948.525,,,,
trial,html.Screen,10_0_0,2023-11-15T19:51:11.783Z,,,,1,-0.0134764727102299,-0.0033499036460912,,false,lh,6890.675000017858,response,-1.1097716037944447,0.8362884451421284,-0.9741413236419717,0.726994437314983,0.8120969453997015,-0.943130896376806,low,high,,ISIC_0009998.JPG,8,ISIC_0000139.JPG,45,false,ll,keypress(f),0,false,763839.3000000119,763839.2000000179,756931.722,756934.7000000179,756948.525,763845.302,4,500,1,
break,html.Screen,10_0_1,2023-11-15T19:51:11.783Z,,,,,,,,,,NaN,,,,,,,,low,high,,,,,,false,,,,false,763839.8000000119,763839.7000000179,,763839.400000006,,763845.302,4,500,,
break_continue,html.Screen,10_0_2,2023-11-15T19:51:11.784Z,,,,,,,,,,NaN,,,,,,,,low,high,,,,,,false,,,,false,763840.2000000179,763840.1000000238,,763839.900000006,,763845.302,4,500,,
sequence,flow.Sequence,10_0,2023-11-15T19:51:11.784Z,,,,,,,,,,6891.575000023819,completion,,,,,,,low,high,,,,,,false,,,,false,763840.3000000119,763840.1000000238,756931.722,756934.6000000238,756948.525,763845.302,4,500,,
trial,html.Screen,10_1_0,2023-11-15T19:51:18.038Z,,,,1,-0.0149482827359613,0.0661630859332833,,false,ll,6249.098000005935,response,-0.8842396282744274,0.8362884451421284,-0.9741413236419717,-1.0676592823752966,0.8120969453997015,-0.943130896376806,low,low,,ISIC_6815524.JPG,8,ISIC_0029182.JPG,144,false,hl,keypress(j),0,false,770094.7000000179,770094.400000006,763828.793,763840.3000000119,763845.302,770107.489,4,500,2,
break,html.Screen,10_1_1,2023-11-15T19:51:18.040Z,,,,,,,,,,NaN,,,,,,,,low,low,,,,,,false,,,,false,770096,770095.5,,770095.1000000238,,770107.489,4,500,,
break_continue,html.Screen,10_1_2,2023-11-15T19:51:18.040Z,,,,,,,,,,NaN,,,,,,,,low,low,,,,,,false,,,,false,770096.8000000119,770096.400000006,,770096.2000000179,,770107.489,4,500,,
sequence,flow.Sequence,10_1,2023-11-15T19:51:18.041Z,,,,,,,,,,6251.098000005935,completion,,,,,,,low,low,,,,,,false,,,,false,770097.1000000238,770096.400000006,763828.793,763840.3000000119,763845.302,770107.489,4,500,,
trial,html.Screen,10_2_0,2023-11-15T19:51:23.541Z,,,,1,0.039728379742806,-0.0228701131373768,,true,hh,5489.511000000057,response,0.9152802917888962,0.8362884451421284,-0.9741413236419717,0.8414601987949015,0.8120969453997015,-0.943130896376806,high,high,,ISIC_0054073.JPG,9,ISIC_0060341.JPG,223,false,hh,keypress(i),0,false,775597.1000000238,775597,770090.994,770097.3000000119,770107.489,775601.497,4,500,3,
break,html.Screen,10_2_1,2023-11-15T19:51:23.541Z,,,,,,,,,,NaN,,,,,,,,high,high,,,,,,false,,,,false,775597.6000000238,775597.5,,775597.3000000119,,775601.497,4,500,,
break_continue,html.Screen,10_2_2,2023-11-15T19:51:23.541Z,,,,,,,,,,NaN,,,,,,,,high,high,,,,,,false,,,,false,775597.8000000119,775597.7000000179,,775597.7000000179,,775601.497,4,500,,
sequence,flow.Sequence,10_2,2023-11-15T19:51:23.542Z,,,,,,,,,,5490.211000017938,completion,,,,,,,high,high,,,,,,false,,,,false,775597.900000006,775597.7000000179,770090.994,770097.3000000119,770107.489,775601.497,4,500,,
trial,html.Screen,10_3_0,2023-11-15T19:51:27.142Z,,,,1,-0.0159061451859594,-0.0296598845560212,,false,lh,3596.303000011947,response,-0.9454713230140772,0.8362884451421284,-0.9741413236419717,0.9245167441969216,0.8120969453997015,-0.943130896376806,low,high,,ISIC_0072564.JPG,9,ISIC_9101055.JPG,45,false,hh,keypress(i),0,false,779198.2000000179,779197.8000000119,775585.034,775598,775601.497,779208.553,4,500,4,
break,html.Screen,10_3_1,2023-11-15T19:51:27.143Z,,,,,,,,,,NaN,,,,,,,,low,high,,,,,,false,,,,false,779199.400000006,779199,,779198.5,,779208.553,4,500,,
break_continue,html.Screen,10_3_2,2023-11-15T19:51:27.144Z,,,,,,,,,,NaN,,,,,,,,low,high,,,,,,false,,,,false,779200.1000000238,779199.8000000119,,779199.5,,779208.553,4,500,,
sequence,flow.Sequence,10_3,2023-11-15T19:51:27.144Z,,,,,,,,,,3598.303000011947,completion,,,,,,,low,high,,,,,,false,,,,false,779200.400000006,779199.8000000119,775585.034,775598,775601.497,779208.553,4,500,,
trial,html.Screen,10_4_0,2023-11-15T19:51:33.430Z,,,,1,0.0511770300585718,0.029030243555971,,true,lh,6277.647000017925,response,-1.0706588446368888,0.8362884451421284,-0.9741413236419717,0.6941525005619681,0.8120969453997015,-0.943130896376806,low,high,,ISIC_6652978.JPG,9,ISIC_8855790.JPG,45,false,lh,keypress(e),0,false,785486.5,785486.2000000179,779192.01,779200.7000000179,779208.553,785504.375,4,500,5,
break,html.Screen,10_4_1,2023-11-15T19:51:33.431Z,,,,,,,,,,NaN,,,,,,,,low,high,,,,,,false,,,,false,785487.5,785487.3000000119,,785486.8000000119,,785504.375,4,500,,
break_continue,html.Screen,10_4_2,2023-11-15T19:51:33.432Z,,,,,,,,,,NaN,,,,,,,,low,high,,,,,,false,,,,false,785488.2000000179,785488,,785487.8000000119,,785504.375,4,500,,
sequence,flow.Sequence,10_4,2023-11-15T19:51:33.432Z,,,,,,,,,,6279.447000000044,completion,,,,,,,low,high,,,,,,false,,,,false,785488.6000000238,785488,779192.01,779200.6000000238,779208.553,785504.375,4,500,,
trial,html.Screen,10_5_0,2023-11-15T19:51:38.918Z,,,,1,-0.0691769743257167,0.0638501824668941,,true,hl,5469.625,response,0.7911024675435955,0.8362884451421284,-0.9741413236419717,-0.7975977016137676,0.8120969453997015,-0.943130896376806,high,low,,ISIC_0031914.JPG,9,ISIC_5813642.JPG,43,false,hl,keypress(j),0,false,790974.400000006,790974,785487.48,785488.8000000119,785504.375,790981.43,4,500,6,
break,html.Screen,10_5_1,2023-11-15T19:51:38.919Z,,,,,,,,,,NaN,,,,,,,,high,low,,,,,,false,,,,false,790975.5,790975.3000000119,,790974.8000000119,,790981.43,4,500,,
break_continue,html.Screen,10_5_2,2023-11-15T19:51:38.920Z,,,,,,,,,,NaN,,,,,,,,high,low,,,,,,false,,,,false,790976.3000000119,790976,,790975.7000000179,,790981.43,4,500,,
sequence,flow.Sequence,10_5,2023-11-15T19:51:38.920Z,,,,,,,,,,5471.625,completion,,,,,,,high,low,,,,,,false,,,,false,790976.5,790976,785487.48,785488.7000000179,785504.375,790981.43,4,500,,
trial,html.Screen,10_6_0,2023-11-15T19:51:42.214Z,,,,1,-0.0087912446525382,-0.0619041869188676,,false,ll,3288.4700000059092,response,-1.0878102877901663,0.8362884451421284,-0.9741413236419717,-0.9483364581769096,0.8120969453997015,-0.943130896376806,low,low,,ISIC_7185913.JPG,9,ISIC_1413242.JPG,144,false,hl,keypress(j),0,false,794270.2000000179,794269.900000006,790964.972,790976.8000000119,790981.43,794288,4,500,7,
break,html.Screen,10_6_1,2023-11-15T19:51:42.215Z,,,,,,,,,,NaN,,,,,,,,low,low,,,,,,false,,,,false,794271.400000006,794271.1000000238,,794270.6000000238,,794288,4,500,,
break_continue,html.Screen,10_6_2,2023-11-15T19:51:42.216Z,,,,,,,,,,NaN,,,,,,,,low,low,,,,,,false,,,,false,794272.1000000238,794271.8000000119,,794271.6000000238,,794288,4,500,,
sequence,flow.Sequence,10_6,2023-11-15T19:51:42.216Z,,,,,,,,,,3290.3700000118697,completion,,,,,,,low,low,,,,,,false,,,,false,794272.3000000119,794271.8000000119,790964.972,790976.7000000179,790981.43,794288,4,500,,
trial,html.Screen,10_7_0,2023-11-15T19:51:49.207Z,,,,1,0.0194167651857046,0.0726253809408601,,false,lh,6974.4000000059605,response,-0.8697146877414776,0.8362884451421284,-0.9741413236419717,0.6517139161026179,0.8120969453997015,-0.943130896376806,low,high,,ISIC_0056692.JPG,8,ISIC_6552552.JPG,45,false,hl,keypress(j),0,false,801262.7000000179,801262.400000006,794254.68,794272.5,794288,801268.083,4,500,8,
break,html.Screen,10_7_1,2023-11-15T19:51:49.208Z,,,,,,,,,,NaN,,,,,,,,low,high,,,,,,false,,,,false,801264.1000000238,801263.8000000119,,801263.3000000119,,801268.083,4,500,,
break_continue,html.Screen,10_7_2,2023-11-15T19:51:49.209Z,,,,,,,,,,NaN,,,,,,,,low,high,,,,,,false,,,,false,801264.8000000119,801264.5,,801264.3000000119,,801268.083,4,500,,
sequence,flow.Sequence,10_7,2023-11-15T19:51:49.209Z,,,,,,,,,,6976.5,completion,,,,,,,low,high,,,,,,false,,,,false,801265.1000000238,801264.5,794254.68,794272.400000006,794288,801268.083,4,500,,
trial,html.Screen,10_8_0,2023-11-15T19:51:56.254Z,,,,1,-0.009234249673026,-0.0627190878028592,,false,ll,7042.117000017897,response,-0.8859261802814055,0.8362884451421284,-0.9741413236419717,-0.9191342361964594,0.8120969453997015,-0.943130896376806,low,low,,ISIC_0053760.JPG,10,ISIC_0029395.JPG,144,false,lh,keypress(e),0,false,808310.5,808310.2000000179,801251.674,801265.400000006,801268.083,808315.243,4,500,9,
break,html.Screen,10_8_1,2023-11-15T19:51:56.256Z,,,,,,,,,,NaN,,,,,,,,low,low,,,,,,false,,,,false,808311.900000006,808311.400000006,,808311,,808315.243,4,500,,
break_continue,html.Screen,10_8_2,2023-11-15T19:51:56.257Z,,,,,,,,,,NaN,,,,,,,,low,low,,,,,,false,,,,false,808312.7000000179,808312.400000006,,808312.2000000179,,808315.243,4,500,,
sequence,flow.Sequence,10_8,2023-11-15T19:51:56.257Z,,,,,,,,,,7044.317000005976,completion,,,,,,,low,low,,,,,,false,,,,false,808313,808312.400000006,801251.674,801265.3000000119,801268.083,808315.243,4,500,,
trial,html.Screen,10_9_0,2023-11-15T19:51:59.190Z,,,,1,0.0363437082783146,0.0333332186217051,,false,hh,2930.857000023825,response,0.6401530241458397,0.8362884451421284,-0.9741413236419717,0.923891889879102,0.8120969453997015,-0.943130896376806,high,high,,ISIC_3314555.JPG,9,ISIC_0033589.JPG,223,false,ll,keypress(f),0,false,811246.5,811246.1000000238,808298.699,808313.2000000179,808315.243,811270.944,4,500,10,
break,html.Screen,10_9_1,2023-11-15T19:51:59.191Z,,,,,,,,,,NaN,,,,,,,,high,high,,,,,,false,,,,false,811247.6000000238,811247.3000000119,,811246.8000000119,,811270.944,4,500,,
break_continue,html.Screen,10_9_2,2023-11-15T19:51:59.192Z,,,,,,,,,,NaN,,,,,,,,high,high,,,,,,false,,,,false,811248.3000000119,811248.1000000238,,811247.8000000119,,811270.944,4,500,,
sequence,flow.Sequence,10_9,2023-11-15T19:51:59.192Z,,,,,,,,,,2932.857000023825,completion,,,,,,,high,high,,,,,,false,,,,false,811248.6000000238,811248.1000000238,808298.699,808313.1000000238,808315.243,811270.944,4,500,,
trial,html.Screen,10_10_0,2023-11-15T19:52:04.870Z,,,,1,-0.0113873532168551,-0.0054999201556291,,false,lh,5655.356000011903,response,-1.1097716037944447,0.8362884451421284,-0.9741413236419717,0.726994437314983,0.8120969453997015,-0.943130896376806,low,high,,ISIC_8812621.JPG,9,ISIC_0000139.JPG,45,false,ll,keypress(f),0,false,816926.6000000238,816926.3000000119,811254.305,811248.8000000119,811270.944,816931.949,4,500,11,
break,html.Screen,10_10_1,2023-11-15T19:52:04.872Z,,,,,,,,,,NaN,,,,,,,,low,high,,,,,,false,,,,false,816927.8000000119,816927.5,,816927,,816931.949,4,500,,
break_continue,html.Screen,10_10_2,2023-11-15T19:52:04.872Z,,,,,,,,,,NaN,,,,,,,,low,high,,,,,,false,,,,false,816928.5,816928.3000000119,,816928,,816931.949,4,500,,
sequence,flow.Sequence,10_10,2023-11-15T19:52:04.873Z,,,,,,,,,,5657.356000011903,completion,,,,,,,low,high,,,,,,false,,,,false,816928.8000000119,816928.3000000119,811254.305,811248.8000000119,811270.944,816931.949,4,500,,
trial,html.Screen,10_11_0,2023-11-15T19:52:11.694Z,,,,1,0.0640778296621707,0.0387686079545705,,false,hl,6818.050999999978,response,0.705042352333099,0.8362884451421284,-0.9741413236419717,-0.9127244278050396,0.8120969453997015,-0.943130896376806,high,low,,ISIC_0010124.JPG,9,ISIC_0787229.JPG,43,false,hh,keypress(i),0,false,823750.3000000119,823750,816915.48,816929,816931.949,823761.91,4,500,12,
break,html.Screen,10_11_1,2023-11-15T19:52:11.695Z,,,,,,,,,,NaN,,,,,,,,high,low,,,,,,false,,,,false,823751.3000000119,823751.1000000238,,823750.7000000179,,823761.91,4,500,,
break_continue,html.Screen,10_11_2,2023-11-15T19:52:11.696Z,,,,,,,,,,NaN,,,,,,,,high,low,,,,,,false,,,,false,823752,823751.8000000119,,823751.5,,823761.91,4,500,,
sequence,flow.Sequence,10_11,2023-11-15T19:52:11.696Z,,,,,,,,,,6819.851000011899,completion,,,,,,,high,low,,,,,,false,,,,false,823752.2000000179,823751.8000000119,816915.48,816928.900000006,816931.949,823761.91,4,500,,
trial,html.Screen,10_12_0,2023-11-15T19:52:16.031Z,,,,1,-0.0516762988734011,0.0130195499281172,,false,hl,4324.890000011888,response,0.6416699984222508,0.8362884451421284,-0.9741413236419717,-1.0067659067144603,0.8120969453997015,-0.943130896376806,high,low,,ISIC_9978498.JPG,9,ISIC_0064784.JPG,43,false,ll,keypress(f),0,false,828087.2000000179,828086.8000000119,823745.414,823752.5,823761.91,828103.937,4,500,13,
break,html.Screen,10_12_1,2023-11-15T19:52:16.032Z,,,,,,,,,,NaN,,,,,,,,high,low,,,,,,false,,,,false,828088.3000000119,828088.1000000238,,828087.6000000238,,828103.937,4,500,,
break_continue,html.Screen,10_12_2,2023-11-15T19:52:16.033Z,,,,,,,,,,NaN,,,,,,,,high,low,,,,,,false,,,,false,828089.1000000238,828088.900000006,,828088.6000000238,,828103.937,4,500,,
sequence,flow.Sequence,10_12,2023-11-15T19:52:16.033Z,,,,,,,,,,4326.990000005928,completion,,,,,,,high,low,,,,,,false,,,,false,828089.400000006,828088.900000006,823745.414,823752.400000006,823761.91,828103.937,4,500,,
trial,html.Screen,10_13_0,2023-11-15T19:52:21.310Z,,,,1,-0.009234249673026,-0.0627190878028592,,true,lh,5261.8630000118865,response,-1.1097716037944447,0.8362884451421284,-0.9741413236419717,0.726994437314983,0.8120969453997015,-0.943130896376806,low,high,,ISIC_0053760.JPG,8,ISIC_0000139.JPG,45,false,lh,keypress(e),0,false,833366.2000000179,833365.8000000119,828087.234,828089.6000000238,828103.937,833380.885,4,500,14,
break,html.Screen,10_13_1,2023-11-15T19:52:21.311Z,,,,,,,,,,NaN,,,,,,,,low,high,,,,,,false,,,,false,833367.3000000119,833367,,833366.6000000238,,833380.885,4,500,,
break_continue,html.Screen,10_13_2,2023-11-15T19:52:21.312Z,,,,,,,,,,NaN,,,,,,,,low,high,,,,,,false,,,,false,833368,833367.8000000119,,833367.5,,833380.885,4,500,,
sequence,flow.Sequence,10_13,2023-11-15T19:52:21.312Z,,,,,,,,,,5263.8630000118865,completion,,,,,,,low,high,,,,,,false,,,,false,833368.400000006,833367.8000000119,828087.234,828089.6000000238,828103.937,833380.885,4,500,,
trial,html.Screen,10_14_0,2023-11-15T19:52:28.286Z,,,,1,-0.0644357632656846,-0.0501167370292348,,false,hl,6961.315000017872,response,0.948927472020595,0.8362884451421284,-0.9741413236419717,-1.0660437155921598,0.8120969453997015,-0.943130896376806,high,low,,ISIC_5207050.JPG,9,ISIC_5808758.JPG,43,false,ll,keypress(f),0,false,840342.400000006,840342.2000000179,833364.079,833368.6000000238,833380.885,840361.459,4,500,15,
break,html.Screen,10_14_1,2023-11-15T19:52:28.287Z,,,,,,,,,,NaN,,,,,,,,high,low,,,,,,false,,,,false,840343.6000000238,840343.3000000119,,840342.900000006,,840361.459,4,500,,
break_continue,html.Screen,10_14_2,2023-11-15T19:52:28.288Z,,,,,,,,,,NaN,,,,,,,,high,low,,,,,,false,,,,false,840344.2000000179,840344.1000000238,,840343.8000000119,,840361.459,4,500,,
sequence,flow.Sequence,10_14,2023-11-15T19:52:28.288Z,,,,,,,,,,6963.2150000238325,completion,,,,,,,high,low,,,,,,false,,,,false,840344.6000000238,840344.1000000238,833364.079,833368.5,833380.885,840361.459,4,500,,
trial,html.Screen,10_15_0,2023-11-15T19:52:30.806Z,,,,1,-0.0565575423757561,-0.0394300226801425,,false,lh,2500.7410000178497,response,-0.9702972792581116,0.8362884451421284,-0.9741413236419717,0.6881089997215682,0.8120969453997015,-0.943130896376806,low,high,,ISIC_0046983.JPG,9,ISIC_0942056.JPG,45,false,hh,keypress(i),0,false,842862.6000000238,842862.2000000179,840327.721,840344.900000006,840361.459,842865.787,4,500,16,
break,html.Screen,10_15_1,2023-11-15T19:52:30.808Z,,,,,,,,,,NaN,,,,,,,,low,high,,,,,,false,,,,false,842863.7000000179,842863.400000006,,842862.900000006,,842865.787,4,500,,
break_continue,html.Screen,10_15_2,2023-11-15T19:52:30.808Z,,,,,,,,,,NaN,,,,,,,,low,high,,,,,,false,,,,false,842864.400000006,842864.2000000179,,842864,,842865.787,4,500,,
sequence,flow.Sequence,10_15,2023-11-15T19:52:30.809Z,,,,,,,,,,2502.7410000178497,completion,,,,,,,low,high,,,,,,false,,,,false,842864.8000000119,842864.2000000179,840327.721,840344.7000000179,840361.459,842865.787,4,500,,
trial,html.Screen,10_16_0,2023-11-15T19:52:33.382Z,,,,1,-0.0245585387483123,0.053462758614929,,true,hh,2572.212999999989,response,0.8888187899385174,0.8362884451421284,-0.9741413236419717,0.8162579333127866,0.8120969453997015,-0.943130896376806,high,high,,ISIC_3389704.JPG,8,ISIC_0070285.JPG,223,false,hh,keypress(i),0,false,845438.3000000119,845438,842849.279,842865.1000000238,842865.787,845454.393,4,500,17,
break,html.Screen,10_16_1,2023-11-15T19:52:33.383Z,,,,,,,,,,NaN,,,,,,,,high,high,,,,,,false,,,,false,845439.5,845439.2000000179,,845438.7000000179,,845454.393,4,500,,
break_continue,html.Screen,10_16_2,2023-11-15T19:52:33.384Z,,,,,,,,,,NaN,,,,,,,,high,high,,,,,,false,,,,false,845440.2000000179,845440,,845439.8000000119,,845454.393,4,500,,
sequence,flow.Sequence,10_16,2023-11-15T19:52:33.384Z,,,,,,,,,,2574.212999999989,completion,,,,,,,high,high,,,,,,false,,,,false,845440.5,845440,842849.279,842864.900000006,842865.787,845454.393,4,500,,
trial,html.Screen,10_17_0,2023-11-15T19:52:39.303Z,,,,1,0.0511770300585718,0.029030243555971,,true,hh,5904.00700000592,response,0.7395174541194298,0.8362884451421284,-0.9741413236419717,0.8428348587299704,0.8120969453997015,-0.943130896376806,high,high,,ISIC_6652978.JPG,8,ISIC_0060390.JPG,223,false,hh,keypress(i),0,false,851358.7000000179,851358.400000006,845437.638,845440.8000000119,845454.393,851365.65,4,500,18,
break,html.Screen,10_17_1,2023-11-15T19:52:39.304Z,,,,,,,,,,NaN,,,,,,,,high,high,,,,,,false,,,,false,851359.900000006,851359.6000000238,,851359.1000000238,,851365.65,4,500,,
break_continue,html.Screen,10_17_2,2023-11-15T19:52:39.304Z,,,,,,,,,,NaN,,,,,,,,high,high,,,,,,false,,,,false,851360.6000000238,851360.400000006,,851360.2000000179,,851365.65,4,500,,
sequence,flow.Sequence,10_17,2023-11-15T19:52:39.305Z,,,,,,,,,,5906.00700000592,completion,,,,,,,high,high,,,,,,false,,,,false,851360.900000006,851360.400000006,845437.638,845440.7000000179,845454.393,851365.65,4,500,,
trial,html.Screen,10_18_0,2023-11-15T19:52:44.581Z,,,,1,-0.059471106306043,0.0678292174694111,,false,ll,5270.849999999977,response,-1.0270718265914571,0.8362884451421284,-0.9741413236419717,-0.9536353804316964,0.8120969453997015,-0.943130896376806,low,low,,ISIC_0015631.JPG,9,ISIC_3431915.JPG,144,false,hl,keypress(j),0,false,856636.6000000238,856636.5,851349.049,851361.1000000238,851365.65,856642.556,4,500,19,
break,html.Screen,10_18_1,2023-11-15T19:52:44.581Z,,,,,,,,,,NaN,,,,,,,,low,low,,,,,,false,,,,false,856636.900000006,856636.8000000119,,856636.7000000179,,856642.556,4,500,,
break_continue,html.Screen,10_18_2,2023-11-15T19:52:44.581Z,,,,,,,,,,NaN,,,,,,,,low,low,,,,,,false,,,,false,856637,856637,,856636.900000006,,856642.556,4,500,,
sequence,flow.Sequence,10_18,2023-11-15T19:52:44.581Z,,,,,,,,,,5271.349999999977,completion,,,,,,,low,low,,,,,,false,,,,false,856637.2000000179,856637,851349.049,851361.1000000238,851365.65,856642.556,4,500,,
trial,html.Screen,10_19_0,2023-11-15T19:52:51.383Z,,,,1,0.0538169356437535,-0.0113486191005169,,false,hl,6795.744000011939,response,0.7037503985239492,0.8362884451421284,-0.9741413236419717,-0.8074292191440532,0.8120969453997015,-0.943130896376806,high,low,,ISIC_0009939.JPG,9,ISIC_2321671.JPG,43,false,lh,keypress(e),0,false,863438.6000000238,863438.3000000119,856626.031,856637.2000000179,856642.556,863455.922,4,500,20,
break,html.Screen,10_19_1,2023-11-15T19:52:51.384Z,,,,,,,,,,NaN,,,,,,,,high,low,,,,,,false,,,,false,863439.8000000119,863439.5,,863439,,863455.922,4,500,,
break_continue,html.Screen,10_19_2,2023-11-15T19:52:51.385Z,,,,,,,,,,NaN,,,,,,,,high,low,,,,,,false,,,,false,863440.7000000179,863440.3000000119,,863440,,863455.922,4,500,,
sequence,flow.Sequence,10_19,2023-11-15T19:52:51.385Z,,,,,,,,,,6797.744000011939,completion,,,,,,,high,low,,,,,,false,,,,false,863441,863440.3000000119,856626.031,856637.2000000179,856642.556,863455.922,4,500,,
trial,html.Screen,10_20_0,2023-11-15T19:53:00.029Z,,,,1,-0.0159061451859594,-0.0296598845560212,,false,hl,8628.57799999998,response,0.7638895244791114,0.8362884451421284,-0.9741413236419717,-0.7780412100090998,0.8120969453997015,-0.943130896376806,high,low,,ISIC_0072564.JPG,9,ISIC_0026516.JPG,43,false,lh,keypress(e),0,false,872084.6000000238,872084.5,863439.355,863441.2000000179,863455.922,872089.292,4,500,21,
break,html.Screen,10_20_1,2023-11-15T19:53:00.029Z,,,,,,,,,,NaN,,,,,,,,high,low,,,,,,false,,,,false,872084.900000006,872084.900000006,,872084.7000000179,,872089.292,4,500,,
break_continue,html.Screen,10_20_2,2023-11-15T19:53:00.029Z,,,,,,,,,,NaN,,,,,,,,high,low,,,,,,false,,,,false,872085.1000000238,872085.1000000238,,872084.900000006,,872089.292,4,500,,
sequence,flow.Sequence,10_20,2023-11-15T19:53:00.029Z,,,,,,,,,,8629.178000023821,completion,,,,,,,high,low,,,,,,false,,,,false,872085.2000000179,872085.1000000238,863439.355,863441.2000000179,863455.922,872089.292,4,500,,
trial,html.Screen,10_21_0,2023-11-15T19:53:03.815Z,,,,1,0.0107854985447517,0.0478010417136109,,true,hh,3781.207999999984,response,0.7581696746785559,0.8362884451421284,-0.9741413236419717,0.6891289946130099,0.8120969453997015,-0.943130896376806,high,high,,ISIC_0010500.JPG,8,ISIC_0062133.JPG,223,false,hh,keypress(i),0,false,875870.7000000179,875870.5,872072.744,872085.2000000179,872089.292,875880.039,4,500,22,
break,html.Screen,10_21_1,2023-11-15T19:53:03.816Z,,,,,,,,,,NaN,,,,,,,,high,high,,,,,,false,,,,false,875871.900000006,875871.6000000238,,875871.2000000179,,875880.039,4,500,,
break_continue,html.Screen,10_21_2,2023-11-15T19:53:03.817Z,,,,,,,,,,NaN,,,,,,,,high,high,,,,,,false,,,,false,875872.5,875872.3000000119,,875872,,875880.039,4,500,,
sequence,flow.Sequence,10_21,2023-11-15T19:53:03.817Z,,,,,,,,,,3783.008000011905,completion,,,,,,,high,high,,,,,,false,,,,false,875872.7000000179,875872.3000000119,872072.744,872085.2000000179,872089.292,875880.039,4,500,,
trial,html.Screen,10_22_0,2023-11-15T19:53:09.046Z,,,,1,0.0329095507339554,-0.0382899749693245,,true,hh,5222.061000023852,response,0.838482148534353,0.8362884451421284,-0.9741413236419717,0.8179691667073062,0.8120969453997015,-0.943130896376806,high,high,,ISIC_8812781.JPG,9,ISIC_0055079.JPG,223,false,hh,keypress(i),0,false,881102.400000006,881102.1000000238,875863.461,875872.900000006,875880.039,881106.842,4,500,23,
break,html.Screen,10_22_1,2023-11-15T19:53:09.048Z,,,,,,,,,,NaN,,,,,,,,high,high,,,,,,false,,,,false,881103.6000000238,881103.2000000179,,881102.7000000179,,881106.842,4,500,,
break_continue,html.Screen,10_22_2,2023-11-15T19:53:09.048Z,,,,,,,,,,NaN,,,,,,,,high,high,,,,,,false,,,,false,881104.3000000119,881104,,881103.8000000119,,881106.842,4,500,,
sequence,flow.Sequence,10_22,2023-11-15T19:53:09.049Z,,,,,,,,,,5223.96100000001,completion,,,,,,,high,high,,,,,,false,,,,false,881104.6000000238,881104,875863.461,875872.900000006,875880.039,881106.842,4,500,,
trial,html.Screen,10_23_0,2023-11-15T19:53:12.750Z,,,,1,0.0116094682222121,-0.0258434522530318,,true,ll,3699.158000000054,response,-0.9487751044258608,0.8362884451421284,-0.9741413236419717,-0.875032819970805,0.8120969453997015,-0.943130896376806,low,low,,ISIC_9239632.JPG,8,ISIC_4568084.JPG,144,false,ll,keypress(f),0,false,884806.3000000119,884806,881090.35,881104.900000006,881106.842,884814.09,4,500,24,
break,html.Screen,10_23_1,2023-11-15T19:53:12.751Z,,,,,,,,,,NaN,,,,,,,,low,low,,,,,,false,,,,false,884807.400000006,884807.1000000238,,884806.7000000179,,884814.09,4,500,,
break_continue,html.Screen,10_23_2,2023-11-15T19:53:12.752Z,,,,,,,,,,NaN,,,,,,,,low,low,,,,,,false,,,,false,884808.1000000238,884807.8000000119,,884807.6000000238,,884814.09,4,500,,
sequence,flow.Sequence,10_23,2023-11-15T19:53:12.752Z,,,,,,,,,,3700.958000011975,completion,,,,,,,low,low,,,,,,false,,,,false,884808.3000000119,884807.8000000119,881090.35,881104.8000000119,881106.842,884814.09,4,500,,
trial,html.Screen,10_24_0,2023-11-15T19:53:20.599Z,,,,1,-0.0102460616775615,0.0309670599545429,,true,ll,7840.310000005993,response,-0.7828164565982022,0.8362884451421284,-0.9741413236419717,-1.1052448965242172,0.8120969453997015,-0.943130896376806,low,low,,ISIC_0072041.JPG,8,ISIC_0067840.JPG,144,false,ll,keypress(f),0,false,892654.7000000179,892654.400000006,884797.482,884808.6000000238,884814.09,892662.751,4,500,25,
break,html.Screen,10_24_1,2023-11-15T19:53:20.600Z,,,,,,,,,,NaN,,,,,,,,low,low,,,,,,false,,,,false,892655.7000000179,892655.6000000238,,892655,,892662.751,4,500,,
break_continue,html.Screen,10_24_2,2023-11-15T19:53:20.600Z,,,,,,,,,,NaN,,,,,,,,low,low,,,,,,false,,,,false,892656.400000006,892656.2000000179,,892656,,892662.751,4,500,,
sequence,flow.Sequence,10_24,2023-11-15T19:53:20.601Z,,,,,,,,,,7842.110000017914,completion,,,,,,,low,low,,,,,,false,,,,false,892656.7000000179,892656.2000000179,884797.482,884808.400000006,884814.09,892662.751,4,500,,
trial,html.Screen,10_25_0,2023-11-15T19:53:24.143Z,,,,1,0.0544808612748248,-0.0240487075377862,,false,hl,3535.449000017834,response,0.6416699984222508,0.8362884451421284,-0.9741413236419717,-1.0067659067144603,0.8120969453997015,-0.943130896376806,high,low,,ISIC_4606646.JPG,8,ISIC_0064784.JPG,43,false,ll,keypress(f),0,false,896198.5,896198.2000000179,892646.205,892656.8000000119,892662.751,896202.912,4,500,26,
break,html.Screen,10_25_1,2023-11-15T19:53:24.144Z,,,,,,,,,,NaN,,,,,,,,high,low,,,,,,false,,,,false,896199.7000000179,896199.5,,896199,,896202.912,4,500,,
break_continue,html.Screen,10_25_2,2023-11-15T19:53:24.144Z,,,,,,,,,,NaN,,,,,,,,high,low,,,,,,false,,,,false,896200.400000006,896200.1000000238,,896199.900000006,,896202.912,4,500,,
sequence,flow.Sequence,10_25,2023-11-15T19:53:24.145Z,,,,,,,,,,3537.3490000237944,completion,,,,,,,high,low,,,,,,false,,,,false,896200.7000000179,896200.1000000238,892646.205,892656.8000000119,892662.751,896202.912,4,500,,
trial,html.Screen,10_26_0,2023-11-15T19:53:29.535Z,,,,1,0.0111354529246037,-0.0585810480909377,,false,lh,5387.38800001191,response,-0.8697146877414776,0.8362884451421284,-0.9741413236419717,0.6517139161026179,0.8120969453997015,-0.943130896376806,low,high,,ISIC_7858034.JPG,9,ISIC_6552552.JPG,45,false,hh,keypress(i),0,false,901590.7000000179,901590.3000000119,896186.443,896200.900000006,896202.912,901596.738,4,500,27,
break,html.Screen,10_26_1,2023-11-15T19:53:29.536Z,,,,,,,,,,NaN,,,,,,,,low,high,,,,,,false,,,,false,901591.8000000119,901591.5,,901591.1000000238,,901596.738,4,500,,
break_continue,html.Screen,10_26_2,2023-11-15T19:53:29.537Z,,,,,,,,,,NaN,,,,,,,,low,high,,,,,,false,,,,false,901592.6000000238,901592.400000006,,901592.2000000179,,901596.738,4,500,,
sequence,flow.Sequence,10_26,2023-11-15T19:53:29.537Z,,,,,,,,,,5389.488000005949,completion,,,,,,,low,high,,,,,,false,,,,false,901592.900000006,901592.400000006,896186.443,896200.900000006,896202.912,901596.738,4,500,,
trial,html.Screen,10_27_0,2023-11-15T19:53:35.039Z,,,,1,-0.000047919190197942736,-0.0462652940855003,,true,lh,5497.761999999988,response,-0.9644643328174062,0.8362884451421284,-0.9741413236419717,0.745333984830218,0.8120969453997015,-0.943130896376806,low,high,,ISIC_0011507.JPG,9,ISIC_0058046.JPG,45,false,lh,keypress(e),0,false,907094.8000000119,907094.5,901580.232,901593.1000000238,901596.738,907107.623,4,500,28,
break,html.Screen,10_27_1,2023-11-15T19:53:35.040Z,,,,,,,,,,NaN,,,,,,,,low,high,,,,,,false,,,,false,907095.900000006,907095.7000000179,,907095.2000000179,,907107.623,4,500,,
break_continue,html.Screen,10_27_2,2023-11-15T19:53:35.041Z,,,,,,,,,,NaN,,,,,,,,low,high,,,,,,false,,,,false,907096.7000000179,907096.5,,907096.2000000179,,907107.623,4,500,,
sequence,flow.Sequence,10_27,2023-11-15T19:53:35.041Z,,,,,,,,,,5499.761999999988,completion,,,,,,,low,high,,,,,,false,,,,false,907097.1000000238,907096.5,901580.232,901593.1000000238,901596.738,907107.623,4,500,,
trial,html.Screen,10_28_0,2023-11-15T19:53:42.119Z,,,,1,-0.0149482827359613,0.0661630859332833,,false,ll,7066.57700001786,response,-1.0878102877901663,0.8362884451421284,-0.9741413236419717,-0.9483364581769096,0.8120969453997015,-0.943130896376806,low,low,,ISIC_6815524.JPG,9,ISIC_1413242.JPG,144,false,hl,keypress(j),0,false,914174.5,914174.2000000179,907090.969,907097.2000000179,907107.623,914188.03,4,500,29,
break,html.Screen,10_28_1,2023-11-15T19:53:42.120Z,,,,,,,,,,NaN,,,,,,,,low,low,,,,,,false,,,,false,914175.6000000238,914175.400000006,,914174.900000006,,914188.03,4,500,,
break_continue,html.Screen,10_28_2,2023-11-15T19:53:42.121Z,,,,,,,,,,NaN,,,,,,,,low,low,,,,,,false,,,,false,914176.400000006,914176.2000000179,,914175.900000006,,914188.03,4,500,,
sequence,flow.Sequence,10_28,2023-11-15T19:53:42.121Z,,,,,,,,,,7068.57700001786,completion,,,,,,,low,low,,,,,,false,,,,false,914176.7000000179,914176.2000000179,907090.969,907097.2000000179,907107.623,914188.03,4,500,,
trial,html.Screen,10_29_0,2023-11-15T19:53:47.639Z,,,,1,0.0116094682222121,-0.0258434522530318,,false,hl,5506.670000017853,response,0.9235571765207048,0.8362884451421284,-0.9741413236419717,-1.0008081653938232,0.8120969453997015,-0.943130896376806,high,low,,ISIC_9239632.JPG,10,ISIC_8796632.JPG,43,false,hh,keypress(i),0,false,919695,919694.7000000179,914171.427,914177,914188.03,919698.715,4,500,30,
break,html.Screen,10_29_1,2023-11-15T19:53:47.641Z,,,,,,,,,,NaN,,,,,,,,high,low,,,,,,false,,,,false,919696.3000000119,919695.900000006,,919695.400000006,,919698.715,4,500,,
break_continue,html.Screen,10_29_2,2023-11-15T19:53:47.641Z,,,,,,,,,,NaN,,,,,,,,high,low,,,,,,false,,,,false,919696.900000006,919696.7000000179,,919696.400000006,,919698.715,4,500,,
sequence,flow.Sequence,10_29,2023-11-15T19:53:47.642Z,,,,,,,,,,5508.670000017853,completion,,,,,,,high,low,,,,,,false,,,,false,919697.2000000179,919696.7000000179,914171.427,914176.900000006,914188.03,919698.715,4,500,,
trial,html.Screen,10_30_0,2023-11-15T19:53:54.735Z,,,,1,-0.0220322185490382,-0.0740918837949419,,true,ll,7091.485000017914,response,-1.0017318800845572,0.8362884451421284,-0.9741413236419717,-0.9394193355947452,0.8120969453997015,-0.943130896376806,low,low,,ISIC_8105020.JPG,9,ISIC_0024586.JPG,144,false,ll,keypress(f),0,false,926790.5,926790.2000000179,919682.176,919697.400000006,919698.715,926795.782,4,500,31,
break,html.Screen,10_30_1,2023-11-15T19:53:54.736Z,,,,,,,,,,NaN,,,,,,,,low,low,,,,,,false,,,,false,926791.7000000179,926791.400000006,,926790.900000006,,926795.782,4,500,,
break_continue,html.Screen,10_30_2,2023-11-15T19:53:54.737Z,,,,,,,,,,NaN,,,,,,,,low,low,,,,,,false,,,,false,926792.400000006,926792.1000000238,,926791.900000006,,926795.782,4,500,,
sequence,flow.Sequence,10_30,2023-11-15T19:53:54.737Z,,,,,,,,,,7093.385000023874,completion,,,,,,,low,low,,,,,,false,,,,false,926792.6000000238,926792.1000000238,919682.176,919697.400000006,919698.715,926795.782,4,500,,
trial,html.Screen,10_31_0,2023-11-15T19:54:01.439Z,,,,1,-0.0159061451859594,-0.0296598845560212,,false,lh,6698.818000023835,response,-0.8487429103619056,0.8362884451421284,-0.9741413236419717,0.9778257804233036,0.8120969453997015,-0.943130896376806,low,high,,ISIC_0072564.JPG,9,ISIC_4554863.JPG,45,false,ll,keypress(f),0,false,933494.900000006,933494.6000000238,926779.326,926792.900000006,926795.782,933509.001,4,500,32,
break,html.Screen,10_31_1,2023-11-15T19:54:01.440Z,,,,,,,,,,NaN,,,,,,,,low,high,,,,,,false,,,,false,933496.1000000238,933495.8000000119,,933495.3000000119,,933509.001,4,500,,
break_continue,html.Screen,10_31_2,2023-11-15T19:54:01.441Z,,,,,,,,,,NaN,,,,,,,,low,high,,,,,,false,,,,false,933496.7000000179,933496.5,,933496.3000000119,,933509.001,4,500,,
sequence,flow.Sequence,10_31,2023-11-15T19:54:01.441Z,,,,,,,,,,6700.7179999999935,completion,,,,,,,low,high,,,,,,false,,,,false,933497,933496.5,926779.326,926792.8000000119,926795.782,933509.001,4,500,,
trial,html.Screen,10_32_0,2023-11-15T19:54:05.599Z,,,,1,-0.0220322185490382,-0.0740918837949419,,false,ll,4145.299000011873,response,-0.9416900312335138,0.8362884451421284,-0.9741413236419717,-0.8071149391753215,0.8120969453997015,-0.943130896376806,low,low,,ISIC_8105020.JPG,8,ISIC_2784686.JPG,144,false,lh,keypress(e),0,false,937654.6000000238,937654.3000000119,933492.391,933497.3000000119,933509.001,937667.205,4,500,33,
break,html.Screen,10_32_1,2023-11-15T19:54:05.600Z,,,,,,,,,,NaN,,,,,,,,low,low,,,,,,false,,,,false,937655.7000000179,937655.5,,937655,,937667.205,4,500,,
break_continue,html.Screen,10_32_2,2023-11-15T19:54:05.601Z,,,,,,,,,,NaN,,,,,,,,low,low,,,,,,false,,,,false,937656.5,937656.2000000179,,937655.900000006,,937667.205,4,500,,
sequence,flow.Sequence,10_32,2023-11-15T19:54:05.601Z,,,,,,,,,,4147.199000017834,completion,,,,,,,low,low,,,,,,false,,,,false,937656.8000000119,937656.2000000179,933492.391,933497.3000000119,933509.001,937667.205,4,500,,
trial,html.Screen,10_33_0,2023-11-15T19:54:12.349Z,,,,1,0.0456515796420274,-0.0273567130070961,,false,ll,6737.595000011963,response,-0.7959241725897693,0.8362884451421284,-0.9741413236419717,-1.0541742265379377,0.8120969453997015,-0.943130896376806,low,low,,ISIC_0068610.JPG,9,ISIC_6646939.JPG,144,false,hl,keypress(j),0,false,944404.900000006,944404.8000000119,937650.469,937657,937667.205,944413.432,4,500,34,
break,html.Screen,10_33_1,2023-11-15T19:54:12.350Z,,,,,,,,,,NaN,,,,,,,,low,low,,,,,,false,,,,false,944405.3000000119,944405.2000000179,,944405,,944413.432,4,500,,
break_continue,html.Screen,10_33_2,2023-11-15T19:54:12.350Z,,,,,,,,,,NaN,,,,,,,,low,low,,,,,,false,,,,false,944405.5,944405.400000006,,944405.400000006,,944413.432,4,500,,
sequence,flow.Sequence,10_33,2023-11-15T19:54:12.350Z,,,,,,,,,,6738.195000006002,completion,,,,,,,low,low,,,,,,false,,,,false,944405.6000000238,944405.400000006,937650.469,937657,937667.205,944413.432,4,500,,
trial,html.Screen,10_34_0,2023-11-15T19:54:19.375Z,,,,1,0.0116094682222121,-0.0258434522530318,,false,hh,7016.868000011891,response,0.7379519079139953,0.8362884451421284,-0.9741413236419717,0.953619908523244,0.8120969453997015,-0.943130896376806,high,high,,ISIC_9239632.JPG,9,ISIC_0011435.JPG,223,false,lh,keypress(e),0,false,951430.6000000238,951430.3000000119,944396.92,944405.7000000179,944413.432,951443.774,4,500,35,
break,html.Screen,10_34_1,2023-11-15T19:54:19.376Z,,,,,,,,,,NaN,,,,,,,,high,high,,,,,,false,,,,false,951431.7000000179,951431.5,,951431,,951443.774,4,500,,
break_continue,html.Screen,10_34_2,2023-11-15T19:54:19.377Z,,,,,,,,,,NaN,,,,,,,,high,high,,,,,,false,,,,false,951432.6000000238,951432.3000000119,,951432,,951443.774,4,500,,
sequence,flow.Sequence,10_34,2023-11-15T19:54:19.377Z,,,,,,,,,,7018.868000011891,completion,,,,,,,high,high,,,,,,false,,,,false,951432.900000006,951432.3000000119,944396.92,944405.6000000238,944413.432,951443.774,4,500,,
trial,html.Screen,10_35_0,2023-11-15T19:54:25.463Z,,,,1,0.0660839342637046,-0.0657899819532072,,true,hh,6074.926000017906,response,0.7898095258368679,0.8362884451421284,-0.9741413236419717,0.6924873379256984,0.8120969453997015,-0.943130896376806,high,high,,ISIC_0065477.JPG,9,ISIC_0063070.JPG,223,false,hh,keypress(i),0,false,957519,957518.7000000179,951427.287,951433.1000000238,951443.774,957522.368,4,500,36,
break,html.Screen,10_35_1,2023-11-15T19:54:25.465Z,,,,,,,,,,NaN,,,,,,,,high,high,,,,,,false,,,,false,957520.1000000238,957519.900000006,,957519.400000006,,957522.368,4,500,,
break_continue,html.Screen,10_35_2,2023-11-15T19:54:25.465Z,,,,,,,,,,NaN,,,,,,,,high,high,,,,,,false,,,,false,957520.8000000119,957520.6000000238,,957520.400000006,,957522.368,4,500,,
sequence,flow.Sequence,10_35,2023-11-15T19:54:25.466Z,,,,,,,,,,6076.826000023866,completion,,,,,,,high,high,,,,,,false,,,,false,957521.2000000179,957520.6000000238,951427.287,951433,951443.774,957522.368,4,500,,
trial,html.Screen,10_36_0,2023-11-15T19:54:32.983Z,,,,1,-0.0021038737988857,0.0570427519488725,,false,lh,7516.032000005944,response,-0.8809306963311293,0.8362884451421284,-0.9741413236419717,0.8614910030038974,0.8120969453997015,-0.943130896376806,low,high,,ISIC_3596927.JPG,10,ISIC_0013731.JPG,45,false,ll,keypress(f),0,false,965038.6000000238,965038.400000006,957505.82,957521.5,957522.368,965053.826,4,500,37,
break,html.Screen,10_36_1,2023-11-15T19:54:32.984Z,,,,,,,,,,NaN,,,,,,,,low,high,,,,,,false,,,,false,965039.900000006,965039.6000000238,,965039.1000000238,,965053.826,4,500,,
break_continue,html.Screen,10_36_2,2023-11-15T19:54:32.985Z,,,,,,,,,,NaN,,,,,,,,low,high,,,,,,false,,,,false,965040.6000000238,965040.3000000119,,965040.1000000238,,965053.826,4,500,,
sequence,flow.Sequence,10_36,2023-11-15T19:54:32.985Z,,,,,,,,,,7517.932000011904,completion,,,,,,,low,high,,,,,,false,,,,false,965040.900000006,965040.3000000119,957505.82,957521.400000006,957522.368,965053.826,4,500,,
trial,html.Screen,10_37_0,2023-11-15T19:54:40.047Z,,,,1,0.0608867680161491,0.0206384042070211,,false,hh,7048.673999999999,response,0.6414565107493193,0.8362884451421284,-0.9741413236419717,0.7473386199328566,0.8120969453997015,-0.943130896376806,high,high,,ISIC_0640806.JPG,9,ISIC_7809510.JPG,223,false,lh,keypress(e),0,false,972102.900000006,972102.5,965037.105,965040.900000006,965053.826,972117.445,4,500,38,
break,html.Screen,10_37_1,2023-11-15T19:54:40.048Z,,,,,,,,,,NaN,,,,,,,,high,high,,,,,,false,,,,false,972104,972103.7000000179,,972103.2000000179,,972117.445,4,500,,
break_continue,html.Screen,10_37_2,2023-11-15T19:54:40.049Z,,,,,,,,,,NaN,,,,,,,,high,high,,,,,,false,,,,false,972104.7000000179,972104.5,,972104.2000000179,,972117.445,4,500,,
