sender,sender_type,sender_id,timestamp,meta,,age,blockNo,c1,c2,condition,correct,correctResponse,duration,ended_on,f1,f1_high,f1_low,f2,f2_high,f2_low,feature_level1,feature_level2,gender,img_left,img_reveal,img_right,n_target_images,practice,response,response_action,selection_duration,staircase,time_commit,time_end,time_render,time_run,time_show,time_switch,total_blocks,total_trials,trialNo,url
informed_consent,html.Screen,0,2023-11-15T17:39:49.579Z,"{""labjs_version"":""20.2.4"",""labjs_build"":{""flavor"":""development"",""commit"":""f5b4a49f956347addd546a832a3327688c2c0fef""},""location"":""https://labjs.felixhenninger.com/api/labjs_preview/index.html"",""userAgent"":""Mozilla/5.0 (Windows NT 10.0; Win64; x64) AppleWebKit/537.36 (KHTML, like Gecko) Chrome/119.0.0.0 Safari/537.36"",""platform"":""Win32"",""language"":""en-US"",""locale"":""en-US"",""timeZone"":""America/Chicago"",""timezoneOffset"":360,""screen_width"":1920,""screen_height"":1080,""scroll_width"":945,""scroll_height"":918,""window_innerWidth"":945,""window_innerHeight"":966,""devicePixelRatio"":1}",,,,,,,,,20657.43599999106,response,,,,,,,,,,,,,,,consent,click button,,,21326.59999999404,21317.39999999106,643.208,833.2000000029802,659.964,21126.618,,,,{}
Demography form,html.Form,1,2023-11-15T17:40:11.123Z,,,18,,,,,,,21743.28199999106,form submission,,,,,,,,,female,,,,,,,,,,42870.20000000298,42869.89999999106,21110.178,21326.79999999702,21126.618,42676.634,,,,
Welcome,html.Screen,2,2023-11-15T17:40:16.795Z,,,,,,,"[""asym"",""col""]",,,5864.765999991061,response,,,,,,,,,,,,,,,continue,click button,,,48541.89999999106,48541.39999999106,42660.029,42870.20000000298,42676.634,48360.201,,,,
demo_instructions,html.Screen,3,2023-11-15T17:40:36.019Z,,,,,,,,,,19404.99900000298,response,,,,,,,,,,,,,,,continue,click button,,,67765.70000000298,67765.20000000298,48343.499,48542,48360.201,67576.675,,,,
trial,html.Screen,4_0_0,2023-11-15T17:41:05.737Z,,,,0,0.9225524349657857,-0.929746784178986,,true,lh,29906.324999999997,response,-1.0143509683988825,0.9999999999999998,-0.9999999999999998,1.0281980567462463,0.9999999999999998,-0.9999999999999998,low,high,,ISIC_0011077.JPG,,ISIC_0062031.JPG,24,true,lh,keypress(e),100,false,97483.39999999106,97483,67560.012,67765.89999999106,67576.675,97310.158,1,16,1,
sequence,flow.Sequence,4_0,2023-11-15T17:41:05.737Z,,,,,,,,,,29906.324999999997,completion,,,,,,,low,high,,,,,,true,,,,false,97483.89999999106,97483,67560.012,67765.89999999106,67576.675,97310.158,1,16,,
trial,html.Screen,4_1_0,2023-11-15T17:41:16.767Z,,,,0,0.9448560599810628,-0.9099421612683488,,true,lh,11202.241999991063,response,-0.8591294258188253,0.9999999999999998,-0.9999999999999998,0.870797302150167,0.9999999999999998,-0.9999999999999998,low,high,,ISIC_9684318.JPG,,ISIC_0055841.JPG,24,true,lh,keypress(e),100,false,108512.59999999404,108512.39999999106,97293.607,97484,97310.158,108343.408,1,16,2,
sequence,flow.Sequence,4_1,2023-11-15T17:41:16.767Z,,,,,,,,,,11202.241999991063,completion,,,,,,,low,high,,,,,,true,,,,false,108512.89999999106,108512.39999999106,97293.607,97484,97310.158,108343.408,1,16,,
trial,html.Screen,4_2_0,2023-11-15T17:41:22.614Z,,,,0,1.127346631538643,-0.8080854255453543,,true,lh,6016.292000002984,response,-0.8150886811691144,0.9999999999999998,-0.9999999999999998,0.862416038462147,0.9999999999999998,-0.9999999999999998,low,high,,ISIC_0011045.JPG,,ISIC_0058079.JPG,24,true,lh,keypress(e),100,false,114360,114359.70000000298,108326.804,108513.20000000298,108343.408,114193.397,1,16,3,
sequence,flow.Sequence,4_2,2023-11-15T17:41:22.614Z,,,,,,,,,,6016.292000002984,completion,,,,,,,low,high,,,,,,true,,,,false,114360.39999999106,114359.70000000298,108326.804,108513.09999999404,108343.408,114193.397,1,16,,
trial,html.Screen,4_3_0,2023-11-15T17:41:28.910Z,,,,0,0.8620516892494489,-1.1108509340502866,,true,lh,6462.603000000003,response,-1.1235224875125256,0.9999999999999998,-0.9999999999999998,0.8641223012137988,0.9999999999999998,-0.9999999999999998,low,high,,ISIC_5557806.JPG,,ISIC_0033901.JPG,24,true,lh,keypress(e),100,false,120656.39999999106,120656,114176.862,114360.70000000298,114193.397,120476.981,1,16,4,
sequence,flow.Sequence,4_3,2023-11-15T17:41:28.911Z,,,,,,,,,,6462.603000000003,completion,,,,,,,low,high,,,,,,true,,,,false,120656.79999999702,120656,114176.862,114360.59999999404,114193.397,120476.981,1,16,,
trial,html.Screen,4_4_0,2023-11-15T17:41:42.022Z,,,,0,0.9735583105865782,0.8683758859171238,,true,ll,13290.31899999702,response,-1.1119564877278971,0.9999999999999998,-0.9999999999999998,-0.9546609075308709,0.9999999999999998,-0.9999999999999998,low,low,,ISIC_0065204.JPG,,ISIC_0056110.JPG,111,true,ll,keypress(f),100,false,133767.5,133767.29999999702,120460.084,120656.89999999106,120476.981,133593.439,1,16,5,
sequence,flow.Sequence,4_4,2023-11-15T17:41:42.022Z,,,,,,,,,,13290.31899999702,completion,,,,,,,low,low,,,,,,true,,,,false,133767.79999999702,133767.29999999702,120460.084,120656.89999999106,120476.981,133593.439,1,16,,
trial,html.Screen,4_5_0,2023-11-15T17:41:49.195Z,,,,0,0.8057040901302144,0.8481278654022556,,true,ll,7347.360999997007,response,-1.1569583426015195,0.9999999999999998,-0.9999999999999998,-1.02258614327008,0.9999999999999998,-0.9999999999999998,low,low,,ISIC_0014366.JPG,,ISIC_5705973.JPG,111,true,ll,keypress(f),100,false,140941,140940.79999999702,133576.958,133768,133593.439,140760.152,1,16,6,
sequence,flow.Sequence,4_5,2023-11-15T17:41:49.195Z,,,,,,,,,,7347.360999997007,completion,,,,,,,low,low,,,,,,true,,,,false,140941.20000000298,140940.79999999702,133576.958,133768,133593.439,140760.152,1,16,,
trial,html.Screen,4_6_0,2023-11-15T17:41:58.497Z,,,,0,1.188743606919222,0.9421419207281913,,true,ll,9482.347999999998,response,-1.1432120973785689,0.9999999999999998,-0.9999999999999998,-0.973254467915268,0.9999999999999998,-0.9999999999999998,low,low,,ISIC_0060481.JPG,,ISIC_2072219.JPG,111,true,ll,keypress(f),100,false,150242.89999999106,150242.5,140743.409,140941.29999999702,140760.152,150076.773,1,16,7,
sequence,flow.Sequence,4_6,2023-11-15T17:41:58.497Z,,,,,,,,,,9482.347999999998,completion,,,,,,,low,low,,,,,,true,,,,false,150243.39999999106,150242.5,140743.409,140941.29999999702,140760.152,150076.773,1,16,,
trial,html.Screen,4_7_0,2023-11-15T17:42:03.322Z,,,,0,0.9506699737853276,0.988934053363149,,true,ll,4990.826999994053,response,-0.8285454085852607,0.9999999999999998,-0.9999999999999998,-0.8539676082936701,0.9999999999999998,-0.9999999999999998,low,low,,ISIC_0014217.JPG,,ISIC_2131707.JPG,111,true,ll,keypress(f),100,false,155067.70000000298,155067.59999999404,150060.144,150243.70000000298,150076.773,154893.658,1,16,8,
sequence,flow.Sequence,4_7,2023-11-15T17:42:03.322Z,,,,,,,,,,4990.826999994053,completion,,,,,,,low,low,,,,,,true,,,,false,155068,155067.59999999404,150060.144,150243.59999999404,150076.773,154893.658,1,16,,
trial,html.Screen,4_8_0,2023-11-15T17:42:14.590Z,,,,0,-1.0143509683988825,1.0281980567462463,,true,hl,11442.441999994044,response,1.127346631538643,0.9999999999999998,-0.9999999999999998,-0.8080854255453543,0.9999999999999998,-0.9999999999999998,high,low,,ISIC_0062031.JPG,,ISIC_0011045.JPG,24,true,hl,keypress(j),100,false,166336.29999999702,166336.09999999404,154876.94,155068.09999999404,154893.658,166160.118,1,16,9,
sequence,flow.Sequence,4_8,2023-11-15T17:42:14.591Z,,,,,,,,,,11442.441999994044,completion,,,,,,,high,low,,,,,,true,,,,false,166336.39999999106,166336.09999999404,154876.94,155068.09999999404,154893.658,166160.118,1,16,,
trial,html.Screen,4_9_0,2023-11-15T17:42:23.474Z,,,,0,-1.064425982109969,0.958564243697126,,true,hl,9059.781999991072,response,1.082730232773217,0.9999999999999998,-0.9999999999999998,-0.8833175387485132,0.9999999999999998,-0.9999999999999998,high,low,,ISIC_3203344.JPG,,ISIC_0011933.JPG,24,true,hl,keypress(j),100,false,175220.09999999404,175219.89999999106,166143.468,166336.59999999404,166160.118,175043.725,1,16,10,
sequence,flow.Sequence,4_9,2023-11-15T17:42:23.475Z,,,,,,,,,,9059.781999991072,completion,,,,,,,high,low,,,,,,true,,,,false,175220.5,175219.89999999106,166143.468,166336.5,166160.118,175043.725,1,16,,
trial,html.Screen,4_10_0,2023-11-15T17:42:52.859Z,,,,0,-0.9039158082670506,1.0517562064343149,,true,hl,29560.975000002974,response,1.127346631538643,0.9999999999999998,-0.9999999999999998,-0.8080854255453543,0.9999999999999998,-0.9999999999999998,high,low,,ISIC_0015411.JPG,,ISIC_0011045.JPG,24,true,hl,keypress(j),100,false,204604.89999999106,204604.70000000298,175026.837,175220.70000000298,175043.725,204426.909,1,16,11,
sequence,flow.Sequence,4_10,2023-11-15T17:42:52.859Z,,,,,,,,,,29560.975000002974,completion,,,,,,,high,low,,,,,,true,,,,false,204605.20000000298,204604.70000000298,175026.837,175220.59999999404,175043.725,204426.909,1,16,,
trial,html.Screen,4_11_0,2023-11-15T17:43:31.530Z,,,,0,-0.8923602890201078,0.8351700666074688,,true,hl,38847.590999999986,response,1.0264463986917702,0.9999999999999998,-0.9999999999999998,-1.171271535505083,0.9999999999999998,-0.9999999999999998,high,low,,ISIC_0033103.JPG,,ISIC_7889838.JPG,24,true,hl,keypress(j),100,false,243274.70000000298,243274.5,204410.19,204605.29999999702,204426.909,243093.581,1,16,12,
sequence,flow.Sequence,4_11,2023-11-15T17:43:31.530Z,,,,,,,,,,38847.590999999986,completion,,,,,,,high,low,,,,,,true,,,,false,243275,243274.5,204410.19,204605.29999999702,204426.909,243093.581,1,16,,
trial,html.Screen,4_12_0,2023-11-15T17:43:42.835Z,,,,0,-1.0433307945145347,-0.8328447549795016,,true,hh,11485.818999991054,response,0.985420189652684,0.9999999999999998,-0.9999999999999998,0.8921028806662099,0.9999999999999998,-0.9999999999999998,high,high,,ISIC_9104843.JPG,,ISIC_0014982.JPG,154,true,hh,keypress(i),100,false,254579.5,254579.39999999106,243076.885,243275,243093.581,254410.494,1,16,13,
sequence,flow.Sequence,4_12,2023-11-15T17:43:42.835Z,,,,,,,,,,11485.818999991054,completion,,,,,,,high,high,,,,,,true,,,,false,254579.70000000298,254579.39999999106,243076.885,243275,243093.581,254410.494,1,16,,
trial,html.Screen,4_13_0,2023-11-15T17:43:47.191Z,,,,0,-0.9696118525781644,-0.9712966348713286,,true,hh,4525.1059999940335,response,1.0361281091871073,0.9999999999999998,-0.9999999999999998,0.8359897850958797,0.9999999999999998,-0.9999999999999998,high,high,,ISIC_7927525.JPG,,ISIC_0014392.JPG,154,true,hh,keypress(i),100,false,258935.79999999702,258935.59999999404,254393.593,254579.89999999106,254410.494,258760.279,1,16,14,
sequence,flow.Sequence,4_13,2023-11-15T17:43:47.191Z,,,,,,,,,,4525.1059999940335,completion,,,,,,,high,high,,,,,,true,,,,false,258936,258935.59999999404,254393.593,254579.79999999702,254410.494,258760.279,1,16,,
trial,html.Screen,4_14_0,2023-11-15T17:43:50.315Z,,,,0,-1.1344866365171962,-0.926850270881616,,true,hh,3300.1209999910498,response,0.8751568783563604,0.9999999999999998,-0.9999999999999998,0.8649242672115863,0.9999999999999998,-0.9999999999999998,high,high,,ISIC_7747998.JPG,,ISIC_0027742.JPG,154,true,hh,keypress(i),100,false,262060.5,262060.39999999106,258743.735,258936.09999999404,258760.279,261893.717,1,16,15,
sequence,flow.Sequence,4_14,2023-11-15T17:43:50.316Z,,,,,,,,,,3300.1209999910498,completion,,,,,,,high,high,,,,,,true,,,,false,262060.59999999404,262060.39999999106,258743.735,258936.09999999404,258760.279,261893.717,1,16,,
trial,html.Screen,4_15_0,2023-11-15T17:43:53.454Z,,,,0,-0.8278249532658066,-0.806779532079123,,true,hh,3305.483000002976,response,1.1227373144244253,0.9999999999999998,-0.9999999999999998,1.1886610799377713,0.9999999999999998,-0.9999999999999998,high,high,,ISIC_4114269.JPG,,ISIC_0059506.JPG,154,true,hh,keypress(i),100,false,265199.5,265199.200000003,261876.956,262060.70000000298,261893.717,265026.914,1,16,16,
sequence,flow.Sequence,4_15,2023-11-15T17:43:53.455Z,,,,,,,,,,3305.483000002976,completion,,,,,,,high,high,,,,,,true,,,,false,265199.799999997,265199.200000003,261876.956,262060.70000000298,261893.717,265026.914,1,16,,
demonstration_loop,flow.Loop,4,2023-11-15T17:43:53.455Z,,,,,,,,,,197622.525000003,completion,,,,,,,,,,,,,,true,,,,false,265200,265199.200000003,67560.012,67765.89999999106,67576.675,265026.914,1,16,,
practice_instructions,html.Screen,5,2023-11-15T17:44:10.253Z,,,,,,,,,,16962.48599999107,response,,,,,,,,,,,,,,,continue,click button,,,281998.09999999404,281989.39999999106,265010.32,265200.09999999404,265026.914,281793.622,,,,
trial,html.Screen,6_0_0,2023-11-15T17:44:21.034Z,,,,1,-1.0143509683988825,1.0281980567462463,,,,10800.184999999998,timeout,0.9670240379618178,0.9999999999999998,-0.9999999999999998,-1.1806404773220665,0.9999999999999998,-0.9999999999999998,high,low,,ISIC_0062031.JPG,,ISIC_0002288.JPG,24,true,,,0,false,292778.299999997,292778.09999999404,281777.032,281998.200000003,281793.622,292593.807,1,40,1,
sequence,flow.Sequence,6_0,2023-11-15T17:44:21.034Z,,,,,,,,,,10984.477999994066,completion,,,,,,,high,low,,,,,,true,,,,false,292778.39999999106,292778.09999999404,281777.032,281998.200000003,281793.622,292593.807,1,40,,
trial,html.Screen,6_1_0,2023-11-15T17:44:27.182Z,,,,1,1.0088376543442317,-0.8023075994977575,,false,lh,6332.492999997048,response,-0.9445114955578736,0.9999999999999998,-0.9999999999999998,1.0054210059625863,0.9999999999999998,-0.9999999999999998,low,high,,ISIC_7619234.JPG,,ISIC_0033807.JPG,24,true,hh,keypress(i),0,false,298926.5,298926.299999997,292577.177,292778.5,292593.807,298743.783,1,40,2,
sequence,flow.Sequence,6_1,2023-11-15T17:44:27.182Z,,,,,,,,,,6332.492999997048,completion,,,,,,,low,high,,,,,,true,,,,false,298926.799999997,298926.299999997,292577.177,292778.5,292593.807,298743.783,1,40,,
trial,html.Screen,6_2_0,2023-11-15T17:44:33.965Z,,,,1,-0.8200367443437355,-1.1363137800725187,,false,hh,6966.016999997024,response,1.0698162624196283,0.9999999999999998,-0.9999999999999998,1.0648460966097275,0.9999999999999998,-0.9999999999999998,high,high,,ISIC_0553565.JPG,,ISIC_0030552.JPG,154,true,ll,keypress(f),0,false,305709.89999999106,305709.799999997,298726.978,298927,298743.783,305527.027,1,40,3,
sequence,flow.Sequence,6_2,2023-11-15T17:44:33.966Z,,,,,,,,,,6966.016999997024,completion,,,,,,,high,high,,,,,,true,,,,false,305710.09999999404,305709.799999997,298726.978,298927,298743.783,305527.027,1,40,,
trial,html.Screen,6_3_0,2023-11-15T17:44:40.190Z,,,,1,1.1592423187534993,-1.067128884093211,,true,lh,6407.372999991057,response,-0.9013888878932071,0.9999999999999998,-0.9999999999999998,0.9328095253308732,0.9999999999999998,-0.9999999999999998,low,high,,ISIC_6854940.JPG,,ISIC_0068259.JPG,24,true,lh,keypress(e),0,false,311934.59999999404,311934.39999999106,305510.179,305710.200000003,305527.027,311743.706,1,40,4,
sequence,flow.Sequence,6_3,2023-11-15T17:44:40.190Z,,,,,,,,,,6407.372999991057,completion,,,,,,,low,high,,,,,,true,,,,false,311934.89999999106,311934.39999999106,305510.179,305710.200000003,305527.027,311743.706,1,40,,
trial,html.Screen,6_4_0,2023-11-15T17:44:44.614Z,,,,1,-0.9039158082670506,1.0517562064343149,,true,hl,4614.293999999994,response,0.8087127179888679,0.9999999999999998,-0.9999999999999998,-0.8480635840272462,0.9999999999999998,-0.9999999999999998,high,low,,ISIC_0015411.JPG,,ISIC_3941147.JPG,24,true,hl,keypress(j),0,false,316358.200000003,316358,311726.894,311935.09999999404,311743.706,316177.023,1,40,5,
sequence,flow.Sequence,6_4,2023-11-15T17:44:44.614Z,,,,,,,,,,4614.293999999994,completion,,,,,,,high,low,,,,,,true,,,,false,316358.5,316358,311726.894,311935,311743.706,316177.023,1,40,,
trial,html.Screen,6_5_0,2023-11-15T17:44:48.822Z,,,,1,-1.1581797104086708,-0.8335188945351617,,true,hh,4388.9770000000135,response,1.1474466950560966,0.9999999999999998,-0.9999999999999998,1.173734476257662,0.9999999999999998,-0.9999999999999998,high,high,,ISIC_4168757.JPG,,ISIC_5216586.JPG,154,true,hh,keypress(i),0,false,320566.200000003,320566,316160.225,316358.59999999404,316177.023,320377.064,1,40,6,
sequence,flow.Sequence,6_5,2023-11-15T17:44:48.822Z,,,,,,,,,,4388.9770000000135,completion,,,,,,,high,high,,,,,,true,,,,false,320566.299999997,320566,316160.225,316358.5,316177.023,320377.064,1,40,,
trial,html.Screen,6_6_0,2023-11-15T17:44:54.558Z,,,,1,-0.8069562753553525,0.9101764190105358,,true,hl,5925.0359999940265,response,1.0822170028935367,0.9999999999999998,-0.9999999999999998,-1.1654796154432183,0.9999999999999998,-0.9999999999999998,high,low,,ISIC_0046596.JPG,,ISIC_7288818.JPG,24,true,hl,keypress(j),0,false,326302.200000003,326302.09999999404,320360.362,320566.5,320377.064,326110.342,1,40,7,
sequence,flow.Sequence,6_6,2023-11-15T17:44:54.558Z,,,,,,,,,,5925.0359999940265,completion,,,,,,,high,low,,,,,,true,,,,false,326302.39999999106,326302.09999999404,320360.362,320566.39999999106,320377.064,326110.342,1,40,,
trial,html.Screen,6_7_0,2023-11-15T17:45:00.981Z,,,,1,-0.9537595754201148,-1.1342661775432377,,true,hh,6615.157999999996,response,1.0361281091871073,0.9999999999999998,-0.9999999999999998,0.8359897850958797,0.9999999999999998,-0.9999999999999998,high,high,,ISIC_0741694.JPG,,ISIC_0014392.JPG,154,true,hh,keypress(i),0,false,332725.59999999404,332725.5,326093.556,326302.5,326110.342,332543.701,1,40,8,
sequence,flow.Sequence,6_7,2023-11-15T17:45:00.981Z,,,,,,,,,,6615.157999999996,completion,,,,,,,high,high,,,,,,true,,,,false,332725.799999997,332725.5,326093.556,326302.5,326110.342,332543.701,1,40,,
trial,html.Screen,6_8_0,2023-11-15T17:45:07.014Z,,,,1,0.9850572151440374,1.028720908260899,,true,ll,6214.499000002979,response,-0.8626849314423831,0.9999999999999998,-0.9999999999999998,-1.0374085478567705,0.9999999999999998,-0.9999999999999998,low,low,,ISIC_0068993.JPG,,ISIC_0026371.JPG,111,true,ll,keypress(f),0,false,338758.39999999106,338758.200000003,332526.95,332725.89999999106,332543.701,338577.276,1,40,9,
sequence,flow.Sequence,6_8,2023-11-15T17:45:07.014Z,,,,,,,,,,6214.499000002979,completion,,,,,,,low,low,,,,,,true,,,,false,338758.5,338758.200000003,332526.95,332725.89999999106,332543.701,338577.276,1,40,,
trial,html.Screen,6_9_0,2023-11-15T17:45:14.558Z,,,,1,0.9225524349657857,-0.929746784178986,,false,lh,7725.023999997007,response,-0.849847885203758,0.9999999999999998,-0.9999999999999998,0.973447384095442,0.9999999999999998,-0.9999999999999998,low,high,,ISIC_0011077.JPG,,ISIC_9612228.JPG,24,true,hh,keypress(i),0,false,346302.59999999404,346302.299999997,338560.399,338758.700000003,338577.276,346110.345,1,40,10,
sequence,flow.Sequence,6_9,2023-11-15T17:45:14.559Z,,,,,,,,,,7725.023999997007,completion,,,,,,,low,high,,,,,,true,,,,false,346302.700000003,346302.299999997,338560.399,338758.59999999404,338577.276,346110.345,1,40,,
trial,html.Screen,6_10_0,2023-11-15T17:45:20.662Z,,,,1,-0.9087169856594104,0.8835647084207277,,true,hl,6295.655000000028,response,0.8620516892494489,0.9999999999999998,-0.9999999999999998,-1.1108509340502866,0.9999999999999998,-0.9999999999999998,high,low,,ISIC_0000349.JPG,,ISIC_5557806.JPG,24,true,hl,keypress(j),0,false,352406.200000003,352406,346093.432,346302.799999997,346110.345,352210.35,1,40,11,
sequence,flow.Sequence,6_10,2023-11-15T17:45:20.662Z,,,,,,,,,,6295.655000000028,completion,,,,,,,high,low,,,,,,true,,,,false,352406.200000003,352406,346093.432,346302.799999997,346110.345,352210.35,1,40,,
trial,html.Screen,6_11_0,2023-11-15T17:45:26.686Z,,,,1,1.086780249085418,0.8982771817382743,,true,ll,6219.549999991083,response,-1.0375203228848855,0.9999999999999998,-0.9999999999999998,-1.0256934713188917,0.9999999999999998,-0.9999999999999998,low,low,,ISIC_0057821.JPG,,ISIC_4264600.JPG,111,true,ll,keypress(f),0,false,358430,358429.89999999106,352193.496,352406.39999999106,352210.35,358243.683,1,40,12,
sequence,flow.Sequence,6_11,2023-11-15T17:45:26.686Z,,,,,,,,,,6219.549999991083,completion,,,,,,,low,low,,,,,,true,,,,false,358430.299999997,358429.89999999106,352193.496,352406.39999999106,352210.35,358243.683,1,40,,
trial,html.Screen,6_12_0,2023-11-15T17:45:32.542Z,,,,1,-1.1235224875125256,0.8641223012137988,,true,hl,6042.616999997001,response,1.082730232773217,0.9999999999999998,-0.9999999999999998,-0.8833175387485132,0.9999999999999998,-0.9999999999999998,high,low,,ISIC_0033901.JPG,,ISIC_0011933.JPG,24,true,hl,keypress(j),0,false,364286.5,364286.299999997,358226.872,358430.39999999106,358243.683,364093.734,1,40,13,
sequence,flow.Sequence,6_12,2023-11-15T17:45:32.543Z,,,,,,,,,,6042.616999997001,completion,,,,,,,high,low,,,,,,true,,,,false,364286.799999997,364286.299999997,358226.872,358430.39999999106,358243.683,364093.734,1,40,,
trial,html.Screen,6_13_0,2023-11-15T17:45:38.934Z,,,,1,1.155796217969438,-1.1646564121743912,,true,lh,6584.266000000003,response,-0.849847885203758,0.9999999999999998,-0.9999999999999998,0.973447384095442,0.9999999999999998,-0.9999999999999998,low,high,,ISIC_2685523.JPG,,ISIC_9612228.JPG,24,true,lh,keypress(e),0,false,370678.200000003,370678,364076.87,364287,364093.734,370493.871,1,40,14,
sequence,flow.Sequence,6_13,2023-11-15T17:45:38.934Z,,,,,,,,,,6584.266000000003,completion,,,,,,,low,high,,,,,,true,,,,false,370678.39999999106,370678,364076.87,364286.89999999106,364093.734,370493.871,1,40,,
trial,html.Screen,6_14_0,2023-11-15T17:45:46.742Z,,,,1,-1.1638334638021437,-1.0846635401396965,,false,hh,7992.228999994055,response,1.018568530854085,0.9999999999999998,-0.9999999999999998,1.1850528225859975,0.9999999999999998,-0.9999999999999998,high,high,,ISIC_4718313.JPG,,ISIC_0057180.JPG,154,true,lh,keypress(e),0,false,378486.200000003,378486.09999999404,370477.022,370678.5,370493.871,378293.76,1,40,15,
sequence,flow.Sequence,6_14,2023-11-15T17:45:46.742Z,,,,,,,,,,7992.228999994055,completion,,,,,,,high,high,,,,,,true,,,,false,378486.39999999106,378486.09999999404,370477.022,370678.5,370493.871,378293.76,1,40,,
trial,html.Screen,6_15_0,2023-11-15T17:45:54.255Z,,,,1,0.8145925452767395,0.9895687497294692,,true,ll,7704.940000002971,response,-0.9371720357162444,0.9999999999999998,-0.9999999999999998,-0.9507421943628228,0.9999999999999998,-0.9999999999999998,low,low,,ISIC_0027751.JPG,,ISIC_3730327.JPG,111,true,ll,keypress(f),0,false,385999,385998.700000003,378276.811,378486.5,378293.76,385810.492,1,40,16,
sequence,flow.Sequence,6_15,2023-11-15T17:45:54.255Z,,,,,,,,,,7704.940000002971,completion,,,,,,,low,low,,,,,,true,,,,false,385999.299999997,385998.700000003,378276.811,378486.39999999106,378293.76,385810.492,1,40,,
trial,html.Screen,6_16_0,2023-11-15T17:45:56.494Z,,,,1,-0.8644465729542988,0.8679598285079457,,true,hl,2427.8079999969923,response,0.8407642478899736,0.9999999999999998,-0.9999999999999998,-0.9542322753334054,0.9999999999999998,-0.9999999999999998,high,low,,ISIC_6718969.JPG,,ISIC_9090822.JPG,24,true,hl,keypress(j),0,false,388238.5,388238.299999997,385793.658,385999.39999999106,385810.492,388043.784,1,40,17,
sequence,flow.Sequence,6_16,2023-11-15T17:45:56.495Z,,,,,,,,,,2427.8079999969923,completion,,,,,,,high,low,,,,,,true,,,,false,388238.700000003,388238.299999997,385793.658,385999.39999999106,385810.492,388043.784,1,40,,
trial,html.Screen,6_17_0,2023-11-15T17:46:03.199Z,,,,1,-0.8779374983479176,0.9745548032823428,,true,hl,6898.815999994054,response,1.0822170028935367,0.9999999999999998,-0.9999999999999998,-1.1654796154432183,0.9999999999999998,-0.9999999999999998,high,low,,ISIC_2991354.JPG,,ISIC_7288818.JPG,24,true,hl,keypress(j),0,false,394942.799999997,394942.59999999404,388027.07,388238.799999997,388043.784,394760.52,1,40,18,
sequence,flow.Sequence,6_17,2023-11-15T17:46:03.199Z,,,,,,,,,,6898.815999994054,completion,,,,,,,high,low,,,,,,true,,,,false,394943.09999999404,394942.59999999404,388027.07,388238.799999997,388043.784,394760.52,1,40,,
trial,html.Screen,6_18_0,2023-11-15T17:46:08.886Z,,,,1,0.918811733700349,0.8487727309970138,,true,ll,5869.579999994021,response,-1.0668742262335038,0.9999999999999998,-0.9999999999999998,-0.9013677148468237,0.9999999999999998,-0.9999999999999998,low,low,,ISIC_0028152.JPG,,ISIC_1658623.JPG,111,true,ll,keypress(f),0,false,400630.200000003,400630.09999999404,394743.55,394943.200000003,394760.52,400443.808,1,40,19,
sequence,flow.Sequence,6_18,2023-11-15T17:46:08.886Z,,,,,,,,,,5869.579999994021,completion,,,,,,,low,low,,,,,,true,,,,false,400630.39999999106,400630.09999999404,394743.55,394943.200000003,394760.52,400443.808,1,40,,
trial,html.Screen,6_19_0,2023-11-15T17:46:16.231Z,,,,1,-1.1235224875125256,0.8641223012137988,,true,hl,7530.59199999104,response,0.8588347582642082,0.9999999999999998,-0.9999999999999998,-0.8899503828496784,0.9999999999999998,-0.9999999999999998,high,low,,ISIC_0033901.JPG,,ISIC_0174983.JPG,24,true,hl,keypress(j),0,false,407974.5,407974.39999999106,400426.925,400630.5,400443.808,407793.764,1,40,20,
sequence,flow.Sequence,6_19,2023-11-15T17:46:16.231Z,,,,,,,,,,7530.59199999104,completion,,,,,,,high,low,,,,,,true,,,,false,407974.799999997,407974.39999999106,400426.925,400630.5,400443.808,407793.764,1,40,,
trial,html.Screen,6_20_0,2023-11-15T17:46:23.526Z,,,,1,0.9858885614273278,1.050716657084935,,true,ll,7475.936000002956,response,-0.8093178584833343,0.9999999999999998,-0.9999999999999998,-1.0139833925057518,0.9999999999999998,-0.9999999999999998,low,low,,ISIC_0055498.JPG,,ISIC_6171084.JPG,111,true,ll,keypress(f),0,false,415269.799999997,415269.700000003,407777.089,407974.89999999106,407793.764,415077.116,1,40,21,
sequence,flow.Sequence,6_20,2023-11-15T17:46:23.526Z,,,,,,,,,,7475.936000002956,completion,,,,,,,low,low,,,,,,true,,,,false,415269.89999999106,415269.700000003,407777.089,407974.89999999106,407793.764,415077.116,1,40,,
trial,html.Screen,6_21_0,2023-11-15T17:46:32.455Z,,,,1,0.9566823908868002,-0.9602125665128364,,false,lh,9121.28399999108,response,-1.00615481805876,0.9999999999999998,-0.9999999999999998,0.8428903771195875,0.9999999999999998,-0.9999999999999998,low,high,,ISIC_0056784.JPG,,ISIC_0069970.JPG,24,true,hh,keypress(i),0,false,424198.59999999404,424198.39999999106,415060.415,415270,415077.116,424010.486,1,40,22,
sequence,flow.Sequence,6_21,2023-11-15T17:46:32.455Z,,,,,,,,,,9121.28399999108,completion,,,,,,,low,high,,,,,,true,,,,false,424198.799999997,424198.39999999106,415060.415,415270,415077.116,424010.486,1,40,,
trial,html.Screen,6_22_0,2023-11-15T17:46:39.351Z,,,,1,-0.8579451262594331,-0.8472659344792351,,false,hh,7083.813999997044,response,0.8531968652064474,0.9999999999999998,-0.9999999999999998,1.0402692470955777,0.9999999999999998,-0.9999999999999998,high,high,,ISIC_0067172.JPG,,ISIC_0056201.JPG,154,true,hl,keypress(j),0,false,431094.5,431094.299999997,423993.503,424198.89999999106,424010.486,430910.729,1,40,23,
sequence,flow.Sequence,6_22,2023-11-15T17:46:39.351Z,,,,,,,,,,7083.813999997044,completion,,,,,,,high,high,,,,,,true,,,,false,431094.700000003,431094.299999997,423993.503,424198.89999999106,424010.486,430910.729,1,40,,
trial,html.Screen,6_23_0,2023-11-15T17:46:48.128Z,,,,1,0.8471355550006346,0.9005344308932209,,true,ll,8960.070999997028,response,-0.9371720357162444,0.9999999999999998,-0.9999999999999998,-0.9507421943628228,0.9999999999999998,-0.9999999999999998,low,low,,ISIC_0025744.JPG,,ISIC_3730327.JPG,111,true,ll,keypress(f),0,false,439871.09999999404,439870.799999997,430893.775,431094.89999999106,430910.729,439677.195,1,40,24,
sequence,flow.Sequence,6_23,2023-11-15T17:46:48.128Z,,,,,,,,,,8960.070999997028,completion,,,,,,,low,low,,,,,,true,,,,false,439871.5,439870.799999997,430893.775,431094.799999997,430910.729,439677.195,1,40,,
trial,html.Screen,6_24_0,2023-11-15T17:46:51.631Z,,,,1,1.056384093543893,0.9175933839600456,,true,ll,3697.304999999993,response,-1.0668742262335038,0.9999999999999998,-0.9999999999999998,-0.9013677148468237,0.9999999999999998,-0.9999999999999998,low,low,,ISIC_0064247.JPG,,ISIC_1658623.JPG,111,true,ll,keypress(f),0,false,443374.89999999106,443374.5,439660.38,439871.700000003,439677.195,443193.811,1,40,25,
sequence,flow.Sequence,6_24,2023-11-15T17:46:51.632Z,,,,,,,,,,3697.304999999993,completion,,,,,,,low,low,,,,,,true,,,,false,443375.200000003,443374.5,439660.38,439871.700000003,439677.195,443193.811,1,40,,
trial,html.Screen,6_25_0,2023-11-15T17:46:56.063Z,,,,1,-1.064425982109969,0.958564243697126,,true,hl,4612.889000002993,response,0.9212323139676136,0.9999999999999998,-0.9999999999999998,-0.9882196642247332,0.9999999999999998,-0.9999999999999998,high,low,,ISIC_3203344.JPG,,ISIC_0014255.JPG,24,true,hl,keypress(j),0,false,447806.89999999106,447806.700000003,443177.286,443375.299999997,443193.811,447628.632,1,40,26,
sequence,flow.Sequence,6_25,2023-11-15T17:46:56.064Z,,,,,,,,,,4612.889000002993,completion,,,,,,,high,low,,,,,,true,,,,false,447807.299999997,447806.700000003,443177.286,443375.299999997,443193.811,447628.632,1,40,,
trial,html.Screen,6_26_0,2023-11-15T17:47:02.510Z,,,,1,-0.8683575372693808,-1.1767706219911918,,true,hh,6625.068000002997,response,1.001509027138033,0.9999999999999998,-0.9999999999999998,0.834356631694593,0.9999999999999998,-0.9999999999999998,high,high,,ISIC_0006332.JPG,,ISIC_8621568.JPG,154,true,hh,keypress(i),0,false,454253.89999999106,454253.700000003,447593.838,447807.39999999106,447628.632,454060.495,1,40,27,
sequence,flow.Sequence,6_26,2023-11-15T17:47:02.511Z,,,,,,,,,,6625.068000002997,completion,,,,,,,high,high,,,,,,true,,,,false,454254.09999999404,454253.700000003,447593.838,447807.39999999106,447628.632,454060.495,1,40,,
trial,html.Screen,6_27_0,2023-11-15T17:47:07.759Z,,,,1,0.8531968652064474,1.0402692470955777,,true,ll,5441.705000002985,response,-0.9371720357162444,0.9999999999999998,-0.9999999999999998,-0.9507421943628228,0.9999999999999998,-0.9999999999999998,low,low,,ISIC_0056201.JPG,,ISIC_3730327.JPG,111,true,ll,keypress(f),0,false,459502.299999997,459502.200000003,454043.659,454254.09999999404,454060.495,459310.542,1,40,28,
sequence,flow.Sequence,6_27,2023-11-15T17:47:07.759Z,,,,,,,,,,5441.705000002985,completion,,,,,,,low,low,,,,,,true,,,,false,459502.59999999404,459502.200000003,454043.659,454254.09999999404,454060.495,459310.542,1,40,,
trial,html.Screen,6_28_0,2023-11-15T17:47:14.759Z,,,,1,-1.003694288339796,-0.8462905128253329,,true,hh,7191.658000002964,response,1.000067575413479,0.9999999999999998,-0.9999999999999998,0.963498103069642,0.9999999999999998,-0.9999999999999998,high,high,,ISIC_2876073.JPG,,ISIC_0061531.JPG,154,true,hh,keypress(i),0,false,466502.39999999106,466502.200000003,459293.766,459502.799999997,459310.542,466310.51,1,40,29,
sequence,flow.Sequence,6_28,2023-11-15T17:47:14.760Z,,,,,,,,,,7191.658000002964,completion,,,,,,,high,high,,,,,,true,,,,false,466502.59999999404,466502.200000003,459293.766,459502.700000003,459310.542,466310.51,1,40,,
trial,html.Screen,6_29_0,2023-11-15T17:47:20.903Z,,,,1,1.086780249085418,0.8982771817382743,,true,ll,6335.28999999701,response,-0.8588484491384728,0.9999999999999998,-0.9999999999999998,-0.8025117666663619,0.9999999999999998,-0.9999999999999998,low,low,,ISIC_0057821.JPG,,ISIC_6008974.JPG,111,true,ll,keypress(f),0,false,472645.89999999106,472645.799999997,466293.695,466502.700000003,466310.51,472460.709,1,40,30,
sequence,flow.Sequence,6_29,2023-11-15T17:47:20.903Z,,,,,,,,,,6335.28999999701,completion,,,,,,,low,low,,,,,,true,,,,false,472646,472645.799999997,466293.695,466502.700000003,466310.51,472460.709,1,40,,
trial,html.Screen,6_30_0,2023-11-15T17:47:27.544Z,,,,1,0.8561946552009824,-0.9282171889213044,,true,lh,6825.991000003007,response,-0.8479396253253069,0.9999999999999998,-0.9999999999999998,1.011054319516718,0.9999999999999998,-0.9999999999999998,low,high,,ISIC_3065032.JPG,,ISIC_0063521.JPG,24,true,lh,keypress(e),0,false,479286.89999999106,479286.700000003,472443.673,472646.09999999404,472460.709,479093.879,1,40,31,
sequence,flow.Sequence,6_30,2023-11-15T17:47:27.544Z,,,,,,,,,,6825.991000003007,completion,,,,,,,low,high,,,,,,true,,,,false,479287.39999999106,479286.700000003,472443.673,472646.09999999404,472460.709,479093.879,1,40,,
trial,html.Screen,6_31_0,2023-11-15T17:47:33.887Z,,,,1,-0.8200367443437355,-1.1363137800725187,,true,hh,6536.220999994024,response,1.0441672988386008,0.9999999999999998,-0.9999999999999998,1.108916716139547,0.9999999999999998,-0.9999999999999998,high,high,,ISIC_0553565.JPG,,ISIC_0063243.JPG,154,true,hh,keypress(i),0,false,485630.299999997,485630.09999999404,479076.96,479287.59999999404,479093.879,485444.035,1,40,32,
sequence,flow.Sequence,6_31,2023-11-15T17:47:33.888Z,,,,,,,,,,6536.220999994024,completion,,,,,,,high,high,,,,,,true,,,,false,485630.5,485630.09999999404,479076.96,479287.59999999404,479093.879,485444.035,1,40,,
trial,html.Screen,6_32_0,2023-11-15T17:47:41.688Z,,,,1,1.023702319483283,0.8767219558395388,,true,ll,7986.465000000026,response,-0.8529242055711017,0.9999999999999998,-0.9999999999999998,-1.0761216763182415,0.9999999999999998,-0.9999999999999998,low,low,,ISIC_0064986.JPG,,ISIC_8169564.JPG,111,true,ll,keypress(f),0,false,493430.59999999404,493430.5,485427.135,485630.700000003,485444.035,493243.904,1,40,33,
sequence,flow.Sequence,6_32,2023-11-15T17:47:41.688Z,,,,,,,,,,7986.465000000026,completion,,,,,,,low,low,,,,,,true,,,,false,493430.89999999106,493430.5,485427.135,485630.700000003,485444.035,493243.904,1,40,,
trial,html.Screen,6_33_0,2023-11-15T17:47:47.015Z,,,,1,-1.0831477774866454,-1.0347343776726454,,true,hh,5514.09600000002,response,1.188743606919222,0.9999999999999998,-0.9999999999999998,0.9421419207281913,0.9999999999999998,-0.9999999999999998,high,high,,ISIC_9475559.JPG,,ISIC_0060481.JPG,154,true,hh,keypress(i),0,false,498758.299999997,498758,493227.152,493431,493243.904,498577.504,1,40,34,
sequence,flow.Sequence,6_33,2023-11-15T17:47:47.015Z,,,,,,,,,,5514.09600000002,completion,,,,,,,high,high,,,,,,true,,,,false,498758.39999999106,498758,493227.152,493431,493243.904,498577.504,1,40,,
trial,html.Screen,6_34_0,2023-11-15T17:47:51.352Z,,,,1,0.8588347582642082,-0.8899503828496784,,true,lh,4516.895999991044,response,-0.8591294258188253,0.9999999999999998,-0.9999999999999998,0.870797302150167,0.9999999999999998,-0.9999999999999998,low,high,,ISIC_0174983.JPG,,ISIC_0055841.JPG,24,true,lh,keypress(e),0,false,503094.59999999404,503094.39999999106,498560.59,498758.5,498577.504,502910.728,1,40,35,
sequence,flow.Sequence,6_34,2023-11-15T17:47:51.352Z,,,,,,,,,,4516.895999991044,completion,,,,,,,low,high,,,,,,true,,,,false,503094.89999999106,503094.39999999106,498560.59,498758.5,498577.504,502910.728,1,40,,
trial,html.Screen,6_35_0,2023-11-15T17:47:55.447Z,,,,1,0.9566823908868002,-0.9602125665128364,,true,lh,4279.371999994037,response,-1.1235224875125256,0.9999999999999998,-0.9999999999999998,0.8641223012137988,0.9999999999999998,-0.9999999999999998,low,high,,ISIC_0056784.JPG,,ISIC_0033901.JPG,24,true,lh,keypress(e),0,false,507190.299999997,507190.09999999404,502893.963,503095,502910.728,507011.104,1,40,36,
sequence,flow.Sequence,6_35,2023-11-15T17:47:55.447Z,,,,,,,,,,4279.371999994037,completion,,,,,,,low,high,,,,,,true,,,,false,507190.5,507190.09999999404,502893.963,503095,502910.728,507011.104,1,40,,
trial,html.Screen,6_36_0,2023-11-15T17:48:03.095Z,,,,1,1.082730232773217,-0.8833175387485132,,true,lh,7826.795999991067,response,-1.064425982109969,0.9999999999999998,-0.9999999999999998,0.958564243697126,0.9999999999999998,-0.9999999999999998,low,high,,ISIC_0011933.JPG,,ISIC_3203344.JPG,24,true,lh,keypress(e),0,false,514838,514837.89999999106,506977.297,507190.5,507011.104,514643.932,1,40,37,
sequence,flow.Sequence,6_36,2023-11-15T17:48:03.095Z,,,,,,,,,,7826.795999991067,completion,,,,,,,low,high,,,,,,true,,,,false,514838.200000003,514837.89999999106,506977.297,507190.5,507011.104,514643.932,1,40,,
trial,html.Screen,6_37_0,2023-11-15T17:48:05.807Z,,,,1,1.0264463986917702,-1.171271535505083,,true,lh,2905.9679999910877,response,-1.1235224875125256,0.9999999999999998,-0.9999999999999998,0.8641223012137988,0.9999999999999998,-0.9999999999999998,low,high,,ISIC_7889838.JPG,,ISIC_0033901.JPG,24,true,lh,keypress(e),0,false,517549.89999999106,517549.89999999106,514627.111,514838.299999997,514643.932,517360.669,1,40,38,
sequence,flow.Sequence,6_37,2023-11-15T17:48:05.807Z,,,,,,,,,,2905.9679999910877,completion,,,,,,,low,high,,,,,,true,,,,false,517550.09999999404,517549.89999999106,514627.111,514838.200000003,514643.932,517360.669,1,40,,
trial,html.Screen,6_38_0,2023-11-15T17:48:10.592Z,,,,1,-1.00615481805876,0.8428903771195875,,true,hl,4973.930999994045,response,0.8087127179888679,0.9999999999999998,-0.9999999999999998,-0.8480635840272462,0.9999999999999998,-0.9999999999999998,high,low,,ISIC_0069970.JPG,,ISIC_3941147.JPG,24,true,hl,keypress(j),0,false,522334.700000003,522334.59999999404,517343.963,517550.09999999404,517360.669,522143.974,1,40,39,
sequence,flow.Sequence,6_38,2023-11-15T17:48:10.592Z,,,,,,,,,,4973.930999994045,completion,,,,,,,high,low,,,,,,true,,,,false,522335,522334.59999999404,517343.963,517550.09999999404,517360.669,522143.974,1,40,,
trial,html.Screen,6_39_0,2023-11-15T17:48:15.775Z,,,,1,-1.1432120973785689,-0.973254467915268,,true,hh,5373.825999997032,response,0.9314347560281744,0.9999999999999998,-0.9999999999999998,1.134138732207607,0.9999999999999998,-0.9999999999999998,high,high,,ISIC_2072219.JPG,,ISIC_0056660.JPG,154,true,hh,keypress(i),0,false,527517.799999997,527517.799999997,522127.273,522335.09999999404,522143.974,527327.288,1,40,40,
sequence,flow.Sequence,6_39,2023-11-15T17:48:15.775Z,,,,,,,,,,5373.825999997032,completion,,,,,,,high,high,,,,,,true,,,,false,527518,527517.799999997,522127.273,522335,522143.974,527327.288,1,40,,
practice_loop,flow.Loop,6,2023-11-15T17:48:15.775Z,,,,,,,,,,245724.17799999705,completion,,,,,,,,,,,,,,true,,,,false,527518.099999994,527517.799999997,281777.032,281998.200000003,281793.622,527327.288,1,40,,
stair_instructions,html.Screen,7,2023-11-15T17:48:29.527Z,,,,,,,,,,13942.011999997078,response,,,,,,,,,,,,,,,continue,click button,,,541269.8999999911,541269.299999997,527310.537,527518.099999994,527327.288,541077.296,,,,
trial,html.Screen,8_0_0,2023-11-15T17:48:39.627Z,,,,2,-0.0474755744799381,-0.0692210794081785,,false,hh,10292.303999994067,response,0.905313139676194,0.9999999999999998,-0.9999999999999998,0.9966583050703528,0.9999999999999998,-0.9999999999999998,high,high,,ISIC_8794567.JPG,,ISIC_0070342.JPG,154,false,ll,keypress(f),0,true,551369.700000003,551369.599999994,541060.796,541270.099999994,541077.296,551194.009,1,40,1,
sequence,flow.Sequence,8_0,2023-11-15T17:48:39.627Z,,,,,,,,,,10292.303999994067,completion,,,,,,,high,high,,,,,,false,,,,true,551369.799999997,551369.599999994,541060.796,541270,541077.296,551194.009,1,40,,
trial,html.Screen,8_1_0,2023-11-15T17:48:50.431Z,,,,2,0.021811393859175,-0.0534678805668419,,,,10800.881000000052,timeout,0.9453986743399044,1.0499999999999998,-0.9999999999999998,1.1220583709928147,1.0499999999999998,-0.9999999999999998,high,high,,ISIC_0058054.JPG,,ISIC_0068696.JPG,133,false,,,0,true,562173.5,562173.299999997,551177.32,551369.8999999911,551194.009,561994.89,1,40,2,
sequence,flow.Sequence,8_1,2023-11-15T17:48:50.431Z,,,,,,,,,,10979.290999997058,completion,,,,,,,high,high,,,,,,false,,,,true,562173.8999999911,562173.299999997,551177.32,551369.8999999911,551194.009,561994.89,1,40,,
trial,html.Screen,8_2_0,2023-11-15T17:48:57.864Z,,,,2,-0.0063515208248796,-0.0194177605767913,,true,lh,7611.909999997006,response,-1.11329866545753,1.0499999999999998,-0.9999999999999998,1.2155631217348757,1.0499999999999998,-0.9999999999999998,low,high,,ISIC_5281908.JPG,,ISIC_0032610.JPG,21,false,lh,keypress(e),0,true,569607,569606.799999997,561960.764,562174.099999994,561994.89,569428.632,1,40,3,
sequence,flow.Sequence,8_2,2023-11-15T17:48:57.865Z,,,,,,,,,,7611.909999997006,completion,,,,,,,low,high,,,,,,false,,,,true,569607.299999997,569606.799999997,561960.764,562174,561994.89,569428.632,1,40,,
trial,html.Screen,8_3_0,2023-11-15T17:49:04.256Z,,,,2,0.0339906816361373,0.0603913124071272,,false,hl,6569.6679999970365,response,1.082730232773217,1.0499999999999998,-0.9999999999999998,-0.8833175387485132,1.0499999999999998,-0.9999999999999998,high,low,,ISIC_1258763.JPG,,ISIC_0011933.JPG,22,false,hh,keypress(i),0,true,575998.5,575998.299999997,569393.846,569607.5,569428.632,575810.695,1,40,4,
sequence,flow.Sequence,8_3,2023-11-15T17:49:04.256Z,,,,,,,,,,6569.6679999970365,completion,,,,,,,high,low,,,,,,false,,,,true,575998.700000003,575998.299999997,569393.846,569607.299999997,569428.632,575810.695,1,40,,
trial,html.Screen,8_4_0,2023-11-15T17:49:08.378Z,,,,2,0.0118555311043871,0.0087774532070196,,false,ll,4310.0050000030315,response,-0.8489509131309453,1.0499999999999998,-0.9999999999999998,-1.2058016113145278,1.0499999999999998,-1.0499999999999998,low,low,,ISIC_6488658.JPG,,ISIC_6393611.JPG,100,false,lh,keypress(e),0,true,580120.799999997,580120.700000003,575793.929,575998.799999997,575810.695,579927.357,1,40,5,
sequence,flow.Sequence,8_4,2023-11-15T17:49:08.378Z,,,,,,,,,,4310.0050000030315,completion,,,,,,,low,low,,,,,,false,,,,true,580120.8999999911,580120.700000003,575793.929,575998.799999997,575810.695,579927.357,1,40,,
trial,html.Screen,8_5_0,2023-11-15T17:49:15.401Z,,,,2,-0.0086413421586899,-0.0360184993500958,,false,hl,7215.24299999408,response,1.0264463986917702,1.0499999999999998,-0.9499999999999997,-1.171271535505083,1.0499999999999998,-1.0999999999999999,high,low,,ISIC_0010767.JPG,,ISIC_7889838.JPG,20,false,hh,keypress(i),0,true,587142.700000003,587142.599999994,579910.81,580121,579927.357,586960.697,1,40,6,
sequence,flow.Sequence,8_5,2023-11-15T17:49:15.401Z,,,,,,,,,,7215.24299999408,completion,,,,,,,high,low,,,,,,false,,,,true,587143,587142.599999994,579910.81,580120.8999999911,579927.357,586960.697,1,40,,
trial,html.Screen,8_6_0,2023-11-15T17:49:19.376Z,,,,2,0.0166849894750452,-0.0371614812368835,,true,hl,4157.2029999910155,response,0.9566823908868002,0.9545883157324935,-0.8999999999999997,-0.9602125665128364,0.9999999999999998,-1.0999999999999999,high,low,,ISIC_6231450.JPG,,ISIC_0056784.JPG,27,false,hl,keypress(j),0,true,591118,591117.8999999911,586944.031,587143.299999997,586960.697,590927.452,1,40,7,
sequence,flow.Sequence,8_6,2023-11-15T17:49:19.376Z,,,,,,,,,,4157.2029999910155,completion,,,,,,,high,low,,,,,,false,,,,true,591118.099999994,591117.8999999911,586944.031,587143.200000003,586960.697,590927.452,1,40,,
trial,html.Screen,8_7_0,2023-11-15T17:49:22.736Z,,,,2,0.0668201703083464,-0.0222223530621927,,true,lh,3550.5479999999516,response,-0.8923602890201078,0.9545883157324935,-0.8999999999999997,0.8351700666074688,0.9999999999999998,-1.0999999999999999,low,high,,ISIC_8321148.JPG,,ISIC_0033103.JPG,33,false,lh,keypress(e),0,true,594478.099999994,594478,590910.699,591118.099999994,590927.452,594294.059,1,40,8,
sequence,flow.Sequence,8_7,2023-11-15T17:49:22.736Z,,,,,,,,,,3550.5479999999516,completion,,,,,,,low,high,,,,,,false,,,,true,594478.200000003,594478,590910.699,591118.099999994,590927.452,594294.059,1,40,,
trial,html.Screen,8_8_0,2023-11-15T17:49:30.320Z,,,,2,-0.0311884318403233,0.0697810882761999,,false,lh,7768.141000002972,response,-1.0003671514840182,0.9545883157324935,-0.8999999999999997,0.8992716557663581,0.9499999999999997,-1.0999999999999999,low,high,,ISIC_4870676.JPG,,ISIC_0061749.JPG,34,false,hl,keypress(j),0,true,602062.299999997,602062.200000003,594277.267,594478.299999997,594294.059,601877.389,1,40,9,
sequence,flow.Sequence,8_8,2023-11-15T17:49:30.320Z,,,,,,,,,,7768.141000002972,completion,,,,,,,low,high,,,,,,false,,,,true,602062.5,602062.200000003,594277.267,594478.200000003,594294.059,601877.389,1,40,,
trial,html.Screen,8_9_0,2023-11-15T17:49:35.560Z,,,,2,0.0395849059583371,-0.049996355475379,,true,lh,5425.010999991093,response,-1.0143509683988825,0.9545883157324935,-0.9499999999999997,1.0281980567462463,0.9999999999999998,-1.0999999999999999,low,high,,ISIC_4042619.JPG,,ISIC_0062031.JPG,26,false,lh,keypress(e),0,true,607302.5,607302.3999999911,601860.601,602062.599999994,601877.389,607110.714,1,40,10,
sequence,flow.Sequence,8_9,2023-11-15T17:49:35.561Z,,,,,,,,,,5425.010999991093,completion,,,,,,,low,high,,,,,,false,,,,true,607302.700000003,607302.3999999911,601860.601,602062.599999994,601877.389,607110.714,1,40,,
trial,html.Screen,8_10_0,2023-11-15T17:49:42.664Z,,,,2,0.0395849059583371,-0.049996355475379,,true,hh,7295.585999996983,response,1.073353722471336,0.9545883157324935,-0.9499999999999997,0.9464043043104888,0.9999999999999998,-1.0999999999999999,high,high,,ISIC_4042619.JPG,,ISIC_0055293.JPG,162,false,hh,keypress(i),0,true,614406.5,614406.299999997,607094.007,607302.799999997,607110.714,614210.745,1,40,11,
sequence,flow.Sequence,8_10,2023-11-15T17:49:42.665Z,,,,,,,,,,7295.585999996983,completion,,,,,,,high,high,,,,,,false,,,,true,614406.599999994,614406.299999997,607094.007,607302.700000003,607110.714,614210.745,1,40,,
trial,html.Screen,8_11_0,2023-11-15T17:49:46.441Z,,,,2,0.0480684603309257,-0.0620119776873313,,true,lh,3971.854999994044,response,-1.064425982109969,0.9373011805283675,-0.9499999999999997,0.958564243697126,0.9373011805283675,-1.0999999999999999,low,high,,ISIC_0645834.JPG,,ISIC_3203344.JPG,31,false,lh,keypress(e),0,true,618182.799999997,618182.599999994,614193.818,614406.700000003,614210.745,617994.084,1,40,12,
sequence,flow.Sequence,8_11,2023-11-15T17:49:46.441Z,,,,,,,,,,3971.854999994044,completion,,,,,,,low,high,,,,,,false,,,,true,618183.200000003,618182.599999994,614193.818,614406.700000003,614210.745,617994.084,1,40,,
trial,html.Screen,8_12_0,2023-11-15T17:49:54.480Z,,,,2,-0.0086413421586899,-0.0360184993500958,,true,hh,8228.116000002949,response,0.8667223452789944,0.9373011805283675,-0.8999999999999997,1.08062537708245,0.9373011805283675,-1.0999999999999999,high,high,,ISIC_0010767.JPG,,ISIC_0070032.JPG,169,false,hh,keypress(i),0,true,626222.200000003,626222.200000003,617977.285,618183.3999999911,617994.084,626027.407,1,40,13,
sequence,flow.Sequence,8_12,2023-11-15T17:49:54.480Z,,,,,,,,,,8228.116000002949,completion,,,,,,,high,high,,,,,,false,,,,true,626222.299999997,626222.200000003,617977.285,618183.299999997,617994.084,626027.407,1,40,,
trial,html.Screen,8_13_0,2023-11-15T17:49:56.936Z,,,,2,-0.0127320821962457,0.0315308940184827,,true,lh,2650.8929999970132,response,-0.7401156491866404,0.9373011805283675,-0.8999999999999997,0.8169638598102704,0.9236738611807223,-1.0999999999999999,low,high,,ISIC_8156101.JPG,,ISIC_0072429.JPG,35,false,lh,keypress(e),0,true,628678.5,628678.299999997,626010.657,626222.3999999911,626027.407,628494.297,1,40,14,
sequence,flow.Sequence,8_13,2023-11-15T17:49:56.937Z,,,,,,,,,,2650.8929999970132,completion,,,,,,,low,high,,,,,,false,,,,true,628678.8999999911,628678.299999997,626010.657,626222.3999999911,626027.407,628494.297,1,40,,
trial,html.Screen,8_14_0,2023-11-15T17:50:03.705Z,,,,2,0.0050679133050021,0.0174815595031679,,false,lh,6952.802999994019,response,-1.0003671514840182,0.9373011805283675,-0.8999999999999997,0.8992716557663581,0.9236738611807223,-1.0999999999999999,low,high,,ISIC_9848743.JPG,,ISIC_0061749.JPG,35,false,ll,keypress(f),0,true,635447.3999999911,635447.099999994,628477.511,628679,628494.297,635260.778,1,40,15,
sequence,flow.Sequence,8_14,2023-11-15T17:50:03.706Z,,,,,,,,,,6952.802999994019,completion,,,,,,,low,high,,,,,,false,,,,true,635447.8999999911,635447.099999994,628477.511,628678.8999999911,628494.297,635260.778,1,40,,
trial,html.Screen,8_15_0,2023-11-15T17:50:07.001Z,,,,2,-0.0361875505619981,0.0291457404567876,,true,hl,3481.82199999399,response,0.7753299102004093,0.9373011805283675,-0.8499999999999996,-1.053851019509641,0.9736738611807223,-1.0999999999999999,high,low,,ISIC_0027480.JPG,,ISIC_9511832.JPG,29,false,hl,keypress(j),0,true,638742.700000003,638742.599999994,635243.821,635448.099999994,635260.778,638560.832,1,40,16,
sequence,flow.Sequence,8_15,2023-11-15T17:50:07.001Z,,,,,,,,,,3481.82199999399,completion,,,,,,,high,low,,,,,,false,,,,true,638743,638742.599999994,635243.821,635448,635260.778,638560.832,1,40,,
trial,html.Screen,8_16_0,2023-11-15T17:50:13.265Z,,,,2,0.0399381815506136,0.0177751789152893,,true,ll,6445.467999996967,response,-0.7112499523439552,0.8873011805283675,-0.8499999999999996,-1.0208030773499672,0.9736738611807223,-1.0499999999999998,low,low,,ISIC_3981425.JPG,,ISIC_4477599.JPG,131,false,ll,keypress(f),0,true,645006.5,645006.299999997,638544.231,638743.200000003,638560.832,644810.794,1,40,17,
sequence,flow.Sequence,8_16,2023-11-15T17:50:13.265Z,,,,,,,,,,6445.467999996967,completion,,,,,,,low,low,,,,,,false,,,,true,645006.700000003,645006.299999997,638544.231,638743.099999994,638560.832,644810.794,1,40,,
trial,html.Screen,8_17_0,2023-11-15T17:50:18.985Z,,,,2,-0.0733425953790377,0.0558194585272655,,false,lh,5915.906000002986,response,-0.849847885203758,0.8873011805283675,-0.8499999999999996,0.973447384095442,0.9736738611807223,-1.0499999999999998,low,high,,ISIC_0026756.JPG,,ISIC_9612228.JPG,41,false,hh,keypress(i),0,true,650726.8999999911,650726.700000003,644794.135,645006.799999997,644810.794,650544.241,1,40,18,
sequence,flow.Sequence,8_17,2023-11-15T17:50:18.986Z,,,,,,,,,,5915.906000002986,completion,,,,,,,low,high,,,,,,false,,,,true,650727.200000003,650726.700000003,644794.135,645006.799999997,644810.794,650544.241,1,40,,
trial,html.Screen,8_18_0,2023-11-15T17:50:29.177Z,,,,2,-0.0683185670328473,-0.0092332028949561,,false,ll,10373.858999994001,response,-0.9416900312335138,0.8873011805283675,-0.8999999999999997,-0.9485840589720004,0.9736738611807223,-1.0499999999999998,low,low,,ISIC_3652847.JPG,,ISIC_2784686.JPG,120,false,hh,keypress(i),0,true,660918.200000003,660918.099999994,650527.376,650727.299999997,650544.241,660727.522,1,40,19,
sequence,flow.Sequence,8_18,2023-11-15T17:50:29.177Z,,,,,,,,,,10373.858999994001,completion,,,,,,,low,low,,,,,,false,,,,true,660918.299999997,660918.099999994,650527.376,650727.299999997,650544.241,660727.522,1,40,,
trial,html.Screen,8_19_0,2023-11-15T17:50:34.568Z,,,,2,0.00126575685933,0.0325046559638838,,false,ll,5582.277999997023,response,-0.8200367443437355,0.8873011805283675,-0.9499999999999997,-1.1363137800725187,0.9736738611807223,-1.0999999999999999,low,low,,ISIC_5682259.JPG,,ISIC_0553565.JPG,97,false,lh,keypress(e),0,true,666310,666309.799999997,660710.462,660918.3999999911,660727.522,666127.474,1,40,20,
sequence,flow.Sequence,8_19,2023-11-15T17:50:34.568Z,,,,,,,,,,5582.277999997023,completion,,,,,,,low,low,,,,,,false,,,,true,666310.099999994,666309.799999997,660710.462,660918.3999999911,660727.522,666127.474,1,40,,
trial,html.Screen,8_20_0,2023-11-15T17:50:38.233Z,,,,2,-0.0050319651598106,0.047524453347389,,true,hl,3846.625999993994,response,0.7705174182595537,0.8873011805283675,-0.9499999999999997,-1.085710894474977,0.9736738611807223,-1.15,high,low,,ISIC_0027081.JPG,,ISIC_0013644.JPG,29,false,hl,keypress(j),0,true,669974.299999997,669974.099999994,666110.709,666310.099999994,666127.474,669794.338,1,40,21,
sequence,flow.Sequence,8_20,2023-11-15T17:50:38.233Z,,,,,,,,,,3846.625999993994,completion,,,,,,,high,low,,,,,,false,,,,true,669974.5,669974.099999994,666110.709,666310.099999994,666127.474,669794.338,1,40,,
trial,html.Screen,8_21_0,2023-11-15T17:50:45.337Z,,,,2,-0.0488365673064833,0.0229344142397166,,true,hh,7283.961999997031,response,0.7893820556044738,0.8873011805283675,-0.9499999999999997,1.1425746878769467,0.9736738611807223,-1.15,high,high,,ISIC_0056915.JPG,,ISIC_0065121.JPG,181,false,hh,keypress(i),0,true,677078.3999999911,677078.299999997,669760.942,669974.599999994,669794.338,676894.183,1,40,22,
sequence,flow.Sequence,8_21,2023-11-15T17:50:45.337Z,,,,,,,,,,7283.961999997031,completion,,,,,,,high,high,,,,,,false,,,,true,677078.700000003,677078.299999997,669760.942,669974.599999994,669794.338,676894.183,1,40,,
trial,html.Screen,8_22_0,2023-11-15T17:50:53.073Z,,,,2,0.0700745968706567,0.013891147856594,,false,ll,7920.017000003019,response,-0.8096925837576198,0.8373011805283674,-0.9499999999999997,-1.278863938757332,0.9236738611807223,-1.15,low,low,,ISIC_0054663.JPG,,ISIC_0025592.JPG,88,false,lh,keypress(e),0,true,684814.299999997,684814.200000003,676877.256,677078.700000003,676894.183,684627.463,1,40,23,
sequence,flow.Sequence,8_22,2023-11-15T17:50:53.073Z,,,,,,,,,,7920.017000003019,completion,,,,,,,low,low,,,,,,false,,,,true,684814.599999994,684814.200000003,676877.256,677078.700000003,676894.183,684627.463,1,40,,
trial,html.Screen,8_23_0,2023-11-15T17:51:00.945Z,,,,2,0.0071892445601978,-0.0246015408628738,,true,ll,8058.737000002991,response,-0.7325242431593119,0.8373011805283674,-0.8977017391162982,-1.206715319094875,0.9236738611807223,-1.15,low,low,,ISIC_0014133.JPG,,ISIC_0027492.JPG,100,false,ll,keypress(f),0,true,692686.299999997,692686.200000003,684610.698,684814.700000003,684627.463,692494.127,1,40,24,
sequence,flow.Sequence,8_23,2023-11-15T17:51:00.945Z,,,,,,,,,,8058.737000002991,completion,,,,,,,low,low,,,,,,false,,,,true,692686.5,692686.200000003,684610.698,684814.599999994,684627.463,692494.127,1,40,,
trial,html.Screen,8_24_0,2023-11-15T17:51:08.080Z,,,,2,-0.0063515208248796,-0.0194177605767913,,false,hh,7327.873000000021,response,0.8471355550006346,0.8373011805283674,-0.8977017391162982,0.9005344308932209,0.9236738611807223,-1.15,high,high,,ISIC_5281908.JPG,,ISIC_0025744.JPG,195,false,lh,keypress(e),0,true,699822.099999994,699822,692477.321,692686.5,692494.127,699627.481,1,40,25,
sequence,flow.Sequence,8_24,2023-11-15T17:51:08.081Z,,,,,,,,,,7327.873000000021,completion,,,,,,,high,high,,,,,,false,,,,true,699822.299999997,699822,692477.321,692686.5,692494.127,699627.481,1,40,,
trial,html.Screen,8_25_0,2023-11-15T17:51:16.330Z,,,,2,-0.0683185670328473,-0.0092332028949561,,false,ll,8443.719000002951,response,-1.0831477774866454,0.8873011805283675,-0.8977017391162982,-1.0347343776726454,0.9236738611807223,-1.15,low,low,,ISIC_3652847.JPG,,ISIC_9475559.JPG,100,false,hl,keypress(j),0,true,708071.599999994,708071.200000003,699610.842,699822.299999997,699627.481,707877.535,1,40,26,
sequence,flow.Sequence,8_25,2023-11-15T17:51:16.331Z,,,,,,,,,,8443.719000002951,completion,,,,,,,low,low,,,,,,false,,,,true,708071.8999999911,708071.200000003,699610.842,699822.299999997,699627.481,707877.535,1,40,,
trial,html.Screen,8_26_0,2023-11-15T17:51:19.978Z,,,,2,-0.0500182837729639,0.0231316228640781,,true,lh,3841.4649999999674,response,-0.8129823105338526,0.8873011805283675,-0.9477017391162983,0.9655386457143784,0.9236738611807223,-1.0999999999999999,low,high,,ISIC_2246150.JPG,,ISIC_8268025.JPG,33,false,lh,keypress(e),0,true,711719.299999997,711719,707860.575,708072,707877.535,711527.605,1,40,27,
sequence,flow.Sequence,8_26,2023-11-15T17:51:19.979Z,,,,,,,,,,3841.4649999999674,completion,,,,,,,low,high,,,,,,false,,,,true,711719.799999997,711719,707860.575,708072,707877.535,711527.605,1,40,,
trial,html.Screen,8_27_0,2023-11-15T17:51:24.313Z,,,,2,0.0118555311043871,0.0087774532070196,,true,lh,4526.895000000019,response,-0.8070820195894357,0.8873011805283675,-0.9477017391162983,0.8958120092147633,0.8736738611807222,-1.0999999999999999,low,high,,ISIC_6488658.JPG,,ISIC_0060585.JPG,40,false,lh,keypress(e),0,true,716054.700000003,716054.5,711510.755,711720.099999994,711527.605,715860.848,1,40,28,
sequence,flow.Sequence,8_27,2023-11-15T17:51:24.314Z,,,,,,,,,,4526.895000000019,completion,,,,,,,low,high,,,,,,false,,,,true,716054.8999999911,716054.5,711510.755,711720,711527.605,715860.848,1,40,,
trial,html.Screen,8_28_0,2023-11-15T17:51:29.554Z,,,,2,0.0310298232022856,0.0697438859399019,,true,hl,5433.652000000002,response,1.0822170028935367,0.8873011805283675,-0.8977017391162982,-1.1654796154432183,0.8736738611807222,-1.0999999999999999,high,low,,ISIC_0027669.JPG,,ISIC_7288818.JPG,33,false,hl,keypress(j),0,true,721294.700000003,721294.5,715844.07,716055,715860.848,721110.896,1,40,29,
sequence,flow.Sequence,8_28,2023-11-15T17:51:29.554Z,,,,,,,,,,5433.652000000002,completion,,,,,,,high,low,,,,,,false,,,,true,721295,721294.5,715844.07,716055,715860.848,721110.896,1,40,,
trial,html.Screen,8_29_0,2023-11-15T17:51:32.330Z,,,,2,0.0402606077562393,-0.0233871780024155,,true,hl,2960.1040000000503,response,0.9212323139676136,0.8873011805283675,-0.8977017391162982,-0.9882196642247332,0.8736738611807222,-1.0999999999999999,high,low,,ISIC_0024401.JPG,,ISIC_0014255.JPG,33,false,hl,keypress(j),0,true,724071.299999997,724071,721094.17,721295.099999994,721110.896,723877.537,1,40,30,
sequence,flow.Sequence,8_29,2023-11-15T17:51:32.331Z,,,,,,,,,,2960.1040000000503,completion,,,,,,,high,low,,,,,,false,,,,true,724071.700000003,724071,721094.17,721295,721110.896,723877.537,1,40,,
trial,html.Screen,8_30_0,2023-11-15T17:51:39.193Z,,,,2,0.0702697127166421,0.0314752704888287,,false,hl,7056.862999991048,response,0.9670240379618178,0.8373011805283674,-0.8977017391162982,-1.1806404773220665,0.8736738611807222,-1.0268496398339757,high,low,,ISIC_0033881.JPG,,ISIC_0002288.JPG,50,false,ll,keypress(f),0,true,730934.599999994,730934.3999999911,723860.797,724072,723877.537,730744.255,1,40,31,
sequence,flow.Sequence,8_30,2023-11-15T17:51:39.194Z,,,,,,,,,,7056.862999991048,completion,,,,,,,high,low,,,,,,false,,,,true,730934.799999997,730934.3999999911,723860.797,724071.8999999911,723877.537,730744.255,1,40,,
trial,html.Screen,8_31_0,2023-11-15T17:51:42.065Z,,,,2,0.0534676262527691,0.0384996820289673,,true,hl,3062.044999997015,response,0.7622326985614671,0.8873011805283675,-0.8977017391162982,-1.1077754321509423,0.8736738611807222,-1.0268496398339757,high,low,,ISIC_0030484.JPG,,ISIC_4548995.JPG,40,false,hl,keypress(j),0,true,733806.5,733806.299999997,730727.547,730934.8999999911,730744.255,733610.912,1,40,32,
sequence,flow.Sequence,8_31,2023-11-15T17:51:42.066Z,,,,,,,,,,3062.044999997015,completion,,,,,,,high,low,,,,,,false,,,,true,733806.700000003,733806.299999997,730727.547,730934.799999997,730744.255,733610.912,1,40,,
trial,html.Screen,8_32_0,2023-11-15T17:51:44.673Z,,,,2,-0.0311884318403233,0.0697810882761999,,false,hh,2803.288000002969,response,0.7507196780133332,0.8873011805283675,-0.8977017391162982,0.7254299711091223,0.8736738611807222,-0.9768496398339757,high,high,,ISIC_4870676.JPG,,ISIC_0025791.JPG,200,false,hl,keypress(j),0,true,736414.299999997,736414.200000003,733594.158,733806.799999997,733610.912,736227.818,1,40,33,
sequence,flow.Sequence,8_32,2023-11-15T17:51:44.673Z,,,,,,,,,,2803.288000002969,completion,,,,,,,high,high,,,,,,false,,,,true,736414.5,736414.200000003,733594.158,733806.799999997,733610.912,736227.818,1,40,,
trial,html.Screen,8_33_0,2023-11-15T17:51:51.169Z,,,,2,-0.0372699196710335,0.0646614895271859,,false,hh,6682.18200000003,response,0.6553069590915552,0.7064761882874001,-0.8977017391162982,0.8017517593805518,0.9236738611807223,-0.9768496398339757,high,high,,ISIC_1175170.JPG,,ISIC_0033211.JPG,206,false,lh,keypress(e),0,true,742910.200000003,742910,736210.969,736414.5,736227.818,742727.722,1,40,34,
sequence,flow.Sequence,8_33,2023-11-15T17:51:51.169Z,,,,,,,,,,6682.18200000003,completion,,,,,,,high,high,,,,,,false,,,,true,742910.299999997,742910,736210.969,736414.5,736227.818,742727.722,1,40,,
trial,html.Screen,8_34_0,2023-11-15T17:51:56.001Z,,,,2,0.0572318562475973,0.0328299593216012,,false,ll,5014.677999991109,response,-0.7667679012436769,0.7564761882874002,-0.8977017391162982,-0.8929810409888325,0.9236738611807223,-0.9768496398339757,low,low,,ISIC_0397464.JPG,,ISIC_0028976.JPG,145,false,lh,keypress(e),0,true,747742.5,747742.3999999911,742710.685,742910.3999999911,742727.722,747561.038,1,40,35,
sequence,flow.Sequence,8_34,2023-11-15T17:51:56.001Z,,,,,,,,,,5014.677999991109,completion,,,,,,,low,low,,,,,,false,,,,true,747742.599999994,747742.3999999911,742710.685,742910.3999999911,742727.722,747561.038,1,40,,
trial,html.Screen,8_35_0,2023-11-15T17:52:03.818Z,,,,2,-0.0207120852539861,-0.0589023744433183,,true,hh,7997.7619999970775,response,0.7488760129079584,0.7564761882874002,-0.8977017391162982,0.9431848379424128,0.9236738611807223,-1.0268496398339757,high,high,,ISIC_7973601.JPG,,ISIC_0069395.JPG,197,false,hh,keypress(i),0,true,755558.8999999911,755558.799999997,747544.137,747742.799999997,747561.038,755377.719,1,40,36,
sequence,flow.Sequence,8_35,2023-11-15T17:52:03.818Z,,,,,,,,,,7997.7619999970775,completion,,,,,,,high,high,,,,,,false,,,,true,755559.299999997,755558.799999997,747544.137,747742.799999997,747561.038,755377.719,1,40,,
trial,html.Screen,8_36_0,2023-11-15T17:52:14.506Z,,,,2,-0.0733425953790377,0.0558194585272655,,false,ll,10868.98100000294,response,-0.7848333827448511,0.7564761882874002,-0.8977017391162982,-0.9557254346276748,0.7960304254251855,-1.0268496398339757,low,low,,ISIC_0026756.JPG,,ISIC_6778515.JPG,131,false,hh,keypress(i),0,true,766246.799999997,766246.700000003,755360.812,755559.5,755377.719,766060.97,1,40,37,
sequence,flow.Sequence,8_36,2023-11-15T17:52:14.507Z,,,,,,,,,,10868.98100000294,completion,,,,,,,low,low,,,,,,false,,,,true,766247.200000003,766246.700000003,755360.812,755559.5,755377.719,766060.97,1,40,,
trial,html.Screen,8_37_0,2023-11-15T17:52:21.170Z,,,,2,-0.0127364719403411,-0.0549103570808099,,true,hl,6849.030000000028,response,0.8561946552009824,0.7564761882874002,-0.9477017391162983,-0.9282171889213044,0.7960304254251855,-1.0768496398339757,high,low,,ISIC_0054705.JPG,,ISIC_3065032.JPG,51,false,hl,keypress(j),0,true,772910.200000003,772910,766044.519,766247.299999997,766060.97,772727.605,1,40,38,
sequence,flow.Sequence,8_37,2023-11-15T17:52:21.170Z,,,,,,,,,,6849.030000000028,completion,,,,,,,high,low,,,,,,false,,,,true,772910.3999999911,772910,766044.519,766247.200000003,766060.97,772727.605,1,40,,
trial,html.Screen,8_38_0,2023-11-15T17:52:29.633Z,,,,2,-0.019361072276763,-0.0523902345755568,,true,ll,8646.095000002999,response,-0.9658792885069516,0.7064761882874001,-0.9477017391162983,-0.916173605730014,0.7960304254251855,-1.0768496398339757,low,low,,ISIC_4066726.JPG,,ISIC_8979275.JPG,95,false,ll,keypress(f),0,true,781373.700000003,781373.700000003,772710.843,772910.3999999911,772727.605,781177.595,1,40,39,
sequence,flow.Sequence,8_38,2023-11-15T17:52:29.633Z,,,,,,,,,,8646.095000002999,completion,,,,,,,low,low,,,,,,false,,,,true,781373.8999999911,781373.700000003,772710.843,772910.3999999911,772727.605,781177.595,1,40,,
trial,html.Screen,8_39_0,2023-11-15T17:52:35.817Z,,,,2,0.0057914759495055,-0.018500200317654,,true,hh,6380.204999997048,response,0.7846840640804751,0.7064761882874001,-0.9477017391162983,0.5989856210114538,0.7960304254251855,-0.8910264471184828,high,high,,ISIC_0058723.JPG,,ISIC_0026352.JPG,265,false,hh,keypress(i),0,true,787558,787557.799999997,781160.688,781373.8999999911,781177.595,787378.169,1,40,40,
sequence,flow.Sequence,8_39,2023-11-15T17:52:35.817Z,,,,,,,,,,6380.204999997048,completion,,,,,,,high,high,,,,,,false,,,,true,787558.099999994,787557.799999997,781160.688,781373.8999999911,781177.595,787378.169,1,40,,
stair_loop,flow.Loop,8,2023-11-15T17:52:35.818Z,,,,,,,,,,246480.50399999705,completion,,,,,,,,,,,,,,false,,,,true,787558.200000003,787557.799999997,541060.796,541270,541077.296,787378.169,1,40,,
exp_instructions,html.Screen,9,2023-11-15T17:52:58.506Z,,,,,,,,,,22867.630999997025,response,,,,,,,,,,,,,,,continue,keypress(Space),,,810246.3999999911,810245.799999997,787344.324,787558.299999997,787378.169,810061.008,,,,
trial,html.Screen,10_0_0,2023-11-15T17:53:06.260Z,,,,1,0.0402606077562393,-0.0233871780024155,,false,hh,7939.491999999969,response,0.758207007584394,0.8240124332440291,-0.9180464782488535,1.0467954238943018,0.8881451740296148,-1.0691336602812136,high,high,,ISIC_0024401.JPG,9,ISIC_0011626.JPG,211,false,lh,keypress(e),0,false,818000.599999994,818000.5,810043.531,810246.599999994,810061.008,817810.977,4,500,1,
break,html.Screen,10_0_1,2023-11-15T17:53:06.260Z,,,,,,,,,,NaN,,,,,,,,high,high,,,,,,false,,,,false,818001,818000.8999999911,,818000.700000003,,817810.977,4,500,,
break_continue,html.Screen,10_0_2,2023-11-15T17:53:06.261Z,,,,,,,,,,NaN,,,,,,,,high,high,,,,,,false,,,,false,818001.299999997,818001.200000003,,818001.099999994,,817810.977,4,500,,
sequence,flow.Sequence,10_0,2023-11-15T17:53:06.261Z,,,,,,,,,,7940.1920000029495,completion,,,,,,,high,high,,,,,,false,,,,false,818001.3999999911,818001.200000003,810043.531,810246.599999994,810061.008,817810.977,4,500,,
trial,html.Screen,10_1_0,2023-11-15T17:53:09.363Z,,,,1,0.0339906816361373,0.0603913124071272,,true,lh,3291.922999991104,response,-1.1162273456306029,0.8240124332440291,-0.9180464782488535,0.7890271955816722,0.8881451740296148,-1.0691336602812136,low,high,,ISIC_1258763.JPG,9,ISIC_0011564.JPG,41,false,lh,keypress(e),0,false,821103.200000003,821102.8999999911,817794.166,818001.3999999911,817810.977,820911.067,4,500,2,
break,html.Screen,10_1_1,2023-11-15T17:53:09.363Z,,,,,,,,,,NaN,,,,,,,,low,high,,,,,,false,,,,false,821104.099999994,821103.8999999911,,821103.5,,820911.067,4,500,,
break_continue,html.Screen,10_1_2,2023-11-15T17:53:09.364Z,,,,,,,,,,NaN,,,,,,,,low,high,,,,,,false,,,,false,821104.599999994,821104.3999999911,,821104.299999997,,820911.067,4,500,,
sequence,flow.Sequence,10_1,2023-11-15T17:53:09.364Z,,,,,,,,,,3293.422999991104,completion,,,,,,,low,high,,,,,,false,,,,false,821104.8999999911,821104.3999999911,817794.166,818001.3999999911,817810.977,820911.067,4,500,,
trial,html.Screen,10_2_0,2023-11-15T17:53:14.778Z,,,,1,-0.0029978997915594,0.0736178673732526,,true,hh,5607.232999996981,response,0.6354936261668199,0.8240124332440291,-0.9180464782488535,0.9832440552188104,0.8881451740296148,-1.0691336602812136,high,high,,ISIC_9745038.JPG,9,ISIC_0015110.JPG,211,false,hh,keypress(i),0,false,826518.3999999911,826518.299999997,820894.484,821104.8999999911,820911.067,826327.71,4,500,3,
break,html.Screen,10_2_1,2023-11-15T17:53:14.779Z,,,,,,,,,,NaN,,,,,,,,high,high,,,,,,false,,,,false,826519.099999994,826518.8999999911,,826518.599999994,,826327.71,4,500,,
break_continue,html.Screen,10_2_2,2023-11-15T17:53:14.779Z,,,,,,,,,,NaN,,,,,,,,high,high,,,,,,false,,,,false,826519.3999999911,826519.299999997,,826519.200000003,,826327.71,4,500,,
sequence,flow.Sequence,10_2,2023-11-15T17:53:14.779Z,,,,,,,,,,5608.232999996981,completion,,,,,,,high,high,,,,,,false,,,,false,826519.599999994,826519.299999997,820894.484,821104.8999999911,820911.067,826327.71,4,500,,
trial,html.Screen,10_3_0,2023-11-15T17:53:23.386Z,,,,1,-0.0500182837729639,0.0231316228640781,,false,lh,8798.389999994077,response,-0.8070820195894357,0.8240124332440291,-0.9180464782488535,0.8958120092147633,0.8881451740296148,-1.0691336602812136,low,high,,ISIC_2246150.JPG,8,ISIC_0060585.JPG,41,false,hh,keypress(i),0,false,835126.200000003,835126.099999994,826311.034,826519.700000003,826327.71,834944.441,4,500,4,
break,html.Screen,10_3_1,2023-11-15T17:53:23.386Z,,,,,,,,,,NaN,,,,,,,,low,high,,,,,,false,,,,false,835126.599999994,835126.5,,835126.299999997,,834944.441,4,500,,
break_continue,html.Screen,10_3_2,2023-11-15T17:53:23.386Z,,,,,,,,,,NaN,,,,,,,,low,high,,,,,,false,,,,false,835126.700000003,835126.700000003,,835126.599999994,,834944.441,4,500,,
sequence,flow.Sequence,10_3,2023-11-15T17:53:23.387Z,,,,,,,,,,8798.990000003017,completion,,,,,,,low,high,,,,,,false,,,,false,835126.700000003,835126.700000003,826311.034,826519.700000003,826327.71,834944.441,4,500,,
trial,html.Screen,10_4_0,2023-11-15T17:53:29.682Z,,,,1,-0.0565575423757561,0.0536115913979284,,true,hh,6477.158999994048,response,0.744695719087225,0.8240124332440291,-0.9180464782488535,0.7863276284255195,0.8881451740296148,-1.0691336602812136,high,high,,ISIC_0046983.JPG,9,ISIC_0071869.JPG,211,false,hh,keypress(i),0,false,841421.700000003,841421.599999994,834927.739,835126.799999997,834944.441,841227.667,4,500,5,
break,html.Screen,10_4_1,2023-11-15T17:53:29.682Z,,,,,,,,,,NaN,,,,,,,,high,high,,,,,,false,,,,false,841422.099999994,841422,,841421.8999999911,,841227.667,4,500,,
break_continue,html.Screen,10_4_2,2023-11-15T17:53:29.682Z,,,,,,,,,,NaN,,,,,,,,high,high,,,,,,false,,,,false,841422.3999999911,841422.299999997,,841422.200000003,,841227.667,4,500,,
sequence,flow.Sequence,10_4,2023-11-15T17:53:29.682Z,,,,,,,,,,6477.858999997028,completion,,,,,,,high,high,,,,,,false,,,,false,841422.5,841422.299999997,834927.739,835126.799999997,834944.441,841227.667,4,500,,
trial,html.Screen,10_5_0,2023-11-15T17:53:35.411Z,,,,1,0.0395849059583371,-0.049996355475379,,false,hl,5923.132999997004,response,0.8015753713975186,0.8240124332440291,-0.9180464782488535,-1.0067065355978264,0.8881451740296148,-1.0691336602812136,high,low,,ISIC_4042619.JPG,9,ISIC_0002119.JPG,46,false,ll,keypress(f),0,false,847151,847150.799999997,841210.996,841422.599999994,841227.667,846961.055,4,500,6,
break,html.Screen,10_5_1,2023-11-15T17:53:35.412Z,,,,,,,,,,NaN,,,,,,,,high,low,,,,,,false,,,,false,847152,847151.700000003,,847151.299999997,,846961.055,4,500,,
break_continue,html.Screen,10_5_2,2023-11-15T17:53:35.412Z,,,,,,,,,,NaN,,,,,,,,high,low,,,,,,false,,,,false,847152.5,847152.299999997,,847152.200000003,,846961.055,4,500,,
sequence,flow.Sequence,10_5,2023-11-15T17:53:35.413Z,,,,,,,,,,5924.632999997004,completion,,,,,,,high,low,,,,,,false,,,,false,847152.799999997,847152.299999997,841210.996,841422.5,841227.667,846961.055,4,500,,
trial,html.Screen,10_6_0,2023-11-15T17:53:45.754Z,,,,1,-0.0361875505619981,0.0291457404567876,,false,hl,10532.944999999949,response,0.8561946552009824,0.8240124332440291,-0.9180464782488535,-0.9282171889213044,0.8881451740296148,-1.0691336602812136,high,low,,ISIC_0027480.JPG,9,ISIC_3065032.JPG,46,false,ll,keypress(f),0,false,857494.099999994,857494,846944.343,847152.8999999911,846961.055,857311.061,4,500,7,
break,html.Screen,10_6_1,2023-11-15T17:53:45.754Z,,,,,,,,,,NaN,,,,,,,,high,low,,,,,,false,,,,false,857494.5,857494.3999999911,,857494.200000003,,857311.061,4,500,,
break_continue,html.Screen,10_6_2,2023-11-15T17:53:45.754Z,,,,,,,,,,NaN,,,,,,,,high,low,,,,,,false,,,,false,857494.599999994,857494.599999994,,857494.5,,857311.061,4,500,,
sequence,flow.Sequence,10_6,2023-11-15T17:53:45.754Z,,,,,,,,,,10533.544999993988,completion,,,,,,,high,low,,,,,,false,,,,false,857494.700000003,857494.599999994,846944.343,847152.8999999911,846961.055,857311.061,4,500,,
trial,html.Screen,10_7_0,2023-11-15T17:53:53.226Z,,,,1,-0.0361875505619981,0.0291457404567876,,false,hh,7655.139000002993,response,0.6937181847654451,0.8240124332440291,-0.9180464782488535,0.9442364015643918,0.8881451740296148,-1.0691336602812136,high,high,,ISIC_0027480.JPG,10,ISIC_0067969.JPG,211,false,ll,keypress(f),0,false,864966.299999997,864966.200000003,857294.604,857494.799999997,857311.061,864777.755,4,500,8,
break,html.Screen,10_7_1,2023-11-15T17:53:53.227Z,,,,,,,,,,NaN,,,,,,,,high,high,,,,,,false,,,,false,864966.799999997,864966.700000003,,864966.5,,864777.755,4,500,,
break_continue,html.Screen,10_7_2,2023-11-15T17:53:53.227Z,,,,,,,,,,NaN,,,,,,,,high,high,,,,,,false,,,,false,864967.099999994,864967,,864966.8999999911,,864777.755,4,500,,
sequence,flow.Sequence,10_7,2023-11-15T17:53:53.227Z,,,,,,,,,,7655.939000000013,completion,,,,,,,high,high,,,,,,false,,,,false,864967.200000003,864967,857294.604,857494.799999997,857311.061,864777.755,4,500,,
trial,html.Screen,10_8_0,2023-11-15T17:53:59.002Z,,,,1,-0.0733425953790377,0.0558194585272655,,true,ll,5964.445000002976,response,-1.0831477774866454,0.8240124332440291,-0.9180464782488535,-1.0347343776726454,0.8881451740296148,-1.0691336602812136,low,low,,ISIC_0026756.JPG,9,ISIC_9475559.JPG,106,false,ll,keypress(f),0,false,870742.299999997,870742.200000003,864760.871,864967.299999997,864777.755,870561.069,4,500,9,
break,html.Screen,10_8_1,2023-11-15T17:53:59.002Z,,,,,,,,,,NaN,,,,,,,,low,low,,,,,,false,,,,false,870742.700000003,870742.599999994,,870742.5,,870561.069,4,500,,
break_continue,html.Screen,10_8_2,2023-11-15T17:53:59.003Z,,,,,,,,,,NaN,,,,,,,,low,low,,,,,,false,,,,false,870743,870742.8999999911,,870742.799999997,,870561.069,4,500,,
sequence,flow.Sequence,10_8,2023-11-15T17:53:59.003Z,,,,,,,,,,5965.144999991055,completion,,,,,,,low,low,,,,,,false,,,,false,870743.099999994,870742.8999999911,864760.871,864967.299999997,864777.755,870561.069,4,500,,
trial,html.Screen,10_9_0,2023-11-15T17:54:04.042Z,,,,1,0.0203374006918297,-0.0594475300019112,,true,hh,5221.030999994022,response,0.8543323078107433,0.8240124332440291,-0.9180464782488535,0.9163054072963652,0.8881451740296148,-1.0691336602812136,high,high,,ISIC_0028579.JPG,10,ISIC_0012070.JPG,211,false,hh,keypress(i),0,false,875782.299999997,875782.099999994,870544.266,870743.200000003,870561.069,875594.432,4,500,10,
break,html.Screen,10_9_1,2023-11-15T17:54:04.043Z,,,,,,,,,,NaN,,,,,,,,high,high,,,,,,false,,,,false,875782.799999997,875782.599999994,,875782.3999999911,,875594.432,4,500,,
break_continue,html.Screen,10_9_2,2023-11-15T17:54:04.043Z,,,,,,,,,,NaN,,,,,,,,high,high,,,,,,false,,,,false,875783.099999994,875782.8999999911,,875782.8999999911,,875594.432,4,500,,
sequence,flow.Sequence,10_9,2023-11-15T17:54:04.043Z,,,,,,,,,,5221.830999991042,completion,,,,,,,high,high,,,,,,false,,,,false,875783.099999994,875782.8999999911,870544.266,870743.099999994,870561.069,875594.432,4,500,,
trial,html.Screen,10_10_0,2023-11-15T17:54:13.250Z,,,,1,-0.0380440426394326,-0.0685633753763444,,true,ll,9395.56799999997,response,-0.9112756881807856,0.8240124332440291,-0.9180464782488535,-0.87743267531148,0.8881451740296148,-1.0691336602812136,low,low,,ISIC_0032680.JPG,10,ISIC_0000387.JPG,106,false,ll,keypress(f),0,false,884990.099999994,884990,875577.778,875783.299999997,875594.432,884794.421,4,500,11,
break,html.Screen,10_10_1,2023-11-15T17:54:13.251Z,,,,,,,,,,NaN,,,,,,,,low,low,,,,,,false,,,,false,884990.5,884990.3999999911,,884990.299999997,,884794.421,4,500,,
break_continue,html.Screen,10_10_2,2023-11-15T17:54:13.251Z,,,,,,,,,,NaN,,,,,,,,low,low,,,,,,false,,,,false,884990.599999994,884990.599999994,,884990.5,,884794.421,4,500,,
sequence,flow.Sequence,10_10,2023-11-15T17:54:13.251Z,,,,,,,,,,9396.16799999401,completion,,,,,,,low,low,,,,,,false,,,,false,884990.700000003,884990.599999994,875577.778,875783.200000003,875594.432,884794.421,4,500,,
trial,html.Screen,10_11_0,2023-11-15T17:54:20.762Z,,,,1,-0.0127364719403411,-0.0549103570808099,,false,ll,7707.478999991086,response,-0.8161200572102323,0.8240124332440291,-0.9180464782488535,-1.0608841647192944,0.8881451740296148,-1.0691336602812136,low,low,,ISIC_0054705.JPG,9,ISIC_0033021.JPG,106,false,hh,keypress(i),0,false,892502.099999994,892501.8999999911,884777.7,884990.700000003,884794.421,892311.083,4,500,12,
break,html.Screen,10_11_1,2023-11-15T17:54:20.763Z,,,,,,,,,,NaN,,,,,,,,low,low,,,,,,false,,,,false,892502.3999999911,892502.3999999911,,892502.299999997,,892311.083,4,500,,
break_continue,html.Screen,10_11_2,2023-11-15T17:54:20.763Z,,,,,,,,,,NaN,,,,,,,,low,low,,,,,,false,,,,false,892502.700000003,892502.700000003,,892502.5,,892311.083,4,500,,
sequence,flow.Sequence,10_11,2023-11-15T17:54:20.763Z,,,,,,,,,,7708.279000003007,completion,,,,,,,low,low,,,,,,false,,,,false,892502.799999997,892502.700000003,884777.7,884990.700000003,884794.421,892311.083,4,500,,
trial,html.Screen,10_12_0,2023-11-15T17:54:28.123Z,,,,1,0.0496743860812164,0.0010487105450318,,false,hh,7551.316999991075,response,0.7889870538343912,0.8240124332440291,-0.9180464782488535,1.0788072220020657,0.8881451740296148,-1.0691336602812136,high,high,,ISIC_9312264.JPG,9,ISIC_0061751.JPG,211,false,lh,keypress(e),0,false,899862.599999994,899862.3999999911,892294.358,892502.799999997,892311.083,899677.794,4,500,13,
break,html.Screen,10_12_1,2023-11-15T17:54:28.123Z,,,,,,,,,,NaN,,,,,,,,high,high,,,,,,false,,,,false,899863,899862.8999999911,,899862.799999997,,899677.794,4,500,,
break_continue,html.Screen,10_12_2,2023-11-15T17:54:28.124Z,,,,,,,,,,NaN,,,,,,,,high,high,,,,,,false,,,,false,899863.299999997,899863.200000003,,899863.099999994,,899677.794,4,500,,
sequence,flow.Sequence,10_12,2023-11-15T17:54:28.124Z,,,,,,,,,,7552.117000002996,completion,,,,,,,high,high,,,,,,false,,,,false,899863.3999999911,899863.200000003,892294.358,892502.799999997,892311.083,899677.794,4,500,,
trial,html.Screen,10_13_0,2023-11-15T17:54:35.179Z,,,,1,-0.0191999585302269,0.0745789212985316,,true,hl,7240.605999991065,response,0.7011709745663137,0.8240124332440291,-0.9180464782488535,-0.9901017340796716,0.8881451740296148,-1.0691336602812136,high,low,,ISIC_4024062.JPG,9,ISIC_8679617.JPG,46,false,hl,keypress(j),0,false,906918.599999994,906918.3999999911,899660.992,899863.5,899677.794,906727.8,4,500,14,
break,html.Screen,10_13_1,2023-11-15T17:54:35.180Z,,,,,,,,,,NaN,,,,,,,,high,low,,,,,,false,,,,false,906919.299999997,906919.200000003,,906918.8999999911,,906727.8,4,500,,
break_continue,html.Screen,10_13_2,2023-11-15T17:54:35.180Z,,,,,,,,,,NaN,,,,,,,,high,low,,,,,,false,,,,false,906919.700000003,906919.599999994,,906919.3999999911,,906727.8,4,500,,
sequence,flow.Sequence,10_13,2023-11-15T17:54:35.180Z,,,,,,,,,,7241.805999994045,completion,,,,,,,high,low,,,,,,false,,,,false,906919.8999999911,906919.599999994,899660.992,899863.5,899677.794,906727.8,4,500,,
trial,html.Screen,10_14_0,2023-11-15T17:54:41.971Z,,,,1,0.0077673378094614,0.0021810768579373,,true,lh,6982.599999991013,response,-0.9464722688210522,0.8240124332440291,-0.9180464782488535,0.7779875773283346,0.8881451740296148,-1.0691336602812136,low,high,,ISIC_0067621.JPG,10,ISIC_5926550.JPG,41,false,lh,keypress(e),0,false,913710.599999994,913710.3999999911,906710.891,906920,906727.8,913527.782,4,500,15,
break,html.Screen,10_14_1,2023-11-15T17:54:41.972Z,,,,,,,,,,NaN,,,,,,,,low,high,,,,,,false,,,,false,913711.5,913711.299999997,,913710.8999999911,,913527.782,4,500,,
break_continue,html.Screen,10_14_2,2023-11-15T17:54:41.972Z,,,,,,,,,,NaN,,,,,,,,low,high,,,,,,false,,,,false,913712.099999994,913712,,913711.799999997,,913527.782,4,500,,
sequence,flow.Sequence,10_14,2023-11-15T17:54:41.973Z,,,,,,,,,,6984.199999999953,completion,,,,,,,low,high,,,,,,false,,,,false,913712.299999997,913712,906710.891,906920,906727.8,913527.782,4,500,,
trial,html.Screen,10_15_0,2023-11-15T17:54:48.699Z,,,,1,-0.0127320821962457,0.0315308940184827,,true,hh,6910.7179999999935,response,0.8057040901302144,0.8240124332440291,-0.9180464782488535,0.8481278654022556,0.8881451740296148,-1.0691336602812136,high,high,,ISIC_8156101.JPG,8,ISIC_0014366.JPG,211,false,hh,keypress(i),0,false,920438.599999994,920438.5,913510.953,913712.5,913527.782,920244.494,4,500,16,
break,html.Screen,10_15_1,2023-11-15T17:54:48.699Z,,,,,,,,,,NaN,,,,,,,,high,high,,,,,,false,,,,false,920439.099999994,920439,,920438.799999997,,920244.494,4,500,,
break_continue,html.Screen,10_15_2,2023-11-15T17:54:48.700Z,,,,,,,,,,NaN,,,,,,,,high,high,,,,,,false,,,,false,920439.3999999911,920439.299999997,,920439.200000003,,920244.494,4,500,,
sequence,flow.Sequence,10_15,2023-11-15T17:54:48.700Z,,,,,,,,,,6911.517999997013,completion,,,,,,,high,high,,,,,,false,,,,false,920439.599999994,920439.299999997,913510.953,913712.5,913527.782,920244.494,4,500,,
trial,html.Screen,10_16_0,2023-11-15T17:54:53.363Z,,,,1,0.0023664502831079,0.0252784582169994,,false,hh,4858.105999994092,response,0.722836070950726,0.8240124332440291,-0.9180464782488535,0.9131975040259578,0.8881451740296148,-1.0691336602812136,high,high,,ISIC_4156010.JPG,9,ISIC_7320371.JPG,211,false,hl,keypress(j),0,false,925102.700000003,925102.599999994,920227.887,920439.700000003,920244.494,924911.141,4,500,17,
break,html.Screen,10_16_1,2023-11-15T17:54:53.364Z,,,,,,,,,,NaN,,,,,,,,high,high,,,,,,false,,,,false,925103.299999997,925103.200000003,,925102.8999999911,,924911.141,4,500,,
break_continue,html.Screen,10_16_2,2023-11-15T17:54:53.364Z,,,,,,,,,,NaN,,,,,,,,high,high,,,,,,false,,,,false,925103.700000003,925103.599999994,,925103.5,,924911.141,4,500,,
sequence,flow.Sequence,10_16,2023-11-15T17:54:53.364Z,,,,,,,,,,4859.105999994092,completion,,,,,,,high,high,,,,,,false,,,,false,925103.8999999911,925103.599999994,920227.887,920439.700000003,920244.494,924911.141,4,500,,
trial,html.Screen,10_17_0,2023-11-15T17:54:58.466Z,,,,1,0.0572318562475973,0.0328299593216012,,false,hh,5294.658999997075,response,0.6825461516303779,0.8240124332440291,-0.9180464782488535,1.0008351574818215,0.8881451740296148,-1.0691336602812136,high,high,,ISIC_0397464.JPG,10,ISIC_0033154.JPG,211,false,lh,keypress(e),0,false,930206,930205.799999997,924894.465,925103.8999999911,924911.141,930011.153,4,500,18,
break,html.Screen,10_17_1,2023-11-15T17:54:58.467Z,,,,,,,,,,NaN,,,,,,,,high,high,,,,,,false,,,,false,930206.299999997,930206.200000003,,930206.099999994,,930011.153,4,500,,
break_continue,html.Screen,10_17_2,2023-11-15T17:54:58.467Z,,,,,,,,,,NaN,,,,,,,,high,high,,,,,,false,,,,false,930206.5,930206.5,,930206.3999999911,,930011.153,4,500,,
sequence,flow.Sequence,10_17,2023-11-15T17:54:58.467Z,,,,,,,,,,5295.359000000055,completion,,,,,,,high,high,,,,,,false,,,,false,930206.599999994,930206.5,924894.465,925103.8999999911,924911.141,930011.153,4,500,,
trial,html.Screen,10_18_0,2023-11-15T17:55:01.699Z,,,,1,-0.0646883165340005,-0.0250974824557198,,true,lh,3427.1469999969704,response,-0.7401156491866404,0.8240124332440291,-0.9180464782488535,0.8169638598102704,0.8881451740296148,-1.0691336602812136,low,high,,ISIC_0069515.JPG,8,ISIC_0072429.JPG,41,false,lh,keypress(e),0,false,933438.5,933438.299999997,929994.47,930206.700000003,930011.153,933244.511,4,500,19,
break,html.Screen,10_18_1,2023-11-15T17:55:01.699Z,,,,,,,,,,NaN,,,,,,,,low,high,,,,,,false,,,,false,933439,933438.8999999911,,933438.700000003,,933244.511,4,500,,
break_continue,html.Screen,10_18_2,2023-11-15T17:55:01.699Z,,,,,,,,,,NaN,,,,,,,,low,high,,,,,,false,,,,false,933439.200000003,933439.200000003,,933439.099999994,,933244.511,4,500,,
sequence,flow.Sequence,10_18,2023-11-15T17:55:01.700Z,,,,,,,,,,3428.047000002931,completion,,,,,,,low,high,,,,,,false,,,,false,933439.3999999911,933439.200000003,929994.47,930206.599999994,930011.153,933244.511,4,500,,
trial,html.Screen,10_19_0,2023-11-15T17:55:09.987Z,,,,1,-0.0565575423757561,0.0536115913979284,,false,hh,8482.388999991002,response,0.9850572151440374,0.8240124332440291,-0.9180464782488535,1.028720908260899,0.8881451740296148,-1.0691336602812136,high,high,,ISIC_0046983.JPG,9,ISIC_0068993.JPG,211,false,lh,keypress(e),0,false,941727.099999994,941726.8999999911,933227.745,933439.5,933244.511,941544.499,4,500,20,
break,html.Screen,10_19_1,2023-11-15T17:55:09.988Z,,,,,,,,,,NaN,,,,,,,,high,high,,,,,,false,,,,false,941727.8999999911,941727.700000003,,941727.3999999911,,941544.499,4,500,,
break_continue,html.Screen,10_19_2,2023-11-15T17:55:09.989Z,,,,,,,,,,NaN,,,,,,,,high,high,,,,,,false,,,,false,941728.299999997,941728.099999994,,941728,,941544.499,4,500,,
sequence,flow.Sequence,10_19,2023-11-15T17:55:09.989Z,,,,,,,,,,8483.588999993983,completion,,,,,,,high,high,,,,,,false,,,,false,941728.599999994,941728.099999994,933227.745,933439.5,933244.511,941544.499,4,500,,
trial,html.Screen,10_20_0,2023-11-15T17:55:15.963Z,,,,1,-0.0063515208248796,-0.0194177605767913,,true,hh,6157.800999997067,response,0.8628696237203484,0.8240124332440291,-0.9180464782488535,0.9684635118197058,0.8881451740296148,-1.0691336602812136,high,high,,ISIC_5281908.JPG,8,ISIC_0015132.JPG,211,false,hh,keypress(i),0,false,947702.3999999911,947702.299999997,941527.843,941728.700000003,941544.499,947511.202,4,500,21,
break,html.Screen,10_20_1,2023-11-15T17:55:15.964Z,,,,,,,,,,NaN,,,,,,,,high,high,,,,,,false,,,,false,947703,947702.799999997,,947702.700000003,,947511.202,4,500,,
break_continue,html.Screen,10_20_2,2023-11-15T17:55:15.964Z,,,,,,,,,,NaN,,,,,,,,high,high,,,,,,false,,,,false,947703.200000003,947703.099999994,,947703,,947511.202,4,500,,
sequence,flow.Sequence,10_20,2023-11-15T17:55:15.964Z,,,,,,,,,,6158.600999994087,completion,,,,,,,high,high,,,,,,false,,,,false,947703.3999999911,947703.099999994,941527.843,941728.599999994,941544.499,947511.202,4,500,,
trial,html.Screen,10_21_0,2023-11-15T17:55:23.323Z,,,,1,0.0339906816361373,0.0603913124071272,,false,ll,7550.897999993991,response,-0.828718986734101,0.8240124332440291,-0.9180464782488535,-1.0632477436092242,0.8881451740296148,-1.0691336602812136,low,low,,ISIC_1258763.JPG,10,ISIC_0005028.JPG,106,false,lh,keypress(e),0,false,955062.299999997,955062.099999994,947494.448,947703.3999999911,947511.202,954877.834,4,500,22,
break,html.Screen,10_21_1,2023-11-15T17:55:23.323Z,,,,,,,,,,NaN,,,,,,,,low,low,,,,,,false,,,,false,955062.599999994,955062.5,,955062.3999999911,,954877.834,4,500,,
break_continue,html.Screen,10_21_2,2023-11-15T17:55:23.323Z,,,,,,,,,,NaN,,,,,,,,low,low,,,,,,false,,,,false,955062.799999997,955062.700000003,,955062.700000003,,954877.834,4,500,,
sequence,flow.Sequence,10_21,2023-11-15T17:55:23.323Z,,,,,,,,,,7551.498000002932,completion,,,,,,,low,low,,,,,,false,,,,false,955062.8999999911,955062.700000003,947494.448,947703.3999999911,947511.202,954877.834,4,500,,
trial,html.Screen,10_22_0,2023-11-15T17:55:31.779Z,,,,1,0.012020985739544,-0.0126097407389903,,false,ll,8640.265999994008,response,-0.7420011978639511,0.8240124332440291,-0.9180464782488535,-1.1041327586353054,0.8881451740296148,-1.0691336602812136,low,low,,ISIC_0069379.JPG,9,ISIC_9756858.JPG,106,false,lh,keypress(e),0,false,963518.200000003,963518.099999994,954861.241,955062.8999999911,954877.834,963327.841,4,500,23,
break,html.Screen,10_22_1,2023-11-15T17:55:31.779Z,,,,,,,,,,NaN,,,,,,,,low,low,,,,,,false,,,,false,963518.599999994,963518.599999994,,963518.3999999911,,963327.841,4,500,,
break_continue,html.Screen,10_22_2,2023-11-15T17:55:31.779Z,,,,,,,,,,NaN,,,,,,,,low,low,,,,,,false,,,,false,963518.799999997,963518.799999997,,963518.700000003,,963327.841,4,500,,
sequence,flow.Sequence,10_22,2023-11-15T17:55:31.780Z,,,,,,,,,,8640.965999996988,completion,,,,,,,low,low,,,,,,false,,,,false,963519,963518.799999997,954861.241,955062.8999999911,954877.834,963327.841,4,500,,
trial,html.Screen,10_23_0,2023-11-15T17:55:42.566Z,,,,1,0.0402606077562393,-0.0233871780024155,,,,10783.390000000014,timeout,-0.8277658066009654,0.8240124332440291,-0.9180464782488535,0.708917192410697,0.8881451740296148,-1.0691336602812136,low,high,,ISIC_0024401.JPG,9,ISIC_0033168.JPG,41,false,,,0,false,974305.8999999911,974305.599999994,963311.193,963519,963327.841,974111.231,4,500,24,
break,html.Screen,10_23_1,2023-11-15T17:55:42.567Z,,,,,,,,,,NaN,,,,,,,,low,high,,,,,,false,,,,false,974306.299999997,974306.200000003,,974306,,974111.231,4,500,,
break_continue,html.Screen,10_23_2,2023-11-15T17:55:42.567Z,,,,,,,,,,NaN,,,,,,,,low,high,,,,,,false,,,,false,974306.700000003,974306.700000003,,974306.5,,974111.231,4,500,,
sequence,flow.Sequence,10_23,2023-11-15T17:55:42.568Z,,,,,,,,,,10978.859000002965,completion,,,,,,,low,high,,,,,,false,,,,false,974306.8999999911,974306.700000003,963311.193,963519,963327.841,974111.231,4,500,,
trial,html.Screen,10_24_0,2023-11-15T17:55:46.795Z,,,,1,-0.0191999585302269,0.0745789212985316,,false,ll,4423.068999996991,response,-0.9512444996401545,0.8240124332440291,-0.9180464782488535,-0.9046053086219094,0.8881451740296148,-1.0691336602812136,low,low,,ISIC_4024062.JPG,10,ISIC_0059170.JPG,106,false,lh,keypress(e),0,false,978534.5,978534.299999997,974094.769,974307,974111.231,978344.554,4,500,25,
break,html.Screen,10_24_1,2023-11-15T17:55:46.796Z,,,,,,,,,,NaN,,,,,,,,low,low,,,,,,false,,,,false,978534.8999999911,978534.799999997,,978534.700000003,,978344.554,4,500,,
break_continue,html.Screen,10_24_2,2023-11-15T17:55:46.796Z,,,,,,,,,,NaN,,,,,,,,low,low,,,,,,false,,,,false,978535.200000003,978535.099999994,,978535,,978344.554,4,500,,
sequence,flow.Sequence,10_24,2023-11-15T17:55:46.796Z,,,,,,,,,,4423.868999994011,completion,,,,,,,low,low,,,,,,false,,,,false,978535.299999997,978535.099999994,974094.769,974307,974111.231,978344.554,4,500,,
trial,html.Screen,10_25_0,2023-11-15T17:55:50.867Z,,,,1,-0.0199897690678184,-0.0312486875504497,,true,lh,4261.6460000029765,response,-0.8591294258188253,0.8240124332440291,-0.9180464782488535,0.870797302150167,0.8881451740296148,-1.0691336602812136,low,high,,ISIC_5482426.JPG,9,ISIC_0055841.JPG,41,false,lh,keypress(e),0,false,982606.3999999911,982606.200000003,978327.759,978535.3999999911,978344.554,982411.25,4,500,26,
break,html.Screen,10_25_1,2023-11-15T17:55:50.867Z,,,,,,,,,,NaN,,,,,,,,low,high,,,,,,false,,,,false,982606.799999997,982606.700000003,,982606.3999999911,,982411.25,4,500,,
break_continue,html.Screen,10_25_2,2023-11-15T17:55:50.868Z,,,,,,,,,,NaN,,,,,,,,low,high,,,,,,false,,,,false,982607.099999994,982607,,982606.799999997,,982411.25,4,500,,
sequence,flow.Sequence,10_25,2023-11-15T17:55:50.868Z,,,,,,,,,,4262.445999999996,completion,,,,,,,low,high,,,,,,false,,,,false,982607.099999994,982607,978327.759,978535.299999997,978344.554,982411.25,4,500,,
trial,html.Screen,10_26_0,2023-11-15T17:55:57.347Z,,,,1,-0.0367218428225813,0.0026956749740767,,true,hl,6674.8499999940395,response,0.7011709745663137,0.8240124332440291,-0.9180464782488535,-0.9901017340796716,0.8881451740296148,-1.0691336602812136,high,low,,ISIC_7212271.JPG,8,ISIC_8679617.JPG,46,false,hl,keypress(j),0,false,989086.200000003,989086.099999994,982394.443,982607.299999997,982411.25,988894.633,4,500,27,
break,html.Screen,10_26_1,2023-11-15T17:55:57.347Z,,,,,,,,,,NaN,,,,,,,,high,low,,,,,,false,,,,false,989086.3999999911,989086.299999997,,989086.200000003,,988894.633,4,500,,
break_continue,html.Screen,10_26_2,2023-11-15T17:55:57.347Z,,,,,,,,,,NaN,,,,,,,,high,low,,,,,,false,,,,false,989086.599999994,989086.5,,989086.5,,988894.633,4,500,,
sequence,flow.Sequence,10_26,2023-11-15T17:55:57.347Z,,,,,,,,,,6675.25,completion,,,,,,,high,low,,,,,,false,,,,false,989086.700000003,989086.5,982394.443,982607.299999997,982411.25,988894.633,4,500,,
trial,html.Screen,10_27_0,2023-11-15T17:56:02.475Z,,,,1,-0.0744767864787991,0.0482768027208112,,true,lh,5319.266999991029,response,-0.8591294258188253,0.8240124332440291,-0.9180464782488535,0.870797302150167,0.8881451740296148,-1.0691336602812136,low,high,,ISIC_0011482.JPG,9,ISIC_0055841.JPG,41,false,lh,keypress(e),0,false,994214,994213.8999999911,988877.868,989086.700000003,988894.633,994027.963,4,500,28,
break,html.Screen,10_27_1,2023-11-15T17:56:02.475Z,,,,,,,,,,NaN,,,,,,,,low,high,,,,,,false,,,,false,994214.3999999911,994214.3999999911,,994214.200000003,,994027.963,4,500,,
break_continue,html.Screen,10_27_2,2023-11-15T17:56:02.475Z,,,,,,,,,,NaN,,,,,,,,low,high,,,,,,false,,,,false,994214.599999994,994214.599999994,,994214.3999999911,,994027.963,4,500,,
sequence,flow.Sequence,10_27,2023-11-15T17:56:02.475Z,,,,,,,,,,5319.966999994009,completion,,,,,,,low,high,,,,,,false,,,,false,994214.799999997,994214.599999994,988877.868,989086.700000003,988894.633,994027.963,4,500,,
trial,html.Screen,10_28_0,2023-11-15T17:56:09.691Z,,,,1,-0.0086413421586899,-0.0360184993500958,,true,ll,7402.136999994051,response,-0.750058317872786,0.8240124332440291,-0.9180464782488535,-1.0508652558556042,0.8881451740296148,-1.0691336602812136,low,low,,ISIC_0010767.JPG,9,ISIC_1794249.JPG,106,false,ll,keypress(f),0,false,1001430.099999994,1001430.099999994,994011.196,994214.799999997,994027.963,1001244.829,4,500,29,
break,html.Screen,10_28_1,2023-11-15T17:56:09.691Z,,,,,,,,,,NaN,,,,,,,,low,low,,,,,,false,,,,false,1001430.5,1001430.3999999911,,1001430.299999997,,1001244.829,4,500,,
break_continue,html.Screen,10_28_2,2023-11-15T17:56:09.691Z,,,,,,,,,,NaN,,,,,,,,low,low,,,,,,false,,,,false,1001430.700000003,1001430.599999994,,1001430.599999994,,1001244.829,4,500,,
sequence,flow.Sequence,10_28,2023-11-15T17:56:09.691Z,,,,,,,,,,7402.636999994051,completion,,,,,,,low,low,,,,,,false,,,,false,1001430.700000003,1001430.599999994,994011.196,994214.799999997,994027.963,1001244.829,4,500,,
trial,html.Screen,10_29_0,2023-11-15T17:56:14.652Z,,,,1,-0.0187970165493076,-0.0417726918052949,,true,lh,5145.570999991032,response,-0.7401156491866404,0.8240124332440291,-0.9180464782488535,0.8169638598102704,0.8881451740296148,-1.0691336602812136,low,high,,ISIC_9312164.JPG,10,ISIC_0072429.JPG,41,false,lh,keypress(e),0,false,1006390.5,1006390.3999999911,1001227.922,1001430.700000003,1001244.829,1006194.593,4,500,30,
break,html.Screen,10_29_1,2023-11-15T17:56:14.652Z,,,,,,,,,,NaN,,,,,,,,low,high,,,,,,false,,,,false,1006391.200000003,1006390.8999999911,,1006390.700000003,,1006194.593,4,500,,
break_continue,html.Screen,10_29_2,2023-11-15T17:56:14.653Z,,,,,,,,,,NaN,,,,,,,,low,high,,,,,,false,,,,false,1006391.3999999911,1006391.299999997,,1006391.200000003,,1006194.593,4,500,,
sequence,flow.Sequence,10_29,2023-11-15T17:56:14.653Z,,,,,,,,,,5146.470999996993,completion,,,,,,,low,high,,,,,,false,,,,false,1006391.5,1006391.299999997,1001227.922,1001430.700000003,1001244.829,1006194.593,4,500,,
trial,html.Screen,10_30_0,2023-11-15T17:56:19.852Z,,,,1,0.0668201703083464,-0.0222223530621927,,true,hh,5395.706999997026,response,0.903200901040808,0.8240124332440291,-0.9180464782488535,0.8884252535933715,0.8881451740296148,-1.0691336602812136,high,high,,ISIC_8321148.JPG,8,ISIC_0065260.JPG,211,false,hh,keypress(i),0,false,1011590.3999999911,1011590.299999997,1006177.824,1006391.700000003,1006194.593,1011394.613,4,500,31,
break,html.Screen,10_30_1,2023-11-15T17:56:19.852Z,,,,,,,,,,NaN,,,,,,,,high,high,,,,,,false,,,,false,1011591,1011590.799999997,,1011590.599999994,,1011394.613,4,500,,
break_continue,html.Screen,10_30_2,2023-11-15T17:56:19.852Z,,,,,,,,,,NaN,,,,,,,,high,high,,,,,,false,,,,false,1011591.200000003,1011591.099999994,,1011591,,1011394.613,4,500,,
sequence,flow.Sequence,10_30,2023-11-15T17:56:19.852Z,,,,,,,,,,5396.506999994046,completion,,,,,,,high,high,,,,,,false,,,,false,1011591.299999997,1011591.099999994,1006177.824,1006391.700000003,1006194.593,1011394.613,4,500,,
trial,html.Screen,10_31_0,2023-11-15T17:56:25.092Z,,,,1,-0.0127364719403411,-0.0549103570808099,,true,ll,5436.286999991047,response,-0.7325242431593119,0.8240124332440291,-0.9180464782488535,-1.206715319094875,0.8881451740296148,-1.0691336602812136,low,low,,ISIC_0054705.JPG,8,ISIC_0027492.JPG,106,false,ll,keypress(f),0,false,1016831.099999994,1016830.8999999911,1011377.901,1011591.3999999911,1011394.613,1016644.583,4,500,32,
break,html.Screen,10_31_1,2023-11-15T17:56:25.093Z,,,,,,,,,,NaN,,,,,,,,low,low,,,,,,false,,,,false,1016832,1016831.700000003,,1016831.3999999911,,1016644.583,4,500,,
break_continue,html.Screen,10_31_2,2023-11-15T17:56:25.094Z,,,,,,,,,,NaN,,,,,,,,low,low,,,,,,false,,,,false,1016832.599999994,1016832.299999997,,1016832.200000003,,1016644.583,4,500,,
sequence,flow.Sequence,10_31,2023-11-15T17:56:25.094Z,,,,,,,,,,5437.686999997008,completion,,,,,,,low,low,,,,,,false,,,,false,1016832.700000003,1016832.299999997,1011377.901,1011591.3999999911,1011394.613,1016644.583,4,500,,
trial,html.Screen,10_32_0,2023-11-15T17:56:32.171Z,,,,1,0.0057914759495055,-0.018500200317654,,true,hl,7265.316999991075,response,0.6714344890480403,0.8240124332440291,-0.9180464782488535,-1.1317411618506656,0.8881451740296148,-1.0691336602812136,high,low,,ISIC_0058723.JPG,9,ISIC_3691320.JPG,46,false,hl,keypress(j),0,false,1023910,1023909.8999999911,1016628.032,1016832.8999999911,1016644.583,1023727.942,4,500,33,
break,html.Screen,10_32_1,2023-11-15T17:56:32.171Z,,,,,,,,,,NaN,,,,,,,,high,low,,,,,,false,,,,false,1023910.3999999911,1023910.299999997,,1023910.200000003,,1023727.942,4,500,,
break_continue,html.Screen,10_32_2,2023-11-15T17:56:32.172Z,,,,,,,,,,NaN,,,,,,,,high,low,,,,,,false,,,,false,1023910.599999994,1023910.599999994,,1023910.5,,1023727.942,4,500,,
sequence,flow.Sequence,10_32,2023-11-15T17:56:32.172Z,,,,,,,,,,7266.016999994055,completion,,,,,,,high,low,,,,,,false,,,,false,1023910.700000003,1023910.599999994,1016628.032,1016832.799999997,1016644.583,1023727.942,4,500,,
trial,html.Screen,10_33_0,2023-11-15T17:56:41.987Z,,,,1,0.0496743860812164,0.0010487105450318,,false,hl,9998.157999994,response,0.8620516892494489,0.8240124332440291,-0.9180464782488535,-1.1108509340502866,0.8881451740296148,-1.0691336602812136,high,low,,ISIC_9312264.JPG,9,ISIC_5557806.JPG,46,false,hh,keypress(i),0,false,1033726.200000003,1033726.099999994,1023711.401,1023910.799999997,1023727.942,1033544.65,4,500,34,
break,html.Screen,10_33_1,2023-11-15T17:56:41.988Z,,,,,,,,,,NaN,,,,,,,,high,low,,,,,,false,,,,false,1033726.599999994,1033726.5,,1033726.3999999911,,1033544.65,4,500,,
break_continue,html.Screen,10_33_2,2023-11-15T17:56:41.988Z,,,,,,,,,,NaN,,,,,,,,high,low,,,,,,false,,,,false,1033726.700000003,1033726.700000003,,1033726.599999994,,1033544.65,4,500,,
sequence,flow.Sequence,10_33,2023-11-15T17:56:41.988Z,,,,,,,,,,9998.758000002941,completion,,,,,,,high,low,,,,,,false,,,,false,1033726.799999997,1033726.700000003,1023711.401,1023910.700000003,1023727.942,1033544.65,4,500,,
trial,html.Screen,10_34_0,2023-11-15T17:56:48.931Z,,,,1,0.0060918352854008,-0.029032683404407,,false,ll,7125.349999999977,response,-1.0064329161780483,0.8240124332440291,-0.9180464782488535,-1.0631481857644678,0.8881451740296148,-1.0691336602812136,low,low,,ISIC_8436194.JPG,9,ISIC_0033137.JPG,106,false,lh,keypress(e),0,false,1040670.099999994,1040670,1033528.004,1033726.8999999911,1033544.65,1040478.015,4,500,35,
break,html.Screen,10_34_1,2023-11-15T17:56:48.932Z,,,,,,,,,,NaN,,,,,,,,low,low,,,,,,false,,,,false,1040670.5,1040670.299999997,,1040670.200000003,,1040478.015,4,500,,
break_continue,html.Screen,10_34_2,2023-11-15T17:56:48.932Z,,,,,,,,,,NaN,,,,,,,,low,low,,,,,,false,,,,false,1040670.599999994,1040670.599999994,,1040670.5,,1040478.015,4,500,,
sequence,flow.Sequence,10_34,2023-11-15T17:56:48.932Z,,,,,,,,,,7125.949999994016,completion,,,,,,,low,low,,,,,,false,,,,false,1040670.799999997,1040670.599999994,1033528.004,1033726.799999997,1033544.65,1040478.015,4,500,,
trial,html.Screen,10_35_0,2023-11-15T17:56:53.563Z,,,,1,-0.0051046740562181,0.0178832721027728,,true,hl,4824.185000002966,response,0.7705174182595537,0.8240124332440291,-0.9180464782488535,-1.085710894474977,0.8881451740296148,-1.0691336602812136,high,low,,ISIC_9545819.JPG,9,ISIC_0013644.JPG,46,false,hl,keypress(j),0,false,1045302.299999997,1045302.200000003,1040461.194,1040670.799999997,1040478.015,1045111.331,4,500,36,
break,html.Screen,10_35_1,2023-11-15T17:56:53.564Z,,,,,,,,,,NaN,,,,,,,,high,low,,,,,,false,,,,false,1045302.799999997,1045302.700000003,,1045302.5,,1045111.331,4,500,,
break_continue,html.Screen,10_35_2,2023-11-15T17:56:53.564Z,,,,,,,,,,NaN,,,,,,,,high,low,,,,,,false,,,,false,1045303,1045302.8999999911,,1045302.799999997,,1045111.331,4,500,,
sequence,flow.Sequence,10_35,2023-11-15T17:56:53.564Z,,,,,,,,,,4824.884999991045,completion,,,,,,,high,low,,,,,,false,,,,false,1045303.099999994,1045302.8999999911,1040461.194,1040670.799999997,1040478.015,1045111.331,4,500,,
trial,html.Screen,10_36_0,2023-11-15T17:56:59.171Z,,,,1,0.0040788697657958,0.0696367106527537,,false,hl,5798.668999999994,response,0.6286548029530173,0.8240124332440291,-0.9180464782488535,-0.9025935080849524,0.8881451740296148,-1.0691336602812136,high,low,,ISIC_0066882.JPG,10,ISIC_5545874.JPG,46,false,lh,keypress(e),0,false,1050910.200000003,1050910,1045094.578,1045303.200000003,1045111.331,1050728.012,4,500,37,
break,html.Screen,10_36_1,2023-11-15T17:56:59.172Z,,,,,,,,,,NaN,,,,,,,,high,low,,,,,,false,,,,false,1050910.599999994,1050910.5,,1050910.299999997,,1050728.012,4,500,,
break_continue,html.Screen,10_36_2,2023-11-15T17:56:59.172Z,,,,,,,,,,NaN,,,,,,,,high,low,,,,,,false,,,,false,1050910.799999997,1050910.700000003,,1050910.599999994,,1050728.012,4,500,,
sequence,flow.Sequence,10_36,2023-11-15T17:56:59.172Z,,,,,,,,,,5799.369000002975,completion,,,,,,,high,low,,,,,,false,,,,false,1050910.899999991,1050910.700000003,1045094.578,1045303.200000003,1045111.331,1050728.012,4,500,,
trial,html.Screen,10_37_0,2023-11-15T17:57:05.628Z,,,,1,-0.0207120852539861,-0.0589023744433183,,true,hh,6638.688000002876,response,0.9937263454339066,0.8240124332440291,-0.9180464782488535,0.7696109085687102,0.8881451740296148,-1.0691336602812136,high,high,,ISIC_7973601.JPG,10,ISIC_1693572.JPG,211,false,hh,keypress(i),0,false,1057366.899999991,1057366.700000003,1050711.429,1050911,1050728.012,1057178.01,4,500,38,
break,html.Screen,10_37_1,2023-11-15T17:57:05.629Z,,,,,,,,,,NaN,,,,,,,,high,high,,,,,,false,,,,false,1057367.399999991,1057367.299999997,,1057367.099999994,,1057178.01,4,500,,
break_continue,html.Screen,10_37_2,2023-11-15T17:57:05.629Z,,,,,,,,,,NaN,,,,,,,,high,high,,,,,,false,,,,false,1057367.899999991,1057367.799999997,,1057367.599999994,,1057178.01,4,500,,
sequence,flow.Sequence,10_37,2023-11-15T17:57:05.629Z,,,,,,,,,,6639.7879999969155,completion,,,,,,,high,high,,,,,,false,,,,false,1057368,1057367.799999997,1050711.429,1050911,1050728.012,1057178.01,4,500,,
