sender,sender_type,sender_id,timestamp,meta,,age,blockNo,c1,c2,condition,correct,correctResponse,duration,ended_on,f1,f1_high,f1_low,f2,f2_high,f2_low,feature_level1,feature_level2,gender,img_left,img_reveal,img_right,n_target_images,practice,response,response_action,selection_duration,staircase,time_commit,time_end,time_render,time_run,time_show,time_switch,total_blocks,total_trials,trialNo,url
informed_consent,html.Screen,0,2023-11-15T21:17:20.436Z,"{""labjs_version"":""20.2.4"",""labjs_build"":{""flavor"":""development"",""commit"":""f5b4a49f956347addd546a832a3327688c2c0fef""},""location"":""https://labjs.felixhenninger.com/api/labjs_preview/index.html"",""userAgent"":""Mozilla/5.0 (Windows NT 10.0; Win64; x64) AppleWebKit/537.36 (KHTML, like Gecko) Chrome/119.0.0.0 Safari/537.36"",""platform"":""Win32"",""language"":""en-US"",""locale"":""en-US"",""timeZone"":""America/Chicago"",""timezoneOffset"":360,""screen_width"":1920,""screen_height"":1080,""scroll_width"":945,""scroll_height"":918,""window_innerWidth"":945,""window_innerHeight"":966,""devicePixelRatio"":1}",,,,,,,,,8900.317,response,,,,,,,,,,,,,,,consent,click button,,,9565.10000000894,9556.5,639.522,844,656.183,9356.099,,,,{}
Demography form,html.Form,1,2023-11-15T21:17:30.981Z,,,18,,,,,,,10753.20099999702,form submission,,,,,,,,,female,,,,,,,,,,20109.5,20109.29999999702,9339.452,9565.29999999702,9356.099,19889.446,,,,
Welcome,html.Screen,2,2023-11-15T21:18:52.300Z,,,,,,,"[""bor"",""col""]",,,81538.85399999702,response,,,,,,,,,,,,,,,continue,click button,,,101428.79999999702,101428.29999999702,19873.002,20109.70000000298,19889.446,101239.523,,,,
demo_instructions,html.Screen,3,2023-11-15T21:19:49.020Z,,,,,,,,,,56908.977,response,,,,,,,,,,,,,,,continue,click button,,,158149,158148.5,101222.896,101428.90000000596,101239.523,157939.618,,,,
trial,html.Screen,4_0_0,2023-11-15T21:20:03.681Z,,,,0,0.8500530224490773,-1.0893360711742854,,true,lh,14870.382000000012,response,-0.789083277544982,0.8999999999999997,-0.8999999999999997,0.7172067273002093,0.8999999999999997,-0.8999999999999997,low,high,,ISIC_2998367.JPG,,ISIC_0011030.JPG,29,true,lh,keypress(e),100,false,172810.20000000298,172810,157923.184,158149.20000000298,157939.618,172622.984,1,16,1,
sequence,flow.Sequence,4_0,2023-11-15T21:20:03.681Z,,,,,,,,,,14870.382000000012,completion,,,,,,,low,high,,,,,,true,,,,false,172810.40000000596,172810,157923.184,158149.10000000894,157939.618,172622.984,1,16,,
trial,html.Screen,4_1_0,2023-11-15T21:20:12.709Z,,,,0,0.9244148283103414,-0.9712966348713286,,true,lh,9214.716000002983,response,-0.8034318937720549,0.8999999999999997,-0.8999999999999997,1.0024917298189338,0.8999999999999997,-0.8999999999999997,low,high,,ISIC_7927525.JPG,,ISIC_0032766.JPG,29,true,lh,keypress(e),100,false,181837.90000000596,181837.70000000298,172606.334,172810.5,172622.984,181639.699,1,16,2,
sequence,flow.Sequence,4_1,2023-11-15T21:20:12.709Z,,,,,,,,,,9214.716000002983,completion,,,,,,,low,high,,,,,,true,,,,false,181838.29999999702,181837.70000000298,172606.334,172810.40000000596,172622.984,181639.699,1,16,,
trial,html.Screen,4_2_0,2023-11-15T21:20:17.755Z,,,,0,0.7236002097394486,-0.7895205994309619,,true,lh,5243.701000005967,response,-0.989300717252516,0.8999999999999997,-0.8999999999999997,0.7908280206937478,0.8999999999999997,-0.8999999999999997,low,high,,ISIC_0413563.JPG,,ISIC_6416533.JPG,29,true,lh,keypress(e),100,false,186883.70000000298,186883.40000000596,181622.977,181838.40000000596,181639.699,186689.688,1,16,3,
sequence,flow.Sequence,4_2,2023-11-15T21:20:17.755Z,,,,,,,,,,5243.701000005967,completion,,,,,,,low,high,,,,,,true,,,,false,186884.20000000298,186883.40000000596,181622.977,181838.40000000596,181639.699,186689.688,1,16,,
trial,html.Screen,4_3_0,2023-11-15T21:20:21.137Z,,,,0,0.9111352818043872,-0.7517932332411794,,true,lh,3576.0120000029856,response,-1.0453124399868816,0.8999999999999997,-0.8999999999999997,0.8986747280184286,0.8999999999999997,-0.8999999999999997,low,high,,ISIC_3346045.JPG,,ISIC_0013967.JPG,29,true,lh,keypress(e),100,false,190265.90000000596,190265.70000000298,186673.025,186884.40000000596,186689.688,190072.987,1,16,4,
sequence,flow.Sequence,4_3,2023-11-15T21:20:21.137Z,,,,,,,,,,3576.0120000029856,completion,,,,,,,low,high,,,,,,true,,,,false,190266.29999999702,190265.70000000298,186673.025,186884.29999999702,186689.688,190072.987,1,16,,
trial,html.Screen,4_4_0,2023-11-15T21:20:30.182Z,,,,0,1.017768542725066,0.9045368314063942,,true,ll,9237.613000008947,response,-0.8596006200412799,0.8999999999999997,-0.8999999999999997,-0.9571430175944712,0.8999999999999997,-0.8999999999999997,low,low,,ISIC_0031752.JPG,,ISIC_0663824.JPG,169,true,ll,keypress(f),100,false,199310.79999999702,199310.60000000894,190056.442,190266.40000000596,190072.987,199123.024,1,16,5,
sequence,flow.Sequence,4_4,2023-11-15T21:20:30.182Z,,,,,,,,,,9237.613000008947,completion,,,,,,,low,low,,,,,,true,,,,false,199311.10000000894,199310.60000000894,190056.442,190266.40000000596,190072.987,199123.024,1,16,,
trial,html.Screen,4_5_0,2023-11-15T21:20:35.803Z,,,,0,0.8351262413411394,0.7640141718413127,,true,ll,5808.775999997015,response,-0.7800797396940995,0.8999999999999997,-0.8999999999999997,-0.973676161739592,0.8999999999999997,-0.8999999999999997,low,low,,ISIC_0029363.JPG,,ISIC_0641173.JPG,169,true,ll,keypress(f),100,false,204932.10000000894,204931.79999999702,199106.492,199311.29999999702,199123.024,204739.722,1,16,6,
sequence,flow.Sequence,4_5,2023-11-15T21:20:35.803Z,,,,,,,,,,5808.775999997015,completion,,,,,,,low,low,,,,,,true,,,,false,204932.40000000596,204931.79999999702,199106.492,199311.29999999702,199123.024,204739.722,1,16,,
trial,html.Screen,4_6_0,2023-11-15T21:20:44.530Z,,,,0,1.0879680624915455,0.9819300422707804,,true,ll,8918.678000005952,response,-0.8639662056285013,0.8999999999999997,-0.8999999999999997,-0.9092203211946492,0.8999999999999997,-0.8999999999999997,low,low,,ISIC_0011369.JPG,,ISIC_2634356.JPG,169,true,ll,keypress(f),100,false,213658.5,213658.40000000596,204723.038,204932.60000000894,204739.722,213473.133,1,16,7,
sequence,flow.Sequence,4_6,2023-11-15T21:20:44.530Z,,,,,,,,,,8918.678000005952,completion,,,,,,,low,low,,,,,,true,,,,false,213658.70000000298,213658.40000000596,204723.038,204932.5,204739.722,213473.133,1,16,,
trial,html.Screen,4_7_0,2023-11-15T21:20:48.999Z,,,,0,0.9837331918354912,0.9130384672883698,,true,ll,4653.567000002979,response,-0.9345244335403022,0.8999999999999997,-0.8999999999999997,-0.9139577511829252,0.8999999999999997,-0.8999999999999997,low,low,,ISIC_0001108.JPG,,ISIC_5783440.JPG,169,true,ll,keypress(f),100,false,218126.90000000596,218126.70000000298,213456.588,213658.79999999702,213473.133,217939.801,1,16,8,
sequence,flow.Sequence,4_7,2023-11-15T21:20:48.999Z,,,,,,,,,,4653.567000002979,completion,,,,,,,low,low,,,,,,true,,,,false,218127.29999999702,218126.70000000298,213456.588,213658.79999999702,213473.133,217939.801,1,16,,
trial,html.Screen,4_8_0,2023-11-15T21:21:01.917Z,,,,0,-0.7088606387153258,0.948610930521224,,true,hl,13105.099000005954,response,0.7438008784971919,0.8999999999999997,-0.8999999999999997,-0.7701607600068142,0.8999999999999997,-0.8999999999999997,high,low,,ISIC_0026293.JPG,,ISIC_8493108.JPG,43,true,hl,keypress(j),100,false,231045,231044.90000000596,217923.227,218127.40000000596,217939.801,230856.571,1,16,9,
sequence,flow.Sequence,4_8,2023-11-15T21:21:01.917Z,,,,,,,,,,13105.099000005954,completion,,,,,,,high,low,,,,,,true,,,,false,231045.20000000298,231044.90000000596,217923.227,218127.40000000596,217939.801,230856.571,1,16,,
trial,html.Screen,4_9_0,2023-11-15T21:21:07.601Z,,,,0,-0.8075741539776473,0.7326891894107508,,true,hl,5872.529000008944,response,0.7271544837339796,0.8999999999999997,-0.8999999999999997,-0.9127368834814228,0.8999999999999997,-0.8999999999999997,high,low,,ISIC_3428523.JPG,,ISIC_4129321.JPG,43,true,hl,keypress(j),100,false,236729.29999999702,236729.10000000894,230839.918,231045.29999999702,230856.571,236539.938,1,16,10,
sequence,flow.Sequence,4_9,2023-11-15T21:21:07.601Z,,,,,,,,,,5872.529000008944,completion,,,,,,,high,low,,,,,,true,,,,false,236729.5,236729.10000000894,230839.918,231045.29999999702,230856.571,236539.938,1,16,,
trial,html.Screen,4_10_0,2023-11-15T21:21:14.549Z,,,,0,-1.058275612142778,0.7824898568540655,,true,hl,7137.562000000005,response,0.9138670886161264,0.8999999999999997,-0.8999999999999997,-0.8414121478342018,0.8999999999999997,-0.8999999999999997,high,low,,ISIC_4906385.JPG,,ISIC_6709052.JPG,43,true,hl,keypress(j),100,false,243677.79999999702,243677.5,236523.324,236729.5,236539.938,243489.759,1,16,11,
sequence,flow.Sequence,4_10,2023-11-15T21:21:14.550Z,,,,,,,,,,7137.562000000005,completion,,,,,,,high,low,,,,,,true,,,,false,243678,243677.5,236523.324,236729.5,236539.938,243489.759,1,16,,
trial,html.Screen,4_11_0,2023-11-15T21:21:18.428Z,,,,0,-0.8828738626295417,0.8288177599439582,,true,hl,4066.241000000009,response,0.7552468233268477,0.8999999999999997,-0.8999999999999997,-0.71846037114465,0.8999999999999997,-0.8999999999999997,high,low,,ISIC_0056041.JPG,,ISIC_2354070.JPG,43,true,hl,keypress(j),100,false,247556.20000000298,247556,243473.269,243678.10000000894,243489.759,247373.075,1,16,12,
sequence,flow.Sequence,4_11,2023-11-15T21:21:18.428Z,,,,,,,,,,4066.241000000009,completion,,,,,,,high,low,,,,,,true,,,,false,247556.29999999702,247556,243473.269,243678.10000000894,243489.759,247373.075,1,16,,
trial,html.Screen,4_12_0,2023-11-15T21:21:31.696Z,,,,0,-0.7065976395679049,-1.0943622551904992,,true,hh,13451.525000008929,response,0.9486555750998196,0.8999999999999997,-0.8999999999999997,0.7476193313791517,0.8999999999999997,-0.8999999999999997,high,high,,ISIC_6489993.JPG,,ISIC_0029744.JPG,184,true,hh,keypress(i),100,false,260824.60000000894,260824.60000000894,247356.422,247556.40000000596,247373.075,260639.871,1,16,13,
sequence,flow.Sequence,4_12,2023-11-15T21:21:31.696Z,,,,,,,,,,13451.525000008929,completion,,,,,,,high,high,,,,,,true,,,,false,260824.79999999702,260824.60000000894,247356.422,247556.40000000596,247373.075,260639.871,1,16,,
trial,html.Screen,4_13_0,2023-11-15T21:21:46.484Z,,,,0,-0.9802565668865412,-0.7107803735101691,,true,hh,14972.428999997006,response,0.8380649167521746,0.8999999999999997,-0.8999999999999997,0.7135701709445428,0.8999999999999997,-0.8999999999999997,high,high,,ISIC_0024683.JPG,,ISIC_0010061.JPG,184,true,hh,keypress(i),100,false,275612.5,275612.299999997,260623.314,260824.79999999702,260639.871,275423.278,1,16,14,
sequence,flow.Sequence,4_13,2023-11-15T21:21:46.484Z,,,,,,,,,,14972.428999997006,completion,,,,,,,high,high,,,,,,true,,,,false,275612.60000000894,275612.299999997,260623.314,260824.79999999702,260639.871,275423.278,1,16,,
trial,html.Screen,4_14_0,2023-11-15T21:21:51.385Z,,,,0,-0.7280191393710038,-0.8282491311530128,,true,hh,5089.8220000089495,response,0.7942237284714229,0.8999999999999997,-0.8999999999999997,0.868184396474685,0.8999999999999997,-0.8999999999999997,high,high,,ISIC_8374889.JPG,,ISIC_0026738.JPG,184,true,hh,keypress(i),100,false,280513.299999997,280513.10000000894,275406.598,275612.700000003,275423.278,280323.129,1,16,15,
sequence,flow.Sequence,4_14,2023-11-15T21:21:51.385Z,,,,,,,,,,5089.8220000089495,completion,,,,,,,high,high,,,,,,true,,,,false,280513.5,280513.10000000894,275406.598,275612.700000003,275423.278,280323.129,1,16,,
trial,html.Screen,4_15_0,2023-11-15T21:21:54.765Z,,,,0,-0.8071149391753215,-0.9485840589720004,,true,hh,3570.271000005945,response,0.8735012360137532,0.8999999999999997,-0.8999999999999997,1.0448182576694087,0.8999999999999997,-0.8999999999999997,high,high,,ISIC_2784686.JPG,,ISIC_0010267.JPG,184,true,hh,keypress(i),100,false,283893.60000000894,283893.40000000596,280306.607,280513.60000000894,280323.129,283706.442,1,16,16,
sequence,flow.Sequence,4_15,2023-11-15T21:21:54.766Z,,,,,,,,,,3570.271000005945,completion,,,,,,,high,high,,,,,,true,,,,false,283893.799999997,283893.40000000596,280306.607,280513.5,280323.129,283706.442,1,16,,
demonstration_loop,flow.Loop,4,2023-11-15T21:21:54.766Z,,,,,,,,,,125953.78200000597,completion,,,,,,,,,,,,,,true,,,,false,283894,283893.40000000596,157923.184,158149.10000000894,157939.618,283706.442,1,16,,
practice_instructions,html.Screen,5,2023-11-15T21:22:14.724Z,,,,,,,,,,20138.05800000002,response,,,,,,,,,,,,,,,continue,click button,,,303852.10000000894,303844.5,283689.873,283894.200000003,283706.442,303639.815,,,,
trial,html.Screen,6_0_0,2023-11-15T21:22:24.485Z,,,,1,0.9179483069507334,0.8157414137646586,,true,ll,9962.285000008938,response,-0.7653567704423454,0.8999999999999997,-0.8999999999999997,-1.0008177728634988,0.8999999999999997,-0.8999999999999997,low,low,,ISIC_0032892.JPG,,ISIC_0013898.JPG,169,true,ll,keypress(f),0,false,313613.60000000894,313602.10000000894,303623.156,303852.200000003,303639.815,313406.503,1,40,1,
sequence,flow.Sequence,6_0,2023-11-15T21:22:24.486Z,,,,,,,,,,9962.285000008938,completion,,,,,,,low,low,,,,,,true,,,,false,313613.700000003,313602.10000000894,303623.156,303852.200000003,303639.815,313406.503,1,40,,
trial,html.Screen,6_1_0,2023-11-15T21:22:32.029Z,,,,1,0.9244148283103414,-0.9712966348713286,,true,lh,7750.397000005934,response,-0.7882758084023446,0.8999999999999997,-0.8999999999999997,0.8296405881378283,0.8999999999999997,-0.8999999999999997,low,high,,ISIC_7927525.JPG,,ISIC_0065882.JPG,29,true,lh,keypress(e),0,false,321157.10000000894,321156.90000000596,313389.853,313613.799999997,313406.503,320956.519,1,40,2,
sequence,flow.Sequence,6_1,2023-11-15T21:22:32.029Z,,,,,,,,,,7750.397000005934,completion,,,,,,,low,high,,,,,,true,,,,false,321157.200000003,321156.90000000596,313389.853,313613.799999997,313406.503,320956.519,1,40,,
trial,html.Screen,6_2_0,2023-11-15T21:22:42.847Z,,,,1,-1.0369885917487718,0.8486937878412699,,,,10816.699000000022,timeout,0.9544693251394116,0.8999999999999997,-0.8999999999999997,-1.0727539917203766,0.8999999999999997,-0.8999999999999997,high,low,,ISIC_6917681.JPG,,ISIC_0055147.JPG,43,true,,,0,false,331975.5,331975.299999997,320939.621,321157.200000003,320956.519,331773.218,1,40,3,
sequence,flow.Sequence,6_2,2023-11-15T21:22:42.847Z,,,,,,,,,,11018.780999997049,completion,,,,,,,high,low,,,,,,true,,,,false,331975.700000003,331975.299999997,320939.621,321157.200000003,320956.519,331773.218,1,40,,
trial,html.Screen,6_3_0,2023-11-15T21:22:43.958Z,,,,1,0.7016609136175869,-0.8694041951927121,,false,lh,1312.2820000000065,response,-1.0453124399868816,0.8999999999999997,-0.8999999999999997,0.8986747280184286,0.8999999999999997,-0.8999999999999997,low,high,,ISIC_0897876.JPG,,ISIC_0013967.JPG,29,true,hl,keypress(j),0,false,333085.700000003,333085.5,331756.607,331975.799999997,331773.218,332873.212,1,40,4,
sequence,flow.Sequence,6_3,2023-11-15T21:22:43.958Z,,,,,,,,,,1312.2820000000065,completion,,,,,,,low,high,,,,,,true,,,,false,333085.90000000596,333085.5,331756.607,331975.799999997,331773.218,332873.212,1,40,,
trial,html.Screen,6_4_0,2023-11-15T21:22:53.309Z,,,,1,0.7872534775441857,-0.8441107693833454,,true,lh,9563.788,response,-0.8926515927689261,0.8999999999999997,-0.8999999999999997,0.7935960767768927,0.8999999999999997,-0.8999999999999997,low,high,,ISIC_0028788.JPG,,ISIC_8901371.JPG,29,true,lh,keypress(e),0,false,342437.10000000894,342437,332856.743,333086,332873.212,342241.111,1,40,5,
sequence,flow.Sequence,6_4,2023-11-15T21:22:53.309Z,,,,,,,,,,9563.788,completion,,,,,,,low,high,,,,,,true,,,,false,342437.299999997,342437,332856.743,333086,332873.212,342241.111,1,40,,
trial,html.Screen,6_5_0,2023-11-15T21:23:01.341Z,,,,1,0.7236002097394486,-0.7895205994309619,,true,lh,8228.188999997044,response,-0.8513427412482127,0.8999999999999997,-0.8999999999999997,0.9295303568095064,0.8999999999999997,-0.8999999999999997,low,high,,ISIC_0413563.JPG,,ISIC_0034164.JPG,29,true,lh,keypress(e),0,false,350469.40000000596,350469.299999997,342206.455,342437.299999997,342241.111,350256.549,1,40,6,
sequence,flow.Sequence,6_5,2023-11-15T21:23:01.341Z,,,,,,,,,,8228.188999997044,completion,,,,,,,low,high,,,,,,true,,,,false,350469.60000000894,350469.299999997,342206.455,342437.299999997,342241.111,350256.549,1,40,,
trial,html.Screen,6_6_0,2023-11-15T21:23:08.445Z,,,,1,0.7059460714049748,0.7603583058377162,,true,ll,7316.151000002981,response,-0.7800797396940995,0.8999999999999997,-0.8999999999999997,-0.973676161739592,0.8999999999999997,-0.8999999999999997,low,low,,ISIC_0066506.JPG,,ISIC_0641173.JPG,169,true,ll,keypress(f),0,false,357572.799999997,357572.700000003,350239.685,350469.60000000894,350256.549,357373.238,1,40,7,
sequence,flow.Sequence,6_6,2023-11-15T21:23:08.445Z,,,,,,,,,,7316.151000002981,completion,,,,,,,low,low,,,,,,true,,,,false,357572.799999997,357572.700000003,350239.685,350469.60000000894,350256.549,357373.238,1,40,,
trial,html.Screen,6_7_0,2023-11-15T21:23:15.645Z,,,,1,-0.989300717252516,0.7908280206937478,,true,hl,7399.662000005948,response,0.801722142776163,0.8999999999999997,-0.8999999999999997,-0.7020073261471239,0.8999999999999997,-0.8999999999999997,high,low,,ISIC_6416533.JPG,,ISIC_3236964.JPG,43,true,hl,keypress(j),0,false,364773.10000000894,364772.90000000596,357356.392,357572.90000000596,357373.238,364573.246,1,40,8,
sequence,flow.Sequence,6_7,2023-11-15T21:23:15.645Z,,,,,,,,,,7399.662000005948,completion,,,,,,,high,low,,,,,,true,,,,false,364773.299999997,364772.90000000596,357356.392,357572.90000000596,357373.238,364573.246,1,40,,
trial,html.Screen,6_8_0,2023-11-15T21:23:19.533Z,,,,1,-0.7363318058631337,-0.8050194498162477,,true,hh,4087.4540000029956,response,0.9179483069507334,0.8999999999999997,-0.8999999999999997,0.8157414137646586,0.8999999999999997,-0.8999999999999997,high,high,,ISIC_3394080.JPG,,ISIC_0032892.JPG,184,true,hh,keypress(i),0,false,368660.90000000596,368660.700000003,364556.573,364773.40000000596,364573.246,368456.548,1,40,9,
sequence,flow.Sequence,6_8,2023-11-15T21:23:19.533Z,,,,,,,,,,4087.4540000029956,completion,,,,,,,high,high,,,,,,true,,,,false,368661,368660.700000003,364556.573,364773.40000000596,364573.246,368456.548,1,40,,
trial,html.Screen,6_9_0,2023-11-15T21:23:29.125Z,,,,1,-0.7745726760243283,-0.7707329634201495,,true,hh,9796.65200000297,response,0.9354612477528912,0.8999999999999997,-0.8999999999999997,0.7310902828236168,0.8999999999999997,-0.8999999999999997,high,high,,ISIC_0027088.JPG,,ISIC_0046900.JPG,184,true,hh,keypress(i),0,false,378253.299999997,378253.200000003,368439.899,368661,368456.548,378039.918,1,40,10,
sequence,flow.Sequence,6_9,2023-11-15T21:23:29.125Z,,,,,,,,,,9796.65200000297,completion,,,,,,,high,high,,,,,,true,,,,false,378253.40000000596,378253.200000003,368439.899,368661,368456.548,378039.918,1,40,,
trial,html.Screen,6_10_0,2023-11-15T21:23:38.469Z,,,,1,0.9141489890697224,0.8021439579962121,,true,ll,9557.282000002975,response,-0.8583713655302294,0.8999999999999997,-0.8999999999999997,-0.865522810053245,0.8999999999999997,-0.8999999999999997,low,low,,ISIC_0025491.JPG,,ISIC_4320200.JPG,169,true,ll,keypress(f),0,false,387597.299999997,387597.200000003,378023.015,378253.40000000596,378039.918,387389.921,1,40,11,
sequence,flow.Sequence,6_10,2023-11-15T21:23:38.469Z,,,,,,,,,,9557.282000002975,completion,,,,,,,low,low,,,,,,true,,,,false,387597.5,387597.200000003,378023.015,378253.40000000596,378039.918,387389.921,1,40,,
trial,html.Screen,6_11_0,2023-11-15T21:23:46.110Z,,,,1,-0.9876902672925608,-0.7493151990739595,,true,hh,7847.878999997047,response,0.7497331641141682,0.8999999999999997,-0.8999999999999997,0.9543531879821028,0.8999999999999997,-0.8999999999999997,high,high,,ISIC_2259190.JPG,,ISIC_0067801.JPG,184,true,hh,keypress(i),0,false,395238,395237.799999997,387373.071,387597.60000000894,387389.921,395040.104,1,40,12,
sequence,flow.Sequence,6_11,2023-11-15T21:23:46.110Z,,,,,,,,,,7847.878999997047,completion,,,,,,,high,high,,,,,,true,,,,false,395238.299999997,395237.799999997,387373.071,387597.60000000894,387389.921,395040.104,1,40,,
trial,html.Screen,6_12_0,2023-11-15T21:23:50.525Z,,,,1,-0.8071149391753215,-0.9485840589720004,,true,hh,4613.096000002988,response,0.871661188387271,0.8999999999999997,-0.8999999999999997,0.9067170027344016,0.8999999999999997,-0.8999999999999997,high,high,,ISIC_2784686.JPG,,ISIC_0026586.JPG,184,true,hh,keypress(i),0,false,399653.40000000596,399653.200000003,395023.004,395238.5,395040.104,399439.93,1,40,13,
sequence,flow.Sequence,6_12,2023-11-15T21:23:50.526Z,,,,,,,,,,4613.096000002988,completion,,,,,,,high,high,,,,,,true,,,,false,399653.60000000894,399653.200000003,395023.004,395238.40000000596,395040.104,399439.93,1,40,,
trial,html.Screen,6_13_0,2023-11-15T21:23:55.902Z,,,,1,-0.8830264383952469,0.8635562538060516,,true,hl,5589.970000005967,response,1.004142980655507,0.8999999999999997,-0.8999999999999997,-0.7749773174967559,0.8999999999999997,-0.8999999999999997,high,low,,ISIC_0032258.JPG,,ISIC_3936223.JPG,43,true,hl,keypress(j),0,false,405030.10000000894,405029.90000000596,399423.266,399653.700000003,399439.93,404823.309,1,40,14,
sequence,flow.Sequence,6_13,2023-11-15T21:23:55.903Z,,,,,,,,,,5589.970000005967,completion,,,,,,,high,low,,,,,,true,,,,false,405030.5,405029.90000000596,399423.266,399653.700000003,399439.93,404823.309,1,40,,
trial,html.Screen,6_14_0,2023-11-15T21:24:02.470Z,,,,1,-0.7420119067987634,-0.9245836900688724,,true,hh,6774.291000008932,response,0.9602936946729488,0.8999999999999997,-0.8999999999999997,0.747034716272411,0.8999999999999997,-0.8999999999999997,high,high,,ISIC_4130167.JPG,,ISIC_0205127.JPG,184,true,hh,keypress(i),0,false,411597.700000003,411597.60000000894,404806.457,405030.60000000894,404823.309,411389.999,1,40,15,
sequence,flow.Sequence,6_14,2023-11-15T21:24:02.470Z,,,,,,,,,,6774.291000008932,completion,,,,,,,high,high,,,,,,true,,,,false,411597.90000000596,411597.60000000894,404806.457,405030.60000000894,404823.309,411389.999,1,40,,
trial,html.Screen,6_15_0,2023-11-15T21:24:13.244Z,,,,1,-0.8926515927689261,0.7935960767768927,,,,10783.515000000014,timeout,0.8067627078956657,0.8999999999999997,-0.8999999999999997,-0.7115865750196155,0.8999999999999997,-0.8999999999999997,high,low,,ISIC_8901371.JPG,,ISIC_0010014.JPG,43,true,,,0,false,422371.5,422371.40000000596,411373.162,411598.10000000894,411389.999,422173.514,1,40,16,
sequence,flow.Sequence,6_15,2023-11-15T21:24:13.244Z,,,,,,,,,,10981.40100000595,completion,,,,,,,high,low,,,,,,true,,,,false,422371.700000003,422371.40000000596,411373.162,411598,411389.999,422173.514,1,40,,
trial,html.Screen,6_16_0,2023-11-15T21:24:22.229Z,,,,1,0.7305475296009624,-0.7442779237098178,,true,lh,9183.485999999975,response,-0.8954803463300026,0.8999999999999997,-0.8999999999999997,0.7071819047913821,0.8999999999999997,-0.8999999999999997,low,high,,ISIC_7266604.JPG,,ISIC_0033071.JPG,29,true,lh,keypress(e),0,false,431357.10000000894,431357,422156.766,422371.700000003,422173.514,431156.72,1,40,17,
sequence,flow.Sequence,6_16,2023-11-15T21:24:22.229Z,,,,,,,,,,9183.485999999975,completion,,,,,,,low,high,,,,,,true,,,,false,431357.299999997,431357,422156.766,422371.700000003,422173.514,431156.72,1,40,,
trial,html.Screen,6_17_0,2023-11-15T21:24:25.990Z,,,,1,0.7856143618373893,-1.0273608829432213,,true,lh,3961.280000000028,response,-0.8954803463300026,0.8999999999999997,-0.8999999999999997,0.7071819047913821,0.8999999999999997,-0.8999999999999997,low,high,,ISIC_9303849.JPG,,ISIC_0033071.JPG,29,true,lh,keypress(e),0,false,435118.299999997,435118,431139.885,431357.299999997,431156.72,434906.698,1,40,18,
sequence,flow.Sequence,6_17,2023-11-15T21:24:25.991Z,,,,,,,,,,3961.280000000028,completion,,,,,,,low,high,,,,,,true,,,,false,435118.90000000596,435118,431139.885,431357.299999997,431156.72,434906.698,1,40,,
trial,html.Screen,6_18_0,2023-11-15T21:24:32.462Z,,,,1,-1.0453124399868816,0.8986747280184286,,true,hl,6682.902000008966,response,0.801722142776163,0.8999999999999997,-0.8999999999999997,-0.7020073261471239,0.8999999999999997,-0.8999999999999997,high,low,,ISIC_0013967.JPG,,ISIC_3236964.JPG,43,true,hl,keypress(j),0,false,441589.799999997,441589.60000000894,434890.087,435119.10000000894,434906.698,441390.098,1,40,19,
sequence,flow.Sequence,6_18,2023-11-15T21:24:32.462Z,,,,,,,,,,6682.902000008966,completion,,,,,,,high,low,,,,,,true,,,,false,441590,441589.60000000894,434890.087,435119,434906.698,441390.098,1,40,,
trial,html.Screen,6_19_0,2023-11-15T21:24:38.637Z,,,,1,0.8303988931124209,0.7584196520116688,,true,ll,6375.201999997022,response,-0.8372379817368715,0.8999999999999997,-0.8999999999999997,-0.8148867547702584,0.8999999999999997,-0.8999999999999997,low,low,,ISIC_0011484.JPG,,ISIC_0024277.JPG,169,true,ll,keypress(f),0,false,447765.40000000596,447765.299999997,441373.125,441590.200000003,441390.098,447556.704,1,40,20,
sequence,flow.Sequence,6_19,2023-11-15T21:24:38.638Z,,,,,,,,,,6375.201999997022,completion,,,,,,,low,low,,,,,,true,,,,false,447765.700000003,447765.299999997,441373.125,441590.10000000894,441390.098,447556.704,1,40,,
trial,html.Screen,6_20_0,2023-11-15T21:24:44.566Z,,,,1,-0.84290786638064,0.7332521189371746,,true,hl,6136.996000002953,response,0.9138670886161264,0.8999999999999997,-0.8999999999999997,-0.8414121478342018,0.8999999999999997,-0.8999999999999997,high,low,,ISIC_4708642.JPG,,ISIC_6709052.JPG,43,true,hl,keypress(j),0,false,453693.90000000596,453693.700000003,447540.068,447765.700000003,447556.704,453490.034,1,40,21,
sequence,flow.Sequence,6_20,2023-11-15T21:24:44.566Z,,,,,,,,,,6136.996000002953,completion,,,,,,,high,low,,,,,,true,,,,false,453694.10000000894,453693.700000003,447540.068,447765.700000003,447556.704,453490.034,1,40,,
trial,html.Screen,6_21_0,2023-11-15T21:24:52.350Z,,,,1,0.8110369560965408,0.7091309063434607,,false,ll,7987.566000008956,response,-0.7280191393710038,0.8999999999999997,-0.8999999999999997,-0.8282491311530128,0.8999999999999997,-0.8999999999999997,low,low,,ISIC_0030901.JPG,,ISIC_8374889.JPG,169,true,hh,keypress(i),0,false,461477.90000000596,461477.60000000894,453473.159,453694.299999997,453490.034,461273.432,1,40,22,
sequence,flow.Sequence,6_21,2023-11-15T21:24:52.350Z,,,,,,,,,,7987.566000008956,completion,,,,,,,low,low,,,,,,true,,,,false,461478.200000003,461477.60000000894,453473.159,453694.299999997,453490.034,461273.432,1,40,,
trial,html.Screen,6_22_0,2023-11-15T21:24:58.717Z,,,,1,0.7856143618373893,-1.0273608829432213,,true,lh,6571.468000005989,response,-1.0329549150636406,0.8999999999999997,-0.8999999999999997,1.01584100839286,0.8999999999999997,-0.8999999999999997,low,high,,ISIC_9303849.JPG,,ISIC_0054670.JPG,29,true,lh,keypress(e),0,false,467845,467844.90000000596,461256.559,461478.40000000596,461273.432,467640.104,1,40,23,
sequence,flow.Sequence,6_22,2023-11-15T21:24:58.717Z,,,,,,,,,,6571.468000005989,completion,,,,,,,low,high,,,,,,true,,,,false,467845.200000003,467844.90000000596,461256.559,461478.40000000596,461273.432,467640.104,1,40,,
trial,html.Screen,6_23_0,2023-11-15T21:25:09.489Z,,,,1,-0.7303022273735517,-0.7676979481938448,,,,10766.638000000035,timeout,1.068995482830036,0.8999999999999997,-0.8999999999999997,1.02189095692261,0.8999999999999997,-0.8999999999999997,high,high,,ISIC_4911407.JPG,,ISIC_0046405.JPG,184,true,,,0,false,478617.299999997,478617.10000000894,467623.212,467845.299999997,467640.104,478406.742,1,40,24,
sequence,flow.Sequence,6_23,2023-11-15T21:25:09.490Z,,,,,,,,,,10976.996000008949,completion,,,,,,,high,high,,,,,,true,,,,false,478617.60000000894,478617.10000000894,467623.212,467845.299999997,467640.104,478406.742,1,40,,
trial,html.Screen,6_24_0,2023-11-15T21:25:13.565Z,,,,1,-0.8719231363109603,0.7704280220140033,,true,hl,4286.158000005933,response,0.8500530224490773,0.8999999999999997,-0.8999999999999997,-1.0893360711742854,0.8999999999999997,-0.8999999999999997,high,low,,ISIC_0029453.JPG,,ISIC_2998367.JPG,43,true,hl,keypress(j),0,false,482692.90000000596,482692.90000000596,478390.181,478617.799999997,478406.742,482490.312,1,40,25,
sequence,flow.Sequence,6_24,2023-11-15T21:25:13.565Z,,,,,,,,,,4286.158000005933,completion,,,,,,,high,low,,,,,,true,,,,false,482693.10000000894,482692.90000000596,478390.181,478617.700000003,478406.742,482490.312,1,40,,
trial,html.Screen,6_25_0,2023-11-15T21:25:20.198Z,,,,1,-0.9653573371180936,0.854766800381037,,true,hl,6835.088000005984,response,1.0116417541846066,0.8999999999999997,-0.8999999999999997,-1.033442916947398,0.8999999999999997,-0.8999999999999997,high,low,,ISIC_9640145.JPG,,ISIC_0031389.JPG,43,true,hl,keypress(j),0,false,489325.5,489325.40000000596,482473.304,482693.200000003,482490.312,489123.448,1,40,26,
sequence,flow.Sequence,6_25,2023-11-15T21:25:20.198Z,,,,,,,,,,6835.088000005984,completion,,,,,,,high,low,,,,,,true,,,,false,489325.799999997,489325.40000000596,482473.304,482693.10000000894,482490.312,489123.448,1,40,,
trial,html.Screen,6_26_0,2023-11-15T21:25:26.629Z,,,,1,-1.0329549150636406,1.01584100839286,,true,hl,6633.452000005986,response,0.7552468233268477,0.8999999999999997,-0.8999999999999997,-0.71846037114465,0.8999999999999997,-0.8999999999999997,high,low,,ISIC_0054670.JPG,,ISIC_2354070.JPG,43,true,hl,keypress(j),0,false,495757,495756.90000000596,489106.616,489325.90000000596,489123.448,495556.806,1,40,27,
sequence,flow.Sequence,6_26,2023-11-15T21:25:26.629Z,,,,,,,,,,6633.452000005986,completion,,,,,,,high,low,,,,,,true,,,,false,495757.10000000894,495756.90000000596,489106.616,489325.90000000596,489123.448,495556.806,1,40,,
trial,html.Screen,6_27_0,2023-11-15T21:25:29.701Z,,,,1,0.7497331641141682,0.9543531879821028,,false,ll,3272.4939999970375,response,-0.7437478502701496,0.8999999999999997,-0.8999999999999997,-0.7199001727136436,0.8999999999999997,-0.8999999999999997,low,low,,ISIC_0067801.JPG,,ISIC_1226882.JPG,169,true,hl,keypress(j),0,false,498829.40000000596,498829.299999997,495539.943,495757.10000000894,495556.806,498623.425,1,40,28,
sequence,flow.Sequence,6_27,2023-11-15T21:25:29.702Z,,,,,,,,,,3272.4939999970375,completion,,,,,,,low,low,,,,,,true,,,,false,498829.60000000894,498829.299999997,495539.943,495757.10000000894,495556.806,498623.425,1,40,,
trial,html.Screen,6_28_0,2023-11-15T21:25:38.389Z,,,,1,0.7662862143930451,1.019400538053967,,true,ll,8893.775000002992,response,-1.085906502329253,0.8999999999999997,-0.8999999999999997,-0.8769314895018409,0.8999999999999997,-0.8999999999999997,low,low,,ISIC_5602826.JPG,,ISIC_2693412.JPG,169,true,ll,keypress(f),0,false,507517.299999997,507517.200000003,498606.82,498829.700000003,498623.425,507306.733,1,40,29,
sequence,flow.Sequence,6_28,2023-11-15T21:25:38.390Z,,,,,,,,,,8893.775000002992,completion,,,,,,,low,low,,,,,,true,,,,false,507517.40000000596,507517.200000003,498606.82,498829.60000000894,498623.425,507306.733,1,40,,
trial,html.Screen,6_29_0,2023-11-15T21:25:42.533Z,,,,1,0.9069076630783806,0.849461654555185,,true,ll,4354.167000005953,response,-0.763664812271151,0.8999999999999997,-0.8999999999999997,-1.067232176289901,0.8999999999999997,-0.8999999999999997,low,low,,ISIC_0054527.JPG,,ISIC_3466769.JPG,169,true,ll,keypress(f),0,false,511661,511660.90000000596,507289.837,507517.5,507306.733,511456.866,1,40,30,
sequence,flow.Sequence,6_29,2023-11-15T21:25:42.533Z,,,,,,,,,,4354.167000005953,completion,,,,,,,low,low,,,,,,true,,,,false,511661.200000003,511660.90000000596,507289.837,507517.5,507306.733,511456.866,1,40,,
trial,html.Screen,6_30_0,2023-11-15T21:25:46.822Z,,,,1,0.9198276163642348,-0.7754915110667046,,true,lh,4492.834000003,response,-1.075512775389519,0.8999999999999997,-0.8999999999999997,1.0454702683049502,0.8999999999999997,-0.8999999999999997,low,high,,ISIC_7840728.JPG,,ISIC_0033603.JPG,29,true,lh,keypress(e),0,false,515949.90000000596,515949.700000003,511440.029,511661.299999997,511456.866,515740.072,1,40,31,
sequence,flow.Sequence,6_30,2023-11-15T21:25:46.823Z,,,,,,,,,,4492.834000003,completion,,,,,,,low,high,,,,,,true,,,,false,515950.200000003,515949.700000003,511440.029,511661.200000003,511456.866,515740.072,1,40,,
trial,html.Screen,6_31_0,2023-11-15T21:25:56.558Z,,,,1,-1.0667712753225895,-0.7415337434376102,,true,hh,9945.028000008955,response,1.0849202097813322,0.8999999999999997,-0.8999999999999997,1.0851127310415287,0.8999999999999997,-0.8999999999999997,high,high,,ISIC_8626941.JPG,,ISIC_0010289.JPG,184,true,hh,keypress(i),0,false,525685.200000003,525685.1000000089,515723.454,515950.5,515740.072,525473.415,1,40,32,
sequence,flow.Sequence,6_31,2023-11-15T21:25:56.558Z,,,,,,,,,,9945.028000008955,completion,,,,,,,high,high,,,,,,true,,,,false,525685.400000006,525685.1000000089,515723.454,515950.40000000596,515740.072,525473.415,1,40,,
trial,html.Screen,6_32_0,2023-11-15T21:26:01.423Z,,,,1,0.7872534775441857,-0.8441107693833454,,true,lh,5076.584999999963,response,-0.9237241143561707,0.8999999999999997,-0.8999999999999997,0.7102087839245512,0.8999999999999997,-0.8999999999999997,low,high,,ISIC_0028788.JPG,,ISIC_0058661.JPG,29,true,lh,keypress(e),0,false,530550.400000006,530550,525456.479,525685.400000006,525473.415,530340.176,1,40,33,
sequence,flow.Sequence,6_32,2023-11-15T21:26:01.424Z,,,,,,,,,,5076.584999999963,completion,,,,,,,low,high,,,,,,true,,,,false,530551,530550,525456.479,525685.400000006,525473.415,530340.176,1,40,,
trial,html.Screen,6_33_0,2023-11-15T21:26:09.311Z,,,,1,0.8312425167370745,0.9376491160549733,,true,ll,8097.924000008963,response,-0.8428710898223032,0.8999999999999997,-0.8999999999999997,-0.7657532100141601,0.8999999999999997,-0.8999999999999997,low,low,,ISIC_4834687.JPG,,ISIC_7141361.JPG,169,true,ll,keypress(f),0,false,538438.200000003,538438.1000000089,530323.359,530551.299999997,530340.176,538240.138,1,40,34,
sequence,flow.Sequence,6_33,2023-11-15T21:26:09.311Z,,,,,,,,,,8097.924000008963,completion,,,,,,,low,low,,,,,,true,,,,false,538438.6000000089,538438.1000000089,530323.359,530551.200000003,530340.176,538240.138,1,40,,
trial,html.Screen,6_34_0,2023-11-15T21:26:14.430Z,,,,1,-1.0733807306669467,-0.9781766331161578,,true,hh,5316.861999999965,response,0.9766645409582418,0.8999999999999997,-0.8999999999999997,1.086167902767275,0.8999999999999997,-0.8999999999999997,high,high,,ISIC_0032383.JPG,,ISIC_0011526.JPG,184,true,hh,keypress(i),0,false,543557,543557,538223.417,538438.700000003,538240.138,543357.054,1,40,35,
sequence,flow.Sequence,6_34,2023-11-15T21:26:14.430Z,,,,,,,,,,5316.861999999965,completion,,,,,,,high,high,,,,,,true,,,,false,543557.200000003,543557,538223.417,538438.700000003,538240.138,543357.054,1,40,,
trial,html.Screen,6_35_0,2023-11-15T21:26:19.775Z,,,,1,-1.0979463718010185,-0.7365909200455387,,true,hh,5544.745999997016,response,0.9737567085091248,0.8999999999999997,-0.8999999999999997,0.9013996680304692,0.8999999999999997,-0.8999999999999997,high,high,,ISIC_3909443.JPG,,ISIC_2483825.JPG,184,true,hh,keypress(i),0,false,548901.900000006,548901.799999997,543340.13,543557.299999997,543357.054,548690.171,1,40,36,
sequence,flow.Sequence,6_35,2023-11-15T21:26:19.775Z,,,,,,,,,,5544.745999997016,completion,,,,,,,high,high,,,,,,true,,,,false,548902.200000003,548901.799999997,543340.13,543557.299999997,543357.054,548690.171,1,40,,
trial,html.Screen,6_36_0,2023-11-15T21:26:26.734Z,,,,1,1.0804044917288194,0.7737732725477637,,true,ll,7171.029000003007,response,-0.8609683228491485,0.8999999999999997,-0.8999999999999997,-0.7011772290742453,0.8999999999999997,-0.8999999999999997,low,low,,ISIC_0011691.JPG,,ISIC_6801988.JPG,169,true,ll,keypress(f),0,false,555861.299999997,555861.200000003,548673.426,548902.299999997,548690.171,555656.802,1,40,37,
sequence,flow.Sequence,6_36,2023-11-15T21:26:26.734Z,,,,,,,,,,7171.029000003007,completion,,,,,,,low,low,,,,,,true,,,,false,555861.6000000089,555861.200000003,548673.426,548902.299999997,548690.171,555656.802,1,40,,
trial,html.Screen,6_37_0,2023-11-15T21:26:33.166Z,,,,1,0.801722142776163,-0.7020073261471239,,true,lh,6636.898000002955,response,-0.9237241143561707,0.8999999999999997,-0.8999999999999997,0.7102087839245512,0.8999999999999997,-0.8999999999999997,low,high,,ISIC_3236964.JPG,,ISIC_0058661.JPG,29,true,lh,keypress(e),0,false,562293.799999997,562293.700000003,555640.003,555861.6000000089,555656.802,562090.252,1,40,38,
sequence,flow.Sequence,6_37,2023-11-15T21:26:33.167Z,,,,,,,,,,6636.898000002955,completion,,,,,,,low,high,,,,,,true,,,,false,562294.200000003,562293.700000003,555640.003,555861.6000000089,555656.802,562090.252,1,40,,
trial,html.Screen,6_38_0,2023-11-15T21:26:39.222Z,,,,1,-1.058275612142778,0.7824898568540655,,true,hl,6258.848000008962,response,0.7872534775441857,0.8999999999999997,-0.8999999999999997,-0.8441107693833454,0.8999999999999997,-0.8999999999999997,high,low,,ISIC_4906385.JPG,,ISIC_0028788.JPG,43,true,hl,keypress(j),0,false,568349.200000003,568349.1000000089,562073.401,562294.299999997,562090.252,568140.164,1,40,39,
sequence,flow.Sequence,6_38,2023-11-15T21:26:39.222Z,,,,,,,,,,6258.848000008962,completion,,,,,,,high,low,,,,,,true,,,,false,568349.400000006,568349.1000000089,562073.401,562294.200000003,562090.252,568140.164,1,40,,
trial,html.Screen,6_39_0,2023-11-15T21:26:45.224Z,,,,1,-0.9548921292696696,-0.7396517737529797,,true,hh,6209.0360000029905,response,0.7262185370068359,0.8999999999999997,-0.8999999999999997,0.9153969930664472,0.8999999999999997,-0.8999999999999997,high,high,,ISIC_5566396.JPG,,ISIC_0063369.JPG,184,true,hh,keypress(i),0,false,574349.400000006,574349.200000003,568123.528,568349.5,568140.164,574140.188,1,40,40,
sequence,flow.Sequence,6_39,2023-11-15T21:26:45.224Z,,,,,,,,,,6209.0360000029905,completion,,,,,,,high,high,,,,,,true,,,,false,574349.5,574349.200000003,568123.528,568349.5,568140.164,574140.188,1,40,,
practice_loop,flow.Loop,6,2023-11-15T21:26:45.224Z,,,,,,,,,,270709.385000003,completion,,,,,,,,,,,,,,true,,,,false,574349.6000000089,574349.200000003,303623.156,303852.200000003,303639.815,574140.188,1,40,,
stair_instructions,html.Screen,7,2023-11-15T21:26:57.087Z,,,,,,,,,,12072.312000000034,response,,,,,,,,,,,,,,,continue,click button,,,586213,586212.5,574123.436,574349.700000003,574140.188,586006.873,,,,
trial,html.Screen,8_0_0,2023-11-15T21:27:04.267Z,,,,2,0.0644356642124594,-0.0565130492997401,,false,lh,7386.327000002959,response,-0.930804711032185,0.8999999999999997,-0.8999999999999997,0.7294067991476295,0.8999999999999997,-0.8999999999999997,low,high,,ISIC_7520843.JPG,,ISIC_5067317.JPG,29,false,hl,keypress(j),0,true,593393.299999997,593393.200000003,585990.333,586213.200000003,586006.873,593206.885,1,40,1,
sequence,flow.Sequence,8_0,2023-11-15T21:27:04.268Z,,,,,,,,,,7386.327000002959,completion,,,,,,,low,high,,,,,,false,,,,true,593393.5,593393.200000003,585990.333,586213.200000003,586006.873,593206.885,1,40,,
trial,html.Screen,8_1_0,2023-11-15T21:27:10.335Z,,,,2,-0.0204987932325723,0.0619049476763945,,true,ll,6254.315000002971,response,-0.785584495352475,0.8999999999999997,-0.9499999999999997,-1.042144559030568,0.9499999999999997,-0.8999999999999997,low,low,,ISIC_0887792.JPG,,ISIC_0004099.JPG,150,false,ll,keypress(f),0,true,599461.200000003,599461.200000003,593190.191,593393.6000000089,593206.885,599257.021,1,40,2,
sequence,flow.Sequence,8_1,2023-11-15T21:27:10.336Z,,,,,,,,,,6254.315000002971,completion,,,,,,,low,low,,,,,,false,,,,true,599461.400000006,599461.200000003,593190.191,593393.5,593206.885,599257.021,1,40,,
trial,html.Screen,8_2_0,2023-11-15T21:27:15.567Z,,,,2,-0.066631540328269,-0.005292120470259,,true,hh,5436.079000008991,response,0.9405746940315332,0.8999999999999997,-0.9499999999999997,0.7847785203585506,0.9499999999999997,-0.8999999999999997,high,high,,ISIC_8041550.JPG,,ISIC_0034237.JPG,175,false,hh,keypress(i),0,true,604693.299999997,604693.1000000089,599240.12,599461.5,599257.021,604490.285,1,40,3,
sequence,flow.Sequence,8_2,2023-11-15T21:27:15.568Z,,,,,,,,,,5436.079000008991,completion,,,,,,,high,high,,,,,,false,,,,true,604693.5,604693.1000000089,599240.12,599461.400000006,599257.021,604490.285,1,40,,
trial,html.Screen,8_3_0,2023-11-15T21:27:23.122Z,,,,2,0.0273855825278348,-0.0566295048930719,,true,lh,7757.615000005928,response,-0.989300717252516,0.8499999999999996,-0.8999999999999997,0.7908280206937478,0.8999999999999997,-0.8499999999999996,low,high,,ISIC_0000141.JPG,,ISIC_6416533.JPG,29,false,lh,keypress(e),0,true,612248,612247.900000006,604473.387,604693.6000000089,604490.285,612040.236,1,40,4,
sequence,flow.Sequence,8_3,2023-11-15T21:27:23.122Z,,,,,,,,,,7757.615000005928,completion,,,,,,,low,high,,,,,,false,,,,true,612248.1000000089,612247.900000006,604473.387,604693.5,604490.285,612040.236,1,40,,
trial,html.Screen,8_4_0,2023-11-15T21:27:28.975Z,,,,2,-0.0606387586319451,-0.0283716809868572,,true,hh,6060.7639999999665,response,0.708900242752142,0.8499999999999996,-0.8499999999999996,0.7801028150877221,0.7378032705261491,-0.8499999999999996,high,high,,ISIC_0061158.JPG,,ISIC_0056979.JPG,247,false,hh,keypress(i),0,true,618101.200000003,618101,612023.493,612248.1000000089,612040.236,617890.204,1,40,5,
sequence,flow.Sequence,8_4,2023-11-15T21:27:28.975Z,,,,,,,,,,6060.7639999999665,completion,,,,,,,high,high,,,,,,false,,,,true,618101.299999997,618101,612023.493,612248.1000000089,612040.236,617890.204,1,40,,
trial,html.Screen,8_5_0,2023-11-15T21:27:35.600Z,,,,2,0.0632965338582772,0.0107588824722911,,false,hl,6835.1960000059335,response,0.598447767053731,0.694501528919932,-0.8499999999999996,-1.0185275168641534,0.7378032705261491,-0.8499999999999996,high,low,,ISIC_1265755.JPG,,ISIC_7604870.JPG,79,false,lh,keypress(e),0,true,624725.5,624725.400000006,617873.393,618101.299999997,617890.204,624523.71,1,40,6,
sequence,flow.Sequence,8_5,2023-11-15T21:27:35.600Z,,,,,,,,,,6835.1960000059335,completion,,,,,,,high,low,,,,,,false,,,,true,624725.799999997,624725.400000006,617873.393,618101.299999997,617890.204,624523.71,1,40,,
trial,html.Screen,8_6_0,2023-11-15T21:27:39.895Z,,,,2,-0.0105349256029223,0.0723574625425557,,false,hl,4497.4900000030175,response,0.6503451990430797,0.744501528919932,-0.8499999999999996,-0.7776251232433551,0.7378032705261491,-0.8999999999999997,high,low,,ISIC_0058998.JPG,,ISIC_6931712.JPG,64,false,lh,keypress(e),0,true,629021.299999997,629021.200000003,624506.685,624725.900000006,624523.71,628824.632,1,40,7,
sequence,flow.Sequence,8_6,2023-11-15T21:27:39.896Z,,,,,,,,,,4497.4900000030175,completion,,,,,,,high,low,,,,,,false,,,,true,629021.400000006,629021.200000003,624506.685,624725.900000006,624523.71,628824.632,1,40,,
trial,html.Screen,8_7_0,2023-11-15T21:27:46.338Z,,,,2,-0.0367744112927588,-0.0324865661712824,,true,lh,6637.768000005977,response,-0.789083277544982,0.7945015289199321,-0.8499999999999996,0.7172067273002093,0.7378032705261491,-0.9499999999999997,low,high,,ISIC_4523565.JPG,,ISIC_0011030.JPG,64,false,lh,keypress(e),0,true,635462.700000003,635462.400000006,628790.214,629021.5,628824.632,635256.93,1,40,8,
sequence,flow.Sequence,8_7,2023-11-15T21:27:46.339Z,,,,,,,,,,6637.768000005977,completion,,,,,,,low,high,,,,,,false,,,,true,635463.200000003,635462.400000006,628790.214,629021.400000006,628824.632,635256.93,1,40,,
trial,html.Screen,8_8_0,2023-11-15T21:27:53.051Z,,,,2,0.0367060100866019,0.0630207980628495,,true,ll,6917.6700000088895,response,-0.9362962536620838,0.7945015289199321,-0.8499999999999996,-1.1317411618506656,0.6878032705261491,-0.9499999999999997,low,low,,ISIC_0028396.JPG,,ISIC_3691320.JPG,164,false,ll,keypress(f),0,true,642174.900000006,642174.6000000089,635240.114,635463.400000006,635256.93,641973.825,1,40,9,
sequence,flow.Sequence,8_8,2023-11-15T21:27:53.051Z,,,,,,,,,,6917.6700000088895,completion,,,,,,,low,low,,,,,,false,,,,true,642175.299999997,642174.6000000089,635240.114,635463.299999997,635256.93,641973.825,1,40,,
trial,html.Screen,8_9_0,2023-11-15T21:27:59.098Z,,,,2,0.044991036470624,-0.0185124638005965,,true,hh,6248.075000006007,response,0.700178962022454,0.7945015289199321,-0.9840187077563747,0.5700479119867665,0.6878032705261491,-0.9499999999999997,high,high,,ISIC_2457859.JPG,,ISIC_5868291.JPG,277,false,hh,keypress(i),0,true,648222.200000003,648221.900000006,641956.935,642175.6000000089,641973.825,648023.634,1,40,10,
sequence,flow.Sequence,8_9,2023-11-15T21:27:59.098Z,,,,,,,,,,6248.075000006007,completion,,,,,,,high,high,,,,,,false,,,,true,648222.400000006,648221.900000006,641956.935,642175.5,641973.825,648023.634,1,40,,
trial,html.Screen,8_10_0,2023-11-15T21:28:05.914Z,,,,2,0.0223011224608011,-0.0466190802905965,,true,hl,7014.366000000038,response,0.9662688541319592,0.7945015289199321,-0.9840187077563747,-0.929746784178986,0.6878032705261491,-0.9499999999999997,high,low,,ISIC_0028041.JPG,,ISIC_0011077.JPG,53,false,hl,keypress(j),0,true,655038.299999997,655038,648006.773,648222.5,648023.634,654840.351,1,40,11,
sequence,flow.Sequence,8_10,2023-11-15T21:28:05.914Z,,,,,,,,,,7014.366000000038,completion,,,,,,,high,low,,,,,,false,,,,true,655038.6000000089,655038,648006.773,648222.5,648023.634,654840.351,1,40,,
trial,html.Screen,8_11_0,2023-11-15T21:28:11.514Z,,,,2,0.0273855825278348,-0.0566295048930719,,false,lh,5797.7490000089165,response,-0.930804711032185,0.744501528919932,-0.9840187077563747,0.7294067991476295,0.6878032705261491,-0.8999999999999997,low,high,,ISIC_0000141.JPG,,ISIC_5067317.JPG,44,false,hl,keypress(j),0,true,660638.400000006,660638.1000000089,654823.486,655038.900000006,654840.351,660440.361,1,40,12,
sequence,flow.Sequence,8_11,2023-11-15T21:28:11.515Z,,,,,,,,,,5797.7490000089165,completion,,,,,,,low,high,,,,,,false,,,,true,660638.700000003,660638.1000000089,654823.486,655038.700000003,654840.351,660440.361,1,40,,
trial,html.Screen,8_12_0,2023-11-15T21:28:15.721Z,,,,2,0.0199950873045219,0.0172506388509166,,true,lh,4405.039000005927,response,-1.2054195059663604,0.744501528919932,-1.0340187077563747,0.7760611240296147,0.7378032705261491,-0.8999999999999997,low,high,,ISIC_0029906.JPG,,ISIC_8712559.JPG,38,false,lh,keypress(e),0,true,664845.6000000089,664845.400000006,660423.542,660638.900000006,660440.361,664640.322,1,40,13,
sequence,flow.Sequence,8_12,2023-11-15T21:28:15.722Z,,,,,,,,,,4405.039000005927,completion,,,,,,,low,high,,,,,,false,,,,true,664845.900000006,664845.400000006,660423.542,660638.900000006,660440.361,664640.322,1,40,,
trial,html.Screen,8_13_0,2023-11-15T21:28:20.217Z,,,,2,-0.0464691161264081,-0.0535296539628673,,false,hh,4700.578000005917,response,0.5636163500527319,0.744501528919932,-1.0340187077563747,0.745617680188165,0.7378032705261491,-0.8999999999999997,high,high,,ISIC_0758797.JPG,,ISIC_1957685.JPG,290,false,hl,keypress(j),0,true,669341,669340.900000006,664623.591,664845.900000006,664640.322,669140.317,1,40,14,
sequence,flow.Sequence,8_13,2023-11-15T21:28:20.217Z,,,,,,,,,,4700.578000005917,completion,,,,,,,high,high,,,,,,false,,,,true,669341.200000003,669340.900000006,664623.591,664845.900000006,664640.322,669140.317,1,40,,
trial,html.Screen,8_14_0,2023-11-15T21:28:25.466Z,,,,2,-0.0634150092059303,0.0177502973253611,,false,hl,5449.383000002941,response,0.5953360851109509,0.744501528919932,-1.0340187077563747,-0.8079777101087358,0.7878032705261492,-0.8999999999999997,high,low,,ISIC_0032433.JPG,,ISIC_7852890.JPG,64,false,ll,keypress(f),0,true,674589.900000006,674589.700000003,669123.458,669341.200000003,669140.317,674390.545,1,40,15,
sequence,flow.Sequence,8_14,2023-11-15T21:28:25.466Z,,,,,,,,,,5449.383000002941,completion,,,,,,,high,low,,,,,,false,,,,true,674590.1000000089,674589.700000003,669123.458,669341.200000003,669140.317,674390.545,1,40,,
trial,html.Screen,8_15_0,2023-11-15T21:28:31.954Z,,,,2,0.0146597765042814,0.06222227493177,,true,hh,6687.355000005919,response,0.708900242752142,0.7945015289199321,-1.0340187077563747,0.7801028150877221,0.7878032705261492,-0.8999999999999997,high,high,,ISIC_5982769.JPG,,ISIC_0056979.JPG,254,false,hh,keypress(i),0,true,681078.200000003,681077.900000006,674373.71,674590.299999997,674390.545,680873.732,1,40,16,
sequence,flow.Sequence,8_15,2023-11-15T21:28:31.954Z,,,,,,,,,,6687.355000005919,completion,,,,,,,high,high,,,,,,false,,,,true,681078.5,681077.900000006,674373.71,674590.200000003,674390.545,680873.732,1,40,,
trial,html.Screen,8_16_0,2023-11-15T21:28:42.537Z,,,,2,-0.0447960916594447,-0.0451557856659748,,true,ll,10787.46800000302,response,-0.9394358755892184,0.7945015289199321,-1.0340187077563747,-1.0256934713188917,0.7878032705261492,-0.8999999999999997,low,low,,ISIC_1379405.JPG,,ISIC_4264600.JPG,125,false,ll,keypress(f),0,true,691661.400000006,691661.200000003,680856.863,681078.700000003,680873.732,691457.158,1,40,17,
sequence,flow.Sequence,8_16,2023-11-15T21:28:42.537Z,,,,,,,,,,10787.46800000302,completion,,,,,,,low,low,,,,,,false,,,,true,691661.5,691661.200000003,680856.863,681078.6000000089,680873.732,691457.158,1,40,,
trial,html.Screen,8_17_0,2023-11-15T21:28:47.211Z,,,,2,-0.0447960916594447,-0.0451557856659748,,false,ll,4875.841999999946,response,-0.9410141415297968,0.7945015289199321,-0.9840187077563747,-0.6562835306449887,0.7878032705261492,-0.8499999999999996,low,low,,ISIC_1379405.JPG,,ISIC_2635051.JPG,156,false,hl,keypress(j),0,true,696333.200000003,696333,691439.965,691661.6000000089,691457.158,696123.685,1,40,18,
sequence,flow.Sequence,8_17,2023-11-15T21:28:47.211Z,,,,,,,,,,4875.841999999946,completion,,,,,,,low,low,,,,,,false,,,,true,696333.299999997,696333,691439.965,691661.6000000089,691457.158,696123.685,1,40,,
trial,html.Screen,8_18_0,2023-11-15T21:28:54.083Z,,,,2,0.0146597765042814,0.06222227493177,,false,ll,7081.614999996964,response,-1.1529918760717912,0.7945015289199321,-1.0340187077563747,-0.7279627999550405,0.7878032705261492,-0.8499999999999996,low,low,,ISIC_5982769.JPG,,ISIC_1595325.JPG,139,false,hh,keypress(i),0,true,703205.400000006,703205.299999997,696107.006,696333.299999997,696123.685,703007.178,1,40,19,
sequence,flow.Sequence,8_18,2023-11-15T21:28:54.083Z,,,,,,,,,,7081.614999996964,completion,,,,,,,low,low,,,,,,false,,,,true,703205.6000000089,703205.299999997,696107.006,696333.299999997,696123.685,703007.178,1,40,,
trial,html.Screen,8_19_0,2023-11-15T21:29:04.871Z,,,,2,0.0010920693448107,0.0492408806128631,,,,10783.252000000095,timeout,0.598447767053731,0.7945015289199321,-1.0840187077563748,-1.0185275168641534,0.7878032705261492,-0.8999999999999997,high,low,,ISIC_6155981.JPG,,ISIC_7604870.JPG,62,false,,,0,true,713993.5,713993.200000003,702990.237,703205.700000003,703007.178,713790.43,1,40,20,
sequence,flow.Sequence,8_19,2023-11-15T21:29:04.871Z,,,,,,,,,,10986.022000003024,completion,,,,,,,high,low,,,,,,false,,,,true,713993.799999997,713993.200000003,702990.237,703205.700000003,703007.178,713790.43,1,40,,
trial,html.Screen,8_20_0,2023-11-15T21:29:10.683Z,,,,2,0.0388181790775959,-0.0049623405709465,,false,lh,6015.470000005909,response,-1.0453124399868816,0.7945015289199321,-1.0840187077563748,0.8986747280184286,0.7878032705261492,-0.8999999999999997,low,high,,ISIC_0061880.JPG,,ISIC_0013967.JPG,23,false,ll,keypress(f),0,true,719806,719805.900000006,713773.797,713994,713790.43,719607.15,1,40,21,
sequence,flow.Sequence,8_20,2023-11-15T21:29:10.684Z,,,,,,,,,,6015.470000005909,completion,,,,,,,low,high,,,,,,false,,,,true,719806.299999997,719805.900000006,713773.797,713993.900000006,713790.43,719607.15,1,40,,
trial,html.Screen,8_21_0,2023-11-15T21:29:13.843Z,,,,2,0.0200376619013301,0.0451764418954947,,false,ll,3358.1499999969965,response,-0.9672217489045032,0.7945015289199321,-1.0840187077563748,-0.8148676897881278,0.8378032705261492,-0.8999999999999997,low,low,,ISIC_0026087.JPG,,ISIC_0010358.JPG,104,false,lh,keypress(e),0,true,722965.5,722965.299999997,719590.403,719806.400000006,719607.15,722757.041,1,40,22,
sequence,flow.Sequence,8_21,2023-11-15T21:29:13.843Z,,,,,,,,,,3358.1499999969965,completion,,,,,,,low,low,,,,,,false,,,,true,722965.700000003,722965.299999997,719590.403,719806.400000006,719607.15,722757.041,1,40,,
trial,html.Screen,8_22_0,2023-11-15T21:29:17.563Z,,,,2,0.0065172941585523,-0.0118857043117315,,true,hh,3928.159000003012,response,0.7935069588038893,0.7945015289199321,-0.9562670944456924,0.7313731866464421,0.8378032705261492,-0.9499999999999997,high,high,,ISIC_6119202.JPG,,ISIC_0010729.JPG,240,false,hh,keypress(i),0,true,726685.299999997,726685.200000003,722740.413,722965.799999997,722757.041,726473.724,1,40,23,
sequence,flow.Sequence,8_22,2023-11-15T21:29:17.563Z,,,,,,,,,,3928.159000003012,completion,,,,,,,high,high,,,,,,false,,,,true,726685.5,726685.200000003,722740.413,722965.799999997,722757.041,726473.724,1,40,,
trial,html.Screen,8_23_0,2023-11-15T21:29:23.203Z,,,,2,0.0273855825278348,-0.0566295048930719,,true,ll,5851.976000002935,response,-0.8465917022244419,0.7124400727251656,-0.9562670944456924,-1.0121558062445464,0.8378032705261492,-0.9499999999999997,low,low,,ISIC_0000141.JPG,,ISIC_6914698.JPG,136,false,ll,keypress(f),0,true,732325.799999997,732325.700000003,726457.065,726685.5,726473.724,732123.815,1,40,24,
sequence,flow.Sequence,8_23,2023-11-15T21:29:23.203Z,,,,,,,,,,5851.976000002935,completion,,,,,,,low,low,,,,,,false,,,,true,732326,732325.700000003,726457.065,726685.5,726473.724,732123.815,1,40,,
trial,html.Screen,8_24_0,2023-11-15T21:29:31.251Z,,,,2,0.0109416414475118,0.005246498750811,,false,lh,8249.285000008997,response,-0.8828738626295417,0.7124400727251656,-0.9562670944456924,0.8288177599439582,0.8378032705261492,-0.9499999999999997,low,high,,ISIC_0064279.JPG,,ISIC_0056041.JPG,30,false,hh,keypress(i),0,true,740373.299999997,740373.1000000089,732107.111,732326.200000003,732123.815,740173.879,1,40,25,
sequence,flow.Sequence,8_24,2023-11-15T21:29:31.251Z,,,,,,,,,,8249.285000008997,completion,,,,,,,low,high,,,,,,false,,,,true,740373.400000006,740373.1000000089,732107.111,732326.1000000089,732123.815,740173.879,1,40,,
trial,html.Screen,8_25_0,2023-11-15T21:29:37.299Z,,,,2,0.039520186367207,0.0377961575607372,,false,ll,6247.920999997063,response,-0.8791357280466414,0.7124400727251656,-1.0062670944456924,-0.9124690562312904,0.7878032705261492,-0.9499999999999997,low,low,,ISIC_6356149.JPG,,ISIC_4544879.JPG,120,false,hh,keypress(i),0,true,746422.1000000089,746421.799999997,740156.778,740373.6000000089,740173.879,746223.719,1,40,26,
sequence,flow.Sequence,8_25,2023-11-15T21:29:37.300Z,,,,,,,,,,6247.920999997063,completion,,,,,,,low,low,,,,,,false,,,,true,746422.400000006,746421.799999997,740156.778,740373.5,740173.879,746223.719,1,40,,
trial,html.Screen,8_26_0,2023-11-15T21:29:42.635Z,,,,2,0.0146597765042814,0.06222227493177,,false,lh,5533.6810000059195,response,-1.1898494014853933,0.7124400727251656,-1.0562670944456924,0.7016654052924971,0.7878032705261492,-0.9999999999999998,low,high,,ISIC_5982769.JPG,,ISIC_6324832.JPG,27,false,ll,keypress(f),0,true,751757.700000003,751757.400000006,746206.902,746422.5,746223.719,751557.225,1,40,27,
sequence,flow.Sequence,8_26,2023-11-15T21:29:42.635Z,,,,,,,,,,5533.6810000059195,completion,,,,,,,low,high,,,,,,false,,,,true,751757.799999997,751757.400000006,746206.902,746422.400000006,746223.719,751557.225,1,40,,
trial,html.Screen,8_27_0,2023-11-15T21:29:50.189Z,,,,2,0.0198696495649504,-0.0387952353063878,,false,ll,7752.4750000030035,response,-0.8596006200412799,0.7124400727251656,-1.0562670944456924,-0.9571430175944712,0.8378032705261492,-0.9999999999999998,low,low,,ISIC_6735970.JPG,,ISIC_0663824.JPG,92,false,hl,keypress(j),0,true,759309.900000006,759309.700000003,751540.317,751757.900000006,751557.225,759107.08,1,40,28,
sequence,flow.Sequence,8_27,2023-11-15T21:29:50.189Z,,,,,,,,,,7752.4750000030035,completion,,,,,,,low,low,,,,,,false,,,,true,759310.299999997,759309.700000003,751540.317,751757.900000006,751557.225,759107.08,1,40,,
trial,html.Screen,8_28_0,2023-11-15T21:29:56.836Z,,,,2,-0.0394300226801425,0.0536115913979284,,false,hh,6849.920000000042,response,0.5554307869496542,0.7124400727251656,-1.1062670944456925,0.9513009714243164,0.8378032705261492,-0.9999999999999998,high,high,,ISIC_0046983.JPG,,ISIC_4521222.JPG,263,false,lh,keypress(e),0,true,765957.200000003,765957,759090.308,759310.400000006,759107.08,765757.275,1,40,29,
sequence,flow.Sequence,8_28,2023-11-15T21:29:56.836Z,,,,,,,,,,6849.920000000042,completion,,,,,,,high,high,,,,,,false,,,,true,765957.299999997,765957,759090.308,759310.400000006,759107.08,765757.275,1,40,,
trial,html.Screen,8_29_0,2023-11-15T21:30:01.301Z,,,,2,0.0495531443078245,0.0310660434153916,,false,hl,4664.825000008917,response,0.6709937791656728,0.7624400727251657,-1.1062670944456925,-1.0908783428179298,0.8378032705261492,-0.9999999999999998,high,low,,ISIC_0013719.JPG,,ISIC_0028903.JPG,43,false,lh,keypress(e),0,true,770422.400000006,770422.1000000089,765740.217,765957.299999997,765757.275,770223.844,1,40,30,
sequence,flow.Sequence,8_29,2023-11-15T21:30:01.302Z,,,,,,,,,,4664.825000008917,completion,,,,,,,high,low,,,,,,false,,,,true,770422.700000003,770422.1000000089,765740.217,765957.299999997,765757.275,770223.844,1,40,,
trial,html.Screen,8_30_0,2023-11-15T21:30:05.861Z,,,,2,-0.0308384937406319,0.0038396364323947,,false,hh,4757.7560000089,response,1.0063353542987443,0.8124400727251657,-1.1062670944456925,0.9468739614220908,0.8378032705261492,-1.0499999999999998,high,high,,ISIC_0029825.JPG,,ISIC_0072382.JPG,229,false,lh,keypress(e),0,true,774981.799999997,774981.6000000089,770207.106,770422.900000006,770223.844,774773.784,1,40,31,
sequence,flow.Sequence,8_30,2023-11-15T21:30:05.861Z,,,,,,,,,,4757.7560000089,completion,,,,,,,high,high,,,,,,false,,,,true,774982,774981.6000000089,770207.106,770422.900000006,770223.844,774773.784,1,40,,
trial,html.Screen,8_31_0,2023-11-15T21:30:11.372Z,,,,2,-0.0586798548295751,0.0060040805764433,,false,hl,5719.515999997035,response,1.045301444872812,0.8624400727251658,-1.1062670944456925,-1.0872560254441277,0.8990874664232036,-1.0499999999999998,high,low,,ISIC_1552232.JPG,,ISIC_4507700.JPG,25,false,hh,keypress(i),0,true,780493.5,780493.299999997,774757.107,774982.200000003,774773.784,780290.451,1,40,32,
sequence,flow.Sequence,8_31,2023-11-15T21:30:11.373Z,,,,,,,,,,5719.515999997035,completion,,,,,,,high,low,,,,,,false,,,,true,780493.6000000089,780493.299999997,774757.107,774982.200000003,774773.784,780290.451,1,40,,
trial,html.Screen,8_32_0,2023-11-15T21:30:15.109Z,,,,2,0.0426957918502628,0.044166030546046,,true,hl,3939.1490000089398,response,1.045301444872812,0.8624400727251658,-1.1062670944456925,-1.0872560254441277,0.8990874664232036,-1.0999999999999999,high,low,,ISIC_4649440.JPG,,ISIC_4507700.JPG,24,false,hl,keypress(j),0,true,784229.700000003,784229.6000000089,780273.729,780493.700000003,780290.451,784023.825,1,40,33,
sequence,flow.Sequence,8_32,2023-11-15T21:30:15.109Z,,,,,,,,,,3939.1490000089398,completion,,,,,,,high,low,,,,,,false,,,,true,784229.900000006,784229.6000000089,780273.729,780493.700000003,780290.451,784023.825,1,40,,
trial,html.Screen,8_33_0,2023-11-15T21:30:19.573Z,,,,2,0.0146597765042814,0.06222227493177,,true,lh,4670.275000008987,response,-0.8830264383952469,0.7624400727251657,-1.0562670944456924,0.8635562538060516,0.8490874664232035,-1.0499999999999998,low,high,,ISIC_5982769.JPG,,ISIC_0032258.JPG,22,false,lh,keypress(e),0,true,788694.400000006,788694.1000000089,784007.216,784230,784023.825,788490.454,1,40,34,
sequence,flow.Sequence,8_33,2023-11-15T21:30:19.574Z,,,,,,,,,,4670.275000008987,completion,,,,,,,low,high,,,,,,false,,,,true,788694.900000006,788694.1000000089,784007.216,784230,784023.825,788490.454,1,40,,
trial,html.Screen,8_34_0,2023-11-15T21:30:23.117Z,,,,2,-0.0444523556175667,-0.066384682611553,,true,lh,3747.246000002953,response,-1.1898494014853933,0.7624400727251657,-1.0562670944456924,0.7016654052924971,0.8490874664232035,-1.0499999999999998,low,high,,ISIC_0029409.JPG,,ISIC_6324832.JPG,22,false,lh,keypress(e),0,true,792237.900000006,792237.700000003,788473.784,788695.1000000089,788490.454,792041.715,1,40,35,
sequence,flow.Sequence,8_34,2023-11-15T21:30:23.117Z,,,,,,,,,,3747.246000002953,completion,,,,,,,low,high,,,,,,false,,,,true,792238.1000000089,792237.700000003,788473.784,788695,788490.454,792041.715,1,40,,
trial,html.Screen,8_35_0,2023-11-15T21:30:28.389Z,,,,2,0.0564512008196606,-0.0205312570039753,,false,hl,5468.385000008973,response,0.6546079444168281,0.7624400727251657,-1.0062670944456924,-1.1750459687878738,0.7326108295492744,-1.0499999999999998,high,low,,ISIC_9019691.JPG,,ISIC_4352700.JPG,34,false,lh,keypress(e),0,true,797510.5,797510.1000000089,792007.313,792238.200000003,792041.715,797307.164,1,40,36,
sequence,flow.Sequence,8_35,2023-11-15T21:30:28.390Z,,,,,,,,,,5468.385000008973,completion,,,,,,,high,low,,,,,,false,,,,true,797510.900000006,797510.1000000089,792007.313,792238.200000003,792041.715,797307.164,1,40,,
trial,html.Screen,8_36_0,2023-11-15T21:30:34.189Z,,,,2,-0.0076984477620101,-0.0069458408496562,,false,hh,6002.936000008951,response,0.6647638632532045,0.8124400727251657,-1.0062670944456924,0.8573197642156768,0.7326108295492744,-1.0999999999999999,high,high,,ISIC_0000434.JPG,,ISIC_8935085.JPG,258,false,ll,keypress(f),0,true,803310.299999997,803310.1000000089,797290.352,797511.200000003,797307.164,803107.316,1,40,37,
sequence,flow.Sequence,8_36,2023-11-15T21:30:34.190Z,,,,,,,,,,6002.936000008951,completion,,,,,,,high,high,,,,,,false,,,,true,803310.700000003,803310.1000000089,797290.352,797511.1000000089,797307.164,803107.316,1,40,,
trial,html.Screen,8_37_0,2023-11-15T21:30:38.180Z,,,,2,-0.066631540328269,-0.005292120470259,,false,ll,4193.983999997028,response,-1.077278111180185,0.8624400727251658,-1.0062670944456924,-1.1530533996184025,0.7826108295492744,-1.0999999999999999,low,low,,ISIC_8041550.JPG,,ISIC_9525136.JPG,86,false,hl,keypress(j),0,true,807301.400000006,807301.299999997,803090.259,803310.799999997,803107.316,807090.476,1,40,38,
sequence,flow.Sequence,8_37,2023-11-15T21:30:38.181Z,,,,,,,,,,4193.983999997028,completion,,,,,,,low,low,,,,,,false,,,,true,807301.6000000089,807301.299999997,803090.259,803310.700000003,803107.316,807090.476,1,40,,
trial,html.Screen,8_38_0,2023-11-15T21:30:42.820Z,,,,2,-0.0524649813000588,0.0155452034299028,,false,hh,4850.424000005936,response,1.0365303912899335,0.8624400727251658,-1.0562670944456924,0.6956463132597822,0.7826108295492744,-1.0999999999999999,high,high,,ISIC_0030087.JPG,,ISIC_0021713.JPG,220,false,hl,keypress(j),0,true,811941,811940.900000006,807073.823,807301.700000003,807090.476,811740.515,1,40,39,
sequence,flow.Sequence,8_38,2023-11-15T21:30:42.820Z,,,,,,,,,,4850.424000005936,completion,,,,,,,high,high,,,,,,false,,,,true,811941.1000000089,811940.900000006,807073.823,807301.700000003,807090.476,811740.515,1,40,,
trial,html.Screen,8_39_0,2023-11-15T21:30:49.679Z,,,,2,0.0409660561823769,-0.039283578935498,,true,hl,7057.685000002966,response,0.7714570894008278,0.8624400727251658,-1.0562670944456924,-0.9113656554657036,0.8326108295492745,-1.0999999999999999,high,low,,ISIC_0479264.JPG,,ISIC_4529092.JPG,24,false,hl,keypress(j),0,true,818798.5,818798.200000003,811723.782,811941.299999997,811740.515,818590.562,1,40,40,
sequence,flow.Sequence,8_39,2023-11-15T21:30:49.679Z,,,,,,,,,,7057.685000002966,completion,,,,,,,high,low,,,,,,false,,,,true,818798.799999997,818798.200000003,811723.782,811941.200000003,811740.515,818590.562,1,40,,
stair_loop,flow.Loop,8,2023-11-15T21:30:49.680Z,,,,,,,,,,232791.32700000296,completion,,,,,,,,,,,,,,false,,,,true,818799.1000000089,818798.200000003,585990.333,586213.1000000089,586006.873,818590.562,1,40,,
exp_instructions,html.Screen,9,2023-11-15T21:31:09.422Z,,,,,,,,,,19950.138000002946,response,,,,,,,,,,,,,,,continue,keypress(Space),,,838541.1000000089,838540.700000003,818573.724,818799.1000000089,818590.562,838340.602,,,,
trial,html.Screen,10_0_0,2023-11-15T21:31:13.913Z,,,,1,0.0527477970410472,0.0575970798158164,,true,lh,4691.998000008985,response,-0.864159288143104,0.7822492911543806,-1.046542255776761,0.6456269226301533,0.8212619994613414,-1.0175000000000003,low,high,,ISIC_0667763.JPG,8,ISIC_0238570.JPG,27,false,lh,keypress(e),0,false,843032.799999997,843032.6000000089,838323.911,838541.200000003,838340.602,842823.836,4,500,1,
break,html.Screen,10_0_1,2023-11-15T21:31:13.914Z,,,,,,,,,,NaN,,,,,,,,low,high,,,,,,false,,,,false,843033.5,843033.299999997,,843032.900000006,,842823.836,4,500,,
break_continue,html.Screen,10_0_2,2023-11-15T21:31:13.915Z,,,,,,,,,,NaN,,,,,,,,low,high,,,,,,false,,,,false,843034,843033.799999997,,843033.6000000089,,842823.836,4,500,,
sequence,flow.Sequence,10_0,2023-11-15T21:31:13.915Z,,,,,,,,,,4693.1979999970645,completion,,,,,,,low,high,,,,,,false,,,,false,843034.200000003,843033.799999997,838323.911,838541.200000003,838340.602,842823.836,4,500,,
trial,html.Screen,10_1_0,2023-11-15T21:31:18.109Z,,,,1,-0.0105349256029223,0.0723574625425557,,false,ll,4404.9639999970095,response,-1.0622023082418524,0.7822492911543806,-1.046542255776761,-0.8319500041964579,0.8212619994613414,-1.0175000000000003,low,low,,ISIC_0058998.JPG,10,ISIC_0056707.JPG,90,false,lh,keypress(e),0,false,847228.799999997,847228.799999997,842807.098,843034.299999997,842823.836,847023.861,4,500,2,
break,html.Screen,10_1_1,2023-11-15T21:31:18.110Z,,,,,,,,,,NaN,,,,,,,,low,low,,,,,,false,,,,false,847229.200000003,847229.1000000089,,847229,,847023.861,4,500,,
break_continue,html.Screen,10_1_2,2023-11-15T21:31:18.110Z,,,,,,,,,,NaN,,,,,,,,low,low,,,,,,false,,,,false,847229.400000006,847229.299999997,,847229.299999997,,847023.861,4,500,,
sequence,flow.Sequence,10_1,2023-11-15T21:31:18.110Z,,,,,,,,,,4405.4639999970095,completion,,,,,,,low,low,,,,,,false,,,,false,847229.400000006,847229.299999997,842807.098,843034.200000003,842823.836,847023.861,4,500,,
trial,html.Screen,10_2_0,2023-11-15T21:31:26.150Z,,,,1,0.039520186367207,0.0377961575607372,,false,lh,8245.438999996986,response,-0.9375710028613438,0.7822492911543806,-1.046542255776761,0.646533075914549,0.8212619994613414,-1.0175000000000003,low,high,,ISIC_6356149.JPG,9,ISIC_0024507.JPG,27,false,hh,keypress(i),0,false,855269.400000006,855269.299999997,847007.048,847229.5,847023.861,855057.201,4,500,3,
break,html.Screen,10_2_1,2023-11-15T21:31:26.150Z,,,,,,,,,,NaN,,,,,,,,low,high,,,,,,false,,,,false,855269.700000003,855269.700000003,,855269.5,,855057.201,4,500,,
break_continue,html.Screen,10_2_2,2023-11-15T21:31:26.151Z,,,,,,,,,,NaN,,,,,,,,low,high,,,,,,false,,,,false,855270,855269.900000006,,855269.700000003,,855057.201,4,500,,
sequence,flow.Sequence,10_2,2023-11-15T21:31:26.151Z,,,,,,,,,,8246.039000005927,completion,,,,,,,low,high,,,,,,false,,,,false,855270.1000000089,855269.900000006,847007.048,847229.5,847023.861,855057.201,4,500,,
trial,html.Screen,10_3_0,2023-11-15T21:31:31.214Z,,,,1,-0.0076984477620101,-0.0069458408496562,,true,ll,5276.499000002979,response,-1.151139267005652,0.7822492911543806,-1.046542255776761,-1.0838749490501327,0.8212619994613414,-1.0175000000000003,low,low,,ISIC_0000434.JPG,9,ISIC_0002566.JPG,90,false,ll,keypress(f),0,false,860333.900000006,860333.700000003,855040.507,855270.1000000089,855057.201,860123.865,4,500,4,
break,html.Screen,10_3_1,2023-11-15T21:31:31.215Z,,,,,,,,,,NaN,,,,,,,,low,low,,,,,,false,,,,false,860334.700000003,860334.5,,860334.200000003,,860123.865,4,500,,
break_continue,html.Screen,10_3_2,2023-11-15T21:31:31.216Z,,,,,,,,,,NaN,,,,,,,,low,low,,,,,,false,,,,false,860335.200000003,860334.900000006,,860334.799999997,,860123.865,4,500,,
sequence,flow.Sequence,10_3,2023-11-15T21:31:31.216Z,,,,,,,,,,5277.6990000059595,completion,,,,,,,low,low,,,,,,false,,,,false,860335.400000006,860334.900000006,855040.507,855270.1000000089,855057.201,860123.865,4,500,,
trial,html.Screen,10_4_0,2023-11-15T21:31:35.598Z,,,,1,-0.0367706518941078,0.0161069838272154,,true,lh,4593.33500000299,response,-1.1711869602302662,0.7822492911543806,-1.046542255776761,0.7434626355969514,0.8212619994613414,-1.0175000000000003,low,high,,ISIC_0033419.JPG,9,ISIC_0059052.JPG,27,false,lh,keypress(e),0,false,864717.400000006,864717.200000003,860107.21,860335.5,860123.865,864507.243,4,500,5,
break,html.Screen,10_4_1,2023-11-15T21:31:35.598Z,,,,,,,,,,NaN,,,,,,,,low,high,,,,,,false,,,,false,864717.700000003,864717.6000000089,,864717.400000006,,864507.243,4,500,,
break_continue,html.Screen,10_4_2,2023-11-15T21:31:35.598Z,,,,,,,,,,NaN,,,,,,,,low,high,,,,,,false,,,,false,864717.900000006,864717.799999997,,864717.799999997,,864507.243,4,500,,
sequence,flow.Sequence,10_4,2023-11-15T21:31:35.599Z,,,,,,,,,,4593.934999997029,completion,,,,,,,low,high,,,,,,false,,,,false,864718,864717.799999997,860107.21,860335.5,860123.865,864507.243,4,500,,
trial,html.Screen,10_5_0,2023-11-15T21:31:41.350Z,,,,1,0.0273855825278348,-0.0566295048930719,,false,hl,5962.157000005944,response,0.7629099401226335,0.7822492911543806,-1.046542255776761,-0.8515956627075536,0.8212619994613414,-1.0175000000000003,high,low,,ISIC_0000141.JPG,9,ISIC_0028718.JPG,37,false,ll,keypress(f),0,false,870469.6000000089,870469.400000006,864490.461,864718,864507.243,870257.234,4,500,6,
break,html.Screen,10_5_1,2023-11-15T21:31:41.351Z,,,,,,,,,,NaN,,,,,,,,high,low,,,,,,false,,,,false,870470.1000000089,870470,,870469.799999997,,870257.234,4,500,,
break_continue,html.Screen,10_5_2,2023-11-15T21:31:41.351Z,,,,,,,,,,NaN,,,,,,,,high,low,,,,,,false,,,,false,870470.400000006,870470.299999997,,870470.200000003,,870257.234,4,500,,
sequence,flow.Sequence,10_5,2023-11-15T21:31:41.351Z,,,,,,,,,,5963.056999997003,completion,,,,,,,high,low,,,,,,false,,,,false,870470.5,870470.299999997,864490.461,864718,864507.243,870257.234,4,500,,
trial,html.Screen,10_6_0,2023-11-15T21:31:45.775Z,,,,1,0.0374659946425444,0.0086043094957617,,false,lh,4635.765999999945,response,-1.2054195059663604,0.7822492911543806,-1.046542255776761,0.7760611240296147,0.8212619994613414,-1.0175000000000003,low,high,,ISIC_0033051.JPG,9,ISIC_8712559.JPG,27,false,hl,keypress(j),0,false,874893.200000003,874893,870240.695,870470.6000000089,870257.234,874690.562,4,500,7,
break,html.Screen,10_6_1,2023-11-15T21:31:45.776Z,,,,,,,,,,NaN,,,,,,,,low,high,,,,,,false,,,,false,874893.5,874893.400000006,,874893.200000003,,874690.562,4,500,,
break_continue,html.Screen,10_6_2,2023-11-15T21:31:45.776Z,,,,,,,,,,NaN,,,,,,,,low,high,,,,,,false,,,,false,874893.700000003,874893.6000000089,,874893.6000000089,,874690.562,4,500,,
sequence,flow.Sequence,10_6,2023-11-15T21:31:45.776Z,,,,,,,,,,4636.366000008886,completion,,,,,,,low,high,,,,,,false,,,,false,874893.799999997,874893.6000000089,870240.695,870470.6000000089,870257.234,874690.562,4,500,,
trial,html.Screen,10_7_0,2023-11-15T21:31:50.088Z,,,,1,0.0478761683145946,-0.012927090508672,,false,ll,4514.838000005926,response,-0.8778738400881212,0.7822492911543806,-1.046542255776761,-0.8629033386879579,0.8212619994613414,-1.0175000000000003,low,low,,ISIC_9631669.JPG,9,ISIC_5607702.JPG,90,false,lh,keypress(e),0,false,879205.6000000089,879205.400000006,874674.072,874893.799999997,874690.562,879007.423,4,500,8,
break,html.Screen,10_7_1,2023-11-15T21:31:50.088Z,,,,,,,,,,NaN,,,,,,,,low,low,,,,,,false,,,,false,879206.1000000089,879205.900000006,,879205.799999997,,879007.423,4,500,,
break_continue,html.Screen,10_7_2,2023-11-15T21:31:50.089Z,,,,,,,,,,NaN,,,,,,,,low,low,,,,,,false,,,,false,879206.5,879206.299999997,,879206.200000003,,879007.423,4,500,,
sequence,flow.Sequence,10_7,2023-11-15T21:31:50.089Z,,,,,,,,,,4515.737999996985,completion,,,,,,,low,low,,,,,,false,,,,false,879206.6000000089,879206.299999997,874674.072,874893.799999997,874690.562,879007.423,4,500,,
trial,html.Screen,10_8_0,2023-11-15T21:31:55.431Z,,,,1,-0.0606387586319451,-0.0283716809868572,,true,hh,5541.577000000048,response,0.7544107015739535,0.7822492911543806,-1.046542255776761,0.781438724006539,0.8212619994613414,-1.0175000000000003,high,high,,ISIC_0061158.JPG,10,ISIC_0021271.JPG,244,false,hh,keypress(i),0,false,884549.1000000089,884549,878990.539,879206.700000003,879007.423,884357.324,4,500,9,
break,html.Screen,10_8_1,2023-11-15T21:31:55.432Z,,,,,,,,,,NaN,,,,,,,,high,high,,,,,,false,,,,false,884549.5,884549.400000006,,884549.299999997,,884357.324,4,500,,
break_continue,html.Screen,10_8_2,2023-11-15T21:31:55.432Z,,,,,,,,,,NaN,,,,,,,,high,high,,,,,,false,,,,false,884549.700000003,884549.6000000089,,884549.5,,884357.324,4,500,,
sequence,flow.Sequence,10_8,2023-11-15T21:31:55.432Z,,,,,,,,,,5542.177000008989,completion,,,,,,,high,high,,,,,,false,,,,false,884549.799999997,884549.6000000089,878990.539,879206.700000003,879007.423,884357.324,4,500,,
trial,html.Screen,10_9_0,2023-11-15T21:32:01.488Z,,,,1,-0.0249297455748133,0.055986418955019,,true,hl,6248.276000008918,response,0.9617893983965208,0.7822492911543806,-1.046542255776761,-0.9453006131304652,0.8212619994613414,-1.0175000000000003,high,low,,ISIC_3900049.JPG,8,ISIC_4229473.JPG,37,false,hl,keypress(j),0,false,890605.799999997,890605.6000000089,884340.814,884549.799999997,884357.324,890407.427,4,500,10,
break,html.Screen,10_9_1,2023-11-15T21:32:01.488Z,,,,,,,,,,NaN,,,,,,,,high,low,,,,,,false,,,,false,890606.5,890606.200000003,,890606,,890407.427,4,500,,
break_continue,html.Screen,10_9_2,2023-11-15T21:32:01.489Z,,,,,,,,,,NaN,,,,,,,,high,low,,,,,,false,,,,false,890607,890606.799999997,,890606.6000000089,,890407.427,4,500,,
sequence,flow.Sequence,10_9,2023-11-15T21:32:01.489Z,,,,,,,,,,6249.475999996997,completion,,,,,,,high,low,,,,,,false,,,,false,890607.200000003,890606.799999997,884340.814,884549.799999997,884357.324,890407.427,4,500,,
trial,html.Screen,10_10_0,2023-11-15T21:32:11.984Z,,,,1,0.045779466401051,0.0137769797231127,,false,hh,10693.973000005935,response,0.6184174574326078,0.7822492911543806,-1.046542255776761,0.8221112671269014,0.8212619994613414,-1.0175000000000003,high,high,,ISIC_0000504.JPG,10,ISIC_0000526.JPG,244,false,hl,keypress(j),0,false,901101.5,901101.400000006,890390.655,890607.299999997,890407.427,900890.626,4,500,11,
break,html.Screen,10_10_1,2023-11-15T21:32:11.984Z,,,,,,,,,,NaN,,,,,,,,high,high,,,,,,false,,,,false,901102,901101.900000006,,901101.700000003,,900890.626,4,500,,
break_continue,html.Screen,10_10_2,2023-11-15T21:32:11.984Z,,,,,,,,,,NaN,,,,,,,,high,high,,,,,,false,,,,false,901102.200000003,901102.200000003,,901102.1000000089,,900890.626,4,500,,
sequence,flow.Sequence,10_10,2023-11-15T21:32:11.984Z,,,,,,,,,,10694.773000002955,completion,,,,,,,high,high,,,,,,false,,,,false,901102.400000006,901102.200000003,890390.655,890607.200000003,890407.427,900890.626,4,500,,
trial,html.Screen,10_11_0,2023-11-15T21:32:16.327Z,,,,1,0.0603356922898045,0.0630785445312754,,false,ll,4554.474000008893,response,-1.151139267005652,0.7822492911543806,-1.046542255776761,-1.0838749490501327,0.8212619994613414,-1.0175000000000003,low,low,,ISIC_9996128.JPG,9,ISIC_0002566.JPG,90,false,lh,keypress(e),0,false,905445.200000003,905445.1000000089,900874.051,901102.400000006,900890.626,905240.599,4,500,12,
break,html.Screen,10_11_1,2023-11-15T21:32:16.328Z,,,,,,,,,,NaN,,,,,,,,low,low,,,,,,false,,,,false,905445.6000000089,905445.6000000089,,905445.400000006,,905240.599,4,500,,
break_continue,html.Screen,10_11_2,2023-11-15T21:32:16.328Z,,,,,,,,,,NaN,,,,,,,,low,low,,,,,,false,,,,false,905445.900000006,905445.700000003,,905445.700000003,,905240.599,4,500,,
sequence,flow.Sequence,10_11,2023-11-15T21:32:16.328Z,,,,,,,,,,4555.074000002933,completion,,,,,,,low,low,,,,,,false,,,,false,905445.900000006,905445.700000003,900874.051,901102.400000006,900890.626,905240.599,4,500,,
trial,html.Screen,10_12_0,2023-11-15T21:32:20.311Z,,,,1,0.0065172941585523,-0.0118857043117315,,true,ll,4188.601000002935,response,-0.8664556873113695,0.7822492911543806,-1.046542255776761,-0.9753511680199736,0.8212619994613414,-1.0175000000000003,low,low,,ISIC_6119202.JPG,9,ISIC_0340453.JPG,90,false,ll,keypress(f),0,false,909429.299999997,909429.200000003,905223.974,905446,905240.599,909223.952,4,500,13,
break,html.Screen,10_12_1,2023-11-15T21:32:20.312Z,,,,,,,,,,NaN,,,,,,,,low,low,,,,,,false,,,,false,909429.799999997,909429.6000000089,,909429.5,,909223.952,4,500,,
break_continue,html.Screen,10_12_2,2023-11-15T21:32:20.312Z,,,,,,,,,,NaN,,,,,,,,low,low,,,,,,false,,,,false,909430,909429.900000006,,909429.799999997,,909223.952,4,500,,
sequence,flow.Sequence,10_12,2023-11-15T21:32:20.312Z,,,,,,,,,,4189.301000005915,completion,,,,,,,low,low,,,,,,false,,,,false,909430.1000000089,909429.900000006,905223.974,905446,905240.599,909223.952,4,500,,
trial,html.Screen,10_13_0,2023-11-15T21:32:24.688Z,,,,1,-0.0544036313884697,-0.0564516462775647,,true,hh,4581.948000005912,response,0.7102636076886534,0.7822492911543806,-1.046542255776761,0.6355372377297291,0.8212619994613414,-1.0175000000000003,high,high,,ISIC_7441957.JPG,8,ISIC_0030110.JPG,244,false,hh,keypress(i),0,false,913806.1000000089,913805.900000006,909207.31,909430.1000000089,909223.952,913607.437,4,500,14,
break,html.Screen,10_13_1,2023-11-15T21:32:24.689Z,,,,,,,,,,NaN,,,,,,,,high,high,,,,,,false,,,,false,913806.799999997,913806.700000003,,913806.299999997,,913607.437,4,500,,
break_continue,html.Screen,10_13_2,2023-11-15T21:32:24.689Z,,,,,,,,,,NaN,,,,,,,,high,high,,,,,,false,,,,false,913807.299999997,913807.1000000089,,913806.900000006,,913607.437,4,500,,
sequence,flow.Sequence,10_13,2023-11-15T21:32:24.690Z,,,,,,,,,,4583.148000008892,completion,,,,,,,high,high,,,,,,false,,,,false,913807.5,913807.1000000089,909207.31,909430.1000000089,909223.952,913607.437,4,500,,
trial,html.Screen,10_14_0,2023-11-15T21:32:31.840Z,,,,1,0.0074667911845194,-0.018500200317654,,false,ll,7350.163000008906,response,-0.9003340164453637,0.7822492911543806,-1.046542255776761,-1.1325150153239834,0.8212619994613414,-1.0175000000000003,low,low,,ISIC_0058723.JPG,10,ISIC_5287679.JPG,90,false,hl,keypress(j),0,false,920957.799999997,920957.6000000089,913590.513,913807.6000000089,913607.437,920757.463,4,500,15,
break,html.Screen,10_14_1,2023-11-15T21:32:31.840Z,,,,,,,,,,NaN,,,,,,,,low,low,,,,,,false,,,,false,920958.400000006,920958.299999997,,920958,,920757.463,4,500,,
break_continue,html.Screen,10_14_2,2023-11-15T21:32:31.841Z,,,,,,,,,,NaN,,,,,,,,low,low,,,,,,false,,,,false,920958.900000006,920958.700000003,,920958.6000000089,,920757.463,4,500,,
sequence,flow.Sequence,10_14,2023-11-15T21:32:31.841Z,,,,,,,,,,7351.263000002946,completion,,,,,,,low,low,,,,,,false,,,,false,920959.1000000089,920958.700000003,913590.513,913807.6000000089,913607.437,920757.463,4,500,,
trial,html.Screen,10_15_0,2023-11-15T21:32:36.704Z,,,,1,0.0478761683145946,-0.012927090508672,,false,hl,5064.037000000011,response,0.9633172970727744,0.7822492911543806,-1.046542255776761,-0.8472659344792351,0.8212619994613414,-1.0175000000000003,high,low,,ISIC_9631669.JPG,8,ISIC_0067172.JPG,37,false,lh,keypress(e),0,false,925821.700000003,925821.5,920740.633,920959.299999997,920757.463,925625.026,4,500,16,
break,html.Screen,10_15_1,2023-11-15T21:32:36.704Z,,,,,,,,,,NaN,,,,,,,,high,low,,,,,,false,,,,false,925822.200000003,925822.1000000089,,925821.900000006,,925625.026,4,500,,
break_continue,html.Screen,10_15_2,2023-11-15T21:32:36.705Z,,,,,,,,,,NaN,,,,,,,,high,low,,,,,,false,,,,false,925822.700000003,925822.400000006,,925822.299999997,,925625.026,4,500,,
sequence,flow.Sequence,10_15,2023-11-15T21:32:36.705Z,,,,,,,,,,5064.937000005972,completion,,,,,,,high,low,,,,,,false,,,,false,925822.799999997,925822.400000006,920740.633,920959.200000003,920757.463,925625.026,4,500,,
trial,html.Screen,10_16_0,2023-11-15T21:32:41.168Z,,,,1,0.0478761683145946,-0.012927090508672,,true,lh,4660.874000006006,response,-1.1898494014853933,0.7822492911543806,-1.046542255776761,0.7016654052924971,0.8212619994613414,-1.0175000000000003,low,high,,ISIC_9631669.JPG,9,ISIC_6324832.JPG,27,false,lh,keypress(e),0,false,930286.200000003,930285.900000006,925590.543,925822.900000006,925625.026,930074.018,4,500,17,
break,html.Screen,10_16_1,2023-11-15T21:32:41.169Z,,,,,,,,,,NaN,,,,,,,,low,high,,,,,,false,,,,false,930286.900000006,930286.799999997,,930286.400000006,,930074.018,4,500,,
break_continue,html.Screen,10_16_2,2023-11-15T21:32:41.169Z,,,,,,,,,,NaN,,,,,,,,low,high,,,,,,false,,,,false,930287.299999997,930287.1000000089,,930287,,930074.018,4,500,,
sequence,flow.Sequence,10_16,2023-11-15T21:32:41.170Z,,,,,,,,,,4662.074000008986,completion,,,,,,,low,high,,,,,,false,,,,false,930287.400000006,930287.1000000089,925590.543,925822.900000006,925625.026,930074.018,4,500,,
trial,html.Screen,10_17_0,2023-11-15T21:32:48.274Z,,,,1,0.0527477970410472,0.0575970798158164,,false,hl,7315.68200000294,response,0.8443403196524287,0.7822492911543806,-1.046542255776761,-0.8858525429102605,0.8212619994613414,-1.0175000000000003,high,low,,ISIC_0667763.JPG,9,ISIC_8777813.JPG,37,false,lh,keypress(e),0,false,937389.900000006,937389.700000003,930057.229,930287.6000000089,930074.018,937190.639,4,500,18,
break,html.Screen,10_17_1,2023-11-15T21:32:48.274Z,,,,,,,,,,NaN,,,,,,,,high,low,,,,,,false,,,,false,937390.5,937390.400000006,,937390.1000000089,,937190.639,4,500,,
break_continue,html.Screen,10_17_2,2023-11-15T21:32:48.275Z,,,,,,,,,,NaN,,,,,,,,high,low,,,,,,false,,,,false,937391,937390.799999997,,937390.700000003,,937190.639,4,500,,
sequence,flow.Sequence,10_17,2023-11-15T21:32:48.275Z,,,,,,,,,,7316.78199999698,completion,,,,,,,high,low,,,,,,false,,,,false,937391.200000003,937390.799999997,930057.229,930287.5,930074.018,937190.639,4,500,,
trial,html.Screen,10_18_0,2023-11-15T21:32:53.410Z,,,,1,0.001445457736793,0.0165307427449982,,false,hh,5335.3610000000335,response,0.9267385554195492,0.7822492911543806,-1.046542255776761,0.6562387054370414,0.8212619994613414,-1.0175000000000003,high,high,,ISIC_0027350.JPG,9,ISIC_0058649.JPG,244,false,hl,keypress(j),0,false,942526.200000003,942526,937174.077,937391.299999997,937190.639,942324.032,4,500,19,
break,html.Screen,10_18_1,2023-11-15T21:32:53.411Z,,,,,,,,,,NaN,,,,,,,,high,high,,,,,,false,,,,false,942527.299999997,942527,,942526.700000003,,942324.032,4,500,,
break_continue,html.Screen,10_18_2,2023-11-15T21:32:53.412Z,,,,,,,,,,NaN,,,,,,,,high,high,,,,,,false,,,,false,942527.900000006,942527.6000000089,,942527.400000006,,942324.032,4,500,,
sequence,flow.Sequence,10_18,2023-11-15T21:32:53.412Z,,,,,,,,,,5336.961000008974,completion,,,,,,,high,high,,,,,,false,,,,false,942528.1000000089,942527.6000000089,937174.077,937391.200000003,937190.639,942324.032,4,500,,
trial,html.Screen,10_19_0,2023-11-15T21:33:01.929Z,,,,1,-0.0715931084231032,0.011427878877272,,false,lh,8721.467999999993,response,-0.9653573371180936,0.7822492911543806,-1.046542255776761,0.854766800381037,0.8212619994613414,-1.0175000000000003,low,high,,ISIC_1470250.JPG,9,ISIC_9640145.JPG,27,false,hh,keypress(i),0,false,951045.6000000089,951045.5,942307.278,942528.299999997,942324.032,950840.768,4,500,20,
break,html.Screen,10_19_1,2023-11-15T21:33:01.930Z,,,,,,,,,,NaN,,,,,,,,low,high,,,,,,false,,,,false,951045.900000006,951045.900000006,,951045.700000003,,950840.768,4,500,,
break_continue,html.Screen,10_19_2,2023-11-15T21:33:01.930Z,,,,,,,,,,NaN,,,,,,,,low,high,,,,,,false,,,,false,951046.1000000089,951046,,951045.900000006,,950840.768,4,500,,
sequence,flow.Sequence,10_19,2023-11-15T21:33:01.930Z,,,,,,,,,,8721.967999999993,completion,,,,,,,low,high,,,,,,false,,,,false,951046.200000003,951046,942307.278,942528.299999997,942324.032,950840.768,4,500,,
trial,html.Screen,10_20_0,2023-11-15T21:33:07.857Z,,,,1,-0.0258224118104549,0.0029364553353019,,false,hl,6132.332000008901,response,0.6003604172800366,0.7822492911543806,-1.046542255776761,-0.958948179228,0.8212619994613414,-1.0175000000000003,high,low,,ISIC_8325226.JPG,9,ISIC_7696538.JPG,37,false,lh,keypress(e),0,false,956973.200000003,956973.1000000089,950824.086,951046.200000003,950840.768,956774.037,4,500,21,
break,html.Screen,10_20_1,2023-11-15T21:33:07.857Z,,,,,,,,,,NaN,,,,,,,,high,low,,,,,,false,,,,false,956973.6000000089,956973.5,,956973.400000006,,956774.037,4,500,,
break_continue,html.Screen,10_20_2,2023-11-15T21:33:07.858Z,,,,,,,,,,NaN,,,,,,,,high,low,,,,,,false,,,,false,956973.900000006,956973.799999997,,956973.700000003,,956774.037,4,500,,
sequence,flow.Sequence,10_20,2023-11-15T21:33:07.858Z,,,,,,,,,,6133.03199999698,completion,,,,,,,high,low,,,,,,false,,,,false,956973.900000006,956973.799999997,950824.086,951046.200000003,950840.768,956774.037,4,500,,
trial,html.Screen,10_21_0,2023-11-15T21:33:11.657Z,,,,1,-0.0606387586319451,-0.0283716809868572,,true,hh,3998.8630000059493,response,0.9619672413799648,0.7822492911543806,-1.046542255776761,1.000847348662667,0.8212619994613414,-1.0175000000000003,high,high,,ISIC_0061158.JPG,9,ISIC_0067205.JPG,244,false,hh,keypress(i),0,false,960773.1000000089,960772.900000006,956757.168,956974,956774.037,960574.01,4,500,22,
break,html.Screen,10_21_1,2023-11-15T21:33:11.657Z,,,,,,,,,,NaN,,,,,,,,high,high,,,,,,false,,,,false,960773.700000003,960773.5,,960773.200000003,,960574.01,4,500,,
break_continue,html.Screen,10_21_2,2023-11-15T21:33:11.658Z,,,,,,,,,,NaN,,,,,,,,high,high,,,,,,false,,,,false,960774,960773.799999997,,960773.799999997,,960574.01,4,500,,
sequence,flow.Sequence,10_21,2023-11-15T21:33:11.658Z,,,,,,,,,,3999.7629999970086,completion,,,,,,,high,high,,,,,,false,,,,false,960774.200000003,960773.799999997,956757.168,956974,956774.037,960574.01,4,500,,
trial,html.Screen,10_22_0,2023-11-15T21:33:18.505Z,,,,1,0.0388334549081915,-0.0303399972963369,,false,lh,7047.489999999991,response,-0.9653573371180936,0.7822492911543806,-1.046542255776761,0.854766800381037,0.8212619994613414,-1.0175000000000003,low,high,,ISIC_4961708.JPG,10,ISIC_9640145.JPG,27,false,hh,keypress(i),0,false,967621.6000000089,967621.5,960557.316,960774.200000003,960574.01,967425.347,4,500,23,
break,html.Screen,10_22_1,2023-11-15T21:33:18.506Z,,,,,,,,,,NaN,,,,,,,,low,high,,,,,,false,,,,false,967622,967621.900000006,,967621.700000003,,967425.347,4,500,,
break_continue,html.Screen,10_22_2,2023-11-15T21:33:18.506Z,,,,,,,,,,NaN,,,,,,,,low,high,,,,,,false,,,,false,967622.299999997,967622.1000000089,,967622,,967425.347,4,500,,
sequence,flow.Sequence,10_22,2023-11-15T21:33:18.506Z,,,,,,,,,,7048.090000008931,completion,,,,,,,low,high,,,,,,false,,,,false,967622.400000006,967622.1000000089,960557.316,960774.200000003,960574.01,967425.347,4,500,,
trial,html.Screen,10_23_0,2023-11-15T21:33:24.657Z,,,,1,-0.0586798548295751,0.0060040805764433,,true,ll,6347.55300000601,response,-0.8919402924145458,0.7822492911543806,-1.046542255776761,-1.0374085478567705,0.8212619994613414,-1.0175000000000003,low,low,,ISIC_1552232.JPG,8,ISIC_0026371.JPG,90,false,ll,keypress(f),0,false,973773.1000000089,973772.900000006,967390.735,967622.400000006,967425.347,973574.045,4,500,24,
break,html.Screen,10_23_1,2023-11-15T21:33:24.657Z,,,,,,,,,,NaN,,,,,,,,low,low,,,,,,false,,,,false,973773.5,973773.299999997,,973773.200000003,,973574.045,4,500,,
break_continue,html.Screen,10_23_2,2023-11-15T21:33:24.657Z,,,,,,,,,,NaN,,,,,,,,low,low,,,,,,false,,,,false,973773.700000003,973773.5,,973773.5,,973574.045,4,500,,
sequence,flow.Sequence,10_23,2023-11-15T21:33:24.657Z,,,,,,,,,,6348.153000000049,completion,,,,,,,low,low,,,,,,false,,,,false,973773.700000003,973773.5,967390.735,967622.400000006,967425.347,973574.045,4,500,,
trial,html.Screen,10_24_0,2023-11-15T21:33:33.674Z,,,,1,0.0123274848503577,-0.0516828290734233,,false,lh,9216.155000002938,response,-0.8644472795202904,0.7822492911543806,-1.046542255776761,0.6717597063424736,0.8212619994613414,-1.0175000000000003,low,high,,ISIC_0056790.JPG,9,ISIC_0057892.JPG,27,false,hh,keypress(i),0,false,982790.400000006,982790.200000003,973557.488,973773.799999997,973574.045,982590.977,4,500,25,
break,html.Screen,10_24_1,2023-11-15T21:33:33.675Z,,,,,,,,,,NaN,,,,,,,,low,high,,,,,,false,,,,false,982791.200000003,982791,,982790.700000003,,982590.977,4,500,,
break_continue,html.Screen,10_24_2,2023-11-15T21:33:33.675Z,,,,,,,,,,NaN,,,,,,,,low,high,,,,,,false,,,,false,982791.799999997,982791.5,,982791.299999997,,982590.977,4,500,,
sequence,flow.Sequence,10_24,2023-11-15T21:33:33.676Z,,,,,,,,,,9217.454999999958,completion,,,,,,,low,high,,,,,,false,,,,false,982792,982791.5,973557.488,973773.799999997,973574.045,982590.977,4,500,,
trial,html.Screen,10_25_0,2023-11-15T21:33:42.297Z,,,,1,0.0200376619013301,0.0451764418954947,,true,lh,8822.223000003025,response,-0.8493817247965978,0.7822492911543806,-1.046542255776761,0.6545324227286122,0.8212619994613414,-1.0175000000000003,low,high,,ISIC_0026087.JPG,10,ISIC_0030219.JPG,27,false,lh,keypress(e),0,false,991413.299999997,991413.200000003,982574.035,982792.1000000089,982590.977,991207.434,4,500,26,
break,html.Screen,10_25_1,2023-11-15T21:33:42.297Z,,,,,,,,,,NaN,,,,,,,,low,high,,,,,,false,,,,false,991413.700000003,991413.6000000089,,991413.400000006,,991207.434,4,500,,
break_continue,html.Screen,10_25_2,2023-11-15T21:33:42.298Z,,,,,,,,,,NaN,,,,,,,,low,high,,,,,,false,,,,false,991414,991413.900000006,,991413.700000003,,991207.434,4,500,,
sequence,flow.Sequence,10_25,2023-11-15T21:33:42.298Z,,,,,,,,,,8822.923000006005,completion,,,,,,,low,high,,,,,,false,,,,false,991414.1000000089,991413.900000006,982574.035,982792.1000000089,982590.977,991207.434,4,500,,
trial,html.Screen,10_26_0,2023-11-15T21:33:48.347Z,,,,1,-0.0367706518941078,0.0161069838272154,,false,hl,6253.966000005952,response,0.6739044665672069,0.7822492911543806,-1.046542255776761,-0.908941600707678,0.8212619994613414,-1.0175000000000003,high,low,,ISIC_0033419.JPG,9,ISIC_2244564.JPG,37,false,ll,keypress(f),0,false,997461.5,997461.400000006,991190.44,991414.1000000089,991207.434,997257.395,4,500,27,
break,html.Screen,10_26_1,2023-11-15T21:33:48.347Z,,,,,,,,,,NaN,,,,,,,,high,low,,,,,,false,,,,false,997461.900000006,997461.799999997,,997461.700000003,,997257.395,4,500,,
break_continue,html.Screen,10_26_2,2023-11-15T21:33:48.347Z,,,,,,,,,,NaN,,,,,,,,high,low,,,,,,false,,,,false,997462.1000000089,997462.1000000089,,997461.900000006,,997257.395,4,500,,
sequence,flow.Sequence,10_26,2023-11-15T21:33:48.347Z,,,,,,,,,,6254.666000008932,completion,,,,,,,high,low,,,,,,false,,,,false,997462.200000003,997462.1000000089,991190.44,991414.1000000089,991207.434,997257.395,4,500,,
trial,html.Screen,10_27_0,2023-11-15T21:33:57.507Z,,,,1,-0.0462522625051681,-0.0088419594888635,,false,hh,9364.104999999981,response,0.7217466853250509,0.7822492911543806,-1.046542255776761,0.8448637774265015,0.8212619994613414,-1.0175000000000003,high,high,,ISIC_1945381.JPG,9,ISIC_0030780.JPG,244,false,hl,keypress(j),0,false,1006621.6000000089,1006621.5,997240.66,997462.200000003,997257.395,1006425.103,4,500,28,
break,html.Screen,10_27_1,2023-11-15T21:33:57.507Z,,,,,,,,,,NaN,,,,,,,,high,high,,,,,,false,,,,false,1006622.1000000089,1006622.1000000089,,1006621.799999997,,1006425.103,4,500,,
break_continue,html.Screen,10_27_2,2023-11-15T21:33:57.508Z,,,,,,,,,,NaN,,,,,,,,high,high,,,,,,false,,,,false,1006622.5,1006622.299999997,,1006622.200000003,,1006425.103,4,500,,
sequence,flow.Sequence,10_27,2023-11-15T21:33:57.508Z,,,,,,,,,,9364.904999997001,completion,,,,,,,high,high,,,,,,false,,,,false,1006622.6000000089,1006622.299999997,997240.66,997462.200000003,997257.395,1006425.103,4,500,,
trial,html.Screen,10_28_0,2023-11-15T21:34:01.787Z,,,,1,0.0586587895724749,0.0220047273041276,,false,lh,4476.297000005958,response,-0.8644472795202904,0.7822492911543806,-1.046542255776761,0.6717597063424736,0.8212619994613414,-1.0175000000000003,low,high,,ISIC_0028320.JPG,9,ISIC_0057892.JPG,27,false,hh,keypress(i),0,false,1010901.6000000089,1010901.400000006,1006390.684,1006622.700000003,1006425.103,1010690.778,4,500,29,
break,html.Screen,10_28_1,2023-11-15T21:34:01.787Z,,,,,,,,,,NaN,,,,,,,,low,high,,,,,,false,,,,false,1010902,1010901.799999997,,1010901.700000003,,1010690.778,4,500,,
break_continue,html.Screen,10_28_2,2023-11-15T21:34:01.787Z,,,,,,,,,,NaN,,,,,,,,low,high,,,,,,false,,,,false,1010902.200000003,1010902.1000000089,,1010902,,1010690.778,4,500,,
sequence,flow.Sequence,10_28,2023-11-15T21:34:01.787Z,,,,,,,,,,4476.997000008938,completion,,,,,,,low,high,,,,,,false,,,,false,1010902.299999997,1010902.1000000089,1006390.684,1006622.6000000089,1006425.103,1010690.778,4,500,,
trial,html.Screen,10_29_0,2023-11-15T21:34:05.651Z,,,,1,-0.0105349256029223,0.0723574625425557,,false,ll,4075.0219999969704,response,-0.9249180304825352,0.7822492911543806,-1.046542255776761,-0.9557254346276748,0.8212619994613414,-1.0175000000000003,low,low,,ISIC_0058998.JPG,9,ISIC_6778515.JPG,90,false,hh,keypress(i),0,false,1014766,1014765.799999997,1010674.182,1010902.400000006,1010690.778,1014557.505,4,500,30,
break,html.Screen,10_29_1,2023-11-15T21:34:05.651Z,,,,,,,,,,NaN,,,,,,,,low,low,,,,,,false,,,,false,1014766.299999997,1014766.200000003,,1014766.1000000089,,1014557.505,4,500,,
break_continue,html.Screen,10_29_2,2023-11-15T21:34:05.652Z,,,,,,,,,,NaN,,,,,,,,low,low,,,,,,false,,,,false,1014766.5,1014766.5,,1014766.400000006,,1014557.505,4,500,,
sequence,flow.Sequence,10_29,2023-11-15T21:34:05.652Z,,,,,,,,,,4075.7219999999506,completion,,,,,,,low,low,,,,,,false,,,,false,1014766.6000000089,1014766.5,1010674.182,1010902.400000006,1010690.778,1014557.505,4,500,,
trial,html.Screen,10_30_0,2023-11-15T21:34:09.138Z,,,,1,-0.0718464495991687,0.0429653518314044,,false,lh,3695.4949999999953,response,-0.864159288143104,0.7822492911543806,-1.046542255776761,0.6456269226301533,0.8212619994613414,-1.0175000000000003,low,high,,ISIC_0028597.JPG,8,ISIC_0238570.JPG,27,false,hh,keypress(i),0,false,1018253.1000000089,1018253,1014540.873,1014766.700000003,1014557.505,1018040.774,4,500,31,
break,html.Screen,10_30_1,2023-11-15T21:34:09.138Z,,,,,,,,,,NaN,,,,,,,,low,high,,,,,,false,,,,false,1018253.400000006,1018253.400000006,,1018253.200000003,,1018040.774,4,500,,
break_continue,html.Screen,10_30_2,2023-11-15T21:34:09.139Z,,,,,,,,,,NaN,,,,,,,,low,high,,,,,,false,,,,false,1018253.6000000089,1018253.5,,1018253.5,,1018040.774,4,500,,
sequence,flow.Sequence,10_30,2023-11-15T21:34:09.139Z,,,,,,,,,,3695.9949999999953,completion,,,,,,,low,high,,,,,,false,,,,false,1018253.700000003,1018253.5,1014540.873,1014766.6000000089,1014557.505,1018040.774,4,500,,
trial,html.Screen,10_31_0,2023-11-15T21:34:19.910Z,,,,1,-0.0076984477620101,-0.0069458408496562,,,,10783.45299999998,timeout,0.6451928502216471,0.7822492911543806,-1.046542255776761,-0.9025935080849524,0.8212619994613414,-1.0175000000000003,high,low,,ISIC_0000434.JPG,10,ISIC_5545874.JPG,37,false,,,0,false,1029024.6000000089,1029024.5,1018024.14,1018253.700000003,1018040.774,1028824.227,4,500,32,
break,html.Screen,10_31_1,2023-11-15T21:34:19.910Z,,,,,,,,,,NaN,,,,,,,,high,low,,,,,,false,,,,false,1029025.200000003,1029025,,1029024.799999997,,1028824.227,4,500,,
break_continue,html.Screen,10_31_2,2023-11-15T21:34:19.911Z,,,,,,,,,,NaN,,,,,,,,high,low,,,,,,false,,,,false,1029025.6000000089,1029025.400000006,,1029025.299999997,,1028824.227,4,500,,
sequence,flow.Sequence,10_31,2023-11-15T21:34:19.911Z,,,,,,,,,,10984.626000005985,completion,,,,,,,high,low,,,,,,false,,,,false,1029025.700000003,1029025.400000006,1018024.14,1018253.700000003,1018040.774,1028824.227,4,500,,
trial,html.Screen,10_32_0,2023-11-15T21:34:25.970Z,,,,1,0.039520186367207,0.0377961575607372,,false,hl,6260.873000008985,response,0.6546079444168281,0.7822492911543806,-1.046542255776761,-1.1750459687878738,0.8212619994613414,-1.0175000000000003,high,low,,ISIC_6356149.JPG,9,ISIC_4352700.JPG,37,false,hh,keypress(i),0,false,1035085.200000003,1035085.1000000089,1028807.572,1029025.799999997,1028824.227,1034874.115,4,500,33,
break,html.Screen,10_32_1,2023-11-15T21:34:25.971Z,,,,,,,,,,NaN,,,,,,,,high,low,,,,,,false,,,,false,1035085.6000000089,1035085.400000006,,1035085.299999997,,1034874.115,4,500,,
break_continue,html.Screen,10_32_2,2023-11-15T21:34:25.971Z,,,,,,,,,,NaN,,,,,,,,high,low,,,,,,false,,,,false,1035085.900000006,1035085.700000003,,1035085.6000000089,,1034874.115,4,500,,
sequence,flow.Sequence,10_32,2023-11-15T21:34:25.971Z,,,,,,,,,,6261.473000003025,completion,,,,,,,high,low,,,,,,false,,,,false,1035085.900000006,1035085.700000003,1028807.572,1029025.799999997,1028824.227,1034874.115,4,500,,
trial,html.Screen,10_33_0,2023-11-15T21:34:32.786Z,,,,1,-0.0249297455748133,0.055986418955019,,false,hh,7027.08500000299,response,0.8330492069844534,0.7822492911543806,-1.046542255776761,0.65616648623912,0.8212619994613414,-1.0175000000000003,high,high,,ISIC_3900049.JPG,9,ISIC_0033512.JPG,244,false,hl,keypress(j),0,false,1041901.299999997,1041901.200000003,1034857.275,1035085.900000006,1034874.115,1041690.819,4,500,34,
break,html.Screen,10_33_1,2023-11-15T21:34:32.787Z,,,,,,,,,,NaN,,,,,,,,high,high,,,,,,false,,,,false,1041901.700000003,1041901.6000000089,,1041901.400000006,,1041690.819,4,500,,
break_continue,html.Screen,10_33_2,2023-11-15T21:34:32.787Z,,,,,,,,,,NaN,,,,,,,,high,high,,,,,,false,,,,false,1041901.900000006,1041901.799999997,,1041901.700000003,,1041690.819,4,500,,
sequence,flow.Sequence,10_33,2023-11-15T21:34:32.787Z,,,,,,,,,,7027.684999997029,completion,,,,,,,high,high,,,,,,false,,,,false,1041901.900000006,1041901.799999997,1034857.275,1035085.900000006,1034874.115,1041690.819,4,500,,
trial,html.Screen,10_34_0,2023-11-15T21:34:36.506Z,,,,1,0.0175203912019758,0.0427513576747051,,false,hh,3930.1809999999823,response,0.9089083807314456,0.7822492911543806,-1.046542255776761,0.635410285078461,0.8212619994613414,-1.0175000000000003,high,high,,ISIC_0056292.JPG,8,ISIC_0032671.JPG,244,false,lh,keypress(e),0,false,1045621.200000003,1045621,1041674.177,1041902,1041690.819,1045425.597,4,500,35,
break,html.Screen,10_34_1,2023-11-15T21:34:36.507Z,,,,,,,,,,NaN,,,,,,,,high,high,,,,,,false,,,,false,1045621.5,1045621.400000006,,1045621.299999997,,1045425.597,4,500,,
break_continue,html.Screen,10_34_2,2023-11-15T21:34:36.507Z,,,,,,,,,,NaN,,,,,,,,high,high,,,,,,false,,,,false,1045621.6000000089,1045621.6000000089,,1045621.5,,1045425.597,4,500,,
sequence,flow.Sequence,10_34,2023-11-15T21:34:36.507Z,,,,,,,,,,3930.781000008923,completion,,,,,,,high,high,,,,,,false,,,,false,1045621.799999997,1045621.6000000089,1041674.177,1041902,1041690.819,1045425.597,4,500,,
trial,html.Screen,10_35_0,2023-11-15T21:34:43.603Z,,,,1,0.0164027439304477,-0.0082910758715273,,false,hl,7292.00300000899,response,0.6493357552537865,0.7822492911543806,-1.046542255776761,-1.085710894474977,0.8212619994613414,-1.0175000000000003,high,low,,ISIC_7381224.JPG,9,ISIC_0013644.JPG,37,false,lh,keypress(e),0,false,1052717.900000006,1052717.600000009,1045390.839,1045621.799999997,1045425.597,1052507.52,4,500,36,
break,html.Screen,10_35_1,2023-11-15T21:34:43.604Z,,,,,,,,,,NaN,,,,,,,,high,low,,,,,,false,,,,false,1052718.600000009,1052718.400000006,,1052718.100000009,,1052507.52,4,500,,
break_continue,html.Screen,10_35_2,2023-11-15T21:34:43.604Z,,,,,,,,,,NaN,,,,,,,,high,low,,,,,,false,,,,false,1052719.100000009,1052718.900000006,,1052718.700000003,,1052507.52,4,500,,
sequence,flow.Sequence,10_35,2023-11-15T21:34:43.604Z,,,,,,,,,,7293.30300000601,completion,,,,,,,high,low,,,,,,false,,,,false,1052719.299999997,1052718.900000006,1045390.839,1045621.799999997,1045425.597,1052507.52,4,500,,
trial,html.Screen,10_36_0,2023-11-15T21:34:50.660Z,,,,1,-0.0727065082131878,-0.0601627969482033,,false,hl,7265.580000008922,response,0.6761608723588025,0.7822492911543806,-1.046542255776761,-1.0058174828582729,0.8212619994613414,-1.0175000000000003,high,low,,ISIC_2245069.JPG,12,ISIC_1343302.JPG,37,false,lh,keypress(e),0,false,1059773.299999997,1059773.100000009,1052490.896,1052719.400000006,1052507.52,1059574.191,4,500,37,
break,html.Screen,10_36_1,2023-11-15T21:34:50.660Z,,,,,,,,,,NaN,,,,,,,,high,low,,,,,,false,,,,false,1059773.700000003,1059773.600000009,,1059773.5,,1059574.191,4,500,,
break_continue,html.Screen,10_36_2,2023-11-15T21:34:50.661Z,,,,,,,,,,NaN,,,,,,,,high,low,,,,,,false,,,,false,1059774.100000009,1059773.799999997,,1059773.799999997,,1059574.191,4,500,,
sequence,flow.Sequence,10_36,2023-11-15T21:34:50.661Z,,,,,,,,,,7266.279999997001,completion,,,,,,,high,low,,,,,,false,,,,false,1059774.400000006,1059773.799999997,1052490.896,1052719.400000006,1052507.52,1059574.191,4,500,,
trial,html.Screen,10_37_0,2023-11-15T21:34:56.372Z,,,,1,-0.0119001144851157,0.0063430114540141,,false,ll,5911.108999996912,response,-1.090663233695186,0.7822492911543806,-1.046542255776761,-0.832189069975425,0.8212619994613414,-1.0175000000000003,low,low,,ISIC_0003822.JPG,10,ISIC_0057344.JPG,90,false,lh,keypress(e),0,false,1065485.5,1065485.299999997,1059557.435,1059774.400000006,1059574.191,1065274.174,4,500,38,
break,html.Screen,10_37_1,2023-11-15T21:34:56.372Z,,,,,,,,,,NaN,,,,,,,,low,low,,,,,,false,,,,false,1065485.900000006,1065485.799999997,,1065485.600000009,,1065274.174,4,500,,
