sender,sender_type,sender_id,timestamp,meta,,age,blockNo,c1,c2,condition,correct,correctResponse,duration,ended_on,f1,f1_high,f1_low,f2,f2_high,f2_low,feature_level1,feature_level2,gender,img_left,img_reveal,img_right,n_target_images,practice,response,response_action,selection_duration,staircase,time_commit,time_end,time_render,time_run,time_show,time_switch,total_blocks,total_trials,trialNo,url
informed_consent,html.Screen,0,2023-11-15T17:45:03.701Z,"{""labjs_version"":""20.2.4"",""labjs_build"":{""flavor"":""development"",""commit"":""f5b4a49f956347addd546a832a3327688c2c0fef""},""location"":""https://labjs.felixhenninger.com/api/labjs_preview/index.html"",""userAgent"":""Mozilla/5.0 (Windows NT 10.0; Win64; x64) AppleWebKit/537.36 (KHTML, like Gecko) Chrome/119.0.0.0 Safari/537.36"",""platform"":""Win32"",""language"":""en-US"",""locale"":""en-US"",""timeZone"":""America/Chicago"",""timezoneOffset"":360,""screen_width"":1920,""screen_height"":1080,""scroll_width"":945,""scroll_height"":918,""window_innerWidth"":945,""window_innerHeight"":966,""devicePixelRatio"":1}",,,,,,,,,14871.917999976158,response,,,,,,,,,,,,,,,consent,click button,,,15402.399999976158,15395.899999976158,507.333,647.6000000238419,523.982,15274.207,,,,{}
Demography form,html.Form,1,2023-11-15T17:45:20.663Z,,,18,,,,,,,17089.292999999998,form submission,,,,,,,,,female,,,,,,,,,,32363.600000023842,32363.5,15257.565,15402.600000023842,15274.207,32240.797,,,,
Welcome,html.Screen,2,2023-11-15T17:45:21.647Z,,,,,,,"[""asym"",""bor""]",,,1107.0030000119223,response,,,,,,,,,,,,,,,continue,click button,,,33348.30000001192,33347.80000001192,32223.987,32363.80000001192,32240.797,33240.884,,,,
demo_instructions,html.Screen,3,2023-11-15T17:45:40.287Z,,,,,,,,,,18746.916000011923,response,,,,,,,,,,,,,,,continue,click button,,,51988.39999997616,51987.80000001192,33224.4,33348.30000001192,33240.884,51857.256,,,,
trial,html.Screen,4_0_0,2023-11-15T17:45:44.749Z,,,,0,0.948927472020595,-1.0660437155921598,,true,lh,4592.54400001192,response,-1.2075172235545184,1.0499999999999998,-1.0499999999999998,0.9116724966267612,1.0499999999999998,-1.0499999999999998,low,high,,ISIC_5808758.JPG,,ISIC_0024235.JPG,21,true,lh,keypress(e),100,false,56450,56449.80000001192,51840.846,51988.60000002384,51857.256,56340.81,1,16,1,
sequence,flow.Sequence,4_0,2023-11-15T17:45:44.749Z,,,,,,,,,,4592.54400001192,completion,,,,,,,low,high,,,,,,true,,,,false,56450.19999998808,56449.80000001192,51840.846,51988.60000002384,51857.256,56340.81,1,16,,
trial,html.Screen,4_1_0,2023-11-15T17:45:47.136Z,,,,0,1.0213365328004047,-1.088524359911891,,true,lh,2496.0899999761605,response,-1.011737552725394,1.0499999999999998,-1.0499999999999998,0.8500530224490773,1.0499999999999998,-1.0499999999999998,low,high,,ISIC_5434229.JPG,,ISIC_2998367.JPG,21,true,lh,keypress(e),100,false,58837.10000002384,58836.89999997616,56323.96,56450.19999998808,56340.81,58723.938,1,16,2,
sequence,flow.Sequence,4_1,2023-11-15T17:45:47.136Z,,,,,,,,,,2496.0899999761605,completion,,,,,,,low,high,,,,,,true,,,,false,58837.30000001192,58836.89999997616,56323.96,56450.19999998808,56340.81,58723.938,1,16,,
trial,html.Screen,4_2_0,2023-11-15T17:45:51.027Z,,,,0,0.8655167308525522,-0.9298580423306444,,true,lh,4003.761999988077,response,-1.0751036484083878,1.0499999999999998,-1.0499999999999998,1.143906455483852,1.0499999999999998,-1.0499999999999998,low,high,,ISIC_4603706.JPG,,ISIC_0064406.JPG,21,true,lh,keypress(e),100,false,62728,62727.69999998808,58707.282,58837.39999997616,58723.938,62607.204,1,16,3,
sequence,flow.Sequence,4_2,2023-11-15T17:45:51.027Z,,,,,,,,,,4003.761999988077,completion,,,,,,,low,high,,,,,,true,,,,false,62728.30000001192,62727.69999998808,58707.282,58837.39999997616,58723.938,62607.204,1,16,,
trial,html.Screen,4_3_0,2023-11-15T17:45:53.574Z,,,,0,0.948927472020595,-1.0660437155921598,,true,lh,2668.096000011923,response,-0.8809306963311293,1.0499999999999998,-1.0499999999999998,0.8614910030038974,1.0499999999999998,-1.0499999999999998,low,high,,ISIC_5808758.JPG,,ISIC_0013731.JPG,21,true,lh,keypress(e),100,false,65275.5,65275.30000001192,62590.583,62728.39999997616,62607.204,65157.748,1,16,4,
sequence,flow.Sequence,4_3,2023-11-15T17:45:53.574Z,,,,,,,,,,2668.096000011923,completion,,,,,,,low,high,,,,,,true,,,,false,65275.60000002384,65275.30000001192,62590.583,62728.39999997616,62607.204,65157.748,1,16,,
trial,html.Screen,4_4_0,2023-11-15T17:45:59.033Z,,,,0,1.2055236989581275,0.9077872390456172,,true,ll,5576.052000011921,response,-0.9029354290897352,1.0499999999999998,-1.0499999999999998,-1.1346860677105404,1.0499999999999998,-1.0499999999999998,low,low,,ISIC_0072393.JPG,,ISIC_4153687.JPG,111,true,ll,keypress(f),100,false,70734,70733.80000001192,65140.583,65275.69999998808,65157.748,70623.924,1,16,5,
sequence,flow.Sequence,4_4,2023-11-15T17:45:59.033Z,,,,,,,,,,5576.052000011921,completion,,,,,,,low,low,,,,,,true,,,,false,70734.19999998808,70733.80000001192,65140.583,65275.69999998808,65157.748,70623.924,1,16,,
trial,html.Screen,4_5_0,2023-11-15T17:46:01.820Z,,,,0,1.120374872349494,0.9666765976151852,,true,ll,2897.076000000001,response,-1.0406934755278734,1.0499999999999998,-1.0499999999999998,-1.2406966347110775,1.0499999999999998,-1.0499999999999998,low,low,,ISIC_0011948.JPG,,ISIC_2687641.JPG,111,true,ll,keypress(f),100,false,73521.30000001192,73521,70607.29,70734.19999998808,70623.924,73407.419,1,16,6,
sequence,flow.Sequence,4_5,2023-11-15T17:46:01.820Z,,,,,,,,,,2897.076000000001,completion,,,,,,,low,low,,,,,,true,,,,false,73521.39999997616,73521,70607.29,70734.19999998808,70623.924,73407.419,1,16,,
trial,html.Screen,4_6_0,2023-11-15T17:46:04.415Z,,,,0,0.8946880006769797,0.9198276163642348,,true,ll,2708.6810000238474,response,-1.212030980680325,1.0499999999999998,-1.0499999999999998,-1.033832433609739,1.0499999999999998,-1.0499999999999998,low,low,,ISIC_7840728.JPG,,ISIC_0008510.JPG,111,true,ll,keypress(f),100,false,76116.10000002384,76116.10000002384,73390.858,73521.39999997616,73407.419,76007.294,1,16,7,
sequence,flow.Sequence,4_6,2023-11-15T17:46:04.415Z,,,,,,,,,,2708.6810000238474,completion,,,,,,,low,low,,,,,,true,,,,false,76116.30000001192,76116.10000002384,73390.858,73521.39999997616,73407.419,76007.294,1,16,,
trial,html.Screen,4_7_0,2023-11-15T17:46:06.065Z,,,,0,0.9866439901618108,0.9294281370493894,,true,ll,1758.6059999761637,response,-0.9029354290897352,1.0499999999999998,-1.0499999999999998,-1.1346860677105404,1.0499999999999998,-1.0499999999999998,low,low,,ISIC_0072953.JPG,,ISIC_4153687.JPG,111,true,ll,keypress(f),100,false,77766,77765.89999997616,75990.829,76116.30000001192,76007.294,77657.691,1,16,8,
sequence,flow.Sequence,4_7,2023-11-15T17:46:06.065Z,,,,,,,,,,1758.6059999761637,completion,,,,,,,low,low,,,,,,true,,,,false,77766.19999998808,77765.89999997616,75990.829,76116.30000001192,76007.294,77657.691,1,16,,
trial,html.Screen,4_8_0,2023-11-15T17:46:08.628Z,,,,0,-1.0865333402803938,1.0542635307358266,,true,hl,2671.1090000119148,response,0.8035152873995188,0.9499999999999997,-0.9499999999999997,-0.82868450251632,0.9499999999999997,-0.9499999999999997,high,low,,ISIC_0034006.JPG,,ISIC_0010671.JPG,26,true,hl,keypress(j),100,false,80328.89999997616,80328.80000001192,77640.835,77766.30000001192,77657.691,80223.898,1,16,9,
sequence,flow.Sequence,4_8,2023-11-15T17:46:08.628Z,,,,,,,,,,2671.1090000119148,completion,,,,,,,high,low,,,,,,true,,,,false,80329.19999998808,80328.80000001192,77640.835,77766.19999998808,77657.691,80223.898,1,16,,
trial,html.Screen,4_9_0,2023-11-15T17:46:10.487Z,,,,0,-0.8809306963311293,0.8614910030038974,,true,hl,1963.7020000238408,response,0.7638895244791114,0.9499999999999997,-0.9499999999999997,-0.7780412100090998,0.9499999999999997,-0.9499999999999997,high,low,,ISIC_0013731.JPG,,ISIC_0026516.JPG,26,true,hl,keypress(j),100,false,82187.80000001192,82187.60000002384,80207.251,80329.30000001192,80223.898,82074.337,1,16,10,
sequence,flow.Sequence,4_9,2023-11-15T17:46:10.487Z,,,,,,,,,,1963.7020000238408,completion,,,,,,,high,low,,,,,,true,,,,false,82187.89999997616,82187.60000002384,80207.251,80329.30000001192,80223.898,82074.337,1,16,,
trial,html.Screen,4_10_0,2023-11-15T17:46:12.537Z,,,,0,-1.011737552725394,0.8500530224490773,,true,hl,2163.3629999880795,response,0.9873794329144926,0.9499999999999997,-0.9499999999999997,-0.7991077882008257,0.9499999999999997,-0.9499999999999997,high,low,,ISIC_2998367.JPG,,ISIC_0013498.JPG,26,true,hl,keypress(j),100,false,84237.69999998808,84237.69999998808,82057.492,82187.89999997616,82074.337,84124.333,1,16,11,
sequence,flow.Sequence,4_10,2023-11-15T17:46:12.537Z,,,,,,,,,,2163.3629999880795,completion,,,,,,,high,low,,,,,,true,,,,false,84237.89999997616,84237.69999998808,82057.492,82187.89999997616,82074.337,84124.333,1,16,,
trial,html.Screen,4_11_0,2023-11-15T17:46:14.043Z,,,,0,-1.0026266089287914,1.0913275913920335,,true,hl,1620.0669999761594,response,0.8035152873995188,0.9499999999999997,-0.9499999999999997,-0.82868450251632,0.9499999999999997,-0.9499999999999997,high,low,,ISIC_0033520.JPG,,ISIC_0010671.JPG,26,true,hl,keypress(j),100,false,85744.60000002384,85744.39999997616,84107.491,84237.89999997616,84124.333,85624.15,1,16,12,
sequence,flow.Sequence,4_11,2023-11-15T17:46:14.044Z,,,,,,,,,,1620.0669999761594,completion,,,,,,,high,low,,,,,,true,,,,false,85744.69999998808,85744.39999997616,84107.491,84237.89999997616,84124.333,85624.15,1,16,,
trial,html.Screen,4_12_0,2023-11-15T17:46:15.934Z,,,,0,-0.7798182602765784,-0.8643036808931337,,true,hh,2011.1500000119267,response,0.832159339500865,0.9499999999999997,-0.9499999999999997,1.0220452236621858,0.9499999999999997,-0.9499999999999997,high,high,,ISIC_6703027.JPG,,ISIC_0011848.JPG,167,true,hh,keypress(i),100,false,87635.5,87635.30000001192,85607.363,85744.69999998808,85624.15,87523.941,1,16,13,
sequence,flow.Sequence,4_12,2023-11-15T17:46:15.934Z,,,,,,,,,,2011.1500000119267,completion,,,,,,,high,high,,,,,,true,,,,false,87635.60000002384,87635.30000001192,85607.363,85744.69999998808,85624.15,87523.941,1,16,,
trial,html.Screen,4_13_0,2023-11-15T17:46:18.193Z,,,,0,-0.8318514901182542,-0.9538458994523976,,true,hh,2369.958999976152,response,0.8745213387814831,0.9499999999999997,-0.9499999999999997,0.7523163498880049,0.9499999999999997,-0.9499999999999997,high,high,,ISIC_3161477.JPG,,ISIC_0054677.JPG,167,true,hh,keypress(i),100,false,89894.19999998808,89893.89999997616,87507.487,87635.60000002384,87523.941,89773.831,1,16,14,
sequence,flow.Sequence,4_13,2023-11-15T17:46:18.193Z,,,,,,,,,,2369.958999976152,completion,,,,,,,high,high,,,,,,true,,,,false,89894.39999997616,89893.89999997616,87507.487,87635.60000002384,87523.941,89773.831,1,16,,
trial,html.Screen,4_14_0,2023-11-15T17:46:22.211Z,,,,0,-0.7877297643782052,-1.0484741330672678,,true,hh,4138.469000011915,response,0.829888603887684,0.9499999999999997,-0.9499999999999997,0.8001360017471091,0.9499999999999997,-0.9499999999999997,high,high,,ISIC_6326803.JPG,,ISIC_0012369.JPG,167,true,hh,keypress(i),100,false,93912.5,93912.30000001192,89757.203,89894.39999997616,89773.831,93807.256,1,16,15,
sequence,flow.Sequence,4_14,2023-11-15T17:46:22.212Z,,,,,,,,,,4138.469000011915,completion,,,,,,,high,high,,,,,,true,,,,false,93912.60000002384,93912.30000001192,89757.203,89894.39999997616,89773.831,93807.256,1,16,,
trial,html.Screen,4_15_0,2023-11-15T17:46:24.230Z,,,,0,-0.8985413691921805,-1.1177351920180405,,true,hh,2124.044000011927,response,0.7749816372238512,0.9499999999999997,-0.9499999999999997,0.9483461637567244,0.9499999999999997,-0.9499999999999997,high,high,,ISIC_2805573.JPG,,ISIC_0065943.JPG,167,true,hh,keypress(i),100,false,95931.39999997616,95931.30000001192,93790.739,93912.69999998808,93807.256,95824.032,1,16,16,
sequence,flow.Sequence,4_15,2023-11-15T17:46:24.230Z,,,,,,,,,,2124.044000011927,completion,,,,,,,high,high,,,,,,true,,,,false,95931.60000002384,95931.30000001192,93790.739,93912.69999998808,93807.256,95824.032,1,16,,
demonstration_loop,flow.Loop,4,2023-11-15T17:46:24.230Z,,,,,,,,,,44074.04400001192,completion,,,,,,,,,,,,,,true,,,,false,95931.60000002384,95931.30000001192,51840.846,51988.60000002384,51857.256,95824.032,1,16,,
practice_instructions,html.Screen,5,2023-11-15T17:46:28.821Z,,,,,,,,,,4691.667999988073,response,,,,,,,,,,,,,,,continue,click button,,,100521.69999998808,100515.69999998808,95807.259,95931.60000002384,95824.032,100390.525,,,,
trial,html.Screen,6_0_0,2023-11-15T17:46:35.271Z,,,,1,-0.8534691366511764,1.03975580494588,,false,hl,6576.575000023848,response,0.796241477082623,0.9499999999999997,-0.9499999999999997,-0.9017449335975743,0.9499999999999997,-0.9499999999999997,high,low,,ISIC_0056788.JPG,,ISIC_8588033.JPG,26,true,hh,keypress(i),0,false,106972.10000002384,106967.10000002384,100374.132,100521.80000001192,100390.525,106857.224,1,40,1,
sequence,flow.Sequence,6_0,2023-11-15T17:46:35.271Z,,,,,,,,,,6576.575000023848,completion,,,,,,,high,low,,,,,,true,,,,false,106972.19999998808,106967.10000002384,100374.132,100521.80000001192,100390.525,106857.224,1,40,,
trial,html.Screen,6_1_0,2023-11-15T17:46:44.641Z,,,,1,-1.0865333402803938,1.0542635307358266,,true,hl,9484.076000011919,response,0.9388660854518424,0.9499999999999997,-0.9499999999999997,-0.79533948698576,0.9499999999999997,-0.9499999999999997,high,low,,ISIC_0034006.JPG,,ISIC_9291926.JPG,26,true,hl,keypress(j),0,false,116341.5,116341.30000001192,106840.54,106972.30000001192,106857.224,116207.175,1,40,2,
sequence,flow.Sequence,6_1,2023-11-15T17:46:44.641Z,,,,,,,,,,9484.076000011919,completion,,,,,,,high,low,,,,,,true,,,,false,116341.5,116341.30000001192,106840.54,106972.30000001192,106857.224,116207.175,1,40,,
trial,html.Screen,6_2_0,2023-11-15T17:46:51.488Z,,,,1,0.7572081681523501,1.1153245416918625,,true,ll,6982.024999988076,response,-1.0769490291795207,0.9499999999999997,-0.9499999999999997,-1.0174515954885954,0.9499999999999997,-0.9499999999999997,low,low,,ISIC_5837098.JPG,,ISIC_0028135.JPG,142,true,ll,keypress(f),0,false,123189.30000001192,123189.19999998808,116190.382,116341.60000002384,116207.175,123057.13,1,40,3,
sequence,flow.Sequence,6_2,2023-11-15T17:46:51.489Z,,,,,,,,,,6982.024999988076,completion,,,,,,,low,low,,,,,,true,,,,false,123189.39999997616,123189.19999998808,116190.382,116341.60000002384,116207.175,123057.13,1,40,,
trial,html.Screen,6_3_0,2023-11-15T17:47:00.096Z,,,,1,-0.8586909757509995,-1.0893508435831143,,true,hh,8739.670000011916,response,1.0570568707560892,0.9499999999999997,-0.9499999999999997,0.8316850702452728,0.9499999999999997,-0.9499999999999997,high,high,,ISIC_0003111.JPG,,ISIC_0059294.JPG,167,true,hh,keypress(i),0,false,131797,131796.80000001192,123040.542,123189.5,123057.13,131674.085,1,40,4,
sequence,flow.Sequence,6_3,2023-11-15T17:47:00.096Z,,,,,,,,,,8739.670000011916,completion,,,,,,,high,high,,,,,,true,,,,false,131797.10000002384,131796.80000001192,123040.542,123189.5,123057.13,131674.085,1,40,,
trial,html.Screen,6_4_0,2023-11-15T17:47:11.094Z,,,,1,1.0122398223568725,-0.7505228537454216,,,,11016.595000000001,timeout,-0.879102500583965,0.9499999999999997,-0.9499999999999997,1.0933081951979773,0.9499999999999997,-0.9499999999999997,low,high,,ISIC_0033802.JPG,,ISIC_0046223.JPG,28,true,,,0,false,142794.5,142794.30000001192,131657.082,131797.10000002384,131674.085,142690.68,1,40,5,
sequence,flow.Sequence,6_4,2023-11-15T17:47:11.094Z,,,,,,,,,,11120.215000011929,completion,,,,,,,low,high,,,,,,true,,,,false,142794.60000002384,142794.30000001192,131657.082,131797.10000002384,131674.085,142690.68,1,40,,
trial,html.Screen,6_5_0,2023-11-15T17:47:13.632Z,,,,1,-0.7959241725897693,-1.0541742265379377,,true,hh,2642.620000011928,response,0.9303508808523768,0.9499999999999997,-0.9499999999999997,0.8525034055687026,0.9499999999999997,-0.9499999999999997,high,high,,ISIC_6646939.JPG,,ISIC_0029909.JPG,167,true,hh,keypress(i),0,false,145333.30000001192,145333.30000001192,142674.049,142794.60000002384,142690.68,145207.291,1,40,6,
sequence,flow.Sequence,6_5,2023-11-15T17:47:13.633Z,,,,,,,,,,2642.620000011928,completion,,,,,,,high,high,,,,,,true,,,,false,145333.39999997616,145333.30000001192,142674.049,142794.60000002384,142690.68,145207.291,1,40,,
trial,html.Screen,6_6_0,2023-11-15T17:47:18.064Z,,,,1,0.8826164980777871,1.0773466327271526,,true,ll,4557.908999988082,response,-0.8093923499033241,0.9499999999999997,-0.9499999999999997,-1.102485543525293,0.9499999999999997,-0.9499999999999997,low,low,,ISIC_0055169.JPG,,ISIC_1208705.JPG,142,true,ll,keypress(f),0,false,149765.30000001192,149765.19999998808,145190.595,145333.5,145207.291,149640.74,1,40,7,
sequence,flow.Sequence,6_6,2023-11-15T17:47:18.065Z,,,,,,,,,,4557.908999988082,completion,,,,,,,low,low,,,,,,true,,,,false,149765.39999997616,149765.19999998808,145190.595,145333.5,145207.291,149640.74,1,40,,
trial,html.Screen,6_7_0,2023-11-15T17:47:22.448Z,,,,1,-0.8979276789594874,0.925374811016654,,true,hl,4508.459999988088,response,0.8947611078712571,0.9499999999999997,-0.9499999999999997,-0.8960964505004638,0.9499999999999997,-0.9499999999999997,high,low,,ISIC_4208361.JPG,,ISIC_6441128.JPG,26,true,hl,keypress(j),0,false,154149.30000001192,154149.19999998808,149623.869,149765.39999997616,149640.74,154024.071,1,40,8,
sequence,flow.Sequence,6_7,2023-11-15T17:47:22.449Z,,,,,,,,,,4508.459999988088,completion,,,,,,,high,low,,,,,,true,,,,false,154149.39999997616,154149.19999998808,149623.869,149765.39999997616,149640.74,154024.071,1,40,,
trial,html.Screen,6_8_0,2023-11-15T17:47:25.537Z,,,,1,-1.0026266089287914,1.0913275913920335,,true,hl,3213.2290000119247,response,0.8623414234919863,0.9499999999999997,-0.9499999999999997,-0.782830143980698,0.9499999999999997,-0.9499999999999997,high,low,,ISIC_0033520.JPG,,ISIC_2727016.JPG,26,true,hl,keypress(j),0,false,157237.39999997616,157237.30000001192,154007.208,154149.39999997616,154024.071,157107.127,1,40,9,
sequence,flow.Sequence,6_8,2023-11-15T17:47:25.537Z,,,,,,,,,,3213.2290000119247,completion,,,,,,,high,low,,,,,,true,,,,false,157237.5,157237.30000001192,154007.208,154149.39999997616,154024.071,157107.127,1,40,,
trial,html.Screen,6_9_0,2023-11-15T17:47:27.009Z,,,,1,-0.8534691366511764,1.03975580494588,,true,hl,1602.2729999761505,response,0.809764442462202,0.9499999999999997,-0.9499999999999997,-1.005337148078696,0.9499999999999997,-0.9499999999999997,high,low,,ISIC_0056788.JPG,,ISIC_2379379.JPG,26,true,hl,keypress(j),0,false,158709.39999997616,158709.39999997616,157090.656,157237.5,157107.127,158590.99,1,40,10,
sequence,flow.Sequence,6_9,2023-11-15T17:47:27.009Z,,,,,,,,,,1602.2729999761505,completion,,,,,,,high,low,,,,,,true,,,,false,158709.5,158709.39999997616,157090.656,157237.5,157107.127,158590.99,1,40,,
trial,html.Screen,6_10_0,2023-11-15T17:47:30.288Z,,,,1,0.991146183030456,-0.9949639823722534,,true,lh,3398.2099999880884,response,-0.8809306963311293,0.9499999999999997,-0.9499999999999997,0.8614910030038974,0.9499999999999997,-0.9499999999999997,low,high,,ISIC_6342224.JPG,,ISIC_0013731.JPG,28,true,lh,keypress(e),0,false,161989.30000001192,161989.19999998808,158557.396,158709.60000002384,158590.99,161857.222,1,40,11,
sequence,flow.Sequence,6_10,2023-11-15T17:47:30.289Z,,,,,,,,,,3398.2099999880884,completion,,,,,,,low,high,,,,,,true,,,,false,161989.39999997616,161989.19999998808,158557.396,158709.5,158590.99,161857.222,1,40,,
trial,html.Screen,6_11_0,2023-11-15T17:47:31.536Z,,,,1,-1.1217390688497193,-0.8482399573167824,,true,hh,1379.9779999880702,response,0.7858981101622865,0.9499999999999997,-0.9499999999999997,1.098700382725708,0.9499999999999997,-0.9499999999999997,high,high,,ISIC_0026344.JPG,,ISIC_0059733.JPG,167,true,hh,keypress(i),0,false,163237.19999998808,163237.19999998808,161840.381,161989.5,161857.222,163107.337,1,40,12,
sequence,flow.Sequence,6_11,2023-11-15T17:47:31.537Z,,,,,,,,,,1379.9779999880702,completion,,,,,,,high,high,,,,,,true,,,,false,163237.30000001192,163237.19999998808,161840.381,161989.5,161857.222,163107.337,1,40,,
trial,html.Screen,6_12_0,2023-11-15T17:47:32.608Z,,,,1,0.9125678790631364,0.9430679164922772,,true,ll,1201.7630000238423,response,-0.7877297643782052,0.9499999999999997,-0.9499999999999997,-1.0484741330672678,0.9499999999999997,-0.9499999999999997,low,low,,ISIC_0062111.JPG,,ISIC_6326803.JPG,142,true,ll,keypress(f),0,false,164309.19999998808,164309.10000002384,163090.747,163237.5,163107.337,164191.074,1,40,13,
sequence,flow.Sequence,6_12,2023-11-15T17:47:32.608Z,,,,,,,,,,1201.7630000238423,completion,,,,,,,low,low,,,,,,true,,,,false,164309.30000001192,164309.10000002384,163090.747,163237.39999997616,163107.337,164191.074,1,40,,
trial,html.Screen,6_13_0,2023-11-15T17:47:35.649Z,,,,1,-1.0064329161780483,-0.7918012854539199,,true,hh,3158.2260000119277,response,1.018568530854085,0.9499999999999997,-0.9499999999999997,0.830218316692649,0.9499999999999997,-0.9499999999999997,high,high,,ISIC_0033137.JPG,,ISIC_0057180.JPG,167,true,hh,keypress(i),0,false,167349.39999997616,167349.30000001192,164157.113,164309.30000001192,164191.074,167224.01,1,40,14,
sequence,flow.Sequence,6_13,2023-11-15T17:47:35.649Z,,,,,,,,,,3158.2260000119277,completion,,,,,,,high,high,,,,,,true,,,,false,167349.5,167349.30000001192,164157.113,164309.30000001192,164191.074,167224.01,1,40,,
trial,html.Screen,6_14_0,2023-11-15T17:47:40.048Z,,,,1,-0.8670473182120986,-0.7813797649042047,,true,hh,4525.18999998807,response,0.781420271893034,0.9499999999999997,-0.9499999999999997,0.8475699534335533,0.9499999999999997,-0.9499999999999997,high,high,,ISIC_0069257.JPG,,ISIC_0066429.JPG,167,true,hh,keypress(i),0,false,171749.30000001192,171749.19999998808,167207.35,167349.60000002384,167224.01,171624.043,1,40,15,
sequence,flow.Sequence,6_14,2023-11-15T17:47:40.049Z,,,,,,,,,,4525.18999998807,completion,,,,,,,high,high,,,,,,true,,,,false,171749.39999997616,171749.19999998808,167207.35,167349.60000002384,167224.01,171624.043,1,40,,
trial,html.Screen,6_15_0,2023-11-15T17:47:42.496Z,,,,1,0.9779950356676737,0.8379472703169347,,true,ll,2573.0570000238367,response,-0.9149803805834588,0.9499999999999997,-0.9499999999999997,-0.7596912841144952,0.9499999999999997,-0.9499999999999997,low,low,,ISIC_1979534.JPG,,ISIC_4879187.JPG,142,true,ll,keypress(f),0,false,174197.10000002384,174197.10000002384,171607.464,171749.5,171624.043,174074.052,1,40,16,
sequence,flow.Sequence,6_15,2023-11-15T17:47:42.497Z,,,,,,,,,,2573.0570000238367,completion,,,,,,,low,low,,,,,,true,,,,false,174197.19999998808,174197.10000002384,171607.464,171749.5,171624.043,174074.052,1,40,,
trial,html.Screen,6_16_0,2023-11-15T17:47:46.033Z,,,,1,-1.0109425975109978,-0.7936092227742398,,true,hh,3659.347999976162,response,0.9421421842960384,0.9499999999999997,-0.9499999999999997,0.798219062641572,0.9499999999999997,-0.9499999999999997,high,high,,ISIC_8253326.JPG,,ISIC_9439034.JPG,167,true,hh,keypress(i),0,false,177733.5,177733.39999997616,174057.26,174197.30000001192,174074.052,177607.23,1,40,17,
sequence,flow.Sequence,6_16,2023-11-15T17:47:46.033Z,,,,,,,,,,3659.347999976162,completion,,,,,,,high,high,,,,,,true,,,,false,177733.60000002384,177733.39999997616,174057.26,174197.30000001192,174074.052,177607.23,1,40,,
trial,html.Screen,6_17_0,2023-11-15T17:47:50.897Z,,,,1,0.7638895244791114,-0.7780412100090998,,true,lh,4989.870000023831,response,-1.0656673213158945,0.9499999999999997,-0.9499999999999997,0.8082541692781954,0.9499999999999997,-0.9499999999999997,low,high,,ISIC_0026516.JPG,,ISIC_0033985.JPG,28,true,lh,keypress(e),0,false,182597.19999998808,182597.10000002384,177590.615,177733.60000002384,177607.23,182474.041,1,40,18,
sequence,flow.Sequence,6_17,2023-11-15T17:47:50.897Z,,,,,,,,,,4989.870000023831,completion,,,,,,,low,high,,,,,,true,,,,false,182597.30000001192,182597.10000002384,177590.615,177733.60000002384,177607.23,182474.041,1,40,,
trial,html.Screen,6_18_0,2023-11-15T17:47:57.537Z,,,,1,0.8387460443597405,1.12466521758037,,true,ll,6763.059000023844,response,-1.056824784611021,0.9499999999999997,-0.9499999999999997,-0.8736902702135552,0.9499999999999997,-0.9499999999999997,low,low,,ISIC_0014189.JPG,,ISIC_0014026.JPG,142,true,ll,keypress(f),0,false,189237.19999998808,189237.10000002384,182457.235,182597.39999997616,182474.041,189107.133,1,40,19,
sequence,flow.Sequence,6_18,2023-11-15T17:47:57.537Z,,,,,,,,,,6763.059000023844,completion,,,,,,,low,low,,,,,,true,,,,false,189237.30000001192,189237.10000002384,182457.235,182597.39999997616,182474.041,189107.133,1,40,,
trial,html.Screen,6_19_0,2023-11-15T17:48:02.353Z,,,,1,0.796241477082623,-0.9017449335975743,,true,lh,4946.066999988077,response,-0.8179805381029407,0.9499999999999997,-0.9499999999999997,0.8578467162767749,0.9499999999999997,-0.9499999999999997,low,high,,ISIC_8588033.JPG,,ISIC_0067253.JPG,28,true,lh,keypress(e),0,false,194053.30000001192,194053.19999998808,189090.457,189237.39999997616,189107.133,193923.819,1,40,20,
sequence,flow.Sequence,6_19,2023-11-15T17:48:02.353Z,,,,,,,,,,4946.066999988077,completion,,,,,,,low,high,,,,,,true,,,,false,194053.39999997616,194053.19999998808,189090.457,189237.39999997616,189107.133,193923.819,1,40,,
trial,html.Screen,6_20_0,2023-11-15T17:48:06.481Z,,,,1,0.887838744955182,-0.7545096650863988,,true,lh,4257.3809999880905,response,-0.9454713230140772,0.9499999999999997,-0.9499999999999997,0.9245167441969216,0.9499999999999997,-0.9499999999999997,low,high,,ISIC_1488727.JPG,,ISIC_9101055.JPG,28,true,lh,keypress(e),0,false,198181.30000001192,198181.19999998808,193907.242,194053.5,193923.819,198057.339,1,40,21,
sequence,flow.Sequence,6_20,2023-11-15T17:48:06.481Z,,,,,,,,,,4257.3809999880905,completion,,,,,,,low,high,,,,,,true,,,,false,198181.39999997616,198181.19999998808,193907.242,194053.5,193923.819,198057.339,1,40,,
trial,html.Screen,6_21_0,2023-11-15T17:48:09.216Z,,,,1,-0.8809306963311293,0.8614910030038974,,true,hl,2859.7610000238346,response,0.9235571765207048,0.9499999999999997,-0.9499999999999997,-1.0008081653938232,0.9499999999999997,-0.9499999999999997,high,low,,ISIC_0013731.JPG,,ISIC_8796632.JPG,26,true,hl,keypress(j),0,false,200917.10000002384,200917.10000002384,198040.762,198181.39999997616,198057.339,200790.621,1,40,22,
sequence,flow.Sequence,6_21,2023-11-15T17:48:09.217Z,,,,,,,,,,2859.7610000238346,completion,,,,,,,high,low,,,,,,true,,,,false,200917.30000001192,200917.10000002384,198040.762,198181.39999997616,198057.339,200790.621,1,40,,
trial,html.Screen,6_22_0,2023-11-15T17:48:11.937Z,,,,1,0.9090432487160188,1.033319341099857,,true,ll,2846.5789999880653,response,-0.8763527075016911,0.9499999999999997,-0.9499999999999997,-0.8957887978691169,0.9499999999999997,-0.9499999999999997,low,low,,ISIC_4119029.JPG,,ISIC_8943906.JPG,142,true,ll,keypress(f),0,false,203637.30000001192,203637.19999998808,200773.892,200917.30000001192,200790.621,203507.25,1,40,23,
sequence,flow.Sequence,6_22,2023-11-15T17:48:11.937Z,,,,,,,,,,2846.5789999880653,completion,,,,,,,low,low,,,,,,true,,,,false,203637.5,203637.19999998808,200773.892,200917.30000001192,200790.621,203507.25,1,40,,
trial,html.Screen,6_23_0,2023-11-15T17:48:14.769Z,,,,1,0.9303292478996148,1.0396291493634244,,true,ll,2961.850000023842,response,-0.7543493127539531,0.9499999999999997,-0.9499999999999997,-0.9452304370934528,0.9499999999999997,-0.9499999999999997,low,low,,ISIC_0068580.JPG,,ISIC_0029017.JPG,142,true,ll,keypress(f),0,false,206469.19999998808,206469.10000002384,203490.524,203637.5,203507.25,206340.583,1,40,24,
sequence,flow.Sequence,6_23,2023-11-15T17:48:14.769Z,,,,,,,,,,2961.850000023842,completion,,,,,,,low,low,,,,,,true,,,,false,206469.30000001192,206469.10000002384,203490.524,203637.5,203507.25,206340.583,1,40,,
trial,html.Screen,6_24_0,2023-11-15T17:48:16.561Z,,,,1,0.8816288864119318,-0.801867301188093,,true,lh,1920.6169999880658,response,-0.879102500583965,0.9499999999999997,-0.9499999999999997,1.0933081951979773,0.9499999999999997,-0.9499999999999997,low,high,,ISIC_9196783.JPG,,ISIC_0046223.JPG,28,true,lh,keypress(e),0,false,208261.39999997616,208261.19999998808,206323.952,206469.39999997616,206340.583,208140.581,1,40,25,
sequence,flow.Sequence,6_24,2023-11-15T17:48:16.561Z,,,,,,,,,,1920.6169999880658,completion,,,,,,,low,high,,,,,,true,,,,false,208261.39999997616,208261.19999998808,206323.952,206469.30000001192,206340.583,208140.581,1,40,,
trial,html.Screen,6_25_0,2023-11-15T17:48:18.145Z,,,,1,-0.9433720631499012,1.0582071940347648,,true,hl,1704.6189999880735,response,0.7871162143493278,0.9499999999999997,-0.9499999999999997,-0.8429329800778957,0.9499999999999997,-0.9499999999999997,high,low,,ISIC_4890201.JPG,,ISIC_3439215.JPG,26,true,hl,keypress(j),0,false,209845.30000001192,209845.19999998808,208124.209,208261.5,208140.581,209724.18,1,40,26,
sequence,flow.Sequence,6_25,2023-11-15T17:48:18.145Z,,,,,,,,,,1704.6189999880735,completion,,,,,,,high,low,,,,,,true,,,,false,209845.39999997616,209845.19999998808,208124.209,208261.39999997616,208140.581,209724.18,1,40,,
trial,html.Screen,6_26_0,2023-11-15T17:48:20.721Z,,,,1,-0.9579209317488,1.0147487101263497,,true,hl,2697.120000011928,response,0.9388660854518424,0.9499999999999997,-0.9499999999999997,-0.79533948698576,0.9499999999999997,-0.9499999999999997,high,low,,ISIC_8124482.JPG,,ISIC_9291926.JPG,26,true,hl,keypress(j),0,false,212421.39999997616,212421.30000001192,209707.213,209845.5,209724.18,212290.475,1,40,27,
sequence,flow.Sequence,6_26,2023-11-15T17:48:20.721Z,,,,,,,,,,2697.120000011928,completion,,,,,,,high,low,,,,,,true,,,,false,212421.5,212421.30000001192,209707.213,209845.5,209724.18,212290.475,1,40,,
trial,html.Screen,6_27_0,2023-11-15T17:48:24.545Z,,,,1,0.7833710010171356,-0.9315588090336896,,true,lh,3954.625000023836,response,-0.8860551570327019,0.9499999999999997,-0.9499999999999997,0.8067116931297591,0.9499999999999997,-0.9499999999999997,low,high,,ISIC_3826102.JPG,,ISIC_1457687.JPG,28,true,lh,keypress(e),0,false,216245.19999998808,216245.10000002384,212273.829,212421.5,212290.475,216124.172,1,40,28,
sequence,flow.Sequence,6_27,2023-11-15T17:48:24.545Z,,,,,,,,,,3954.625000023836,completion,,,,,,,low,high,,,,,,true,,,,false,216245.30000001192,216245.10000002384,212273.829,212421.5,212290.475,216124.172,1,40,,
trial,html.Screen,6_28_0,2023-11-15T17:48:26.913Z,,,,1,1.0213365328004047,-1.088524359911891,,true,lh,2489.0279999880877,response,-0.8860551570327019,0.9499999999999997,-0.9499999999999997,0.8067116931297591,0.9499999999999997,-0.9499999999999997,low,high,,ISIC_5434229.JPG,,ISIC_1457687.JPG,28,true,lh,keypress(e),0,false,218613.30000001192,218613.19999998808,216107.177,216245.30000001192,216124.172,218490.656,1,40,29,
sequence,flow.Sequence,6_28,2023-11-15T17:48:26.913Z,,,,,,,,,,2489.0279999880877,completion,,,,,,,low,high,,,,,,true,,,,false,218613.39999997616,218613.19999998808,216107.177,216245.30000001192,216124.172,218490.656,1,40,,
trial,html.Screen,6_29_0,2023-11-15T17:48:28.208Z,,,,1,0.8826164980777871,1.0773466327271526,,true,ll,1418.3440000000119,response,-1.0109425975109978,0.9499999999999997,-0.9499999999999997,-0.7936092227742398,0.9499999999999997,-0.9499999999999997,low,low,,ISIC_0055169.JPG,,ISIC_8253326.JPG,142,true,ll,keypress(f),0,false,219909.10000002384,219909,218473.968,218613.39999997616,218490.656,219791.641,1,40,30,
sequence,flow.Sequence,6_29,2023-11-15T17:48:28.208Z,,,,,,,,,,1418.3440000000119,completion,,,,,,,low,low,,,,,,true,,,,false,219909.19999998808,219909,218473.968,218613.39999997616,218490.656,219791.641,1,40,,
trial,html.Screen,6_30_0,2023-11-15T17:48:29.792Z,,,,1,-0.8860551570327019,0.8067116931297591,,true,hl,1701.1590000119177,response,0.8035152873995188,0.9499999999999997,-0.9499999999999997,-0.82868450251632,0.9499999999999997,-0.9499999999999997,high,low,,ISIC_1457687.JPG,,ISIC_0010671.JPG,26,true,hl,keypress(j),0,false,221493,221492.80000001192,219757.355,219909.19999998808,219791.641,221373.918,1,40,31,
sequence,flow.Sequence,6_30,2023-11-15T17:48:29.792Z,,,,,,,,,,1701.1590000119177,completion,,,,,,,high,low,,,,,,true,,,,false,221493.10000002384,221492.80000001192,219757.355,219909.19999998808,219791.641,221373.918,1,40,,
trial,html.Screen,6_31_0,2023-11-15T17:48:31.697Z,,,,1,1.0088070132449485,1.0292526683018866,,true,ll,2023.1820000238367,response,-1.0378929077920005,0.9499999999999997,-0.9499999999999997,-1.012953297890337,0.9499999999999997,-0.9499999999999997,low,low,,ISIC_0059314.JPG,,ISIC_0231745.JPG,142,true,ll,keypress(f),0,false,223397.30000001192,223397.10000002384,221340.51,221493.10000002384,221373.918,223273.979,1,40,32,
sequence,flow.Sequence,6_31,2023-11-15T17:48:31.697Z,,,,,,,,,,2023.1820000238367,completion,,,,,,,low,low,,,,,,true,,,,false,223397.39999997616,223397.10000002384,221340.51,221493.10000002384,221373.918,223273.979,1,40,,
trial,html.Screen,6_32_0,2023-11-15T17:48:34.208Z,,,,1,-0.953802353776362,-0.927101493584587,,true,hh,2635.021000000008,response,1.064818044116379,0.9499999999999997,-0.9499999999999997,1.0146741178993408,0.9499999999999997,-0.9499999999999997,high,high,,ISIC_9751601.JPG,,ISIC_0032504.JPG,167,true,hh,keypress(i),0,false,225909.10000002384,225909,223257.234,223397.5,223273.979,225791.567,1,40,33,
sequence,flow.Sequence,6_32,2023-11-15T17:48:34.208Z,,,,,,,,,,2635.021000000008,completion,,,,,,,high,high,,,,,,true,,,,false,225909.19999998808,225909,223257.234,223397.5,223273.979,225791.567,1,40,,
trial,html.Screen,6_33_0,2023-11-15T17:48:36.880Z,,,,1,-0.7504722488504932,-1.117673118196769,,true,hh,2789.132999988069,response,0.8735470592544294,0.9499999999999997,-0.9499999999999997,0.9785086585007428,0.9499999999999997,-0.9499999999999997,high,high,,ISIC_0028027.JPG,,ISIC_0047031.JPG,167,true,hh,keypress(i),0,false,228580.80000001192,228580.69999998808,225757.301,225909.19999998808,225791.567,228457.486,1,40,34,
sequence,flow.Sequence,6_33,2023-11-15T17:48:36.880Z,,,,,,,,,,2789.132999988069,completion,,,,,,,high,high,,,,,,true,,,,false,228580.89999997616,228580.69999998808,225757.301,225909.19999998808,225791.567,228457.486,1,40,,
trial,html.Screen,6_34_0,2023-11-15T17:48:38.353Z,,,,1,-0.8671772321064484,-1.0212529379514277,,true,hh,1595.7139999880746,response,0.9054613726799198,0.9499999999999997,-0.9499999999999997,1.0522064490699743,0.9499999999999997,-0.9499999999999997,high,high,,ISIC_0004352.JPG,,ISIC_0064860.JPG,167,true,hh,keypress(i),0,false,230053.19999998808,230053.19999998808,228440.627,228581,228457.486,229924.164,1,40,35,
sequence,flow.Sequence,6_34,2023-11-15T17:48:38.353Z,,,,,,,,,,1595.7139999880746,completion,,,,,,,high,high,,,,,,true,,,,false,230053.39999997616,230053.19999998808,228440.627,228580.89999997616,228457.486,229924.164,1,40,,
trial,html.Screen,6_35_0,2023-11-15T17:48:39.776Z,,,,1,0.8331144817673659,0.9687545919760946,,true,ll,1552.8360000000102,response,-0.9064565001469764,0.9499999999999997,-0.9499999999999997,-0.7748322849719208,0.9499999999999997,-0.9499999999999997,low,low,,ISIC_0028075.JPG,,ISIC_0025877.JPG,142,true,ll,keypress(f),0,false,231477,231477,229907.297,230053.39999997616,229924.164,231357.231,1,40,36,
sequence,flow.Sequence,6_35,2023-11-15T17:48:39.776Z,,,,,,,,,,1552.8360000000102,completion,,,,,,,low,low,,,,,,true,,,,false,231477.10000002384,231477,229907.297,230053.39999997616,229924.164,231357.231,1,40,,
trial,html.Screen,6_36_0,2023-11-15T17:48:43.249Z,,,,1,-0.8541581294181414,0.7637475587255248,,true,hl,3592.069000011921,response,0.7638895244791114,0.9499999999999997,-0.9499999999999997,-0.7780412100090998,0.9499999999999997,-0.9499999999999997,high,low,,ISIC_0014782.JPG,,ISIC_0026516.JPG,26,true,hl,keypress(j),0,false,234949.39999997616,234949.30000001192,231340.526,231477.19999998808,231357.231,234823.931,1,40,37,
sequence,flow.Sequence,6_36,2023-11-15T17:48:43.249Z,,,,,,,,,,3592.069000011921,completion,,,,,,,high,low,,,,,,true,,,,false,234949.39999997616,234949.30000001192,231340.526,231477.19999998808,231357.231,234823.931,1,40,,
trial,html.Screen,6_37_0,2023-11-15T17:48:44.688Z,,,,1,-0.7870373375006504,-1.0385104284303668,,true,hh,1564.7689999880677,response,0.9585938767259125,0.9499999999999997,-0.9499999999999997,0.8441404886756483,0.9499999999999997,-0.9499999999999997,high,high,,ISIC_0002162.JPG,,ISIC_0055003.JPG,167,true,hh,keypress(i),0,false,236388.80000001192,236388.69999998808,234807.04,234949.5,234823.931,236257.193,1,40,38,
sequence,flow.Sequence,6_37,2023-11-15T17:48:44.688Z,,,,,,,,,,1564.7689999880677,completion,,,,,,,high,high,,,,,,true,,,,false,236388.89999997616,236388.69999998808,234807.04,234949.5,234823.931,236257.193,1,40,,
trial,html.Screen,6_38_0,2023-11-15T17:48:46.561Z,,,,1,0.7723849213858904,-0.888372424147899,,true,lh,2004.0069999880798,response,-0.8809306963311293,0.9499999999999997,-0.9499999999999997,0.8614910030038974,0.9499999999999997,-0.9499999999999997,low,high,,ISIC_3884221.JPG,,ISIC_0013731.JPG,28,true,lh,keypress(e),0,false,238261.30000001192,238261.19999998808,236240.81,236389,236257.193,238140.648,1,40,39,
sequence,flow.Sequence,6_38,2023-11-15T17:48:46.561Z,,,,,,,,,,2004.0069999880798,completion,,,,,,,low,high,,,,,,true,,,,false,238261.5,238261.19999998808,236240.81,236389,236257.193,238140.648,1,40,,
trial,html.Screen,6_39_0,2023-11-15T17:48:48.208Z,,,,1,0.8623414234919863,-0.782830143980698,,true,lh,1768.2519999761716,response,-0.991282840649944,0.9499999999999997,-0.9499999999999997,0.9397921099839784,0.9499999999999997,-0.9499999999999997,low,high,,ISIC_2727016.JPG,,ISIC_0000463.JPG,28,true,lh,keypress(e),0,false,239908.89999997616,239908.89999997616,238123.855,238261.5,238140.648,239790.903,1,40,40,
sequence,flow.Sequence,6_39,2023-11-15T17:48:48.209Z,,,,,,,,,,1768.2519999761716,completion,,,,,,,low,high,,,,,,true,,,,false,239909.10000002384,239908.89999997616,238123.855,238261.5,238140.648,239790.903,1,40,,
practice_loop,flow.Loop,6,2023-11-15T17:48:48.209Z,,,,,,,,,,139518.37499997616,completion,,,,,,,,,,,,,,true,,,,false,239909.19999998808,239908.89999997616,100374.132,100521.80000001192,100390.525,239790.903,1,40,,
stair_instructions,html.Screen,7,2023-11-15T17:48:54.032Z,,,,,,,,,,5940.697000023851,response,,,,,,,,,,,,,,,continue,click button,,,245732.30000001192,245731.60000002384,239757.086,239909.19999998808,239790.903,245607.034,,,,
trial,html.Screen,8_0_0,2023-11-15T17:49:04.868Z,,,,2,0.0247880219471745,-0.0687761754603142,,false,ll,10961.066000023828,response,-0.8307811717009963,0.9499999999999997,-0.9499999999999997,-1.098625259321624,0.9499999999999997,-0.9499999999999997,low,low,,ISIC_0031745.JPG,,ISIC_8257549.JPG,142,false,hh,keypress(i),0,true,256568.10000002384,256568.10000002384,245590.635,245732.5,245607.034,256457.211,1,40,1,
sequence,flow.Sequence,8_0,2023-11-15T17:49:04.868Z,,,,,,,,,,10961.066000023828,completion,,,,,,,low,low,,,,,,false,,,,true,256568.39999997616,256568.10000002384,245590.635,245732.5,245607.034,256457.211,1,40,,
trial,html.Screen,8_1_0,2023-11-15T17:49:09.873Z,,,,2,-0.000047919190197942736,-0.0462652940855003,,true,hh,5115.78899999999,response,0.7749816372238512,0.9499999999999997,-0.9999999999999998,0.9483461637567244,0.9499999999999997,-0.9999999999999998,high,high,,ISIC_0011507.JPG,,ISIC_0065943.JPG,167,false,hh,keypress(i),0,true,261573.10000002384,261573,256440.552,256568.39999997616,256457.211,261440.371,1,40,2,
sequence,flow.Sequence,8_1,2023-11-15T17:49:09.873Z,,,,,,,,,,5115.78899999999,completion,,,,,,,high,high,,,,,,false,,,,true,261573.19999998808,261573,256440.552,256568.39999997616,256457.211,261440.371,1,40,,
trial,html.Screen,8_2_0,2023-11-15T17:49:14.899Z,,,,2,-0.009234249673026,-0.0627190878028592,,false,lh,5158.628999999986,response,-1.0751036484083878,0.9499999999999997,-0.9999999999999998,1.143906455483852,0.9499999999999997,-0.9999999999999998,low,high,,ISIC_0053760.JPG,,ISIC_0064406.JPG,24,false,hh,keypress(i),0,true,266599.10000002384,266599,261423.783,261573.30000001192,261440.371,266473.771,1,40,3,
sequence,flow.Sequence,8_2,2023-11-15T17:49:14.899Z,,,,,,,,,,5158.628999999986,completion,,,,,,,low,high,,,,,,false,,,,true,266599.1999999881,266599,261423.783,261573.30000001192,261440.371,266473.771,1,40,,
trial,html.Screen,8_3_0,2023-11-15T17:49:19.041Z,,,,2,0.0450282431170921,,,false,lh,4267.228999999992,response,-1.0751036484083878,0.9499999999999997,-1.0499999999999998,1.143906455483852,0.9961263096202881,-0.9999999999999998,low,high,,ISIC_1805163.JPG,,ISIC_0064406.JPG,23,false,hh,keypress(i),0,true,270741.10000002384,270741,266456.987,266599.3000000119,266473.771,270606.997,1,40,4,
sequence,flow.Sequence,8_3,2023-11-15T17:49:19.041Z,,,,,,,,,,4267.228999999992,completion,,,,,,,low,high,,,,,,false,,,,true,270741.3000000119,270741,266456.987,266599.3000000119,266473.771,270606.997,1,40,,
trial,html.Screen,8_4_0,2023-11-15T17:49:26.432Z,,,,2,-0.0737104822171846,0.0725320314728604,,false,ll,7525.902999976184,response,-0.9936778235464944,0.9499999999999997,-1.0999999999999999,-0.9945365746760566,0.9961263096202881,-0.9999999999999998,low,low,,ISIC_0002862.JPG,,ISIC_5108076.JPG,113,false,hl,keypress(j),0,true,278132.89999997616,278132.89999997616,270590.286,270741.3000000119,270606.997,278006.995,1,40,5,
sequence,flow.Sequence,8_4,2023-11-15T17:49:26.432Z,,,,,,,,,,7525.902999976184,completion,,,,,,,low,low,,,,,,false,,,,true,278133,278132.89999997616,270590.286,270741.3000000119,270606.997,278006.995,1,40,,
trial,html.Screen,8_5_0,2023-11-15T17:49:37.427Z,,,,2,-0.0688801591312476,-0.0185462113313342,,,,11016.671000000031,timeout,0.7833710010171356,0.9499999999999997,-1.15,-0.9315588090336896,0.9961263096202881,-0.9999999999999998,high,low,,ISIC_0067723.JPG,,ISIC_3826102.JPG,20,false,,,0,true,289127.3000000119,289127.1999999881,277990.38,278133.10000002384,278006.995,289023.666,1,40,6,
sequence,flow.Sequence,8_5,2023-11-15T17:49:37.427Z,,,,,,,,,,11120.204999988084,completion,,,,,,,high,low,,,,,,false,,,,true,289127.5,289127.1999999881,277990.38,278133,278006.995,289023.666,1,40,,
trial,html.Screen,8_6_0,2023-11-15T17:49:43.057Z,,,,2,-0.0245585387483123,0.053462758614929,,true,hh,5733.434000023815,response,0.934130994804294,0.9499999999999997,-1.15,1.0454436589399478,0.9961263096202881,-0.9999999999999998,high,high,,ISIC_3389704.JPG,,ISIC_0053916.JPG,151,false,hh,keypress(i),0,true,294757.1999999881,294757.10000002384,289007.212,289127.60000002384,289023.666,294623.631,1,40,7,
sequence,flow.Sequence,8_6,2023-11-15T17:49:43.057Z,,,,,,,,,,5733.434000023815,completion,,,,,,,high,high,,,,,,false,,,,true,294757.3000000119,294757.10000002384,289007.212,289127.60000002384,289023.666,294623.631,1,40,,
trial,html.Screen,8_7_0,2023-11-15T17:49:48.272Z,,,,2,-0.0546386976779619,0.0448724759283131,,false,lh,5348.568999988085,response,-1.11969546505004,0.8499999999999996,-1.0999999999999999,0.7169584869657797,0.896126309620288,-0.9499999999999997,low,high,,ISIC_6722934.JPG,,ISIC_0033967.JPG,21,false,ll,keypress(f),0,true,299972.3000000119,299972.1999999881,294607.074,294757.3000000119,294623.631,299840.299,1,40,8,
sequence,flow.Sequence,8_7,2023-11-15T17:49:48.272Z,,,,,,,,,,5348.568999988085,completion,,,,,,,low,high,,,,,,false,,,,true,299972.39999997616,299972.1999999881,294607.074,294757.3000000119,294623.631,299840.299,1,40,,
trial,html.Screen,8_8_0,2023-11-15T17:49:50.464Z,,,,2,0.0593670819812057,-0.0718390543903236,,true,ll,2324.501000011922,response,-0.9071602543711612,0.8499999999999996,-1.0999999999999999,-1.073798502866343,0.9461263096202881,-0.9499999999999997,low,low,,ISIC_0062367.JPG,,ISIC_6676776.JPG,113,false,ll,keypress(f),0,true,302164.89999997616,302164.8000000119,299823.466,299972.5,299840.299,302040.294,1,40,9,
sequence,flow.Sequence,8_8,2023-11-15T17:49:50.464Z,,,,,,,,,,2324.501000011922,completion,,,,,,,low,low,,,,,,false,,,,true,302165,302164.8000000119,299823.466,299972.39999997616,299840.299,302040.294,1,40,,
trial,html.Screen,8_9_0,2023-11-15T17:49:52.417Z,,,,2,-0.0644357632656846,-0.0501167370292348,,false,lh,2076.7060000000056,response,-0.8541581294181414,0.8499999999999996,-1.0467469839581913,0.7637475587255248,0.9461263096202881,-1.0467469839581913,low,high,,ISIC_5207050.JPG,,ISIC_0014782.JPG,26,false,ll,keypress(f),0,true,304117.10000002384,304117,302023.568,302165.10000002384,302040.294,303990.567,1,40,10,
sequence,flow.Sequence,8_9,2023-11-15T17:49:52.417Z,,,,,,,,,,2076.7060000000056,completion,,,,,,,low,high,,,,,,false,,,,true,304117.1999999881,304117,302023.568,302165.10000002384,302040.294,303990.567,1,40,,
trial,html.Screen,8_10_0,2023-11-15T17:49:58.336Z,,,,2,0.0660839342637046,-0.0657899819532072,,true,hh,6045.832999976177,response,1.00170887975541,0.8499999999999996,-1.0467469839581913,0.8949188450526304,0.9961263096202881,-1.0467469839581913,high,high,,ISIC_0065477.JPG,,ISIC_0057067.JPG,177,false,hh,keypress(i),0,true,310036.5,310036.39999997616,303973.603,304117.1999999881,303990.567,309907.006,1,40,11,
sequence,flow.Sequence,8_10,2023-11-15T17:49:58.336Z,,,,,,,,,,6045.832999976177,completion,,,,,,,high,high,,,,,,false,,,,true,310036.6999999881,310036.39999997616,303973.603,304117.1999999881,303990.567,309907.006,1,40,,
trial,html.Screen,8_11_0,2023-11-15T17:50:01.281Z,,,,2,0.0070725527271049,0.0049995141077508,,false,lh,3074.094000023848,response,-0.8809306963311293,0.8499999999999996,-1.0467469839581913,0.8614910030038974,0.9961263096202881,-1.0467469839581913,low,high,,ISIC_6124481.JPG,,ISIC_0013731.JPG,24,false,hh,keypress(i),0,true,312981.1999999881,312981.10000002384,309890.577,310036.6999999881,309907.006,312857.153,1,40,12,
sequence,flow.Sequence,8_11,2023-11-15T17:50:01.281Z,,,,,,,,,,3074.094000023848,completion,,,,,,,low,high,,,,,,false,,,,true,312981.3000000119,312981.10000002384,309890.577,310036.6999999881,309907.006,312857.153,1,40,,
trial,html.Screen,8_12_0,2023-11-15T17:50:05.345Z,,,,2,0.0538169356437535,-0.0113486191005169,,true,hl,4188.046999988088,response,0.7197989269080959,0.8499999999999996,-1.0967469839581914,-0.9410141415297968,0.8282049240282638,-1.0467469839581913,high,low,,ISIC_0009939.JPG,,ISIC_2635051.JPG,24,false,hl,keypress(j),0,true,317045.3000000119,317045.1999999881,312840.317,312981.39999997616,312857.153,316923.866,1,40,13,
sequence,flow.Sequence,8_12,2023-11-15T17:50:05.345Z,,,,,,,,,,4188.046999988088,completion,,,,,,,high,low,,,,,,false,,,,true,317045.39999997616,317045.1999999881,312840.317,312981.39999997616,312857.153,316923.866,1,40,,
trial,html.Screen,8_13_0,2023-11-15T17:50:12.481Z,,,,2,0.007397293189458,0.0174716772037504,,true,ll,7257.333999988099,response,-1.1769240543102173,0.7999999999999996,-1.0967469839581914,-0.8561928086854821,0.8282049240282638,-1.0467469839581913,low,low,,ISIC_0056226.JPG,,ISIC_0919467.JPG,105,false,ll,keypress(f),0,true,324181.3000000119,324181.1999999881,316907.039,317045.5,316923.866,324057.143,1,40,14,
sequence,flow.Sequence,8_13,2023-11-15T17:50:12.481Z,,,,,,,,,,7257.333999988099,completion,,,,,,,low,low,,,,,,false,,,,true,324181.39999997616,324181.1999999881,316907.039,317045.39999997616,316923.866,324057.143,1,40,,
trial,html.Screen,8_14_0,2023-11-15T17:50:15.873Z,,,,2,0.0336891949856763,0.060314732178219,,false,ll,3515.95700002386,response,-0.964746248973834,0.7999999999999996,-1.0967469839581914,-0.9069353065857808,0.8282049240282638,-0.9665584314978497,low,low,,ISIC_6192289.JPG,,ISIC_9896801.JPG,120,false,hh,keypress(i),0,true,327573.1999999881,327573.10000002384,324040.16,324181.5,324057.143,327440.332,1,40,15,
sequence,flow.Sequence,8_14,2023-11-15T17:50:15.873Z,,,,,,,,,,3515.95700002386,completion,,,,,,,low,low,,,,,,false,,,,true,327573.3000000119,327573.10000002384,324040.16,324181.5,324057.143,327440.332,1,40,,
trial,html.Screen,8_15_0,2023-11-15T17:50:18.433Z,,,,2,0.0050679133050021,-0.0009714874637896,,true,hh,2692.968000011926,response,0.8177173885584471,0.7999999999999996,-1.1467469839581914,0.8140398867745896,0.8282049240282638,-1.0165584314978497,high,high,,ISIC_9848743.JPG,,ISIC_7196249.JPG,226,false,hh,keypress(i),0,true,330133.39999997616,330133.3000000119,327423.778,327573.3000000119,327440.332,330007.19,1,40,16,
sequence,flow.Sequence,8_15,2023-11-15T17:50:18.433Z,,,,,,,,,,2692.968000011926,completion,,,,,,,high,high,,,,,,false,,,,true,330133.5,330133.3000000119,327423.778,327573.3000000119,327440.332,330007.19,1,40,,
trial,html.Screen,8_16_0,2023-11-15T17:50:25.217Z,,,,2,-0.0134764727102299,-0.0033499036460912,,false,lh,6909.709999976156,response,-1.0363634319020814,0.7999999999999996,-1.1467469839581914,0.6512793949410997,0.8282049240282638,-1.0165584314978497,low,high,,ISIC_0009998.JPG,,ISIC_0064979.JPG,27,false,ll,keypress(f),0,true,336917,336916.89999997616,329990.467,330133.5,330007.19,336790.528,1,40,17,
sequence,flow.Sequence,8_16,2023-11-15T17:50:25.217Z,,,,,,,,,,6909.709999976156,completion,,,,,,,low,high,,,,,,false,,,,true,336917.10000002384,336916.89999997616,329990.467,330133.5,330007.19,336790.528,1,40,,
trial,html.Screen,8_17_0,2023-11-15T17:50:28.513Z,,,,2,0.0116094682222121,-0.0258434522530318,,false,hl,3422.5720000238507,response,0.7998855902596425,0.7999999999999996,-1.1467469839581914,-1.1518579145663017,0.8782049240282639,-1.0165584314978497,high,low,,ISIC_9239632.JPG,,ISIC_0025061.JPG,30,false,hh,keypress(i),0,true,340213.1999999881,340213.10000002384,336773.636,336917.1999999881,336790.528,340090.428,1,40,18,
sequence,flow.Sequence,8_17,2023-11-15T17:50:28.513Z,,,,,,,,,,3422.5720000238507,completion,,,,,,,high,low,,,,,,false,,,,true,340213.1999999881,340213.10000002384,336773.636,336917.10000002384,336790.528,340090.428,1,40,,
trial,html.Screen,8_18_0,2023-11-15T17:50:36.273Z,,,,2,-0.0693466529227737,-0.044703434393184,,false,ll,7882.8720000119065,response,-1.086647361897092,0.7499999999999996,-1.1467469839581914,-1.1528935990320313,0.8782049240282639,-1.0665584314978498,low,low,,ISIC_0004217.JPG,,ISIC_3505339.JPG,89,false,hh,keypress(i),0,true,347973.39999997616,347973.3000000119,340073.619,340213.3000000119,340090.428,347840.279,1,40,19,
sequence,flow.Sequence,8_18,2023-11-15T17:50:36.273Z,,,,,,,,,,7882.8720000119065,completion,,,,,,,low,low,,,,,,false,,,,true,347973.5,347973.3000000119,340073.619,340213.1999999881,340090.428,347840.279,1,40,,
trial,html.Screen,8_19_0,2023-11-15T17:50:43.889Z,,,,2,-0.0362376068089956,-0.047825070846155,,false,hl,7748.821000023861,response,0.5817380271979394,0.7499999999999996,-1.1967469839581915,-1.2499674737468107,0.8782049240282639,-1.1165584314978498,high,low,,ISIC_6985114.JPG,,ISIC_0013617.JPG,25,false,hh,keypress(i),0,true,355589.1999999881,355589.10000002384,347823.541,347973.5,347840.279,355456.928,1,40,20,
sequence,flow.Sequence,8_19,2023-11-15T17:50:43.889Z,,,,,,,,,,7748.821000023861,completion,,,,,,,high,low,,,,,,false,,,,true,355589.3000000119,355589.10000002384,347823.541,347973.5,347840.279,355456.928,1,40,,
trial,html.Screen,8_20_0,2023-11-15T17:50:46.641Z,,,,2,0.0450282431170921,,,false,lh,2884.0719999999856,response,-0.9652856136432328,0.6999999999999995,-1.1467469839581914,0.6471031362916833,0.8282049240282638,-1.1165584314978498,low,high,,ISIC_1805163.JPG,,ISIC_0008636.JPG,27,false,ll,keypress(f),0,true,358341,358341,355440.246,355589.3000000119,355456.928,358206.946,1,40,21,
sequence,flow.Sequence,8_20,2023-11-15T17:50:46.641Z,,,,,,,,,,2884.0719999999856,completion,,,,,,,low,high,,,,,,false,,,,true,358341.10000002384,358341,355440.246,355589.3000000119,355456.928,358206.946,1,40,,
trial,html.Screen,8_21_0,2023-11-15T17:50:51.249Z,,,,2,0.063045324701596,-0.0064789751878758,,false,ll,4742.054000000004,response,-1.2858522874663931,0.6999999999999995,-1.1467469839581914,-1.017151771311002,0.8782049240282639,-1.1165584314978498,low,low,,ISIC_5805349.JPG,,ISIC_8591425.JPG,76,false,hh,keypress(i),0,true,362949.10000002384,362949,358190.45,358341.10000002384,358206.946,362823.993,1,40,22,
sequence,flow.Sequence,8_21,2023-11-15T17:50:51.249Z,,,,,,,,,,4742.054000000004,completion,,,,,,,low,low,,,,,,false,,,,true,362949.1999999881,362949,358190.45,358341.10000002384,358206.946,362823.993,1,40,,
trial,html.Screen,8_22_0,2023-11-15T17:50:52.833Z,,,,2,-0.0113873532168551,-0.0054999201556291,,false,hl,1708.8070000119042,response,0.8092423703106274,0.6999999999999995,-1.1967469839581915,-1.1870093485714288,0.8782049240282639,-1.1665584314978499,high,low,,ISIC_8812621.JPG,,ISIC_8592235.JPG,20,false,hh,keypress(i),0,true,364533,364532.8000000119,362806.971,362949.1999999881,362823.993,364406.988,1,40,23,
sequence,flow.Sequence,8_22,2023-11-15T17:50:52.833Z,,,,,,,,,,1708.8070000119042,completion,,,,,,,high,low,,,,,,false,,,,true,364533,364532.8000000119,362806.971,362949.1999999881,362823.993,364406.988,1,40,,
trial,html.Screen,8_23_0,2023-11-15T17:50:57.904Z,,,,2,0.0324770283903853,0.0249968632204382,,false,hh,5197.411999976146,response,0.533098062529072,0.6499999999999995,-1.1967469839581915,0.8793322439703574,0.8782049240282639,-1.1665584314978499,high,high,,ISIC_7266462.JPG,,ISIC_0032993.JPG,236,false,ll,keypress(f),0,true,369604.5,369604.39999997616,364390.198,364533.10000002384,364406.988,369473.536,1,40,24,
sequence,flow.Sequence,8_23,2023-11-15T17:50:57.904Z,,,,,,,,,,5197.411999976146,completion,,,,,,,high,high,,,,,,false,,,,true,369604.60000002384,369604.39999997616,364390.198,364533.10000002384,364406.988,369473.536,1,40,,
trial,html.Screen,8_24_0,2023-11-15T17:51:01.793Z,,,,2,0.0660839342637046,-0.0657899819532072,,true,ll,4019.463999999978,response,-1.3484513254017945,0.6999999999999995,-1.1967469839581915,-0.9900809605367444,0.9282049240282639,-1.1665584314978499,low,low,,ISIC_0065477.JPG,,ISIC_0033081.JPG,53,false,ll,keypress(f),0,true,373493.10000002384,373493,369456.745,369604.6999999881,369473.536,373373.759,1,40,25,
sequence,flow.Sequence,8_24,2023-11-15T17:51:01.793Z,,,,,,,,,,4019.463999999978,completion,,,,,,,low,low,,,,,,false,,,,true,373493.1999999881,373493,369456.745,369604.60000002384,369473.536,373373.759,1,40,,
trial,html.Screen,8_25_0,2023-11-15T17:51:03.585Z,,,,2,0.007397293189458,0.0174716772037504,,false,hh,1911.3410000238218,response,0.6124925264411791,0.6999999999999995,-1.1967469839581915,0.8623976178836192,0.9282049240282639,-1.1665584314978499,high,high,,ISIC_0056226.JPG,,ISIC_0054292.JPG,223,false,ll,keypress(f),0,true,375285.1999999881,375285.10000002384,373340.515,373493.3000000119,373373.759,375157.062,1,40,26,
sequence,flow.Sequence,8_25,2023-11-15T17:51:03.585Z,,,,,,,,,,1911.3410000238218,completion,,,,,,,high,high,,,,,,false,,,,true,375285.3000000119,375285.10000002384,373340.515,373493.1999999881,373373.759,375157.062,1,40,,
trial,html.Screen,8_26_0,2023-11-15T17:51:05.840Z,,,,2,-0.0245376145053177,0.0436993426328401,,true,hh,2383.637999988103,response,0.5685814156754376,0.7499999999999996,-1.1967469839581915,0.8348393543229714,0.978204924028264,-1.1665584314978499,high,high,,ISIC_0056444.JPG,,ISIC_0030820.JPG,206,false,hh,keypress(i),0,true,377540.8000000119,377540.6999999881,375140.278,375285.3000000119,375157.062,377406.853,1,40,27,
sequence,flow.Sequence,8_26,2023-11-15T17:51:05.841Z,,,,,,,,,,2383.637999988103,completion,,,,,,,high,high,,,,,,false,,,,true,377540.89999997616,377540.6999999881,375140.278,375285.3000000119,375157.062,377406.853,1,40,,
trial,html.Screen,8_27_0,2023-11-15T17:51:07.969Z,,,,2,0.0217698886732706,-0.0410870915161425,,true,hl,2262.3469999880763,response,0.5116577697734059,0.6999999999999995,-1.1467469839581914,-1.0329549150636406,0.9282049240282639,-1.1165584314978498,high,low,,ISIC_0072173.JPG,,ISIC_0054670.JPG,30,false,hl,keypress(j),0,true,379669.3000000119,379669.1999999881,377390.43,377541,377406.853,379540.371,1,40,28,
sequence,flow.Sequence,8_27,2023-11-15T17:51:07.969Z,,,,,,,,,,2262.3469999880763,completion,,,,,,,high,low,,,,,,false,,,,true,379669.39999997616,379669.1999999881,377390.43,377541,377406.853,379540.371,1,40,,
trial,html.Screen,8_28_0,2023-11-15T17:51:12.401Z,,,,2,-0.0292059717970335,-0.0718256867525069,,false,hl,4560.629000000015,response,0.6416699984222508,0.6499999999999995,-1.1467469839581914,-1.0067659067144603,0.9282049240282639,-1.0665584314978498,high,low,,ISIC_1114966.JPG,,ISIC_0064784.JPG,45,false,ll,keypress(f),0,true,384101,384101,379523.776,379669.5,379540.371,383973.72,1,40,29,
sequence,flow.Sequence,8_28,2023-11-15T17:51:12.401Z,,,,,,,,,,4560.629000000015,completion,,,,,,,high,low,,,,,,false,,,,true,384101.10000002384,384101,379523.776,379669.5,379540.371,383973.72,1,40,,
trial,html.Screen,8_29_0,2023-11-15T17:51:16.529Z,,,,2,-0.0367218428225813,-0.0700576547090477,,false,hh,4255.38000002387,response,0.8019171574297028,0.6999999999999995,-1.1467469839581914,1.0925160607978373,0.9282049240282639,-1.0665584314978498,high,high,,ISIC_7212271.JPG,,ISIC_0010925.JPG,223,false,ll,keypress(f),0,true,388229.1999999881,388229.10000002384,383956.992,384101.1999999881,383973.72,388107.081,1,40,30,
sequence,flow.Sequence,8_29,2023-11-15T17:51:16.529Z,,,,,,,,,,4255.38000002387,completion,,,,,,,high,high,,,,,,false,,,,true,388229.1999999881,388229.10000002384,383956.992,384101.10000002384,383973.72,388107.081,1,40,,
trial,html.Screen,8_30_0,2023-11-15T17:51:18.577Z,,,,2,0.0070725527271049,0.0049995141077508,,false,lh,2169.8189999761526,response,-1.2364994561934892,0.6999999999999995,-1.0967469839581914,0.9174173651516624,0.9282049240282639,-1.0165584314978497,low,high,,ISIC_6124481.JPG,,ISIC_3481133.JPG,20,false,ll,keypress(f),0,true,390277,390276.89999997616,388090.181,388229.3000000119,388107.081,390157.117,1,40,31,
sequence,flow.Sequence,8_30,2023-11-15T17:51:18.577Z,,,,,,,,,,2169.8189999761526,completion,,,,,,,low,high,,,,,,false,,,,true,390277.10000002384,390276.89999997616,388090.181,388229.1999999881,388107.081,390157.117,1,40,,
trial,html.Screen,8_31_0,2023-11-15T17:51:21.920Z,,,,2,-0.0691769743257167,0.0638501824668941,,false,hl,3463.1830000118935,response,0.5450438506040646,0.6999999999999995,-1.0716326814539747,-1.1072497324901152,0.978204924028264,-1.0165584314978497,high,low,,ISIC_0031914.JPG,,ISIC_2690597.JPG,39,false,hh,keypress(i),0,true,393620.39999997616,393620.3000000119,390140.154,390277.10000002384,390157.117,393490.202,1,40,32,
sequence,flow.Sequence,8_31,2023-11-15T17:51:21.920Z,,,,,,,,,,3463.1830000118935,completion,,,,,,,high,low,,,,,,false,,,,true,393620.5,393620.3000000119,390140.154,390277.10000002384,390157.117,393490.202,1,40,,
trial,html.Screen,8_32_0,2023-11-15T17:51:23.985Z,,,,2,0.0660839342637046,-0.0657899819532072,,false,ll,2194.79800000001,response,-1.0097932576366906,0.6999999999999995,-1.0716326814539747,-1.0644834610939486,0.978204924028264,-1.0665584314978498,low,low,,ISIC_0065477.JPG,,ISIC_8559515.JPG,106,false,hh,keypress(i),0,true,395685.10000002384,395685,393473.425,393620.60000002384,393490.202,395557.05,1,40,33,
sequence,flow.Sequence,8_32,2023-11-15T17:51:23.985Z,,,,,,,,,,2194.79800000001,completion,,,,,,,low,low,,,,,,false,,,,true,395685.1999999881,395685,393473.425,393620.5,393490.202,395557.05,1,40,,
trial,html.Screen,8_33_0,2023-11-15T17:51:26.817Z,,,,2,-0.0245376145053177,0.0436993426328401,,false,ll,2959.84999997617,response,-1.0525847190618245,0.6999999999999995,-1.1216326814539748,-0.934080360486692,0.978204924028264,-1.1165584314978498,low,low,,ISIC_0056444.JPG,,ISIC_0010684.JPG,77,false,hl,keypress(j),0,true,398517,398516.89999997616,395540.245,395685.1999999881,395557.05,398390.37,1,40,34,
sequence,flow.Sequence,8_33,2023-11-15T17:51:26.817Z,,,,,,,,,,2959.84999997617,completion,,,,,,,low,low,,,,,,false,,,,true,398517.10000002384,398516.89999997616,395540.245,395685.1999999881,395557.05,398390.37,1,40,,
trial,html.Screen,8_34_0,2023-11-15T17:51:33.968Z,,,,2,-0.009234249673026,-0.0627190878028592,,false,lh,7278.130000000005,response,-1.020990671779317,0.5999999999999994,-1.0716326814539747,1.0116513850520903,0.8782049240282639,-1.0165584314978497,low,high,,ISIC_0053760.JPG,,ISIC_0011995.JPG,25,false,ll,keypress(f),0,true,405668.6999999881,405668.5,398373.725,398517.1999999881,398390.37,405540.229,1,40,35,
sequence,flow.Sequence,8_34,2023-11-15T17:51:33.968Z,,,,,,,,,,7278.130000000005,completion,,,,,,,low,high,,,,,,false,,,,true,405668.8000000119,405668.5,398373.725,398517.10000002384,398390.37,405540.229,1,40,,
trial,html.Screen,8_35_0,2023-11-15T17:51:35.504Z,,,,2,,-0.0264544974620926,,false,hh,1663.8710000238498,response,0.6867208511502763,0.5999999999999994,-1.0716326814539747,0.9657289110900686,0.9282049240282639,-1.0165584314978497,high,high,,ISIC_0056991.JPG,,ISIC_0063447.JPG,229,false,lh,keypress(e),0,true,407204.1999999881,407204.10000002384,405523.258,405668.89999997616,405540.229,407073.499,1,40,36,
sequence,flow.Sequence,8_35,2023-11-15T17:51:35.504Z,,,,,,,,,,1663.8710000238498,completion,,,,,,,high,high,,,,,,false,,,,true,407204.3000000119,407204.10000002384,405523.258,405668.8000000119,405540.229,407073.499,1,40,,
trial,html.Screen,8_36_0,2023-11-15T17:51:37.329Z,,,,2,-0.0087912446525382,-0.0619041869188676,,true,hl,1955.5009999999893,response,0.4637867460467259,0.6499999999999995,-1.0716326814539747,-1.197057463025889,0.9282049240282639,-1.0165584314978497,high,low,,ISIC_7185913.JPG,,ISIC_6777714.JPG,50,false,hl,keypress(j),0,true,409029.10000002384,409029,407056.85,407204.39999997616,407073.499,408907.034,1,40,37,
sequence,flow.Sequence,8_36,2023-11-15T17:51:37.329Z,,,,,,,,,,1955.5009999999893,completion,,,,,,,high,low,,,,,,false,,,,true,409029.1999999881,409029,407056.85,407204.39999997616,407073.499,408907.034,1,40,,
trial,html.Screen,8_37_0,2023-11-15T17:51:39.569Z,,,,2,0.0593670819812057,-0.0718390543903236,,false,hl,2361.865999976173,response,0.7911024675435955,0.6499999999999995,-1.0716326814539747,-0.7975977016137676,0.9282049240282639,-0.9665584314978497,high,low,,ISIC_0062367.JPG,,ISIC_5813642.JPG,61,false,hh,keypress(i),0,true,411269,411268.89999997616,408890.184,409029.1999999881,408907.034,411140.349,1,40,38,
sequence,flow.Sequence,8_37,2023-11-15T17:51:39.569Z,,,,,,,,,,2361.865999976173,completion,,,,,,,high,low,,,,,,false,,,,true,411269.10000002384,411268.89999997616,408890.184,409029.1999999881,408907.034,411140.349,1,40,,
trial,html.Screen,8_38_0,2023-11-15T17:51:41.457Z,,,,2,-0.0149482827359613,0.0661630859332833,,false,lh,2016.6510000000126,response,-1.0026266089287914,0.5774446067951606,-1.0716326814539747,1.0913275913920335,0.9282049240282639,-1.0165584314978497,low,high,,ISIC_6815524.JPG,,ISIC_0033520.JPG,22,false,hl,keypress(j),0,true,413157,413157,411123.639,411269.1999999881,411140.349,413023.512,1,40,39,
sequence,flow.Sequence,8_38,2023-11-15T17:51:41.457Z,,,,,,,,,,2016.6510000000126,completion,,,,,,,low,high,,,,,,false,,,,true,413157.10000002384,413157,411123.639,411269.1999999881,411140.349,413023.512,1,40,,
trial,html.Screen,8_39_0,2023-11-15T17:51:45.537Z,,,,2,0.0660839342637046,-0.0657899819532072,,true,hh,4213.588000023854,response,0.4008835756608291,0.5774446067951606,-1.1216326814539748,1.0381546694190784,0.978204924028264,-1.0165584314978497,high,high,,ISIC_0065477.JPG,,ISIC_8194835.JPG,209,false,hh,keypress(i),0,true,417237.1999999881,417237.10000002384,413006.787,413157.1999999881,413023.512,417106.928,1,40,40,
sequence,flow.Sequence,8_39,2023-11-15T17:51:45.537Z,,,,,,,,,,4213.588000023854,completion,,,,,,,high,high,,,,,,false,,,,true,417237.3000000119,417237.10000002384,413006.787,413157.1999999881,413023.512,417106.928,1,40,,
stair_loop,flow.Loop,8,2023-11-15T17:51:45.537Z,,,,,,,,,,171630.06600002383,completion,,,,,,,,,,,,,,false,,,,true,417237.39999997616,417237.10000002384,245590.635,245732.39999997616,245607.034,417106.928,1,40,,
exp_instructions,html.Screen,9,2023-11-15T17:51:47.873Z,,,,,,,,,,2465.5719999999856,response,,,,,,,,,,,,,,,continue,keypress(Space),,,419572.89999997616,419572.5,417090.387,417237.39999997616,417106.928,419440.139,,,,
trial,html.Screen,10_0_0,2023-11-15T17:51:57.987Z,,,,1,-0.0113873532168551,-0.0054999201556291,,false,hh,10247.060999988054,response,0.8658216082775305,0.6702444606795156,-1.1279455478312936,0.9788979939580964,0.925704924028264,-1.0790584314978495,high,high,,ISIC_8812621.JPG,9,ISIC_0331389.JPG,222,false,hl,keypress(j),0,false,429687.3000000119,429687.1999999881,419423.676,419573,419440.139,429556.836,4,500,1,
break,html.Screen,10_0_1,2023-11-15T17:51:57.988Z,,,,,,,,,,NaN,,,,,,,,high,high,,,,,,false,,,,false,429687.8000000119,429687.6999999881,,429687.39999997616,,429556.836,4,500,,
break_continue,html.Screen,10_0_2,2023-11-15T17:51:57.988Z,,,,,,,,,,NaN,,,,,,,,high,high,,,,,,false,,,,false,429688.10000002384,429687.89999997616,,429687.89999997616,,429556.836,4,500,,
sequence,flow.Sequence,10_0,2023-11-15T17:51:57.988Z,,,,,,,,,,10247.760999976133,completion,,,,,,,high,high,,,,,,false,,,,false,429688.10000002384,429687.89999997616,419423.676,419573,419440.139,429556.836,4,500,,
trial,html.Screen,10_1_0,2023-11-15T17:52:06.209Z,,,,1,-0.0409338693593207,0.0072462710499874,,false,lh,8351.96400001191,response,-0.9696118525781644,0.6702444606795156,-1.1279455478312936,0.9244148283103414,0.925704924028264,-1.0790584314978495,low,high,,ISIC_3608788.JPG,9,ISIC_7927525.JPG,20,false,ll,keypress(f),0,false,437908.89999997616,437908.8000000119,429540.075,429688.10000002384,429556.836,437790.673,4,500,2,
break,html.Screen,10_1_1,2023-11-15T17:52:06.209Z,,,,,,,,,,NaN,,,,,,,,low,high,,,,,,false,,,,false,437909.39999997616,437909.10000002384,,437909,,437790.673,4,500,,
break_continue,html.Screen,10_1_2,2023-11-15T17:52:06.209Z,,,,,,,,,,NaN,,,,,,,,low,high,,,,,,false,,,,false,437909.60000002384,437909.5,,437909.39999997616,,437790.673,4,500,,
sequence,flow.Sequence,10_1,2023-11-15T17:52:06.209Z,,,,,,,,,,8352.66399999999,completion,,,,,,,low,high,,,,,,false,,,,false,437909.60000002384,437909.5,429540.075,429688.10000002384,429556.836,437790.673,4,500,,
trial,html.Screen,10_2_0,2023-11-15T17:52:08.833Z,,,,1,0.0069555338059566,-0.0310100918136373,,false,lh,2742.127000011911,response,-0.9696118525781644,0.6702444606795156,-1.1279455478312936,0.9244148283103414,0.925704924028264,-1.0790584314978495,low,high,,ISIC_0011177.JPG,9,ISIC_7927525.JPG,20,false,ll,keypress(f),0,false,440533,440532.8000000119,437756.729,437909.60000002384,437790.673,440406.914,4,500,3,
break,html.Screen,10_2_1,2023-11-15T17:52:08.833Z,,,,,,,,,,NaN,,,,,,,,low,high,,,,,,false,,,,false,440533.3000000119,440533.1999999881,,440533,,440406.914,4,500,,
break_continue,html.Screen,10_2_2,2023-11-15T17:52:08.833Z,,,,,,,,,,NaN,,,,,,,,low,high,,,,,,false,,,,false,440533.5,440533.39999997616,,440533.39999997616,,440406.914,4,500,,
sequence,flow.Sequence,10_2,2023-11-15T17:52:08.833Z,,,,,,,,,,2742.7269999761484,completion,,,,,,,low,high,,,,,,false,,,,false,440533.5,440533.39999997616,437756.729,437909.60000002384,437790.673,440406.914,4,500,,
trial,html.Screen,10_3_0,2023-11-15T17:52:14.273Z,,,,1,0.0085520978188085,-0.0464691161264081,,false,ll,5565.985999976168,response,-1.3113784364933814,0.6702444606795156,-1.1279455478312936,-0.9937953947379674,0.925704924028264,-1.0790584314978495,low,low,,ISIC_0758797.JPG,8,ISIC_0025093.JPG,83,false,hl,keypress(j),0,false,445973,445972.89999997616,440390.357,440533.60000002384,440406.914,445840.155,4,500,4,
break,html.Screen,10_3_1,2023-11-15T17:52:14.273Z,,,,,,,,,,NaN,,,,,,,,low,low,,,,,,false,,,,false,445973.3000000119,445973.1999999881,,445973.10000002384,,445840.155,4,500,,
break_continue,html.Screen,10_3_2,2023-11-15T17:52:14.273Z,,,,,,,,,,NaN,,,,,,,,low,low,,,,,,false,,,,false,445973.5,445973.39999997616,,445973.39999997616,,445840.155,4,500,,
sequence,flow.Sequence,10_3,2023-11-15T17:52:14.273Z,,,,,,,,,,5566.485999976168,completion,,,,,,,low,low,,,,,,false,,,,false,445973.60000002384,445973.39999997616,440390.357,440533.60000002384,440406.914,445840.155,4,500,,
trial,html.Screen,10_4_0,2023-11-15T17:52:18.929Z,,,,1,-0.0546386976779619,0.0448724759283131,,false,hl,4788.74499997613,response,0.6416699984222508,0.6702444606795156,-1.1279455478312936,-1.0067659067144603,0.925704924028264,-1.0790584314978495,high,low,,ISIC_6722934.JPG,9,ISIC_0064784.JPG,39,false,ll,keypress(f),0,false,450629,450628.89999997616,445823.475,445973.60000002384,445840.155,450507.044,4,500,5,
break,html.Screen,10_4_1,2023-11-15T17:52:18.929Z,,,,,,,,,,NaN,,,,,,,,high,low,,,,,,false,,,,false,450629.3000000119,450629.3000000119,,450629,,450507.044,4,500,,
break_continue,html.Screen,10_4_2,2023-11-15T17:52:18.929Z,,,,,,,,,,NaN,,,,,,,,high,low,,,,,,false,,,,false,450629.5,450629.39999997616,,450629.39999997616,,450507.044,4,500,,
sequence,flow.Sequence,10_4,2023-11-15T17:52:18.929Z,,,,,,,,,,4789.24499997613,completion,,,,,,,high,low,,,,,,false,,,,false,450629.60000002384,450629.39999997616,445823.475,445973.60000002384,445840.155,450507.044,4,500,,
trial,html.Screen,10_5_0,2023-11-15T17:52:24.816Z,,,,1,-0.000047919190197942736,-0.0462652940855003,,true,lh,6009.456000000006,response,-1.2364994561934892,0.6702444606795156,-1.1279455478312936,0.9174173651516624,0.925704924028264,-1.0790584314978495,low,high,,ISIC_0011507.JPG,9,ISIC_3481133.JPG,20,false,lh,keypress(e),0,false,456516.5,456516.5,450490.339,450629.60000002384,450507.044,456390.298,4,500,6,
break,html.Screen,10_5_1,2023-11-15T17:52:24.817Z,,,,,,,,,,NaN,,,,,,,,low,high,,,,,,false,,,,false,456516.8000000119,456516.8000000119,,456516.6999999881,,456390.298,4,500,,
break_continue,html.Screen,10_5_2,2023-11-15T17:52:24.817Z,,,,,,,,,,NaN,,,,,,,,low,high,,,,,,false,,,,false,456517.10000002384,456517,,456516.89999997616,,456390.298,4,500,,
sequence,flow.Sequence,10_5,2023-11-15T17:52:24.817Z,,,,,,,,,,6009.956000000006,completion,,,,,,,low,high,,,,,,false,,,,false,456517.10000002384,456517,450490.339,450629.60000002384,450507.044,456390.298,4,500,,
trial,html.Screen,10_6_0,2023-11-15T17:52:28.416Z,,,,1,0.0544808612748248,-0.0240487075377862,,true,hh,3726.1019999761484,response,0.5420326779299836,0.6702444606795156,-1.1279455478312936,0.9841779656174554,0.925704924028264,-1.0790584314978495,high,high,,ISIC_4606646.JPG,8,ISIC_0033492.JPG,222,false,hh,keypress(i),0,false,460116.39999997616,460116.39999997616,456373.604,456517.1999999881,456390.298,459990.099,4,500,7,
break,html.Screen,10_6_1,2023-11-15T17:52:28.417Z,,,,,,,,,,NaN,,,,,,,,high,high,,,,,,false,,,,false,460116.89999997616,460116.6999999881,,460116.60000002384,,459990.099,4,500,,
break_continue,html.Screen,10_6_2,2023-11-15T17:52:28.417Z,,,,,,,,,,NaN,,,,,,,,high,high,,,,,,false,,,,false,460117,460116.89999997616,,460116.89999997616,,459990.099,4,500,,
sequence,flow.Sequence,10_6,2023-11-15T17:52:28.417Z,,,,,,,,,,3726.6019999761484,completion,,,,,,,high,high,,,,,,false,,,,false,460117,460116.89999997616,456373.604,456517.1999999881,456390.298,459990.099,4,500,,
trial,html.Screen,10_7_0,2023-11-15T17:52:31.361Z,,,,1,-0.0691769743257167,0.0638501824668941,,false,hl,3070.7010000119335,response,0.4842610483609925,0.6702444606795156,-1.1279455478312936,-1.0867066105336751,0.925704924028264,-1.0790584314978495,high,low,,ISIC_0031914.JPG,8,ISIC_0072294.JPG,39,false,hh,keypress(i),0,false,463060.89999997616,463060.8000000119,459973.794,460117.10000002384,459990.099,462940.378,4,500,8,
break,html.Screen,10_7_1,2023-11-15T17:52:31.361Z,,,,,,,,,,NaN,,,,,,,,high,low,,,,,,false,,,,false,463061.1999999881,463061.1999999881,,463061,,462940.378,4,500,,
break_continue,html.Screen,10_7_2,2023-11-15T17:52:31.361Z,,,,,,,,,,NaN,,,,,,,,high,low,,,,,,false,,,,false,463061.39999997616,463061.3000000119,,463061.3000000119,,462940.378,4,500,,
sequence,flow.Sequence,10_7,2023-11-15T17:52:31.361Z,,,,,,,,,,3071.2010000119335,completion,,,,,,,high,low,,,,,,false,,,,false,463061.39999997616,463061.3000000119,459973.794,460117.10000002384,459990.099,462940.378,4,500,,
trial,html.Screen,10_8_0,2023-11-15T17:52:34.529Z,,,,1,0.0217698886732706,-0.0410870915161425,,false,lh,3288.521999976132,response,-1.2331439637486756,0.6702444606795156,-1.1279455478312936,0.9691143900156988,0.925704924028264,-1.0790584314978495,low,high,,ISIC_0072173.JPG,8,ISIC_7877488.JPG,20,false,ll,keypress(f),0,false,466229,466228.89999997616,462923.601,463061.5,462940.378,466107.238,4,500,9,
break,html.Screen,10_8_1,2023-11-15T17:52:34.529Z,,,,,,,,,,NaN,,,,,,,,low,high,,,,,,false,,,,false,466229.3000000119,466229.1999999881,,466229.10000002384,,466107.238,4,500,,
break_continue,html.Screen,10_8_2,2023-11-15T17:52:34.529Z,,,,,,,,,,NaN,,,,,,,,low,high,,,,,,false,,,,false,466229.5,466229.39999997616,,466229.3000000119,,466107.238,4,500,,
sequence,flow.Sequence,10_8,2023-11-15T17:52:34.529Z,,,,,,,,,,3289.021999976132,completion,,,,,,,low,high,,,,,,false,,,,false,466229.60000002384,466229.39999997616,462923.601,463061.5,462940.378,466107.238,4,500,,
trial,html.Screen,10_9_0,2023-11-15T17:52:38.961Z,,,,1,-0.013431314305098,0.0140597582944232,,false,lh,4553.86200002383,response,-1.0026266089287914,0.6702444606795156,-1.1279455478312936,1.0913275913920335,0.925704924028264,-1.0790584314978495,low,high,,ISIC_0069617.JPG,9,ISIC_0033520.JPG,20,false,hl,keypress(j),0,false,470661.1999999881,470661.10000002384,466090.277,466229.60000002384,466107.238,470540.188,4,500,10,
break,html.Screen,10_9_1,2023-11-15T17:52:38.961Z,,,,,,,,,,NaN,,,,,,,,low,high,,,,,,false,,,,false,470661.5,470661.3000000119,,470661.1999999881,,470540.188,4,500,,
break_continue,html.Screen,10_9_2,2023-11-15T17:52:38.961Z,,,,,,,,,,NaN,,,,,,,,low,high,,,,,,false,,,,false,470661.6999999881,470661.60000002384,,470661.5,,470540.188,4,500,,
sequence,flow.Sequence,10_9,2023-11-15T17:52:38.962Z,,,,,,,,,,4554.36200002383,completion,,,,,,,low,high,,,,,,false,,,,false,470661.6999999881,470661.60000002384,466090.277,466229.60000002384,466107.238,470540.188,4,500,,
trial,html.Screen,10_10_0,2023-11-15T17:52:49.249Z,,,,1,0.0511770300585718,0.029030243555971,,true,ll,10408.811999999976,response,-1.0955230579285264,0.6702444606795156,-1.1279455478312936,-0.8842300616754196,0.925704924028264,-1.0790584314978495,low,low,,ISIC_6652978.JPG,9,ISIC_4148086.JPG,83,false,ll,keypress(f),0,false,480949,480949,470523.667,470661.6999999881,470540.188,480823.854,4,500,11,
break,html.Screen,10_10_1,2023-11-15T17:52:49.249Z,,,,,,,,,,NaN,,,,,,,,low,low,,,,,,false,,,,false,480949.3000000119,480949.3000000119,,480949.10000002384,,480823.854,4,500,,
break_continue,html.Screen,10_10_2,2023-11-15T17:52:49.249Z,,,,,,,,,,NaN,,,,,,,,low,low,,,,,,false,,,,false,480949.5,480949.5,,480949.39999997616,,480823.854,4,500,,
sequence,flow.Sequence,10_10,2023-11-15T17:52:49.249Z,,,,,,,,,,10409.311999999976,completion,,,,,,,low,low,,,,,,false,,,,false,480949.60000002384,480949.5,470523.667,470661.6999999881,470540.188,480823.854,4,500,,
trial,html.Screen,10_11_0,2023-11-15T17:52:58.897Z,,,,1,-0.0087912446525382,-0.0619041869188676,,false,hh,9772.946000011929,response,0.5247519797831253,0.6702444606795156,-1.1279455478312936,0.7612472458680769,0.925704924028264,-1.0790584314978495,high,high,,ISIC_7185913.JPG,9,ISIC_5307210.JPG,222,false,hl,keypress(j),0,false,490596.89999997616,490596.8000000119,480807.177,480949.60000002384,480823.854,490473.671,4,500,12,
break,html.Screen,10_11_1,2023-11-15T17:52:58.897Z,,,,,,,,,,NaN,,,,,,,,high,high,,,,,,false,,,,false,490597.1999999881,490597.1999999881,,490597,,490473.671,4,500,,
break_continue,html.Screen,10_11_2,2023-11-15T17:52:58.897Z,,,,,,,,,,NaN,,,,,,,,high,high,,,,,,false,,,,false,490597.39999997616,490597.3000000119,,490597.1999999881,,490473.671,4,500,,
sequence,flow.Sequence,10_11,2023-11-15T17:52:58.897Z,,,,,,,,,,9773.446000011929,completion,,,,,,,high,high,,,,,,false,,,,false,490597.39999997616,490597.3000000119,480807.177,480949.60000002384,480823.854,490473.671,4,500,,
trial,html.Screen,10_12_0,2023-11-15T17:53:05.056Z,,,,1,-0.0051189696037511,0.0396625911332438,,false,hl,6282.129000011948,response,0.705042352333099,0.6702444606795156,-1.1279455478312936,-0.9127244278050396,0.925704924028264,-1.0790584314978495,high,low,,ISIC_9742891.JPG,9,ISIC_0787229.JPG,39,false,ll,keypress(f),0,false,496756,496755.8000000119,490456.856,490597.39999997616,490473.671,496623.412,4,500,13,
break,html.Screen,10_12_1,2023-11-15T17:53:05.056Z,,,,,,,,,,NaN,,,,,,,,high,low,,,,,,false,,,,false,496756.1999999881,496756.1999999881,,496756.10000002384,,496623.412,4,500,,
break_continue,html.Screen,10_12_2,2023-11-15T17:53:05.056Z,,,,,,,,,,NaN,,,,,,,,high,low,,,,,,false,,,,false,496756.5,496756.39999997616,,496756.3000000119,,496623.412,4,500,,
sequence,flow.Sequence,10_12,2023-11-15T17:53:05.056Z,,,,,,,,,,6282.728999976185,completion,,,,,,,high,low,,,,,,false,,,,false,496756.5,496756.39999997616,490456.856,490597.39999997616,490473.671,496623.412,4,500,,
trial,html.Screen,10_13_0,2023-11-15T17:53:07.649Z,,,,1,-0.0409338693593207,0.0072462710499874,,true,ll,2725.487999976147,response,-1.2023251949137908,0.6702444606795156,-1.1279455478312936,-0.883329474530484,0.925704924028264,-1.0790584314978495,low,low,,ISIC_3608788.JPG,9,ISIC_2620357.JPG,83,false,ll,keypress(f),0,false,499349,499348.89999997616,496606.809,496756.5,496623.412,499223.387,4,500,14,
break,html.Screen,10_13_1,2023-11-15T17:53:07.649Z,,,,,,,,,,NaN,,,,,,,,low,low,,,,,,false,,,,false,499349.3000000119,499349.1999999881,,499349,,499223.387,4,500,,
break_continue,html.Screen,10_13_2,2023-11-15T17:53:07.649Z,,,,,,,,,,NaN,,,,,,,,low,low,,,,,,false,,,,false,499349.5,499349.39999997616,,499349.3000000119,,499223.387,4,500,,
sequence,flow.Sequence,10_13,2023-11-15T17:53:07.649Z,,,,,,,,,,2725.987999976147,completion,,,,,,,low,low,,,,,,false,,,,false,499349.5,499349.39999997616,496606.809,496756.5,496623.412,499223.387,4,500,,
trial,html.Screen,10_14_0,2023-11-15T17:53:12.817Z,,,,1,0.063045324701596,-0.0064789751878758,,true,hh,5293.51299997617,response,0.8404161492288882,0.6702444606795156,-1.1279455478312936,0.757299739884202,0.925704924028264,-1.0790584314978495,high,high,,ISIC_5805349.JPG,9,ISIC_0034256.JPG,222,false,hh,keypress(i),0,false,504517,504516.89999997616,499207.14,499349.5,499223.387,504390.239,4,500,15,
break,html.Screen,10_14_1,2023-11-15T17:53:12.817Z,,,,,,,,,,NaN,,,,,,,,high,high,,,,,,false,,,,false,504517.3000000119,504517.1999999881,,504517.10000002384,,504390.239,4,500,,
break_continue,html.Screen,10_14_2,2023-11-15T17:53:12.817Z,,,,,,,,,,NaN,,,,,,,,high,high,,,,,,false,,,,false,504517.5,504517.39999997616,,504517.39999997616,,504390.239,4,500,,
sequence,flow.Sequence,10_14,2023-11-15T17:53:12.817Z,,,,,,,,,,5294.01299997617,completion,,,,,,,high,high,,,,,,false,,,,false,504517.60000002384,504517.39999997616,499207.14,499349.5,499223.387,504390.239,4,500,,
trial,html.Screen,10_15_0,2023-11-15T17:53:16.032Z,,,,1,-0.0292059717970335,-0.0718256867525069,,true,hh,3341.9609999880777,response,0.7217326688439986,0.6702444606795156,-1.1279455478312936,0.7521168894214699,0.925704924028264,-1.0790584314978495,high,high,,ISIC_1114966.JPG,9,ISIC_0030080.JPG,222,false,hh,keypress(i),0,false,507732.3000000119,507732.1999999881,504373.506,504517.60000002384,504390.239,507606.923,4,500,16,
break,html.Screen,10_15_1,2023-11-15T17:53:16.033Z,,,,,,,,,,NaN,,,,,,,,high,high,,,,,,false,,,,false,507732.6999999881,507732.60000002384,,507732.5,,507606.923,4,500,,
break_continue,html.Screen,10_15_2,2023-11-15T17:53:16.033Z,,,,,,,,,,NaN,,,,,,,,high,high,,,,,,false,,,,false,507732.89999997616,507732.8000000119,,507732.6999999881,,507606.923,4,500,,
sequence,flow.Sequence,10_15,2023-11-15T17:53:16.033Z,,,,,,,,,,3342.5610000119195,completion,,,,,,,high,high,,,,,,false,,,,false,507733,507732.8000000119,504373.506,504517.60000002384,504390.239,507606.923,4,500,,
trial,html.Screen,10_16_0,2023-11-15T17:53:21.057Z,,,,1,0.0057914759495055,0.0074667911845194,,true,ll,5149.677000023832,response,-1.0769490291795207,0.6702444606795156,-1.1279455478312936,-1.0174515954885954,0.925704924028264,-1.0790584314978495,low,low,,ISIC_0058723.JPG,9,ISIC_0028135.JPG,83,false,ll,keypress(f),0,false,512756.60000002384,512756.60000002384,507590.199,507733,507606.923,512623.403,4,500,17,
break,html.Screen,10_16_1,2023-11-15T17:53:21.057Z,,,,,,,,,,NaN,,,,,,,,low,low,,,,,,false,,,,false,512757,512757,,512756.6999999881,,512623.403,4,500,,
break_continue,html.Screen,10_16_2,2023-11-15T17:53:21.057Z,,,,,,,,,,NaN,,,,,,,,low,low,,,,,,false,,,,false,512757.1999999881,512757.10000002384,,512757,,512623.403,4,500,,
sequence,flow.Sequence,10_16,2023-11-15T17:53:21.057Z,,,,,,,,,,5150.177000023832,completion,,,,,,,low,low,,,,,,false,,,,false,512757.3000000119,512757.10000002384,507590.199,507733,507606.923,512623.403,4,500,,
trial,html.Screen,10_17_0,2023-11-15T17:53:25.872Z,,,,1,0.0070725527271049,0.0049995141077508,,false,lh,4948.996999976167,response,-0.9579209317488,0.6702444606795156,-1.1279455478312936,1.0147487101263497,0.925704924028264,-1.0790584314978495,low,high,,ISIC_6124481.JPG,9,ISIC_8124482.JPG,20,false,hl,keypress(j),0,false,517572.5,517572.39999997616,512606.79,512757.3000000119,512623.403,517456.722,4,500,18,
break,html.Screen,10_17_1,2023-11-15T17:53:25.873Z,,,,,,,,,,NaN,,,,,,,,low,high,,,,,,false,,,,false,517572.8000000119,517572.6999999881,,517572.60000002384,,517456.722,4,500,,
break_continue,html.Screen,10_17_2,2023-11-15T17:53:25.873Z,,,,,,,,,,NaN,,,,,,,,low,high,,,,,,false,,,,false,517572.89999997616,517572.8000000119,,517572.8000000119,,517456.722,4,500,,
sequence,flow.Sequence,10_17,2023-11-15T17:53:25.873Z,,,,,,,,,,4949.39700001193,completion,,,,,,,low,high,,,,,,false,,,,false,517572.89999997616,517572.8000000119,512606.79,512757.3000000119,512623.403,517456.722,4,500,,
trial,html.Screen,10_18_0,2023-11-15T17:53:31.969Z,,,,1,-0.0644357632656846,-0.0501167370292348,,false,hl,6212.078000011912,response,0.4775629301627269,0.6702444606795156,-1.1279455478312936,-0.9159259992668974,0.925704924028264,-1.0790584314978495,high,low,,ISIC_5207050.JPG,9,ISIC_1258986.JPG,39,false,hh,keypress(i),0,false,523668.8000000119,523668.8000000119,517440.308,517573,517456.722,523540.135,4,500,19,
break,html.Screen,10_18_1,2023-11-15T17:53:31.969Z,,,,,,,,,,NaN,,,,,,,,high,low,,,,,,false,,,,false,523669.10000002384,523669,,523668.89999997616,,523540.135,4,500,,
break_continue,html.Screen,10_18_2,2023-11-15T17:53:31.969Z,,,,,,,,,,NaN,,,,,,,,high,low,,,,,,false,,,,false,523669.1999999881,523669.1999999881,,523669.10000002384,,523540.135,4,500,,
sequence,flow.Sequence,10_18,2023-11-15T17:53:31.969Z,,,,,,,,,,6212.47799998807,completion,,,,,,,high,low,,,,,,false,,,,false,523669.39999997616,523669.1999999881,517440.308,517573,517456.722,523540.135,4,500,,
trial,html.Screen,10_19_0,2023-11-15T17:53:38.753Z,,,,1,-0.0737104822171846,0.0725320314728604,,true,hh,6912.764999976149,response,0.6479152933277884,0.6702444606795156,-1.1279455478312936,0.9855381628335887,0.925704924028264,-1.0790584314978495,high,high,,ISIC_0002862.JPG,8,ISIC_0030119.JPG,222,false,hh,keypress(i),0,false,530453,530452.8999999762,523523.512,523669.39999997616,523540.135,530323.491,4,500,20,
break,html.Screen,10_19_1,2023-11-15T17:53:38.753Z,,,,,,,,,,NaN,,,,,,,,high,high,,,,,,false,,,,false,530453.3000000119,530453.3000000119,,530453.1000000238,,530323.491,4,500,,
break_continue,html.Screen,10_19_2,2023-11-15T17:53:38.753Z,,,,,,,,,,NaN,,,,,,,,high,high,,,,,,false,,,,false,530453.6000000238,530453.5,,530453.3000000119,,530323.491,4,500,,
sequence,flow.Sequence,10_19,2023-11-15T17:53:38.754Z,,,,,,,,,,6913.364999999991,completion,,,,,,,high,high,,,,,,false,,,,false,530453.6000000238,530453.5,523523.512,523669.39999997616,523540.135,530323.491,4,500,,
trial,html.Screen,10_20_0,2023-11-15T17:53:45.521Z,,,,1,-0.0546386976779619,0.0448724759283131,,false,ll,6897.109000023804,response,-1.0378929077920005,0.6702444606795156,-1.1279455478312936,-1.012953297890337,0.925704924028264,-1.0790584314978495,low,low,,ISIC_6722934.JPG,10,ISIC_0231745.JPG,83,false,lh,keypress(e),0,false,537220.8000000119,537220.6000000238,530306.838,530453.6999999881,530323.491,537090.013,4,500,21,
break,html.Screen,10_20_1,2023-11-15T17:53:45.521Z,,,,,,,,,,NaN,,,,,,,,low,low,,,,,,false,,,,false,537221,537221,,537220.8000000119,,537090.013,4,500,,
break_continue,html.Screen,10_20_2,2023-11-15T17:53:45.521Z,,,,,,,,,,NaN,,,,,,,,low,low,,,,,,false,,,,false,537221.1000000238,537221.1000000238,,537221,,537090.013,4,500,,
sequence,flow.Sequence,10_20,2023-11-15T17:53:45.521Z,,,,,,,,,,6897.609000023804,completion,,,,,,,low,low,,,,,,false,,,,false,537221.1999999881,537221.1000000238,530306.838,530453.6999999881,530323.491,537090.013,4,500,,
trial,html.Screen,10_21_0,2023-11-15T17:53:51.521Z,,,,1,0.0389988030702649,0.0143212271490256,,true,hl,6130.886999976123,response,0.5450438506040646,0.6702444606795156,-1.1279455478312936,-1.1072497324901152,0.925704924028264,-1.0790584314978495,high,low,,ISIC_0064669.JPG,8,ISIC_2690597.JPG,39,false,hl,keypress(j),0,false,543220.8999999762,543220.8999999762,537073.481,537221.3000000119,537090.013,543090.009,4,500,22,
break,html.Screen,10_21_1,2023-11-15T17:53:51.521Z,,,,,,,,,,NaN,,,,,,,,high,low,,,,,,false,,,,false,543221.1999999881,543221.1999999881,,543221,,543090.009,4,500,,
break_continue,html.Screen,10_21_2,2023-11-15T17:53:51.521Z,,,,,,,,,,NaN,,,,,,,,high,low,,,,,,false,,,,false,543221.3999999762,543221.3999999762,,543221.3000000119,,543090.009,4,500,,
sequence,flow.Sequence,10_21,2023-11-15T17:53:51.522Z,,,,,,,,,,6131.386999976123,completion,,,,,,,high,low,,,,,,false,,,,false,543221.5,543221.3999999762,537073.481,537221.3000000119,537090.013,543090.009,4,500,,
trial,html.Screen,10_22_0,2023-11-15T17:53:55.393Z,,,,1,0.0027483411352856,0.0100996915276271,,false,hl,4002.791000011959,response,0.5033310017384376,0.6702444606795156,-1.1279455478312936,-1.0257168197307909,0.925704924028264,-1.0790584314978495,high,low,,ISIC_7364041.JPG,9,ISIC_1690909.JPG,39,false,hh,keypress(i),0,false,547092.8999999762,547092.8000000119,543073.509,543221.5,543090.009,546973.49,4,500,23,
break,html.Screen,10_22_1,2023-11-15T17:53:55.393Z,,,,,,,,,,NaN,,,,,,,,high,low,,,,,,false,,,,false,547093.1999999881,547093.1999999881,,547093.1000000238,,546973.49,4,500,,
break_continue,html.Screen,10_22_2,2023-11-15T17:53:55.393Z,,,,,,,,,,NaN,,,,,,,,high,low,,,,,,false,,,,false,547093.3999999762,547093.3000000119,,547093.3000000119,,546973.49,4,500,,
sequence,flow.Sequence,10_22,2023-11-15T17:53:55.393Z,,,,,,,,,,4003.291000011959,completion,,,,,,,high,low,,,,,,false,,,,false,547093.5,547093.3000000119,543073.509,543221.5,543090.009,546973.49,4,500,,
trial,html.Screen,10_23_0,2023-11-15T17:54:01.921Z,,,,1,0.0194167651857046,0.0726253809408601,,false,hh,6647.31000001193,response,0.4889031195698321,0.6702444606795156,-1.1279455478312936,0.7276981259321655,0.925704924028264,-1.0790584314978495,high,high,,ISIC_0056692.JPG,9,ISIC_0072157.JPG,222,false,hl,keypress(j),0,false,553621,553620.8000000119,546956.678,547093.5,546973.49,553489.997,4,500,24,
break,html.Screen,10_23_1,2023-11-15T17:54:01.921Z,,,,,,,,,,NaN,,,,,,,,high,high,,,,,,false,,,,false,553621.3000000119,553621.1999999881,,553621,,553489.997,4,500,,
break_continue,html.Screen,10_23_2,2023-11-15T17:54:01.921Z,,,,,,,,,,NaN,,,,,,,,high,high,,,,,,false,,,,false,553621.5,553621.3999999762,,553621.3000000119,,553489.997,4,500,,
sequence,flow.Sequence,10_23,2023-11-15T17:54:01.922Z,,,,,,,,,,6647.9099999761675,completion,,,,,,,high,high,,,,,,false,,,,false,553621.5,553621.3999999762,546956.678,547093.5,546973.49,553489.997,4,500,,
trial,html.Screen,10_24_0,2023-11-15T17:54:04.497Z,,,,1,0.0217698886732706,-0.0410870915161425,,true,hh,2706.702999988105,response,0.7593404817744267,0.6702444606795156,-1.1279455478312936,0.8064601045837071,0.925704924028264,-1.0790584314978495,high,high,,ISIC_0072173.JPG,9,ISIC_0010278.JPG,222,false,hh,keypress(i),0,false,556196.8000000119,556196.6999999881,553473.535,553621.6000000238,553489.997,556073.342,4,500,25,
break,html.Screen,10_24_1,2023-11-15T17:54:04.497Z,,,,,,,,,,NaN,,,,,,,,high,high,,,,,,false,,,,false,556197.1000000238,556197.1000000238,,556196.8999999762,,556073.342,4,500,,
break_continue,html.Screen,10_24_2,2023-11-15T17:54:04.497Z,,,,,,,,,,NaN,,,,,,,,high,high,,,,,,false,,,,false,556197.3000000119,556197.3000000119,,556197.1000000238,,556073.342,4,500,,
sequence,flow.Sequence,10_24,2023-11-15T17:54:04.497Z,,,,,,,,,,2707.303000011947,completion,,,,,,,high,high,,,,,,false,,,,false,556197.3000000119,556197.3000000119,553473.535,553621.6000000238,553489.997,556073.342,4,500,,
trial,html.Screen,10_25_0,2023-11-15T17:54:06.800Z,,,,1,-0.040191644178716,0.0622582668671422,,false,ll,2426.758000023896,response,-1.0909285203537074,0.6702444606795156,-1.1279455478312936,-1.013890238726642,0.925704924028264,-1.0790584314978495,low,low,,ISIC_6207688.JPG,9,ISIC_0033799.JPG,83,false,lh,keypress(e),0,false,558500.1999999881,558500.1000000238,556056.891,556197.3999999762,556073.342,558373.32,4,500,26,
break,html.Screen,10_25_1,2023-11-15T17:54:06.801Z,,,,,,,,,,NaN,,,,,,,,low,low,,,,,,false,,,,false,558500.5,558500.5,,558500.3000000119,,558373.32,4,500,,
break_continue,html.Screen,10_25_2,2023-11-15T17:54:06.801Z,,,,,,,,,,NaN,,,,,,,,low,low,,,,,,false,,,,false,558500.6000000238,558500.6000000238,,558500.5,,558373.32,4,500,,
sequence,flow.Sequence,10_25,2023-11-15T17:54:06.801Z,,,,,,,,,,2427.258000023896,completion,,,,,,,low,low,,,,,,false,,,,false,558500.6999999881,558500.6000000238,556056.891,556197.3999999762,556073.342,558373.32,4,500,,
trial,html.Screen,10_26_0,2023-11-15T17:54:08.224Z,,,,1,0.0324770283903853,0.0249968632204382,,false,ll,1550.8799999881303,response,-1.0959058628476686,0.6702444606795156,-1.1279455478312936,-1.1684835186766898,0.925704924028264,-1.0790584314978495,low,low,,ISIC_7266462.JPG,8,ISIC_5920470.JPG,83,false,hl,keypress(j),0,false,559924.3000000119,559924.1999999881,558356.879,558500.6999999881,558373.32,559789.986,4,500,27,
break,html.Screen,10_26_1,2023-11-15T17:54:08.225Z,,,,,,,,,,NaN,,,,,,,,low,low,,,,,,false,,,,false,559924.6000000238,559924.6000000238,,559924.3999999762,,559789.986,4,500,,
break_continue,html.Screen,10_26_2,2023-11-15T17:54:08.225Z,,,,,,,,,,NaN,,,,,,,,low,low,,,,,,false,,,,false,559924.8000000119,559924.6999999881,,559924.6999999881,,559789.986,4,500,,
sequence,flow.Sequence,10_26,2023-11-15T17:54:08.225Z,,,,,,,,,,1551.3799999881303,completion,,,,,,,low,low,,,,,,false,,,,false,559924.8000000119,559924.6999999881,558356.879,558500.6999999881,558373.32,559789.986,4,500,,
trial,html.Screen,10_27_0,2023-11-15T17:54:13.297Z,,,,1,0.0415913596725838,-0.0543422987007948,,false,hl,5206.814000011887,response,0.7197989269080959,0.6702444606795156,-1.1279455478312936,-0.9410141415297968,0.925704924028264,-1.0790584314978495,high,low,,ISIC_0027956.JPG,9,ISIC_2635051.JPG,39,false,hh,keypress(i),0,false,564996.8999999762,564996.8000000119,559773.361,559924.8999999762,559789.986,564873.319,4,500,28,
break,html.Screen,10_27_1,2023-11-15T17:54:13.297Z,,,,,,,,,,NaN,,,,,,,,high,low,,,,,,false,,,,false,564997.1999999881,564997.1000000238,,564996.8999999762,,564873.319,4,500,,
break_continue,html.Screen,10_27_2,2023-11-15T17:54:13.297Z,,,,,,,,,,NaN,,,,,,,,high,low,,,,,,false,,,,false,564997.3000000119,564997.3000000119,,564997.1999999881,,564873.319,4,500,,
sequence,flow.Sequence,10_27,2023-11-15T17:54:13.297Z,,,,,,,,,,5207.314000011887,completion,,,,,,,high,low,,,,,,false,,,,false,564997.5,564997.3000000119,559773.361,559924.8999999762,559789.986,564873.319,4,500,,
trial,html.Screen,10_28_0,2023-11-15T17:54:17.665Z,,,,1,-0.0097091270150747,0.0417921315885292,,false,lh,4491.58099997614,response,-1.1181734135756094,0.6702444606795156,-1.1279455478312936,0.944560381774994,0.925704924028264,-1.0790584314978495,low,high,,ISIC_3967213.JPG,9,ISIC_9688534.JPG,20,false,hl,keypress(j),0,false,569365,569364.8999999762,564856.859,564997.5,564873.319,569240.267,4,500,29,
break,html.Screen,10_28_1,2023-11-15T17:54:17.665Z,,,,,,,,,,NaN,,,,,,,,low,high,,,,,,false,,,,false,569365.3000000119,569365.1999999881,,569365.1000000238,,569240.267,4,500,,
break_continue,html.Screen,10_28_2,2023-11-15T17:54:17.665Z,,,,,,,,,,NaN,,,,,,,,low,high,,,,,,false,,,,false,569365.5,569365.3999999762,,569365.3000000119,,569240.267,4,500,,
sequence,flow.Sequence,10_28,2023-11-15T17:54:17.666Z,,,,,,,,,,4492.08099997614,completion,,,,,,,low,high,,,,,,false,,,,false,569365.5,569365.3999999762,564856.859,564997.5,564873.319,569240.267,4,500,,
trial,html.Screen,10_29_0,2023-11-15T17:54:22.161Z,,,,1,0.0336891949856763,0.060314732178219,,false,lh,4620.733000000007,response,-1.0865333402803938,0.6702444606795156,-1.1279455478312936,1.0542635307358266,0.925704924028264,-1.0790584314978495,low,high,,ISIC_6192289.JPG,9,ISIC_0034006.JPG,20,false,hl,keypress(j),0,false,573861,573861,569223.543,569365.6000000238,569240.267,573740.273,4,500,30,
break,html.Screen,10_29_1,2023-11-15T17:54:22.161Z,,,,,,,,,,NaN,,,,,,,,low,high,,,,,,false,,,,false,573861.3000000119,573861.1999999881,,573861.1000000238,,573740.273,4,500,,
break_continue,html.Screen,10_29_2,2023-11-15T17:54:22.162Z,,,,,,,,,,NaN,,,,,,,,low,high,,,,,,false,,,,false,573861.5,573861.5,,573861.3999999762,,573740.273,4,500,,
sequence,flow.Sequence,10_29,2023-11-15T17:54:22.162Z,,,,,,,,,,4621.233000000007,completion,,,,,,,low,high,,,,,,false,,,,false,573861.6000000238,573861.5,569223.543,569365.6000000238,569240.267,573740.273,4,500,,
trial,html.Screen,10_30_0,2023-11-15T17:54:25.953Z,,,,1,0.0329095507339554,-0.0382899749693245,,true,hh,3912.4269999880344,response,0.5341542913884618,0.6702444606795156,-1.1279455478312936,0.8428688020250023,0.925704924028264,-1.0790584314978495,high,high,,ISIC_8812781.JPG,9,ISIC_0066289.JPG,222,false,hh,keypress(i),0,false,577652.8000000119,577652.6999999881,573723.45,573861.6000000238,573740.273,577523.472,4,500,31,
break,html.Screen,10_30_1,2023-11-15T17:54:25.953Z,,,,,,,,,,NaN,,,,,,,,high,high,,,,,,false,,,,false,577653.1999999881,577653.1000000238,,577652.8999999762,,577523.472,4,500,,
break_continue,html.Screen,10_30_2,2023-11-15T17:54:25.953Z,,,,,,,,,,NaN,,,,,,,,high,high,,,,,,false,,,,false,577653.3000000119,577653.3000000119,,577653.1999999881,,577523.472,4,500,,
sequence,flow.Sequence,10_30,2023-11-15T17:54:25.953Z,,,,,,,,,,3913.027000011876,completion,,,,,,,high,high,,,,,,false,,,,false,577653.3000000119,577653.3000000119,573723.45,573861.6000000238,573740.273,577523.472,4,500,,
trial,html.Screen,10_31_0,2023-11-15T17:54:29.696Z,,,,1,0.0363437082783146,0.0333332186217051,,true,hh,3872.7279999881284,response,0.5772401240887587,0.6702444606795156,-1.1279455478312936,0.7740914362745676,0.925704924028264,-1.0790584314978495,high,high,,ISIC_3314555.JPG,9,ISIC_0054312.JPG,222,false,hh,keypress(i),0,false,581396.3000000119,581396.1999999881,577506.706,577653.3999999762,577523.472,581273.373,4,500,32,
break,html.Screen,10_31_1,2023-11-15T17:54:29.697Z,,,,,,,,,,NaN,,,,,,,,high,high,,,,,,false,,,,false,581396.6000000238,581396.5,,581396.3000000119,,581273.373,4,500,,
break_continue,html.Screen,10_31_2,2023-11-15T17:54:29.697Z,,,,,,,,,,NaN,,,,,,,,high,high,,,,,,false,,,,false,581396.8000000119,581396.6999999881,,581396.6000000238,,581273.373,4,500,,
sequence,flow.Sequence,10_31,2023-11-15T17:54:29.697Z,,,,,,,,,,3873.2279999881284,completion,,,,,,,high,high,,,,,,false,,,,false,581396.8000000119,581396.6999999881,577506.706,577653.3999999762,577523.472,581273.373,4,500,,
trial,html.Screen,10_32_0,2023-11-15T17:54:36.305Z,,,,1,-0.0409338693593207,0.0072462710499874,,true,ll,6731.326999988058,response,-1.1642596483638106,0.6702444606795156,-1.1279455478312936,-1.109799097093339,0.925704924028264,-1.0790584314978495,low,low,,ISIC_3608788.JPG,9,ISIC_0765584.JPG,83,false,ll,keypress(f),0,false,588004.8000000119,588004.6999999881,581256.68,581396.8000000119,581273.373,587873.291,4,500,33,
break,html.Screen,10_32_1,2023-11-15T17:54:36.305Z,,,,,,,,,,NaN,,,,,,,,low,low,,,,,,false,,,,false,588005.1000000238,588005,,588005,,587873.291,4,500,,
break_continue,html.Screen,10_32_2,2023-11-15T17:54:36.305Z,,,,,,,,,,NaN,,,,,,,,low,low,,,,,,false,,,,false,588005.3000000119,588005.3000000119,,588005.1999999881,,587873.291,4,500,,
sequence,flow.Sequence,10_32,2023-11-15T17:54:36.305Z,,,,,,,,,,6731.9270000118995,completion,,,,,,,low,low,,,,,,false,,,,false,588005.3000000119,588005.3000000119,581256.68,581396.8000000119,581273.373,587873.291,4,500,,
trial,html.Screen,10_33_0,2023-11-15T17:54:40.833Z,,,,1,-0.0149482827359613,0.0661630859332833,,true,hh,4659.60899997619,response,0.6488951781578239,0.6702444606795156,-1.1279455478312936,0.9788516918403384,0.925704924028264,-1.0790584314978495,high,high,,ISIC_6815524.JPG,9,ISIC_0062114.JPG,222,false,hh,keypress(i),0,false,592533,592532.8999999762,587856.884,588005.3999999762,587873.291,592407.07,4,500,34,
break,html.Screen,10_33_1,2023-11-15T17:54:40.833Z,,,,,,,,,,NaN,,,,,,,,high,high,,,,,,false,,,,false,592533.3000000119,592533.1999999881,,592533.1000000238,,592407.07,4,500,,
break_continue,html.Screen,10_33_2,2023-11-15T17:54:40.834Z,,,,,,,,,,NaN,,,,,,,,high,high,,,,,,false,,,,false,592533.5,592533.5,,592533.3000000119,,592407.07,4,500,,
sequence,flow.Sequence,10_33,2023-11-15T17:54:40.834Z,,,,,,,,,,4660.209000000032,completion,,,,,,,high,high,,,,,,false,,,,false,592533.6000000238,592533.5,587856.884,588005.3999999762,587873.291,592407.07,4,500,,
trial,html.Screen,10_34_0,2023-11-15T17:54:42.689Z,,,,1,-0.0409338693593207,0.0072462710499874,,false,hl,1981.2300000119722,response,0.6132586392346531,0.6702444606795156,-1.1279455478312936,-0.9190152836889912,0.925704924028264,-1.0790584314978495,high,low,,ISIC_3608788.JPG,8,ISIC_5833422.JPG,39,false,hh,keypress(i),0,false,594388.3999999762,594388.3000000119,592390.115,592533.6000000238,592407.07,594256.656,4,500,35,
break,html.Screen,10_34_1,2023-11-15T17:54:42.689Z,,,,,,,,,,NaN,,,,,,,,high,low,,,,,,false,,,,false,594388.6999999881,594388.6000000238,,594388.3999999762,,594256.656,4,500,,
break_continue,html.Screen,10_34_2,2023-11-15T17:54:42.689Z,,,,,,,,,,NaN,,,,,,,,high,low,,,,,,false,,,,false,594389,594388.8999999762,,594388.8000000119,,594256.656,4,500,,
sequence,flow.Sequence,10_34,2023-11-15T17:54:42.689Z,,,,,,,,,,1981.8299999762094,completion,,,,,,,high,low,,,,,,false,,,,false,594389,594388.8999999762,592390.115,592533.6000000238,592407.07,594256.656,4,500,,
trial,html.Screen,10_35_0,2023-11-15T17:54:49.489Z,,,,1,0.0085520978188085,-0.0464691161264081,,false,hl,6932.144000011962,response,0.5170832920581534,0.6702444606795156,-1.1279455478312936,-0.9206550319628122,0.925704924028264,-1.0790584314978495,high,low,,ISIC_0758797.JPG,8,ISIC_3000569.JPG,39,false,hh,keypress(i),0,false,601188.8999999762,601188.8000000119,594240.104,594389,594256.656,601056.639,4,500,36,
break,html.Screen,10_35_1,2023-11-15T17:54:49.489Z,,,,,,,,,,NaN,,,,,,,,high,low,,,,,,false,,,,false,601189.1999999881,601189.1000000238,,601188.8999999762,,601056.639,4,500,,
break_continue,html.Screen,10_35_2,2023-11-15T17:54:49.489Z,,,,,,,,,,NaN,,,,,,,,high,low,,,,,,false,,,,false,601189.3999999762,601189.3000000119,,601189.3000000119,,601056.639,4,500,,
sequence,flow.Sequence,10_35,2023-11-15T17:54:49.490Z,,,,,,,,,,6932.644000011962,completion,,,,,,,high,low,,,,,,false,,,,false,601189.3999999762,601189.3000000119,594240.104,594389,594256.656,601056.639,4,500,,
trial,html.Screen,10_36_0,2023-11-15T17:54:52.849Z,,,,1,0.007397293189458,0.0174716772037504,,false,lh,3492.1610000119545,response,-0.991282840649944,0.6702444606795156,-1.1279455478312936,0.9397921099839784,0.925704924028264,-1.0790584314978495,low,high,,ISIC_0056226.JPG,9,ISIC_0000463.JPG,20,false,hh,keypress(i),0,false,604548.8999999762,604548.8000000119,601039.995,601189.5,601056.639,604423.505,4,500,37,
break,html.Screen,10_36_1,2023-11-15T17:54:52.849Z,,,,,,,,,,NaN,,,,,,,,low,high,,,,,,false,,,,false,604549.1999999881,604549.1000000238,,604548.8999999762,,604423.505,4,500,,
break_continue,html.Screen,10_36_2,2023-11-15T17:54:52.849Z,,,,,,,,,,NaN,,,,,,,,low,high,,,,,,false,,,,false,604549.3999999762,604549.3000000119,,604549.1999999881,,604423.505,4,500,,
sequence,flow.Sequence,10_36,2023-11-15T17:54:52.850Z,,,,,,,,,,3492.6610000119545,completion,,,,,,,low,high,,,,,,false,,,,false,604549.3999999762,604549.3000000119,601039.995,601189.5,601056.639,604423.505,4,500,,
trial,html.Screen,10_37_0,2023-11-15T17:54:55.393Z,,,,1,0.0415913596725838,-0.0543422987007948,,false,lh,2669.2950000119163,response,-1.10953285327247,0.6702444606795156,-1.1279455478312936,0.7377773112414787,0.925704924028264,-1.0790584314978495,low,high,,ISIC_0027956.JPG,9,ISIC_1720840.JPG,20,false,hh,keypress(i),0,false,607092.8999999762,607092.8000000119,604406.798,604549.5,604423.505,606973.477,4,500,38,
