sender,sender_type,sender_id,timestamp,meta,,age,blockNo,c1,c2,condition,correct,correctResponse,duration,ended_on,f1,f1_high,f1_low,f2,f2_high,f2_low,feature_level1,feature_level2,gender,img_left,img_reveal,img_right,n_target_images,practice,response,response_action,selection_duration,staircase,time_commit,time_end,time_render,time_run,time_show,time_switch,total_blocks,total_trials,trialNo,url
informed_consent,html.Screen,0,2023-11-15T17:39:43.267Z,"{""labjs_version"":""20.2.4"",""labjs_build"":{""flavor"":""development"",""commit"":""f5b4a49f956347addd546a832a3327688c2c0fef""},""location"":""https://labjs.felixhenninger.com/api/labjs_preview/index.html"",""userAgent"":""Mozilla/5.0 (Windows NT 10.0; Win64; x64) AppleWebKit/537.36 (KHTML, like Gecko) Chrome/119.0.0.0 Safari/537.36"",""platform"":""Win32"",""language"":""en-US"",""locale"":""en-US"",""timeZone"":""America/Chicago"",""timezoneOffset"":360,""screen_width"":1680,""screen_height"":1050,""scroll_width"":825,""scroll_height"":888,""window_innerWidth"":825,""window_innerHeight"":936,""devicePixelRatio"":1}",,,,,,,,,46187.300999982115,response,,,,,,,,,,,,,,,consent,click button,,,46803.19999998808,46795.29999998212,591.32,804.6999999880791,607.999,46614.272,,,,{}
Demography form,html.Form,1,2023-11-15T17:39:50.621Z,,,18,,,,,,,7542.628000005963,form submission,,,,,,,,,female,,,,,,,,,,54157,54156.90000000596,46597.525,46803.5,46614.272,53961.87,,,,
Welcome,html.Screen,2,2023-11-15T17:40:03.365Z,,,,,,,"[""bor"",""col""]",,,12937.829999988076,response,,,,,,,,,,,,,,,continue,click button,,,66900.19999998808,66899.69999998808,53945.422,54157.09999999404,53961.87,66720.483,,,,
demo_instructions,html.Screen,3,2023-11-15T17:40:05.109Z,,,,,,,,,,1923.1169999940466,response,,,,,,,,,,,,,,,continue,click button,,,68644.09999999404,68643.59999999404,66686.901,66900.40000000596,66720.483,68456.757,,,,
trial,html.Screen,4_0_0,2023-11-15T17:40:21.511Z,,,,0,1.0926414044454305,-0.7741624649032207,,true,lh,16588.34299999404,response,-0.84290786638064,0.8999999999999997,-0.8999999999999997,0.7332521189371746,0.8999999999999997,-0.8999999999999997,low,high,,ISIC_2355513.JPG,,ISIC_4708642.JPG,29,true,lh,keypress(e),100,false,85045.69999998808,85045.09999999404,68440.318,68644.29999998212,68456.757,84872.033,1,16,1,
sequence,flow.Sequence,4_0,2023-11-15T17:40:21.534Z,,,,,,,,,,16588.34299999404,completion,,,,,,,low,high,,,,,,true,,,,false,85068.69999998808,85045.09999999404,68440.318,68644.29999998212,68456.757,84872.033,1,16,,
trial,html.Screen,4_1_0,2023-11-15T17:40:28.244Z,,,,0,1.0788024398087033,-0.9911875460374616,,true,lh,6906.166999988083,response,-0.9653573371180936,0.8999999999999997,-0.8999999999999997,0.854766800381037,0.8999999999999997,-0.8999999999999997,low,high,,ISIC_5951430.JPG,,ISIC_9640145.JPG,29,true,lh,keypress(e),100,false,91778.79999998212,91778.19999998808,84855.446,85068.90000000596,84872.033,91602.051,1,16,2,
sequence,flow.Sequence,4_1,2023-11-15T17:40:28.245Z,,,,,,,,,,6906.166999988083,completion,,,,,,,low,high,,,,,,true,,,,false,91779.59999999404,91778.19999998808,84855.446,85068.79999998212,84872.033,91602.051,1,16,,
trial,html.Screen,4_2_0,2023-11-15T17:40:35.195Z,,,,0,0.9752130063130028,-0.7248550908059443,,true,lh,7127.648999988072,response,-0.8034318937720549,0.8999999999999997,-0.8999999999999997,1.0024917298189338,0.8999999999999997,-0.8999999999999997,low,high,,ISIC_5190484.JPG,,ISIC_0032766.JPG,29,true,lh,keypress(e),100,false,98730.29999998212,98729.69999998808,91585.211,91779.90000000596,91602.051,98548.708,1,16,3,
sequence,flow.Sequence,4_2,2023-11-15T17:40:35.196Z,,,,,,,,,,7127.648999988072,completion,,,,,,,low,high,,,,,,true,,,,false,98731,98729.69999998808,91585.211,91779.79999998212,91602.051,98548.708,1,16,,
trial,html.Screen,4_3_0,2023-11-15T17:40:39.031Z,,,,0,0.9244148283103414,-0.9712966348713286,,true,lh,4016.391999994041,response,-0.989300717252516,0.8999999999999997,-0.8999999999999997,0.7908280206937478,0.8999999999999997,-0.8999999999999997,low,high,,ISIC_7927525.JPG,,ISIC_6416533.JPG,29,true,lh,keypress(e),100,false,102565.69999998808,102565.09999999404,98532.237,98731.5,98548.708,102389.694,1,16,4,
sequence,flow.Sequence,4_3,2023-11-15T17:40:39.032Z,,,,,,,,,,4016.391999994041,completion,,,,,,,low,high,,,,,,true,,,,false,102566.40000000596,102565.09999999404,98532.237,98731.29999998212,98548.708,102389.694,1,16,,
trial,html.Screen,4_4_0,2023-11-15T17:40:44.707Z,,,,0,0.8351262413411394,0.7640141718413127,,true,ll,5852.1059999821155,response,-0.737350298056154,0.8999999999999997,-0.8999999999999997,-0.8708481721044242,0.8999999999999997,-0.8999999999999997,low,low,,ISIC_0029363.JPG,,ISIC_2784965.JPG,169,true,ll,keypress(f),100,false,108242.29999998212,108241.79999998212,102372.879,102566.79999998212,102389.694,108067.447,1,16,5,
sequence,flow.Sequence,4_4,2023-11-15T17:40:44.708Z,,,,,,,,,,5852.1059999821155,completion,,,,,,,low,low,,,,,,true,,,,false,108243.09999999404,108241.79999998212,102372.879,102566.69999998808,102389.694,108067.447,1,16,,
trial,html.Screen,4_5_0,2023-11-15T17:40:48.385Z,,,,0,0.7167356289126139,0.9599274916161776,,true,ll,3851.8529999821185,response,-0.8571747957352402,0.8999999999999997,-0.8999999999999997,-0.9896604996768869,0.8999999999999997,-0.8999999999999997,low,low,,ISIC_0010810.JPG,,ISIC_5363229.JPG,169,true,ll,keypress(f),100,false,111919.40000000596,111919.29999998212,108050.58,108243.29999998212,108067.447,111741.193,1,16,6,
sequence,flow.Sequence,4_5,2023-11-15T17:40:48.385Z,,,,,,,,,,3851.8529999821185,completion,,,,,,,low,low,,,,,,true,,,,false,111919.69999998808,111919.29999998212,108050.58,108243.29999998212,108067.447,111741.193,1,16,,
trial,html.Screen,4_6_0,2023-11-15T17:40:52.277Z,,,,0,0.7544107015739535,0.781438724006539,,true,ll,4070.207000005961,response,-0.70951327138006,0.8999999999999997,-0.8999999999999997,-0.7652124263954667,0.8999999999999997,-0.8999999999999997,low,low,,ISIC_0021271.JPG,,ISIC_2415803.JPG,169,true,ll,keypress(f),100,false,115811.79999998212,115811.40000000596,111724.336,111919.69999998808,111741.193,115632.17,1,16,7,
sequence,flow.Sequence,4_6,2023-11-15T17:40:52.278Z,,,,,,,,,,4070.207000005961,completion,,,,,,,low,low,,,,,,true,,,,false,115812.40000000596,115811.40000000596,111724.336,111919.69999998808,111741.193,115632.17,1,16,,
trial,html.Screen,4_7_0,2023-11-15T17:40:54.286Z,,,,0,0.9415126659682582,1.0413549203180965,,true,ll,2186.9299999940413,response,-0.9381357191664412,0.8999999999999997,-0.8999999999999997,-0.7568873197636701,0.8999999999999997,-0.8999999999999997,low,low,,ISIC_4398011.JPG,,ISIC_9808863.JPG,169,true,ll,keypress(f),100,false,117819.5,117819.09999999404,115615.332,115812.79999998212,115632.17,117652.583,1,16,8,
sequence,flow.Sequence,4_7,2023-11-15T17:40:54.286Z,,,,,,,,,,2186.9299999940413,completion,,,,,,,low,low,,,,,,true,,,,false,117820.19999998808,117819.09999999404,115615.332,115812.69999998808,115632.17,117652.583,1,16,,
trial,html.Screen,4_8_0,2023-11-15T17:41:03.399Z,,,,0,-0.7883321712536753,1.0011430756825364,,true,hl,9280.01699999404,response,0.8067627078956657,0.8999999999999997,-0.8999999999999997,-0.7115865750196155,0.8999999999999997,-0.8999999999999997,high,low,,ISIC_9828853.JPG,,ISIC_0010014.JPG,43,true,hl,keypress(j),100,false,126933.09999999404,126932.59999999404,117636.114,117820.5,117652.583,126753.627,1,16,9,
sequence,flow.Sequence,4_8,2023-11-15T17:41:03.400Z,,,,,,,,,,9280.01699999404,completion,,,,,,,high,low,,,,,,true,,,,false,126933.69999998808,126932.59999999404,117636.114,117820.40000000596,117652.583,126753.627,1,16,,
trial,html.Screen,4_9_0,2023-11-15T17:41:09.699Z,,,,0,-0.8472024037189965,0.986370061404882,,true,hl,6478.972999994046,response,0.9544693251394116,0.8999999999999997,-0.8999999999999997,-1.0727539917203766,0.8999999999999997,-0.8999999999999997,high,low,,ISIC_0054355.JPG,,ISIC_0055147.JPG,43,true,hl,keypress(j),100,false,133232.90000000596,133232.59999999404,126736.982,126934.09999999404,126753.627,133065.962,1,16,10,
sequence,flow.Sequence,4_9,2023-11-15T17:41:09.700Z,,,,,,,,,,6478.972999994046,completion,,,,,,,high,low,,,,,,true,,,,false,133233.40000000596,133232.59999999404,126736.982,126934,126753.627,133065.962,1,16,,
trial,html.Screen,4_10_0,2023-11-15T17:41:13.326Z,,,,0,-0.7246771568562105,0.9161385080362604,,true,hl,3792.938000005961,response,0.9089402323867112,0.8999999999999997,-0.8999999999999997,-0.8034544077281132,0.8999999999999997,-0.8999999999999997,high,low,,ISIC_0028225.JPG,,ISIC_3585381.JPG,43,true,hl,keypress(j),100,false,136859.40000000596,136858.90000000596,133049.379,133233.59999999404,133065.962,136689.727,1,16,11,
sequence,flow.Sequence,4_10,2023-11-15T17:41:13.326Z,,,,,,,,,,3792.938000005961,completion,,,,,,,high,low,,,,,,true,,,,false,136859.79999998212,136858.90000000596,133049.379,133233.5,133065.962,136689.727,1,16,,
trial,html.Screen,4_11_0,2023-11-15T17:41:17.431Z,,,,0,-1.058275612142778,0.7824898568540655,,true,hl,4274.472999988066,response,0.8165346395107898,0.8999999999999997,-0.8999999999999997,-0.7657798385266591,0.8999999999999997,-0.8999999999999997,high,low,,ISIC_4906385.JPG,,ISIC_2283628.JPG,43,true,hl,keypress(j),100,false,140964.59999999404,140964.19999998808,136673.119,136860.09999999404,136689.727,140797.632,1,16,12,
sequence,flow.Sequence,4_11,2023-11-15T17:41:17.431Z,,,,,,,,,,4274.472999988066,completion,,,,,,,high,low,,,,,,true,,,,false,140965,140964.19999998808,136673.119,136860,136689.727,140797.632,1,16,,
trial,html.Screen,4_12_0,2023-11-15T17:41:25.745Z,,,,0,-0.8571747957352402,-0.9896604996768869,,true,hh,8480.768000005948,response,0.8475699534335533,0.8999999999999997,-0.8999999999999997,1.0082663551580755,0.8999999999999997,-0.8999999999999997,high,high,,ISIC_5363229.JPG,,ISIC_0066429.JPG,184,true,hh,keypress(i),100,false,149278.69999998808,149278.40000000596,140781.093,140965.40000000596,140797.632,149097.164,1,16,13,
sequence,flow.Sequence,4_12,2023-11-15T17:41:25.745Z,,,,,,,,,,8480.768000005948,completion,,,,,,,high,high,,,,,,true,,,,false,149279.09999999404,149278.40000000596,140781.093,140965.40000000596,140797.632,149097.164,1,16,,
trial,html.Screen,4_13_0,2023-11-15T17:41:28.202Z,,,,0,-0.8405707669205109,-0.7425323414439162,,true,hh,2638.8360000000102,response,0.8010128234618513,0.8999999999999997,-0.8999999999999997,0.9031251164933652,0.8999999999999997,-0.8999999999999997,high,high,,ISIC_4272317.JPG,,ISIC_0058768.JPG,184,true,hh,keypress(i),100,false,151736.19999998808,151736,149080.548,149279.29999998212,149097.164,151568.772,1,16,14,
sequence,flow.Sequence,4_13,2023-11-15T17:41:28.203Z,,,,,,,,,,2638.8360000000102,completion,,,,,,,high,high,,,,,,true,,,,false,151736.5,151736,149080.548,149279.29999998212,149097.164,151568.772,1,16,,
trial,html.Screen,4_14_0,2023-11-15T17:41:30.880Z,,,,0,-0.7268043404851218,-0.8184581417483975,,true,hh,2844.3279999940423,response,0.7452700151122865,0.8999999999999997,-0.8999999999999997,0.7438857109222746,0.8999999999999997,-0.8999999999999997,high,high,,ISIC_0002118.JPG,,ISIC_0027067.JPG,184,true,hh,keypress(i),100,false,154413.40000000596,154413.09999999404,151552.031,151736.59999999404,151568.772,154240.536,1,16,15,
sequence,flow.Sequence,4_14,2023-11-15T17:41:30.880Z,,,,,,,,,,2844.3279999940423,completion,,,,,,,high,high,,,,,,true,,,,false,154414,154413.09999999404,151552.031,151736.5,151568.772,154240.536,1,16,,
trial,html.Screen,4_15_0,2023-11-15T17:41:34.073Z,,,,0,-0.8664556873113695,-0.9753511680199736,,true,hh,3366.0639999940468,response,0.9782611937027104,0.8999999999999997,-0.8999999999999997,0.7397456600694207,0.8999999999999997,-0.8999999999999997,high,high,,ISIC_0340453.JPG,,ISIC_0010131.JPG,184,true,hh,keypress(i),100,false,157606.90000000596,157606.59999999404,154223.818,154414.19999998808,154240.536,157429.977,1,16,16,
sequence,flow.Sequence,4_15,2023-11-15T17:41:34.074Z,,,,,,,,,,3366.0639999940468,completion,,,,,,,high,high,,,,,,true,,,,false,157607.5,157606.59999999404,154223.818,154414.09999999404,154240.536,157429.977,1,16,,
demonstration_loop,flow.Loop,4,2023-11-15T17:41:34.074Z,,,,,,,,,,89149.84299999404,completion,,,,,,,,,,,,,,true,,,,false,157607.90000000596,157606.59999999404,68440.318,68644.29999998212,68456.757,157429.977,1,16,,
practice_instructions,html.Screen,5,2023-11-15T17:41:45.855Z,,,,,,,,,,11949.722999988066,response,,,,,,,,,,,,,,,continue,click button,,,169388.29999998212,169379.69999998808,157413.353,157608.09999999404,157429.977,169186.15,,,,
trial,html.Screen,6_0_0,2023-11-15T17:41:56.653Z,,,,1,0.7200546926039536,0.7206544552694351,,,,10804.357000000018,timeout,-0.8816924904060719,0.8999999999999997,-0.8999999999999997,-0.7462463164673511,0.8999999999999997,-0.8999999999999997,low,low,,ISIC_7334117.JPG,,ISIC_8152423.JPG,169,true,,,0,false,180185.5,180185.29999998212,169169.755,169388.40000000596,169186.15,179990.507,1,40,1,
sequence,flow.Sequence,6_0,2023-11-15T17:41:56.653Z,,,,,,,,,,10999.149999982124,completion,,,,,,,low,low,,,,,,true,,,,false,180185.69999998808,180185.29999998212,169169.755,169388.40000000596,169186.15,179990.507,1,40,,
trial,html.Screen,6_1_0,2023-11-15T17:42:01.095Z,,,,1,0.7648337515968654,1.0074582761138169,,false,ll,4636.592999994027,response,-0.8402120256990608,0.8999999999999997,-0.8999999999999997,-0.8954736909537534,0.8999999999999997,-0.8999999999999997,low,low,,ISIC_0011422.JPG,,ISIC_0580054.JPG,169,true,hh,keypress(i),0,false,184627.29999998212,184627.09999999404,179973.791,180185.79999998212,179990.507,184449.224,1,40,2,
sequence,flow.Sequence,6_1,2023-11-15T17:42:01.095Z,,,,,,,,,,4636.592999994027,completion,,,,,,,low,low,,,,,,true,,,,false,184627.40000000596,184627.09999999404,179973.791,180185.79999998212,179990.507,184449.224,1,40,,
trial,html.Screen,6_2_0,2023-11-15T17:42:03.097Z,,,,1,-0.7010101889216934,0.9022783418178474,,true,hl,2180.176000005973,response,0.7872534775441857,0.8999999999999997,-0.8999999999999997,-0.8441107693833454,0.8999999999999997,-0.8999999999999997,high,low,,ISIC_0057858.JPG,,ISIC_0028788.JPG,43,true,hl,keypress(j),0,false,186629.69999998808,186629.40000000596,184432.464,184627.5,184449.224,186436.455,1,40,3,
sequence,flow.Sequence,6_2,2023-11-15T17:42:03.097Z,,,,,,,,,,2180.176000005973,completion,,,,,,,high,low,,,,,,true,,,,false,186630.19999998808,186629.40000000596,184432.464,184627.5,184449.224,186436.455,1,40,,
trial,html.Screen,6_3_0,2023-11-15T17:42:04.809Z,,,,1,-0.7088606387153258,0.948610930521224,,true,hl,1904.8449999821314,response,0.7723423895392068,0.8999999999999997,-0.8999999999999997,-0.7630051745722757,0.8999999999999997,-0.8999999999999997,high,low,,ISIC_0026293.JPG,,ISIC_9694911.JPG,43,true,hl,keypress(j),0,false,188341.69999998808,188341.29999998212,186419.967,186630.5,186436.455,188156.417,1,40,4,
sequence,flow.Sequence,6_3,2023-11-15T17:42:04.809Z,,,,,,,,,,1904.8449999821314,completion,,,,,,,high,low,,,,,,true,,,,false,188342.19999998808,188341.29999998212,186419.967,186630.40000000596,186436.455,188156.417,1,40,,
trial,html.Screen,6_4_0,2023-11-15T17:42:06.415Z,,,,1,-0.9653573371180936,0.854766800381037,,true,hl,1791.5830000000133,response,0.7688509750532941,0.8999999999999997,-0.8999999999999997,-0.7699842387811451,0.8999999999999997,-0.8999999999999997,high,low,,ISIC_9640145.JPG,,ISIC_0014527.JPG,43,true,hl,keypress(j),0,false,189948.19999998808,189948,188139.931,188342.5,188156.417,189759.684,1,40,5,
sequence,flow.Sequence,6_4,2023-11-15T17:42:06.416Z,,,,,,,,,,1791.5830000000133,completion,,,,,,,high,low,,,,,,true,,,,false,189948.29999998212,189948,188139.931,188342.29999998212,188156.417,189759.684,1,40,,
trial,html.Screen,6_5_0,2023-11-15T17:42:08.689Z,,,,1,0.773945859979408,0.8851229142232653,,true,ll,2461.716000005952,response,-0.8692576729104817,0.8999999999999997,-0.8999999999999997,-0.7554562761747954,0.8999999999999997,-0.8999999999999997,low,low,,ISIC_0073238.JPG,,ISIC_6963954.JPG,169,true,ll,keypress(f),0,false,192221.69999998808,192221.40000000596,189742.972,189948.40000000596,189759.684,192030.688,1,40,6,
sequence,flow.Sequence,6_5,2023-11-15T17:42:08.689Z,,,,,,,,,,2461.716000005952,completion,,,,,,,low,low,,,,,,true,,,,false,192222.19999998808,192221.40000000596,189742.972,189948.29999998212,189759.684,192030.688,1,40,,
trial,html.Screen,6_6_0,2023-11-15T17:42:09.977Z,,,,1,-0.7800797396940995,-0.973676161739592,,true,hh,1478.5119999880844,response,0.7262185370068359,0.8999999999999997,-0.8999999999999997,0.9153969930664472,0.8999999999999997,-0.8999999999999997,high,high,,ISIC_0641173.JPG,,ISIC_0063369.JPG,184,true,hh,keypress(i),0,false,193509.40000000596,193509.19999998808,192014.055,192222.40000000596,192030.688,193316.55,1,40,7,
sequence,flow.Sequence,6_6,2023-11-15T17:42:09.977Z,,,,,,,,,,1478.5119999880844,completion,,,,,,,high,high,,,,,,true,,,,false,193510,193509.19999998808,192014.055,192222.40000000596,192030.688,193316.55,1,40,,
trial,html.Screen,6_7_0,2023-11-15T17:42:11.305Z,,,,1,-0.715586294160793,-0.7728125370921421,,true,hh,1521.2499999821302,response,0.9766645409582418,0.8999999999999997,-0.8999999999999997,1.086167902767275,0.8999999999999997,-0.8999999999999997,high,high,,ISIC_9965754.JPG,,ISIC_0011526.JPG,184,true,hh,keypress(i),0,false,194838.09999999404,194837.79999998212,193300.003,193510.19999998808,193316.55,194652.484,1,40,8,
sequence,flow.Sequence,6_7,2023-11-15T17:42:11.306Z,,,,,,,,,,1521.2499999821302,completion,,,,,,,high,high,,,,,,true,,,,false,194838.59999999404,194837.79999998212,193300.003,193510.09999999404,193316.55,194652.484,1,40,,
trial,html.Screen,6_8_0,2023-11-15T17:42:12.945Z,,,,1,0.7878258396152632,0.8828399683080101,,true,ll,1824.9160000059637,response,-0.7280191393710038,0.8999999999999997,-0.8999999999999997,-0.8282491311530128,0.8999999999999997,-0.8999999999999997,low,low,,ISIC_0053541.JPG,,ISIC_8374889.JPG,169,true,ll,keypress(f),0,false,196477.69999998808,196477.40000000596,194635.931,194838.90000000596,194652.484,196288.972,1,40,9,
sequence,flow.Sequence,6_8,2023-11-15T17:42:12.945Z,,,,,,,,,,1824.9160000059637,completion,,,,,,,low,low,,,,,,true,,,,false,196478.29999998212,196477.40000000596,194635.931,194838.79999998212,194652.484,196288.972,1,40,,
trial,html.Screen,6_9_0,2023-11-15T17:42:14.113Z,,,,1,-0.7246771568562105,0.9161385080362604,,true,hl,1356.3279999821098,response,0.8500530224490773,0.8999999999999997,-0.8999999999999997,-1.0893360711742854,0.8999999999999997,-0.8999999999999997,high,low,,ISIC_0028225.JPG,,ISIC_2998367.JPG,43,true,hl,keypress(j),0,false,197645.59999999404,197645.29999998212,196272.32,196478.5,196288.972,197457.911,1,40,10,
sequence,flow.Sequence,6_9,2023-11-15T17:42:14.113Z,,,,,,,,,,1356.3279999821098,completion,,,,,,,high,low,,,,,,true,,,,false,197646.09999999404,197645.29999998212,196272.32,196478.40000000596,196288.972,197457.911,1,40,,
trial,html.Screen,6_10_0,2023-11-15T17:42:16.065Z,,,,1,1.0396291493634244,0.8099604275482958,,true,ll,2139.388999982126,response,-0.8312854004298869,0.8999999999999997,-0.8999999999999997,-0.7459511759516213,0.8999999999999997,-0.8999999999999997,low,low,,ISIC_0068580.JPG,,ISIC_8690205.JPG,169,true,ll,keypress(f),0,false,199597.59999999404,199597.29999998212,197441.262,197646.29999998212,197457.911,199411.658,1,40,11,
sequence,flow.Sequence,6_10,2023-11-15T17:42:16.065Z,,,,,,,,,,2139.388999982126,completion,,,,,,,low,low,,,,,,true,,,,false,199598.19999998808,199597.29999998212,197441.262,197646.29999998212,197457.911,199411.658,1,40,,
trial,html.Screen,6_11_0,2023-11-15T17:42:18.897Z,,,,1,-0.8791357280466414,-0.9124690562312904,,true,hh,3017.342000000004,response,0.7390449930107234,0.8999999999999997,-0.8999999999999997,0.708917192410697,0.8999999999999997,-0.8999999999999997,high,high,,ISIC_4544879.JPG,,ISIC_0033168.JPG,184,true,hh,keypress(i),0,false,202429.40000000596,202429,199395.078,199598.40000000596,199411.658,202250.525,1,40,12,
sequence,flow.Sequence,6_11,2023-11-15T17:42:18.897Z,,,,,,,,,,3017.342000000004,completion,,,,,,,high,high,,,,,,true,,,,false,202429.79999998212,202429,199395.078,199598.29999998212,199411.658,202250.525,1,40,,
trial,html.Screen,6_12_0,2023-11-15T17:42:20.545Z,,,,1,0.9984751310732674,0.7993808609040723,,true,ll,1826.674999988085,response,-0.8379442136072591,0.8999999999999997,-0.8999999999999997,-0.8260692529258827,0.8999999999999997,-0.8999999999999997,low,low,,ISIC_0032510.JPG,,ISIC_0013213.JPG,169,true,ll,keypress(f),0,false,204077.59999999404,204077.19999998808,202217.242,202430.09999999404,202250.525,203887.096,1,40,13,
sequence,flow.Sequence,6_12,2023-11-15T17:42:20.545Z,,,,,,,,,,1826.674999988085,completion,,,,,,,low,low,,,,,,true,,,,false,204078,204077.19999998808,202217.242,202430,202250.525,203887.096,1,40,,
trial,html.Screen,6_13_0,2023-11-15T17:42:22.065Z,,,,1,0.9138670886161264,-0.8414121478342018,,true,lh,1710.7039999821282,response,-0.8926515927689261,0.8999999999999997,-0.8999999999999997,0.7935960767768927,0.8999999999999997,-0.8999999999999997,low,high,,ISIC_6709052.JPG,,ISIC_8901371.JPG,29,true,lh,keypress(e),0,false,205598.09999999404,205597.79999998212,203870.321,204078.19999998808,203887.096,205406.646,1,40,14,
sequence,flow.Sequence,6_13,2023-11-15T17:42:22.066Z,,,,,,,,,,1710.7039999821282,completion,,,,,,,low,high,,,,,,true,,,,false,205598.59999999404,205597.79999998212,203870.321,204078.19999998808,203887.096,205406.646,1,40,,
trial,html.Screen,6_14_0,2023-11-15T17:42:23.761Z,,,,1,0.7872534775441857,-0.8441107693833454,,true,lh,1886.7540000059525,response,-1.0453124399868816,0.8999999999999997,-0.8999999999999997,0.8986747280184286,0.8999999999999997,-0.8999999999999997,low,high,,ISIC_0028788.JPG,,ISIC_0013967.JPG,29,true,lh,keypress(e),0,false,207293.59999999404,207293.40000000596,205390.246,205598.79999998212,205406.646,207110.039,1,40,15,
sequence,flow.Sequence,6_14,2023-11-15T17:42:23.761Z,,,,,,,,,,1886.7540000059525,completion,,,,,,,low,high,,,,,,true,,,,false,207294.19999998808,207293.40000000596,205390.246,205598.69999998808,205406.646,207110.039,1,40,,
trial,html.Screen,6_15_0,2023-11-15T17:42:25.657Z,,,,1,1.004142980655507,-0.7749773174967559,,true,lh,2079.3610000059707,response,-1.0453124399868816,0.8999999999999997,-0.8999999999999997,0.8986747280184286,0.8999999999999997,-0.8999999999999997,low,high,,ISIC_3936223.JPG,,ISIC_0013967.JPG,29,true,lh,keypress(e),0,false,209189.79999998212,209189.40000000596,207093.478,207294.40000000596,207110.039,208996.965,1,40,16,
sequence,flow.Sequence,6_15,2023-11-15T17:42:25.658Z,,,,,,,,,,2079.3610000059707,completion,,,,,,,low,high,,,,,,true,,,,false,209190.29999998212,209189.40000000596,207093.478,207294.29999998212,207110.039,208996.965,1,40,,
trial,html.Screen,6_16_0,2023-11-15T17:42:28.097Z,,,,1,1.0804044917288194,0.7737732725477637,,true,ll,2632.334999982122,response,-1.0622023082418524,0.8999999999999997,-0.8999999999999997,-0.8319500041964579,0.8999999999999997,-0.8999999999999997,low,low,,ISIC_0011691.JPG,,ISIC_0056707.JPG,169,true,ll,keypress(f),0,false,211629.69999998808,211629.29999998212,208980.375,209190.5,208996.965,211452.335,1,40,17,
sequence,flow.Sequence,6_16,2023-11-15T17:42:28.097Z,,,,,,,,,,2632.334999982122,completion,,,,,,,low,low,,,,,,true,,,,false,211630.09999999404,211629.29999998212,208980.375,209190.40000000596,208996.965,211452.335,1,40,,
trial,html.Screen,6_17_0,2023-11-15T17:42:30.169Z,,,,1,0.7951271207785265,0.7447019313943737,,true,ll,2248.864999988087,response,-0.7276136672767647,0.8999999999999997,-0.8999999999999997,-0.9132548085712324,0.8999999999999997,-0.8999999999999997,low,low,,ISIC_8325260.JPG,,ISIC_0007740.JPG,169,true,ll,keypress(f),0,false,213701.59999999404,213701.19999998808,211418.561,211630.40000000596,211452.335,213522.714,1,40,18,
sequence,flow.Sequence,6_17,2023-11-15T17:42:30.169Z,,,,,,,,,,2248.864999988087,completion,,,,,,,low,low,,,,,,true,,,,false,213702,213701.19999998808,211418.561,211630.29999998212,211452.335,213522.714,1,40,,
trial,html.Screen,6_18_0,2023-11-15T17:42:32.257Z,,,,1,-0.8954803463300026,0.7071819047913821,,true,hl,2266.6860000059532,response,0.9089402323867112,0.8999999999999997,-0.8999999999999997,-0.8034544077281132,0.8999999999999997,-0.8999999999999997,high,low,,ISIC_0033071.JPG,,ISIC_3585381.JPG,43,true,hl,keypress(j),0,false,215789.69999998808,215789.40000000596,213505.958,213702.29999998212,213522.714,215610.024,1,40,19,
sequence,flow.Sequence,6_18,2023-11-15T17:42:32.257Z,,,,,,,,,,2266.6860000059532,completion,,,,,,,high,low,,,,,,true,,,,false,215790.19999998808,215789.40000000596,213505.958,213702.29999998212,213522.714,215610.024,1,40,,
trial,html.Screen,6_19_0,2023-11-15T17:42:33.689Z,,,,1,-0.7519481565232475,-0.9019952027171262,,true,hh,1611.3760000059556,response,0.9778659253485126,0.8999999999999997,-0.8999999999999997,1.073781767171294,0.8999999999999997,-0.8999999999999997,high,high,,ISIC_1497800.JPG,,ISIC_0067733.JPG,184,true,hh,keypress(i),0,false,217221.69999998808,217221.40000000596,215593.418,215790.40000000596,215610.024,217029.344,1,40,20,
sequence,flow.Sequence,6_19,2023-11-15T17:42:33.689Z,,,,,,,,,,1611.3760000059556,completion,,,,,,,high,high,,,,,,true,,,,false,217222.19999998808,217221.40000000596,215593.418,215790.40000000596,215610.024,217029.344,1,40,,
trial,html.Screen,6_20_0,2023-11-15T17:42:35.473Z,,,,1,0.8067627078956657,-0.7115865750196155,,true,lh,1975.6559999999881,response,-0.7246771568562105,0.8999999999999997,-0.8999999999999997,0.9161385080362604,0.8999999999999997,-0.8999999999999997,low,high,,ISIC_0010014.JPG,,ISIC_0028225.JPG,29,true,lh,keypress(e),0,false,219005.40000000596,219005,217012.805,217222.5,217029.344,218816.178,1,40,21,
sequence,flow.Sequence,6_20,2023-11-15T17:42:35.473Z,,,,,,,,,,1975.6559999999881,completion,,,,,,,low,high,,,,,,true,,,,false,219005.90000000596,219005,217012.805,217222.40000000596,217029.344,218816.178,1,40,,
trial,html.Screen,6_21_0,2023-11-15T17:42:36.953Z,,,,1,1.0652791679295452,0.8969509576221346,,true,ll,1669.222000005946,response,-0.8964123098193706,0.8999999999999997,-0.8999999999999997,-0.7808381857299823,0.8999999999999997,-0.8999999999999997,low,low,,ISIC_0057655.JPG,,ISIC_2633745.JPG,169,true,ll,keypress(f),0,false,220485.69999998808,220485.40000000596,218799.629,219006.09999999404,218816.178,220302.581,1,40,22,
sequence,flow.Sequence,6_21,2023-11-15T17:42:36.953Z,,,,,,,,,,1669.222000005946,completion,,,,,,,low,low,,,,,,true,,,,false,220486.09999999404,220485.40000000596,218799.629,219006,218816.178,220302.581,1,40,,
trial,html.Screen,6_22_0,2023-11-15T17:42:38.081Z,,,,1,-1.058275612142778,0.7824898568540655,,true,hl,1310.8190000059549,response,0.9752130063130028,0.8999999999999997,-0.8999999999999997,-0.7248550908059443,0.8999999999999997,-0.8999999999999997,high,low,,ISIC_4906385.JPG,,ISIC_5190484.JPG,43,true,hl,keypress(j),0,false,221613.79999998212,221613.40000000596,220285.587,220486.40000000596,220302.581,221421.267,1,40,23,
sequence,flow.Sequence,6_22,2023-11-15T17:42:38.082Z,,,,,,,,,,1310.8190000059549,completion,,,,,,,high,low,,,,,,true,,,,false,221614.29999998212,221613.40000000596,220285.587,220486.40000000596,220302.581,221421.267,1,40,,
trial,html.Screen,6_23_0,2023-11-15T17:42:40.601Z,,,,1,0.9244148283103414,-0.9712966348713286,,true,lh,2711.9329999880865,response,-0.7010101889216934,0.8999999999999997,-0.8999999999999997,0.9022783418178474,0.8999999999999997,-0.8999999999999997,low,high,,ISIC_7927525.JPG,,ISIC_0057858.JPG,29,true,lh,keypress(e),0,false,224133.59999999404,224133.19999998808,221404.726,221614.5,221421.267,223942.757,1,40,24,
sequence,flow.Sequence,6_23,2023-11-15T17:42:40.601Z,,,,,,,,,,2711.9329999880865,completion,,,,,,,low,high,,,,,,true,,,,false,224134.09999999404,224133.19999998808,221404.726,221614.5,221421.267,223942.757,1,40,,
trial,html.Screen,6_24_0,2023-11-15T17:42:42.457Z,,,,1,1.0685314915436992,-0.8203833713472237,,true,lh,2046.9429999880667,response,-0.7246771568562105,0.8999999999999997,-0.8999999999999997,0.9161385080362604,0.8999999999999997,-0.8999999999999997,low,high,,ISIC_0029374.JPG,,ISIC_0028225.JPG,29,true,lh,keypress(e),0,false,225989.90000000596,225989.69999998808,223926.067,224134.29999998212,223942.757,225796.421,1,40,25,
sequence,flow.Sequence,6_24,2023-11-15T17:42:42.458Z,,,,,,,,,,2046.9429999880667,completion,,,,,,,low,high,,,,,,true,,,,false,225990.59999999404,225989.69999998808,223926.067,224134.29999998212,223942.757,225796.421,1,40,,
trial,html.Screen,6_25_0,2023-11-15T17:42:44.121Z,,,,1,-1.0428588955519669,-0.7027377550195569,,true,hh,1856.9790000059584,response,0.7662862143930451,0.8999999999999997,-0.8999999999999997,1.019400538053967,0.8999999999999997,-0.8999999999999997,high,high,,ISIC_2412888.JPG,,ISIC_5602826.JPG,184,true,hh,keypress(i),0,false,227653.69999998808,227653.40000000596,225779.906,225990.90000000596,225796.421,227466.37,1,40,26,
sequence,flow.Sequence,6_25,2023-11-15T17:42:44.121Z,,,,,,,,,,1856.9790000059584,completion,,,,,,,high,high,,,,,,true,,,,false,227654.19999998808,227653.40000000596,225779.906,225990.79999998212,225796.421,227466.37,1,40,,
trial,html.Screen,6_26_0,2023-11-15T17:42:45.785Z,,,,1,-0.7667753928027862,-0.7242189504165079,,true,hh,1851.0300000059651,response,0.900981242677363,0.8999999999999997,-0.8999999999999997,0.8834104283484265,0.8999999999999997,-0.8999999999999997,high,high,,ISIC_4298624.JPG,,ISIC_7236365.JPG,184,true,hh,keypress(i),0,false,229317.79999998212,229317.40000000596,227449.649,227654.40000000596,227466.37,229136.226,1,40,27,
sequence,flow.Sequence,6_26,2023-11-15T17:42:45.786Z,,,,,,,,,,1851.0300000059651,completion,,,,,,,high,high,,,,,,true,,,,false,229318.19999998808,229317.40000000596,227449.649,227654.29999998212,227466.37,229136.226,1,40,,
trial,html.Screen,6_27_0,2023-11-15T17:42:47.689Z,,,,1,-0.8764429645297487,-0.9319282086996942,,true,hh,2085.0739999821235,response,0.8679614460736003,0.8999999999999997,-0.8999999999999997,0.9273061036826674,0.8999999999999997,-0.8999999999999997,high,high,,ISIC_9538004.JPG,,ISIC_9955163.JPG,184,true,hh,keypress(i),0,false,231221.59999999404,231221.29999998212,229119.695,229318.5,229136.226,231039.996,1,40,28,
sequence,flow.Sequence,6_27,2023-11-15T17:42:47.689Z,,,,,,,,,,2085.0739999821235,completion,,,,,,,high,high,,,,,,true,,,,false,231222.09999999404,231221.29999998212,229119.695,229318.40000000596,229136.226,231039.996,1,40,,
trial,html.Screen,6_28_0,2023-11-15T17:42:49.329Z,,,,1,-0.7246771568562105,0.9161385080362604,,true,hl,1821.4040000059467,response,0.8987343013179191,0.8999999999999997,-0.8999999999999997,-0.8149073454566363,0.8999999999999997,-0.8999999999999997,high,low,,ISIC_0028225.JPG,,ISIC_0472513.JPG,43,true,hl,keypress(j),0,false,232861.79999998212,232861.40000000596,231023.365,231222.29999998212,231039.996,232676.415,1,40,29,
sequence,flow.Sequence,6_28,2023-11-15T17:42:49.330Z,,,,,,,,,,1821.4040000059467,completion,,,,,,,high,low,,,,,,true,,,,false,232862.29999998212,232861.40000000596,231023.365,231222.19999998808,231039.996,232676.415,1,40,,
trial,html.Screen,6_29_0,2023-11-15T17:42:51.217Z,,,,1,-0.8954803463300026,0.7071819047913821,,true,hl,2072.784999988071,response,0.7629099401226335,0.8999999999999997,-0.8999999999999997,-0.8515956627075536,0.8999999999999997,-0.8999999999999997,high,low,,ISIC_0033071.JPG,,ISIC_0028718.JPG,43,true,hl,keypress(j),0,false,234749.59999999404,234749.19999998808,232659.881,232862.5,232676.415,234563.635,1,40,30,
sequence,flow.Sequence,6_29,2023-11-15T17:42:51.217Z,,,,,,,,,,2072.784999988071,completion,,,,,,,high,low,,,,,,true,,,,false,234750.09999999404,234749.19999998808,232659.881,232862.5,232676.415,234563.635,1,40,,
trial,html.Screen,6_30_0,2023-11-15T17:42:52.881Z,,,,1,-0.8571747957352402,-0.9896604996768869,,true,hh,1850.0649999880698,response,0.7217466853250509,0.8999999999999997,-0.8999999999999997,0.8448637774265015,0.8999999999999997,-0.8999999999999997,high,high,,ISIC_5363229.JPG,,ISIC_0030780.JPG,184,true,hh,keypress(i),0,false,236414,236413.69999998808,234546.796,234750.29999998212,234563.635,236233.593,1,40,31,
sequence,flow.Sequence,6_30,2023-11-15T17:42:52.882Z,,,,,,,,,,1850.0649999880698,completion,,,,,,,high,high,,,,,,true,,,,false,236414.5,236413.69999998808,234546.796,234750.29999998212,234563.635,236233.593,1,40,,
trial,html.Screen,6_31_0,2023-11-15T17:42:54.394Z,,,,1,-0.8075741539776473,0.7326891894107508,,true,hl,1691.7069999821251,response,0.7629099401226335,0.8999999999999997,-0.8999999999999997,-0.8515956627075536,0.8999999999999997,-0.8999999999999997,high,low,,ISIC_3428523.JPG,,ISIC_0028718.JPG,43,true,hl,keypress(j),0,false,237925.5,237925.29999998212,236216.749,236414.79999998212,236233.593,237736.265,1,40,32,
sequence,flow.Sequence,6_31,2023-11-15T17:42:54.394Z,,,,,,,,,,1691.7069999821251,completion,,,,,,,high,low,,,,,,true,,,,false,237926,237925.29999998212,236216.749,236414.69999998808,236233.593,237736.265,1,40,,
trial,html.Screen,6_32_0,2023-11-15T17:42:55.802Z,,,,1,0.7552468233268477,-0.71846037114465,,true,lh,1597.0349999821046,response,-0.8075741539776473,0.8999999999999997,-0.8999999999999997,0.7326891894107508,0.8999999999999997,-0.8999999999999997,low,high,,ISIC_2354070.JPG,,ISIC_3428523.JPG,29,true,lh,keypress(e),0,false,239333.59999999404,239333.29999998212,237719.664,237926.29999998212,237736.265,239139.07,1,40,33,
sequence,flow.Sequence,6_32,2023-11-15T17:42:55.802Z,,,,,,,,,,1597.0349999821046,completion,,,,,,,low,high,,,,,,true,,,,false,239334,239333.29999998212,237719.664,237926.29999998212,237736.265,239139.07,1,40,,
trial,html.Screen,6_33_0,2023-11-15T17:42:57.482Z,,,,1,0.9111352818043872,-0.7517932332411794,,true,lh,1874.429999999993,response,-0.8828738626295417,0.8999999999999997,-0.8999999999999997,0.8288177599439582,0.8999999999999997,-0.8999999999999997,low,high,,ISIC_3346045.JPG,,ISIC_0056041.JPG,29,true,lh,keypress(e),0,false,241013.90000000596,241013.5,239122.518,239334.29999998212,239139.07,240825.741,1,40,34,
sequence,flow.Sequence,6_33,2023-11-15T17:42:57.482Z,,,,,,,,,,1874.429999999993,completion,,,,,,,low,high,,,,,,true,,,,false,241014.29999998212,241013.5,239122.518,239334.19999998808,239139.07,240825.741,1,40,,
trial,html.Screen,6_34_0,2023-11-15T17:42:59.034Z,,,,1,-1.075512775389519,1.0454702683049502,,false,hl,1739.5589999821095,response,0.9138670886161264,0.8999999999999997,-0.8999999999999997,-0.8414121478342018,0.8999999999999997,-0.8999999999999997,high,low,,ISIC_0033603.JPG,,ISIC_6709052.JPG,43,true,ll,keypress(f),0,false,242565.69999998808,242565.29999998212,240809.088,241014.59999999404,240825.741,242378.695,1,40,35,
sequence,flow.Sequence,6_34,2023-11-15T17:42:59.034Z,,,,,,,,,,1739.5589999821095,completion,,,,,,,high,low,,,,,,true,,,,false,242566.19999998808,242565.29999998212,240809.088,241014.5,240825.741,242378.695,1,40,,
trial,html.Screen,6_35_0,2023-11-15T17:43:00.490Z,,,,1,0.7438008784971919,-0.7701607600068142,,true,lh,1642.6049999821116,response,-0.930804711032185,0.8999999999999997,-0.8999999999999997,0.7294067991476295,0.8999999999999997,-0.8999999999999997,low,high,,ISIC_8493108.JPG,,ISIC_5067317.JPG,29,true,lh,keypress(e),0,false,244021.69999998808,244021.29999998212,242361.949,242566.29999998212,242378.695,243831.478,1,40,36,
sequence,flow.Sequence,6_35,2023-11-15T17:43:00.490Z,,,,,,,,,,1642.6049999821116,completion,,,,,,,low,high,,,,,,true,,,,false,244022.19999998808,244021.29999998212,242361.949,242566.29999998212,242378.695,243831.478,1,40,,
trial,html.Screen,6_36_0,2023-11-15T17:43:01.738Z,,,,1,-0.7303022273735517,-0.7676979481938448,,true,hh,1438.0219999999972,response,0.8161945839077875,0.8999999999999997,-0.8999999999999997,0.8847883487572158,0.8999999999999997,-0.8999999999999997,high,high,,ISIC_4911407.JPG,,ISIC_0058496.JPG,184,true,hh,keypress(i),0,false,245269.79999998212,245269.5,243814.861,244022.40000000596,243831.478,245083.951,1,40,37,
sequence,flow.Sequence,6_36,2023-11-15T17:43:01.738Z,,,,,,,,,,1438.0219999999972,completion,,,,,,,high,high,,,,,,true,,,,false,245270.29999998212,245269.5,243814.861,244022.29999998212,243831.478,245083.951,1,40,,
trial,html.Screen,6_37_0,2023-11-15T17:43:03.346Z,,,,1,0.9752130063130028,-0.7248550908059443,,true,lh,1793.6489999940386,response,-0.8034318937720549,0.8999999999999997,-0.8999999999999997,1.0024917298189338,0.8999999999999997,-0.8999999999999997,low,high,,ISIC_5190484.JPG,,ISIC_0032766.JPG,29,true,lh,keypress(e),0,false,246877.90000000596,246877.59999999404,245067.335,245270.5,245083.951,246687.077,1,40,38,
sequence,flow.Sequence,6_37,2023-11-15T17:43:03.346Z,,,,,,,,,,1793.6489999940386,completion,,,,,,,low,high,,,,,,true,,,,false,246878.5,246877.59999999404,245067.335,245270.40000000596,245083.951,246687.077,1,40,,
trial,html.Screen,6_38_0,2023-11-15T17:43:04.810Z,,,,1,0.7908195179596742,0.846286768918253,,true,ll,1654.6229999880888,response,-0.8443539935286377,0.8999999999999997,-0.8999999999999997,-0.8083712509772605,0.8999999999999997,-0.8999999999999997,low,low,,ISIC_0033843.JPG,,ISIC_1072321.JPG,169,true,ll,keypress(f),0,false,248342,248341.69999998808,246670.426,246878.69999998808,246687.077,248156.613,1,40,39,
sequence,flow.Sequence,6_38,2023-11-15T17:43:04.811Z,,,,,,,,,,1654.6229999880888,completion,,,,,,,low,low,,,,,,true,,,,false,248342.5,248341.69999998808,246670.426,246878.59999999404,246687.077,248156.613,1,40,,
trial,html.Screen,6_39_0,2023-11-15T17:43:06.130Z,,,,1,-0.875032819970805,-0.9230722071334148,,true,hh,1504.7870000059484,response,0.7991796180405828,0.8999999999999997,-0.8999999999999997,0.8257025902625775,0.8999999999999997,-0.8999999999999997,high,high,,ISIC_4568084.JPG,,ISIC_0010478.JPG,184,true,hh,keypress(i),0,false,249661.69999998808,249661.40000000596,248140.08,248342.69999998808,248156.613,249475.75,1,40,40,
sequence,flow.Sequence,6_39,2023-11-15T17:43:06.130Z,,,,,,,,,,1504.7870000059484,completion,,,,,,,high,high,,,,,,true,,,,false,249662.19999998808,249661.40000000596,248140.08,248342.69999998808,248156.613,249475.75,1,40,,
practice_loop,flow.Loop,6,2023-11-15T17:43:06.130Z,,,,,,,,,,80475.25000000597,completion,,,,,,,,,,,,,,true,,,,false,249662.40000000596,249661.40000000596,169169.755,169388.40000000596,169186.15,249475.75,1,40,,
stair_instructions,html.Screen,7,2023-11-15T17:43:32.368Z,,,,,,,,,,26423.94999998808,response,,,,,,,,,,,,,,,continue,click button,,,275900.1999999881,275899.6999999881,249459.147,249662.59999999404,249475.75,275726.907,,,,
trial,html.Screen,8_0_0,2023-11-15T17:43:35.276Z,,,,2,-0.0643519619373155,-0.0340638715725122,,false,ll,3080.493000005954,response,-1.0733807306669467,0.8999999999999997,-0.8999999999999997,-0.9781766331161578,0.8999999999999997,-0.8999999999999997,low,low,,ISIC_0066401.JPG,,ISIC_0032383.JPG,169,false,hh,keypress(i),0,true,278807.6999999881,278807.40000000596,275710.211,275900.40000000596,275726.907,278632.657,1,40,1,
sequence,flow.Sequence,8_0,2023-11-15T17:43:35.276Z,,,,,,,,,,3080.493000005954,completion,,,,,,,low,low,,,,,,false,,,,true,278808.2999999821,278807.40000000596,275710.211,275900.2999999821,275726.907,278632.657,1,40,,
trial,html.Screen,8_1_0,2023-11-15T17:43:43.361Z,,,,2,0.0010920693448107,0.0492408806128631,,false,ll,8260.442999994033,response,-0.8618587928964498,0.8999999999999997,-0.9499999999999997,-0.9138141165916164,0.8999999999999997,-0.9499999999999997,low,low,,ISIC_6155981.JPG,,ISIC_0004564.JPG,137,false,hl,keypress(j),0,true,286893.1999999881,286893.09999999404,278615.823,278808.59999999404,278632.657,286698.259,1,40,2,
sequence,flow.Sequence,8_1,2023-11-15T17:43:43.362Z,,,,,,,,,,8260.442999994033,completion,,,,,,,low,low,,,,,,false,,,,true,286893.59999999404,286893.09999999404,278615.823,278808.5,278632.657,286698.259,1,40,,
trial,html.Screen,8_2_0,2023-11-15T17:43:52.545Z,,,,2,-0.0044063257337227,-0.0172548282859886,,false,ll,9378.24099999998,response,-0.8402120256990608,0.8999999999999997,-0.9999999999999998,-0.8954736909537534,0.8999999999999997,-0.9499999999999997,low,low,,ISIC_7413786.JPG,,ISIC_0580054.JPG,121,false,hh,keypress(i),0,true,296076.6999999881,296076.5,286681.668,286893.6999999881,286698.259,295882.787,1,40,3,
sequence,flow.Sequence,8_2,2023-11-15T17:43:52.545Z,,,,,,,,,,9378.24099999998,completion,,,,,,,low,low,,,,,,false,,,,true,296076.90000000596,296076.5,286681.668,286893.59999999404,286698.259,295882.787,1,40,,
trial,html.Screen,8_3_0,2023-11-15T17:43:57.587Z,,,,2,0.0146597765042814,0.06222227493177,,false,hl,5235.212999999989,response,1.0116417541846066,0.8999999999999997,-1.0499999999999998,-1.033442916947398,0.8999999999999997,-0.9999999999999998,high,low,,ISIC_5982769.JPG,,ISIC_0031389.JPG,27,false,hh,keypress(i),0,true,301118.2999999821,301118,295866.092,296077,295882.787,300925.906,1,40,4,
sequence,flow.Sequence,8_3,2023-11-15T17:43:57.588Z,,,,,,,,,,5235.212999999989,completion,,,,,,,high,low,,,,,,false,,,,true,301118.7999999821,301118,295866.092,296077,295882.787,300925.906,1,40,,
trial,html.Screen,8_4_0,2023-11-15T17:44:02.577Z,,,,2,0.039520186367207,0.0377961575607372,,true,ll,5182.293999988062,response,-1.1850103722230376,0.8999999999999997,-1.0499999999999998,-0.8836550297565611,0.8999999999999997,-1.0499999999999998,low,low,,ISIC_6356149.JPG,,ISIC_9879347.JPG,84,false,ll,keypress(f),0,true,306108.2999999821,306108.1999999881,300909.34,301119,300925.906,305919.054,1,40,5,
sequence,flow.Sequence,8_4,2023-11-15T17:44:02.577Z,,,,,,,,,,5182.293999988062,completion,,,,,,,low,low,,,,,,false,,,,true,306108.5,306108.1999999881,300909.34,301119,300925.906,305919.054,1,40,,
trial,html.Screen,8_5_0,2023-11-15T17:44:07.464Z,,,,2,-0.0009714874637896,0.0174815595031679,,false,ll,5075.846000005957,response,-1.2101243893950622,0.8999999999999997,-1.0499999999999998,-0.9721089662087676,0.8999999999999997,-1.0499999999999998,low,low,,ISIC_9848743.JPG,,ISIC_0760740.JPG,84,false,hl,keypress(j),0,true,310995,310994.90000000596,305902.352,306108.5,305919.054,310811.92,1,40,6,
sequence,flow.Sequence,8_5,2023-11-15T17:44:07.464Z,,,,,,,,,,5075.846000005957,completion,,,,,,,low,low,,,,,,false,,,,true,310995.09999999404,310994.90000000596,305902.352,306108.5,305919.054,310811.92,1,40,,
trial,html.Screen,8_6_0,2023-11-15T17:44:11.571Z,,,,2,0.0010920693448107,0.0492408806128631,,false,hl,4290.179999994056,response,0.8067627078956657,0.8999999999999997,-1.0999999999999999,-0.7115865750196155,0.8999999999999997,-0.8778819979826643,high,low,,ISIC_6155981.JPG,,ISIC_0010014.JPG,43,false,hh,keypress(i),0,true,315102.5,315102.09999999404,310795.091,310995.09999999404,310811.92,314919.893,1,40,7,
sequence,flow.Sequence,8_6,2023-11-15T17:44:11.572Z,,,,,,,,,,4290.179999994056,completion,,,,,,,high,low,,,,,,false,,,,true,315102.90000000596,315102.09999999404,310795.091,310995.09999999404,310811.92,314919.893,1,40,,
trial,html.Screen,8_7_0,2023-11-15T17:44:18.578Z,,,,2,,0.0102871556606504,,false,hh,7189.406999982137,response,0.8475699534335533,0.8499999999999996,-1.0999999999999999,1.0082663551580755,0.8999999999999997,-0.9278819979826644,high,high,,ISIC_1805163.JPG,,ISIC_0066429.JPG,195,false,lh,keypress(e),0,true,322109.59999999404,322109.2999999821,314903.239,315103.1999999881,314919.893,321916.838,1,40,8,
sequence,flow.Sequence,8_7,2023-11-15T17:44:18.579Z,,,,,,,,,,7189.406999982137,completion,,,,,,,high,high,,,,,,false,,,,true,322110,322109.2999999821,314903.239,315103.09999999404,314919.893,321916.838,1,40,,
trial,html.Screen,8_8_0,2023-11-15T17:44:23.779Z,,,,2,0.0107170641394226,-0.0596294643429623,,true,ll,5393.162000000011,response,-1.1756375305897409,0.8999999999999997,-1.0999999999999999,-0.910735965353392,0.8999999999999997,-0.9278819979826644,low,low,,ISIC_0005291.JPG,,ISIC_0005769.JPG,95,false,ll,keypress(f),0,true,327310.2999999821,327310,321900.016,322110.2999999821,321916.838,327127.008,1,40,9,
sequence,flow.Sequence,8_8,2023-11-15T17:44:23.780Z,,,,,,,,,,5393.162000000011,completion,,,,,,,low,low,,,,,,false,,,,true,327310.90000000596,327310,321900.016,322110.1999999881,321916.838,327127.008,1,40,,
trial,html.Screen,8_9_0,2023-11-15T17:44:27.539Z,,,,2,0.0164027439304477,-0.0082910758715273,,true,ll,3942.791999982146,response,-0.940974390526586,0.8999999999999997,-1.0999999999999999,-0.8027264864579817,0.8999999999999997,-0.9278819979826644,low,low,,ISIC_7381224.JPG,,ISIC_0032341.JPG,95,false,ll,keypress(f),0,true,331070.09999999404,331069.7999999821,327110.433,327311.1999999881,327127.008,330884.258,1,40,10,
sequence,flow.Sequence,8_9,2023-11-15T17:44:27.539Z,,,,,,,,,,3942.791999982146,completion,,,,,,,low,low,,,,,,false,,,,true,331070.59999999404,331069.7999999821,327110.433,327311.09999999404,327127.008,330884.258,1,40,,
trial,html.Screen,8_10_0,2023-11-15T17:44:33.771Z,,,,2,-0.068830656047477,0.0471494209282208,,false,lh,6417.2420000000275,response,-0.7010101889216934,0.8999999999999997,-0.8067312259056868,0.9022783418178474,0.8999999999999997,-0.8067312259056868,low,high,,ISIC_0029982.JPG,,ISIC_0057858.JPG,40,false,hl,keypress(j),0,true,337301.90000000596,337301.5,330867.723,331070.7999999821,330884.258,337113.005,1,40,11,
sequence,flow.Sequence,8_10,2023-11-15T17:44:33.771Z,,,,,,,,,,6417.2420000000275,completion,,,,,,,low,high,,,,,,false,,,,true,337302.40000000596,337301.5,330867.723,331070.7999999821,330884.258,337113.005,1,40,,
trial,html.Screen,8_11_0,2023-11-15T17:44:40.155Z,,,,2,0.0198696495649504,-0.0387952353063878,,false,lh,6572.794999982114,response,-1.0369885917487718,0.8999999999999997,-0.8567312259056868,0.8486937878412699,0.9499999999999997,-0.8067312259056868,low,high,,ISIC_6735970.JPG,,ISIC_6917681.JPG,28,false,hl,keypress(j),0,true,343686.09999999404,343685.7999999821,337096.306,337302.6999999881,337113.005,343492.139,1,40,12,
sequence,flow.Sequence,8_11,2023-11-15T17:44:40.155Z,,,,,,,,,,6572.794999982114,completion,,,,,,,low,high,,,,,,false,,,,true,343686.59999999404,343685.7999999821,337096.306,337302.59999999404,337113.005,343492.139,1,40,,
trial,html.Screen,8_12_0,2023-11-15T17:44:43.315Z,,,,2,0.0273175221875807,0.0515126441328492,,false,hh,3353.3609999999753,response,0.7450220923011052,0.8999999999999997,-0.9067312259056869,1.110053837161886,0.9999999999999998,-0.8067312259056868,high,high,,ISIC_0064034.JPG,,ISIC_0028418.JPG,165,false,hl,keypress(j),0,true,346845.90000000596,346845.5,343475.46,343686.7999999821,343492.139,346665.216,1,40,13,
sequence,flow.Sequence,8_12,2023-11-15T17:44:43.315Z,,,,,,,,,,3353.3609999999753,completion,,,,,,,high,high,,,,,,false,,,,true,346846.2999999821,346845.5,343475.46,343686.7999999821,343492.139,346665.216,1,40,,
trial,html.Screen,8_13_0,2023-11-15T17:44:47.715Z,,,,2,0.0448994009031783,-0.0708723658092544,,true,hl,4580.383999994025,response,1.0926414044454305,0.8999999999999997,-0.9067312259056869,-0.7741624649032207,1.0499999999999998,-0.8067312259056868,high,low,,ISIC_0025238.JPG,,ISIC_2355513.JPG,52,false,hl,keypress(j),0,true,351246,351245.59999999404,346648.467,346846.59999999404,346665.216,351056.894,1,40,14,
sequence,flow.Sequence,8_13,2023-11-15T17:44:47.715Z,,,,,,,,,,4580.383999994025,completion,,,,,,,high,low,,,,,,false,,,,true,351246.5,351245.59999999404,346648.467,346846.5,346665.216,351056.894,1,40,,
trial,html.Screen,8_14_0,2023-11-15T17:44:51.299Z,,,,2,0.0109416414475118,0.005246498750811,,true,hl,3772.9059999821475,response,0.7612472458680769,0.8499999999999996,-0.9067312259056869,-0.729960233427452,1.0499999999999998,-0.8067312259056868,high,low,,ISIC_0064279.JPG,,ISIC_5307210.JPG,64,false,hl,keypress(j),0,true,354830.1999999881,354829.7999999821,351040.104,351246.6999999881,351056.894,354647.418,1,40,15,
sequence,flow.Sequence,8_14,2023-11-15T17:44:51.299Z,,,,,,,,,,3772.9059999821475,completion,,,,,,,high,low,,,,,,false,,,,true,354830.6999999881,354829.7999999821,351040.104,351246.6999999881,351056.894,354647.418,1,40,,
trial,html.Screen,8_15_0,2023-11-15T17:44:54.820Z,,,,2,0.0388334549081915,-0.0303399972963369,,false,ll,3702.281999988074,response,-0.7991077882008257,0.8499999999999996,-0.9067312259056869,-0.9500689037516484,1.0499999999999998,-0.7567312259056868,low,low,,ISIC_4961708.JPG,,ISIC_0013498.JPG,222,false,hl,keypress(j),0,true,358350.09999999404,358349.6999999881,354630.671,354830.7999999821,354647.418,358170.891,1,40,16,
sequence,flow.Sequence,8_15,2023-11-15T17:44:54.820Z,,,,,,,,,,3702.281999988074,completion,,,,,,,low,low,,,,,,false,,,,true,358350.5,358349.6999999881,354630.671,354830.7999999821,354647.418,358170.891,1,40,,
trial,html.Screen,8_16_0,2023-11-15T17:44:57.923Z,,,,2,-0.0076984477620101,-0.0069458408496562,,false,lh,3282.6089999999967,response,-0.6904571159175875,0.7499999999999996,-0.8567312259056868,0.8338159233479188,0.9499999999999997,-0.6567312259056867,low,high,,ISIC_0000434.JPG,,ISIC_6381981.JPG,28,false,hl,keypress(j),0,true,361453.6999999881,361453.5,358154.192,358350.6999999881,358170.891,361260.099,1,40,17,
sequence,flow.Sequence,8_16,2023-11-15T17:44:57.924Z,,,,,,,,,,3282.6089999999967,completion,,,,,,,low,high,,,,,,false,,,,true,361454.1999999881,361453.5,358154.192,358350.6999999881,358170.891,361260.099,1,40,,
trial,html.Screen,8_17_0,2023-11-15T17:45:05.932Z,,,,2,-0.0044063257337227,-0.0172548282859886,,false,hl,8201.801000005973,response,0.6723117859038102,0.7499999999999996,-0.9067312259056869,-0.4640652443264796,0.9999999999999998,-0.6567312259056867,high,low,,ISIC_7413786.JPG,,ISIC_5929687.JPG,110,false,hh,keypress(i),0,true,369462.09999999404,369461.90000000596,361243.548,361454.5,361260.099,369275.635,1,40,18,
sequence,flow.Sequence,8_17,2023-11-15T17:45:05.932Z,,,,,,,,,,8201.801000005973,completion,,,,,,,high,low,,,,,,false,,,,true,369462.6999999881,369461.90000000596,361243.548,361454.5,361260.099,369275.635,1,40,,
trial,html.Screen,8_18_0,2023-11-15T17:45:10.260Z,,,,2,0.0528688218207886,-0.0356788458032396,,true,lh,4514.06499998807,response,-0.8830264383952469,0.6499999999999995,-0.8567312259056868,0.8635562538060516,0.9499999999999997,-0.6567312259056867,low,high,,ISIC_5287748.JPG,,ISIC_0032258.JPG,28,false,lh,keypress(e),0,true,373790.09999999404,373789.6999999881,369259.179,369462.90000000596,369275.635,373600.682,1,40,19,
sequence,flow.Sequence,8_18,2023-11-15T17:45:10.260Z,,,,,,,,,,4514.06499998807,completion,,,,,,,low,high,,,,,,false,,,,true,373790.59999999404,373789.6999999881,369259.179,369462.7999999821,369275.635,373600.682,1,40,,
trial,html.Screen,8_19_0,2023-11-15T17:45:14.211Z,,,,2,0.0586587895724749,0.0220047273041276,,false,lh,4140.718000005989,response,-0.7088606387153258,0.6499999999999995,-0.8567312259056868,0.948610930521224,0.9499999999999997,-0.6567312259056867,low,high,,ISIC_0028320.JPG,,ISIC_0026293.JPG,28,false,hh,keypress(i),0,true,377741.7999999821,377741.40000000596,373584.201,373790.7999999821,373600.682,377558.623,1,40,20,
sequence,flow.Sequence,8_19,2023-11-15T17:45:14.212Z,,,,,,,,,,4140.718000005989,completion,,,,,,,low,high,,,,,,false,,,,true,377742.1999999881,377741.40000000596,373584.201,373790.7999999821,373600.682,377558.623,1,40,,
trial,html.Screen,8_20_0,2023-11-15T17:45:17.516Z,,,,2,-0.0257631352671967,-0.0202837002774028,,true,hl,3487.176999982097,response,0.5675584366548284,0.6499999999999995,-0.9067312259056869,-0.5182624662955543,0.8560835921636378,-0.6567312259056867,high,low,,ISIC_0032797.JPG,,ISIC_0009879.JPG,135,false,hl,keypress(j),0,true,381046.09999999404,381045.7999999821,377541.895,377742.5,377558.623,380864.917,1,40,21,
sequence,flow.Sequence,8_20,2023-11-15T17:45:17.516Z,,,,,,,,,,3487.176999982097,completion,,,,,,,high,low,,,,,,false,,,,true,381046.59999999404,381045.7999999821,377541.895,377742.40000000596,377558.623,380864.917,1,40,,
trial,html.Screen,8_21_0,2023-11-15T17:45:22.426Z,,,,2,-0.0267918352484299,-0.0630167830859455,,false,ll,5091.182999994024,response,-0.850194793725365,0.6499999999999995,-0.9067312259056869,-0.4692086597130525,0.8560835921636378,-0.6567312259056867,low,low,,ISIC_0064874.JPG,,ISIC_8427534.JPG,248,false,lh,keypress(e),0,true,385956.09999999404,385956.09999999404,380848.303,381046.90000000596,380864.917,385774.428,1,40,22,
sequence,flow.Sequence,8_21,2023-11-15T17:45:22.426Z,,,,,,,,,,5091.182999994024,completion,,,,,,,low,low,,,,,,false,,,,true,385956.2999999821,385956.09999999404,380848.303,381046.7999999821,380864.917,385774.428,1,40,,
trial,html.Screen,8_22_0,2023-11-15T17:45:26.404Z,,,,2,0.0374659946425444,0.0086043094957617,,false,hh,4159.371999982104,response,0.5460843345748847,0.6499999999999995,-0.9067312259056869,0.6932895133560174,0.8560835921636378,-0.7067312259056867,high,high,,ISIC_0033051.JPG,,ISIC_0030981.JPG,274,false,hl,keypress(j),0,true,389934.09999999404,389933.7999999821,385757.733,385956.40000000596,385774.428,389749.046,1,40,23,
sequence,flow.Sequence,8_22,2023-11-15T17:45:26.404Z,,,,,,,,,,4159.371999982104,completion,,,,,,,high,high,,,,,,false,,,,true,389934.59999999404,389933.7999999821,385757.733,385956.40000000596,385774.428,389749.046,1,40,,
trial,html.Screen,8_23_0,2023-11-15T17:45:29.540Z,,,,2,0.0349011973222753,-0.065080527952874,,true,hh,3320.954000000027,response,0.573572568589862,0.5999999999999994,-0.9067312259056869,0.8515665900199182,0.9060835921636379,-0.7067312259056867,high,high,,ISIC_3898738.JPG,,ISIC_0024967.JPG,261,false,hh,keypress(i),0,true,393070.2999999821,393070,389732.29,389934.7999999821,389749.046,392888.5,1,40,24,
sequence,flow.Sequence,8_23,2023-11-15T17:45:29.540Z,,,,,,,,,,3320.954000000027,completion,,,,,,,high,high,,,,,,false,,,,true,393070.6999999881,393070,389732.29,389934.7999999821,389749.046,392888.5,1,40,,
trial,html.Screen,8_24_0,2023-11-15T17:45:33.803Z,,,,2,-0.0633291412406864,0.0446580444004686,,true,hl,4445.0999999940395,response,0.5879099301264108,0.5999999999999994,-0.9067312259056869,-0.675121424197871,0.9060835921636379,-0.7067312259056867,high,low,,ISIC_0010718.JPG,,ISIC_8366864.JPG,140,false,hl,keypress(j),0,true,397333.90000000596,397333.59999999404,392871.716,393071.09999999404,392888.5,397146.532,1,40,25,
sequence,flow.Sequence,8_24,2023-11-15T17:45:33.804Z,,,,,,,,,,4445.0999999940395,completion,,,,,,,high,low,,,,,,false,,,,true,397334.40000000596,397333.59999999404,392871.716,393070.90000000596,392888.5,397146.532,1,40,,
trial,html.Screen,8_25_0,2023-11-15T17:45:40.564Z,,,,2,-0.0367706518941078,0.0161069838272154,,false,hl,6947.368000005954,response,0.5142213760989639,0.5499999999999994,-0.9067312259056869,-0.5770353287873289,0.9060835921636379,-0.7067312259056867,high,low,,ISIC_0033419.JPG,,ISIC_5194331.JPG,151,false,ll,keypress(f),0,true,404094.1999999881,404093.90000000596,397130.028,397334.59999999404,397146.532,403909.677,1,40,26,
sequence,flow.Sequence,8_25,2023-11-15T17:45:40.564Z,,,,,,,,,,6947.368000005954,completion,,,,,,,high,low,,,,,,false,,,,true,404094.6999999881,404093.90000000596,397130.028,397334.59999999404,397146.532,403909.677,1,40,,
trial,html.Screen,8_26_0,2023-11-15T17:45:44.836Z,,,,2,0.0495531443078245,0.0310660434153916,,true,hh,4456.022999988054,response,0.6816153808056667,0.5999999999999994,-0.9067312259056869,0.7209293211433396,0.9060835921636379,-0.5760783764925999,high,high,,ISIC_0013719.JPG,,ISIC_3448630.JPG,261,false,hh,keypress(i),0,true,408366,408365.6999999881,403892.956,404095,403909.677,408184.881,1,40,27,
sequence,flow.Sequence,8_26,2023-11-15T17:45:44.836Z,,,,,,,,,,4456.022999988054,completion,,,,,,,high,high,,,,,,false,,,,true,408366.5,408365.6999999881,403892.956,404094.90000000596,403909.677,408184.881,1,40,,
trial,html.Screen,8_27_0,2023-11-15T17:45:48.946Z,,,,2,0.0448994009031783,-0.0708723658092544,,false,lh,4291.619000000006,response,-0.8644472795202904,0.5999999999999994,-0.9067312259056869,0.6717597063424736,0.6512723509745031,-0.5760783764925999,low,high,,ISIC_0025238.JPG,,ISIC_0057892.JPG,68,false,hl,keypress(j),0,true,412476.6999999881,412476.5,408168.148,408366.6999999881,408184.881,412292.962,1,40,28,
sequence,flow.Sequence,8_27,2023-11-15T17:45:48.946Z,,,,,,,,,,4291.619000000006,completion,,,,,,,low,high,,,,,,false,,,,true,412476.90000000596,412476.5,408168.148,408366.6999999881,408184.881,412292.962,1,40,,
trial,html.Screen,8_28_0,2023-11-15T17:45:56.629Z,,,,2,0.055893254685579,0.0187125006410995,,false,hh,7864.938000005961,response,0.5980989175893826,0.5999999999999994,-0.9567312259056869,0.5744396433426451,0.7012723509745031,-0.5760783764925999,high,high,,ISIC_0011779.JPG,,ISIC_0054233.JPG,325,false,lh,keypress(e),0,true,420158.1999999881,420157.90000000596,412276.163,412476.90000000596,412292.962,419974.399,1,40,29,
sequence,flow.Sequence,8_28,2023-11-15T17:45:56.629Z,,,,,,,,,,7864.938000005961,completion,,,,,,,high,high,,,,,,false,,,,true,420158.6999999881,420157.90000000596,412276.163,412476.90000000596,412292.962,419974.399,1,40,,
trial,html.Screen,8_29_0,2023-11-15T17:46:02.628Z,,,,2,0.0426957918502628,0.044166030546046,,true,lh,6183.300999988103,response,-0.7643566632714253,0.6499999999999995,-0.9567312259056869,0.5324094276571574,0.7012723509745031,-0.5760783764925999,low,high,,ISIC_4649440.JPG,,ISIC_1146341.JPG,43,false,lh,keypress(e),0,true,426158,426157.6999999881,419957.796,420158.90000000596,419974.399,425969.31,1,40,30,
sequence,flow.Sequence,8_29,2023-11-15T17:46:02.629Z,,,,,,,,,,6183.300999988103,completion,,,,,,,low,high,,,,,,false,,,,true,426158.59999999404,426157.6999999881,419957.796,420158.90000000596,419974.399,425969.31,1,40,,
trial,html.Screen,8_30_0,2023-11-15T17:46:06.556Z,,,,2,-0.0464691161264081,-0.0535296539628673,,false,lh,4116.090000005963,response,-0.930804711032185,0.6499999999999995,-0.9567312259056869,0.7294067991476295,0.6512723509745031,-0.5760783764925999,low,high,,ISIC_0758797.JPG,,ISIC_5067317.JPG,54,false,hh,keypress(i),0,true,430085.59999999404,430085.40000000596,425952.787,426158.7999999821,425969.31,429893.608,1,40,31,
sequence,flow.Sequence,8_30,2023-11-15T17:46:06.556Z,,,,,,,,,,4116.090000005963,completion,,,,,,,low,high,,,,,,false,,,,true,430086.09999999404,430085.40000000596,425952.787,426158.6999999881,425969.31,429893.608,1,40,,
trial,html.Screen,8_31_0,2023-11-15T17:46:08.916Z,,,,2,0.0074667911845194,-0.018500200317654,,true,hl,2551.8919999999925,response,0.7723423895392068,0.6499999999999995,-1.0067312259056869,-0.7630051745722757,0.6512723509745031,-0.5760783764925999,high,low,,ISIC_0058723.JPG,,ISIC_9694911.JPG,156,false,hl,keypress(j),0,true,432445.90000000596,432445.5,429877.183,430086.40000000596,429893.608,432264.947,1,40,32,
sequence,flow.Sequence,8_31,2023-11-15T17:46:08.917Z,,,,,,,,,,2551.8919999999925,completion,,,,,,,high,low,,,,,,false,,,,true,432446.2999999821,432445.5,429877.183,430086.2999999821,429893.608,432264.947,1,40,,
trial,html.Screen,8_32_0,2023-11-15T17:46:14.420Z,,,,2,0.0395587463147856,-0.0645068093068572,,true,hl,5684.2529999880935,response,0.5268541033080582,0.6499999999999995,-1.0067312259056869,-0.6751127383511237,0.6512723509745031,-0.5760783764925999,high,low,,ISIC_0010807.JPG,,ISIC_4247149.JPG,156,false,hl,keypress(j),0,true,437949.59999999404,437949.1999999881,432248.413,432446.59999999404,432264.947,437758.925,1,40,33,
sequence,flow.Sequence,8_32,2023-11-15T17:46:14.420Z,,,,,,,,,,5684.2529999880935,completion,,,,,,,high,low,,,,,,false,,,,true,437950.09999999404,437949.1999999881,432248.413,432446.5,432264.947,437758.925,1,40,,
trial,html.Screen,8_33_0,2023-11-15T17:46:17.019Z,,,,2,0.0395587463147856,-0.0645068093068572,,false,hh,2789.2749999880907,response,0.41628563940938,0.5999999999999994,-1.0067312259056869,0.4716704362343906,0.6512723509745031,-0.6690589564616997,high,high,,ISIC_0010807.JPG,,ISIC_0032490.JPG,326,false,hl,keypress(j),0,true,440548.2999999821,440548.1999999881,437742.337,437950.2999999821,437758.925,440364.015,1,40,34,
sequence,flow.Sequence,8_33,2023-11-15T17:46:17.019Z,,,,,,,,,,2789.2749999880907,completion,,,,,,,high,high,,,,,,false,,,,true,440548.40000000596,440548.1999999881,437742.337,437950.1999999881,437758.925,440364.015,1,40,,
trial,html.Screen,8_34_0,2023-11-15T17:46:21.540Z,,,,2,0.0564512008196606,-0.0205312570039753,,false,ll,4705.684999988065,response,-1.1047904380696325,0.5999999999999994,-1.0067312259056869,-0.5408621572851563,0.7012723509745031,-0.6690589564616997,low,low,,ISIC_9019691.JPG,,ISIC_2039579.JPG,213,false,hh,keypress(i),0,true,445069.90000000596,445069.6999999881,440347.535,440548.5,440364.015,444889.519,1,40,35,
sequence,flow.Sequence,8_34,2023-11-15T17:46:21.541Z,,,,,,,,,,4705.684999988065,completion,,,,,,,low,low,,,,,,false,,,,true,445070.40000000596,445069.6999999881,440347.535,440548.5,440364.015,444889.519,1,40,,
trial,html.Screen,8_35_0,2023-11-15T17:46:24.283Z,,,,2,-0.0700576547090477,0.0026956749740767,,false,hh,2922.981000000029,response,0.606134315987544,0.5999999999999994,-1.056731225905687,0.8782493084721485,0.7012723509745031,-0.7190589564616997,high,high,,ISIC_7212271.JPG,,ISIC_0009882.JPG,325,false,hl,keypress(j),0,true,447812.5,447812.5,444872.736,445070.59999999404,444889.519,447628.407,1,40,36,
sequence,flow.Sequence,8_35,2023-11-15T17:46:24.283Z,,,,,,,,,,2922.981000000029,completion,,,,,,,high,high,,,,,,false,,,,true,447812.6999999881,447812.5,444872.736,445070.5,444889.519,447628.407,1,40,,
trial,html.Screen,8_36_0,2023-11-15T17:46:27.748Z,,,,2,0.0199950873045219,0.0172506388509166,,false,lh,3649.2929999880726,response,-0.9472092168153812,0.461209977698462,-1.056731225905687,0.5623187922463141,0.7512723509745032,-0.7190589564616997,low,high,,ISIC_0029906.JPG,,ISIC_0010103.JPG,32,false,hl,keypress(j),0,true,451278,451277.6999999881,447611.446,447812.6999999881,447628.407,451084.859,1,40,37,
sequence,flow.Sequence,8_36,2023-11-15T17:46:27.749Z,,,,,,,,,,3649.2929999880726,completion,,,,,,,low,high,,,,,,false,,,,true,451278.40000000596,451277.6999999881,447611.446,447812.6999999881,447628.407,451084.859,1,40,,
trial,html.Screen,8_37_0,2023-11-15T17:46:33.429Z,,,,2,0.0200376619013301,0.0451764418954947,,true,lh,5873.041000005964,response,-1.0770264364718942,0.461209977698462,-1.106731225905687,0.6713089190292955,0.8012723509745032,-0.7190589564616997,low,high,,ISIC_0026087.JPG,,ISIC_6093728.JPG,21,false,lh,keypress(e),0,true,456958.2999999821,456957.90000000596,451068.377,451278.6999999881,451084.859,456779.28,1,40,38,
sequence,flow.Sequence,8_37,2023-11-15T17:46:33.429Z,,,,,,,,,,5873.041000005964,completion,,,,,,,low,high,,,,,,false,,,,true,456958.6999999881,456957.90000000596,451068.377,451278.59999999404,451084.859,456779.28,1,40,,
trial,html.Screen,8_38_0,2023-11-15T17:46:37.044Z,,,,2,0.0199950873045219,0.0172506388509166,,false,hh,3794.3199999940116,response,0.4261230710601709,0.461209977698462,-1.106731225905687,0.8842832613168725,0.8012723509745032,-0.7190589564616997,high,high,,ISIC_0029906.JPG,,ISIC_0029157.JPG,311,false,lh,keypress(e),0,true,460573.90000000596,460573.59999999404,456746.075,456958.90000000596,456779.28,460386.298,1,40,39,
sequence,flow.Sequence,8_38,2023-11-15T17:46:37.045Z,,,,,,,,,,3794.3199999940116,completion,,,,,,,high,high,,,,,,false,,,,true,460574.40000000596,460573.59999999404,456746.075,456958.90000000596,456779.28,460386.298,1,40,,
trial,html.Screen,8_39_0,2023-11-15T17:46:39.692Z,,,,2,-0.0367744112927588,-0.0324865661712824,,false,hh,2835.20199999999,response,0.41040834410269,0.511209977698462,-1.106731225905687,0.7103710900940785,0.727796090173084,-0.7190589564616997,high,high,,ISIC_4523565.JPG,,ISIC_0025458.JPG,330,false,lh,keypress(e),0,true,463221.7999999821,463221.5,460369.84,460574.59999999404,460386.298,463041.703,1,40,40,
sequence,flow.Sequence,8_39,2023-11-15T17:46:39.693Z,,,,,,,,,,2835.20199999999,completion,,,,,,,high,high,,,,,,false,,,,true,463222.2999999821,463221.5,460369.84,460574.5,460386.298,463041.703,1,40,,
stair_loop,flow.Loop,8,2023-11-15T17:46:39.693Z,,,,,,,,,,187494.593,completion,,,,,,,,,,,,,,false,,,,true,463222.59999999404,463221.5,275710.211,275900.2999999821,275726.907,463041.703,1,40,,
exp_instructions,html.Screen,9,2023-11-15T17:47:01.388Z,,,,,,,,,,21874.9969999881,response,,,,,,,,,,,,,,,continue,keypress(Space),,,484917.59999999404,484916.6999999881,463024.908,463222.7999999821,463041.703,484733.708,,,,
trial,html.Screen,10_0_0,2023-11-15T17:47:06.774Z,,,,1,0.001445457736793,0.0165307427449982,,true,hl,5568.891999994055,response,0.3930608698892448,0.5897419955396922,-0.9792312259056869,-0.7920806126863065,0.7667824723506294,-0.6553174343057107,high,low,,ISIC_0027350.JPG,9,ISIC_0008251.JPG,157,false,hl,keypress(j),0,false,490302.6999999881,490302.59999999404,484717.02,484917.90000000596,484733.708,490110.803,4,500,1,
break,html.Screen,10_0_1,2023-11-15T17:47:06.774Z,,,,,,,,,,NaN,,,,,,,,high,low,,,,,,false,,,,false,490303.1999999881,490303.09999999404,,490302.90000000596,,490110.803,4,500,,
break_continue,html.Screen,10_0_2,2023-11-15T17:47:06.774Z,,,,,,,,,,NaN,,,,,,,,high,low,,,,,,false,,,,false,490303.5,490303.2999999821,,490303.2999999821,,490110.803,4,500,,
sequence,flow.Sequence,10_0,2023-11-15T17:47:06.774Z,,,,,,,,,,5569.591999982134,completion,,,,,,,high,low,,,,,,false,,,,false,490303.59999999404,490303.2999999821,484717.02,484917.7999999821,484733.708,490110.803,4,500,,
trial,html.Screen,10_1_0,2023-11-15T17:47:11.133Z,,,,1,0.0199950873045219,0.0172506388509166,,true,lh,4550.896999988065,response,-1.0369885917487718,0.5897419955396922,-0.9792312259056869,0.8486937878412699,0.7667824723506294,-0.6553174343057107,low,high,,ISIC_0029906.JPG,9,ISIC_6917681.JPG,33,false,lh,keypress(e),0,false,494662.09999999404,494661.6999999881,490094.373,490303.6999999881,490110.803,494469.325,4,500,2,
break,html.Screen,10_1_1,2023-11-15T17:47:11.134Z,,,,,,,,,,NaN,,,,,,,,low,high,,,,,,false,,,,false,494663.40000000596,494663,,494662.5,,494469.325,4,500,,
break_continue,html.Screen,10_1_2,2023-11-15T17:47:11.135Z,,,,,,,,,,NaN,,,,,,,,low,high,,,,,,false,,,,false,494664.2999999821,494663.90000000596,,494663.6999999881,,494469.325,4,500,,
sequence,flow.Sequence,10_1,2023-11-15T17:47:11.135Z,,,,,,,,,,4553.097000005946,completion,,,,,,,low,high,,,,,,false,,,,false,494664.59999999404,494663.90000000596,490094.373,490303.59999999404,490110.803,494469.325,4,500,,
trial,html.Screen,10_2_0,2023-11-15T17:47:15.717Z,,,,1,-0.0700576547090477,0.0026956749740767,,false,hl,4776.474999982107,response,0.6651811306243314,0.5897419955396922,-0.9792312259056869,-0.6289612118659552,0.7667824723506294,-0.6553174343057107,high,low,,ISIC_7212271.JPG,9,ISIC_7254389.JPG,157,false,ll,keypress(f),0,false,499246.2999999821,499245.7999999821,494452.743,494664.7999999821,494469.325,499061.663,4,500,3,
break,html.Screen,10_2_1,2023-11-15T17:47:15.718Z,,,,,,,,,,NaN,,,,,,,,high,low,,,,,,false,,,,false,499247.40000000596,499247.09999999404,,499246.59999999404,,499061.663,4,500,,
break_continue,html.Screen,10_2_2,2023-11-15T17:47:15.719Z,,,,,,,,,,NaN,,,,,,,,high,low,,,,,,false,,,,false,499248.2999999821,499247.90000000596,,499247.59999999404,,499061.663,4,500,,
sequence,flow.Sequence,10_2,2023-11-15T17:47:15.719Z,,,,,,,,,,4778.575000005949,completion,,,,,,,high,low,,,,,,false,,,,false,499248.5,499247.90000000596,494452.743,494664.7999999821,494469.325,499061.663,4,500,,
trial,html.Screen,10_3_0,2023-11-15T17:47:20.860Z,,,,1,-0.0118382036798625,-0.0300588245877227,,false,hl,5327.636999982118,response,0.5079959130210969,0.5897419955396922,-0.9792312259056869,-0.5188285364762142,0.7667824723506294,-0.6553174343057107,high,low,,ISIC_4748605.JPG,8,ISIC_0046725.JPG,157,false,hh,keypress(i),0,false,504389.59999999404,504389.2999999821,499045.084,499248.6999999881,499061.663,504204.928,4,500,4,
break,html.Screen,10_3_1,2023-11-15T17:47:20.862Z,,,,,,,,,,NaN,,,,,,,,high,low,,,,,,false,,,,false,504390.6999999881,504390.40000000596,,504390,,504204.928,4,500,,
break_continue,html.Screen,10_3_2,2023-11-15T17:47:20.862Z,,,,,,,,,,NaN,,,,,,,,high,low,,,,,,false,,,,false,504391.59999999404,504391.1999999881,,504390.90000000596,,504204.928,4,500,,
sequence,flow.Sequence,10_3,2023-11-15T17:47:20.863Z,,,,,,,,,,5329.536999988079,completion,,,,,,,high,low,,,,,,false,,,,false,504391.90000000596,504391.1999999881,499045.084,499248.6999999881,499061.663,504204.928,4,500,,
trial,html.Screen,10_4_0,2023-11-15T17:47:23.803Z,,,,1,0.0146597765042814,0.06222227493177,,true,hh,3127.371999982104,response,0.7059460714049748,0.5897419955396922,-0.9792312259056869,0.7603583058377162,0.7667824723506294,-0.6553174343057107,high,high,,ISIC_5982769.JPG,9,ISIC_0066506.JPG,295,false,hh,keypress(i),0,false,507332.40000000596,507332.2999999821,504188.482,504392.09999999404,504204.928,507143.988,4,500,5,
break,html.Screen,10_4_1,2023-11-15T17:47:23.804Z,,,,,,,,,,NaN,,,,,,,,high,high,,,,,,false,,,,false,507332.7999999821,507332.59999999404,,507332.40000000596,,507143.988,4,500,,
break_continue,html.Screen,10_4_2,2023-11-15T17:47:23.804Z,,,,,,,,,,NaN,,,,,,,,high,high,,,,,,false,,,,false,507333,507332.90000000596,,507332.7999999821,,507143.988,4,500,,
sequence,flow.Sequence,10_4,2023-11-15T17:47:23.804Z,,,,,,,,,,3127.972000005946,completion,,,,,,,high,high,,,,,,false,,,,false,507333.09999999404,507332.90000000596,504188.482,504392.09999999404,504204.928,507143.988,4,500,,
trial,html.Screen,10_5_0,2023-11-15T17:47:27.717Z,,,,1,0.0273855825278348,-0.0566295048930719,,true,ll,4102.211999988067,response,-1.0008081653938232,0.5897419955396922,-0.9792312259056869,-0.7832040253954599,0.7667824723506294,-0.6553174343057107,low,low,,ISIC_0000141.JPG,9,ISIC_8796632.JPG,227,false,ll,keypress(f),0,false,511246.5,511246.1999999881,507127.401,507333.1999999881,507143.988,511051.674,4,500,6,
break,html.Screen,10_5_1,2023-11-15T17:47:27.719Z,,,,,,,,,,NaN,,,,,,,,low,low,,,,,,false,,,,false,511247.6999999881,511247.2999999821,,511246.90000000596,,511051.674,4,500,,
break_continue,html.Screen,10_5_2,2023-11-15T17:47:27.719Z,,,,,,,,,,NaN,,,,,,,,low,low,,,,,,false,,,,false,511248.6999999881,511248.1999999881,,511247.90000000596,,511051.674,4,500,,
sequence,flow.Sequence,10_5,2023-11-15T17:47:27.720Z,,,,,,,,,,4104.211999988067,completion,,,,,,,low,low,,,,,,false,,,,false,511249,511248.1999999881,507127.401,507333.1999999881,507143.988,511051.674,4,500,,
trial,html.Screen,10_6_0,2023-11-15T17:47:35.149Z,,,,1,0.0349011973222753,-0.065080527952874,,false,hl,7626.1259999821195,response,0.4787378960393031,0.5897419955396922,-0.9792312259056869,-0.675579445791844,0.7667824723506294,-0.6553174343057107,high,low,,ISIC_3898738.JPG,8,ISIC_9696502.JPG,157,false,hh,keypress(i),0,false,518678.09999999404,518677.7999999821,511035.065,511249.1999999881,511051.674,518500.853,4,500,7,
break,html.Screen,10_6_1,2023-11-15T17:47:35.150Z,,,,,,,,,,NaN,,,,,,,,high,low,,,,,,false,,,,false,518679.2999999821,518679,,518678.59999999404,,518500.853,4,500,,
break_continue,html.Screen,10_6_2,2023-11-15T17:47:35.151Z,,,,,,,,,,NaN,,,,,,,,high,low,,,,,,false,,,,false,518680.1999999881,518679.7999999821,,518679.59999999404,,518500.853,4,500,,
sequence,flow.Sequence,10_6,2023-11-15T17:47:35.151Z,,,,,,,,,,7628.1259999821195,completion,,,,,,,high,low,,,,,,false,,,,false,518680.5,518679.7999999821,511035.065,511249.09999999404,511051.674,518500.853,4,500,,
trial,html.Screen,10_7_0,2023-11-15T17:47:41.341Z,,,,1,0.045779466401051,0.0137769797231127,,false,ll,6368.946999982116,response,-0.7994653297414549,0.5897419955396922,-0.9792312259056869,-0.4765150068440034,0.7667824723506294,-0.6553174343057107,low,low,,ISIC_0000504.JPG,9,ISIC_0033697.JPG,227,false,hh,keypress(i),0,false,524870.099999994,524869.7999999821,518466.239,518680.6999999881,518500.853,524678.123,4,500,8,
break,html.Screen,10_7_1,2023-11-15T17:47:41.342Z,,,,,,,,,,NaN,,,,,,,,low,low,,,,,,false,,,,false,524871.400000006,524871.099999994,,524870.5,,524678.123,4,500,,
break_continue,html.Screen,10_7_2,2023-11-15T17:47:41.343Z,,,,,,,,,,NaN,,,,,,,,low,low,,,,,,false,,,,false,524872.1999999881,524871.900000006,,524871.599999994,,524678.123,4,500,,
sequence,flow.Sequence,10_7,2023-11-15T17:47:41.343Z,,,,,,,,,,6371.047000005958,completion,,,,,,,low,low,,,,,,false,,,,false,524872.599999994,524871.900000006,518466.239,518680.59999999404,518500.853,524678.123,4,500,,
trial,html.Screen,10_8_0,2023-11-15T17:47:46.597Z,,,,1,-0.024731486864197,-0.0504232274546553,,true,ll,5447.476999994018,response,-0.9372411924051636,0.5897419955396922,-0.9792312259056869,-0.841886327367642,0.7667824723506294,-0.6553174343057107,low,low,,ISIC_4782878.JPG,9,ISIC_8368872.JPG,227,false,ll,keypress(f),0,false,530126.099999994,530125.599999994,524661.511,524872.900000006,524678.123,529938.425,4,500,9,
break,html.Screen,10_8_1,2023-11-15T17:47:46.598Z,,,,,,,,,,NaN,,,,,,,,low,low,,,,,,false,,,,false,530127.400000006,530127,,530126.5,,529938.425,4,500,,
break_continue,html.Screen,10_8_2,2023-11-15T17:47:46.599Z,,,,,,,,,,NaN,,,,,,,,low,low,,,,,,false,,,,false,530128.5,530127.900000006,,530127.6999999881,,529938.425,4,500,,
sequence,flow.Sequence,10_8,2023-11-15T17:47:46.600Z,,,,,,,,,,5449.777000005939,completion,,,,,,,low,low,,,,,,false,,,,false,530128.6999999881,530127.900000006,524661.511,524872.6999999881,524678.123,529938.425,4,500,,
trial,html.Screen,10_9_0,2023-11-15T17:47:50.333Z,,,,1,-0.07101539702336,0.0351358305415709,,true,ll,3923.374999982072,response,-1.102485543525293,0.5897419955396922,-0.9792312259056869,-0.7592116102410887,0.7667824723506294,-0.6553174343057107,low,low,,ISIC_0033279.JPG,8,ISIC_1208705.JPG,227,false,ll,keypress(f),0,false,533862.1999999881,533861.7999999821,529921.881,530129,529938.425,533679.047,4,500,10,
break,html.Screen,10_9_1,2023-11-15T17:47:50.334Z,,,,,,,,,,NaN,,,,,,,,low,low,,,,,,false,,,,false,533863.400000006,533863.099999994,,533862.5,,533679.047,4,500,,
break_continue,html.Screen,10_9_2,2023-11-15T17:47:50.335Z,,,,,,,,,,NaN,,,,,,,,low,low,,,,,,false,,,,false,533864.2999999821,533863.7999999821,,533863.599999994,,533679.047,4,500,,
sequence,flow.Sequence,10_9,2023-11-15T17:47:50.335Z,,,,,,,,,,3925.374999982072,completion,,,,,,,low,low,,,,,,false,,,,false,533864.599999994,533863.7999999821,529921.881,530128.900000006,529938.425,533679.047,4,500,,
trial,html.Screen,10_10_0,2023-11-15T17:47:57.419Z,,,,1,-0.0462522625051681,-0.0088419594888635,,false,ll,7269.4529999999795,response,-1.0054903293075117,0.5897419955396922,-0.9792312259056869,-0.7540787139679275,0.7667824723506294,-0.6553174343057107,low,low,,ISIC_1945381.JPG,9,ISIC_0005686.JPG,227,false,hl,keypress(j),0,false,540948.599999994,540948.5,533662.478,533864.7999999821,533679.047,540759.419,4,500,11,
break,html.Screen,10_10_1,2023-11-15T17:47:57.420Z,,,,,,,,,,NaN,,,,,,,,low,low,,,,,,false,,,,false,540949,540948.900000006,,540948.6999999881,,540759.419,4,500,,
break_continue,html.Screen,10_10_2,2023-11-15T17:47:57.420Z,,,,,,,,,,NaN,,,,,,,,low,low,,,,,,false,,,,false,540949.1999999881,540949.099999994,,540949,,540759.419,4,500,,
sequence,flow.Sequence,10_10,2023-11-15T17:47:57.420Z,,,,,,,,,,7270.052999994019,completion,,,,,,,low,low,,,,,,false,,,,false,540949.2999999821,540949.099999994,533662.478,533864.7999999821,533679.047,540759.419,4,500,,
trial,html.Screen,10_11_0,2023-11-15T17:48:01.838Z,,,,1,0.0586587895724749,0.0220047273041276,,false,lh,4606.280999988085,response,-0.989300717252516,0.5897419955396922,-0.9792312259056869,0.7908280206937478,0.7667824723506294,-0.6553174343057107,low,high,,ISIC_0028320.JPG,9,ISIC_6416533.JPG,33,false,ll,keypress(f),0,false,545366,545365.6999999881,540742.901,540949.400000006,540759.419,545184.947,4,500,12,
break,html.Screen,10_11_1,2023-11-15T17:48:01.839Z,,,,,,,,,,NaN,,,,,,,,low,high,,,,,,false,,,,false,545367.2999999821,545367,,545366.400000006,,545184.947,4,500,,
break_continue,html.Screen,10_11_2,2023-11-15T17:48:01.840Z,,,,,,,,,,NaN,,,,,,,,low,high,,,,,,false,,,,false,545368.099999994,545367.7999999821,,545367.5,,545184.947,4,500,,
sequence,flow.Sequence,10_11,2023-11-15T17:48:01.840Z,,,,,,,,,,4608.380999982124,completion,,,,,,,low,high,,,,,,false,,,,false,545368.400000006,545367.7999999821,540742.901,540949.2999999821,540759.419,545184.947,4,500,,
trial,html.Screen,10_12_0,2023-11-15T17:48:05.806Z,,,,1,0.0374659946425444,0.0086043094957617,,false,lh,4149.252999988035,response,-0.9292144567580788,0.5897419955396922,-0.9792312259056869,0.6431072529043046,0.7667824723506294,-0.6553174343057107,low,high,,ISIC_0033051.JPG,8,ISIC_4108397.JPG,33,false,hh,keypress(i),0,false,549334.5,549334.1999999881,545168.003,545368.6999999881,545184.947,549142.409,4,500,13,
break,html.Screen,10_12_1,2023-11-15T17:48:05.808Z,,,,,,,,,,NaN,,,,,,,,low,high,,,,,,false,,,,false,549335.599999994,549335.5,,549334.900000006,,549142.409,4,500,,
break_continue,html.Screen,10_12_2,2023-11-15T17:48:05.808Z,,,,,,,,,,NaN,,,,,,,,low,high,,,,,,false,,,,false,549336.599999994,549336.1999999881,,549335.900000006,,549142.409,4,500,,
sequence,flow.Sequence,10_12,2023-11-15T17:48:05.809Z,,,,,,,,,,4151.252999988035,completion,,,,,,,low,high,,,,,,false,,,,false,549336.900000006,549336.1999999881,545168.003,545368.599999994,545184.947,549142.409,4,500,,
trial,html.Screen,10_13_0,2023-11-15T17:48:10.286Z,,,,1,-0.0606387586319451,-0.0283716809868572,,false,ll,4671.591000000015,response,-0.9452304370934528,0.5897419955396922,-0.9792312259056869,-0.4861625368445286,0.7667824723506294,-0.6553174343057107,low,low,,ISIC_0061158.JPG,9,ISIC_0029017.JPG,227,false,lh,keypress(e),0,false,553814.2999999821,553814,549125.82,549337.099999994,549142.409,553634.751,4,500,14,
break,html.Screen,10_13_1,2023-11-15T17:48:10.287Z,,,,,,,,,,NaN,,,,,,,,low,low,,,,,,false,,,,false,553815.5,553815.1999999881,,553814.6999999881,,553634.751,4,500,,
break_continue,html.Screen,10_13_2,2023-11-15T17:48:10.288Z,,,,,,,,,,NaN,,,,,,,,low,low,,,,,,false,,,,false,553816.2999999821,553815.900000006,,553815.6999999881,,553634.751,4,500,,
sequence,flow.Sequence,10_13,2023-11-15T17:48:10.289Z,,,,,,,,,,4673.491000005975,completion,,,,,,,low,low,,,,,,false,,,,false,553816.6999999881,553815.900000006,549125.82,549337.099999994,549142.409,553634.751,4,500,,
trial,html.Screen,10_14_0,2023-11-15T17:48:15.908Z,,,,1,-0.0267918352484299,-0.0630167830859455,,false,hl,5801.548999982071,response,0.4899523808197892,0.5897419955396922,-0.9792312259056869,-0.542478816347148,0.7667824723506294,-0.6553174343057107,high,low,,ISIC_0064874.JPG,8,ISIC_0028616.JPG,157,false,hh,keypress(i),0,false,559436.5,559436.2999999821,553617.761,553817,553634.751,559245.38,4,500,15,
break,html.Screen,10_14_1,2023-11-15T17:48:15.909Z,,,,,,,,,,NaN,,,,,,,,high,low,,,,,,false,,,,false,559437,559436.900000006,,559436.599999994,,559245.38,4,500,,
break_continue,html.Screen,10_14_2,2023-11-15T17:48:15.909Z,,,,,,,,,,NaN,,,,,,,,high,low,,,,,,false,,,,false,559437.1999999881,559437.1999999881,,559437,,559245.38,4,500,,
sequence,flow.Sequence,10_14,2023-11-15T17:48:15.909Z,,,,,,,,,,5802.448999988032,completion,,,,,,,high,low,,,,,,false,,,,false,559437.400000006,559437.1999999881,553617.761,553816.7999999821,553634.751,559245.38,4,500,,
trial,html.Screen,10_15_0,2023-11-15T17:48:19.590Z,,,,1,0.0448994009031783,-0.0708723658092544,,true,ll,3872.3199999880744,response,-0.923711824877252,0.5897419955396922,-0.9792312259056869,-0.6561375687696704,0.7667824723506294,-0.6553174343057107,low,low,,ISIC_0025238.JPG,9,ISIC_1023354.JPG,227,false,ll,keypress(f),0,false,563118,563117.6999999881,559228.708,559437.400000006,559245.38,562936.012,4,500,16,
break,html.Screen,10_15_1,2023-11-15T17:48:19.591Z,,,,,,,,,,NaN,,,,,,,,low,low,,,,,,false,,,,false,563119.099999994,563118.7999999821,,563118.400000006,,562936.012,4,500,,
break_continue,html.Screen,10_15_2,2023-11-15T17:48:19.592Z,,,,,,,,,,NaN,,,,,,,,low,low,,,,,,false,,,,false,563120,563119.599999994,,563119.2999999821,,562936.012,4,500,,
sequence,flow.Sequence,10_15,2023-11-15T17:48:19.592Z,,,,,,,,,,3874.219999994035,completion,,,,,,,low,low,,,,,,false,,,,false,563120.2999999821,563119.599999994,559228.708,559437.400000006,559245.38,562936.012,4,500,,
trial,html.Screen,10_16_0,2023-11-15T17:48:22.758Z,,,,1,-0.0462522625051681,-0.0088419594888635,,false,lh,3350.187999988091,response,-1.0794043929240107,0.5897419955396922,-0.9792312259056869,0.6422352972056817,0.7667824723506294,-0.6553174343057107,low,high,,ISIC_1945381.JPG,8,ISIC_2106823.JPG,33,false,ll,keypress(f),0,false,566286.5,566286.1999999881,562919.193,563120.5,562936.012,566092.163,4,500,17,
break,html.Screen,10_16_1,2023-11-15T17:48:22.760Z,,,,,,,,,,NaN,,,,,,,,low,high,,,,,,false,,,,false,566287.6999999881,566287.400000006,,566286.900000006,,566092.163,4,500,,
break_continue,html.Screen,10_16_2,2023-11-15T17:48:22.760Z,,,,,,,,,,NaN,,,,,,,,low,high,,,,,,false,,,,false,566288.400000006,566288.099999994,,566287.7999999821,,566092.163,4,500,,
sequence,flow.Sequence,10_16,2023-11-15T17:48:22.761Z,,,,,,,,,,3352.0879999940516,completion,,,,,,,low,high,,,,,,false,,,,false,566288.7999999821,566288.099999994,562919.193,563120.5,562936.012,566092.163,4,500,,
trial,html.Screen,10_17_0,2023-11-15T17:48:25.773Z,,,,1,-0.0634150092059303,0.0177502973253611,,true,ll,3208.536999988137,response,-0.9854871691490024,0.5897419955396922,-0.9792312259056869,-0.4880944080664786,0.7667824723506294,-0.6553174343057107,low,low,,ISIC_0032433.JPG,9,ISIC_6828892.JPG,227,false,ll,keypress(f),0,false,569300.900000006,569300.6999999881,566075.349,566289,566092.163,569114.631,4,500,18,
break,html.Screen,10_17_1,2023-11-15T17:48:25.773Z,,,,,,,,,,NaN,,,,,,,,low,low,,,,,,false,,,,false,569301.5,569301.2999999821,,569301.099999994,,569114.631,4,500,,
break_continue,html.Screen,10_17_2,2023-11-15T17:48:25.774Z,,,,,,,,,,NaN,,,,,,,,low,low,,,,,,false,,,,false,569301.900000006,569301.6999999881,,569301.599999994,,569114.631,4,500,,
sequence,flow.Sequence,10_17,2023-11-15T17:48:25.774Z,,,,,,,,,,3209.536999988137,completion,,,,,,,low,low,,,,,,false,,,,false,569302.099999994,569301.6999999881,566075.349,566289,566092.163,569114.631,4,500,,
trial,html.Screen,10_18_0,2023-11-15T17:48:29.981Z,,,,1,0.0388334549081915,-0.0303399972963369,,false,lh,4394.269000005908,response,-0.9375710028613438,0.5897419955396922,-0.9792312259056869,0.646533075914549,0.7667824723506294,-0.6553174343057107,low,high,,ISIC_4961708.JPG,9,ISIC_0024507.JPG,33,false,hh,keypress(i),0,false,573509,573508.900000006,569098.127,569302.1999999881,569114.631,573322.829,4,500,19,
break,html.Screen,10_18_1,2023-11-15T17:48:29.982Z,,,,,,,,,,NaN,,,,,,,,low,high,,,,,,false,,,,false,573509.599999994,573509.400000006,,573509.1999999881,,573322.829,4,500,,
break_continue,html.Screen,10_18_2,2023-11-15T17:48:29.982Z,,,,,,,,,,NaN,,,,,,,,low,high,,,,,,false,,,,false,573510,573509.7999999821,,573509.599999994,,573322.829,4,500,,
sequence,flow.Sequence,10_18,2023-11-15T17:48:29.982Z,,,,,,,,,,4395.168999982066,completion,,,,,,,low,high,,,,,,false,,,,false,573510.099999994,573509.7999999821,569098.127,569302.1999999881,569114.631,573322.829,4,500,,
trial,html.Screen,10_19_0,2023-11-15T17:48:33.558Z,,,,1,0.0175203912019758,0.0427513576747051,,true,ll,3763.170999999973,response,-1.0792571418874513,0.5897419955396922,-0.9792312259056869,-0.6719969524833546,0.7667824723506294,-0.6553174343057107,low,low,,ISIC_0056292.JPG,8,ISIC_0013688.JPG,227,false,ll,keypress(f),0,false,577086.2999999821,577086,573306.399,573510.2999999821,573322.829,576896.445,4,500,20,
break,html.Screen,10_19_1,2023-11-15T17:48:33.559Z,,,,,,,,,,NaN,,,,,,,,low,low,,,,,,false,,,,false,577087.5,577087.1999999881,,577086.6999999881,,576896.445,4,500,,
break_continue,html.Screen,10_19_2,2023-11-15T17:48:33.560Z,,,,,,,,,,NaN,,,,,,,,low,low,,,,,,false,,,,false,577088.400000006,577088,,577087.6999999881,,576896.445,4,500,,
sequence,flow.Sequence,10_19,2023-11-15T17:48:33.561Z,,,,,,,,,,3765.170999999973,completion,,,,,,,low,low,,,,,,false,,,,false,577088.6999999881,577088,573306.399,573510.1999999881,573322.829,576896.445,4,500,,
trial,html.Screen,10_20_0,2023-11-15T17:48:37.013Z,,,,1,-0.0444523556175667,-0.066384682611553,,true,hl,3644.2549999881303,response,0.4696951441023113,0.5897419955396922,-0.9792312259056869,-0.5044347917254266,0.7667824723506294,-0.6553174343057107,high,low,,ISIC_0029409.JPG,9,ISIC_0032140.JPG,157,false,hl,keypress(j),0,false,580540.900000006,580540.6999999881,576879.913,577088.900000006,576896.445,580353.213,4,500,21,
break,html.Screen,10_20_1,2023-11-15T17:48:37.013Z,,,,,,,,,,NaN,,,,,,,,high,low,,,,,,false,,,,false,580541.400000006,580541.2999999821,,580541,,580353.213,4,500,,
break_continue,html.Screen,10_20_2,2023-11-15T17:48:37.014Z,,,,,,,,,,NaN,,,,,,,,high,low,,,,,,false,,,,false,580541.6999999881,580541.599999994,,580541.5,,580353.213,4,500,,
sequence,flow.Sequence,10_20,2023-11-15T17:48:37.014Z,,,,,,,,,,3645.1549999940908,completion,,,,,,,high,low,,,,,,false,,,,false,580541.7999999821,580541.599999994,576879.913,577088.900000006,576896.445,580353.213,4,500,,
trial,html.Screen,10_21_0,2023-11-15T17:48:40.510Z,,,,1,0.001445457736793,0.0165307427449982,,true,lh,3684.3869999940507,response,-0.8954803463300026,0.5897419955396922,-0.9792312259056869,0.7071819047913821,0.7667824723506294,-0.6553174343057107,low,high,,ISIC_0027350.JPG,9,ISIC_0033071.JPG,33,false,lh,keypress(e),0,false,584037.900000006,584037.599999994,580336.622,580542,580353.213,583843.39,4,500,22,
break,html.Screen,10_21_1,2023-11-15T17:48:40.511Z,,,,,,,,,,NaN,,,,,,,,low,high,,,,,,false,,,,false,584039,584038.6999999881,,584038.1999999881,,583843.39,4,500,,
break_continue,html.Screen,10_21_2,2023-11-15T17:48:40.512Z,,,,,,,,,,NaN,,,,,,,,low,high,,,,,,false,,,,false,584040,584039.599999994,,584039.2999999821,,583843.39,4,500,,
sequence,flow.Sequence,10_21,2023-11-15T17:48:40.512Z,,,,,,,,,,3686.3869999940507,completion,,,,,,,low,high,,,,,,false,,,,false,584040.2999999821,584039.599999994,580336.622,580542,580353.213,583843.39,4,500,,
trial,html.Screen,10_22_0,2023-11-15T17:48:43.390Z,,,,1,0.0065172941585523,-0.0118857043117315,,false,lh,3074.4099999821046,response,-0.8719231363109603,0.5897419955396922,-0.9792312259056869,0.7704280220140033,0.7667824723506294,-0.6553174343057107,low,high,,ISIC_6119202.JPG,9,ISIC_0029453.JPG,33,false,hh,keypress(i),0,false,586918.099999994,586917.7999999821,583826.804,584040.5,583843.39,586732.283,4,500,23,
break,html.Screen,10_22_1,2023-11-15T17:48:43.391Z,,,,,,,,,,NaN,,,,,,,,low,high,,,,,,false,,,,false,586919.1999999881,586918.900000006,,586918.400000006,,586732.283,4,500,,
break_continue,html.Screen,10_22_2,2023-11-15T17:48:43.392Z,,,,,,,,,,NaN,,,,,,,,low,high,,,,,,false,,,,false,586920,586919.6999999881,,586919.5,,586732.283,4,500,,
sequence,flow.Sequence,10_22,2023-11-15T17:48:43.392Z,,,,,,,,,,3076.309999988065,completion,,,,,,,low,high,,,,,,false,,,,false,586920.400000006,586919.6999999881,583826.804,584040.400000006,583843.39,586732.283,4,500,,
trial,html.Screen,10_23_0,2023-11-15T17:48:48.156Z,,,,1,-0.0634150092059303,0.0177502973253611,,true,hl,4952.117000005906,response,0.6977425554159972,0.5897419955396922,-0.9792312259056869,-0.7551140009008973,0.7667824723506294,-0.6553174343057107,high,low,,ISIC_0032433.JPG,9,ISIC_8523143.JPG,157,false,hl,keypress(j),0,false,591684.5,591684.400000006,586715.72,586920.599999994,586732.283,591491.508,4,500,24,
break,html.Screen,10_23_1,2023-11-15T17:48:48.157Z,,,,,,,,,,NaN,,,,,,,,high,low,,,,,,false,,,,false,591684.7999999821,591684.6999999881,,591684.5,,591491.508,4,500,,
break_continue,html.Screen,10_23_2,2023-11-15T17:48:48.157Z,,,,,,,,,,NaN,,,,,,,,high,low,,,,,,false,,,,false,591685,591685,,591684.900000006,,591491.508,4,500,,
sequence,flow.Sequence,10_23,2023-11-15T17:48:48.157Z,,,,,,,,,,4952.716999999946,completion,,,,,,,high,low,,,,,,false,,,,false,591685.099999994,591685,586715.72,586920.5,586732.283,591491.508,4,500,,
trial,html.Screen,10_24_0,2023-11-15T17:48:52.118Z,,,,1,-0.0606387586319451,-0.0283716809868572,,false,ll,4154.191999988048,response,-0.8483652665994107,0.5897419955396922,-0.9792312259056869,-0.568000904082593,0.7667824723506294,-0.6553174343057107,low,low,,ISIC_0061158.JPG,10,ISIC_1110583.JPG,227,false,hl,keypress(j),0,false,595646.099999994,595645.6999999881,591475.08,591685.1999999881,591491.508,595466.178,4,500,25,
break,html.Screen,10_24_1,2023-11-15T17:48:52.119Z,,,,,,,,,,NaN,,,,,,,,low,low,,,,,,false,,,,false,595647.2999999821,595647,,595646.5,,595466.178,4,500,,
break_continue,html.Screen,10_24_2,2023-11-15T17:48:52.120Z,,,,,,,,,,NaN,,,,,,,,low,low,,,,,,false,,,,false,595648.099999994,595647.6999999881,,595647.5,,595466.178,4,500,,
sequence,flow.Sequence,10_24,2023-11-15T17:48:52.120Z,,,,,,,,,,4156.191999988048,completion,,,,,,,low,low,,,,,,false,,,,false,595648.400000006,595647.6999999881,591475.08,591685.1999999881,591491.508,595466.178,4,500,,
trial,html.Screen,10_25_0,2023-11-15T17:48:56.550Z,,,,1,0.0586587895724749,0.0220047273041276,,false,hl,4611.722000006004,response,0.6429087699367377,0.5897419955396922,-0.9792312259056869,-0.7850400535113949,0.7667824723506294,-0.6553174343057107,high,low,,ISIC_0028320.JPG,9,ISIC_0007749.JPG,157,false,ll,keypress(f),0,false,600078.1999999881,600077.900000006,595449.355,595648.6999999881,595466.178,599891.251,4,500,26,
break,html.Screen,10_25_1,2023-11-15T17:48:56.551Z,,,,,,,,,,NaN,,,,,,,,high,low,,,,,,false,,,,false,600079.2999999821,600079.099999994,,600078.599999994,,599891.251,4,500,,
break_continue,html.Screen,10_25_2,2023-11-15T17:48:56.552Z,,,,,,,,,,NaN,,,,,,,,high,low,,,,,,false,,,,false,600080.1999999881,600079.7999999821,,600079.5,,599891.251,4,500,,
sequence,flow.Sequence,10_25,2023-11-15T17:48:56.552Z,,,,,,,,,,4613.621999982162,completion,,,,,,,high,low,,,,,,false,,,,false,600080.5,600079.7999999821,595449.355,595648.599999994,595466.178,599891.251,4,500,,
trial,html.Screen,10_26_0,2023-11-15T17:48:59.294Z,,,,1,-0.0308384937406319,0.0038396364323947,,true,hh,2930.9489999880316,response,0.6731858385093572,0.5897419955396922,-0.9792312259056869,0.7354562704048458,0.7667824723506294,-0.6553174343057107,high,high,,ISIC_0029825.JPG,8,ISIC_0068924.JPG,295,false,hh,keypress(i),0,false,602822.5,602822.1999999881,599874.624,600080.6999999881,599891.251,602629.859,4,500,27,
break,html.Screen,10_26_1,2023-11-15T17:48:59.296Z,,,,,,,,,,NaN,,,,,,,,high,high,,,,,,false,,,,false,602823.599999994,602823.400000006,,602822.900000006,,602629.859,4,500,,
break_continue,html.Screen,10_26_2,2023-11-15T17:48:59.296Z,,,,,,,,,,NaN,,,,,,,,high,high,,,,,,false,,,,false,602824.5,602824.099999994,,602823.900000006,,602629.859,4,500,,
sequence,flow.Sequence,10_26,2023-11-15T17:48:59.297Z,,,,,,,,,,2932.848999993992,completion,,,,,,,high,high,,,,,,false,,,,false,602824.7999999821,602824.099999994,599874.624,600080.599999994,599891.251,602629.859,4,500,,
trial,html.Screen,10_27_0,2023-11-15T17:49:04.199Z,,,,1,0.0367060100866019,0.0630207980628495,,false,hl,5096.140999999945,response,0.701391706020652,0.5897419955396922,-0.9792312259056869,-0.5451848624982515,0.7667824723506294,-0.6553174343057107,high,low,,ISIC_0028396.JPG,9,ISIC_5736979.JPG,157,false,hh,keypress(i),0,false,607726.2999999821,607726,602613.243,602825.099999994,602629.859,607539.427,4,500,28,
break,html.Screen,10_27_1,2023-11-15T17:49:04.200Z,,,,,,,,,,NaN,,,,,,,,high,low,,,,,,false,,,,false,607727.400000006,607727.1999999881,,607726.6999999881,,607539.427,4,500,,
break_continue,html.Screen,10_27_2,2023-11-15T17:49:04.201Z,,,,,,,,,,NaN,,,,,,,,high,low,,,,,,false,,,,false,607728.5,607728,,607727.7999999821,,607539.427,4,500,,
sequence,flow.Sequence,10_27,2023-11-15T17:49:04.201Z,,,,,,,,,,5098.140999999945,completion,,,,,,,high,low,,,,,,false,,,,false,607728.7999999821,607728,602613.243,602825,602629.859,607539.427,4,500,,
trial,html.Screen,10_28_0,2023-11-15T17:49:07.397Z,,,,1,-0.0085390023861227,-0.051110950799465,,true,hh,3384.772999988054,response,0.532634444504294,0.5897419955396922,-0.9792312259056869,0.7193855906690156,0.7667824723506294,-0.6553174343057107,high,high,,ISIC_6268546.JPG,8,ISIC_0010409.JPG,295,false,hh,keypress(i),0,false,610924.1999999881,610924.1999999881,607522.975,607729,607539.427,610728.916,4,500,29,
break,html.Screen,10_28_1,2023-11-15T17:49:07.397Z,,,,,,,,,,NaN,,,,,,,,high,high,,,,,,false,,,,false,610924.5,610924.400000006,,610924.400000006,,610728.916,4,500,,
break_continue,html.Screen,10_28_2,2023-11-15T17:49:07.397Z,,,,,,,,,,NaN,,,,,,,,high,high,,,,,,false,,,,false,610924.7999999821,610924.6999999881,,610924.599999994,,610728.916,4,500,,
sequence,flow.Sequence,10_28,2023-11-15T17:49:07.397Z,,,,,,,,,,3385.272999988054,completion,,,,,,,high,high,,,,,,false,,,,false,610924.900000006,610924.6999999881,607522.975,607729,607539.427,610728.916,4,500,,
trial,html.Screen,10_29_0,2023-11-15T17:49:11.007Z,,,,1,-0.0009714874637896,0.0174815595031679,,true,hh,3805.484000005992,response,0.714417678806898,0.5897419955396922,-0.9792312259056869,0.8846902997868215,0.7667824723506294,-0.6553174343057107,high,high,,ISIC_9848743.JPG,9,ISIC_0031401.JPG,295,false,hh,keypress(i),0,false,614534.6999999881,614534.400000006,610712.414,610924.900000006,610728.916,614352.829,4,500,30,
break,html.Screen,10_29_1,2023-11-15T17:49:11.008Z,,,,,,,,,,NaN,,,,,,,,high,high,,,,,,false,,,,false,614535.7999999821,614535.5,,614535,,614352.829,4,500,,
break_continue,html.Screen,10_29_2,2023-11-15T17:49:11.009Z,,,,,,,,,,NaN,,,,,,,,high,high,,,,,,false,,,,false,614536.599999994,614536.1999999881,,614536,,614352.829,4,500,,
sequence,flow.Sequence,10_29,2023-11-15T17:49:11.010Z,,,,,,,,,,3807.2839999881107,completion,,,,,,,high,high,,,,,,false,,,,false,614536.900000006,614536.1999999881,610712.414,610924.900000006,610728.916,614352.829,4,500,,
trial,html.Screen,10_30_0,2023-11-15T17:49:16.687Z,,,,1,0.0273175221875807,0.0515126441328492,,false,hl,5861.0710000059335,response,0.5092845414434499,0.5897419955396922,-0.9792312259056869,-0.634300188181445,0.7667824723506294,-0.6553174343057107,high,low,,ISIC_0064034.JPG,9,ISIC_0062812.JPG,157,false,hh,keypress(i),0,false,620214.1999999881,620213.900000006,614336.057,614537,614352.829,620030.42,4,500,31,
break,html.Screen,10_30_1,2023-11-15T17:49:16.688Z,,,,,,,,,,NaN,,,,,,,,high,low,,,,,,false,,,,false,620215.5,620215.1999999881,,620214.6999999881,,620030.42,4,500,,
break_continue,html.Screen,10_30_2,2023-11-15T17:49:16.689Z,,,,,,,,,,NaN,,,,,,,,high,low,,,,,,false,,,,false,620216.5,620216.099999994,,620215.900000006,,620030.42,4,500,,
sequence,flow.Sequence,10_30,2023-11-15T17:49:16.690Z,,,,,,,,,,5863.2709999940125,completion,,,,,,,high,low,,,,,,false,,,,false,620216.900000006,620216.099999994,614336.057,614536.900000006,614352.829,620030.42,4,500,,
trial,html.Screen,10_31_0,2023-11-15T17:49:20.327Z,,,,1,0.0199950873045219,0.0172506388509166,,false,hl,3823.3799999820767,response,0.4705247920606408,0.5897419955396922,-0.9792312259056869,-0.7284950753700423,0.7667824723506294,-0.6553174343057107,high,low,,ISIC_0029906.JPG,9,ISIC_0026049.JPG,157,false,lh,keypress(e),0,false,623854,623853.7999999821,620013.832,620217.099999994,620030.42,623670.873,4,500,32,
break,html.Screen,10_31_1,2023-11-15T17:49:20.328Z,,,,,,,,,,NaN,,,,,,,,high,low,,,,,,false,,,,false,623855.099999994,623854.900000006,,623854.400000006,,623670.873,4,500,,
break_continue,html.Screen,10_31_2,2023-11-15T17:49:20.328Z,,,,,,,,,,NaN,,,,,,,,high,low,,,,,,false,,,,false,623855.900000006,623855.5,,623855.2999999821,,623670.873,4,500,,
sequence,flow.Sequence,10_31,2023-11-15T17:49:20.329Z,,,,,,,,,,3825.079999999958,completion,,,,,,,high,low,,,,,,false,,,,false,623856.099999994,623855.5,620013.832,620217.099999994,620030.42,623670.873,4,500,,
trial,html.Screen,10_32_0,2023-11-15T17:49:25.469Z,,,,1,-0.0267918352484299,-0.0630167830859455,,false,ll,5325.926999982097,response,-0.8962974456274592,0.5897419955396922,-0.9792312259056869,-0.6851586138286724,0.7667824723506294,-0.6553174343057107,low,low,,ISIC_0064874.JPG,9,ISIC_3440004.JPG,227,false,hl,keypress(j),0,false,628996.7999999821,628996.7999999821,623654.297,623856.2999999821,623670.873,628814.208,4,500,33,
break,html.Screen,10_32_1,2023-11-15T17:49:25.470Z,,,,,,,,,,NaN,,,,,,,,low,low,,,,,,false,,,,false,628997.1999999881,628997.099999994,,628996.900000006,,628814.208,4,500,,
break_continue,html.Screen,10_32_2,2023-11-15T17:49:25.470Z,,,,,,,,,,NaN,,,,,,,,low,low,,,,,,false,,,,false,628997.5,628997.2999999821,,628997.2999999821,,628814.208,4,500,,
sequence,flow.Sequence,10_32,2023-11-15T17:49:25.470Z,,,,,,,,,,5326.426999982097,completion,,,,,,,low,low,,,,,,false,,,,false,628997.5,628997.2999999821,623654.297,623856.2999999821,623670.873,628814.208,4,500,,
trial,html.Screen,10_33_0,2023-11-15T17:49:28.855Z,,,,1,0.045779466401051,0.0137769797231127,,true,hh,3567.8919999940554,response,0.7465062180153651,0.5897419955396922,-0.9792312259056869,0.774182701900248,0.7667824723506294,-0.6553174343057107,high,high,,ISIC_0000504.JPG,8,ISIC_1566428.JPG,295,false,hh,keypress(i),0,false,632382.2999999821,632382.099999994,628797.673,628997.5,628814.208,632204.669,4,500,34,
break,html.Screen,10_33_1,2023-11-15T17:49:28.856Z,,,,,,,,,,NaN,,,,,,,,high,high,,,,,,false,,,,false,632383.5,632383.2999999821,,632382.7999999821,,632204.669,4,500,,
break_continue,html.Screen,10_33_2,2023-11-15T17:49:28.857Z,,,,,,,,,,NaN,,,,,,,,high,high,,,,,,false,,,,false,632384.5,632384,,632383.6999999881,,632204.669,4,500,,
sequence,flow.Sequence,10_33,2023-11-15T17:49:28.858Z,,,,,,,,,,3569.792000000016,completion,,,,,,,high,high,,,,,,false,,,,false,632384.900000006,632384,628797.673,628997.5,628814.208,632204.669,4,500,,
trial,html.Screen,10_34_0,2023-11-15T17:49:32.247Z,,,,1,-0.0447960916594447,-0.0451557856659748,,true,hh,3569.630999982124,response,0.5859061375775791,0.5897419955396922,-0.9792312259056869,0.6651172024911747,0.7667824723506294,-0.6553174343057107,high,high,,ISIC_1379405.JPG,9,ISIC_0010242.JPG,295,false,hh,keypress(i),0,false,635774.5,635774.2999999821,632170.694,632385.099999994,632204.669,635594.235,4,500,35,
break,html.Screen,10_34_1,2023-11-15T17:49:32.248Z,,,,,,,,,,NaN,,,,,,,,high,high,,,,,,false,,,,false,635775.6999999881,635775.400000006,,635775,,635594.235,4,500,,
break_continue,html.Screen,10_34_2,2023-11-15T17:49:32.249Z,,,,,,,,,,NaN,,,,,,,,high,high,,,,,,false,,,,false,635776.5,635776.1999999881,,635775.900000006,,635594.235,4,500,,
sequence,flow.Sequence,10_34,2023-11-15T17:49:32.249Z,,,,,,,,,,3571.5309999880847,completion,,,,,,,high,high,,,,,,false,,,,false,635776.900000006,635776.1999999881,632170.694,632385,632204.669,635594.235,4,500,,
trial,html.Screen,10_35_0,2023-11-15T17:49:36.247Z,,,,1,-0.0643519619373155,-0.0340638715725122,,false,hl,4179.665000005974,response,0.6760317317140794,0.5897419955396922,-0.9792312259056869,-0.7770980830178764,0.7667824723506294,-0.6553174343057107,high,low,,ISIC_0066401.JPG,9,ISIC_0025316.JPG,157,false,hh,keypress(i),0,false,639774.1999999881,639773.900000006,635577.383,635777.099999994,635594.235,639585.177,4,500,36,
break,html.Screen,10_35_1,2023-11-15T17:49:36.248Z,,,,,,,,,,NaN,,,,,,,,high,low,,,,,,false,,,,false,639775.1999999881,639775,,639774.5,,639585.177,4,500,,
break_continue,html.Screen,10_35_2,2023-11-15T17:49:36.249Z,,,,,,,,,,NaN,,,,,,,,high,low,,,,,,false,,,,false,639776,639775.6999999881,,639775.400000006,,639585.177,4,500,,
sequence,flow.Sequence,10_35,2023-11-15T17:49:36.249Z,,,,,,,,,,4181.464999988093,completion,,,,,,,high,low,,,,,,false,,,,false,639776.2999999821,639775.6999999881,635577.383,635777,635594.235,639585.177,4,500,,
trial,html.Screen,10_36_0,2023-11-15T17:49:39.591Z,,,,1,-0.0220026381002083,0.0170756452911772,,false,hl,3532.7230000059353,response,0.7801125028333664,0.5897419955396922,-0.9792312259056869,-0.566453719006178,0.7667824723506294,-0.6553174343057107,high,low,,ISIC_5347806.JPG,9,ISIC_0078703.JPG,157,false,ll,keypress(f),0,false,643118.1999999881,643117.900000006,639568.574,639776.5,639585.177,642925.047,4,500,37,
break,html.Screen,10_36_1,2023-11-15T17:49:39.592Z,,,,,,,,,,NaN,,,,,,,,high,low,,,,,,false,,,,false,643119.400000006,643119.099999994,,643118.599999994,,642925.047,4,500,,
break_continue,html.Screen,10_36_2,2023-11-15T17:49:39.593Z,,,,,,,,,,NaN,,,,,,,,high,low,,,,,,false,,,,false,643120.2999999821,643119.7999999821,,643119.599999994,,642925.047,4,500,,
sequence,flow.Sequence,10_36,2023-11-15T17:49:39.593Z,,,,,,,,,,3534.6229999820935,completion,,,,,,,high,low,,,,,,false,,,,false,643120.599999994,643119.7999999821,639568.574,639776.5,639585.177,642925.047,4,500,,
