sender,sender_type,sender_id,timestamp,meta,,age,blockNo,c1,c2,condition,correct,correctResponse,duration,ended_on,f1,f1_high,f1_low,f2,f2_high,f2_low,feature_level1,feature_level2,gender,img_left,img_reveal,img_right,n_target_images,practice,response,response_action,selection_duration,staircase,time_commit,time_end,time_render,time_run,time_show,time_switch,total_blocks,total_trials,trialNo,url
informed_consent,html.Screen,0,2023-11-15T21:31:27.450Z,"{""labjs_version"":""20.2.4"",""labjs_build"":{""flavor"":""development"",""commit"":""f5b4a49f956347addd546a832a3327688c2c0fef""},""location"":""https://labjs.felixhenninger.com/api/labjs_preview/index.html"",""userAgent"":""Mozilla/5.0 (Windows NT 10.0; Win64; x64) AppleWebKit/537.36 (KHTML, like Gecko) Chrome/119.0.0.0 Safari/537.36"",""platform"":""Win32"",""language"":""en-US"",""locale"":""en-US"",""timeZone"":""America/Chicago"",""timezoneOffset"":360,""screen_width"":1680,""screen_height"":1050,""scroll_width"":825,""scroll_height"":888,""window_innerWidth"":825,""window_innerHeight"":936,""devicePixelRatio"":1}",,,,,,,,,27903.17199997616,response,,,,,,,,,,,,,,,consent,click button,,,28555.19999998808,28546.399999976158,626.549,612.3999999761581,643.228,28564.276,,,,{}
Demography form,html.Form,1,2023-11-15T21:31:34.914Z,,,22,,,,,,,7454.923999988077,form submission,,,,,,,,,female,,,,,,,,,,36019.299999952316,36019.19999998808,28547.407,28555.399999976158,28564.276,36028.691,,,,
Welcome,html.Screen,2,2023-11-15T21:33:03.051Z,,,,,,,"[""asym"",""col""]",,,88125.50899998809,response,,,,,,,,,,,,,,,continue,click button,,,124154.69999998808,124154.19999998808,36011.954,36019.5,36028.691,124166.923,,,,
demo_instructions,html.Screen,3,2023-11-15T21:33:42.005Z,,,,,,,,,,38939.37699995232,response,,,,,,,,,,,,,,,continue,click button,,,163106.79999995232,163106.29999995232,124150.249,124154.69999998808,124166.923,163109.121,,,,
trial,html.Screen,4_0_0,2023-11-15T21:34:03.408Z,,,,0,0.8620516892494489,-1.1108509340502866,,true,lh,21400.278999976144,response,-0.8070820195894357,0.9999999999999998,-0.9999999999999998,0.8958120092147633,0.9999999999999998,-0.9999999999999998,low,high,,ISIC_5557806.JPG,,ISIC_0060585.JPG,24,true,lh,keypress(e),100,false,184509.69999998808,184509.39999997616,163092.647,163107,163109.121,184534.129,1,16,1,
sequence,flow.Sequence,4_0,2023-11-15T21:34:03.408Z,,,,,,,,,,21400.278999976144,completion,,,,,,,low,high,,,,,,true,,,,false,184509.89999997616,184509.39999997616,163092.647,163107,163109.121,184534.129,1,16,,
trial,html.Screen,4_1_0,2023-11-15T21:34:20.854Z,,,,0,0.9566823908868002,-0.9602125665128364,,true,lh,17421.17099995233,response,-0.9039158082670506,0.9999999999999998,-0.9999999999999998,1.0517562064343149,0.9999999999999998,-0.9999999999999998,low,high,,ISIC_0056784.JPG,,ISIC_0015411.JPG,24,true,lh,keypress(e),100,false,201955.89999997616,201955.29999995232,184517.667,184510,184534.129,201984.926,1,16,2,
sequence,flow.Sequence,4_1,2023-11-15T21:34:20.855Z,,,,,,,,,,17421.17099995233,completion,,,,,,,low,high,,,,,,true,,,,false,201956.69999998808,201955.29999995232,184517.667,184510,184534.129,201984.926,1,16,,
trial,html.Screen,4_2_0,2023-11-15T21:34:45.205Z,,,,0,1.1547137855907486,-1.0185275168641534,,true,lh,24320.67399996423,response,-0.849847885203758,0.9999999999999998,-0.9999999999999998,0.973447384095442,0.9999999999999998,-0.9999999999999998,low,high,,ISIC_7604870.JPG,,ISIC_9612228.JPG,24,true,lh,keypress(e),100,false,226306,226305.59999996424,201968.116,201957,201984.926,226332.343,1,16,3,
sequence,flow.Sequence,4_2,2023-11-15T21:34:45.206Z,,,,,,,,,,24320.67399996423,completion,,,,,,,low,high,,,,,,true,,,,false,226306.79999995232,226305.59999996424,201968.116,201956.89999997616,201984.926,226332.343,1,16,,
trial,html.Screen,4_3_0,2023-11-15T21:34:54.642Z,,,,0,1.155796217969438,-1.1646564121743912,,true,lh,9410.056999976165,response,-0.9445114955578736,0.9999999999999998,-0.9999999999999998,1.0054210059625863,0.9999999999999998,-0.9999999999999998,low,high,,ISIC_2685523.JPG,,ISIC_0033807.JPG,24,true,lh,keypress(e),100,false,235742.59999996424,235742.39999997616,226315.484,226307,226332.343,235767.127,1,16,4,
sequence,flow.Sequence,4_3,2023-11-15T21:34:54.642Z,,,,,,,,,,9410.056999976165,completion,,,,,,,low,high,,,,,,true,,,,false,235742.79999995232,235742.39999997616,226315.484,226307,226332.343,235767.127,1,16,,
trial,html.Screen,4_4_0,2023-11-15T21:35:17.511Z,,,,0,0.8826164980777871,1.1601445610079184,,true,ll,22844.17299995231,response,-0.8207155237115402,0.9999999999999998,-0.9999999999999998,-0.9831752618289616,0.9999999999999998,-0.9999999999999998,low,low,,ISIC_0055169.JPG,,ISIC_0053929.JPG,111,true,ll,keypress(f),100,false,258611.89999997616,258611.29999995232,235750.659,235742.89999997616,235767.127,258628.249,1,16,5,
sequence,flow.Sequence,4_4,2023-11-15T21:35:17.512Z,,,,,,,,,,22844.17299995231,completion,,,,,,,low,low,,,,,,true,,,,false,258612.59999996424,258611.29999995232,235750.659,235742.79999995232,235767.127,258628.249,1,16,,
trial,html.Screen,4_5_0,2023-11-15T21:35:35.655Z,,,,0,1.12972273782631,1.0374079095766835,,true,ll,18125.75099999999,response,-0.831295474746028,0.9999999999999998,-0.9999999999999998,-0.9721089662087676,0.9999999999999998,-0.9999999999999998,low,low,,ISIC_0032396.JPG,,ISIC_0760740.JPG,111,true,ll,keypress(f),100,false,276754.39999997616,276754,258611.578,258612.89999997616,258628.249,276780.439,1,16,6,
sequence,flow.Sequence,4_5,2023-11-15T21:35:35.656Z,,,,,,,,,,18125.75099999999,completion,,,,,,,low,low,,,,,,true,,,,false,276755.09999996424,276754,258611.578,258612.79999995232,258628.249,276780.439,1,16,,
trial,html.Screen,4_6_0,2023-11-15T21:35:45.380Z,,,,0,0.9735583105865782,0.8683758859171238,,true,ll,9698.460999976145,response,-1.1990772227054871,0.9999999999999998,-0.9999999999999998,-1.1224329926844498,0.9999999999999998,-0.9999999999999998,low,low,,ISIC_0065204.JPG,,ISIC_3425388.JPG,111,true,ll,keypress(f),100,false,286479.39999997616,286478.89999997616,276763.586,276755.39999997616,276780.439,286499.18,1,16,7,
sequence,flow.Sequence,4_6,2023-11-15T21:35:45.381Z,,,,,,,,,,9698.460999976145,completion,,,,,,,low,low,,,,,,true,,,,false,286480,286478.89999997616,276763.586,276755.2999999523,276780.439,286499.18,1,16,,
trial,html.Screen,4_7_0,2023-11-15T21:35:54.147Z,,,,0,0.8299064093289698,0.8788083232111502,,true,ll,8746.019999988086,response,-0.8492821768888116,0.9999999999999998,-0.9999999999999998,-1.1667020643738155,0.9999999999999998,-0.9999999999999998,low,low,,ISIC_0000398.JPG,,ISIC_0011256.JPG,111,true,ll,keypress(f),100,false,295245.59999996424,295245.1999999881,286482.494,286480.2999999523,286499.18,295266.214,1,16,8,
sequence,flow.Sequence,4_7,2023-11-15T21:35:54.147Z,,,,,,,,,,8746.019999988086,completion,,,,,,,low,low,,,,,,true,,,,false,295246.2999999523,295245.1999999881,286482.494,286480.1999999881,286499.18,295266.214,1,16,,
trial,html.Screen,4_8_0,2023-11-15T21:36:15.856Z,,,,0,-1.1501717278509027,0.8228936373136835,,true,hl,21688.4859999881,response,1.0264463986917702,0.9999999999999998,-0.9999999999999998,-1.171271535505083,0.9999999999999998,-0.9999999999999998,high,low,,ISIC_8398000.JPG,,ISIC_7889838.JPG,24,true,hl,keypress(j),100,false,316955.2999999523,316954.6999999881,295249.546,295246.5,295266.214,316975.092,1,16,9,
sequence,flow.Sequence,4_8,2023-11-15T21:36:15.857Z,,,,,,,,,,21688.4859999881,completion,,,,,,,high,low,,,,,,true,,,,false,316955.89999997616,316954.6999999881,295249.546,295246.5,295266.214,316975.092,1,16,,
trial,html.Screen,4_9_0,2023-11-15T21:36:33.152Z,,,,0,-0.8129823105338526,0.9655386457143784,,true,hl,17273.507999964233,response,0.9448560599810628,0.9999999999999998,-0.9999999999999998,-0.9099421612683488,0.9999999999999998,-0.9999999999999998,high,low,,ISIC_8268025.JPG,,ISIC_9684318.JPG,24,true,hl,keypress(j),100,false,334248.7999999523,334248.59999996424,316958.432,316956.2999999523,316975.092,334275.361,1,16,10,
sequence,flow.Sequence,4_9,2023-11-15T21:36:33.152Z,,,,,,,,,,17273.507999964233,completion,,,,,,,high,low,,,,,,true,,,,false,334249.1999999881,334248.59999996424,316958.432,316956.09999996424,316975.092,334275.361,1,16,,
trial,html.Screen,4_10_0,2023-11-15T21:36:41.942Z,,,,0,-1.1890109863264902,0.8867825318561365,,true,hl,8764.139000000025,response,0.9046170303418553,0.9999999999999998,-0.9999999999999998,-1.0063426986460375,0.9999999999999998,-0.9999999999999998,high,low,,ISIC_0072576.JPG,,ISIC_0055759.JPG,24,true,hl,keypress(j),100,false,343039.59999996424,343039.5,334258.803,334249.2999999523,334275.361,343059.109,1,16,11,
sequence,flow.Sequence,4_10,2023-11-15T21:36:41.942Z,,,,,,,,,,8764.139000000025,completion,,,,,,,high,low,,,,,,true,,,,false,343039.6999999881,343039.5,334258.803,334249.1999999881,334275.361,343059.109,1,16,,
trial,html.Screen,4_11_0,2023-11-15T21:37:14.683Z,,,,0,-1.1501717278509027,0.8228936373136835,,true,hl,32720.29099997616,response,0.8620516892494489,0.9999999999999998,-0.9999999999999998,-1.1108509340502866,0.9999999999999998,-0.9999999999999998,high,low,,ISIC_8398000.JPG,,ISIC_5557806.JPG,24,true,hl,keypress(j),100,false,375779.7999999523,375779.39999997616,343042.367,343039.7999999523,343059.109,375806.198,1,16,12,
sequence,flow.Sequence,4_11,2023-11-15T21:37:14.683Z,,,,,,,,,,32720.29099997616,completion,,,,,,,high,low,,,,,,true,,,,false,375780.5,375779.39999997616,343042.367,343039.6999999881,343059.109,375806.198,1,16,,
trial,html.Screen,4_12_0,2023-11-15T21:37:44.706Z,,,,0,-0.9191486333136276,-1.080719641270871,,true,hh,29995.401999964262,response,1.056384093543893,0.9999999999999998,-0.9999999999999998,0.9175933839600456,0.9999999999999998,-0.9999999999999998,high,high,,ISIC_0663941.JPG,,ISIC_0064247.JPG,154,true,hh,keypress(i),100,false,405802,405801.59999996424,375789.512,375780.7999999523,375806.198,405831.235,1,16,13,
sequence,flow.Sequence,4_12,2023-11-15T21:37:44.707Z,,,,,,,,,,29995.401999964262,completion,,,,,,,high,high,,,,,,true,,,,false,405802.6999999881,405801.59999996424,375789.512,375780.6999999881,375806.198,405831.235,1,16,,
trial,html.Screen,4_13_0,2023-11-15T21:37:50.984Z,,,,0,-0.8329154010765664,-1.086658647698992,,true,hh,6248.56499995233,response,1.033120591224746,0.9999999999999998,-0.9999999999999998,0.9169816067930722,0.9999999999999998,-0.9999999999999998,high,high,,ISIC_7407847.JPG,,ISIC_0033027.JPG,154,true,hh,keypress(i),100,false,412080.09999996424,412079.7999999523,405814.557,405803,405831.235,412110.057,1,16,14,
sequence,flow.Sequence,4_13,2023-11-15T21:37:50.985Z,,,,,,,,,,6248.56499995233,completion,,,,,,,high,high,,,,,,true,,,,false,412080.7999999523,412079.7999999523,405814.557,405802.89999997616,405831.235,412110.057,1,16,,
trial,html.Screen,4_14_0,2023-11-15T21:37:55.989Z,,,,0,-0.8106452071627479,-0.8209658560483851,,true,hh,4974.943000000028,response,1.1048442481887897,0.9999999999999998,-0.9999999999999998,0.8090139128440115,0.9999999999999998,-0.9999999999999998,high,high,,ISIC_4151356.JPG,,ISIC_0057539.JPG,154,true,hh,keypress(i),100,false,417085.2999999523,417085,412093.469,412081.1999999881,412110.057,417103.31,1,16,15,
sequence,flow.Sequence,4_14,2023-11-15T21:37:55.990Z,,,,,,,,,,4974.943000000028,completion,,,,,,,high,high,,,,,,true,,,,false,417086.09999996424,417085,412093.469,412081,412110.057,417103.31,1,16,,
trial,html.Screen,4_15_0,2023-11-15T21:38:26.610Z,,,,0,-0.8299201784919694,-0.9555257680008306,,true,hh,30601.690000000002,response,1.0698162624196283,0.9999999999999998,-0.9999999999999998,1.0648460966097275,0.9999999999999998,-0.9999999999999998,high,high,,ISIC_6937199.JPG,,ISIC_0030552.JPG,154,true,hh,keypress(i),100,false,447705.09999996424,447705,417086.499,417086.5,417103.31,447729.312,1,16,16,
sequence,flow.Sequence,4_15,2023-11-15T21:38:26.610Z,,,,,,,,,,30601.690000000002,completion,,,,,,,high,high,,,,,,true,,,,false,447705.2999999523,447705,417086.499,417086.39999997616,417103.31,447729.312,1,16,,
demonstration_loop,flow.Loop,4,2023-11-15T21:38:26.611Z,,,,,,,,,,284595.87899999996,completion,,,,,,,,,,,,,,true,,,,false,447705.5,447705,163092.647,163106.89999997616,163109.121,447729.312,1,16,,
practice_instructions,html.Screen,5,2023-11-15T21:38:47.443Z,,,,,,,,,,20800.587999976182,response,,,,,,,,,,,,,,,continue,click button,,,468538.2999999523,468529.89999997616,447712.639,447705.5,447729.312,468536.438,,,,
trial,html.Screen,6_0_0,2023-11-15T21:38:58.431Z,,,,1,0.8531968652064474,1.0402692470955777,,,,11021.701000000001,timeout,-0.967434313906551,0.9999999999999998,-0.9999999999999998,-0.9078292667476092,0.9999999999999998,-0.9999999999999998,low,low,,ISIC_0056201.JPG,,ISIC_0011668.JPG,111,true,,,0,false,479525.89999997616,479525.39999997616,468519.961,468538.5,468536.438,479558.139,1,40,1,
sequence,flow.Sequence,6_0,2023-11-15T21:38:58.432Z,,,,,,,,,,10988.961999976134,completion,,,,,,,low,low,,,,,,true,,,,false,479526.5,479525.39999997616,468519.961,468538.5,468536.438,479558.139,1,40,,
trial,html.Screen,6_1_0,2023-11-15T21:39:04.702Z,,,,1,0.905313139676194,0.9966583050703528,,true,ll,6238.2609999761335,response,-0.9840050049609405,0.9999999999999998,-0.9999999999999998,-1.1927876559115576,0.9999999999999998,-0.9999999999999998,low,low,,ISIC_0070342.JPG,,ISIC_8651053.JPG,111,true,ll,keypress(f),0,false,485796.7999999523,485796.39999997616,479541.447,479526.6999999881,479558.139,485820.087,1,40,2,
sequence,flow.Sequence,6_1,2023-11-15T21:39:04.702Z,,,,,,,,,,6238.2609999761335,completion,,,,,,,low,low,,,,,,true,,,,false,485797.2999999523,485796.39999997616,479541.447,479526.6999999881,479558.139,485820.087,1,40,,
trial,html.Screen,6_2_0,2023-11-15T21:39:12.653Z,,,,1,0.9009408285331614,0.8985422901220989,,true,ll,7927.312999976159,response,-1.1119564877278971,0.9999999999999998,-0.9999999999999998,-0.9546609075308709,0.9999999999999998,-0.9999999999999998,low,low,,ISIC_0033834.JPG,,ISIC_0056110.JPG,111,true,ll,keypress(f),0,false,493747.7999999523,493747.39999997616,485803.362,485797.5,485820.087,493752.132,1,40,3,
sequence,flow.Sequence,6_2,2023-11-15T21:39:12.653Z,,,,,,,,,,7927.312999976159,completion,,,,,,,low,low,,,,,,true,,,,false,493748.2999999523,493747.39999997616,485803.362,485797.5,485820.087,493752.132,1,40,,
trial,html.Screen,6_3_0,2023-11-15T21:39:18.677Z,,,,1,1.109729032348591,0.9587230726994566,,true,ll,6019.667999952333,response,-1.0433307945145347,0.9999999999999998,-0.9999999999999998,-0.8328447549795016,0.9999999999999998,-0.9999999999999998,low,low,,ISIC_0055289.JPG,,ISIC_9104843.JPG,111,true,ll,keypress(f),0,false,499772.1999999881,499771.7999999523,493735.565,493748.59999996424,493752.132,499780.544,1,40,4,
sequence,flow.Sequence,6_3,2023-11-15T21:39:18.678Z,,,,,,,,,,6019.667999952333,completion,,,,,,,low,low,,,,,,true,,,,false,499772.59999996424,499771.7999999523,493735.565,493748.5,493752.132,499780.544,1,40,,
trial,html.Screen,6_4_0,2023-11-15T21:39:25.422Z,,,,1,-1.1808334052190257,-0.8195185178266473,,true,hh,6734.855999976164,response,0.9314347560281744,0.9999999999999998,-0.9999999999999998,1.134138732207607,0.9999999999999998,-0.9999999999999998,high,high,,ISIC_0033950.JPG,,ISIC_0056660.JPG,154,true,hh,keypress(i),0,false,506515.6999999881,506515.39999997616,499764.059,499772.89999997616,499780.544,506527.085,1,40,5,
sequence,flow.Sequence,6_4,2023-11-15T21:39:25.423Z,,,,,,,,,,6734.855999976164,completion,,,,,,,high,high,,,,,,true,,,,false,506516.2999999523,506515.39999997616,499764.059,499772.7999999523,499780.544,506527.085,1,40,,
trial,html.Screen,6_5_0,2023-11-15T21:39:31.837Z,,,,1,-0.8129823105338526,0.9655386457143784,,true,hl,6403.514999964216,response,1.0088376543442317,0.9999999999999998,-0.9999999999999998,-0.8023075994977575,0.9999999999999998,-0.9999999999999998,high,low,,ISIC_8268025.JPG,,ISIC_7619234.JPG,24,true,hl,keypress(j),0,false,512930.6999999881,512930.59999996424,506510.253,506516.5,506527.085,512939.555,1,40,6,
sequence,flow.Sequence,6_5,2023-11-15T21:39:31.837Z,,,,,,,,,,6403.514999964216,completion,,,,,,,high,low,,,,,,true,,,,false,512930.7999999523,512930.59999996424,506510.253,506516.5,506527.085,512939.555,1,40,,
trial,html.Screen,6_6_0,2023-11-15T21:39:39.702Z,,,,1,1.0264463986917702,-1.171271535505083,,true,lh,7855.945000000007,response,-1.0143509683988825,0.9999999999999998,-0.9999999999999998,1.0281980567462463,0.9999999999999998,-0.9999999999999998,low,high,,ISIC_7889838.JPG,,ISIC_0062031.JPG,24,true,lh,keypress(e),0,false,520795.89999997616,520795.5,512922.912,512930.89999997616,512939.555,520804.76,1,40,7,
sequence,flow.Sequence,6_6,2023-11-15T21:39:39.703Z,,,,,,,,,,7855.945000000007,completion,,,,,,,low,high,,,,,,true,,,,false,520796.2999999523,520795.5,512922.912,512930.89999997616,512939.555,520804.76,1,40,,
trial,html.Screen,6_7_0,2023-11-15T21:39:46.877Z,,,,1,0.8688859182707874,-0.9566733172438716,,false,lh,7165.43999998807,response,-0.8479396253253069,0.9999999999999998,-0.9999999999999998,1.011054319516718,0.9999999999999998,-0.9999999999999998,low,high,,ISIC_0640770.JPG,,ISIC_0063521.JPG,24,true,ll,keypress(f),0,false,527970.2999999523,527970.1999999881,520788.21,520796.59999996424,520804.76,527985.526,1,40,8,
sequence,flow.Sequence,6_7,2023-11-15T21:39:46.877Z,,,,,,,,,,7165.43999998807,completion,,,,,,,low,high,,,,,,true,,,,false,527970.5,527970.1999999881,520788.21,520796.5,520804.76,527985.526,1,40,,
trial,html.Screen,6_8_0,2023-11-15T21:39:53.470Z,,,,1,-1.1501717278509027,0.8228936373136835,,true,hl,6577.974000000046,response,1.155796217969438,0.9999999999999998,-0.9999999999999998,-1.1646564121743912,0.9999999999999998,-0.9999999999999998,high,low,,ISIC_8398000.JPG,,ISIC_2685523.JPG,24,true,hl,keypress(j),0,false,534563.6999999881,534563.5,527968.916,527970.5999999642,527985.526,534598.381,1,40,9,
sequence,flow.Sequence,6_8,2023-11-15T21:39:53.471Z,,,,,,,,,,6577.974000000046,completion,,,,,,,high,low,,,,,,true,,,,false,534564.1999999881,534563.5,527968.916,527970.5999999642,527985.526,534598.381,1,40,,
trial,html.Screen,6_9_0,2023-11-15T21:40:01.869Z,,,,1,1.0561331896671369,1.026183861508091,,true,ll,8363.518999976106,response,-0.8017757615489182,0.9999999999999998,-0.9999999999999998,-0.8187931329618445,0.9999999999999998,-0.9999999999999998,low,low,,ISIC_0026595.JPG,,ISIC_0029024.JPG,111,true,ll,keypress(f),0,false,542962.0999999642,542961.8999999762,534581.79,534564.5,534598.381,542964.526,1,40,10,
sequence,flow.Sequence,6_9,2023-11-15T21:40:01.869Z,,,,,,,,,,8363.518999976106,completion,,,,,,,low,low,,,,,,true,,,,false,542962.1999999881,542961.8999999762,534581.79,534564.3999999762,534598.381,542964.526,1,40,,
trial,html.Screen,6_10_0,2023-11-15T21:40:11.973Z,,,,1,-0.9512444996401545,-0.9046053086219094,,true,hh,10101.974000000046,response,1.1227373144244253,0.9999999999999998,-0.9999999999999998,1.1886610799377713,0.9999999999999998,-0.9999999999999998,high,high,,ISIC_0059170.JPG,,ISIC_0059506.JPG,154,true,hh,keypress(i),0,false,553066.6999999881,553066.5,542948.026,542962.1999999881,542964.526,553085.077,1,40,11,
sequence,flow.Sequence,6_10,2023-11-15T21:40:11.973Z,,,,,,,,,,10101.974000000046,completion,,,,,,,high,high,,,,,,true,,,,false,553066.8999999762,553066.5,542948.026,542962.1999999881,542964.526,553085.077,1,40,,
trial,html.Screen,6_11_0,2023-11-15T21:40:21.030Z,,,,1,0.8087127179888679,-0.8480635840272462,,true,lh,9038.422999999952,response,-0.9087169856594104,0.9999999999999998,-0.9999999999999998,0.8835647084207277,0.9999999999999998,-0.9999999999999998,low,high,,ISIC_3941147.JPG,,ISIC_0000349.JPG,24,true,lh,keypress(e),0,false,562123.8999999762,562123.5,553050.869,553066.8999999762,553085.077,562135.251,1,40,12,
sequence,flow.Sequence,6_11,2023-11-15T21:40:21.031Z,,,,,,,,,,9038.422999999952,completion,,,,,,,low,high,,,,,,true,,,,false,562124.2999999523,562123.5,553050.869,553066.8999999762,553085.077,562135.251,1,40,,
trial,html.Screen,6_12_0,2023-11-15T21:40:28.320Z,,,,1,-0.849847885203758,0.973447384095442,,true,hl,7276.34899996419,response,1.127346631538643,0.9999999999999998,-0.9999999999999998,-0.8080854255453543,0.9999999999999998,-0.9999999999999998,high,low,,ISIC_9612228.JPG,,ISIC_0011045.JPG,24,true,hl,keypress(j),0,false,569412,569411.5999999642,562118.624,562124.5999999642,562135.251,569416.025,1,40,13,
sequence,flow.Sequence,6_12,2023-11-15T21:40:28.320Z,,,,,,,,,,7276.34899996419,completion,,,,,,,high,low,,,,,,true,,,,false,569412.5,569411.5999999642,562118.624,562124.5,562135.251,569416.025,1,40,,
trial,html.Screen,6_13_0,2023-11-15T21:40:34.832Z,,,,1,1.0088376543442317,-0.8023075994977575,,true,lh,6507.374999976135,response,-0.849847885203758,0.9999999999999998,-0.9999999999999998,0.973447384095442,0.9999999999999998,-0.9999999999999998,low,high,,ISIC_7619234.JPG,,ISIC_9612228.JPG,24,true,lh,keypress(e),0,false,575923.6999999881,575923.3999999762,569399.467,569412.6999999881,569416.025,575928.654,1,40,14,
sequence,flow.Sequence,6_13,2023-11-15T21:40:34.832Z,,,,,,,,,,6507.374999976135,completion,,,,,,,low,high,,,,,,true,,,,false,575924.1999999881,575923.3999999762,569399.467,569412.5999999642,569416.025,575928.654,1,40,,
trial,html.Screen,6_14_0,2023-11-15T21:40:41.144Z,,,,1,-0.9013888878932071,0.9328095253308732,,true,hl,6306.84600000002,response,0.9670240379618178,0.9999999999999998,-0.9999999999999998,-1.1806404773220665,0.9999999999999998,-0.9999999999999998,high,low,,ISIC_0068259.JPG,,ISIC_0002288.JPG,24,true,hl,keypress(j),0,false,582235.7999999523,582235.5,575912.141,575924.5,575928.654,582240.896,1,40,15,
sequence,flow.Sequence,6_14,2023-11-15T21:40:41.144Z,,,,,,,,,,6306.84600000002,completion,,,,,,,high,low,,,,,,true,,,,false,582236.2999999523,582235.5,575912.141,575924.3999999762,575928.654,582240.896,1,40,,
trial,html.Screen,6_15_0,2023-11-15T21:40:46.335Z,,,,1,-0.8229443006010407,-1.0222744279054352,,true,hh,5186.403999952367,response,0.8797187572470211,0.9999999999999998,-0.9999999999999998,0.9573640085332544,0.9999999999999998,-0.9999999999999998,high,high,,ISIC_0059257.JPG,,ISIC_0010235.JPG,154,true,hh,keypress(i),0,false,587427.6999999881,587427.2999999523,582224.407,582236.6999999881,582240.896,587434.343,1,40,16,
sequence,flow.Sequence,6_15,2023-11-15T21:40:46.336Z,,,,,,,,,,5186.403999952367,completion,,,,,,,high,high,,,,,,true,,,,false,587428.0999999642,587427.2999999523,582224.407,582236.5999999642,582240.896,587434.343,1,40,,
trial,html.Screen,6_16_0,2023-11-15T21:40:52.760Z,,,,1,-1.00615481805876,0.8428903771195875,,true,hl,6417.256999964244,response,0.8087127179888679,0.9999999999999998,-0.9999999999999998,-0.8480635840272462,0.9999999999999998,-0.9999999999999998,high,low,,ISIC_0069970.JPG,,ISIC_3941147.JPG,24,true,hl,keypress(j),0,false,593852,593851.5999999642,587417.718,587428.3999999762,587434.343,593863.52,1,40,17,
sequence,flow.Sequence,6_16,2023-11-15T21:40:52.760Z,,,,,,,,,,6417.256999964244,completion,,,,,,,high,low,,,,,,true,,,,false,593852.5,593851.5999999642,587417.718,587428.3999999762,587434.343,593863.52,1,40,,
trial,html.Screen,6_17_0,2023-11-15T21:40:59.895Z,,,,1,-0.9857495243999304,-0.8122595198859229,,true,hh,7123.779999952298,response,1.086780249085418,0.9999999999999998,-0.9999999999999998,0.8982771817382743,0.9999999999999998,-0.9999999999999998,high,high,,ISIC_5178031.JPG,,ISIC_0057821.JPG,154,true,hh,keypress(i),0,false,600987.5999999642,600987.2999999523,593846.777,593852.5999999642,593863.52,600994.073,1,40,18,
sequence,flow.Sequence,6_17,2023-11-15T21:40:59.896Z,,,,,,,,,,7123.779999952298,completion,,,,,,,high,high,,,,,,true,,,,false,600988.0999999642,600987.2999999523,593846.777,593852.5999999642,593863.52,600994.073,1,40,,
trial,html.Screen,6_18_0,2023-11-15T21:41:05.088Z,,,,1,0.9850572151440374,1.028720908260899,,true,ll,5185.526999964262,response,-0.9840050049609405,0.9999999999999998,-0.9999999999999998,-1.1927876559115576,0.9999999999999998,-0.9999999999999998,low,low,,ISIC_0068993.JPG,,ISIC_8651053.JPG,111,true,ll,keypress(f),0,false,606179.8999999762,606179.5999999642,600977.575,600988.3999999762,600994.073,606187.499,1,40,19,
sequence,flow.Sequence,6_18,2023-11-15T21:41:05.088Z,,,,,,,,,,5185.526999964262,completion,,,,,,,low,low,,,,,,true,,,,false,606180.3999999762,606179.5999999642,600977.575,600988.2999999523,600994.073,606187.499,1,40,,
trial,html.Screen,6_19_0,2023-11-15T21:41:11.023Z,,,,1,-0.8152354890677903,1.10470584815077,,true,hl,5927.800999952364,response,0.9046170303418553,0.9999999999999998,-0.9999999999999998,-1.0063426986460375,0.9999999999999998,-0.9999999999999998,high,low,,ISIC_0010283.JPG,,ISIC_0055759.JPG,24,true,hl,keypress(j),0,false,612115.5999999642,612115.2999999523,606170.987,606180.7999999523,606187.499,612132.673,1,40,20,
sequence,flow.Sequence,6_19,2023-11-15T21:41:11.024Z,,,,,,,,,,5927.800999952364,completion,,,,,,,high,low,,,,,,true,,,,false,612116.1999999881,612115.2999999523,606170.987,606180.6999999881,606187.499,612132.673,1,40,,
trial,html.Screen,6_20_0,2023-11-15T21:41:17.478Z,,,,1,-1.1235224875125256,0.8641223012137988,,true,hl,6437.726999976207,response,0.9225524349657857,0.9999999999999998,-0.9999999999999998,-0.929746784178986,0.9999999999999998,-0.9999999999999998,high,low,,ISIC_0033901.JPG,,ISIC_0011077.JPG,24,true,hl,keypress(j),0,false,618570.5,618570.3999999762,612115.866,612116.2999999523,612132.673,618578.256,1,40,21,
sequence,flow.Sequence,6_20,2023-11-15T21:41:17.478Z,,,,,,,,,,6437.726999976207,completion,,,,,,,high,low,,,,,,true,,,,false,618570.6999999881,618570.3999999762,612115.866,612116.2999999523,612132.673,618578.256,1,40,,
trial,html.Screen,6_21_0,2023-11-15T21:41:22.359Z,,,,1,1.0700930503975157,-0.923753102263735,,true,lh,4873.143999976106,response,-0.9445114955578736,0.9999999999999998,-0.9999999999999998,1.0054210059625863,0.9999999999999998,-0.9999999999999998,low,high,,ISIC_0000022.JPG,,ISIC_0033807.JPG,24,true,lh,keypress(e),0,false,623451.5999999642,623451.3999999762,618561.587,618570.7999999523,618578.256,623454.505,1,40,22,
sequence,flow.Sequence,6_21,2023-11-15T21:41:22.360Z,,,,,,,,,,4873.143999976106,completion,,,,,,,low,high,,,,,,true,,,,false,623452.1999999881,623451.3999999762,618561.587,618570.7999999523,618578.256,623454.505,1,40,,
trial,html.Screen,6_22_0,2023-11-15T21:41:28.072Z,,,,1,0.8121377641994781,0.9325200951609898,,true,ll,5707.994999999995,response,-0.8682521581029131,0.9999999999999998,-0.9999999999999998,-1.187434999088787,0.9999999999999998,-0.9999999999999998,low,low,,ISIC_9363106.JPG,,ISIC_5772144.JPG,111,true,ll,keypress(f),0,false,629162.5999999642,629162.5,623437.785,623452.3999999762,623454.505,629165.508,1,40,23,
sequence,flow.Sequence,6_22,2023-11-15T21:41:28.072Z,,,,,,,,,,5707.994999999995,completion,,,,,,,low,low,,,,,,true,,,,false,629162.7999999523,629162.5,623437.785,623452.2999999523,623454.505,629165.508,1,40,,
trial,html.Screen,6_23_0,2023-11-15T21:41:34.495Z,,,,1,-0.8070820195894357,0.8958120092147633,,true,hl,6420.291999952286,response,0.8620516892494489,0.9999999999999998,-0.9999999999999998,-1.1108509340502866,0.9999999999999998,-0.9999999999999998,high,low,,ISIC_0060585.JPG,,ISIC_5557806.JPG,24,true,hl,keypress(j),0,false,635585.8999999762,635585.7999999523,629148.782,629162.8999999762,629165.508,635594.77,1,40,24,
sequence,flow.Sequence,6_23,2023-11-15T21:41:34.495Z,,,,,,,,,,6420.291999952286,completion,,,,,,,high,low,,,,,,true,,,,false,635586,635585.7999999523,629148.782,629162.8999999762,629165.508,635594.77,1,40,,
trial,html.Screen,6_24_0,2023-11-15T21:41:39.761Z,,,,1,-0.8856899178393457,-0.8022149865267544,,true,hh,5256.729999999981,response,0.903200901040808,0.9999999999999998,-0.9999999999999998,0.8884252535933715,0.9999999999999998,-0.9999999999999998,high,high,,ISIC_1233104.JPG,,ISIC_0065260.JPG,154,true,hh,keypress(i),0,false,640851.8999999762,640851.5,635578.215,635586,635594.77,640854.971,1,40,25,
sequence,flow.Sequence,6_24,2023-11-15T21:41:39.761Z,,,,,,,,,,5256.729999999981,completion,,,,,,,high,high,,,,,,true,,,,false,640852.5,640851.5,635578.215,635586,635594.77,640854.971,1,40,,
trial,html.Screen,6_25_0,2023-11-15T21:41:44.889Z,,,,1,0.8588347582642082,-0.8899503828496784,,true,lh,5124.328999952297,response,-1.1235224875125256,0.9999999999999998,-0.9999999999999998,0.8641223012137988,0.9999999999999998,-0.9999999999999998,low,high,,ISIC_0174983.JPG,,ISIC_0033901.JPG,24,true,lh,keypress(e),0,false,645979.5999999642,645979.2999999523,640838.275,640852.6999999881,640854.971,645998.704,1,40,26,
sequence,flow.Sequence,6_25,2023-11-15T21:41:44.889Z,,,,,,,,,,5124.328999952297,completion,,,,,,,low,high,,,,,,true,,,,false,645980.1999999881,645979.2999999523,640838.275,640852.5999999642,640854.971,645998.704,1,40,,
trial,html.Screen,6_26_0,2023-11-15T21:41:49.480Z,,,,1,1.1547137855907486,-1.0185275168641534,,true,lh,4572.39599996421,response,-1.1224745971429997,0.9999999999999998,-0.9999999999999998,0.8423270217438888,0.9999999999999998,-0.9999999999999998,low,high,,ISIC_7604870.JPG,,ISIC_0057032.JPG,24,true,lh,keypress(e),0,false,650571.3999999762,650571.0999999642,645964.998,645980.3999999762,645998.704,650573.866,1,40,27,
sequence,flow.Sequence,6_26,2023-11-15T21:41:49.481Z,,,,,,,,,,4572.39599996421,completion,,,,,,,low,high,,,,,,true,,,,false,650571.7999999523,650571.0999999642,645964.998,645980.2999999523,645998.704,650573.866,1,40,,
trial,html.Screen,6_27_0,2023-11-15T21:41:59.145Z,,,,1,0.9448560599810628,-0.9099421612683488,,true,lh,9661.733999964199,response,-0.8923602890201078,0.9999999999999998,-0.9999999999999998,0.8351700666074688,0.9999999999999998,-0.9999999999999998,low,high,,ISIC_9684318.JPG,,ISIC_0033103.JPG,24,true,lh,keypress(e),0,false,660235.8999999762,660235.5999999642,650557.344,650572.0999999642,650573.866,660242.611,1,40,28,
sequence,flow.Sequence,6_27,2023-11-15T21:41:59.145Z,,,,,,,,,,9661.733999964199,completion,,,,,,,low,high,,,,,,true,,,,false,660236.3999999762,660235.5999999642,650557.344,650572,650573.866,660242.611,1,40,,
trial,html.Screen,6_28_0,2023-11-15T21:42:05.282Z,,,,1,0.9212323139676136,-0.9882196642247332,,true,lh,6129.988999964204,response,-1.1501717278509027,0.9999999999999998,-0.9999999999999998,0.8228936373136835,0.9999999999999998,-0.9999999999999998,low,high,,ISIC_0014255.JPG,,ISIC_8398000.JPG,24,true,lh,keypress(e),0,false,666372.7999999523,666372.5999999642,660226.08,660236.6999999881,660242.611,666388.175,1,40,29,
sequence,flow.Sequence,6_28,2023-11-15T21:42:05.282Z,,,,,,,,,,6129.988999964204,completion,,,,,,,low,high,,,,,,true,,,,false,666373,666372.5999999642,660226.08,660236.5999999642,660242.611,666388.175,1,40,,
trial,html.Screen,6_29_0,2023-11-15T21:42:13.767Z,,,,1,-0.9039158082670506,1.0517562064343149,,true,hl,8469.62499995227,response,0.8561946552009824,0.9999999999999998,-0.9999999999999998,-0.9282171889213044,0.9999999999999998,-0.9999999999999998,high,low,,ISIC_0015411.JPG,,ISIC_3065032.JPG,24,true,hl,keypress(j),0,false,674857.8999999762,674857.7999999523,666371.319,666373.0999999642,666388.175,674871.099,1,40,30,
sequence,flow.Sequence,6_29,2023-11-15T21:42:13.767Z,,,,,,,,,,8469.62499995227,completion,,,,,,,high,low,,,,,,true,,,,false,674858.0999999642,674857.7999999523,666371.319,666373.0999999642,666388.175,674871.099,1,40,,
trial,html.Screen,6_30_0,2023-11-15T21:42:19.593Z,,,,1,-1.1727618800748076,-1.0636787813411093,,true,hh,5812.3009999761125,response,0.9210502980092926,0.9999999999999998,-0.9999999999999998,0.9643734217956152,0.9999999999999998,-0.9999999999999998,high,high,,ISIC_9690371.JPG,,ISIC_0033876.JPG,154,true,hh,keypress(i),0,false,680683.6999999881,680683.3999999762,674854.407,674858.0999999642,674871.099,680699.261,1,40,31,
sequence,flow.Sequence,6_30,2023-11-15T21:42:19.593Z,,,,,,,,,,5812.3009999761125,completion,,,,,,,high,high,,,,,,true,,,,false,680684.1999999881,680683.3999999762,674854.407,674858.0999999642,674871.099,680699.261,1,40,,
trial,html.Screen,6_31_0,2023-11-15T21:42:26.562Z,,,,1,-0.8682932893841188,-0.949897846123557,,true,hh,6952.238999999943,response,0.8125930874051923,0.9999999999999998,-0.9999999999999998,0.9001696721297474,0.9999999999999998,-0.9999999999999998,high,high,,ISIC_0033229.JPG,,ISIC_0072748.JPG,154,true,hh,keypress(i),0,false,687651.7999999523,687651.5,680682.557,680684.3999999762,680699.261,687662.692,1,40,32,
sequence,flow.Sequence,6_31,2023-11-15T21:42:26.563Z,,,,,,,,,,6952.238999999943,completion,,,,,,,high,high,,,,,,true,,,,false,687652.2999999523,687651.5,680682.557,680684.3999999762,680699.261,687662.692,1,40,,
trial,html.Screen,6_32_0,2023-11-15T21:42:34.378Z,,,,1,1.0088070132449485,0.9026684221154396,,true,ll,7804.50799998804,response,-1.0064329161780483,0.9999999999999998,-0.9999999999999998,-1.0631481857644678,0.9999999999999998,-0.9999999999999998,low,low,,ISIC_0059314.JPG,,ISIC_0033137.JPG,111,true,ll,keypress(f),0,false,695467.5,695467.1999999881,687646.018,687652.5,687662.692,695477.865,1,40,33,
sequence,flow.Sequence,6_32,2023-11-15T21:42:34.378Z,,,,,,,,,,7804.50799998804,completion,,,,,,,low,low,,,,,,true,,,,false,695468,695467.1999999881,687646.018,687652.5,687662.692,695477.865,1,40,,
trial,html.Screen,6_33_0,2023-11-15T21:42:43.730Z,,,,1,1.1618928077758934,0.9630799724002608,,true,ll,9341.734999964247,response,-1.1653123206802332,0.9999999999999998,-0.9999999999999998,-0.8605012383520609,0.9999999999999998,-0.9999999999999998,low,low,,ISIC_0034076.JPG,,ISIC_0071508.JPG,111,true,ll,keypress(f),0,false,704819.8999999762,704819.5999999642,695461.127,695468.1999999881,695477.865,704829.319,1,40,34,
sequence,flow.Sequence,6_33,2023-11-15T21:42:43.731Z,,,,,,,,,,9341.734999964247,completion,,,,,,,low,low,,,,,,true,,,,false,704820.3999999762,704819.5999999642,695461.127,695468.1999999881,695477.865,704829.319,1,40,,
trial,html.Screen,6_34_0,2023-11-15T21:42:51.674Z,,,,1,-1.1063796153389187,-0.8605921333200546,,true,hh,7933.880999988061,response,0.8471355550006346,0.9999999999999998,-0.9999999999999998,0.9005344308932209,0.9999999999999998,-0.9999999999999998,high,high,,ISIC_0064071.JPG,,ISIC_0025744.JPG,154,true,hh,keypress(i),0,false,712763.5,712763.1999999881,704812.671,704820.5999999642,704829.319,712778.37,1,40,35,
sequence,flow.Sequence,6_34,2023-11-15T21:42:51.674Z,,,,,,,,,,7933.880999988061,completion,,,,,,,high,high,,,,,,true,,,,false,712764,712763.1999999881,704812.671,704820.5999999642,704829.319,712778.37,1,40,,
trial,html.Screen,6_35_0,2023-11-15T21:42:58.281Z,,,,1,-1.0998890116382043,-0.8184581417483975,,true,hh,6592.329999988084,response,0.8826164980777871,0.9999999999999998,-0.9999999999999998,1.1601445610079184,0.9999999999999998,-0.9999999999999998,high,high,,ISIC_0002118.JPG,,ISIC_0055169.JPG,154,true,hh,keypress(i),0,false,719370.7999999523,719370.6999999881,712761.522,712764.2999999523,712778.37,719374.315,1,40,36,
sequence,flow.Sequence,6_35,2023-11-15T21:42:58.281Z,,,,,,,,,,6592.329999988084,completion,,,,,,,high,high,,,,,,true,,,,false,719371,719370.6999999881,712761.522,712764.1999999881,712778.37,719374.315,1,40,,
trial,html.Screen,6_36_0,2023-11-15T21:43:04.697Z,,,,1,1.127346631538643,-0.8080854255453543,,true,lh,6412.484999952372,response,-1.0143509683988825,0.9999999999999998,-0.9999999999999998,1.0281980567462463,0.9999999999999998,-0.9999999999999998,low,high,,ISIC_0011045.JPG,,ISIC_0062031.JPG,24,true,lh,keypress(e),0,false,725787.0999999642,725786.7999999523,719357.787,719371.0999999642,719374.315,725803.668,1,40,37,
sequence,flow.Sequence,6_36,2023-11-15T21:43:04.698Z,,,,,,,,,,6412.484999952372,completion,,,,,,,low,high,,,,,,true,,,,false,725787.5999999642,725786.7999999523,719357.787,719371.0999999642,719374.315,725803.668,1,40,,
trial,html.Screen,6_37_0,2023-11-15T21:43:11.394Z,,,,1,-1.1355178163103097,-0.866806488363904,,true,hh,6679.832000000053,response,0.8984767404401109,0.9999999999999998,-0.9999999999999998,1.0289479104867394,0.9999999999999998,-0.9999999999999998,high,high,,ISIC_3520750.JPG,,ISIC_0011458.JPG,154,true,hh,keypress(i),0,false,732483.7999999523,732483.5,725786.951,725787.7999999523,725803.668,732500.078,1,40,38,
sequence,flow.Sequence,6_37,2023-11-15T21:43:11.395Z,,,,,,,,,,6679.832000000053,completion,,,,,,,high,high,,,,,,true,,,,false,732484.3999999762,732483.5,725786.951,725787.6999999881,725803.668,732500.078,1,40,,
trial,html.Screen,6_38_0,2023-11-15T21:43:18.762Z,,,,1,-0.9013888878932071,0.9328095253308732,,true,hl,7351.1219999881,response,0.9873794329144926,0.9999999999999998,-0.9999999999999998,-0.9500689037516484,0.9999999999999998,-0.9999999999999998,high,low,,ISIC_0068259.JPG,,ISIC_0013498.JPG,24,true,hl,keypress(j),0,false,739851.5,739851.1999999881,732483.303,732484.5999999642,732500.078,739864.148,1,40,39,
sequence,flow.Sequence,6_38,2023-11-15T21:43:18.762Z,,,,,,,,,,7351.1219999881,completion,,,,,,,high,low,,,,,,true,,,,false,739852,739851.1999999881,732483.303,732484.5999999642,732500.078,739864.148,1,40,,
trial,html.Screen,6_39_0,2023-11-15T21:43:26.243Z,,,,1,0.9303292478996148,0.8099604275482958,,true,ll,7467.351999999955,response,-0.8299201784919694,0.9999999999999998,-0.9999999999999998,-0.9555257680008306,0.9999999999999998,-0.9999999999999998,low,low,,ISIC_0068580.JPG,,ISIC_6937199.JPG,111,true,ll,keypress(f),0,false,747331.7999999523,747331.5,739847.538,739852.1999999881,739864.148,747345.438,1,40,40,
sequence,flow.Sequence,6_39,2023-11-15T21:43:26.244Z,,,,,,,,,,7467.351999999955,completion,,,,,,,low,low,,,,,,true,,,,false,747332.2999999523,747331.5,739847.538,739852.0999999642,739864.148,747345.438,1,40,,
practice_loop,flow.Loop,6,2023-11-15T21:43:26.244Z,,,,,,,,,,278795.062,completion,,,,,,,,,,,,,,true,,,,false,747332.6999999881,747331.5,468519.961,468538.5,468536.438,747345.438,1,40,,
stair_instructions,html.Screen,7,2023-11-15T21:43:34.434Z,,,,,,,,,,8176.2619999881135,response,,,,,,,,,,,,,,,continue,click button,,,755522.0999999642,755521.6999999881,747328.797,747332.7999999523,747345.438,755527.926,,,,
trial,html.Screen,8_0_0,2023-11-15T21:43:45.429Z,,,,2,-0.0386453938786174,-0.0465908665241285,,,,11021.699000000022,timeout,-0.8591294258188253,0.9999999999999998,-0.9999999999999998,0.870797302150167,0.9999999999999998,-0.9999999999999998,low,high,,ISIC_1698119.JPG,,ISIC_0055841.JPG,24,false,,,0,true,766517.0999999642,766516.6999999881,755511.38,755522.1999999881,755527.926,766549.625,1,40,1,
sequence,flow.Sequence,8_0,2023-11-15T21:43:45.429Z,,,,,,,,,,10988.773999988101,completion,,,,,,,low,high,,,,,,false,,,,true,766517.6999999881,766516.6999999881,755511.38,755522.1999999881,755527.926,766549.625,1,40,,
trial,html.Screen,8_1_0,2023-11-15T21:43:54.170Z,,,,2,0.0395849059583371,-0.049996355475379,,false,lh,8708.875,response,-0.8479396253253069,0.9999999999999998,-0.9999999999999998,1.011054319516718,0.9999999999999998,-0.9999999999999998,low,high,,ISIC_4042619.JPG,,ISIC_0063521.JPG,24,false,hl,keypress(j),0,true,775258.5999999642,775258.5,766532.916,766517.8999999762,766549.625,775283.028,1,40,2,
sequence,flow.Sequence,8_1,2023-11-15T21:43:54.170Z,,,,,,,,,,8708.875,completion,,,,,,,low,high,,,,,,false,,,,true,775258.6999999881,775258.5,766532.916,766517.7999999523,766549.625,775283.028,1,40,,
trial,html.Screen,8_2_0,2023-11-15T21:43:59.563Z,,,,2,-0.0327772618698018,0.0056908372048728,,true,hh,5368.471999999951,response,0.9900831889164324,0.9999999999999998,-1.0499999999999998,0.9119933515639294,1.0499999999999998,-0.9999999999999998,high,high,,ISIC_7897925.JPG,,ISIC_0058033.JPG,138,false,hh,keypress(i),0,true,780651.7999999523,780651.5,775266.55,775258.7999999523,775283.028,780660.137,1,40,3,
sequence,flow.Sequence,8_2,2023-11-15T21:43:59.564Z,,,,,,,,,,5368.471999999951,completion,,,,,,,high,high,,,,,,false,,,,true,780652.5,780651.5,775266.55,775258.7999999523,775283.028,780660.137,1,40,,
trial,html.Screen,8_3_0,2023-11-15T21:44:03.755Z,,,,2,-0.0029978997915594,0.0736178673732526,,true,ll,4183.26299997617,response,-0.8997449990565672,0.9999999999999998,-1.0499999999999998,-0.9792890899144426,1.0499999999999998,-0.9999999999999998,low,low,,ISIC_9745038.JPG,,ISIC_0469314.JPG,96,false,ll,keypress(f),0,true,784843.6999999881,784843.3999999762,780643.559,780652.6999999881,780660.137,784851.623,1,40,4,
sequence,flow.Sequence,8_3,2023-11-15T21:44:03.756Z,,,,,,,,,,4183.26299997617,completion,,,,,,,low,low,,,,,,false,,,,true,784844.0999999642,784843.3999999762,780643.559,780652.6999999881,780660.137,784851.623,1,40,,
trial,html.Screen,8_4_0,2023-11-15T21:44:10.195Z,,,,2,0.0629926578251803,-0.0626296407938785,,true,ll,6432.076999988058,response,-0.8683575372693808,0.9999999999999998,-1.0499999999999998,-1.1767706219911918,1.0499999999999998,-0.9999999999999998,low,low,,ISIC_0027043.JPG,,ISIC_0006332.JPG,96,false,ll,keypress(f),0,true,791284,791283.6999999881,784835.148,784844.2999999523,784851.623,791297.533,1,40,5,
sequence,flow.Sequence,8_4,2023-11-15T21:44:10.196Z,,,,,,,,,,6432.076999988058,completion,,,,,,,low,low,,,,,,false,,,,true,791284.5,791283.6999999881,784835.148,784844.2999999523,784851.623,791297.533,1,40,,
trial,html.Screen,8_5_0,2023-11-15T21:44:19.049Z,,,,2,0.0362472736315994,0.0492979048777824,,false,lh,8840.166999988025,response,-0.8644465729542988,0.9499999999999997,-0.9780298559528171,0.8679598285079457,0.9999999999999998,-0.9780298559528171,low,high,,ISIC_5312584.JPG,,ISIC_6718969.JPG,25,false,hh,keypress(i),0,true,800137.7999999523,800137.6999999881,791280.978,791284.6999999881,791297.533,800148.042,1,40,6,
sequence,flow.Sequence,8_5,2023-11-15T21:44:19.049Z,,,,,,,,,,8840.166999988025,completion,,,,,,,low,high,,,,,,false,,,,true,800138,800137.6999999881,791280.978,791284.5999999642,791297.533,800148.042,1,40,,
trial,html.Screen,8_6_0,2023-11-15T21:44:28.013Z,,,,2,0.0040788697657958,0.0696367106527537,,false,ll,8951.457999999984,response,-0.8682932893841188,0.9499999999999997,-1.0280298559528172,-0.949897846123557,0.9499999999999997,-0.9780298559528171,low,low,,ISIC_0066882.JPG,,ISIC_0033229.JPG,115,false,lh,keypress(e),0,true,809099.8999999762,809099.5,800131.508,800138,800148.042,809115.513,1,40,7,
sequence,flow.Sequence,8_6,2023-11-15T21:44:28.013Z,,,,,,,,,,8951.457999999984,completion,,,,,,,low,low,,,,,,false,,,,true,809100.2999999523,809099.5,800131.508,800138,800148.042,809115.513,1,40,,
trial,html.Screen,8_7_0,2023-11-15T21:44:34.460Z,,,,2,0.0560021488981517,-0.0058131881595011,,true,hh,6431.786999952281,response,0.781420271893034,0.9499999999999997,-1.0280298559528172,1.0082663551580755,0.9499999999999997,-1.0280298559528172,high,high,,ISIC_0000077.JPG,,ISIC_0066429.JPG,164,false,hh,keypress(i),0,true,815547.5999999642,815547.2999999523,809098.909,809100.5,809115.513,815561.574,1,40,8,
sequence,flow.Sequence,8_7,2023-11-15T21:44:34.461Z,,,,,,,,,,6431.786999952281,completion,,,,,,,high,high,,,,,,false,,,,true,815548,815547.2999999523,809098.909,809100.5,809115.513,815561.574,1,40,,
trial,html.Screen,8_8_0,2023-11-15T21:44:41.676Z,,,,2,-0.0277178575053843,-0.0645068093068572,,true,hl,7201.725999952294,response,0.8407642478899736,0.8448433135255546,-1.0280298559528172,-0.9542322753334054,0.9499999999999997,-1.0280298559528172,high,low,,ISIC_0010807.JPG,,ISIC_9090822.JPG,48,false,hl,keypress(j),0,true,822763.2999999523,822763.2999999523,815544.607,815548.2999999523,815561.574,822775.569,1,40,9,
sequence,flow.Sequence,8_8,2023-11-15T21:44:41.676Z,,,,,,,,,,7201.725999952294,completion,,,,,,,high,low,,,,,,false,,,,true,822763.5,822763.2999999523,815544.607,815548.1999999881,815561.574,822775.569,1,40,,
trial,html.Screen,8_9_0,2023-11-15T21:44:48.355Z,,,,2,-0.0744767864787991,0.0482768027208112,,true,ll,6666.730999952299,response,-0.8683575372693808,0.8448433135255546,-1.0280298559528172,-1.1767706219911918,0.9499999999999997,-1.0280298559528172,low,low,,ISIC_0011482.JPG,,ISIC_0006332.JPG,106,false,ll,keypress(f),0,true,829442.3999999762,829442.2999999523,822758.721,822763.5,822775.569,829455.136,1,40,10,
sequence,flow.Sequence,8_9,2023-11-15T21:44:48.355Z,,,,,,,,,,6666.730999952299,completion,,,,,,,low,low,,,,,,false,,,,true,829442.6999999881,829442.2999999523,822758.721,822763.5,822775.569,829455.136,1,40,,
trial,html.Screen,8_10_0,2023-11-15T21:44:55.797Z,,,,2,0.0658785165472318,0.0638000940494709,,true,ll,7428.46399996418,response,-1.0730492496332733,0.8448433135255546,-1.0155014486622986,-1.0252626598876022,0.9499999999999997,-1.0155014486622986,low,low,,ISIC_0626501.JPG,,ISIC_0007029.JPG,110,false,ll,keypress(f),0,true,836883.8999999762,836883.5999999642,829438.533,829442.7999999523,829455.136,836903.472,1,40,11,
sequence,flow.Sequence,8_10,2023-11-15T21:44:55.797Z,,,,,,,,,,7428.46399996418,completion,,,,,,,low,low,,,,,,false,,,,true,836884.5,836883.5999999642,829438.533,829442.6999999881,829455.136,836903.472,1,40,,
trial,html.Screen,8_11_0,2023-11-15T21:45:03.932Z,,,,2,0.0040788697657958,0.0696367106527537,,false,hl,8115.9279999762075,response,0.8015753713975186,0.8448433135255546,-1.0155014486622986,-1.0067065355978264,0.9499999999999997,-1.0155014486622986,high,low,,ISIC_0066882.JPG,,ISIC_0002119.JPG,49,false,ll,keypress(f),0,true,845019.5999999642,845019.3999999762,836869.668,836884.6999999881,836903.472,845035.55,1,40,12,
sequence,flow.Sequence,8_11,2023-11-15T21:45:03.933Z,,,,,,,,,,8115.9279999762075,completion,,,,,,,high,low,,,,,,false,,,,true,845020.1999999881,845019.3999999762,836869.668,836884.5999999642,836903.472,845035.55,1,40,,
trial,html.Screen,8_12_0,2023-11-15T21:45:10.756Z,,,,2,-0.0063515208248796,-0.0194177605767913,,true,hh,6807.949999999953,response,0.8125930874051923,0.8948433135255547,-1.0155014486622986,0.9001696721297474,0.9499999999999997,-0.9659845977427144,high,high,,ISIC_5281908.JPG,,ISIC_0072748.JPG,184,false,hh,keypress(i),0,true,851843.6999999881,851843.5,845018.818,845020.3999999762,845035.55,851848.576,1,40,13,
sequence,flow.Sequence,8_12,2023-11-15T21:45:10.757Z,,,,,,,,,,6807.949999999953,completion,,,,,,,high,high,,,,,,false,,,,true,851844.1999999881,851843.5,845018.818,845020.2999999523,845035.55,851848.576,1,40,,
trial,html.Screen,8_13_0,2023-11-15T21:45:16.892Z,,,,2,0.0060918352854008,-0.029032683404407,,true,hh,6130.423999999999,response,0.8489974003990046,0.8948433135255547,-1.0155014486622986,0.7487841537780126,0.8063813797674698,-0.9659845977427144,high,high,,ISIC_8436194.JPG,,ISIC_0032624.JPG,221,false,hh,keypress(i),0,true,857979.2999999523,857979,851832.024,851844.5999999642,851848.576,857994.069,1,40,14,
sequence,flow.Sequence,8_13,2023-11-15T21:45:16.893Z,,,,,,,,,,6130.423999999999,completion,,,,,,,high,high,,,,,,false,,,,true,857979.7999999523,857979,851832.024,851844.3999999762,851848.576,857994.069,1,40,,
trial,html.Screen,8_14_0,2023-11-15T21:45:23.061Z,,,,2,-0.0683185670328473,-0.0092332028949561,,true,lh,6153.430999999982,response,-1.1890109863264902,0.7488907770885085,-1.0155014486622986,0.8867825318561365,0.8063813797674698,-0.9659845977427144,low,high,,ISIC_3652847.JPG,,ISIC_0072576.JPG,45,false,lh,keypress(e),0,true,864147.7999999523,864147.5,857977.206,857980,857994.069,864155.885,1,40,15,
sequence,flow.Sequence,8_14,2023-11-15T21:45:23.061Z,,,,,,,,,,6153.430999999982,completion,,,,,,,low,high,,,,,,false,,,,true,864148.2999999523,864147.5,857977.206,857980,857994.069,864155.885,1,40,,
trial,html.Screen,8_15_0,2023-11-15T21:45:31.797Z,,,,2,0.0480684603309257,-0.0620119776873313,,false,hl,8727.414999952307,response,0.8181754542205604,0.7488907770885085,-0.9655014486622986,-0.8285141543298179,0.7677833428170745,-0.9659845977427144,high,low,,ISIC_0645834.JPG,,ISIC_3812485.JPG,77,false,ll,keypress(f),0,true,872883.5,872883.2999999523,864139.397,864148.5999999642,864155.885,872889.508,1,40,16,
sequence,flow.Sequence,8_15,2023-11-15T21:45:31.798Z,,,,,,,,,,8727.414999952307,completion,,,,,,,high,low,,,,,,false,,,,true,872884,872883.2999999523,864139.397,864148.5,864155.885,872889.508,1,40,,
trial,html.Screen,8_16_0,2023-11-15T21:45:41.836Z,,,,2,0.012810673904807,-0.00400964452501,,false,lh,10032.691999988048,response,-0.8150886811691144,0.7988907770885085,-0.9655014486622986,0.862416038462147,0.7677833428170745,-0.9659845977427144,low,high,,ISIC_0064656.JPG,,ISIC_0058079.JPG,53,false,hh,keypress(i),0,true,882922.3999999762,882922.1999999881,872872.983,872884.2999999523,872889.508,882925.703,1,40,17,
sequence,flow.Sequence,8_16,2023-11-15T21:45:41.836Z,,,,,,,,,,10032.691999988048,completion,,,,,,,low,high,,,,,,false,,,,true,882922.5,882922.1999999881,872872.983,872884.1999999881,872889.508,882925.703,1,40,,
trial,html.Screen,8_17_0,2023-11-15T21:45:49.221Z,,,,2,-0.0365981355399771,-0.0162670920008846,,true,hh,7381.096999952337,response,0.9937263454339066,0.7988907770885085,-1.0155014486622986,0.7696109085687102,0.7677833428170745,-0.9659845977427144,high,high,,ISIC_0982855.JPG,,ISIC_1693572.JPG,232,false,hh,keypress(i),0,true,890307.0999999642,890306.7999999523,882909.082,882922.5999999642,882925.703,890323.469,1,40,18,
sequence,flow.Sequence,8_17,2023-11-15T21:45:49.221Z,,,,,,,,,,7381.096999952337,completion,,,,,,,high,high,,,,,,false,,,,true,890307.5999999642,890306.7999999523,882909.082,882922.5,882925.703,890323.469,1,40,,
trial,html.Screen,8_18_0,2023-11-15T21:45:59.172Z,,,,2,-0.0127320821962457,0.0315308940184827,,false,hl,9934.230999988038,response,0.8561946552009824,0.7988907770885085,-1.0155014486622986,-0.9282171889213044,0.8316686270013083,-0.9659845977427144,high,low,,ISIC_8156101.JPG,,ISIC_3065032.JPG,66,false,hh,keypress(i),0,true,900257.7999999523,900257.6999999881,890306.8,890307.6999999881,890323.469,900259.409,1,40,19,
sequence,flow.Sequence,8_18,2023-11-15T21:45:59.172Z,,,,,,,,,,9934.230999988038,completion,,,,,,,high,low,,,,,,false,,,,true,900257.8999999762,900257.6999999881,890306.8,890307.6999999881,890323.469,900259.409,1,40,,
trial,html.Screen,8_19_0,2023-11-15T21:46:07.829Z,,,,2,0.040352316356354,0.0039626669358928,,false,ll,8655.790999988094,response,-0.8229443006010407,0.8749605003174444,-1.0155014486622986,-1.0222744279054352,0.8316686270013083,-1.0159845977427144,low,low,,ISIC_3018550.JPG,,ISIC_0059257.JPG,111,false,lh,keypress(e),0,true,908915.3999999762,908915.1999999881,900242.86,900257.8999999762,900259.409,908926.265,1,40,20,
sequence,flow.Sequence,8_19,2023-11-15T21:46:07.830Z,,,,,,,,,,8655.790999988094,completion,,,,,,,low,low,,,,,,false,,,,true,908915.8999999762,908915.1999999881,900242.86,900257.8999999762,900259.409,908926.265,1,40,,
trial,html.Screen,8_20_0,2023-11-15T21:46:11.158Z,,,,2,-0.0207120852539861,-0.0589023744433183,,false,ll,3317.5349999523023,response,-1.0581281450494728,0.8749605003174444,-1.0155014486622986,-1.133169116569424,0.8316686270013083,-1.0659845977427145,low,low,,ISIC_7973601.JPG,,ISIC_5490352.JPG,95,false,lh,keypress(e),0,true,912244.0999999642,912243.7999999523,908909.775,908916.1999999881,908926.265,912249.384,1,40,21,
sequence,flow.Sequence,8_20,2023-11-15T21:46:11.158Z,,,,,,,,,,3317.5349999523023,completion,,,,,,,low,low,,,,,,false,,,,true,912244.5999999642,912243.7999999523,908909.775,908916.0999999642,908926.265,912249.384,1,40,,
trial,html.Screen,8_21_0,2023-11-15T21:46:19.885Z,,,,2,0.0742149355137113,0.0423516069066019,,false,hh,8721.815999988117,response,0.8627799752848101,0.8749605003174444,-0.8905362228252567,0.9479141048747124,0.8316686270013083,-1.1159845977427145,high,high,,ISIC_0011483.JPG,,ISIC_9615486.JPG,222,false,hl,keypress(j),0,true,920971.5,920971.1999999881,912232.934,912244.7999999523,912249.384,920983.132,1,40,22,
sequence,flow.Sequence,8_21,2023-11-15T21:46:19.886Z,,,,,,,,,,8721.815999988117,completion,,,,,,,high,high,,,,,,false,,,,true,920972,920971.1999999881,912232.934,912244.6999999881,912249.384,920983.132,1,40,,
trial,html.Screen,8_22_0,2023-11-15T21:46:27.943Z,,,,2,0.0362472736315994,0.0492979048777824,,true,lh,8044.567999988096,response,-0.8150886811691144,0.8749605003174444,-0.8905362228252567,0.862416038462147,0.8816686270013083,-1.1159845977427145,low,high,,ISIC_5312584.JPG,,ISIC_0058079.JPG,47,false,lh,keypress(e),0,true,929027.8999999762,929027.6999999881,920966.533,920972.2999999523,920983.132,929032.052,1,40,23,
sequence,flow.Sequence,8_22,2023-11-15T21:46:27.943Z,,,,,,,,,,8044.567999988096,completion,,,,,,,low,high,,,,,,false,,,,true,929028.3999999762,929027.6999999881,920966.533,920972.1999999881,920983.132,929032.052,1,40,,
trial,html.Screen,8_23_0,2023-11-15T21:46:35.390Z,,,,2,0.0560021488981517,-0.0058131881595011,,false,hl,7443.047999964212,response,0.7753299102004093,0.8749605003174444,-0.8905362228252567,-1.053851019509641,0.8816686270013083,-1.1159845977427145,high,low,,ISIC_0000077.JPG,,ISIC_9511832.JPG,32,false,ll,keypress(f),0,true,936475.3999999762,936475.0999999642,929015.445,929028.6999999881,929032.052,936479.864,1,40,24,
sequence,flow.Sequence,8_23,2023-11-15T21:46:35.391Z,,,,,,,,,,7443.047999964212,completion,,,,,,,high,low,,,,,,false,,,,true,936475.8999999762,936475.0999999642,929015.445,929028.5999999642,929032.052,936479.864,1,40,,
trial,html.Screen,8_24_0,2023-11-15T21:46:44.903Z,,,,2,-0.0245246789155119,0.0615355901813596,,false,lh,9507.735999964294,response,-1.0143509683988825,0.9249605003174445,-0.8905362228252567,1.0281980567462463,0.8816686270013083,-1.1159845977427145,low,high,,ISIC_0034144.JPG,,ISIC_0062031.JPG,47,false,hh,keypress(i),0,true,945987.8999999762,945987.5999999642,936463.255,936476.0999999642,936479.864,945998.449,1,40,25,
sequence,flow.Sequence,8_24,2023-11-15T21:46:44.903Z,,,,,,,,,,9507.735999964294,completion,,,,,,,low,high,,,,,,false,,,,true,945988.3999999762,945987.5999999642,936463.255,936476,936479.864,945998.449,1,40,,
trial,html.Screen,8_25_0,2023-11-15T21:46:51.166Z,,,,2,0.0560021488981517,-0.0058131881595011,,false,hl,6252.650999964215,response,0.8015753713975186,0.9249605003174445,-0.9405362228252567,-1.0067065355978264,0.8316686270013083,-1.1159845977427145,high,low,,ISIC_0000077.JPG,,ISIC_0002119.JPG,29,false,ll,keypress(f),0,true,952251.3999999762,952251.0999999642,945981.783,945988.5999999642,945998.449,952260.537,1,40,26,
sequence,flow.Sequence,8_25,2023-11-15T21:46:51.167Z,,,,,,,,,,6252.650999964215,completion,,,,,,,high,low,,,,,,false,,,,true,952251.8999999762,952251.0999999642,945981.783,945988.5,945998.449,952260.537,1,40,,
trial,html.Screen,8_26_0,2023-11-15T21:46:58.879Z,,,,2,-0.0029978997915594,0.0736178673732526,,true,hh,7702.962999999989,response,1.064818044116379,0.9749605003174445,-0.9405362228252567,0.6815847647840113,0.8316686270013083,-0.9802787775537338,high,high,,ISIC_9745038.JPG,,ISIC_0032504.JPG,191,false,hh,keypress(i),0,true,959963.7999999523,959963.5,952243.87,952252.0999999642,952260.537,959975.627,1,40,27,
sequence,flow.Sequence,8_26,2023-11-15T21:46:58.879Z,,,,,,,,,,7702.962999999989,completion,,,,,,,high,high,,,,,,false,,,,true,959964.2999999523,959963.5,952243.87,952252.0999999642,952260.537,959975.627,1,40,,
trial,html.Screen,8_27_0,2023-11-15T21:47:05.982Z,,,,2,0.0668201703083464,-0.0222223530621927,,false,hl,7091.373000000021,response,0.9225524349657857,0.9749605003174445,-0.9405362228252567,-0.929746784178986,0.8316686270013083,-0.9802787775537338,high,low,,ISIC_8321148.JPG,,ISIC_0011077.JPG,31,false,hh,keypress(i),0,true,967067.3999999762,967067,959959.026,959964.5,959975.627,967072.675,1,40,28,
sequence,flow.Sequence,8_27,2023-11-15T21:47:05.983Z,,,,,,,,,,7091.373000000021,completion,,,,,,,high,low,,,,,,false,,,,true,967067.8999999762,967067,959959.026,959964.3999999762,959975.627,967072.675,1,40,,
trial,html.Screen,8_28_0,2023-11-15T21:47:12.455Z,,,,2,0.012020985739544,-0.0126097407389903,,true,ll,6466.824999999953,response,-0.828718986734101,0.7520685998748984,-0.9405362228252567,-1.0632477436092242,0.8316686270013083,-1.0302787775537339,low,low,,ISIC_0069379.JPG,,ISIC_0005028.JPG,112,false,ll,keypress(f),0,true,973539.8999999762,973539.5,967056.083,967068.0999999642,967072.675,973552.035,1,40,29,
sequence,flow.Sequence,8_28,2023-11-15T21:47:12.455Z,,,,,,,,,,6466.824999999953,completion,,,,,,,low,low,,,,,,false,,,,true,973540.3999999762,973539.5,967056.083,967068.0999999642,967072.675,973552.035,1,40,,
trial,html.Screen,8_29_0,2023-11-15T21:47:19.773Z,,,,2,-0.0380440426394326,-0.0685633753763444,,false,lh,7305.564999964205,response,-1.1224745971429997,0.7520685998748984,-0.9405362228252567,0.8423270217438888,0.8316686270013083,-1.0302787775537339,low,high,,ISIC_0032680.JPG,,ISIC_0057032.JPG,47,false,hh,keypress(i),0,true,980857.5999999642,980857.5999999642,973535.394,973540.5999999642,973552.035,980866.191,1,40,30,
sequence,flow.Sequence,8_29,2023-11-15T21:47:19.773Z,,,,,,,,,,7305.564999964205,completion,,,,,,,low,high,,,,,,false,,,,true,980857.6999999881,980857.5999999642,973535.394,973540.5,973552.035,980866.191,1,40,,
trial,html.Screen,8_30_0,2023-11-15T21:47:30.771Z,,,,2,0.0450282431170921,0.0102871556606504,,,,11021.687999999966,timeout,0.6714344890480403,0.7520685998748984,-0.9905362228252568,-1.1317411618506656,0.7816686270013082,-1.0302787775537339,high,low,,ISIC_1805163.JPG,,ISIC_3691320.JPG,57,false,,,0,true,991855.2999999523,991854.8999999762,980849.476,980857.7999999523,980866.191,991887.879,1,40,31,
sequence,flow.Sequence,8_30,2023-11-15T21:47:30.772Z,,,,,,,,,,10988.708999976167,completion,,,,,,,high,low,,,,,,false,,,,true,991855.7999999523,991854.8999999762,980849.476,980857.6999999881,980866.191,991887.879,1,40,,
trial,html.Screen,8_31_0,2023-11-15T21:47:36.768Z,,,,2,-0.0683185670328473,-0.0092332028949561,,false,hl,5963.621000000043,response,0.6613851830392706,0.7520685998748984,-0.9905362228252568,-0.9184534914196774,0.7816686270013082,-1.0302787775537339,high,low,,ISIC_3652847.JPG,,ISIC_0030829.JPG,57,false,hh,keypress(i),0,true,997851.7999999523,997851.5,991871.188,991856.0999999642,991887.879,997865.923,1,40,32,
sequence,flow.Sequence,8_31,2023-11-15T21:47:36.768Z,,,,,,,,,,5963.621000000043,completion,,,,,,,high,low,,,,,,false,,,,true,997852.2999999523,997851.5,991871.188,991855.8999999762,991887.879,997865.923,1,40,,
trial,html.Screen,8_32_0,2023-11-15T21:47:42.343Z,,,,2,0.0071892445601978,-0.0246015408628738,,true,ll,5561.077000000048,response,-0.8997449990565672,0.7520685998748984,-0.9905362228252568,-0.9792890899144426,0.7816686270013082,-1.080278777553734,low,low,,ISIC_0014133.JPG,,ISIC_0469314.JPG,97,false,ll,keypress(f),0,true,1003427.1999999881,1003427,997849.328,997852.5,997865.923,1003443.473,1,40,33,
sequence,flow.Sequence,8_32,2023-11-15T21:47:42.344Z,,,,,,,,,,5561.077000000048,completion,,,,,,,low,low,,,,,,false,,,,true,1003427.7999999523,1003427,997849.328,997852.3999999762,997865.923,1003443.473,1,40,,
trial,html.Screen,8_33_0,2023-11-15T21:47:49.752Z,,,,2,-0.0365381185115645,0.0498888424276865,,false,lh,7391.92699997616,response,-1.0481746483551846,0.7520685998748984,-0.9905362228252568,0.7465283499508132,0.7816686270013082,-1.080278777553734,low,high,,ISIC_0682543.JPG,,ISIC_0031248.JPG,51,false,hh,keypress(i),0,true,1010835.7999999523,1010835.3999999762,1003426.875,1003428.0999999642,1003443.473,1010841.151,1,40,34,
sequence,flow.Sequence,8_33,2023-11-15T21:47:49.752Z,,,,,,,,,,7391.92699997616,completion,,,,,,,low,high,,,,,,false,,,,true,1010836.1999999881,1010835.3999999762,1003426.875,1003427.8999999762,1003443.473,1010841.151,1,40,,
trial,html.Screen,8_34_0,2023-11-15T21:47:58.366Z,,,,2,0.0629926578251803,-0.0626296407938785,,false,hh,8608.849000000046,response,0.6553170140786491,0.7520685998748984,-1.0405362228252568,0.8522701912038441,0.7816686270013082,-1.080278777553734,high,high,,ISIC_0027043.JPG,,ISIC_0012904.JPG,241,false,lh,keypress(e),0,true,1019450.0999999642,1019450,1010824.488,1010836.5,1010841.151,1019457.916,1,40,35,
sequence,flow.Sequence,8_34,2023-11-15T21:47:58.366Z,,,,,,,,,,8608.849000000046,completion,,,,,,,high,high,,,,,,false,,,,true,1019450.2999999523,1019450,1010824.488,1010836.3999999762,1010841.151,1019457.916,1,40,,
trial,html.Screen,8_35_0,2023-11-15T21:48:09.363Z,,,,2,0.0534676262527691,0.0384996820289673,,,,11021.488000000012,timeout,0.6649417435685672,0.8020685998748984,-1.0405362228252568,0.7189109377479131,0.7493992705773286,-1.080278777553734,high,high,,ISIC_0030484.JPG,,ISIC_0031310.JPG,245,false,,,0,true,1030446.5999999642,1030446.2999999523,1019441.319,1019450.3999999762,1019457.916,1030479.404,1,40,36,
sequence,flow.Sequence,8_35,2023-11-15T21:48:09.363Z,,,,,,,,,,10988.383999952348,completion,,,,,,,high,high,,,,,,false,,,,true,1030446.7999999523,1030446.2999999523,1019441.319,1019450.3999999762,1019457.916,1030479.404,1,40,,
trial,html.Screen,8_36_0,2023-11-15T21:48:17.992Z,,,,2,0.0118555311043871,0.0087774532070196,,false,ll,8595.895999952336,response,-1.2029833962266836,0.8020685998748984,-1.0405362228252568,-0.9698119319380986,0.7493992705773286,-1.080278777553734,low,low,,ISIC_6488658.JPG,,ISIC_6208107.JPG,85,false,lh,keypress(e),0,true,1039075.6999999881,1039075.2999999523,1030462.903,1030446.7999999523,1030479.404,1039079.473,1,40,37,
sequence,flow.Sequence,8_36,2023-11-15T21:48:17.992Z,,,,,,,,,,8595.895999952336,completion,,,,,,,low,low,,,,,,false,,,,true,1039076.1999999881,1039075.2999999523,1030462.903,1030446.7999999523,1030479.404,1039079.473,1,40,,
trial,html.Screen,8_37_0,2023-11-15T21:48:24.287Z,,,,2,0.0399381815506136,0.0177751789152893,,false,lh,6289.92699997616,response,-1.1501717278509027,0.8020685998748984,-1.0405362228252568,0.8228936373136835,0.7493992705773286,-1.130278777553734,low,high,,ISIC_3981425.JPG,,ISIC_8398000.JPG,46,false,hh,keypress(i),0,true,1045369.3999999762,1045369.3999999762,1039062.865,1039076.3999999762,1039079.473,1045374.968,1,40,38,
sequence,flow.Sequence,8_37,2023-11-15T21:48:24.287Z,,,,,,,,,,6289.92699997616,completion,,,,,,,low,high,,,,,,false,,,,true,1045369.5999999642,1045369.3999999762,1039062.865,1039076.3999999762,1039079.473,1045374.968,1,40,,
trial,html.Screen,8_38_0,2023-11-15T21:48:30.473Z,,,,2,0.0629926578251803,-0.0626296407938785,,true,hh,6180.231999988086,response,0.6479152933277884,0.8020685998748984,-1.0905362228252569,0.6239635656908616,0.7493992705773286,-1.130278777553734,high,high,,ISIC_0027043.JPG,,ISIC_0030119.JPG,245,false,hh,keypress(i),0,true,1051555.5,1051555.199999988,1045358.472,1045369.6999999881,1045374.968,1051570.618,1,40,39,
sequence,flow.Sequence,8_38,2023-11-15T21:48:30.473Z,,,,,,,,,,6180.231999988086,completion,,,,,,,high,high,,,,,,false,,,,true,1051556,1051555.199999988,1045358.472,1045369.5999999642,1045374.968,1051570.618,1,40,,
trial,html.Screen,8_39_0,2023-11-15T21:48:40.297Z,,,,2,-0.0245246789155119,0.0615355901813596,,true,hl,9808.381999999983,response,0.6126010795409068,0.8020685998748984,-1.0905362228252569,-0.9438199736485204,0.585939429509325,-1.130278777553734,high,low,,ISIC_0034144.JPG,,ISIC_0062576.JPG,39,false,hl,keypress(j),0,true,1061379.3999999762,1061379,1051553.891,1051556.199999988,1051570.618,1061389.546,1,40,40,
sequence,flow.Sequence,8_39,2023-11-15T21:48:40.297Z,,,,,,,,,,9808.381999999983,completion,,,,,,,high,low,,,,,,false,,,,true,1061380.0999999642,1061379,1051553.891,1051556.199999988,1051570.618,1061389.546,1,40,,
stair_loop,flow.Loop,8,2023-11-15T21:48:40.298Z,,,,,,,,,,305851.074,completion,,,,,,,,,,,,,,false,,,,true,1061380.3999999762,1061379,755511.38,755522.1999999881,755527.926,1061389.546,1,40,,
exp_instructions,html.Screen,9,2023-11-15T21:49:04.472Z,,,,,,,,,,24164.253999952227,response,,,,,,,,,,,,,,,continue,keypress(Space),,,1085554.3999999762,1085553.7999999523,1061372.899,1061380.5,1061389.546,1085569.933,,,,
trial,html.Screen,10_0_0,2023-11-15T21:49:15.476Z,,,,1,0.0166849894750452,-0.0371614812368835,,,,11021.290999999968,timeout,0.7761446033371556,0.8287253600519167,-0.9792844841171091,0.6792492057363021,0.7979282958419128,-1.0759905236104281,high,high,,ISIC_6231450.JPG,9,ISIC_0068897.JPG,240,false,,,0,false,1096559,1096558.5999999642,1085553.395,1085554.699999988,1085569.933,1096591.224,4,500,1,
break,html.Screen,10_0_1,2023-11-15T21:49:15.478Z,,,,,,,,,,NaN,,,,,,,,high,high,,,,,,false,,,,false,1096560.3999999762,1096559.8999999762,,1096559.5,,1096591.224,4,500,,
break_continue,html.Screen,10_0_2,2023-11-15T21:49:15.479Z,,,,,,,,,,NaN,,,,,,,,high,high,,,,,,false,,,,false,1096561.3999999762,1096560.8999999762,,1096560.699999988,,1096591.224,4,500,,
sequence,flow.Sequence,10_0,2023-11-15T21:49:15.479Z,,,,,,,,,,10990.966999976197,completion,,,,,,,high,high,,,,,,false,,,,false,1096561.699999988,1096560.8999999762,1085553.395,1085554.699999988,1085569.933,1096591.224,4,500,,
trial,html.Screen,10_1_0,2023-11-15T21:49:22.665Z,,,,1,0.0203374006918297,-0.0594475300019112,,true,hh,7155.97599998815,response,0.8052466281778704,0.8287253600519167,-0.9792844841171091,0.8895194627589205,0.7979282958419128,-1.0759905236104281,high,high,,ISIC_0028579.JPG,9,ISIC_0025814.JPG,240,false,hh,keypress(i),0,false,1103747.5,1103747.199999988,1096574.776,1096561.8999999762,1096591.224,1103755.173,4,500,2,
break,html.Screen,10_1_1,2023-11-15T21:49:22.666Z,,,,,,,,,,NaN,,,,,,,,high,high,,,,,,false,,,,false,1103748.699999988,1103748.3999999762,,1103747.8999999762,,1103755.173,4,500,,
break_continue,html.Screen,10_1_2,2023-11-15T21:49:22.667Z,,,,,,,,,,NaN,,,,,,,,high,high,,,,,,false,,,,false,1103749.3999999762,1103749.0999999642,,1103748.8999999762,,1103755.173,4,500,,
sequence,flow.Sequence,10_1,2023-11-15T21:49:22.667Z,,,,,,,,,,7157.875999964308,completion,,,,,,,high,high,,,,,,false,,,,false,1103749.699999988,1103749.0999999642,1096574.776,1096561.8999999762,1096591.224,1103755.173,4,500,,
trial,html.Screen,10_2_0,2023-11-15T21:49:26.714Z,,,,1,0.0555511886677117,0.0134118039833958,,true,hh,4039.7269999762066,response,0.8588110989287362,0.8287253600519167,-0.9792844841171091,0.8116693976180469,0.7979282958419128,-1.0759905236104281,high,high,,ISIC_2228511.JPG,11,ISIC_0066878.JPG,240,false,hh,keypress(i),0,false,1107795.199999988,1107794.8999999762,1103738.665,1103749.8999999762,1103755.173,1107813.306,4,500,3,
break,html.Screen,10_2_1,2023-11-15T21:49:26.715Z,,,,,,,,,,NaN,,,,,,,,high,high,,,,,,false,,,,false,1107796.5,1107796.199999988,,1107795.699999988,,1107813.306,4,500,,
break_continue,html.Screen,10_2_2,2023-11-15T21:49:26.715Z,,,,,,,,,,NaN,,,,,,,,high,high,,,,,,false,,,,false,1107797.0999999642,1107796.8999999762,,1107796.5999999642,,1107813.306,4,500,,
sequence,flow.Sequence,10_2,2023-11-15T21:49:26.716Z,,,,,,,,,,4041.7269999762066,completion,,,,,,,high,high,,,,,,false,,,,false,1107797.5,1107796.8999999762,1103738.665,1103749.7999999523,1103755.173,1107813.306,4,500,,
trial,html.Screen,10_3_0,2023-11-15T21:49:31.504Z,,,,1,-0.0245246789155119,0.0615355901813596,,false,hh,4772.093999976059,response,0.6522963167509304,0.8287253600519167,-0.9792844841171091,0.6897816265213811,0.7979282958419128,-1.0759905236104281,high,high,,ISIC_0034144.JPG,8,ISIC_0070422.JPG,240,false,hl,keypress(j),0,false,1112585.3999999762,1112585.3999999762,1107779.925,1107797.699999988,1107813.306,1112589.001,4,500,4,
break,html.Screen,10_3_1,2023-11-15T21:49:31.504Z,,,,,,,,,,NaN,,,,,,,,high,high,,,,,,false,,,,false,1112585.8999999762,1112585.8999999762,,1112585.5999999642,,1112589.001,4,500,,
break_continue,html.Screen,10_3_2,2023-11-15T21:49:31.504Z,,,,,,,,,,NaN,,,,,,,,high,high,,,,,,false,,,,false,1112586.0999999642,1112586,,1112585.8999999762,,1112589.001,4,500,,
sequence,flow.Sequence,10_3,2023-11-15T21:49:31.504Z,,,,,,,,,,4772.693999999901,completion,,,,,,,high,high,,,,,,false,,,,false,1112586.199999988,1112586,1107779.925,1107797.5999999642,1107813.306,1112589.001,4,500,,
trial,html.Screen,10_4_0,2023-11-15T21:49:40.754Z,,,,1,0.0658785165472318,0.0638000940494709,,true,lh,9246.499000000069,response,-1.1235224875125256,0.8287253600519167,-0.9792844841171091,0.8641223012137988,0.7979282958419128,-1.0759905236104281,low,high,,ISIC_0626501.JPG,9,ISIC_0033901.JPG,47,false,lh,keypress(e),0,false,1121835.7999999523,1121835.5,1112572.533,1112586.199999988,1112589.001,1121840.342,4,500,5,
break,html.Screen,10_4_1,2023-11-15T21:49:40.755Z,,,,,,,,,,NaN,,,,,,,,low,high,,,,,,false,,,,false,1121837,1121836.699999988,,1121836.199999988,,1121840.342,4,500,,
break_continue,html.Screen,10_4_2,2023-11-15T21:49:40.756Z,,,,,,,,,,NaN,,,,,,,,low,high,,,,,,false,,,,false,1121837.699999988,1121837.5,,1121837.199999988,,1121840.342,4,500,,
sequence,flow.Sequence,10_4,2023-11-15T21:49:40.756Z,,,,,,,,,,9248.499000000069,completion,,,,,,,low,high,,,,,,false,,,,false,1121838,1121837.5,1112572.533,1112586.199999988,1112589.001,1121840.342,4,500,,
trial,html.Screen,10_5_0,2023-11-15T21:49:46.498Z,,,,1,0.0166849894750452,-0.0371614812368835,,false,hl,5738.658000000054,response,0.6707413499192771,0.8287253600519167,-0.9792844841171091,-1.176352590105879,0.7979282958419128,-1.0759905236104281,high,low,,ISIC_6231450.JPG,8,ISIC_0567814.JPG,45,false,hh,keypress(i),0,false,1127579.2999999523,1127579,1121823.868,1121838.2999999523,1121840.342,1127584.872,4,500,6,
break,html.Screen,10_5_1,2023-11-15T21:49:46.499Z,,,,,,,,,,NaN,,,,,,,,high,low,,,,,,false,,,,false,1127580.5,1127580.199999988,,1127579.699999988,,1127584.872,4,500,,
break_continue,html.Screen,10_5_2,2023-11-15T21:49:46.499Z,,,,,,,,,,NaN,,,,,,,,high,low,,,,,,false,,,,false,1127581.199999988,1127580.8999999762,,1127580.699999988,,1127584.872,4,500,,
sequence,flow.Sequence,10_5,2023-11-15T21:49:46.500Z,,,,,,,,,,5740.557999976212,completion,,,,,,,high,low,,,,,,false,,,,false,1127581.3999999762,1127580.8999999762,1121823.868,1121838.199999988,1121840.342,1127584.872,4,500,,
trial,html.Screen,10_6_0,2023-11-15T21:49:52.528Z,,,,1,0.0534676262527691,0.0384996820289673,,false,lh,6024.628000000026,response,-0.9013888878932071,0.8287253600519167,-0.9792844841171091,0.9328095253308732,0.7979282958419128,-1.0759905236104281,low,high,,ISIC_0030484.JPG,10,ISIC_0068259.JPG,47,false,ll,keypress(f),0,false,1133609.5,1133609.5,1127568.374,1127581.699999988,1127584.872,1133613.253,4,500,7,
break,html.Screen,10_6_1,2023-11-15T21:49:52.528Z,,,,,,,,,,NaN,,,,,,,,low,high,,,,,,false,,,,false,1133609.699999988,1133609.699999988,,1133609.5999999642,,1133613.253,4,500,,
break_continue,html.Screen,10_6_2,2023-11-15T21:49:52.528Z,,,,,,,,,,NaN,,,,,,,,low,high,,,,,,false,,,,false,1133609.8999999762,1133609.8999999762,,1133609.7999999523,,1133613.253,4,500,,
sequence,flow.Sequence,10_6,2023-11-15T21:49:52.528Z,,,,,,,,,,6025.027999976184,completion,,,,,,,low,high,,,,,,false,,,,false,1133610,1133609.8999999762,1127568.374,1127581.5999999642,1127584.872,1133613.253,4,500,,
trial,html.Screen,10_7_0,2023-11-15T21:49:57.745Z,,,,1,-0.0245246789155119,0.0615355901813596,,true,ll,5213.446999988053,response,-0.8492821768888116,0.8287253600519167,-0.9792844841171091,-1.1667020643738155,0.7979282958419128,-1.0759905236104281,low,low,,ISIC_0034144.JPG,9,ISIC_0011256.JPG,96,false,ll,keypress(f),0,false,1138827.0999999642,1138826.699999988,1133596.687,1133610,1133613.253,1138840.118,4,500,8,
break,html.Screen,10_7_1,2023-11-15T21:49:57.747Z,,,,,,,,,,NaN,,,,,,,,low,low,,,,,,false,,,,false,1138828.199999988,1138828,,1138827.5,,1138840.118,4,500,,
break_continue,html.Screen,10_7_2,2023-11-15T21:49:57.747Z,,,,,,,,,,NaN,,,,,,,,low,low,,,,,,false,,,,false,1138828.8999999762,1138828.699999988,,1138828.5,,1138840.118,4,500,,
sequence,flow.Sequence,10_7,2023-11-15T21:49:57.748Z,,,,,,,,,,5215.446999988053,completion,,,,,,,low,low,,,,,,false,,,,false,1138829.199999988,1138828.699999988,1133596.687,1133610,1133613.253,1138840.118,4,500,,
trial,html.Screen,10_8_0,2023-11-15T21:50:07.512Z,,,,1,-0.0365381185115645,0.0498888424276865,,false,lh,9753.381999999983,response,-0.9241510017125296,0.8287253600519167,-0.9792844841171091,0.6126232424254019,0.7979282958419128,-1.0759905236104281,low,high,,ISIC_0682543.JPG,9,ISIC_0067804.JPG,47,false,hh,keypress(i),0,false,1148593.699999988,1148593.5,1138823.533,1138829.5,1138840.118,1148609.098,4,500,9,
break,html.Screen,10_8_1,2023-11-15T21:50:07.512Z,,,,,,,,,,NaN,,,,,,,,low,high,,,,,,false,,,,false,1148594.0999999642,1148594,,1148593.7999999523,,1148609.098,4,500,,
break_continue,html.Screen,10_8_2,2023-11-15T21:50:07.513Z,,,,,,,,,,NaN,,,,,,,,low,high,,,,,,false,,,,false,1148594.2999999523,1148594.199999988,,1148594.199999988,,1148609.098,4,500,,
sequence,flow.Sequence,10_8,2023-11-15T21:50:07.513Z,,,,,,,,,,9754.081999988062,completion,,,,,,,low,high,,,,,,false,,,,false,1148594.2999999523,1148594.199999988,1138823.533,1138829.3999999762,1138840.118,1148609.098,4,500,,
trial,html.Screen,10_9_0,2023-11-15T21:50:13.482Z,,,,1,0.0399381815506136,0.0177751789152893,,true,ll,5953.80199997616,response,-1.0885984639975343,0.8287253600519167,-0.9792844841171091,-1.2042618719491294,0.7979282958419128,-1.0759905236104281,low,low,,ISIC_3981425.JPG,9,ISIC_0012740.JPG,96,false,ll,keypress(f),0,false,1154563.2999999523,1154562.8999999762,1148592.311,1148594.3999999762,1148609.098,1154570.642,4,500,10,
break,html.Screen,10_9_1,2023-11-15T21:50:13.483Z,,,,,,,,,,NaN,,,,,,,,low,low,,,,,,false,,,,false,1154564.5,1154564.199999988,,1154563.7999999523,,1154570.642,4,500,,
break_continue,html.Screen,10_9_2,2023-11-15T21:50:13.484Z,,,,,,,,,,NaN,,,,,,,,low,low,,,,,,false,,,,false,1154565.2999999523,1154565.0999999642,,1154564.8999999762,,1154570.642,4,500,,
sequence,flow.Sequence,10_9,2023-11-15T21:50:13.484Z,,,,,,,,,,5956.001999964239,completion,,,,,,,low,low,,,,,,false,,,,false,1154565.5999999642,1154565.0999999642,1148592.311,1148594.3999999762,1148609.098,1154570.642,4,500,,
trial,html.Screen,10_10_0,2023-11-15T21:50:21.506Z,,,,1,-0.0189295602385628,-0.0128812415435153,,true,hl,8016.657999952324,response,0.6629163102028129,0.8287253600519167,-0.9792844841171091,-1.000470054909676,0.7979282958419128,-1.0759905236104281,high,low,,ISIC_0010372.JPG,9,ISIC_9562157.JPG,45,false,hl,keypress(j),0,false,1162587.5,1162587.2999999523,1154553.906,1154565.8999999762,1154570.642,1162602.958,4,500,11,
break,html.Screen,10_10_1,2023-11-15T21:50:21.507Z,,,,,,,,,,NaN,,,,,,,,high,low,,,,,,false,,,,false,1162588.699999988,1162588.3999999762,,1162588,,1162602.958,4,500,,
break_continue,html.Screen,10_10_2,2023-11-15T21:50:21.508Z,,,,,,,,,,NaN,,,,,,,,high,low,,,,,,false,,,,false,1162589.3999999762,1162589.0999999642,,1162588.8999999762,,1162602.958,4,500,,
sequence,flow.Sequence,10_10,2023-11-15T21:50:21.508Z,,,,,,,,,,8018.457999964245,completion,,,,,,,high,low,,,,,,false,,,,false,1162589.5999999642,1162589.0999999642,1154553.906,1154565.7999999523,1154570.642,1162602.958,4,500,,
trial,html.Screen,10_11_0,2023-11-15T21:50:32.512Z,,,,1,-0.0658524437333868,0.0334357178485904,,,,11021.546999999788,timeout,-0.8719826114571525,0.8287253600519167,-0.9792844841171091,-1.2016542336356246,0.7979282958419128,-1.0759905236104281,low,low,,ISIC_8015541.JPG,9,ISIC_0002622.JPG,96,false,,,0,false,1173592.199999988,1173591.7999999523,1162586.234,1162589.8999999762,1162602.958,1173624.505,4,500,12,
break,html.Screen,10_11_1,2023-11-15T21:50:32.513Z,,,,,,,,,,NaN,,,,,,,,low,low,,,,,,false,,,,false,1173593.199999988,1173593,,1173592.5999999642,,1173624.505,4,500,,
break_continue,html.Screen,10_11_2,2023-11-15T21:50:32.513Z,,,,,,,,,,NaN,,,,,,,,low,low,,,,,,false,,,,false,1173594,1173593.7999999523,,1173593.5,,1173624.505,4,500,,
sequence,flow.Sequence,10_11,2023-11-15T21:50:32.514Z,,,,,,,,,,10990.841999952216,completion,,,,,,,low,low,,,,,,false,,,,false,1173594.2999999523,1173593.7999999523,1162586.234,1162589.7999999523,1162602.958,1173624.505,4,500,,
trial,html.Screen,10_12_0,2023-11-15T21:50:39.075Z,,,,1,-0.0386453938786174,-0.0465908665241285,,true,hh,6530.694999988191,response,0.6721013158203549,0.8287253600519167,-0.9792844841171091,0.9270220788982242,0.7979282958419128,-1.0759905236104281,high,high,,ISIC_1698119.JPG,9,ISIC_2670619.JPG,240,false,hh,keypress(i),0,false,1180155.5999999642,1180155.199999988,1173607.94,1173594.5,1173624.505,1180170.628,4,500,13,
break,html.Screen,10_12_1,2023-11-15T21:50:39.076Z,,,,,,,,,,NaN,,,,,,,,high,high,,,,,,false,,,,false,1180156.5999999642,1180156.3999999762,,1180155.8999999762,,1180170.628,4,500,,
break_continue,html.Screen,10_12_2,2023-11-15T21:50:39.077Z,,,,,,,,,,NaN,,,,,,,,high,high,,,,,,false,,,,false,1180157.2999999523,1180157.0999999642,,1180156.8999999762,,1180170.628,4,500,,
sequence,flow.Sequence,10_12,2023-11-15T21:50:39.077Z,,,,,,,,,,6532.594999964349,completion,,,,,,,high,high,,,,,,false,,,,false,1180157.5999999642,1180157.0999999642,1173607.94,1173594.3999999762,1173624.505,1180170.628,4,500,,
trial,html.Screen,10_13_0,2023-11-15T21:50:46.187Z,,,,1,-0.0051046740562181,0.0178832721027728,,false,hl,7096.771999976132,response,0.7277664800679337,0.8287253600519167,-0.9792844841171091,-1.2162806898850131,0.7979282958419128,-1.0759905236104281,high,low,,ISIC_9545819.JPG,9,ISIC_0013777.JPG,45,false,ll,keypress(f),0,false,1187267.7999999523,1187267.3999999762,1180153.972,1180157.8999999762,1180170.628,1187284.486,4,500,14,
break,html.Screen,10_13_1,2023-11-15T21:50:46.188Z,,,,,,,,,,NaN,,,,,,,,high,low,,,,,,false,,,,false,1187269,1187268.699999988,,1187268.199999988,,1187284.486,4,500,,
break_continue,html.Screen,10_13_2,2023-11-15T21:50:46.189Z,,,,,,,,,,NaN,,,,,,,,high,low,,,,,,false,,,,false,1187269.7999999523,1187269.5999999642,,1187269.2999999523,,1187284.486,4,500,,
sequence,flow.Sequence,10_13,2023-11-15T21:50:46.190Z,,,,,,,,,,7098.971999964211,completion,,,,,,,high,low,,,,,,false,,,,false,1187270.0999999642,1187269.5999999642,1180153.972,1180157.7999999523,1180170.628,1187284.486,4,500,,
trial,html.Screen,10_14_0,2023-11-15T21:50:50.721Z,,,,1,0.0700745968706567,0.013891147856594,,false,hh,4517.313999952283,response,0.8650250639951559,0.8287253600519167,-0.9792844841171091,0.7706339518336388,0.7979282958419128,-1.0759905236104281,high,high,,ISIC_0054663.JPG,9,ISIC_0061141.JPG,240,false,lh,keypress(e),0,false,1191802,1191801.7999999523,1187267.728,1187270.2999999523,1187284.486,1191809.785,4,500,15,
break,html.Screen,10_14_1,2023-11-15T21:50:50.722Z,,,,,,,,,,NaN,,,,,,,,high,high,,,,,,false,,,,false,1191802.2999999523,1191802.2999999523,,1191802.0999999642,,1191809.785,4,500,,
break_continue,html.Screen,10_14_2,2023-11-15T21:50:50.722Z,,,,,,,,,,NaN,,,,,,,,high,high,,,,,,false,,,,false,1191802.5999999642,1191802.5,,1191802.3999999762,,1191809.785,4,500,,
sequence,flow.Sequence,10_14,2023-11-15T21:50:50.722Z,,,,,,,,,,4518.0139999999665,completion,,,,,,,high,high,,,,,,false,,,,false,1191802.5999999642,1191802.5,1187267.728,1187270.2999999523,1187284.486,1191809.785,4,500,,
trial,html.Screen,10_15_0,2023-11-15T21:50:57.347Z,,,,1,0.0060934073440827,0.0279108145883031,,true,hh,6617.114999976242,response,0.6876655861250104,0.8287253600519167,-0.9792844841171091,0.9293537837759512,0.7979282958419128,-1.0759905236104281,high,high,,ISIC_0032604.JPG,10,ISIC_0060091.JPG,240,false,hh,keypress(i),0,false,1198427.2999999523,1198426.8999999762,1191793.302,1191802.699999988,1191809.785,1198439.361,4,500,16,
break,html.Screen,10_15_1,2023-11-15T21:50:57.348Z,,,,,,,,,,NaN,,,,,,,,high,high,,,,,,false,,,,false,1198428.5,1198428.199999988,,1198427.699999988,,1198439.361,4,500,,
break_continue,html.Screen,10_15_2,2023-11-15T21:50:57.349Z,,,,,,,,,,NaN,,,,,,,,high,high,,,,,,false,,,,false,1198429.0999999642,1198428.8999999762,,1198428.699999988,,1198439.361,4,500,,
sequence,flow.Sequence,10_15,2023-11-15T21:50:57.349Z,,,,,,,,,,6619.114999976242,completion,,,,,,,high,high,,,,,,false,,,,false,1198429.3999999762,1198428.8999999762,1191793.302,1191802.699999988,1191809.785,1198439.361,4,500,,
trial,html.Screen,10_16_0,2023-11-15T21:51:03.185Z,,,,1,-0.0189295602385628,-0.0128812415435153,,true,hh,5826.038999976125,response,0.7738532220362052,0.8287253600519167,-0.9792844841171091,0.9428791562371496,0.7979282958419128,-1.0759905236104281,high,high,,ISIC_0010372.JPG,9,ISIC_0053854.JPG,240,false,hh,keypress(i),0,false,1204265.5,1204265.3999999762,1198422.857,1198429.699999988,1198439.361,1204267.332,4,500,17,
break,html.Screen,10_16_1,2023-11-15T21:51:03.185Z,,,,,,,,,,NaN,,,,,,,,high,high,,,,,,false,,,,false,1204265.7999999523,1204265.699999988,,1204265.5,,1204267.332,4,500,,
break_continue,html.Screen,10_16_2,2023-11-15T21:51:03.185Z,,,,,,,,,,NaN,,,,,,,,high,high,,,,,,false,,,,false,1204266,1204265.7999999523,,1204265.7999999523,,1204267.332,4,500,,
sequence,flow.Sequence,10_16,2023-11-15T21:51:03.185Z,,,,,,,,,,5826.438999952283,completion,,,,,,,high,high,,,,,,false,,,,false,1204266,1204265.7999999523,1198422.857,1198429.5999999642,1198439.361,1204267.332,4,500,,
trial,html.Screen,10_17_0,2023-11-15T21:51:10.603Z,,,,1,0.0350697500805515,0.0166617848231997,,false,hl,7415.5679999762215,response,0.8620516892494489,0.8287253600519167,-0.9792844841171091,-1.1108509340502866,0.7979282958419128,-1.0759905236104281,high,low,,ISIC_0024423.JPG,8,ISIC_5557806.JPG,45,false,hh,keypress(i),0,false,1211683.3999999762,1211682.8999999762,1204250.875,1204266.0999999642,1204267.332,1211698.723,4,500,18,
break,html.Screen,10_17_1,2023-11-15T21:51:10.604Z,,,,,,,,,,NaN,,,,,,,,high,low,,,,,,false,,,,false,1211684.5999999642,1211684.199999988,,1211683.7999999523,,1211698.723,4,500,,
break_continue,html.Screen,10_17_2,2023-11-15T21:51:10.605Z,,,,,,,,,,NaN,,,,,,,,high,low,,,,,,false,,,,false,1211685.3999999762,1211685.199999988,,1211684.8999999762,,1211698.723,4,500,,
sequence,flow.Sequence,10_17,2023-11-15T21:51:10.605Z,,,,,,,,,,7417.867999988142,completion,,,,,,,high,low,,,,,,false,,,,false,1211685.699999988,1211685.199999988,1204250.875,1204266,1204267.332,1211698.723,4,500,,
trial,html.Screen,10_18_0,2023-11-15T21:51:20.555Z,,,,1,0.0496743860812164,0.0010487105450318,,true,hh,9936.17699997616,response,0.7463930356053693,0.8287253600519167,-0.9792844841171091,0.9897762612081872,0.7979282958419128,-1.0759905236104281,high,high,,ISIC_9312264.JPG,9,ISIC_0062048.JPG,240,false,hh,keypress(i),0,false,1221635.199999988,1221634.8999999762,1211682.002,1211686,1211698.723,1221651.41,4,500,19,
break,html.Screen,10_18_1,2023-11-15T21:51:20.556Z,,,,,,,,,,NaN,,,,,,,,high,high,,,,,,false,,,,false,1221636.3999999762,1221636.0999999642,,1221635.5999999642,,1221651.41,4,500,,
break_continue,html.Screen,10_18_2,2023-11-15T21:51:20.556Z,,,,,,,,,,NaN,,,,,,,,high,high,,,,,,false,,,,false,1221637,1221636.699999988,,1221636.5999999642,,1221651.41,4,500,,
sequence,flow.Sequence,10_18,2023-11-15T21:51:20.557Z,,,,,,,,,,9937.976999988081,completion,,,,,,,high,high,,,,,,false,,,,false,1221637.2999999523,1221636.699999988,1211682.002,1211685.8999999762,1211698.723,1221651.41,4,500,,
trial,html.Screen,10_19_0,2023-11-15T21:51:27.460Z,,,,1,-0.0321039635696159,-0.020496766286318,,false,hl,6887.8899999524,response,0.8620516892494489,0.8287253600519167,-0.9792844841171091,-1.1108509340502866,0.7979282958419128,-1.0759905236104281,high,low,,ISIC_0058063.JPG,9,ISIC_5557806.JPG,45,false,ll,keypress(f),0,false,1228539.5999999642,1228539.2999999523,1221634.532,1221637.5999999642,1221651.41,1228547.855,4,500,20,
break,html.Screen,10_19_1,2023-11-15T21:51:27.461Z,,,,,,,,,,NaN,,,,,,,,high,low,,,,,,false,,,,false,1228540.699999988,1228540.5,,1228540,,1228547.855,4,500,,
break_continue,html.Screen,10_19_2,2023-11-15T21:51:27.462Z,,,,,,,,,,NaN,,,,,,,,high,low,,,,,,false,,,,false,1228541.3999999762,1228541.199999988,,1228541,,1228547.855,4,500,,
sequence,flow.Sequence,10_19,2023-11-15T21:51:27.462Z,,,,,,,,,,6889.789999988163,completion,,,,,,,high,low,,,,,,false,,,,false,1228541.699999988,1228541.199999988,1221634.532,1221637.5,1221651.41,1228547.855,4,500,,
trial,html.Screen,10_20_0,2023-11-15T21:51:33.298Z,,,,1,-0.0361875505619981,0.0291457404567876,,false,lh,5829.344999988098,response,-0.8923602890201078,0.8287253600519167,-0.9792844841171091,0.8351700666074688,0.7979282958419128,-1.0759905236104281,low,high,,ISIC_0027480.JPG,8,ISIC_0033103.JPG,47,false,hh,keypress(i),0,false,1234377.2999999523,1234377.199999988,1228531.348,1228541.8999999762,1228547.855,1234392.712,4,500,21,
break,html.Screen,10_20_1,2023-11-15T21:51:33.298Z,,,,,,,,,,NaN,,,,,,,,low,high,,,,,,false,,,,false,1234377.5999999642,1234377.5999999642,,1234377.5,,1234392.712,4,500,,
break_continue,html.Screen,10_20_2,2023-11-15T21:51:33.298Z,,,,,,,,,,NaN,,,,,,,,low,high,,,,,,false,,,,false,1234377.8999999762,1234377.7999999523,,1234377.699999988,,1234392.712,4,500,,
sequence,flow.Sequence,10_20,2023-11-15T21:51:33.298Z,,,,,,,,,,5829.944999952335,completion,,,,,,,low,high,,,,,,false,,,,false,1234377.8999999762,1234377.7999999523,1228531.348,1228541.7999999523,1228547.855,1234392.712,4,500,,
trial,html.Screen,10_21_0,2023-11-15T21:51:39.490Z,,,,1,-0.0733425953790377,0.0558194585272655,,true,hh,6176.8879999641795,response,0.7466210813978978,0.8287253600519167,-0.9792844841171091,0.6442959594843354,0.7979282958419128,-1.0759905236104281,high,high,,ISIC_0026756.JPG,9,ISIC_2432848.JPG,240,false,hh,keypress(i),0,false,1240569.699999988,1240569.5999999642,1234376.133,1234377.8999999762,1234392.712,1240571.246,4,500,22,
break,html.Screen,10_21_1,2023-11-15T21:51:39.490Z,,,,,,,,,,NaN,,,,,,,,high,high,,,,,,false,,,,false,1240570,1240569.8999999762,,1240569.699999988,,1240571.246,4,500,,
break_continue,html.Screen,10_21_2,2023-11-15T21:51:39.491Z,,,,,,,,,,NaN,,,,,,,,high,high,,,,,,false,,,,false,1240570.199999988,1240570.0999999642,,1240570,,1240571.246,4,500,,
sequence,flow.Sequence,10_21,2023-11-15T21:51:39.491Z,,,,,,,,,,6177.3879999641795,completion,,,,,,,high,high,,,,,,false,,,,false,1240570.199999988,1240570.0999999642,1234376.133,1234377.8999999762,1234392.712,1240571.246,4,500,,
trial,html.Screen,10_22_0,2023-11-15T21:51:47.940Z,,,,1,0.0539169177295974,-0.039571352787207,,false,hl,8447.653999976115,response,0.6436227505158556,0.8287253600519167,-0.9792844841171091,-0.9403300747222216,0.7979282958419128,-1.0759905236104281,high,low,,ISIC_1076091.JPG,9,ISIC_9842269.JPG,45,false,hh,keypress(i),0,false,1249019.199999988,1249018.8999999762,1240554.809,1240570.2999999523,1240571.246,1249038.144,4,500,23,
break,html.Screen,10_22_1,2023-11-15T21:51:47.941Z,,,,,,,,,,NaN,,,,,,,,high,low,,,,,,false,,,,false,1249020.3999999762,1249020.0999999642,,1249019.5999999642,,1249038.144,4,500,,
break_continue,html.Screen,10_22_2,2023-11-15T21:51:47.942Z,,,,,,,,,,NaN,,,,,,,,high,low,,,,,,false,,,,false,1249021.199999988,1249020.8999999762,,1249020.699999988,,1249038.144,4,500,,
sequence,flow.Sequence,10_22,2023-11-15T21:51:47.942Z,,,,,,,,,,8449.653999976115,completion,,,,,,,high,low,,,,,,false,,,,false,1249021.5,1249020.8999999762,1240554.809,1240570.2999999523,1240571.246,1249038.144,4,500,,
trial,html.Screen,10_23_0,2023-11-15T21:51:56.324Z,,,,1,0.0629926578251803,-0.0626296407938785,,true,ll,8364.95599996415,response,-1.0901635293704552,0.8287253600519167,-0.9792844841171091,-1.0348352814358883,0.7979282958419128,-1.0759905236104281,low,low,,ISIC_0027043.JPG,9,ISIC_7583134.JPG,96,false,ll,keypress(f),0,false,1257403.3999999762,1257403.0999999642,1249004.308,1249021.8999999762,1249038.144,1257420.975,4,500,24,
break,html.Screen,10_23_1,2023-11-15T21:51:56.325Z,,,,,,,,,,NaN,,,,,,,,low,low,,,,,,false,,,,false,1257404.5999999642,1257404.2999999523,,1257403.7999999523,,1257420.975,4,500,,
break_continue,html.Screen,10_23_2,2023-11-15T21:51:56.326Z,,,,,,,,,,NaN,,,,,,,,low,low,,,,,,false,,,,false,1257405.199999988,1257405.0999999642,,1257404.7999999523,,1257420.975,4,500,,
sequence,flow.Sequence,10_23,2023-11-15T21:51:56.326Z,,,,,,,,,,8366.95599996415,completion,,,,,,,low,low,,,,,,false,,,,false,1257405.5999999642,1257405.0999999642,1249004.308,1249021.699999988,1249038.144,1257420.975,4,500,,
trial,html.Screen,10_24_0,2023-11-15T21:52:05.428Z,,,,1,0.0534676262527691,0.0384996820289673,,false,hl,9086.024999999907,response,0.7011709745663137,0.8287253600519167,-0.9792844841171091,-0.9901017340796716,0.7979282958419128,-1.0759905236104281,high,low,,ISIC_0030484.JPG,9,ISIC_8679617.JPG,45,false,ll,keypress(f),0,false,1266507.3999999762,1266507,1257404.21,1257405.7999999523,1257420.975,1266521.951,4,500,25,
break,html.Screen,10_24_1,2023-11-15T21:52:05.429Z,,,,,,,,,,NaN,,,,,,,,high,low,,,,,,false,,,,false,1266508.5999999642,1266508.199999988,,1266507.699999988,,1266521.951,4,500,,
break_continue,html.Screen,10_24_2,2023-11-15T21:52:05.430Z,,,,,,,,,,NaN,,,,,,,,high,low,,,,,,false,,,,false,1266509.199999988,1266509.0999999642,,1266508.7999999523,,1266521.951,4,500,,
sequence,flow.Sequence,10_24,2023-11-15T21:52:05.430Z,,,,,,,,,,9088.124999964144,completion,,,,,,,high,low,,,,,,false,,,,false,1266509.5999999642,1266509.0999999642,1257404.21,1257405.7999999523,1257420.975,1266521.951,4,500,,
trial,html.Screen,10_25_0,2023-11-15T21:52:11.476Z,,,,1,-0.0683185670328473,-0.0092332028949561,,false,lh,6033.148999964353,response,-1.020990671779317,0.8287253600519167,-0.9792844841171091,0.6309284775825196,0.7979282958419128,-1.0759905236104281,low,high,,ISIC_3652847.JPG,8,ISIC_0011995.JPG,47,false,hh,keypress(i),0,false,1272555.5,1272555.0999999642,1266504.916,1266509.7999999523,1266521.951,1272566.913,4,500,26,
break,html.Screen,10_25_1,2023-11-15T21:52:11.477Z,,,,,,,,,,NaN,,,,,,,,low,high,,,,,,false,,,,false,1272556.5999999642,1272556.2999999523,,1272555.7999999523,,1272566.913,4,500,,
break_continue,html.Screen,10_25_2,2023-11-15T21:52:11.478Z,,,,,,,,,,NaN,,,,,,,,low,high,,,,,,false,,,,false,1272557.2999999523,1272557,,1272556.7999999523,,1272566.913,4,500,,
sequence,flow.Sequence,10_25,2023-11-15T21:52:11.478Z,,,,,,,,,,6035.0490000001155,completion,,,,,,,low,high,,,,,,false,,,,false,1272557.5999999642,1272557,1266504.916,1266509.699999988,1266521.951,1272566.913,4,500,,
trial,html.Screen,10_26_0,2023-11-15T21:52:16.106Z,,,,1,0.0085520978188085,-0.0535296539628673,,true,hh,4618.686999964295,response,0.6659756082017932,0.8287253600519167,-0.9792844841171091,0.908421907990057,0.7979282958419128,-1.0759905236104281,high,high,,ISIC_0758797.JPG,9,ISIC_0012049.JPG,240,false,hh,keypress(i),0,false,1277185.699999988,1277185.5999999642,1272550.347,1272557.7999999523,1272566.913,1277192.485,4,500,27,
break,html.Screen,10_26_1,2023-11-15T21:52:16.107Z,,,,,,,,,,NaN,,,,,,,,high,high,,,,,,false,,,,false,1277186.0999999642,1277186,,1277185.8999999762,,1277192.485,4,500,,
break_continue,html.Screen,10_26_2,2023-11-15T21:52:16.107Z,,,,,,,,,,NaN,,,,,,,,high,high,,,,,,false,,,,false,1277186.2999999523,1277186.2999999523,,1277186.0999999642,,1277192.485,4,500,,
sequence,flow.Sequence,10_26,2023-11-15T21:52:16.107Z,,,,,,,,,,4619.386999952374,completion,,,,,,,high,high,,,,,,false,,,,false,1277186.3999999762,1277186.2999999523,1272550.347,1272557.7999999523,1272566.913,1277192.485,4,500,,
trial,html.Screen,10_27_0,2023-11-15T21:52:20.676Z,,,,1,-0.0050319651598106,0.047524453347389,,true,hh,4562.614999964135,response,0.999840720741648,0.8287253600519167,-0.9792844841171091,0.9031251164933652,0.7979282958419128,-1.0759905236104281,high,high,,ISIC_0027081.JPG,9,ISIC_0058768.JPG,240,false,hh,keypress(i),0,false,1281755.5,1281755.0999999642,1277176.06,1277186.3999999762,1277192.485,1281768.297,4,500,28,
break,html.Screen,10_27_1,2023-11-15T21:52:20.677Z,,,,,,,,,,NaN,,,,,,,,high,high,,,,,,false,,,,false,1281756.5999999642,1281756.3999999762,,1281755.8999999762,,1281768.297,4,500,,
break_continue,html.Screen,10_27_2,2023-11-15T21:52:20.678Z,,,,,,,,,,NaN,,,,,,,,high,high,,,,,,false,,,,false,1281757.3999999762,1281757.0999999642,,1281756.8999999762,,1281768.297,4,500,,
sequence,flow.Sequence,10_27,2023-11-15T21:52:20.678Z,,,,,,,,,,4564.614999964135,completion,,,,,,,high,high,,,,,,false,,,,false,1281757.5999999642,1281757.0999999642,1277176.06,1277186.3999999762,1277192.485,1281768.297,4,500,,
trial,html.Screen,10_28_0,2023-11-15T21:52:25.477Z,,,,1,-0.004212480280886,-0.0518491070608022,,true,lh,4786.802999964217,response,-1.0140243022958364,0.8287253600519167,-0.9792844841171091,0.7084305941404812,0.7979282958419128,-1.0759905236104281,low,high,,ISIC_2945324.JPG,9,ISIC_0014946.JPG,47,false,lh,keypress(e),0,false,1286555.3999999762,1286555.0999999642,1281751.596,1281757.7999999523,1281768.297,1286560.7,4,500,29,
break,html.Screen,10_28_1,2023-11-15T21:52:25.478Z,,,,,,,,,,NaN,,,,,,,,low,high,,,,,,false,,,,false,1286556.5,1286556.199999988,,1286555.7999999523,,1286560.7,4,500,,
break_continue,html.Screen,10_28_2,2023-11-15T21:52:25.479Z,,,,,,,,,,NaN,,,,,,,,low,high,,,,,,false,,,,false,1286557.199999988,1286556.8999999762,,1286556.699999988,,1286560.7,4,500,,
sequence,flow.Sequence,10_28,2023-11-15T21:52:25.479Z,,,,,,,,,,4788.602999976138,completion,,,,,,,low,high,,,,,,false,,,,false,1286557.5,1286556.8999999762,1281751.596,1281757.7999999523,1281768.297,1286560.7,4,500,,
trial,html.Screen,10_29_0,2023-11-15T21:52:31.126Z,,,,1,0.0158987717472563,0.0292472192292015,,false,lh,5643.199999976205,response,-0.8197345447434577,0.8287253600519167,-0.9792844841171091,0.6286414327477294,0.7979282958419128,-1.0759905236104281,low,high,,ISIC_1366765.JPG,8,ISIC_0031763.JPG,47,false,hl,keypress(j),0,false,1292204.3999999762,1292203.8999999762,1286544.24,1286557.699999988,1286560.7,1292221.989,4,500,30,
break,html.Screen,10_29_1,2023-11-15T21:52:31.127Z,,,,,,,,,,NaN,,,,,,,,low,high,,,,,,false,,,,false,1292205.699999988,1292205.3999999762,,1292204.8999999762,,1292221.989,4,500,,
break_continue,html.Screen,10_29_2,2023-11-15T21:52:31.128Z,,,,,,,,,,NaN,,,,,,,,low,high,,,,,,false,,,,false,1292206.3999999762,1292206.199999988,,1292205.8999999762,,1292221.989,4,500,,
sequence,flow.Sequence,10_29,2023-11-15T21:52:31.128Z,,,,,,,,,,5645.499999988126,completion,,,,,,,low,high,,,,,,false,,,,false,1292206.7999999523,1292206.199999988,1286544.24,1286557.699999988,1286560.7,1292221.989,4,500,,
trial,html.Screen,10_30_0,2023-11-15T21:52:38.533Z,,,,1,-0.0050319651598106,0.047524453347389,,false,lh,7389.310999952257,response,-1.00615481805876,0.8287253600519167,-0.9792844841171091,0.8428903771195875,0.7979282958419128,-1.0759905236104281,low,high,,ISIC_0027081.JPG,8,ISIC_0069970.JPG,47,false,hh,keypress(i),0,false,1299611.5999999642,1299611.2999999523,1292205.29,1292206.8999999762,1292221.989,1299619.451,4,500,31,
break,html.Screen,10_30_1,2023-11-15T21:52:38.534Z,,,,,,,,,,NaN,,,,,,,,low,high,,,,,,false,,,,false,1299612.7999999523,1299612.5,,1299612.0999999642,,1299619.451,4,500,,
break_continue,html.Screen,10_30_2,2023-11-15T21:52:38.535Z,,,,,,,,,,NaN,,,,,,,,low,high,,,,,,false,,,,false,1299613.5,1299613.2999999523,,1299613,,1299619.451,4,500,,
sequence,flow.Sequence,10_30,2023-11-15T21:52:38.535Z,,,,,,,,,,7391.310999952257,completion,,,,,,,low,high,,,,,,false,,,,false,1299613.7999999523,1299613.2999999523,1292205.29,1292206.8999999762,1292221.989,1299619.451,4,500,,
trial,html.Screen,10_31_0,2023-11-15T21:52:45.941Z,,,,1,-0.0474755744799381,-0.0692210794081785,,false,hl,7399.648999964353,response,0.6416699984222508,0.8287253600519167,-0.9792844841171091,-1.1702231398575993,0.7979282958419128,-1.0759905236104281,high,low,,ISIC_8794567.JPG,9,ISIC_0064784.JPG,45,false,lh,keypress(e),0,false,1307019.2999999523,1307019.0999999642,1299602.965,1299614,1299619.451,1307033.917,4,500,32,
break,html.Screen,10_31_1,2023-11-15T21:52:45.942Z,,,,,,,,,,NaN,,,,,,,,high,low,,,,,,false,,,,false,1307020.5,1307020.199999988,,1307019.7999999523,,1307033.917,4,500,,
break_continue,html.Screen,10_31_2,2023-11-15T21:52:45.943Z,,,,,,,,,,NaN,,,,,,,,high,low,,,,,,false,,,,false,1307021.0999999642,1307021,,1307020.699999988,,1307033.917,4,500,,
sequence,flow.Sequence,10_31,2023-11-15T21:52:45.943Z,,,,,,,,,,7401.5490000001155,completion,,,,,,,high,low,,,,,,false,,,,false,1307021.5,1307021,1299602.965,1299613.8999999762,1299619.451,1307033.917,4,500,,
trial,html.Screen,10_32_0,2023-11-15T21:52:54.741Z,,,,1,0.0700745968706567,0.013891147856594,,false,hl,8785.382999952417,response,0.9448560599810628,0.8287253600519167,-0.9792844841171091,-0.9099421612683488,0.7979282958419128,-1.0759905236104281,high,low,,ISIC_0054663.JPG,9,ISIC_9684318.JPG,45,false,ll,keypress(f),0,false,1315819.5,1315819.2999999523,1307017.36,1307021.7999999523,1307033.917,1315834.474,4,500,33,
break,html.Screen,10_32_1,2023-11-15T21:52:54.742Z,,,,,,,,,,NaN,,,,,,,,high,low,,,,,,false,,,,false,1315820.7999999523,1315820.3999999762,,1315820,,1315834.474,4,500,,
break_continue,html.Screen,10_32_2,2023-11-15T21:52:54.743Z,,,,,,,,,,NaN,,,,,,,,high,low,,,,,,false,,,,false,1315821.5999999642,1315821.3999999762,,1315821.0999999642,,1315834.474,4,500,,
sequence,flow.Sequence,10_32,2023-11-15T21:52:54.743Z,,,,,,,,,,8787.482999976259,completion,,,,,,,high,low,,,,,,false,,,,false,1315821.8999999762,1315821.3999999762,1307017.36,1307021.5999999642,1307033.917,1315834.474,4,500,,
trial,html.Screen,10_33_0,2023-11-15T21:52:59.141Z,,,,1,0.0050679133050021,0.0174815595031679,,true,hh,4384.625999964308,response,0.9994515903100272,0.8287253600519167,-0.9792844841171091,0.6290731389985346,0.7979282958419128,-1.0759905236104281,high,high,,ISIC_9848743.JPG,9,ISIC_8737794.JPG,240,false,hh,keypress(i),0,false,1320219.3999999762,1320219.0999999642,1315817.572,1315822.0999999642,1315834.474,1320226.17,4,500,34,
break,html.Screen,10_33_1,2023-11-15T21:52:59.142Z,,,,,,,,,,NaN,,,,,,,,high,high,,,,,,false,,,,false,1320220.5,1320220.199999988,,1320219.7999999523,,1320226.17,4,500,,
break_continue,html.Screen,10_33_2,2023-11-15T21:52:59.143Z,,,,,,,,,,NaN,,,,,,,,high,high,,,,,,false,,,,false,1320221.2999999523,1320221.0999999642,,1320220.8999999762,,1320226.17,4,500,,
sequence,flow.Sequence,10_33,2023-11-15T21:52:59.143Z,,,,,,,,,,4386.625999964308,completion,,,,,,,high,high,,,,,,false,,,,false,1320221.699999988,1320221.0999999642,1315817.572,1315822,1315834.474,1320226.17,4,500,,
trial,html.Screen,10_34_0,2023-11-15T21:53:06.372Z,,,,1,-0.010035581303589,0.0100711721396864,,true,ll,7224.3300000000745,response,-1.1679182396424097,0.8287253600519167,-0.9792844841171091,-0.8971678181565197,0.7979282958419128,-1.0759905236104281,low,low,,ISIC_0030592.JPG,9,ISIC_0025085.JPG,96,false,ll,keypress(f),0,false,1327450.5999999642,1327450.5,1320209.735,1320221.8999999762,1320226.17,1327456.903,4,500,35,
break,html.Screen,10_34_1,2023-11-15T21:53:06.373Z,,,,,,,,,,NaN,,,,,,,,low,low,,,,,,false,,,,false,1327451.3999999762,1327451.199999988,,1327450.8999999762,,1327456.903,4,500,,
break_continue,html.Screen,10_34_2,2023-11-15T21:53:06.373Z,,,,,,,,,,NaN,,,,,,,,low,low,,,,,,false,,,,false,1327451.7999999523,1327451.5999999642,,1327451.5,,1327456.903,4,500,,
sequence,flow.Sequence,10_34,2023-11-15T21:53:06.374Z,,,,,,,,,,7225.429999964312,completion,,,,,,,low,low,,,,,,false,,,,false,1327451.8999999762,1327451.5999999642,1320209.735,1320221.7999999523,1320226.17,1327456.903,4,500,,
trial,html.Screen,10_35_0,2023-11-15T21:53:11.348Z,,,,1,0.0700745968706567,0.013891147856594,,true,hh,4968.896999952383,response,0.8970039097647139,0.8287253600519167,-0.9792844841171091,0.9775899280745278,0.7979282958419128,-1.0759905236104281,high,high,,ISIC_0054663.JPG,9,ISIC_0024449.JPG,240,false,hh,keypress(i),0,false,1332426,1332425.7999999523,1327440.34,1327452.0999999642,1327456.903,1332433.244,4,500,36,
break,html.Screen,10_35_1,2023-11-15T21:53:11.348Z,,,,,,,,,,NaN,,,,,,,,high,high,,,,,,false,,,,false,1332426.5,1332426.3999999762,,1332426.0999999642,,1332433.244,4,500,,
break_continue,html.Screen,10_35_2,2023-11-15T21:53:11.348Z,,,,,,,,,,NaN,,,,,,,,high,high,,,,,,false,,,,false,1332426.7999999523,1332426.699999988,,1332426.5999999642,,1332433.244,4,500,,
sequence,flow.Sequence,10_35,2023-11-15T21:53:11.349Z,,,,,,,,,,4969.796999988146,completion,,,,,,,high,high,,,,,,false,,,,false,1332426.8999999762,1332426.699999988,1327440.34,1327452.0999999642,1327456.903,1332433.244,4,500,,
trial,html.Screen,10_36_0,2023-11-15T21:53:17.972Z,,,,1,0.012810673904807,-0.00400964452501,,false,lh,6616.555999952368,response,-1.00615481805876,0.8287253600519167,-0.9792844841171091,0.8428903771195875,0.7979282958419128,-1.0759905236104281,low,high,,ISIC_0064656.JPG,9,ISIC_0069970.JPG,47,false,hh,keypress(i),0,false,1339049.8999999762,1339049.7999999523,1332416.759,1332427,1332433.244,1339063.077,4,500,37,
break,html.Screen,10_36_1,2023-11-15T21:53:17.972Z,,,,,,,,,,NaN,,,,,,,,low,high,,,,,,false,,,,false,1339050.2999999523,1339050.199999988,,1339050.0999999642,,1339063.077,4,500,,
break_continue,html.Screen,10_36_2,2023-11-15T21:53:17.972Z,,,,,,,,,,NaN,,,,,,,,low,high,,,,,,false,,,,false,1339050.5,1339050.3999999762,,1339050.2999999523,,1339063.077,4,500,,
sequence,flow.Sequence,10_36,2023-11-15T21:53:17.972Z,,,,,,,,,,6617.15599997621,completion,,,,,,,low,high,,,,,,false,,,,false,1339050.5999999642,1339050.3999999762,1332416.759,1332427,1332433.244,1339063.077,4,500,,
