sender,sender_type,sender_id,timestamp,meta,age,blockNo,c1,c2,condition,correct,correctResponse,duration,ended_on,f1,f1_high,f1_low,f2,f2_high,f2_low,feature_level1,feature_level2,gender,img_left,img_reveal,img_right,n_target_images,practice,response,response_action,selection_duration,staircase,time_commit,time_end,time_render,time_run,time_show,time_switch,total_blocks,total_trials,trialNo,url
informed_consent,html.Screen,0,2023-11-15T20:40:37.391Z,"{""labjs_version"":""20.2.4"",""labjs_build"":{""flavor"":""development"",""commit"":""f5b4a49f956347addd546a832a3327688c2c0fef""},""location"":""https://labjs.felixhenninger.com/api/labjs_preview/index.html"",""userAgent"":""Mozilla/5.0 (Windows NT 10.0; Win64; x64) AppleWebKit/537.36 (KHTML, like Gecko) Chrome/119.0.0.0 Safari/537.36"",""platform"":""Win32"",""language"":""en-US"",""locale"":""en-US"",""timeZone"":""America/Chicago"",""timezoneOffset"":360,""screen_width"":1680,""screen_height"":1050,""scroll_width"":825,""scroll_height"":888,""window_innerWidth"":825,""window_innerHeight"":936,""devicePixelRatio"":1}",,,,,,,,43148.538,response,,,,,,,,,,,,,,,consent,click button,,,43894.5,43885.2,719.98,919,736.662,43703.867,,,,{}
Demography form,html.Form,1,2023-11-15T20:40:39.446Z,,-99,,,,,,,2245.633,response,,,,,,,,,prefer not say,,,,,,continue,keypress(Space),,,45949.9,45949.5,43686.894,43894.7,43703.867,45757.787,,,,
Welcome,html.Screen,2,2023-11-15T20:41:04.857Z,,,,,,"[""asym"",""bor""]",,,25599.213,response,,,,,,,,,,,,,,,continue,click button,,,71357.4,71357,45741.147,45950.2,45757.787,71173.953,,,,
demo_instructions,html.Screen,3,2023-11-15T20:41:13.994Z,,,,,,,,,9319.447,response,,,,,,,,,,,,,,,continue,click button,,,80493.8,80493.4,71157,71357.5,71173.953,80291.425,,,,
trial,html.Screen,4_0_0,2023-11-15T20:41:22.972Z,,,0,1.021336533,-1.08852436,,TRUE,lh,9179.975,response,-0.969611853,1.05,-1.05,0.924414828,1.05,-1.05,low,high,,ISIC_5434229.JPG,,ISIC_7927525.JPG,21,TRUE,lh,keypress(e),100,FALSE,89472,89471.4,80274.903,80494,80291.425,89292.287,1,16,1,
sequence,flow.Sequence,4_0,2023-11-15T20:41:22.997Z,,,,,,,,,9179.975,completion,,,,,,,low,high,,,,,,TRUE,,,,FALSE,89497.9,89471.4,80274.903,80494,80291.425,89292.287,1,16,,
trial,html.Screen,4_1_0,2023-11-15T20:41:31.948Z,,,0,1.021336533,-1.08852436,,TRUE,lh,9155.313,response,-0.991282841,1.05,-1.05,0.93979211,1.05,-1.05,low,high,,ISIC_5434229.JPG,,ISIC_0000463.JPG,21,TRUE,lh,keypress(e),100,FALSE,98448,98447.6,89275.664,89498,89292.287,98259.955,1,16,2,
sequence,flow.Sequence,4_1,2023-11-15T20:41:31.948Z,,,,,,,,,9155.313,completion,,,,,,,low,high,,,,,,TRUE,,,,FALSE,98448.4,98447.6,89275.664,89498,89292.287,98259.955,1,16,,
trial,html.Screen,4_2_0,2023-11-15T20:41:33.107Z,,,0,0.923557177,-1.000808165,,TRUE,lh,1346.745,response,-0.879102501,1.05,-1.05,1.093308195,1.05,-1.05,low,high,,ISIC_8796632.JPG,,ISIC_0046223.JPG,21,TRUE,lh,keypress(e),100,FALSE,99607.5,99606.7,98243.032,98448.5,98259.955,99428.871,1,16,3,
sequence,flow.Sequence,4_2,2023-11-15T20:41:33.108Z,,,,,,,,,1346.745,completion,,,,,,,low,high,,,,,,TRUE,,,,FALSE,99608.6,99606.7,98243.032,98448.5,98259.955,99428.871,1,16,,
trial,html.Screen,4_3_0,2023-11-15T20:41:37.251Z,,,0,0.923557177,-1.000808165,,TRUE,lh,4321.829,response,-1.207517224,1.05,-1.05,0.911672497,1.05,-1.05,low,high,,ISIC_8796632.JPG,,ISIC_0024235.JPG,21,TRUE,lh,keypress(e),100,FALSE,103750.9,103750.7,99412.04,99608.9,99428.871,103570.07,1,16,4,
sequence,flow.Sequence,4_3,2023-11-15T20:41:37.251Z,,,,,,,,,4321.829,completion,,,,,,,low,high,,,,,,TRUE,,,,FALSE,103751,103750.7,99412.04,99608.8,99428.871,103570.07,1,16,,
trial,html.Screen,4_4_0,2023-11-15T20:41:46.422Z,,,0,1.222492657,0.854583063,,TRUE,ll,9351.43,response,-1.202408356,1.05,-1.05,-1.149077673,1.05,-1.05,low,low,,ISIC_4118762.JPG,,ISIC_3566243.JPG,111,TRUE,ll,keypress(f),100,FALSE,112922,112921.5,103553.347,103751.1,103570.07,112738.055,1,16,5,
sequence,flow.Sequence,4_4,2023-11-15T20:41:46.422Z,,,,,,,,,9351.43,completion,,,,,,,low,low,,,,,,TRUE,,,,FALSE,112922.6,112921.5,103553.347,103751.1,103570.07,112738.055,1,16,,
trial,html.Screen,4_5_0,2023-11-15T20:41:48.240Z,,,0,0.906399324,1.243303296,,TRUE,ll,2001.545,response,-1.009793258,1.05,-1.05,-1.064483461,1.05,-1.05,low,low,,ISIC_0010050.JPG,,ISIC_8559515.JPG,111,TRUE,ll,keypress(f),100,FALSE,114740.1,114739.6,112721.198,112922.8,112738.055,114558.285,1,16,6,
sequence,flow.Sequence,4_5,2023-11-15T20:41:48.240Z,,,,,,,,,2001.545,completion,,,,,,,low,low,,,,,,TRUE,,,,FALSE,114740.9,114739.6,112721.198,112922.7,112738.055,114558.285,1,16,,
trial,html.Screen,4_6_0,2023-11-15T20:41:49.646Z,,,0,0.977784972,1.11781143,,TRUE,ll,1587.415,response,-1.076949029,1.05,-1.05,-1.017451595,1.05,-1.05,low,low,,ISIC_3256887.JPG,,ISIC_0028135.JPG,111,TRUE,ll,keypress(f),100,FALSE,116146.1,116145.7,114541.489,114741.1,114558.285,115961.067,1,16,7,
sequence,flow.Sequence,4_6,2023-11-15T20:41:49.646Z,,,,,,,,,1587.415,completion,,,,,,,low,low,,,,,,TRUE,,,,FALSE,116146.6,116145.7,114541.489,114741.1,114558.285,115961.067,1,16,,
trial,html.Screen,4_7_0,2023-11-15T20:41:50.920Z,,,0,1.05255323,1.162898251,,TRUE,ll,1458.633,response,-1.037577074,1.05,-1.05,-1.027048111,1.05,-1.05,low,low,,ISIC_0033428.JPG,,ISIC_0004932.JPG,111,TRUE,ll,keypress(f),100,FALSE,117420,117419.7,115944.194,116146.9,115961.067,117230.177,1,16,8,
sequence,flow.Sequence,4_7,2023-11-15T20:41:50.920Z,,,,,,,,,1458.633,completion,,,,,,,low,low,,,,,,TRUE,,,,FALSE,117420.5,117419.7,115944.194,116146.8,115961.067,117230.177,1,16,,
trial,html.Screen,4_8_0,2023-11-15T20:41:52.335Z,,,0,-0.84874291,0.97782578,,TRUE,hl,1604.923,response,0.948927472,0.95,-0.95,-1.066043716,0.95,-0.95,high,low,,ISIC_4554863.JPG,,ISIC_5808758.JPG,26,TRUE,hl,keypress(j),100,FALSE,118835.5,118835.1,117213.304,117420.7,117230.177,118649.626,1,16,9,
sequence,flow.Sequence,4_8,2023-11-15T20:41:52.336Z,,,,,,,,,1604.923,completion,,,,,,,high,low,,,,,,TRUE,,,,FALSE,118836.1,118835.1,117213.304,117420.6,117230.177,118649.626,1,16,,
trial,html.Screen,4_9_0,2023-11-15T20:42:13.644Z,,,0,-1.065667321,0.808254169,,TRUE,hl,21491.574,response,1.021336533,0.95,-0.95,-1.08852436,0.95,-0.95,high,low,,ISIC_0033985.JPG,,ISIC_5434229.JPG,26,TRUE,hl,keypress(j),100,FALSE,140141.4,140141.2,118632.754,118836.3,118649.626,139957.587,1,16,10,
sequence,flow.Sequence,4_9,2023-11-15T20:42:13.644Z,,,,,,,,,21491.574,completion,,,,,,,high,low,,,,,,TRUE,,,,FALSE,140141.6,140141.2,118632.754,118836.2,118649.626,139957.587,1,16,,
trial,html.Screen,4_10_0,2023-11-15T20:42:15.025Z,,,0,-1.08653334,1.054263531,,TRUE,hl,1564.713,response,1.012239822,0.95,-0.95,-0.750522854,0.95,-0.95,high,low,,ISIC_0034006.JPG,,ISIC_0033802.JPG,26,TRUE,hl,keypress(j),100,FALSE,141522.8,141522.3,139940.895,140141.6,139957.587,141343.59,1,16,11,
sequence,flow.Sequence,4_10,2023-11-15T20:42:15.026Z,,,,,,,,,1564.713,completion,,,,,,,high,low,,,,,,TRUE,,,,FALSE,141523.3,141522.3,139940.895,140141.6,139957.587,141343.59,1,16,,
trial,html.Screen,4_11_0,2023-11-15T20:42:16.699Z,,,0,-0.858338058,0.954061222,,TRUE,hl,1852.41,response,0.881628886,0.95,-0.95,-0.801867301,0.95,-0.95,high,low,,ISIC_8922893.JPG,,ISIC_9196783.JPG,26,TRUE,hl,keypress(j),100,FALSE,143196.4,143196,141326.855,141523.6,141343.59,143013.674,1,16,12,
sequence,flow.Sequence,4_11,2023-11-15T20:42:16.700Z,,,,,,,,,1852.41,completion,,,,,,,high,low,,,,,,TRUE,,,,FALSE,143197.2,143196,141326.855,141523.6,141343.59,143013.674,1,16,,
trial,html.Screen,4_12_0,2023-11-15T20:42:18.216Z,,,0,-0.93587252,-0.993877662,,TRUE,hh,1700.026,response,1.06574766,0.95,-0.95,0.970732113,0.95,-0.95,high,high,,ISIC_3365692.JPG,,ISIC_0010778.JPG,167,TRUE,hh,keypress(i),100,FALSE,144714,144713.7,142996.809,143197.5,143013.674,144533.038,1,16,13,
sequence,flow.Sequence,4_12,2023-11-15T20:42:18.217Z,,,,,,,,,1700.026,completion,,,,,,,high,high,,,,,,TRUE,,,,FALSE,144714.5,144713.7,142996.809,143197.5,143013.674,144533.038,1,16,,
trial,html.Screen,4_13_0,2023-11-15T20:42:19.474Z,,,0,-1.037520323,-0.939435876,,TRUE,hh,1438.062,response,0.759340482,0.95,-0.95,0.806460105,0.95,-0.95,high,high,,ISIC_4264600.JPG,,ISIC_0010278.JPG,167,TRUE,hh,keypress(i),100,FALSE,145971.4,145971.1,144516.409,144714.8,144533.038,145785.823,1,16,14,
sequence,flow.Sequence,4_13,2023-11-15T20:42:19.474Z,,,,,,,,,1438.062,completion,,,,,,,high,high,,,,,,TRUE,,,,FALSE,145972,145971.1,144516.409,144714.8,144533.038,145785.823,1,16,,
trial,html.Screen,4_14_0,2023-11-15T20:42:20.619Z,,,0,-0.99494039,-1.003680641,,TRUE,hh,1330.877,response,0.88881879,0.95,-0.95,0.816257933,0.95,-0.95,high,high,,ISIC_0012450.JPG,,ISIC_0070285.JPG,167,TRUE,hh,keypress(i),100,FALSE,147117.1,147116.7,145768.87,145972.3,145785.823,146937.825,1,16,15,
sequence,flow.Sequence,4_14,2023-11-15T20:42:20.620Z,,,,,,,,,1330.877,completion,,,,,,,high,high,,,,,,TRUE,,,,FALSE,147117.7,147116.7,145768.87,145972.2,145785.823,146937.825,1,16,,
trial,html.Screen,4_15_0,2023-11-15T20:42:22.196Z,,,0,-0.75496772,-0.787504301,,TRUE,hh,1755.275,response,0.7916641,0.95,-0.95,0.879552397,0.95,-0.95,high,high,,ISIC_7097665.JPG,,ISIC_0069635.JPG,167,TRUE,hh,keypress(i),100,FALSE,148693.5,148693.1,146921.3,147118,146937.825,148507.415,1,16,16,
sequence,flow.Sequence,4_15,2023-11-15T20:42:22.197Z,,,,,,,,,1755.275,completion,,,,,,,high,high,,,,,,TRUE,,,,FALSE,148694.1,148693.1,146921.3,147117.9,146937.825,148507.415,1,16,,
demonstration_loop,flow.Loop,4,2023-11-15T20:42:22.197Z,,,,,,,,,68401.675,completion,,,,,,,,,,,,,,TRUE,,,,FALSE,148694.5,148693.1,80274.903,80494,80291.425,148507.415,1,16,,
practice_instructions,html.Screen,5,2023-11-15T20:42:24.333Z,,,,,,,,,2322.585,response,,,,,,,,,,,,,,,continue,keypress(Space),,,150830.8,150830,148490.825,148694.7,148507.415,150628.187,,,,
trial,html.Screen,6_0_0,2023-11-15T20:42:35.128Z,,,1,0.887838745,-0.754509665,,,,10804.634,timeout,-1.020990672,0.95,-0.95,1.011651385,0.95,-0.95,low,high,,ISIC_1488727.JPG,,ISIC_0011995.JPG,28,TRUE,,,0,FALSE,161625.2,161625.1,150611.585,150831.3,150628.187,161432.821,1,40,1,
sequence,flow.Sequence,6_0,2023-11-15T20:42:35.128Z,,,,,,,,,10996.913,completion,,,,,,,low,high,,,,,,TRUE,,,,FALSE,161625.4,161625.1,150611.585,150831.2,150628.187,161432.821,1,40,,
trial,html.Screen,6_1_0,2023-11-15T20:42:44.218Z,,,1,-0.78779395,0.841503278,,TRUE,hl,9282.579,response,0.787116214,0.95,-0.95,-0.84293298,0.95,-0.95,high,low,,ISIC_0067308.JPG,,ISIC_3439215.JPG,26,TRUE,hl,keypress(j),0,FALSE,170715.5,170715.4,161416.107,161625.5,161432.821,170516.986,1,40,2,
sequence,flow.Sequence,6_1,2023-11-15T20:42:44.218Z,,,,,,,,,9282.579,completion,,,,,,,high,low,,,,,,TRUE,,,,FALSE,170715.6,170715.4,161416.107,161625.5,161432.821,170516.986,1,40,,
trial,html.Screen,6_2_0,2023-11-15T20:42:55.008Z,,,1,-1.009793258,-1.064483461,,,,10787.627,timeout,0.930742046,0.95,-0.95,1.004066294,0.95,-0.95,high,high,,ISIC_8559515.JPG,,ISIC_4508878.JPG,167,TRUE,,,0,FALSE,181502.8,181502.3,170500.391,170715.7,170516.986,181304.613,1,40,3,
sequence,flow.Sequence,6_2,2023-11-15T20:42:55.008Z,,,,,,,,,10985.314,completion,,,,,,,high,high,,,,,,TRUE,,,,FALSE,181503.2,181502.3,170500.391,170715.7,170516.986,181304.613,1,40,,
trial,html.Screen,6_3_0,2023-11-15T20:42:58.895Z,,,1,0.852415616,0.769668467,,TRUE,ll,4085.187,response,-0.830781172,0.95,-0.95,-1.098625259,0.95,-0.95,low,low,,ISIC_0001141.JPG,,ISIC_8257549.JPG,142,TRUE,ll,keypress(f),0,FALSE,185389.9,185389.8,181288.108,181503.5,181304.613,185195.675,1,40,4,
sequence,flow.Sequence,6_3,2023-11-15T20:42:58.895Z,,,,,,,,,4085.187,completion,,,,,,,low,low,,,,,,TRUE,,,,FALSE,185390.1,185389.8,181288.108,181503.4,181304.613,185195.675,1,40,,
trial,html.Screen,6_4_0,2023-11-15T20:43:00.488Z,,,1,1.037657362,1.000040271,,TRUE,ll,1786.925,response,-0.941690031,0.95,-0.95,-0.807114939,0.95,-0.95,low,low,,ISIC_0068798.JPG,,ISIC_2784686.JPG,142,TRUE,ll,keypress(f),0,FALSE,186982.9,186982.6,185178.982,185390.2,185195.675,186781.905,1,40,5,
sequence,flow.Sequence,6_4,2023-11-15T20:43:00.489Z,,,,,,,,,1786.925,completion,,,,,,,low,low,,,,,,TRUE,,,,FALSE,186983.5,186982.6,185178.982,185390.2,185195.675,186781.905,1,40,,
trial,html.Screen,6_5_0,2023-11-15T20:43:01.672Z,,,1,0.865516731,-0.929858042,,TRUE,lh,1384.595,response,-1.011737553,0.95,-0.95,0.850053022,0.95,-0.95,low,high,,ISIC_4603706.JPG,,ISIC_2998367.JPG,28,TRUE,lh,keypress(e),0,FALSE,188166.8,188166.5,186765.413,186983.6,186781.905,187967.56,1,40,6,
sequence,flow.Sequence,6_5,2023-11-15T20:43:01.673Z,,,,,,,,,1384.595,completion,,,,,,,low,high,,,,,,TRUE,,,,FALSE,188167.3,188166.5,186765.413,186983.6,186781.905,187967.56,1,40,,
trial,html.Screen,6_6_0,2023-11-15T20:43:02.703Z,,,1,-0.793392176,0.769291629,,TRUE,hl,1229.94,response,0.772384921,0.95,-0.95,-0.888372424,0.95,-0.95,high,low,,ISIC_7844825.JPG,,ISIC_3884221.JPG,26,TRUE,hl,keypress(j),0,FALSE,189197.6,189197.5,187950.96,188167.5,187967.56,189003.123,1,40,7,
sequence,flow.Sequence,6_6,2023-11-15T20:43:02.703Z,,,,,,,,,1229.94,completion,,,,,,,high,low,,,,,,TRUE,,,,FALSE,189197.8,189197.5,187950.96,188167.5,187967.56,189003.123,1,40,,
trial,html.Screen,6_7_0,2023-11-15T20:43:04.232Z,,,1,-1.09092852,-1.013890239,,TRUE,hh,1723.377,response,0.944176236,0.95,-0.95,0.765206105,0.95,-0.95,high,high,,ISIC_0033799.JPG,,ISIC_0065521.JPG,167,TRUE,hh,keypress(i),0,FALSE,190726.9,190726.5,188986.289,189197.9,189003.123,190522.569,1,40,8,
sequence,flow.Sequence,6_7,2023-11-15T20:43:04.233Z,,,,,,,,,1723.377,completion,,,,,,,high,high,,,,,,TRUE,,,,FALSE,190727.4,190726.5,188986.289,189197.9,189003.123,190522.569,1,40,,
trial,html.Screen,6_8_0,2023-11-15T20:43:05.448Z,,,1,-1.09092852,-1.013890239,,TRUE,hh,1420.131,response,0.874521339,0.95,-0.95,0.75231635,0.95,-0.95,high,high,,ISIC_0033799.JPG,,ISIC_0054677.JPG,167,TRUE,hh,keypress(i),0,FALSE,191943,191942.7,190505.827,190727.6,190522.569,191741.55,1,40,9,
sequence,flow.Sequence,6_8,2023-11-15T20:43:05.449Z,,,,,,,,,1420.131,completion,,,,,,,high,high,,,,,,TRUE,,,,FALSE,191943.5,191942.7,190505.827,190727.5,190522.569,191741.55,1,40,,
trial,html.Screen,6_9_0,2023-11-15T20:43:08.488Z,,,1,0.987379433,-0.799107788,,TRUE,lh,3241.15,response,-0.84874291,0.95,-0.95,0.97782578,0.95,-0.95,low,high,,ISIC_0013498.JPG,,ISIC_4554863.JPG,28,TRUE,lh,keypress(e),0,FALSE,194982.9,194982.7,191724.998,191943.7,191741.55,194780.73,1,40,10,
sequence,flow.Sequence,6_9,2023-11-15T20:43:08.489Z,,,,,,,,,3241.15,completion,,,,,,,low,high,,,,,,TRUE,,,,FALSE,194983.4,194982.7,191724.998,191943.7,191741.55,194780.73,1,40,,
trial,html.Screen,6_10_0,2023-11-15T20:43:09.599Z,,,1,-0.93587252,-0.993877662,,TRUE,hh,1312.97,response,1.057056871,0.95,-0.95,0.83168507,0.95,-0.95,high,high,,ISIC_3365692.JPG,,ISIC_0059294.JPG,167,TRUE,hh,keypress(i),0,FALSE,196093.8,196093.7,194764.188,194983.6,194780.73,195899.834,1,40,11,
sequence,flow.Sequence,6_10,2023-11-15T20:43:09.599Z,,,,,,,,,1312.97,completion,,,,,,,high,high,,,,,,TRUE,,,,FALSE,196093.9,196093.7,194764.188,194983.6,194780.73,195899.834,1,40,,
trial,html.Screen,6_11_0,2023-11-15T20:43:15.376Z,,,1,-0.978645773,-1.118905639,,TRUE,hh,5970.866,response,0.905339613,0.95,-0.95,0.793506959,0.95,-0.95,high,high,,ISIC_3926019.JPG,,ISIC_0010729.JPG,167,TRUE,hh,keypress(i),0,FALSE,201871.1,201870.7,195883.163,196094,195899.834,201677.591,1,40,12,
sequence,flow.Sequence,6_11,2023-11-15T20:43:15.377Z,,,,,,,,,5970.866,completion,,,,,,,high,high,,,,,,TRUE,,,,FALSE,201871.5,201870.7,195883.163,196094,195899.834,201677.591,1,40,,
trial,html.Screen,6_12_0,2023-11-15T20:43:20.361Z,,,1,-0.797711328,-0.923711825,,TRUE,hh,5177.509,response,1.052206221,0.95,-0.95,0.753734106,0.95,-0.95,high,high,,ISIC_1023354.JPG,,ISIC_0013588.JPG,167,TRUE,hh,keypress(i),0,FALSE,206855.4,206855.1,201660.996,201871.9,201677.591,206653.821,1,40,13,
sequence,flow.Sequence,6_12,2023-11-15T20:43:20.361Z,,,,,,,,,5177.509,completion,,,,,,,high,high,,,,,,TRUE,,,,FALSE,206855.9,206855.1,201660.996,201871.8,201677.591,206653.821,1,40,,
trial,html.Screen,6_13_0,2023-11-15T20:43:21.720Z,,,1,-0.78779395,0.841503278,,TRUE,hl,1560.979,response,1.012239822,0.95,-0.95,-0.750522854,0.95,-0.95,high,low,,ISIC_0067308.JPG,,ISIC_0033802.JPG,26,TRUE,hl,keypress(j),0,FALSE,208215.1,208214.8,206637.24,206856.1,206653.821,208023.427,1,40,14,
sequence,flow.Sequence,6_13,2023-11-15T20:43:21.721Z,,,,,,,,,1560.979,completion,,,,,,,high,low,,,,,,TRUE,,,,FALSE,208215.6,208214.8,206637.24,206856.1,206653.821,208023.427,1,40,,
trial,html.Screen,6_14_0,2023-11-15T20:43:24.942Z,,,1,0.78589811,1.098700383,,TRUE,ll,3413.773,response,-0.811981203,0.95,-0.95,-0.760585865,0.95,-0.95,low,low,,ISIC_0059733.JPG,,ISIC_6801680.JPG,142,TRUE,ll,keypress(f),0,FALSE,211437.2,211437.2,208006.708,208215.8,208023.427,211246.08,1,40,15,
sequence,flow.Sequence,6_14,2023-11-15T20:43:24.943Z,,,,,,,,,3413.773,completion,,,,,,,low,low,,,,,,TRUE,,,,FALSE,211437.4,211437.2,208006.708,208215.7,208023.427,211246.08,1,40,,
trial,html.Screen,6_15_0,2023-11-15T20:43:29.440Z,,,1,-0.858338058,0.954061222,,TRUE,hl,4688.72,response,0.780994986,0.95,-0.95,-0.849386112,0.95,-0.95,high,low,,ISIC_8922893.JPG,,ISIC_7450481.JPG,26,TRUE,hl,keypress(j),0,FALSE,215935.1,215934.8,211212.924,211437.4,211246.08,215738.354,1,40,16,
sequence,flow.Sequence,6_15,2023-11-15T20:43:29.441Z,,,,,,,,,4688.72,completion,,,,,,,high,low,,,,,,TRUE,,,,FALSE,215935.6,215934.8,211212.924,211437.4,211246.08,215738.354,1,40,,
trial,html.Screen,6_16_0,2023-11-15T20:43:30.680Z,,,1,0.880017316,0.77705133,,TRUE,ll,1436.646,response,-0.882613178,0.95,-0.95,-1.119782074,0.95,-0.95,low,low,,ISIC_0030852.JPG,,ISIC_7137995.JPG,142,TRUE,ll,keypress(f),0,FALSE,217175.3,217175,215721.454,215935.8,215738.354,216973.926,1,40,17,
sequence,flow.Sequence,6_16,2023-11-15T20:43:30.681Z,,,,,,,,,1436.646,completion,,,,,,,low,low,,,,,,TRUE,,,,FALSE,217175.8,217175,215721.454,215935.7,215738.354,216973.926,1,40,,
trial,html.Screen,6_17_0,2023-11-15T20:43:32.024Z,,,1,-0.964746249,-0.906935307,,TRUE,hh,1544.774,response,1.064498465,0.95,-0.95,0.80531371,0.95,-0.95,high,high,,ISIC_9896801.JPG,,ISIC_2007396.JPG,167,TRUE,hh,keypress(i),0,FALSE,218519.1,218518.7,216957.313,217176,216973.926,218326.71,1,40,18,
sequence,flow.Sequence,6_17,2023-11-15T20:43:32.025Z,,,,,,,,,1544.774,completion,,,,,,,high,high,,,,,,TRUE,,,,FALSE,218519.5,218518.7,216957.313,217176,216973.926,218326.71,1,40,,
trial,html.Screen,6_18_0,2023-11-15T20:43:33.087Z,,,1,-0.783635641,1.119792559,,TRUE,hl,1254.89,response,0.894761108,0.95,-0.95,-0.896096451,0.95,-0.95,high,low,,ISIC_0024961.JPG,,ISIC_6441128.JPG,26,TRUE,hl,keypress(j),0,FALSE,219581.7,219581.6,218310.062,218519.7,218326.71,219395.372,1,40,19,
sequence,flow.Sequence,6_18,2023-11-15T20:43:33.087Z,,,,,,,,,1254.89,completion,,,,,,,high,low,,,,,,TRUE,,,,FALSE,219581.9,219581.6,218310.062,218519.7,218326.71,219395.372,1,40,,
trial,html.Screen,6_19_0,2023-11-15T20:43:34.736Z,,,1,0.865516731,-0.929858042,,TRUE,lh,1835.228,response,-1.002626609,0.95,-0.95,1.091327591,0.95,-0.95,low,high,,ISIC_4603706.JPG,,ISIC_0033520.JPG,28,TRUE,lh,keypress(e),0,FALSE,221230.9,221230.6,219378.595,219582,219395.372,221031.906,1,40,20,
sequence,flow.Sequence,6_19,2023-11-15T20:43:34.737Z,,,,,,,,,1835.228,completion,,,,,,,low,high,,,,,,TRUE,,,,FALSE,221231.4,221230.6,219378.595,219582,219395.372,221031.906,1,40,,
trial,html.Screen,6_20_0,2023-11-15T20:43:36.720Z,,,1,-1.020990672,1.011651385,,TRUE,hl,2182.994,response,0.923557177,0.95,-0.95,-1.000808165,0.95,-0.95,high,low,,ISIC_0011995.JPG,,ISIC_8796632.JPG,26,TRUE,hl,keypress(j),0,FALSE,223215.3,223214.9,221015.319,221231.7,221031.906,223019.266,1,40,21,
sequence,flow.Sequence,6_20,2023-11-15T20:43:36.721Z,,,,,,,,,2182.994,completion,,,,,,,high,low,,,,,,TRUE,,,,FALSE,223215.8,223214.9,221015.319,221231.6,221031.906,223019.266,1,40,,
trial,html.Screen,6_21_0,2023-11-15T20:43:41.312Z,,,1,-1.08653334,1.054263531,,TRUE,hl,4787.534,response,1.021336533,0.95,-0.95,-1.08852436,0.95,-0.95,high,low,,ISIC_0034006.JPG,,ISIC_5434229.JPG,26,TRUE,hl,keypress(j),0,FALSE,227807.2,227806.8,223002.468,223216,223019.266,227611.465,1,40,22,
sequence,flow.Sequence,6_21,2023-11-15T20:43:41.313Z,,,,,,,,,4787.534,completion,,,,,,,high,low,,,,,,TRUE,,,,FALSE,227807.7,227806.8,223002.468,223215.9,223019.266,227611.465,1,40,,
trial,html.Screen,6_22_0,2023-11-15T20:43:43.136Z,,,1,-0.851370209,-0.86466863,,TRUE,hh,2019.335,response,0.794248768,0.95,-0.95,0.771109215,0.95,-0.95,high,high,,ISIC_1881133.JPG,,ISIC_3810274.JPG,167,TRUE,hh,keypress(i),0,FALSE,229631.1,229630.8,227594.692,227807.9,227611.465,229431.463,1,40,23,
sequence,flow.Sequence,6_22,2023-11-15T20:43:43.137Z,,,,,,,,,2019.335,completion,,,,,,,high,high,,,,,,TRUE,,,,FALSE,229631.6,229630.8,227594.692,227807.9,227611.465,229431.463,1,40,,
trial,html.Screen,6_23_0,2023-11-15T20:43:45.224Z,,,1,-0.990489579,0.774789798,,TRUE,hl,2287.037,response,0.809764442,0.95,-0.95,-1.005337148,0.95,-0.95,high,low,,ISIC_7030404.JPG,,ISIC_2379379.JPG,26,TRUE,hl,keypress(j),0,FALSE,231718.8,231718.5,229415.004,229631.9,229431.463,231518.929,1,40,24,
sequence,flow.Sequence,6_23,2023-11-15T20:43:45.225Z,,,,,,,,,2287.037,completion,,,,,,,high,low,,,,,,TRUE,,,,FALSE,231719.3,231718.5,229415.004,229631.8,229431.463,231518.929,1,40,,
trial,html.Screen,6_24_0,2023-11-15T20:43:49.704Z,,,1,1.125322099,1.108725659,,TRUE,ll,4679.771,response,-0.772660959,0.95,-0.95,-0.817110953,0.95,-0.95,low,low,,ISIC_0054954.JPG,,ISIC_0283506.JPG,142,TRUE,ll,keypress(f),0,FALSE,236199.1,236198.7,231502.359,231719.5,231518.929,235994.284,1,40,25,
sequence,flow.Sequence,6_24,2023-11-15T20:43:49.705Z,,,,,,,,,4679.771,completion,,,,,,,low,low,,,,,,TRUE,,,,FALSE,236199.5,236198.7,231502.359,231719.5,231518.929,235994.284,1,40,,
trial,html.Screen,6_25_0,2023-11-15T20:43:52.104Z,,,1,-1.010942598,-0.793609223,,TRUE,hh,2604.416,response,0.838746044,0.95,-0.95,1.124665218,0.95,-0.95,high,high,,ISIC_8253326.JPG,,ISIC_0014189.JPG,167,TRUE,hh,keypress(i),0,FALSE,238599,238598.7,235977.749,236199.8,235994.284,238398.977,1,40,26,
sequence,flow.Sequence,6_25,2023-11-15T20:43:52.105Z,,,,,,,,,2604.416,completion,,,,,,,high,high,,,,,,TRUE,,,,FALSE,238599.5,238598.7,235977.749,236199.7,235994.284,238398.977,1,40,,
trial,html.Screen,6_26_0,2023-11-15T20:43:57.329Z,,,1,0.862341423,-0.782830144,,TRUE,lh,5422.523,response,-1.065667321,0.95,-0.95,0.808254169,0.95,-0.95,low,high,,ISIC_2727016.JPG,,ISIC_0033985.JPG,28,TRUE,lh,keypress(e),0,FALSE,243821.5,243821.5,238382.354,238599.8,238398.977,243625.804,1,40,27,
sequence,flow.Sequence,6_26,2023-11-15T20:43:57.330Z,,,,,,,,,5422.523,completion,,,,,,,low,high,,,,,,TRUE,,,,FALSE,243821.8,243821.5,238382.354,238599.8,238398.977,243625.804,1,40,,
trial,html.Screen,6_27_0,2023-11-15T20:43:59.603Z,,,1,1.011596533,-0.82826336,,TRUE,lh,2468.996,response,-0.869932995,0.95,-0.95,0.888053332,0.95,-0.95,low,high,,ISIC_1069587.JPG,,ISIC_8617084.JPG,28,TRUE,lh,keypress(e),0,FALSE,246095.1,246094.8,243609.237,243821.8,243625.804,245896.923,1,40,28,
sequence,flow.Sequence,6_27,2023-11-15T20:43:59.603Z,,,,,,,,,2468.996,completion,,,,,,,low,high,,,,,,TRUE,,,,FALSE,246095.5,246094.8,243609.237,243821.8,243625.804,245896.923,1,40,,
trial,html.Screen,6_28_0,2023-11-15T20:44:00.890Z,,,1,0.880017316,0.77705133,,TRUE,ll,1484.677,response,-1.048330701,0.95,-0.95,-0.80866255,0.95,-0.95,low,low,,ISIC_0030852.JPG,,ISIC_0030508.JPG,142,TRUE,ll,keypress(f),0,FALSE,247381.7,247381.6,245880.368,246095.8,245896.923,247182.876,1,40,29,
sequence,flow.Sequence,6_28,2023-11-15T20:44:00.890Z,,,,,,,,,1484.677,completion,,,,,,,low,low,,,,,,TRUE,,,,FALSE,247382,247381.6,245880.368,246095.8,245896.923,247182.876,1,40,,
trial,html.Screen,6_29_0,2023-11-15T20:44:03.529Z,,,1,1.04704908,0.926738555,,TRUE,ll,2838.524,response,-0.999191034,0.95,-0.95,-0.924262906,0.95,-0.95,low,low,,ISIC_0058649.JPG,,ISIC_7795549.JPG,142,TRUE,ll,keypress(f),0,FALSE,250021.5,250021.4,247166.107,247382,247182.876,249821.147,1,40,30,
sequence,flow.Sequence,6_29,2023-11-15T20:44:03.529Z,,,,,,,,,2838.524,completion,,,,,,,low,low,,,,,,TRUE,,,,FALSE,250021.6,250021.4,247166.107,247382,247182.876,249821.147,1,40,,
trial,html.Screen,6_30_0,2023-11-15T20:44:04.761Z,,,1,-0.857945126,0.963317297,,TRUE,hl,1432.353,response,0.791102468,0.95,-0.95,-0.797597702,0.95,-0.95,high,low,,ISIC_0067172.JPG,,ISIC_5813642.JPG,26,TRUE,hl,keypress(j),0,FALSE,251253.5,251253.5,249804.564,250021.6,249821.147,251057.072,1,40,31,
sequence,flow.Sequence,6_30,2023-11-15T20:44:04.762Z,,,,,,,,,1432.353,completion,,,,,,,high,low,,,,,,TRUE,,,,FALSE,251253.7,251253.5,249804.564,250021.6,249821.147,251057.072,1,40,,
trial,html.Screen,6_31_0,2023-11-15T20:44:06.123Z,,,1,1.016457684,-0.812062654,,TRUE,lh,1557.828,response,-0.869932995,0.95,-0.95,0.888053332,0.95,-0.95,low,high,,ISIC_6002694.JPG,,ISIC_8617084.JPG,28,TRUE,lh,keypress(e),0,FALSE,252615.2,252614.9,251040.259,251253.8,251057.072,252409.503,1,40,32,
sequence,flow.Sequence,6_31,2023-11-15T20:44:06.124Z,,,,,,,,,1557.828,completion,,,,,,,low,high,,,,,,TRUE,,,,FALSE,252615.6,252614.9,251040.259,251253.8,251057.072,252409.503,1,40,,
trial,html.Screen,6_32_0,2023-11-15T20:44:07.321Z,,,1,0.783371001,-0.931558809,,TRUE,lh,1403.697,response,-0.869932995,0.95,-0.95,0.888053332,0.95,-0.95,low,high,,ISIC_3826102.JPG,,ISIC_8617084.JPG,28,TRUE,lh,keypress(e),0,FALSE,253813.2,253813.2,252393.049,252615.9,252409.503,253611.841,1,40,33,
sequence,flow.Sequence,6_32,2023-11-15T20:44:07.321Z,,,,,,,,,1403.697,completion,,,,,,,low,high,,,,,,TRUE,,,,FALSE,253813.4,253813.2,252393.049,252615.9,252409.503,253611.841,1,40,,
trial,html.Screen,6_33_0,2023-11-15T20:44:08.627Z,,,1,-0.778458387,0.964151481,,TRUE,hl,1506.959,response,0.862341423,0.95,-0.95,-0.782830144,0.95,-0.95,high,low,,ISIC_0011924.JPG,,ISIC_2727016.JPG,26,TRUE,hl,keypress(j),0,FALSE,255119.2,255118.8,253595.395,253813.4,253611.841,254914.433,1,40,34,
sequence,flow.Sequence,6_33,2023-11-15T20:44:08.628Z,,,,,,,,,1506.959,completion,,,,,,,high,low,,,,,,TRUE,,,,FALSE,255119.7,255118.8,253595.395,253813.4,253611.841,254914.433,1,40,,
trial,html.Screen,6_34_0,2023-11-15T20:44:11.091Z,,,1,0.926393144,0.915966404,,TRUE,ll,2668.367,response,-1.005193232,0.95,-0.95,-0.772457105,0.95,-0.95,low,low,,ISIC_0053617.JPG,,ISIC_0026943.JPG,142,TRUE,ll,keypress(f),0,FALSE,257583.1,257582.8,254897.816,255120,254914.433,257385.843,1,40,35,
sequence,flow.Sequence,6_34,2023-11-15T20:44:11.091Z,,,,,,,,,2668.367,completion,,,,,,,low,low,,,,,,TRUE,,,,FALSE,257583.5,257582.8,254897.816,255119.9,254914.433,257385.843,1,40,,
trial,html.Screen,6_35_0,2023-11-15T20:44:12.315Z,,,1,-0.882613178,-1.119782074,,TRUE,hh,1420.657,response,0.98664399,0.95,-0.95,0.929428137,0.95,-0.95,high,high,,ISIC_7137995.JPG,,ISIC_0072953.JPG,167,TRUE,hh,keypress(i),0,FALSE,258806.8,258806.5,257369.16,257583.8,257385.843,258604.876,1,40,36,
sequence,flow.Sequence,6_35,2023-11-15T20:44:12.315Z,,,,,,,,,1420.657,completion,,,,,,,high,high,,,,,,TRUE,,,,FALSE,258807.2,258806.5,257369.16,257583.7,257385.843,258604.876,1,40,,
trial,html.Screen,6_36_0,2023-11-15T20:44:13.602Z,,,1,0.938866085,-0.795339487,,TRUE,lh,1488.924,response,-0.897927679,0.95,-0.95,0.925374811,0.95,-0.95,low,high,,ISIC_9291926.JPG,,ISIC_4208361.JPG,28,TRUE,lh,keypress(e),0,FALSE,260093.9,260093.8,258588.29,258807.5,258604.876,259890.689,1,40,37,
sequence,flow.Sequence,6_36,2023-11-15T20:44:13.602Z,,,,,,,,,1488.924,completion,,,,,,,low,high,,,,,,TRUE,,,,FALSE,260094.2,260093.8,258588.29,258807.4,258604.876,259890.689,1,40,,
trial,html.Screen,6_37_0,2023-11-15T20:44:14.931Z,,,1,1.134570504,0.885200973,,TRUE,ll,1531.911,response,-0.978645773,0.95,-0.95,-1.118905639,0.95,-0.95,low,low,,ISIC_0027149.JPG,,ISIC_3926019.JPG,142,TRUE,ll,keypress(f),0,FALSE,261422.9,261422.6,259874.245,260094.3,259890.689,261226.82,1,40,38,
sequence,flow.Sequence,6_37,2023-11-15T20:44:14.931Z,,,,,,,,,1531.911,completion,,,,,,,low,low,,,,,,TRUE,,,,FALSE,261423.5,261422.6,259874.245,260094.2,259890.689,261226.82,1,40,,
trial,html.Screen,6_38_0,2023-11-15T20:44:16.211Z,,,1,0.944066354,0.797905792,,TRUE,ll,1475.88,response,-0.936668461,0.95,-0.95,-1.058142124,0.95,-0.95,low,low,,ISIC_0060696.JPG,,ISIC_5046340.JPG,142,TRUE,ll,keypress(f),0,FALSE,262703,262702.7,261210.2,261423.8,261226.82,262512.732,1,40,39,
sequence,flow.Sequence,6_38,2023-11-15T20:44:16.211Z,,,,,,,,,1475.88,completion,,,,,,,low,low,,,,,,TRUE,,,,FALSE,262703.5,262702.7,261210.2,261423.7,261226.82,262512.732,1,40,,
trial,html.Screen,6_39_0,2023-11-15T20:44:18.635Z,,,1,0.763889524,-0.77804121,,TRUE,lh,2613.668,response,-1.075103648,0.95,-0.95,1.143906455,0.95,-0.95,low,high,,ISIC_0026516.JPG,,ISIC_0064406.JPG,28,TRUE,lh,keypress(e),0,FALSE,265126.9,265126.4,262495.761,262703.8,262512.732,264933.909,1,40,40,
sequence,flow.Sequence,6_39,2023-11-15T20:44:18.635Z,,,,,,,,,2613.668,completion,,,,,,,low,high,,,,,,TRUE,,,,FALSE,265127.3,265126.4,262495.761,262703.7,262512.732,264933.909,1,40,,
practice_loop,flow.Loop,6,2023-11-15T20:44:18.635Z,,,,,,,,,114498.213,completion,,,,,,,,,,,,,,TRUE,,,,FALSE,265127.6,265126.4,150611.585,150831,150628.187,264933.909,1,40,,
stair_instructions,html.Screen,7,2023-11-15T20:44:19.979Z,,,,,,,,,1535.991,response,,,,,,,,,,,,,,,continue,keypress(Space),,,266470.8,266469.9,264917.342,265127.8,264933.909,266269.78,,,,
trial,html.Screen,8_0_0,2023-11-15T20:44:30.760Z,,,2,0.007072553,0.004999514,,,,10787.838,timeout,0.834542297,0.95,-0.95,1.013093884,0.95,-0.95,high,high,,ISIC_6124481.JPG,,ISIC_1241817.JPG,167,FALSE,,,0,TRUE,277252.3,277252.2,266253.206,266471.1,266269.78,277057.618,1,40,1,
sequence,flow.Sequence,8_0,2023-11-15T20:44:30.760Z,,,,,,,,,10982.42,completion,,,,,,,high,high,,,,,,FALSE,,,,TRUE,277252.4,277252.2,266253.206,266471.1,266269.78,277057.618,1,40,,
trial,html.Screen,8_1_0,2023-11-15T20:44:36.713Z,,,2,0.005067913,-0.000971487,,TRUE,hl,6147.382,response,0.787116214,0.95,-0.95,-0.84293298,0.95,-0.95,high,low,,ISIC_9848743.JPG,,ISIC_3439215.JPG,26,FALSE,hl,keypress(j),0,TRUE,283205.2,283205,277041.007,277252.4,277057.618,283002.31,1,40,2,
sequence,flow.Sequence,8_1,2023-11-15T20:44:36.713Z,,,,,,,,,6147.382,completion,,,,,,,high,low,,,,,,FALSE,,,,TRUE,283205.3,283205,277041.007,277252.4,277057.618,283002.31,1,40,,
trial,html.Screen,8_2_0,2023-11-15T20:44:46.731Z,,,2,0.060886768,0.020638404,,FALSE,hl,10220.69,response,0.938866085,0.95,-0.95,-0.795339487,0.95,-0.95,high,low,,ISIC_0640806.JPG,,ISIC_9291926.JPG,26,FALSE,lh,keypress(e),0,TRUE,293223.3,293223,282985.811,283205.3,283002.31,293021.854,1,40,3,
sequence,flow.Sequence,8_2,2023-11-15T20:44:46.732Z,,,,,,,,,10220.69,completion,,,,,,,high,low,,,,,,FALSE,,,,TRUE,293223.8,293223,282985.811,283205.3,283002.31,293021.854,1,40,,
trial,html.Screen,8_3_0,2023-11-15T20:44:56.244Z,,,2,0.038998803,0.014321227,,FALSE,lh,9711.346,response,-0.853469137,1,-0.95,1.039755805,0.95,-1,low,high,,ISIC_0064669.JPG,,ISIC_0056788.JPG,28,FALSE,hh,keypress(i),0,TRUE,302733.3,302733.2,293005.225,293224.1,293021.854,302540.379,1,40,4,
sequence,flow.Sequence,8_3,2023-11-15T20:44:56.244Z,,,,,,,,,9711.346,completion,,,,,,,low,high,,,,,,FALSE,,,,TRUE,302733.5,302733.2,293005.225,293224,293021.854,302540.379,1,40,,
trial,html.Screen,8_4_0,2023-11-15T20:45:04.917Z,,,2,-0.018804747,0.028834693,,TRUE,hl,8865.921,response,0.887838745,0.95,-0.95,-0.754509665,0.9,-0.95,high,low,,ISIC_0014157.JPG,,ISIC_1488727.JPG,26,FALSE,hl,keypress(j),0,TRUE,311406.4,311406.3,302523.765,302733.6,302540.379,311207.245,1,40,5,
sequence,flow.Sequence,8_4,2023-11-15T20:45:04.917Z,,,,,,,,,8865.921,completion,,,,,,,high,low,,,,,,FALSE,,,,TRUE,311406.4,311406.3,302523.765,302733.6,302540.379,311207.245,1,40,,
trial,html.Screen,8_5_0,2023-11-15T20:45:15.705Z,,,2,-0.054638698,0.044872476,,,,10787.66,timeout,-0.795924173,0.95,-0.95,-1.054174227,0.9,-0.95,low,low,,ISIC_6722934.JPG,,ISIC_6646939.JPG,142,FALSE,,,0,TRUE,322194.2,322193.9,311190.621,311406.5,311207.245,321994.905,1,40,6,
sequence,flow.Sequence,8_5,2023-11-15T20:45:15.705Z,,,,,,,,,10986.655,completion,,,,,,,low,low,,,,,,FALSE,,,,TRUE,322194.8,322193.9,311190.621,311406.5,311207.245,321994.905,1,40,,
trial,html.Screen,8_6_0,2023-11-15T20:45:22.388Z,,,2,-0.014948283,0.066163086,,FALSE,hl,6882.595,response,1.016457684,0.95,-0.95,-0.812062654,0.9,-0.95,high,low,,ISIC_6815524.JPG,,ISIC_6002694.JPG,26,FALSE,ll,keypress(f),0,TRUE,328877.6,328877.5,321978.167,322195,321994.905,328674.446,1,40,7,
sequence,flow.Sequence,8_6,2023-11-15T20:45:22.388Z,,,,,,,,,6882.595,completion,,,,,,,high,low,,,,,,FALSE,,,,TRUE,328877.7,328877.5,321978.167,322194.8,321994.905,328674.446,1,40,,
trial,html.Screen,8_7_0,2023-11-15T20:45:27.606Z,,,2,-0.002103874,0.057042752,,TRUE,hh,5420.454,response,1.139223468,1,-0.95,0.710085291,0.9,-0.733286159,high,high,,ISIC_3596927.JPG,,ISIC_0071875.JPG,165,FALSE,hh,keypress(i),0,TRUE,334095.2,334094.9,328657.958,328877.7,328674.446,333901.569,1,40,8,
sequence,flow.Sequence,8_7,2023-11-15T20:45:27.606Z,,,,,,,,,5420.454,completion,,,,,,,high,high,,,,,,FALSE,,,,TRUE,334095.7,334094.9,328657.958,328877.7,328674.446,333901.569,1,40,,
trial,html.Screen,8_8_0,2023-11-15T20:45:35.878Z,,,2,-0.053372308,-0.029971873,,FALSE,ll,8465.431,response,-0.89624055,1,-0.95,-0.747197446,0.87465438,-0.733286159,low,low,,ISIC_6562871.JPG,,ISIC_9278685.JPG,214,FALSE,hl,keypress(j),0,TRUE,342367.3,342367,333884.804,334095.8,333901.569,342167.362,1,40,9,
sequence,flow.Sequence,8_8,2023-11-15T20:45:35.878Z,,,,,,,,,8465.431,completion,,,,,,,low,low,,,,,,FALSE,,,,TRUE,342367.8,342367,333884.804,334095.8,333901.569,342167.362,1,40,,
trial,html.Screen,8_9_0,2023-11-15T20:45:46.655Z,,,2,-0.034823437,0.02368663,,,,10770.977,timeout,-0.964464333,1,-1,0.745333985,0.87465438,-0.733286159,low,high,,ISIC_0011099.JPG,,ISIC_0058046.JPG,32,FALSE,,,0,TRUE,353144.9,353144.8,342150.799,342368.1,342167.362,352938.339,1,40,10,
sequence,flow.Sequence,8_9,2023-11-15T20:45:46.655Z,,,,,,,,,10977.438,completion,,,,,,,low,high,,,,,,FALSE,,,,TRUE,353145,353144.8,342150.799,342368,342167.362,352938.339,1,40,,
trial,html.Screen,8_10_0,2023-11-15T20:45:54.881Z,,,2,-0.040191644,0.062258267,,TRUE,lh,8428.961,response,-0.957920932,1,-1,1.01474871,0.87465438,-0.733286159,low,high,,ISIC_6207688.JPG,,ISIC_8124482.JPG,32,FALSE,lh,keypress(e),0,TRUE,361367.5,361367.3,352921.833,353145.1,352938.339,361171.003,1,40,11,
sequence,flow.Sequence,8_10,2023-11-15T20:45:54.881Z,,,,,,,,,8428.961,completion,,,,,,,low,high,,,,,,FALSE,,,,TRUE,361368,361367.3,352921.833,353145,352938.339,361171.003,1,40,,
trial,html.Screen,8_11_0,2023-11-15T20:46:00.160Z,,,2,0.054480861,-0.024048708,,FALSE,ll,5475.497,response,-1.00724844,1,-1,-0.849381725,0.87465438,-0.733286159,low,low,,ISIC_4606646.JPG,,ISIC_0030219.JPG,200,FALSE,hl,keypress(j),0,TRUE,366646.7,366646.5,361154.478,361368.3,361171.003,366448.038,1,40,12,
sequence,flow.Sequence,8_11,2023-11-15T20:46:00.160Z,,,,,,,,,5475.497,completion,,,,,,,low,low,,,,,,FALSE,,,,TRUE,366647.2,366646.5,361154.478,361368.2,361171.003,366448.038,1,40,,
trial,html.Screen,8_12_0,2023-11-15T20:46:10.937Z,,,2,-0.034823437,0.02368663,,,,10770.83,timeout,1.081989221,1,-1.05,0.722533094,0.87465438,-0.683286159,high,high,,ISIC_0011099.JPG,,ISIC_0029729.JPG,170,FALSE,,,0,TRUE,377423.9,377423.6,366431.344,366647.5,366448.038,377218.868,1,40,13,
sequence,flow.Sequence,8_12,2023-11-15T20:46:10.937Z,,,,,,,,,10975.562,completion,,,,,,,high,high,,,,,,FALSE,,,,TRUE,377424.5,377423.6,366431.344,366647.4,366448.038,377218.868,1,40,,
trial,html.Screen,8_13_0,2023-11-15T20:46:20.616Z,,,2,0.03972838,-0.022870113,,FALSE,hl,9884.132,response,0.887838745,1,-1.05,-0.754509665,0.87465438,-0.683286159,high,low,,ISIC_0054073.JPG,,ISIC_1488727.JPG,44,FALSE,lh,keypress(e),0,TRUE,387103.2,387103,377202.456,377424.7,377218.868,386904.374,1,40,14,
sequence,flow.Sequence,8_13,2023-11-15T20:46:20.617Z,,,,,,,,,9884.132,completion,,,,,,,high,low,,,,,,FALSE,,,,TRUE,387103.8,387103,377202.456,377424.7,377218.868,386904.374,1,40,,
trial,html.Screen,8_14_0,2023-11-15T20:46:26.552Z,,,2,-0.024537615,0.043699343,,FALSE,ll,6134.626,response,-0.862684931,1.05,-1.05,-0.891940292,0.87465438,-0.733286159,low,low,,ISIC_0056444.JPG,,ISIC_0026371.JPG,181,FALSE,hl,keypress(j),0,TRUE,393039.4,393039,386887.866,387104,386904.374,392866.265,1,40,15,
sequence,flow.Sequence,8_14,2023-11-15T20:46:26.553Z,,,,,,,,,6134.626,completion,,,,,,,low,low,,,,,,FALSE,,,,TRUE,393039.9,393039,386887.866,387104,386904.374,392866.265,1,40,,
trial,html.Screen,8_15_0,2023-11-15T20:46:35.768Z,,,2,0.024788022,-0.068776175,,FALSE,ll,9388.535,response,-1.187667146,1.05,-1.1,-0.756201204,0.87465438,-0.733286159,low,low,,ISIC_0031745.JPG,,ISIC_8207974.JPG,152,FALSE,hl,keypress(j),0,TRUE,402255.1,402254.8,392849.535,393040.2,392866.265,402050.612,1,40,16,
sequence,flow.Sequence,8_15,2023-11-15T20:46:35.769Z,,,,,,,,,9388.535,completion,,,,,,,low,low,,,,,,FALSE,,,,TRUE,402255.6,402254.8,392849.535,393040.1,392866.265,402050.612,1,40,,
trial,html.Screen,8_16_0,2023-11-15T20:46:45.696Z,,,2,-0.073710482,0.072532031,,FALSE,hl,10131.788,response,1.011596533,1.05,-1.15,-0.82826336,0.87465438,-0.774070748,high,low,,ISIC_0002862.JPG,,ISIC_1069587.JPG,31,FALSE,hh,keypress(i),0,TRUE,412182.7,412182.4,402033.98,402255.8,402050.612,411986.659,1,40,17,
sequence,flow.Sequence,8_16,2023-11-15T20:46:45.696Z,,,,,,,,,10131.788,completion,,,,,,,high,low,,,,,,FALSE,,,,TRUE,412183.1,412182.4,402033.98,402255.8,402050.612,411986.659,1,40,,
trial,html.Screen,8_17_0,2023-11-15T20:46:52.432Z,,,2,0.050997051,0.074482096,,FALSE,hh,6932.341,response,1.20151061,1.05,-1.15,1.071085024,0.87465438,-0.824070748,high,high,,ISIC_0009975.JPG,,ISIC_0072496.JPG,159,FALSE,lh,keypress(e),0,TRUE,418919.3,418919,411969.962,412183.2,411986.659,418716.314,1,40,18,
sequence,flow.Sequence,8_17,2023-11-15T20:46:52.433Z,,,,,,,,,6932.341,completion,,,,,,,high,high,,,,,,FALSE,,,,TRUE,418919.9,418919,411969.962,412183.2,411986.659,418716.314,1,40,,
trial,html.Screen,8_18_0,2023-11-15T20:47:02.163Z,,,2,0.006955534,-0.031010092,,FALSE,lh,9930.386,response,-1.011737553,1,-1.05,0.850053022,0.891340779,-0.724070748,low,high,,ISIC_0011177.JPG,,ISIC_2998367.JPG,29,FALSE,hl,keypress(j),0,TRUE,428647.1,428646.7,418699.705,418920.1,418716.314,428452.057,1,40,19,
sequence,flow.Sequence,8_18,2023-11-15T20:47:02.163Z,,,,,,,,,9930.386,completion,,,,,,,low,high,,,,,,FALSE,,,,TRUE,428647.6,428646.7,418699.705,418920,418716.314,428452.057,1,40,,
trial,html.Screen,8_19_0,2023-11-15T20:47:11.499Z,,,2,-0.036721843,-0.070057655,,FALSE,ll,9530.743,response,-1.117640635,1,-1.1,-0.677070525,0.941340779,-0.724070748,low,low,,ISIC_7212271.JPG,,ISIC_0053572.JPG,152,FALSE,hl,keypress(j),0,TRUE,437983.1,437982.8,428435.295,428647.8,428452.057,437786.769,1,40,20,
sequence,flow.Sequence,8_19,2023-11-15T20:47:11.499Z,,,,,,,,,9530.743,completion,,,,,,,low,low,,,,,,FALSE,,,,TRUE,437983.6,437982.8,428435.295,428647.8,428452.057,437786.769,1,40,,
trial,html.Screen,8_20_0,2023-11-15T20:47:21.402Z,,,2,-0.053167291,0.007488393,,FALSE,lh,10099.731,response,-1.109771604,0.95,-1.1,0.726994437,0.891340779,-0.674070748,low,high,,ISIC_4177043.JPG,,ISIC_0000139.JPG,22,FALSE,hl,keypress(j),0,TRUE,447886.9,447886.5,437770.137,437983.9,437786.769,447689.352,1,40,21,
sequence,flow.Sequence,8_20,2023-11-15T20:47:21.403Z,,,,,,,,,10099.731,completion,,,,,,,low,high,,,,,,FALSE,,,,TRUE,447887.3,447886.5,437770.137,437983.9,437786.769,447689.352,1,40,,
trial,html.Screen,8_21_0,2023-11-15T20:47:29.267Z,,,2,-0.002103874,0.057042752,,FALSE,lh,8061.748,response,-0.957920932,0.9,-1.1,1.01474871,0.891340779,-0.624070748,low,high,,ISIC_3596927.JPG,,ISIC_8124482.JPG,22,FALSE,hl,keypress(j),0,TRUE,455751.4,455751.1,447672.717,447887.6,447689.352,455554.566,1,40,22,
sequence,flow.Sequence,8_21,2023-11-15T20:47:29.268Z,,,,,,,,,8061.748,completion,,,,,,,low,high,,,,,,FALSE,,,,TRUE,455752,455751.1,447672.717,447887.5,447689.352,455554.566,1,40,,
trial,html.Screen,8_22_0,2023-11-15T20:47:36.185Z,,,2,-0.011231072,0.046904736,,FALSE,lh,7114.334,response,-0.957920932,0.85,-1.1,1.01474871,0.891340779,-0.574070748,low,high,,ISIC_0068184.JPG,,ISIC_8124482.JPG,22,FALSE,hl,keypress(j),0,TRUE,462669,462668.9,455538.065,455752.1,455554.566,462468.027,1,40,23,
sequence,flow.Sequence,8_22,2023-11-15T20:47:36.185Z,,,,,,,,,7114.334,completion,,,,,,,low,high,,,,,,FALSE,,,,TRUE,462669.1,462668.9,455538.065,455752.1,455554.566,462468.027,1,40,,
trial,html.Screen,8_23_0,2023-11-15T20:47:43.187Z,,,2,0.032477028,0.024996863,,FALSE,lh,7202.773,response,-1.233143964,0.8,-1.1,0.96911439,0.891340779,-0.524070748,low,high,,ISIC_7266462.JPG,,ISIC_7877488.JPG,22,FALSE,hl,keypress(j),0,TRUE,469671.1,469670.8,462451.525,462669.2,462468.027,469482.276,1,40,24,
sequence,flow.Sequence,8_23,2023-11-15T20:47:43.187Z,,,,,,,,,7202.773,completion,,,,,,,low,high,,,,,,FALSE,,,,TRUE,469671.6,469670.8,462451.525,462669.2,462468.027,469482.276,1,40,,
trial,html.Screen,8_24_0,2023-11-15T20:47:44.881Z,,,2,0.050997051,0.074482096,,FALSE,lh,1883.124,response,-1.269550955,0.75,-1.1,0.964109968,0.891340779,-0.474070748,low,high,,ISIC_0009975.JPG,,ISIC_0025841.JPG,22,FALSE,hl,keypress(j),0,TRUE,471365.5,471365.4,469448.458,469671.8,469482.276,471168.494,1,40,25,
sequence,flow.Sequence,8_24,2023-11-15T20:47:44.881Z,,,,,,,,,1883.124,completion,,,,,,,low,high,,,,,,FALSE,,,,TRUE,471365.7,471365.4,469448.458,469671.7,469482.276,471168.494,1,40,,
trial,html.Screen,8_25_0,2023-11-15T20:47:47.377Z,,,2,-0.00923425,-0.062719088,,FALSE,ll,2693.006,response,-0.959758765,0.75,-1.15,-0.555702079,0.941340779,-0.474070748,low,low,,ISIC_0053760.JPG,,ISIC_7534592.JPG,173,FALSE,hl,keypress(j),0,TRUE,473861.7,473861.5,471151.564,471365.8,471168.494,473656.432,1,40,26,
sequence,flow.Sequence,8_25,2023-11-15T20:47:47.378Z,,,,,,,,,2693.006,completion,,,,,,,low,low,,,,,,FALSE,,,,TRUE,473861.9,473861.5,471151.564,471365.7,471168.494,473656.432,1,40,,
trial,html.Screen,8_26_0,2023-11-15T20:47:54.732Z,,,2,-0.059471106,0.067829217,,FALSE,hh,7556.968,response,0.630703273,0.75,-1.15,0.983748462,0.941340779,-0.566386302,high,high,,ISIC_0015631.JPG,,ISIC_0030784.JPG,222,FALSE,lh,keypress(e),0,TRUE,481213.6,481213.4,473639.897,473862,473656.432,481020.932,1,40,27,
sequence,flow.Sequence,8_26,2023-11-15T20:47:54.732Z,,,,,,,,,7556.968,completion,,,,,,,high,high,,,,,,FALSE,,,,TRUE,481213.8,481213.4,473639.897,473862,473656.432,481020.932,1,40,,
trial,html.Screen,8_27_0,2023-11-15T20:47:58.939Z,,,2,-0.036721843,-0.070057655,,FALSE,hl,4400.168,response,0.839031548,0.8,-1.15,-0.690409441,0.941340779,-0.566386302,high,low,,ISIC_7212271.JPG,,ISIC_5481211.JPG,94,FALSE,lh,keypress(e),0,TRUE,485421.2,485421.1,481004.28,481213.8,481020.932,485228.971,1,40,28,
sequence,flow.Sequence,8_27,2023-11-15T20:47:58.940Z,,,,,,,,,4400.168,completion,,,,,,,high,low,,,,,,FALSE,,,,TRUE,485421.3,485421.1,481004.28,481213.8,481020.932,485228.971,1,40,,
trial,html.Screen,8_28_0,2023-11-15T20:48:01.429Z,,,2,0.03972838,-0.022870113,,FALSE,hh,2681.429,response,0.874521339,0.85,-1.15,0.75231635,0.941340779,-0.616386302,high,high,,ISIC_0054073.JPG,,ISIC_0054677.JPG,200,FALSE,lh,keypress(e),0,TRUE,487910.8,487910.4,485212.254,485421.4,485228.971,487717.299,1,40,29,
sequence,flow.Sequence,8_28,2023-11-15T20:48:01.429Z,,,,,,,,,2681.429,completion,,,,,,,high,high,,,,,,FALSE,,,,TRUE,487911.2,487910.4,485212.254,485421.4,485228.971,487717.299,1,40,,
trial,html.Screen,8_29_0,2023-11-15T20:48:03.973Z,,,2,0.038998803,0.014321227,,FALSE,ll,2736.901,response,-0.965879289,0.9,-1.15,-0.496381278,0.818032406,-0.616386302,low,low,,ISIC_0064669.JPG,,ISIC_8979275.JPG,159,FALSE,hl,keypress(j),0,TRUE,490454.5,490454.2,487700.682,487911.5,487717.299,490255.5,1,40,30,
sequence,flow.Sequence,8_29,2023-11-15T20:48:03.973Z,,,,,,,,,2736.901,completion,,,,,,,low,low,,,,,,FALSE,,,,TRUE,490454.9,490454.2,487700.682,487911.4,487717.299,490255.5,1,40,,
trial,html.Screen,8_30_0,2023-11-15T20:48:09.189Z,,,2,-0.008791245,-0.061904187,,FALSE,hh,5415.3,response,1.042408629,0.9,-1.15,0.794223728,0.818032406,-0.616386302,high,high,,ISIC_7185913.JPG,,ISIC_0026738.JPG,222,FALSE,lh,keypress(e),0,TRUE,495671.1,495670.8,490238.915,490455,490255.5,495465.612,1,40,31,
sequence,flow.Sequence,8_30,2023-11-15T20:48:09.190Z,,,,,,,,,5415.3,completion,,,,,,,high,high,,,,,,FALSE,,,,TRUE,495671.6,495670.8,490238.915,490454.9,490255.5,495465.612,1,40,,
trial,html.Screen,8_31_0,2023-11-15T20:48:14.829Z,,,2,-0.014948283,0.066163086,,FALSE,hl,5844.888,response,0.95800966,0.95,-1.15,-0.633788061,0.818032406,-0.616386302,high,low,,ISIC_6815524.JPG,,ISIC_0026008.JPG,61,FALSE,lh,keypress(e),0,TRUE,501310.9,501310.5,495449.059,495671.8,495465.612,501109.834,1,40,32,
sequence,flow.Sequence,8_31,2023-11-15T20:48:14.830Z,,,,,,,,,5844.888,completion,,,,,,,high,low,,,,,,FALSE,,,,TRUE,501311.4,501310.5,495449.059,495671.7,495465.612,501109.834,1,40,,
trial,html.Screen,8_32_0,2023-11-15T20:48:19.725Z,,,2,-0.015906145,-0.029659885,,FALSE,ll,5096.866,response,-0.993562918,1,-1.15,-0.544637494,0.818032406,-0.666386302,low,low,,ISIC_0072564.JPG,,ISIC_0072773.JPG,147,FALSE,hl,keypress(j),0,TRUE,506207,506206.7,501093.301,501311.6,501109.834,506002.824,1,40,33,
sequence,flow.Sequence,8_32,2023-11-15T20:48:19.726Z,,,,,,,,,5096.866,completion,,,,,,,low,low,,,,,,FALSE,,,,TRUE,506207.5,506206.7,501093.301,501311.6,501109.834,506002.824,1,40,,
trial,html.Screen,8_33_0,2023-11-15T20:48:27.125Z,,,2,0.010785499,0.047801042,,FALSE,hl,7603.776,response,1.07319162,1,-1.15,-0.619555071,0.818032406,-0.666386302,high,low,,ISIC_0010500.JPG,,ISIC_9386509.JPG,45,FALSE,ll,keypress(f),0,TRUE,513606.9,513606.6,505986.243,506207.7,506002.824,513418.373,1,40,34,
sequence,flow.Sequence,8_33,2023-11-15T20:48:27.126Z,,,,,,,,,7603.776,completion,,,,,,,high,low,,,,,,FALSE,,,,TRUE,513607.4,513606.6,505986.243,506207.7,506002.824,513418.373,1,40,,
trial,html.Screen,8_34_0,2023-11-15T20:48:32.532Z,,,2,0.005067913,-0.000971487,,FALSE,hl,5594.927,response,1.034533254,1.05,-1.15,-0.609488336,0.818032406,-0.532096282,high,low,,ISIC_9848743.JPG,,ISIC_0192490.JPG,59,FALSE,ll,keypress(f),0,TRUE,519013.5,519013.3,513383.82,513607.7,513418.373,518810.911,1,40,35,
sequence,flow.Sequence,8_34,2023-11-15T20:48:32.532Z,,,,,,,,,5594.927,completion,,,,,,,high,low,,,,,,FALSE,,,,TRUE,519013.6,519013.3,513383.82,513607.6,513418.373,518810.911,1,40,,
trial,html.Screen,8_35_0,2023-11-15T20:48:40.533Z,,,2,0.038998803,0.014321227,,FALSE,hh,8203.689,response,1.047463841,1.1,-1.15,0.821358931,0.818032406,-0.532096282,high,high,,ISIC_0064669.JPG,,ISIC_0025277.JPG,151,FALSE,ll,keypress(f),0,TRUE,527014.9,527014.6,518794.438,519013.6,518810.911,526809.874,1,40,36,
sequence,flow.Sequence,8_35,2023-11-15T20:48:40.534Z,,,,,,,,,8203.689,completion,,,,,,,high,high,,,,,,FALSE,,,,TRUE,527015.5,527014.6,518794.438,519013.6,518810.911,526809.874,1,40,,
trial,html.Screen,8_36_0,2023-11-15T20:48:43.622Z,,,2,0.059367082,-0.071839054,,FALSE,ll,3293.026,response,-1.14100735,1.15,-1.15,-0.367235738,0.868032406,-0.532096282,low,low,,ISIC_0062367.JPG,,ISIC_4569077.JPG,174,FALSE,hl,keypress(j),0,TRUE,530103.2,530102.9,526793.234,527015.7,526809.874,529899.163,1,40,37,
sequence,flow.Sequence,8_36,2023-11-15T20:48:43.622Z,,,,,,,,,3293.026,completion,,,,,,,low,low,,,,,,FALSE,,,,TRUE,530103.8,530102.9,526793.234,527015.7,526809.874,529899.163,1,40,,
trial,html.Screen,8_37_0,2023-11-15T20:48:48.861Z,,,2,0.008552098,-0.046469116,,TRUE,hh,5443.437,response,1.204055196,1.15,-1.15,1.001135039,0.868032406,-0.482096282,high,high,,ISIC_0758797.JPG,,ISIC_0068886.JPG,122,FALSE,hh,keypress(i),0,TRUE,535342.9,535342.6,529882.683,530104,529899.163,535142.736,1,40,38,
sequence,flow.Sequence,8_37,2023-11-15T20:48:48.862Z,,,,,,,,,5443.437,completion,,,,,,,high,high,,,,,,FALSE,,,,TRUE,535343.4,535342.6,529882.683,530103.9,529899.163,535142.736,1,40,,
trial,html.Screen,8_38_0,2023-11-15T20:48:54.648Z,,,2,0.032909551,-0.038289975,,FALSE,lh,5983.864,response,-1.236499456,1.15,-1.15,0.917417365,0.868032406,-0.482096282,low,high,,ISIC_8812781.JPG,,ISIC_3481133.JPG,24,FALSE,ll,keypress(f),0,TRUE,541126.9,541126.6,535126.209,535343.6,535142.736,540938.481,1,40,39,
sequence,flow.Sequence,8_38,2023-11-15T20:48:54.648Z,,,,,,,,,5983.864,completion,,,,,,,low,high,,,,,,FALSE,,,,TRUE,541127.4,541126.6,535126.209,535343.6,535142.736,540938.481,1,40,,
trial,html.Screen,8_39_0,2023-11-15T20:49:00.231Z,,,2,0.045028243,,,FALSE,hh,5771.919,response,1.311412223,1.15,-1.15,0.915786867,0.918032406,-0.482096282,high,high,,ISIC_1805163.JPG,,ISIC_6176182.JPG,118,FALSE,hl,keypress(j),0,TRUE,546710.8,546710.4,540904.13,541127.6,540938.481,546514.88,1,40,40,
sequence,flow.Sequence,8_39,2023-11-15T20:49:00.232Z,,,,,,,,,5771.919,completion,,,,,,,high,high,,,,,,FALSE,,,,TRUE,546711.3,546710.4,540904.13,541127.6,540938.481,546514.88,1,40,,
stair_loop,flow.Loop,8,2023-11-15T20:49:00.232Z,,,,,,,,,280440.62,completion,,,,,,,,,,,,,,FALSE,,,,TRUE,546711.6,546710.4,266253.206,266471.1,266269.78,546514.88,1,40,,
exp_instructions,html.Screen,9,2023-11-15T20:49:18.751Z,,,,,,,,,18715.02,response,,,,,,,,,,,,,,,continue,keypress(Space),,,565230.8,565229.9,546498.312,546711.8,546514.88,565034.125,,,,
trial,html.Screen,10_0_0,2023-11-15T20:49:25.398Z,,,1,-0.053372308,-0.029971873,,TRUE,hh,6842.975,response,1.042408629,0.945,-1.1375,0.794223728,0.873521174,-0.56590463,high,high,,ISIC_6562871.JPG,9,ISIC_0026738.JPG,188,FALSE,hh,keypress(i),0,FALSE,571877.2,571877.1,565017.497,565231.2,565034.125,571680.601,4,500,1,
break,html.Screen,10_0_1,2023-11-15T20:49:25.398Z,,,,,,,,,NaN,,,,,,,,high,high,,,,,,FALSE,,,,FALSE,571877.5,571877.4,,571877.3,,571680.601,4,500,,
break_continue,html.Screen,10_0_2,2023-11-15T20:49:25.398Z,,,,,,,,,NaN,,,,,,,,high,high,,,,,,FALSE,,,,FALSE,571877.8,571877.7,,571877.7,,571680.601,4,500,,
sequence,flow.Sequence,10_0,2023-11-15T20:49:25.399Z,,,,,,,,,6843.575,completion,,,,,,,high,high,,,,,,FALSE,,,,FALSE,571877.9,571877.7,565017.497,565231.2,565034.125,571680.601,4,500,,
trial,html.Screen,10_1_0,2023-11-15T20:49:36.187Z,,,1,0.04565158,-0.027356713,,,,10787.546,timeout,-1.119695465,0.945,-1.1375,0.716958487,0.873521174,-0.56590463,low,high,,ISIC_0068610.JPG,9,ISIC_0033967.JPG,25,FALSE,,,0,FALSE,582665.9,582665.5,571663.689,571877.9,571680.601,582468.147,4,500,2,
break,html.Screen,10_1_1,2023-11-15T20:49:36.188Z,,,,,,,,,NaN,,,,,,,,low,high,,,,,,FALSE,,,,FALSE,582667.1,582666.9,,582666.3,,582468.147,4,500,,
break_continue,html.Screen,10_1_2,2023-11-15T20:49:36.189Z,,,,,,,,,NaN,,,,,,,,low,high,,,,,,FALSE,,,,FALSE,582667.9,582667.7,,582667.4,,582468.147,4,500,,
sequence,flow.Sequence,10_1,2023-11-15T20:49:36.189Z,,,,,,,,,10987.099,completion,,,,,,,low,high,,,,,,FALSE,,,,FALSE,582668.2,582667.7,571663.689,571877.9,571680.601,582468.147,4,500,,
trial,html.Screen,10_2_0,2023-11-15T20:49:41.806Z,,,1,-0.036721843,-0.070057655,,TRUE,hh,5816.953,response,0.880017316,0.945,-1.1375,0.77705133,0.873521174,-0.56590463,high,high,,ISIC_7212271.JPG,9,ISIC_0030852.JPG,188,FALSE,hh,keypress(i),0,FALSE,588285.2,588285.1,582451.606,582668.5,582468.147,588078.953,4,500,3,
break,html.Screen,10_2_1,2023-11-15T20:49:41.806Z,,,,,,,,,NaN,,,,,,,,high,high,,,,,,FALSE,,,,FALSE,588285.6,588285.6,,588285.3,,588078.953,4,500,,
break_continue,html.Screen,10_2_2,2023-11-15T20:49:41.806Z,,,,,,,,,NaN,,,,,,,,high,high,,,,,,FALSE,,,,FALSE,588285.8,588285.8,,588285.7,,588078.953,4,500,,
sequence,flow.Sequence,10_2,2023-11-15T20:49:41.807Z,,,,,,,,,5817.653,completion,,,,,,,high,high,,,,,,FALSE,,,,FALSE,588285.9,588285.8,582451.606,582668.4,582468.147,588078.953,4,500,,
trial,html.Screen,10_3_0,2023-11-15T20:49:45.623Z,,,1,-0.068880159,-0.018546211,,TRUE,hh,4023.447,response,1.068708449,0.945,-1.1375,0.883797044,0.873521174,-0.56590463,high,high,,ISIC_0067723.JPG,9,ISIC_0072714.JPG,188,FALSE,hh,keypress(i),0,FALSE,592102.7,592102.4,588062.459,588285.9,588078.953,591903.083,4,500,4,
break,html.Screen,10_3_1,2023-11-15T20:49:45.625Z,,,,,,,,,NaN,,,,,,,,high,high,,,,,,FALSE,,,,FALSE,592103.9,592103.5,,592103.1,,591903.083,4,500,,
break_continue,html.Screen,10_3_2,2023-11-15T20:49:45.625Z,,,,,,,,,NaN,,,,,,,,high,high,,,,,,FALSE,,,,FALSE,592104.5,592104.3,,592104.1,,591903.083,4,500,,
sequence,flow.Sequence,10_3,2023-11-15T20:49:45.626Z,,,,,,,,,4025.347,completion,,,,,,,high,high,,,,,,FALSE,,,,FALSE,592104.9,592104.3,588062.459,588285.9,588078.953,591903.083,4,500,,
trial,html.Screen,10_4_0,2023-11-15T20:49:49.719Z,,,1,0.032909551,-0.038289975,,FALSE,hl,4295.317,response,0.874230835,0.945,-1.1375,-0.369741961,0.873521174,-0.56590463,high,low,,ISIC_8812781.JPG,9,ISIC_0014349.JPG,69,FALSE,hh,keypress(i),0,FALSE,596198.7,596198.4,591886.61,592105.1,591903.083,595994.422,4,500,5,
break,html.Screen,10_4_1,2023-11-15T20:49:49.721Z,,,,,,,,,NaN,,,,,,,,high,low,,,,,,FALSE,,,,FALSE,596199.9,596199.6,,596199.1,,595994.422,4,500,,
break_continue,html.Screen,10_4_2,2023-11-15T20:49:49.721Z,,,,,,,,,NaN,,,,,,,,high,low,,,,,,FALSE,,,,FALSE,596200.6,596200.4,,596200.1,,595994.422,4,500,,
sequence,flow.Sequence,10_4,2023-11-15T20:49:49.722Z,,,,,,,,,4297.317,completion,,,,,,,high,low,,,,,,FALSE,,,,FALSE,596200.9,596200.4,591886.61,592105.1,591903.083,595994.422,4,500,,
trial,html.Screen,10_5_0,2023-11-15T20:49:53.938Z,,,1,-0.027717858,0.039558746,,FALSE,lh,4420.278,response,-1.109771604,0.945,-1.1375,0.726994437,0.873521174,-0.56590463,low,high,,ISIC_0010807.JPG,9,ISIC_0000139.JPG,25,FALSE,hl,keypress(j),0,FALSE,600415,600414.7,595977.651,596201.1,595994.422,600219.514,4,500,6,
break,html.Screen,10_5_1,2023-11-15T20:49:53.939Z,,,,,,,,,NaN,,,,,,,,low,high,,,,,,FALSE,,,,FALSE,600416.2,600415.9,,600415.4,,600219.514,4,500,,
break_continue,html.Screen,10_5_2,2023-11-15T20:49:53.940Z,,,,,,,,,NaN,,,,,,,,low,high,,,,,,FALSE,,,,FALSE,600416.8,600416.6,,600416.4,,600219.514,4,500,,
sequence,flow.Sequence,10_5,2023-11-15T20:49:53.940Z,,,,,,,,,4422.178,completion,,,,,,,low,high,,,,,,FALSE,,,,FALSE,600417.1,600416.6,595977.651,596201,595994.422,600219.514,4,500,,
trial,html.Screen,10_6_0,2023-11-15T20:49:56.130Z,,,1,0.04159136,-0.054342299,,FALSE,hl,2386.786,response,0.919668123,0.945,-1.1375,-0.588463257,0.873521174,-0.56590463,high,low,,ISIC_0027956.JPG,8,ISIC_0011209.JPG,69,FALSE,hh,keypress(i),0,FALSE,602606.7,602606.3,600202.678,600417.4,600219.514,602406.917,4,500,7,
break,html.Screen,10_6_1,2023-11-15T20:49:56.131Z,,,,,,,,,NaN,,,,,,,,high,low,,,,,,FALSE,,,,FALSE,602607.8,602607.5,,602607.1,,602406.917,4,500,,
break_continue,html.Screen,10_6_2,2023-11-15T20:49:56.132Z,,,,,,,,,NaN,,,,,,,,high,low,,,,,,FALSE,,,,FALSE,602608.5,602608.2,,602608,,602406.917,4,500,,
sequence,flow.Sequence,10_6,2023-11-15T20:49:56.132Z,,,,,,,,,2388.686,completion,,,,,,,high,low,,,,,,FALSE,,,,FALSE,602608.8,602608.2,600202.678,600417.3,600219.514,602406.917,4,500,,
trial,html.Screen,10_7_0,2023-11-15T20:50:02.745Z,,,1,0.04565158,-0.027356713,,FALSE,hl,6814.683,response,0.870890872,0.945,-1.1375,-0.490538336,0.873521174,-0.56590463,high,low,,ISIC_0068610.JPG,9,ISIC_4518384.JPG,69,FALSE,lh,keypress(e),0,FALSE,609221.8,609221.6,602390.406,602609,602406.917,609019.735,4,500,8,
break,html.Screen,10_7_1,2023-11-15T20:50:02.745Z,,,,,,,,,NaN,,,,,,,,high,low,,,,,,FALSE,,,,FALSE,609222.3,609222.1,,609221.9,,609019.735,4,500,,
break_continue,html.Screen,10_7_2,2023-11-15T20:50:02.746Z,,,,,,,,,NaN,,,,,,,,high,low,,,,,,FALSE,,,,FALSE,609222.6,609222.5,,609222.4,,609019.735,4,500,,
sequence,flow.Sequence,10_7,2023-11-15T20:50:02.746Z,,,,,,,,,6815.583,completion,,,,,,,high,low,,,,,,FALSE,,,,FALSE,609222.7,609222.5,602390.406,602609,602406.917,609019.735,4,500,,
trial,html.Screen,10_8_0,2023-11-15T20:50:08.434Z,,,1,-0.010246062,0.03096706,,FALSE,hh,5890.965,response,1.091734964,0.945,-1.1375,0.971596377,0.873521174,-0.56590463,high,high,,ISIC_0072041.JPG,10,ISIC_0034059.JPG,188,FALSE,lh,keypress(e),0,FALSE,614911.1,614910.7,609003.264,609222.8,609019.735,614714.186,4,500,9,
break,html.Screen,10_8_1,2023-11-15T20:50:08.435Z,,,,,,,,,NaN,,,,,,,,high,high,,,,,,FALSE,,,,FALSE,614912.2,614912,,614911.4,,614714.186,4,500,,
break_continue,html.Screen,10_8_2,2023-11-15T20:50:08.436Z,,,,,,,,,NaN,,,,,,,,high,high,,,,,,FALSE,,,,FALSE,614913,614912.7,,614912.5,,614714.186,4,500,,
sequence,flow.Sequence,10_8,2023-11-15T20:50:08.436Z,,,,,,,,,5892.965,completion,,,,,,,high,high,,,,,,FALSE,,,,FALSE,614913.3,614912.7,609003.264,609222.8,609019.735,614714.186,4,500,,
trial,html.Screen,10_9_0,2023-11-15T20:50:19.225Z,,,1,0.065170589,-0.039458622,,,,10787.626,timeout,-1.08653334,0.945,-1.1375,1.054263531,0.873521174,-0.56590463,low,high,,ISIC_0013491.JPG,8,ISIC_0034006.JPG,25,FALSE,,,0,FALSE,625702.4,625702,614697.518,614913.6,614714.186,625501.812,4,500,10,
break,html.Screen,10_9_1,2023-11-15T20:50:19.227Z,,,,,,,,,NaN,,,,,,,,low,high,,,,,,FALSE,,,,FALSE,625703.6,625703.3,,625702.8,,625501.812,4,500,,
break_continue,html.Screen,10_9_2,2023-11-15T20:50:19.227Z,,,,,,,,,NaN,,,,,,,,low,high,,,,,,FALSE,,,,FALSE,625704.3,625704,,625703.7,,625501.812,4,500,,
sequence,flow.Sequence,10_9,2023-11-15T20:50:19.228Z,,,,,,,,,10989.814,completion,,,,,,,low,high,,,,,,FALSE,,,,FALSE,625704.5,625704,614697.518,614913.4,614714.186,625501.812,4,500,,
trial,html.Screen,10_10_0,2023-11-15T20:50:22.233Z,,,1,0.011609468,-0.025843452,,FALSE,hh,3207.888,response,0.759742137,0.945,-1.1375,0.831428333,0.873521174,-0.56590463,high,high,,ISIC_9239632.JPG,9,ISIC_0009894.JPG,188,FALSE,hl,keypress(j),0,FALSE,628709.8,628709.7,625485.294,625704.8,625501.812,628507.633,4,500,11,
break,html.Screen,10_10_1,2023-11-15T20:50:22.233Z,,,,,,,,,NaN,,,,,,,,high,high,,,,,,FALSE,,,,FALSE,628710.5,628710.3,,628710.1,,628507.633,4,500,,
break_continue,html.Screen,10_10_2,2023-11-15T20:50:22.234Z,,,,,,,,,NaN,,,,,,,,high,high,,,,,,FALSE,,,,FALSE,628710.8,628710.7,,628710.5,,628507.633,4,500,,
sequence,flow.Sequence,10_10,2023-11-15T20:50:22.234Z,,,,,,,,,3208.888,completion,,,,,,,high,high,,,,,,FALSE,,,,FALSE,628710.9,628710.7,625485.294,625704.7,625501.812,628507.633,4,500,,
trial,html.Screen,10_11_0,2023-11-15T20:50:32.065Z,,,1,0.066083934,-0.065789982,,FALSE,lh,10033.867,response,-0.943372063,0.945,-1.1375,1.058207194,0.873521174,-0.56590463,low,high,,ISIC_0065477.JPG,9,ISIC_4890201.JPG,25,FALSE,hl,keypress(j),0,FALSE,638541.6,638541.5,628491.139,628711.1,628507.633,638343.4,4,500,12,
break,html.Screen,10_11_1,2023-11-15T20:50:32.065Z,,,,,,,,,NaN,,,,,,,,low,high,,,,,,FALSE,,,,FALSE,638542.1,638541.9,,638541.8,,638343.4,4,500,,
break_continue,html.Screen,10_11_2,2023-11-15T20:50:32.065Z,,,,,,,,,NaN,,,,,,,,low,high,,,,,,FALSE,,,,FALSE,638542.2,638542.2,,638542.1,,638343.4,4,500,,
sequence,flow.Sequence,10_11,2023-11-15T20:50:32.065Z,,,,,,,,,10034.567,completion,,,,,,,low,high,,,,,,FALSE,,,,FALSE,638542.3,638542.2,628491.139,628711,628507.633,638343.4,4,500,,
trial,html.Screen,10_12_0,2023-11-15T20:50:42.217Z,,,1,-0.056557542,-0.039430023,,TRUE,hl,10350.3,response,1.10599605,0.945,-1.1375,-0.538039565,0.873521174,-0.56590463,high,low,,ISIC_0046983.JPG,9,ISIC_4434803.JPG,69,FALSE,hl,keypress(j),0,FALSE,648693.8,648693.7,638326.966,638542.4,638343.4,648496.576,4,500,13,
break,html.Screen,10_12_1,2023-11-15T20:50:42.217Z,,,,,,,,,NaN,,,,,,,,high,low,,,,,,FALSE,,,,FALSE,648694,648694,,648693.9,,648496.576,4,500,,
break_continue,html.Screen,10_12_2,2023-11-15T20:50:42.217Z,,,,,,,,,NaN,,,,,,,,high,low,,,,,,FALSE,,,,FALSE,648694.3,648694.2,,648694.2,,648496.576,4,500,,
sequence,flow.Sequence,10_12,2023-11-15T20:50:42.217Z,,,,,,,,,10350.8,completion,,,,,,,high,low,,,,,,FALSE,,,,FALSE,648694.3,648694.2,638326.966,638542.4,638343.4,648496.576,4,500,,
trial,html.Screen,10_13_0,2023-11-15T20:50:46.098Z,,,1,-0.036721843,-0.070057655,,TRUE,hh,4078.024,response,1.00170888,0.945,-1.1375,0.894918845,0.873521174,-0.56590463,high,high,,ISIC_7212271.JPG,9,ISIC_0057067.JPG,188,FALSE,hh,keypress(i),0,FALSE,652574.9,652574.6,648480.019,648694.4,648496.576,652370.684,4,500,14,
break,html.Screen,10_13_1,2023-11-15T20:50:46.099Z,,,,,,,,,NaN,,,,,,,,high,high,,,,,,FALSE,,,,FALSE,652576.1,652575.9,,652575.3,,652370.684,4,500,,
break_continue,html.Screen,10_13_2,2023-11-15T20:50:46.100Z,,,,,,,,,NaN,,,,,,,,high,high,,,,,,FALSE,,,,FALSE,652576.8,652576.6,,652576.3,,652370.684,4,500,,
sequence,flow.Sequence,10_13,2023-11-15T20:50:46.100Z,,,,,,,,,4080.024,completion,,,,,,,high,high,,,,,,FALSE,,,,FALSE,652577,652576.6,648480.019,648694.3,648496.576,652370.684,4,500,,
trial,html.Screen,10_14_0,2023-11-15T20:50:56.268Z,,,1,0.03972838,-0.022870113,,FALSE,lh,10371.916,response,-0.969611853,0.945,-1.1375,0.924414828,0.873521174,-0.56590463,low,high,,ISIC_0054073.JPG,8,ISIC_7927525.JPG,25,FALSE,ll,keypress(f),0,FALSE,662742.9,662742.6,652354.219,652577.4,652370.684,662540.464,4,500,15,
break,html.Screen,10_14_1,2023-11-15T20:50:56.270Z,,,,,,,,,NaN,,,,,,,,low,high,,,,,,FALSE,,,,FALSE,662744.1,662743.8,,662743.3,,662540.464,4,500,,
break_continue,html.Screen,10_14_2,2023-11-15T20:50:56.270Z,,,,,,,,,NaN,,,,,,,,low,high,,,,,,FALSE,,,,FALSE,662744.7,662744.5,,662744.3,,662540.464,4,500,,
sequence,flow.Sequence,10_14,2023-11-15T20:50:56.271Z,,,,,,,,,10373.816,completion,,,,,,,low,high,,,,,,FALSE,,,,FALSE,662745,662744.5,652354.219,652577.3,652370.684,662540.464,4,500,,
trial,html.Screen,10_15_0,2023-11-15T20:51:03.907Z,,,1,0.065170589,-0.039458622,,FALSE,hh,7841.136,response,0.873547059,0.945,-1.1375,0.978508659,0.873521174,-0.56590463,high,high,,ISIC_0013491.JPG,9,ISIC_0047031.JPG,188,FALSE,ll,keypress(f),0,FALSE,670381.9,670381.6,662524.018,662745.3,662540.464,670188.9,4,500,16,
break,html.Screen,10_15_1,2023-11-15T20:51:03.908Z,,,,,,,,,NaN,,,,,,,,high,high,,,,,,FALSE,,,,FALSE,670382.5,670382.3,,670382.1,,670188.9,4,500,,
break_continue,html.Screen,10_15_2,2023-11-15T20:51:03.908Z,,,,,,,,,NaN,,,,,,,,high,high,,,,,,FALSE,,,,FALSE,670382.9,670382.7,,670382.6,,670188.9,4,500,,
sequence,flow.Sequence,10_15,2023-11-15T20:51:03.909Z,,,,,,,,,7842.236,completion,,,,,,,high,high,,,,,,FALSE,,,,FALSE,670383,670382.7,662524.018,662745.3,662540.464,670188.9,4,500,,
trial,html.Screen,10_16_0,2023-11-15T20:51:10.821Z,,,1,-0.018804747,0.028834693,,FALSE,lh,7106,response,-0.957920932,0.945,-1.1375,1.01474871,0.873521174,-0.56590463,low,high,,ISIC_0014157.JPG,9,ISIC_8124482.JPG,25,FALSE,hl,keypress(j),0,FALSE,677295.3,677294.9,670172.148,670383.1,670188.9,677102.353,4,500,17,
break,html.Screen,10_16_1,2023-11-15T20:51:10.822Z,,,,,,,,,NaN,,,,,,,,low,high,,,,,,FALSE,,,,FALSE,677296.4,677296.1,,677295.6,,677102.353,4,500,,
break_continue,html.Screen,10_16_2,2023-11-15T20:51:10.823Z,,,,,,,,,NaN,,,,,,,,low,high,,,,,,FALSE,,,,FALSE,677297.1,677296.8,,677296.6,,677102.353,4,500,,
sequence,flow.Sequence,10_16,2023-11-15T20:51:10.823Z,,,,,,,,,7107.9,completion,,,,,,,low,high,,,,,,FALSE,,,,FALSE,677297.3,677296.8,670172.148,670383.1,670188.9,677102.353,4,500,,
trial,html.Screen,10_17_0,2023-11-15T20:51:20.845Z,,,1,-0.051676299,0.01301955,,FALSE,ll,10216.447,response,-1.004499851,0.945,-1.1375,-0.551073571,0.873521174,-0.56590463,low,low,,ISIC_9978498.JPG,9,ISIC_9989936.JPG,167,FALSE,hl,keypress(j),0,FALSE,687319,687318.8,677085.64,677297.5,677102.353,687121.67,4,500,18,
break,html.Screen,10_17_1,2023-11-15T20:51:20.846Z,,,,,,,,,NaN,,,,,,,,low,low,,,,,,FALSE,,,,FALSE,687320.1,687319.9,,687319.4,,687121.67,4,500,,
break_continue,html.Screen,10_17_2,2023-11-15T20:51:20.846Z,,,,,,,,,NaN,,,,,,,,low,low,,,,,,FALSE,,,,FALSE,687320.9,687320.7,,687320.4,,687121.67,4,500,,
sequence,flow.Sequence,10_17,2023-11-15T20:51:20.847Z,,,,,,,,,10218.347,completion,,,,,,,low,low,,,,,,FALSE,,,,FALSE,687321.2,687320.7,677085.64,677297.5,677102.353,687121.67,4,500,,
trial,html.Screen,10_18_0,2023-11-15T20:51:25.036Z,,,1,-0.064435763,-0.050116737,,FALSE,ll,4388.83,response,-1.215823921,0.945,-1.1375,-0.555409068,0.873521174,-0.56590463,low,low,,ISIC_5207050.JPG,9,ISIC_9354965.JPG,167,FALSE,hl,keypress(j),0,FALSE,691510.8,691510.5,687105.17,687321.4,687121.67,691313.185,4,500,19,
break,html.Screen,10_18_1,2023-11-15T20:51:25.037Z,,,,,,,,,NaN,,,,,,,,low,low,,,,,,FALSE,,,,FALSE,691511.9,691511.6,,691511.1,,691313.185,4,500,,
break_continue,html.Screen,10_18_2,2023-11-15T20:51:25.038Z,,,,,,,,,NaN,,,,,,,,low,low,,,,,,FALSE,,,,FALSE,691512.6,691512.3,,691512.1,,691313.185,4,500,,
sequence,flow.Sequence,10_18,2023-11-15T20:51:25.038Z,,,,,,,,,4390.63,completion,,,,,,,low,low,,,,,,FALSE,,,,FALSE,691512.8,691512.3,687105.17,687321.4,687121.67,691313.185,4,500,,
trial,html.Screen,10_19_0,2023-11-15T20:51:34.021Z,,,1,-0.009709127,0.041792132,,FALSE,lh,9181.515,response,-1.275432692,0.945,-1.1375,0.808395974,0.873521174,-0.56590463,low,high,,ISIC_3967213.JPG,10,ISIC_3296136.JPG,25,FALSE,hl,keypress(j),0,FALSE,700495,700494.7,691296.504,691513.1,691313.185,700297.299,4,500,20,
break,html.Screen,10_19_1,2023-11-15T20:51:34.022Z,,,,,,,,,NaN,,,,,,,,low,high,,,,,,FALSE,,,,FALSE,700496,700495.8,,700495.4,,700297.299,4,500,,
break_continue,html.Screen,10_19_2,2023-11-15T20:51:34.022Z,,,,,,,,,NaN,,,,,,,,low,high,,,,,,FALSE,,,,FALSE,700496.8,700496.5,,700496.3,,700297.299,4,500,,
sequence,flow.Sequence,10_19,2023-11-15T20:51:34.023Z,,,,,,,,,9183.315,completion,,,,,,,low,high,,,,,,FALSE,,,,FALSE,700497,700496.5,691296.504,691512.9,691313.185,700297.299,4,500,,
trial,html.Screen,10_20_0,2023-11-15T20:51:39.180Z,,,1,-0.036721843,-0.070057655,,FALSE,ll,5357.101,response,-0.965879289,0.945,-1.1375,-0.496381278,0.873521174,-0.56590463,low,low,,ISIC_7212271.JPG,10,ISIC_8979275.JPG,167,FALSE,hl,keypress(j),0,FALSE,705654.8,705654.4,700280.739,700497.3,700297.299,705457.333,4,500,21,
break,html.Screen,10_20_1,2023-11-15T20:51:39.181Z,,,,,,,,,NaN,,,,,,,,low,low,,,,,,FALSE,,,,FALSE,705655.8,705655.6,,705655.1,,705457.333,4,500,,
break_continue,html.Screen,10_20_2,2023-11-15T20:51:39.182Z,,,,,,,,,NaN,,,,,,,,low,low,,,,,,FALSE,,,,FALSE,705656.4,705656.3,,705656,,705457.333,4,500,,
sequence,flow.Sequence,10_20,2023-11-15T20:51:39.182Z,,,,,,,,,5359.001,completion,,,,,,,low,low,,,,,,FALSE,,,,FALSE,705656.8,705656.3,700280.739,700497.2,700297.299,705457.333,4,500,,
trial,html.Screen,10_21_0,2023-11-15T20:51:47.764Z,,,1,-0.054638698,0.044872476,,FALSE,ll,8781.367,response,-1.296563027,0.945,-1.1375,-0.54415459,0.873521174,-0.56590463,low,low,,ISIC_6722934.JPG,9,ISIC_0004455.JPG,167,FALSE,hl,keypress(j),0,FALSE,714238.9,714238.7,705440.544,705657,705457.333,714040.604,4,500,22,
break,html.Screen,10_21_1,2023-11-15T20:51:47.766Z,,,,,,,,,NaN,,,,,,,,low,low,,,,,,FALSE,,,,FALSE,714240.2,714239.8,,714239.4,,714040.604,4,500,,
break_continue,html.Screen,10_21_2,2023-11-15T20:51:47.766Z,,,,,,,,,NaN,,,,,,,,low,low,,,,,,FALSE,,,,FALSE,714240.9,714240.7,,714240.4,,714040.604,4,500,,
sequence,flow.Sequence,10_21,2023-11-15T20:51:47.767Z,,,,,,,,,8783.367,completion,,,,,,,low,low,,,,,,FALSE,,,,FALSE,714241.2,714240.7,705440.544,705656.9,705457.333,714040.604,4,500,,
trial,html.Screen,10_22_0,2023-11-15T20:51:56.693Z,,,1,-0.00511897,0.039662591,,FALSE,hl,9124.696,response,0.874230835,0.945,-1.1375,-0.369741961,0.873521174,-0.56590463,high,low,,ISIC_9742891.JPG,9,ISIC_0014349.JPG,69,FALSE,lh,keypress(e),0,FALSE,723165.4,723165.3,714024.112,714241.4,714040.604,722975.066,4,500,23,
break,html.Screen,10_22_1,2023-11-15T20:51:56.694Z,,,,,,,,,NaN,,,,,,,,high,low,,,,,,FALSE,,,,FALSE,723165.8,723165.8,,723165.6,,722975.066,4,500,,
break_continue,html.Screen,10_22_2,2023-11-15T20:51:56.694Z,,,,,,,,,NaN,,,,,,,,high,low,,,,,,FALSE,,,,FALSE,723166.1,723166,,723165.9,,722975.066,4,500,,
sequence,flow.Sequence,10_22,2023-11-15T20:51:56.694Z,,,,,,,,,9125.396,completion,,,,,,,high,low,,,,,,FALSE,,,,FALSE,723166.2,723166,714024.112,714241.3,714040.604,722975.066,4,500,,
trial,html.Screen,10_23_0,2023-11-15T20:52:04.127Z,,,1,0.007397293,0.017471677,,FALSE,lh,7623.734,response,-0.970297279,0.945,-1.1375,0.688109,0.873521174,-0.56590463,low,high,,ISIC_0056226.JPG,9,ISIC_0942056.JPG,25,FALSE,hh,keypress(i),0,FALSE,730599.1,730598.8,722941.192,723166.3,722975.066,730406.03,4,500,24,
break,html.Screen,10_23_1,2023-11-15T20:52:04.128Z,,,,,,,,,NaN,,,,,,,,low,high,,,,,,FALSE,,,,FALSE,730600.3,730600,,730599.5,,730406.03,4,500,,
break_continue,html.Screen,10_23_2,2023-11-15T20:52:04.129Z,,,,,,,,,NaN,,,,,,,,low,high,,,,,,FALSE,,,,FALSE,730601,730600.7,,730600.5,,730406.03,4,500,,
sequence,flow.Sequence,10_23,2023-11-15T20:52:04.129Z,,,,,,,,,7625.634,completion,,,,,,,low,high,,,,,,FALSE,,,,FALSE,730601.2,730600.7,722941.192,723166.2,722975.066,730406.03,4,500,,
trial,html.Screen,10_24_0,2023-11-15T20:52:14.679Z,,,1,0.006955534,-0.031010092,,FALSE,hl,10744.67,response,0.925070229,0.945,-1.1375,-0.558797627,0.873521174,-0.56590463,high,low,,ISIC_0011177.JPG,9,ISIC_0026426.JPG,69,FALSE,hh,keypress(i),0,FALSE,741151.1,741150.7,730389.252,730601.5,730406.03,740959.887,4,500,25,
break,html.Screen,10_24_1,2023-11-15T20:52:14.680Z,,,,,,,,,NaN,,,,,,,,high,low,,,,,,FALSE,,,,FALSE,741152.2,741151.9,,741151.4,,740959.887,4,500,,
break_continue,html.Screen,10_24_2,2023-11-15T20:52:14.681Z,,,,,,,,,NaN,,,,,,,,high,low,,,,,,FALSE,,,,FALSE,741152.8,741152.6,,741152.3,,740959.887,4,500,,
sequence,flow.Sequence,10_24,2023-11-15T20:52:14.681Z,,,,,,,,,10746.57,completion,,,,,,,high,low,,,,,,FALSE,,,,FALSE,741153.1,741152.6,730389.252,730601.4,730406.03,740959.887,4,500,,
trial,html.Screen,10_25_0,2023-11-15T20:52:24.350Z,,,1,-0.051676299,0.01301955,,FALSE,lh,9862.413,response,-1.118173414,0.945,-1.1375,0.944560382,0.873521174,-0.56590463,low,high,,ISIC_9978498.JPG,9,ISIC_9688534.JPG,25,FALSE,hl,keypress(j),0,FALSE,750822.6,750822.3,740943.205,741153.3,740959.887,750628.681,4,500,26,
break,html.Screen,10_25_1,2023-11-15T20:52:24.352Z,,,,,,,,,NaN,,,,,,,,low,high,,,,,,FALSE,,,,FALSE,750823.7,750823.5,,750823,,750628.681,4,500,,
break_continue,html.Screen,10_25_2,2023-11-15T20:52:24.352Z,,,,,,,,,NaN,,,,,,,,low,high,,,,,,FALSE,,,,FALSE,750824.3,750824.1,,750823.9,,750628.681,4,500,,
sequence,flow.Sequence,10_25,2023-11-15T20:52:24.352Z,,,,,,,,,9864.213,completion,,,,,,,low,high,,,,,,FALSE,,,,FALSE,750824.7,750824.1,740943.205,741153.2,740959.887,750628.681,4,500,,
trial,html.Screen,10_26_0,2023-11-15T20:52:27.999Z,,,1,-0.027717858,0.039558746,,FALSE,lh,3841.919,response,-1.233143964,0.945,-1.1375,0.96911439,0.873521174,-0.56590463,low,high,,ISIC_0010807.JPG,9,ISIC_7877488.JPG,25,FALSE,hl,keypress(j),0,FALSE,754470.9,754470.6,750612.044,750824.9,750628.681,754268.864,4,500,27,
break,html.Screen,10_26_1,2023-11-15T20:52:28.000Z,,,,,,,,,NaN,,,,,,,,low,high,,,,,,FALSE,,,,FALSE,754472.1,754471.8,,754471.3,,754268.864,4,500,,
break_continue,html.Screen,10_26_2,2023-11-15T20:52:28.001Z,,,,,,,,,NaN,,,,,,,,low,high,,,,,,FALSE,,,,FALSE,754472.7,754472.5,,754472.3,,754268.864,4,500,,
sequence,flow.Sequence,10_26,2023-11-15T20:52:28.001Z,,,,,,,,,3843.819,completion,,,,,,,low,high,,,,,,FALSE,,,,FALSE,754472.9,754472.5,750612.044,750824.8,750628.681,754268.864,4,500,,
trial,html.Screen,10_27_0,2023-11-15T20:52:34.991Z,,,1,-0.00923425,-0.062719088,,TRUE,hl,7193.836,response,0.949907353,0.945,-1.1375,-0.619074807,0.873521174,-0.56590463,high,low,,ISIC_0053760.JPG,9,ISIC_7059794.JPG,69,FALSE,hl,keypress(j),0,FALSE,761463,761462.7,754252.362,754473.2,754268.864,761265.823,4,500,28,
break,html.Screen,10_27_1,2023-11-15T20:52:34.992Z,,,,,,,,,NaN,,,,,,,,high,low,,,,,,FALSE,,,,FALSE,761464.1,761463.9,,761463.4,,761265.823,4,500,,
break_continue,html.Screen,10_27_2,2023-11-15T20:52:34.993Z,,,,,,,,,NaN,,,,,,,,high,low,,,,,,FALSE,,,,FALSE,761464.9,761464.7,,761464.5,,761265.823,4,500,,
sequence,flow.Sequence,10_27,2023-11-15T20:52:34.993Z,,,,,,,,,7195.836,completion,,,,,,,high,low,,,,,,FALSE,,,,FALSE,761465.3,761464.7,754252.362,754473.2,754268.864,761265.823,4,500,,
trial,html.Screen,10_28_0,2023-11-15T20:52:42.007Z,,,1,-0.040933869,0.007246271,,FALSE,hh,7212.777,response,0.799242178,0.945,-1.1375,1.063036913,0.873521174,-0.56590463,high,high,,ISIC_3608788.JPG,9,ISIC_0010772.JPG,188,FALSE,lh,keypress(e),0,FALSE,768478.9,768478.6,761249.276,761465.5,761265.823,768279.444,4,500,29,
break,html.Screen,10_28_1,2023-11-15T20:52:42.008Z,,,,,,,,,NaN,,,,,,,,high,high,,,,,,FALSE,,,,FALSE,768480,768479.8,,768479.3,,768279.444,4,500,,
break_continue,html.Screen,10_28_2,2023-11-15T20:52:42.009Z,,,,,,,,,NaN,,,,,,,,high,high,,,,,,FALSE,,,,FALSE,768480.6,768480.4,,768480.3,,768279.444,4,500,,
sequence,flow.Sequence,10_28,2023-11-15T20:52:42.009Z,,,,,,,,,7214.577,completion,,,,,,,high,high,,,,,,FALSE,,,,FALSE,768480.9,768480.4,761249.276,761465.5,761265.823,768279.444,4,500,,
trial,html.Screen,10_29_0,2023-11-15T20:52:49.119Z,,,1,-0.059471106,0.067829217,,FALSE,ll,7310.956,response,-0.942715236,0.945,-1.1375,-0.745317716,0.873521174,-0.56590463,low,low,,ISIC_0015631.JPG,9,ISIC_0360367.JPG,167,FALSE,lh,keypress(e),0,FALSE,775590.8,775590.4,768262.966,768481.2,768279.444,775393.344,4,500,30,
break,html.Screen,10_29_1,2023-11-15T20:52:49.120Z,,,,,,,,,NaN,,,,,,,,low,low,,,,,,FALSE,,,,FALSE,775591.9,775591.6,,775591.2,,775393.344,4,500,,
break_continue,html.Screen,10_29_2,2023-11-15T20:52:49.120Z,,,,,,,,,NaN,,,,,,,,low,low,,,,,,FALSE,,,,FALSE,775592.6,775592.4,,775592.2,,775393.344,4,500,,
sequence,flow.Sequence,10_29,2023-11-15T20:52:49.121Z,,,,,,,,,7312.956,completion,,,,,,,low,low,,,,,,FALSE,,,,FALSE,775592.9,775592.4,768262.966,768481.2,768279.444,775393.344,4,500,,
trial,html.Screen,10_30_0,2023-11-15T20:52:53.135Z,,,1,-0.036237607,-0.047825071,,FALSE,ll,4213.356,response,-1.266047692,0.945,-1.1375,-0.44141983,0.873521174,-0.56590463,low,low,,ISIC_6985114.JPG,10,ISIC_0046985.JPG,167,FALSE,hl,keypress(j),0,FALSE,779607,779606.7,775376.791,775593.2,775393.344,779401.097,4,500,31,
break,html.Screen,10_30_1,2023-11-15T20:52:53.136Z,,,,,,,,,NaN,,,,,,,,low,low,,,,,,FALSE,,,,FALSE,779608.1,779607.9,,779607.4,,779401.097,4,500,,
break_continue,html.Screen,10_30_2,2023-11-15T20:52:53.137Z,,,,,,,,,NaN,,,,,,,,low,low,,,,,,FALSE,,,,FALSE,779608.8,779608.6,,779608.4,,779401.097,4,500,,
sequence,flow.Sequence,10_30,2023-11-15T20:52:53.137Z,,,,,,,,,4215.256,completion,,,,,,,low,low,,,,,,FALSE,,,,FALSE,779609.1,779608.6,775376.791,775593.1,775393.344,779401.097,4,500,,
trial,html.Screen,10_31_0,2023-11-15T20:52:57.489Z,,,1,-0.040933869,0.007246271,,TRUE,hh,4557.403,response,0.83215934,0.945,-1.1375,1.022045224,0.873521174,-0.56590463,high,high,,ISIC_3608788.JPG,11,ISIC_0011848.JPG,188,FALSE,hh,keypress(i),0,FALSE,783958.8,783958.5,779384.551,779609.5,779401.097,783759.542,4,500,32,
break,html.Screen,10_31_1,2023-11-15T20:52:57.490Z,,,,,,,,,NaN,,,,,,,,high,high,,,,,,FALSE,,,,FALSE,783959.9,783959.6,,783959.2,,783759.542,4,500,,
break_continue,html.Screen,10_31_2,2023-11-15T20:52:57.491Z,,,,,,,,,NaN,,,,,,,,high,high,,,,,,FALSE,,,,FALSE,783960.5,783960.4,,783960.1,,783759.542,4,500,,
sequence,flow.Sequence,10_31,2023-11-15T20:52:57.491Z,,,,,,,,,4559.303,completion,,,,,,,high,high,,,,,,FALSE,,,,FALSE,783960.9,783960.4,779384.551,779609.4,779401.097,783759.542,4,500,,
trial,html.Screen,10_32_0,2023-11-15T20:53:08.345Z,,,1,-0.024537615,0.043699343,,,,10854.444,timeout,-0.968537888,0.945,-1.1375,-0.376799617,0.873521174,-0.56590463,low,low,,ISIC_0056444.JPG,9,ISIC_0029993.JPG,167,FALSE,,,0,FALSE,794814.3,794814.2,783743.053,783961,783759.542,794613.986,4,500,33,
break,html.Screen,10_32_1,2023-11-15T20:53:08.345Z,,,,,,,,,NaN,,,,,,,,low,low,,,,,,FALSE,,,,FALSE,794814.8,794814.6,,794814.5,,794613.986,4,500,,
break_continue,html.Screen,10_32_2,2023-11-15T20:53:08.345Z,,,,,,,,,NaN,,,,,,,,low,low,,,,,,FALSE,,,,FALSE,794815.1,794815,,794814.9,,794613.986,4,500,,
sequence,flow.Sequence,10_32,2023-11-15T20:53:08.346Z,,,,,,,,,11055.458,completion,,,,,,,low,low,,,,,,FALSE,,,,FALSE,794815.2,794815,783743.053,783961,783759.542,794613.986,4,500,,
trial,html.Screen,10_33_0,2023-11-15T20:53:12.666Z,,,1,-0.05520314,-0.065261243,,TRUE,hh,4520.914,response,0.905461373,0.945,-1.1375,1.052206449,0.873521174,-0.56590463,high,high,,ISIC_0024226.JPG,10,ISIC_0064860.JPG,188,FALSE,hh,keypress(i),0,FALSE,799135.2,799134.9,794597.301,794815.2,794613.986,798939.298,4,500,34,
break,html.Screen,10_33_1,2023-11-15T20:53:12.667Z,,,,,,,,,NaN,,,,,,,,high,high,,,,,,FALSE,,,,FALSE,799136.4,799136.1,,799135.6,,798939.298,4,500,,
break_continue,html.Screen,10_33_2,2023-11-15T20:53:12.667Z,,,,,,,,,NaN,,,,,,,,high,high,,,,,,FALSE,,,,FALSE,799137.1,799136.9,,799136.6,,798939.298,4,500,,
sequence,flow.Sequence,10_33,2023-11-15T20:53:12.668Z,,,,,,,,,4522.914,completion,,,,,,,high,high,,,,,,FALSE,,,,FALSE,799137.4,799136.9,794597.301,794815.2,794613.986,798939.298,4,500,,
trial,html.Screen,10_34_0,2023-11-15T20:53:18.769Z,,,1,0.03972838,-0.022870113,,TRUE,lh,6299.102,response,-0.964464333,0.945,-1.1375,0.745333985,0.873521174,-0.56590463,low,high,,ISIC_0054073.JPG,9,ISIC_0058046.JPG,25,FALSE,lh,keypress(e),0,FALSE,805238.7,805238.4,798922.601,799137.6,798939.298,805034.343,4,500,35,
break,html.Screen,10_34_1,2023-11-15T20:53:18.770Z,,,,,,,,,NaN,,,,,,,,low,high,,,,,,FALSE,,,,FALSE,805239.9,805239.5,,805239,,805034.343,4,500,,
break_continue,html.Screen,10_34_2,2023-11-15T20:53:18.771Z,,,,,,,,,NaN,,,,,,,,low,high,,,,,,FALSE,,,,FALSE,805240.5,805240.2,,805240,,805034.343,4,500,,
sequence,flow.Sequence,10_34,2023-11-15T20:53:18.771Z,,,,,,,,,6300.902,completion,,,,,,,low,high,,,,,,FALSE,,,,FALSE,805240.8,805240.2,798922.601,799137.6,798939.298,805034.343,4,500,,
trial,html.Screen,10_35_0,2023-11-15T20:53:28.089Z,,,1,0.06407783,0.038768608,,FALSE,hl,9524.357,response,0.78590171,0.945,-1.1375,-0.490712971,0.873521174,-0.56590463,high,low,,ISIC_0010124.JPG,8,ISIC_0032440.JPG,69,FALSE,hh,keypress(i),0,FALSE,814559,814558.7,805017.631,805241,805034.343,814369.524,4,500,36,
break,html.Screen,10_35_1,2023-11-15T20:53:28.090Z,,,,,,,,,NaN,,,,,,,,high,low,,,,,,FALSE,,,,FALSE,814560.1,814559.9,,814559.4,,814369.524,4,500,,
break_continue,html.Screen,10_35_2,2023-11-15T20:53:28.091Z,,,,,,,,,NaN,,,,,,,,high,low,,,,,,FALSE,,,,FALSE,814560.8,814560.6,,814560.4,,814369.524,4,500,,
sequence,flow.Sequence,10_35,2023-11-15T20:53:28.091Z,,,,,,,,,9526.257,completion,,,,,,,high,low,,,,,,FALSE,,,,FALSE,814561.1,814560.6,805017.631,805241,805034.343,814369.524,4,500,,
trial,html.Screen,10_36_0,2023-11-15T20:53:38.880Z,,,1,0.021769889,-0.041087092,,,,10787.22,timeout,1.024038444,0.945,-1.1375,0.678920656,0.873521174,-0.56590463,high,high,,ISIC_0072173.JPG,9,ISIC_9402324.JPG,188,FALSE,,,0,FALSE,825349.7,825349.3,814335.817,814561.4,814369.524,825156.744,4,500,37,
break,html.Screen,10_36_1,2023-11-15T20:53:38.881Z,,,,,,,,,NaN,,,,,,,,high,high,,,,,,FALSE,,,,FALSE,825350.8,825350.6,,825350.1,,825156.744,4,500,,
break_continue,html.Screen,10_36_2,2023-11-15T20:53:38.882Z,,,,,,,,,NaN,,,,,,,,high,high,,,,,,FALSE,,,,FALSE,825351.5,825351.4,,825351,,825156.744,4,500,,
sequence,flow.Sequence,10_36,2023-11-15T20:53:38.882Z,,,,,,,,,10981.876,completion,,,,,,,high,high,,,,,,FALSE,,,,FALSE,825351.5,825351.4,814335.817,814561.2,814369.524,825156.744,4,500,,
trial,html.Screen,10_37_0,2023-11-15T20:53:43.929Z,,,1,0.03972838,-0.022870113,,TRUE,hh,5241.956,response,1.052206221,0.945,-1.1375,0.753734106,0.873521174,-0.56590463,high,high,,ISIC_0054073.JPG,9,ISIC_0013588.JPG,188,FALSE,hh,keypress(i),0,FALSE,830399.1,830398.7,825140.293,825351.6,825156.744,830199.857,4,500,38,
break,html.Screen,10_37_1,2023-11-15T20:53:43.931Z,,,,,,,,,NaN,,,,,,,,high,high,,,,,,FALSE,,,,FALSE,830400.2,830399.9,,830399.4,,830199.857,4,500,,
break_continue,html.Screen,10_37_2,2023-11-15T20:53:43.931Z,,,,,,,,,NaN,,,,,,,,high,high,,,,,,FALSE,,,,FALSE,830400.8,830400.6,,830400.4,,830199.857,4,500,,
sequence,flow.Sequence,10_37,2023-11-15T20:53:43.931Z,,,,,,,,,5243.856,completion,,,,,,,high,high,,,,,,FALSE,,,,FALSE,830401.1,830400.6,825140.293,825351.6,825156.744,830199.857,4,500,,
trial,html.Screen,10_38_0,2023-11-15T20:53:52.986Z,,,1,0.007397293,0.017471677,,FALSE,lh,9255.143,response,-1.269550955,0.945,-1.1375,0.964109968,0.873521174,-0.56590463,low,high,,ISIC_0056226.JPG,9,ISIC_0025841.JPG,25,FALSE,hl,keypress(j),0,FALSE,839455.4,839455,830183.293,830401.3,830199.857,839250.785,4,500,39,
break,html.Screen,10_38_1,2023-11-15T20:53:52.987Z,,,,,,,,,NaN,,,,,,,,low,high,,,,,,FALSE,,,,FALSE,839456.9,839456.6,,839455.9,,839250.785,4,500,,
break_continue,html.Screen,10_38_2,2023-11-15T20:53:52.988Z,,,,,,,,,NaN,,,,,,,,low,high,,,,,,FALSE,,,,FALSE,839457.7,839457.5,,839457.2,,839250.785,4,500,,
sequence,flow.Sequence,10_38,2023-11-15T20:53:52.988Z,,,,,,,,,9257.643,completion,,,,,,,low,high,,,,,,FALSE,,,,FALSE,839458,839457.5,830183.293,830401.3,830199.857,839250.785,4,500,,
trial,html.Screen,10_39_0,2023-11-15T20:53:59.482Z,,,1,-0.051676299,0.01301955,,FALSE,lh,6698.015,response,-1.293175849,0.945,-1.1375,0.681615381,0.873521174,-0.56590463,low,high,,ISIC_9978498.JPG,11,ISIC_3448630.JPG,25,FALSE,hl,keypress(j),0,FALSE,845948.8,845948.8,839234.274,839458,839250.785,845746.75,4,500,40,
break,html.Screen,10_39_1,2023-11-15T20:53:59.482Z,,,,,,,,,NaN,,,,,,,,low,high,,,,,,FALSE,,,,FALSE,845949.2,845949.1,,845948.9,,845746.75,4,500,,
break_continue,html.Screen,10_39_2,2023-11-15T20:53:59.482Z,,,,,,,,,NaN,,,,,,,,low,high,,,,,,FALSE,,,,FALSE,845949.3,845949.2,,845949.2,,845746.75,4,500,,
sequence,flow.Sequence,10_39,2023-11-15T20:53:59.482Z,,,,,,,,,6698.415,completion,,,,,,,low,high,,,,,,FALSE,,,,FALSE,845949.4,845949.2,839234.274,839458,839250.785,845746.75,4,500,,
trial,html.Screen,10_40_0,2023-11-15T20:54:06.716Z,,,1,0.050997051,0.074482096,,TRUE,hh,7435.95,response,0.795190737,0.945,-1.1375,0.894354781,0.873521174,-0.56590463,high,high,,ISIC_0009975.JPG,9,ISIC_0071771.JPG,188,FALSE,hh,keypress(i),0,FALSE,853183,853182.7,845730.254,845949.4,845746.75,852977.586,4,500,41,
break,html.Screen,10_40_1,2023-11-15T20:54:06.717Z,,,,,,,,,NaN,,,,,,,,high,high,,,,,,FALSE,,,,FALSE,853184.3,853183.9,,853183.5,,852977.586,4,500,,
break_continue,html.Screen,10_40_2,2023-11-15T20:54:06.718Z,,,,,,,,,NaN,,,,,,,,high,high,,,,,,FALSE,,,,FALSE,853185,853184.8,,853184.5,,852977.586,4,500,,
sequence,flow.Sequence,10_40,2023-11-15T20:54:06.718Z,,,,,,,,,7438.05,completion,,,,,,,high,high,,,,,,FALSE,,,,FALSE,853185.3,853184.8,845730.254,845949.4,845746.75,852977.586,4,500,,
trial,html.Screen,10_41_0,2023-11-15T20:54:16.980Z,,,1,0.04565158,-0.027356713,,TRUE,hl,10469.114,response,1.046935266,0.945,-1.1375,-0.617507075,0.873521174,-0.56590463,high,low,,ISIC_0068610.JPG,8,ISIC_1988335.JPG,69,FALSE,hl,keypress(j),0,FALSE,863447,863446.7,852961.026,853185.5,852977.586,863247.464,4,500,42,
break,html.Screen,10_41_1,2023-11-15T20:54:16.981Z,,,,,,,,,NaN,,,,,,,,high,low,,,,,,FALSE,,,,FALSE,863448.1,863447.9,,863447.4,,863247.464,4,500,,
break_continue,html.Screen,10_41_2,2023-11-15T20:54:16.981Z,,,,,,,,,NaN,,,,,,,,high,low,,,,,,FALSE,,,,FALSE,863448.8,863448.6,,863448.4,,863247.464,4,500,,
sequence,flow.Sequence,10_41,2023-11-15T20:54:16.982Z,,,,,,,,,10471.014,completion,,,,,,,high,low,,,,,,FALSE,,,,FALSE,863449.1,863448.6,852961.026,853185.5,852977.586,863247.464,4,500,,
trial,html.Screen,10_42_0,2023-11-15T20:54:20.076Z,,,1,0.040104565,0.053461376,,FALSE,hl,3295.236,response,1.077182439,0.945,-1.1375,-0.369409658,0.873521174,-0.56590463,high,low,,ISIC_6483504.JPG,9,ISIC_2739547.JPG,69,FALSE,hh,keypress(i),0,FALSE,866542.9,866542.7,863230.923,863449.3,863247.464,866353.903,4,500,43,
break,html.Screen,10_42_1,2023-11-15T20:54:20.077Z,,,,,,,,,NaN,,,,,,,,high,low,,,,,,FALSE,,,,FALSE,866544,866543.8,,866543.4,,866353.903,4,500,,
break_continue,html.Screen,10_42_2,2023-11-15T20:54:20.077Z,,,,,,,,,NaN,,,,,,,,high,low,,,,,,FALSE,,,,FALSE,866544.7,866544.5,,866544.3,,866353.903,4,500,,
sequence,flow.Sequence,10_42,2023-11-15T20:54:20.078Z,,,,,,,,,3297.036,completion,,,,,,,high,low,,,,,,FALSE,,,,FALSE,866545.1,866544.5,863230.923,863449.2,863247.464,866353.903,4,500,,
trial,html.Screen,10_43_0,2023-11-15T20:54:27.748Z,,,1,-0.073710482,0.072532031,,TRUE,hl,7861.097,response,0.901432114,0.945,-1.1375,-0.706203863,0.873521174,-0.56590463,high,low,,ISIC_0002862.JPG,8,ISIC_3654454.JPG,69,FALSE,hl,keypress(j),0,FALSE,874215.4,874215,866320.293,866545.4,866353.903,874018.463,4,500,44,
break,html.Screen,10_43_1,2023-11-15T20:54:27.749Z,,,,,,,,,NaN,,,,,,,,high,low,,,,,,FALSE,,,,FALSE,874216.5,874216.3,,874215.8,,874018.463,4,500,,
break_continue,html.Screen,10_43_2,2023-11-15T20:54:27.750Z,,,,,,,,,NaN,,,,,,,,high,low,,,,,,FALSE,,,,FALSE,874217.2,874216.9,,874216.7,,874018.463,4,500,,
sequence,flow.Sequence,10_43,2023-11-15T20:54:27.750Z,,,,,,,,,7862.997,completion,,,,,,,high,low,,,,,,FALSE,,,,FALSE,874217.5,874216.9,866320.293,866545.3,866353.903,874018.463,4,500,,
trial,html.Screen,10_44_0,2023-11-15T20:54:33.874Z,,,1,-0.024558539,0.053462759,,FALSE,ll,6322.637,response,-0.965144703,0.945,-1.1375,-0.459748517,0.873521174,-0.56590463,low,low,,ISIC_3389704.JPG,9,ISIC_5510604.JPG,167,FALSE,hh,keypress(i),0,FALSE,880341.3,880341.1,874001.865,874217.7,874018.463,880147.191,4,500,45,
break,html.Screen,10_44_1,2023-11-15T20:54:33.874Z,,,,,,,,,NaN,,,,,,,,low,low,,,,,,FALSE,,,,FALSE,880341.6,880341.4,,880341.3,,880147.191,4,500,,
break_continue,html.Screen,10_44_2,2023-11-15T20:54:33.874Z,,,,,,,,,NaN,,,,,,,,low,low,,,,,,FALSE,,,,FALSE,880341.7,880341.7,,880341.6,,880147.191,4,500,,
sequence,flow.Sequence,10_44,2023-11-15T20:54:33.874Z,,,,,,,,,6323.237,completion,,,,,,,low,low,,,,,,FALSE,,,,FALSE,880341.8,880341.7,874001.865,874217.6,874018.463,880147.191,4,500,,
trial,html.Screen,10_45_0,2023-11-15T20:54:35.867Z,,,1,-0.022032219,-0.074091884,,TRUE,hh,2187.309,response,0.817717389,0.945,-1.1375,0.814039887,0.873521174,-0.56590463,high,high,,ISIC_8105020.JPG,10,ISIC_7196249.JPG,188,FALSE,hh,keypress(i),0,FALSE,882334.9,882334.5,880130.522,880341.8,880147.191,882134.187,4,500,46,
break,html.Screen,10_45_1,2023-11-15T20:54:35.869Z,,,,,,,,,NaN,,,,,,,,high,high,,,,,,FALSE,,,,FALSE,882335.9,882335.7,,882335.2,,882134.187,4,500,,
break_continue,html.Screen,10_45_2,2023-11-15T20:54:35.869Z,,,,,,,,,NaN,,,,,,,,high,high,,,,,,FALSE,,,,FALSE,882336.6,882336.4,,882336.1,,882134.187,4,500,,
sequence,flow.Sequence,10_45,2023-11-15T20:54:35.870Z,,,,,,,,,2189.209,completion,,,,,,,high,high,,,,,,FALSE,,,,FALSE,882336.9,882336.4,880130.522,880341.8,880147.191,882134.187,4,500,,
trial,html.Screen,10_46_0,2023-11-15T20:54:40.996Z,,,1,0.06407783,0.038768608,,TRUE,hl,5328.713,response,0.763112558,0.945,-1.1375,-0.429604283,0.873521174,-0.56590463,high,low,,ISIC_0010124.JPG,9,ISIC_7728263.JPG,69,FALSE,hl,keypress(j),0,FALSE,887463.2,887462.9,882117.757,882337.1,882134.187,887260.845,4,500,47,
break,html.Screen,10_46_1,2023-11-15T20:54:40.997Z,,,,,,,,,NaN,,,,,,,,high,low,,,,,,FALSE,,,,FALSE,887464.3,887464.1,,887463.6,,887260.845,4,500,,
break_continue,html.Screen,10_46_2,2023-11-15T20:54:40.998Z,,,,,,,,,NaN,,,,,,,,high,low,,,,,,FALSE,,,,FALSE,887465.3,887465.1,,887464.7,,887260.845,4,500,,
sequence,flow.Sequence,10_46,2023-11-15T20:54:40.998Z,,,,,,,,,5330.913,completion,,,,,,,high,low,,,,,,FALSE,,,,FALSE,887465.6,887465.1,882117.757,882337.1,882134.187,887260.845,4,500,,
trial,html.Screen,10_47_0,2023-11-15T20:54:43.084Z,,,1,0.005791476,0.007466791,,FALSE,ll,2289.855,response,-1.170084182,0.945,-1.1375,-0.37573615,0.873521174,-0.56590463,low,low,,ISIC_0058723.JPG,9,ISIC_6460137.JPG,167,FALSE,hh,keypress(i),0,FALSE,889551,889550.7,887244.109,887465.8,887260.845,889348.241,4,500,48,
break,html.Screen,10_47_1,2023-11-15T20:54:43.085Z,,,,,,,,,NaN,,,,,,,,low,low,,,,,,FALSE,,,,FALSE,889552.1,889551.9,,889551.4,,889348.241,4,500,,
break_continue,html.Screen,10_47_2,2023-11-15T20:54:43.086Z,,,,,,,,,NaN,,,,,,,,low,low,,,,,,FALSE,,,,FALSE,889552.9,889552.6,,889552.4,,889348.241,4,500,,
sequence,flow.Sequence,10_47,2023-11-15T20:54:43.086Z,,,,,,,,,2291.755,completion,,,,,,,low,low,,,,,,FALSE,,,,FALSE,889553.1,889552.6,887244.109,887465.8,887260.845,889348.241,4,500,,
trial,html.Screen,10_48_0,2023-11-15T20:54:49.371Z,,,1,-0.011387353,-0.00549992,,FALSE,hl,6490.259,response,0.828028277,0.945,-1.1375,-0.446741407,0.873521174,-0.56590463,high,low,,ISIC_8812621.JPG,8,ISIC_0000056.JPG,69,FALSE,lh,keypress(e),0,FALSE,895838.8,895838.5,889331.754,889553.4,889348.241,895643.956,4,500,49,
break,html.Screen,10_48_1,2023-11-15T20:54:49.373Z,,,,,,,,,NaN,,,,,,,,high,low,,,,,,FALSE,,,,FALSE,895840,895839.7,,895839.2,,895643.956,4,500,,
break_continue,html.Screen,10_48_2,2023-11-15T20:54:49.373Z,,,,,,,,,NaN,,,,,,,,high,low,,,,,,FALSE,,,,FALSE,895840.6,895840.4,,895840.2,,895643.956,4,500,,
sequence,flow.Sequence,10_48,2023-11-15T20:54:49.374Z,,,,,,,,,6492.159,completion,,,,,,,high,low,,,,,,FALSE,,,,FALSE,895841,895840.4,889331.754,889553.4,889348.241,895643.956,4,500,,
trial,html.Screen,10_49_0,2023-11-15T20:54:53.276Z,,,1,-0.029205972,-0.071825687,,TRUE,lh,4097.444,response,-0.957920932,0.945,-1.1375,1.01474871,0.873521174,-0.56590463,low,high,,ISIC_1114966.JPG,8,ISIC_8124482.JPG,25,FALSE,lh,keypress(e),0,FALSE,899741.6,899741.4,895627.189,895841.1,895643.956,899551.85,4,500,50,
break,html.Screen,10_49_1,2023-11-15T20:54:53.277Z,,,,,,,,,NaN,,,,,,,,low,high,,,,,,FALSE,,,,FALSE,899742.1,899742,,899741.8,,899551.85,4,500,,
break_continue,html.Screen,10_49_2,2023-11-15T20:54:53.277Z,,,,,,,,,NaN,,,,,,,,low,high,,,,,,FALSE,,,,FALSE,899742.5,899742.4,,899742.2,,899551.85,4,500,,
sequence,flow.Sequence,10_49,2023-11-15T20:54:53.277Z,,,,,,,,,4098.444,completion,,,,,,,low,high,,,,,,FALSE,,,,FALSE,899742.6,899742.4,895627.189,895841.1,895643.956,899551.85,4,500,,
trial,html.Screen,10_50_0,2023-11-15T20:54:57.596Z,,,1,0.024788022,-0.068776175,,FALSE,hh,4509.15,response,1.068086811,0.945,-1.1375,0.733120636,0.873521174,-0.56590463,high,high,,ISIC_0031745.JPG,10,ISIC_0058508.JPG,188,FALSE,lh,keypress(e),0,FALSE,904061.1,904061,899518.003,899742.7,899551.85,903859.796,4,500,51,
break,html.Screen,10_50_1,2023-11-15T20:54:57.596Z,,,,,,,,,NaN,,,,,,,,high,high,,,,,,FALSE,,,,FALSE,904061.4,904061.4,,904061.2,,903859.796,4,500,,
break_continue,html.Screen,10_50_2,2023-11-15T20:54:57.596Z,,,,,,,,,NaN,,,,,,,,high,high,,,,,,FALSE,,,,FALSE,904061.6,904061.6,,904061.5,,903859.796,4,500,,
sequence,flow.Sequence,10_50,2023-11-15T20:54:57.597Z,,,,,,,,,4509.75,completion,,,,,,,high,high,,,,,,FALSE,,,,FALSE,904061.7,904061.6,899518.003,899742.7,899551.85,903859.796,4,500,,
trial,html.Screen,10_51_0,2023-11-15T20:55:02.838Z,,,1,0.04159136,-0.054342299,,FALSE,lh,5442.704,response,-1.293175849,0.945,-1.1375,0.681615381,0.873521174,-0.56590463,low,high,,ISIC_0027956.JPG,10,ISIC_3448630.JPG,25,FALSE,hl,keypress(j),0,FALSE,909302.8,909302.5,903843.197,904061.7,903859.796,909103.305,4,500,52,
break,html.Screen,10_51_1,2023-11-15T20:55:02.839Z,,,,,,,,,NaN,,,,,,,,low,high,,,,,,FALSE,,,,FALSE,909304,909303.7,,909303.3,,909103.305,4,500,,
break_continue,html.Screen,10_51_2,2023-11-15T20:55:02.840Z,,,,,,,,,NaN,,,,,,,,low,high,,,,,,FALSE,,,,FALSE,909304.7,909304.5,,909304.2,,909103.305,4,500,,
sequence,flow.Sequence,10_51,2023-11-15T20:55:02.840Z,,,,,,,,,5444.704,completion,,,,,,,low,high,,,,,,FALSE,,,,FALSE,909305.1,909304.5,903843.197,904061.7,903859.796,909103.305,4,500,,
trial,html.Screen,10_52_0,2023-11-15T20:55:08.662Z,,,1,-0.013431314,0.014059758,,FALSE,ll,6023.395,response,-1.277596911,0.945,-1.1375,-0.67505728,0.873521174,-0.56590463,low,low,,ISIC_0069617.JPG,9,ISIC_7972996.JPG,167,FALSE,hl,keypress(j),0,FALSE,915127.2,915126.7,909086.593,909305.4,909103.305,914931.372,4,500,53,
break,html.Screen,10_52_1,2023-11-15T20:55:08.663Z,,,,,,,,,NaN,,,,,,,,low,low,,,,,,FALSE,,,,FALSE,915128.3,915128.1,,915127.6,,914931.372,4,500,,
break_continue,html.Screen,10_52_2,2023-11-15T20:55:08.664Z,,,,,,,,,NaN,,,,,,,,low,low,,,,,,FALSE,,,,FALSE,915129,915128.8,,915128.5,,914931.372,4,500,,
sequence,flow.Sequence,10_52,2023-11-15T20:55:08.664Z,,,,,,,,,6025.495,completion,,,,,,,low,low,,,,,,FALSE,,,,FALSE,915129.3,915128.8,909086.593,909305.3,909103.305,914931.372,4,500,,
trial,html.Screen,10_53_0,2023-11-15T20:55:16.702Z,,,1,0.005067913,-0.000971487,,FALSE,hl,8235.228,response,1.08182155,0.945,-1.1375,-0.446290879,0.873521174,-0.56590463,high,low,,ISIC_9848743.JPG,9,ISIC_6809586.JPG,69,FALSE,ll,keypress(f),0,FALSE,923167,923166.6,914914.889,915129.6,914931.372,922963.613,4,500,54,
break,html.Screen,10_53_1,2023-11-15T20:55:16.703Z,,,,,,,,,NaN,,,,,,,,high,low,,,,,,FALSE,,,,FALSE,923168.1,923167.8,,923167.3,,922963.613,4,500,,
break_continue,html.Screen,10_53_2,2023-11-15T20:55:16.704Z,,,,,,,,,NaN,,,,,,,,high,low,,,,,,FALSE,,,,FALSE,923168.8,923168.6,,923168.4,,922963.613,4,500,,
sequence,flow.Sequence,10_53,2023-11-15T20:55:16.704Z,,,,,,,,,8237.228,completion,,,,,,,high,low,,,,,,FALSE,,,,FALSE,923169.1,923168.6,914914.889,915129.4,914931.372,922963.613,4,500,,
trial,html.Screen,10_54_0,2023-11-15T20:55:20.414Z,,,1,0.04159136,-0.054342299,,FALSE,lh,3915.187,response,-1.269550955,0.945,-1.1375,0.964109968,0.873521174,-0.56590463,low,high,,ISIC_0027956.JPG,8,ISIC_0025841.JPG,25,FALSE,hl,keypress(j),0,FALSE,926879.2,926878.8,922947.081,923169.3,922963.613,926687.724,4,500,55,
break,html.Screen,10_54_1,2023-11-15T20:55:20.415Z,,,,,,,,,NaN,,,,,,,,low,high,,,,,,FALSE,,,,FALSE,926880.3,926880.1,,926879.5,,926687.724,4,500,,
break_continue,html.Screen,10_54_2,2023-11-15T20:55:20.416Z,,,,,,,,,NaN,,,,,,,,low,high,,,,,,FALSE,,,,FALSE,926881,926880.8,,926880.5,,926687.724,4,500,,
sequence,flow.Sequence,10_54,2023-11-15T20:55:20.416Z,,,,,,,,,3917.187,completion,,,,,,,low,high,,,,,,FALSE,,,,FALSE,926881.2,926880.8,922947.081,923169.3,922963.613,926687.724,4,500,,
trial,html.Screen,10_55_0,2023-11-15T20:55:30.230Z,,,1,-0.069176974,0.063850182,,FALSE,hl,10006.676,response,1.08182155,0.945,-1.1375,-0.446290879,0.873521174,-0.56590463,high,low,,ISIC_0031914.JPG,9,ISIC_6809586.JPG,69,FALSE,ll,keypress(f),0,FALSE,936694.7,936694.4,926671.048,926881.5,926687.724,936490.004,4,500,56,
break,html.Screen,10_55_1,2023-11-15T20:55:30.231Z,,,,,,,,,NaN,,,,,,,,high,low,,,,,,FALSE,,,,FALSE,936695.8,936695.5,,936695.1,,936490.004,4,500,,
break_continue,html.Screen,10_55_2,2023-11-15T20:55:30.231Z,,,,,,,,,NaN,,,,,,,,high,low,,,,,,FALSE,,,,FALSE,936696.5,936696.3,,936696.1,,936490.004,4,500,,
sequence,flow.Sequence,10_55,2023-11-15T20:55:30.232Z,,,,,,,,,10008.576,completion,,,,,,,high,low,,,,,,FALSE,,,,FALSE,936696.8,936696.3,926671.048,926881.4,926687.724,936490.004,4,500,,
trial,html.Screen,10_56_0,2023-11-15T20:55:35.518Z,,,1,-0.00923425,-0.062719088,,FALSE,ll,5493.096,response,-1.004499851,0.945,-1.1375,-0.551073571,0.873521174,-0.56590463,low,low,,ISIC_0053760.JPG,9,ISIC_9989936.JPG,167,FALSE,hl,keypress(j),0,FALSE,941983.4,941983.1,936473.337,936697,936490.004,941783.526,4,500,57,
break,html.Screen,10_56_1,2023-11-15T20:55:35.519Z,,,,,,,,,NaN,,,,,,,,low,low,,,,,,FALSE,,,,FALSE,941984.5,941984.2,,941983.7,,941783.526,4,500,,
break_continue,html.Screen,10_56_2,2023-11-15T20:55:35.520Z,,,,,,,,,NaN,,,,,,,,low,low,,,,,,FALSE,,,,FALSE,941985.2,941984.9,,941984.7,,941783.526,4,500,,
sequence,flow.Sequence,10_56,2023-11-15T20:55:35.520Z,,,,,,,,,5494.896,completion,,,,,,,low,low,,,,,,FALSE,,,,FALSE,941985.4,941984.9,936473.337,936696.9,936490.004,941783.526,4,500,,
trial,html.Screen,10_57_0,2023-11-15T20:55:44.886Z,,,1,-0.00511897,0.039662591,,FALSE,lh,9567.074,response,-1.293175849,0.945,-1.1375,0.681615381,0.873521174,-0.56590463,low,high,,ISIC_9742891.JPG,9,ISIC_3448630.JPG,25,FALSE,ll,keypress(f),0,FALSE,951350.9,951350.6,941767.052,941985.7,941783.526,951151.77,4,500,58,
break,html.Screen,10_57_1,2023-11-15T20:55:44.887Z,,,,,,,,,NaN,,,,,,,,low,high,,,,,,FALSE,,,,FALSE,951352,951351.7,,951351.3,,951151.77,4,500,,
break_continue,html.Screen,10_57_2,2023-11-15T20:55:44.887Z,,,,,,,,,NaN,,,,,,,,low,high,,,,,,FALSE,,,,FALSE,951352.7,951352.5,,951352.2,,951151.77,4,500,,
sequence,flow.Sequence,10_57,2023-11-15T20:55:44.888Z,,,,,,,,,9568.974,completion,,,,,,,low,high,,,,,,FALSE,,,,FALSE,951353,951352.5,941767.052,941985.7,941783.526,951151.77,4,500,,
trial,html.Screen,10_58_0,2023-11-15T20:55:49.806Z,,,1,-0.053372308,-0.029971873,,FALSE,lh,5119.23,response,-1.275432692,0.945,-1.1375,0.808395974,0.873521174,-0.56590463,low,high,,ISIC_6562871.JPG,9,ISIC_3296136.JPG,25,FALSE,hl,keypress(j),0,FALSE,956271.3,956271,951135.296,951353.2,951151.77,956078.265,4,500,59,
break,html.Screen,10_58_1,2023-11-15T20:55:49.807Z,,,,,,,,,NaN,,,,,,,,low,high,,,,,,FALSE,,,,FALSE,956272.4,956272.1,,956271.7,,956078.265,4,500,,
break_continue,html.Screen,10_58_2,2023-11-15T20:55:49.808Z,,,,,,,,,NaN,,,,,,,,low,high,,,,,,FALSE,,,,FALSE,956273.1,956272.9,,956272.6,,956078.265,4,500,,
sequence,flow.Sequence,10_58,2023-11-15T20:55:49.808Z,,,,,,,,,5121.13,completion,,,,,,,low,high,,,,,,FALSE,,,,FALSE,956273.4,956272.9,951135.296,951353.1,951151.77,956078.265,4,500,,
trial,html.Screen,10_59_0,2023-11-15T20:55:53.958Z,,,1,-0.022032219,-0.074091884,,FALSE,hl,4342.535,response,1.010395637,0.945,-1.1375,-0.548204209,0.873521174,-0.56590463,high,low,,ISIC_8105020.JPG,10,ISIC_0025267.JPG,69,FALSE,lh,keypress(e),0,FALSE,960420.9,960420.8,956061.459,956273.6,956078.265,960219.377,4,500,60,
break,html.Screen,10_59_1,2023-11-15T20:55:53.958Z,,,,,,,,,NaN,,,,,,,,high,low,,,,,,FALSE,,,,FALSE,960421.3,960421.2,,960421,,960219.377,4,500,,
break_continue,html.Screen,10_59_2,2023-11-15T20:55:53.959Z,,,,,,,,,NaN,,,,,,,,high,low,,,,,,FALSE,,,,FALSE,960421.5,960421.4,,960421.4,,960219.377,4,500,,
sequence,flow.Sequence,10_59,2023-11-15T20:55:53.959Z,,,,,,,,,4343.135,completion,,,,,,,high,low,,,,,,FALSE,,,,FALSE,960421.5,960421.4,956061.459,956273.6,956078.265,960219.377,4,500,,
trial,html.Screen,10_60_0,2023-11-15T20:55:59.023Z,,,1,-0.05520314,-0.065261243,,FALSE,ll,5266.523,response,-1.084693741,0.945,-1.1375,-0.506703897,0.873521174,-0.56590463,low,low,,ISIC_0024226.JPG,9,ISIC_1039970.JPG,167,FALSE,hl,keypress(j),0,FALSE,965486,965485.9,960202.934,960421.5,960219.377,965297.39,4,500,61,
break,html.Screen,10_60_1,2023-11-15T20:55:59.023Z,,,,,,,,,NaN,,,,,,,,low,low,,,,,,FALSE,,,,FALSE,965486.3,965486.3,,965486.1,,965297.39,4,500,,
break_continue,html.Screen,10_60_2,2023-11-15T20:55:59.024Z,,,,,,,,,NaN,,,,,,,,low,low,,,,,,FALSE,,,,FALSE,965486.5,965486.4,,965486.3,,965297.39,4,500,,
sequence,flow.Sequence,10_60,2023-11-15T20:55:59.024Z,,,,,,,,,5267.023,completion,,,,,,,low,low,,,,,,FALSE,,,,FALSE,965486.6,965486.4,960202.934,960421.5,960219.377,965297.39,4,500,,
trial,html.Screen,10_61_0,2023-11-15T20:56:06.032Z,,,1,-0.040933869,0.007246271,,FALSE,ll,7197.41,response,-1.333450034,0.945,-1.1375,-0.602725694,0.873521174,-0.56590463,low,low,,ISIC_3608788.JPG,9,ISIC_0066223.JPG,167,FALSE,lh,keypress(e),0,FALSE,972495.2,972494.8,965262.754,965486.7,965297.39,972292.899,4,500,62,
break,html.Screen,10_61_1,2023-11-15T20:56:06.033Z,,,,,,,,,NaN,,,,,,,,low,low,,,,,,FALSE,,,,FALSE,972496.3,972496.1,,972495.6,,972292.899,4,500,,
break_continue,html.Screen,10_61_2,2023-11-15T20:56:06.034Z,,,,,,,,,NaN,,,,,,,,low,low,,,,,,FALSE,,,,FALSE,972497,972496.8,,972496.6,,972292.899,4,500,,
sequence,flow.Sequence,10_61,2023-11-15T20:56:06.034Z,,,,,,,,,7199.41,completion,,,,,,,low,low,,,,,,FALSE,,,,FALSE,972497.4,972496.8,965262.754,965486.6,965297.39,972292.899,4,500,,
trial,html.Screen,10_62_0,2023-11-15T20:56:12.000Z,,,1,0.059367082,-0.071839054,,FALSE,hl,6169.701,response,0.807742161,0.945,-1.1375,-0.374245366,0.873521174,-0.56590463,high,low,,ISIC_0062367.JPG,9,ISIC_0182730.JPG,69,FALSE,lh,keypress(e),0,FALSE,978462.9,978462.6,972276.397,972497.6,972292.899,978271.198,4,500,63,
break,html.Screen,10_62_1,2023-11-15T20:56:12.001Z,,,,,,,,,NaN,,,,,,,,high,low,,,,,,FALSE,,,,FALSE,978464.1,978463.8,,978463.3,,978271.198,4,500,,
break_continue,html.Screen,10_62_2,2023-11-15T20:56:12.002Z,,,,,,,,,NaN,,,,,,,,high,low,,,,,,FALSE,,,,FALSE,978464.8,978464.5,,978464.2,,978271.198,4,500,,
sequence,flow.Sequence,10_62,2023-11-15T20:56:12.002Z,,,,,,,,,6171.601,completion,,,,,,,high,low,,,,,,FALSE,,,,FALSE,978465,978464.5,972276.397,972497.5,972292.899,978271.198,4,500,,
trial,html.Screen,10_63_0,2023-11-15T20:56:18.191Z,,,1,-0.051676299,0.01301955,,TRUE,hh,6382.202,response,0.88881879,0.945,-1.1375,0.816257933,0.873521174,-0.56590463,high,high,,ISIC_9978498.JPG,9,ISIC_0070285.JPG,188,FALSE,hh,keypress(i),0,FALSE,984653.6,984653.4,978254.598,978465.2,978271.198,984449.844,4,500,64,
break,html.Screen,10_63_1,2023-11-15T20:56:18.191Z,,,,,,,,,NaN,,,,,,,,high,high,,,,,,FALSE,,,,FALSE,984654.1,984654,,984653.8,,984449.844,4,500,,
