sender,sender_type,sender_id,timestamp,meta,,age,blockNo,c1,c2,condition,correct,correctResponse,duration,ended_on,f1,f1_high,f1_low,f2,f2_high,f2_low,feature_level1,feature_level2,gender,img_left,img_reveal,img_right,n_target_images,practice,response,response_action,selection_duration,staircase,time_commit,time_end,time_render,time_run,time_show,time_switch,total_blocks,total_trials,trialNo,url
informed_consent,html.Screen,0,2023-11-15T18:39:41.898Z,"{""labjs_version"":""20.2.4"",""labjs_build"":{""flavor"":""development"",""commit"":""f5b4a49f956347addd546a832a3327688c2c0fef""},""location"":""https://labjs.felixhenninger.com/api/labjs_preview/index.html"",""userAgent"":""Mozilla/5.0 (Windows NT 10.0; Win64; x64) AppleWebKit/537.36 (KHTML, like Gecko) Chrome/119.0.0.0 Safari/537.36"",""platform"":""Win32"",""language"":""en-US"",""locale"":""en-US"",""timeZone"":""America/Chicago"",""timezoneOffset"":360,""screen_width"":1920,""screen_height"":1080,""scroll_width"":945,""scroll_height"":918,""window_innerWidth"":945,""window_innerHeight"":966,""devicePixelRatio"":1}",,,,,,,,,40683.63800000298,response,,,,,,,,,,,,,,,consent,click button,,,41339.70000000298,41331.20000000298,630.914,820.1000000089407,647.562,41147.482,,,,{}
Demography form,html.Form,1,2023-11-15T18:39:50.027Z,,,19,,,,,,,8320.317999997016,form submission,,,,,,,,,female,,,,,,,,,,49467.90000000596,49467.79999999702,41130.981,41339.90000000596,41147.482,49297.701,,,,
Welcome,html.Screen,2,2023-11-15T18:40:16.483Z,,,,,,,"[""asym"",""bor""]",,,26625.59899999702,response,,,,,,,,,,,,,,,continue,click button,,,75923.79999999702,75923.29999999702,49280.798,49468,49297.701,75747.646,,,,
demo_instructions,html.Screen,3,2023-11-15T18:40:41.819Z,,,,,,,,,,25511.754000005967,response,,,,,,,,,,,,,,,continue,click button,,,101259.90000000596,101259.40000000596,75730.932,75923.90000000596,75747.646,101080.817,,,,
trial,html.Screen,4_0_0,2023-11-15T18:40:52.164Z,,,,0,0.8655167308525522,-0.9298580423306444,,true,lh,10522.783000008945,response,-0.9454713230140772,1.0499999999999998,-1.0499999999999998,0.9245167441969216,1.0499999999999998,-1.0499999999999998,low,high,,ISIC_4603706.JPG,,ISIC_9101055.JPG,21,true,lh,keypress(e),100,false,111604.10000000894,111603.60000000894,101064.232,101260.10000000894,101080.817,111430.754,1,16,1,
sequence,flow.Sequence,4_0,2023-11-15T18:40:52.164Z,,,,,,,,,,10522.783000008945,completion,,,,,,,low,high,,,,,,true,,,,false,111604.79999999702,111603.60000000894,101064.232,101260.10000000894,101080.817,111430.754,1,16,,
trial,html.Screen,4_1_0,2023-11-15T18:41:01.312Z,,,,0,0.948927472020595,-1.0660437155921598,,true,lh,9320.94600000298,response,-0.9433720631499012,1.0499999999999998,-1.0499999999999998,1.0582071940347648,1.0499999999999998,-1.0499999999999998,low,high,,ISIC_5808758.JPG,,ISIC_4890201.JPG,21,true,lh,keypress(e),100,false,120752.10000000894,120751.70000000298,111414.013,111605.10000000894,111430.754,120580.78,1,16,2,
sequence,flow.Sequence,4_1,2023-11-15T18:41:01.312Z,,,,,,,,,,9320.94600000298,completion,,,,,,,low,high,,,,,,true,,,,false,120752.70000000298,120751.70000000298,111414.013,111605,111430.754,120580.78,1,16,,
trial,html.Screen,4_2_0,2023-11-15T18:41:11.594Z,,,,0,0.9235571765207048,-1.0008081653938232,,true,lh,10453.620000005962,response,-1.2364994561934892,1.0499999999999998,-1.0499999999999998,0.9174173651516624,1.0499999999999998,-1.0499999999999998,low,high,,ISIC_8796632.JPG,,ISIC_3481133.JPG,21,true,lh,keypress(e),100,false,131034.70000000298,131034.40000000596,120563.956,120753,120580.78,130864.09,1,16,3,
sequence,flow.Sequence,4_2,2023-11-15T18:41:11.595Z,,,,,,,,,,10453.620000005962,completion,,,,,,,low,high,,,,,,true,,,,false,131035.29999999702,131034.40000000596,120563.956,120752.79999999702,120580.78,130864.09,1,16,,
trial,html.Screen,4_3_0,2023-11-15T18:41:20.821Z,,,,0,0.8947611078712571,-0.8960964505004638,,true,lh,9396.709999997023,response,-1.2331439637486756,1.0499999999999998,-1.0499999999999998,0.9691143900156988,1.0499999999999998,-1.0499999999999998,low,high,,ISIC_6441128.JPG,,ISIC_7877488.JPG,21,true,lh,keypress(e),100,false,140261.10000000894,140260.79999999702,130847.273,131035.5,130864.09,140097.237,1,16,4,
sequence,flow.Sequence,4_3,2023-11-15T18:41:20.821Z,,,,,,,,,,9396.709999997023,completion,,,,,,,low,high,,,,,,true,,,,false,140261.70000000298,140260.79999999702,130847.273,131035.5,130864.09,140097.237,1,16,,
trial,html.Screen,4_4_0,2023-11-15T18:41:30.288Z,,,,0,0.8658216082775305,0.9788979939580964,,true,ll,9630.863000008947,response,-0.878837306607763,1.0499999999999998,-1.0499999999999998,-0.9806817794837708,1.0499999999999998,-1.0499999999999998,low,low,,ISIC_0331389.JPG,,ISIC_6250970.JPG,111,true,ll,keypress(f),100,false,149728.5,149728.10000000894,140080.64,140261.90000000596,140097.237,149563.861,1,16,5,
sequence,flow.Sequence,4_4,2023-11-15T18:41:30.289Z,,,,,,,,,,9630.863000008947,completion,,,,,,,low,low,,,,,,true,,,,false,149729.20000000298,149728.10000000894,140080.64,140261.90000000596,140097.237,149563.861,1,16,,
trial,html.Screen,4_5_0,2023-11-15T18:41:37.388Z,,,,0,1.101214461533281,1.1849883512428183,,true,ll,7263.638999999996,response,-1.056824784611021,1.0499999999999998,-1.0499999999999998,-0.8736902702135552,1.0499999999999998,-1.0499999999999998,low,low,,ISIC_0064943.JPG,,ISIC_0014026.JPG,111,true,ll,keypress(f),100,false,156828.10000000894,156827.5,149547.257,149729.40000000596,149563.861,156663.863,1,16,6,
sequence,flow.Sequence,4_5,2023-11-15T18:41:37.389Z,,,,,,,,,,7263.638999999996,completion,,,,,,,low,low,,,,,,true,,,,false,156829.10000000894,156827.5,149547.257,149729.29999999702,149563.861,156663.863,1,16,,
trial,html.Screen,4_6_0,2023-11-15T18:41:47.590Z,,,,0,0.9545500235555924,1.2140255839622307,,true,ll,10365.936999997008,response,-0.9191486333136276,1.0499999999999998,-1.0499999999999998,-1.001866590114321,1.0499999999999998,-1.0499999999999998,low,low,,ISIC_8704257.JPG,,ISIC_0663941.JPG,111,true,ll,keypress(f),100,false,167030.10000000894,167029.79999999702,156647.154,156829.60000000894,156663.863,166863.826,1,16,7,
sequence,flow.Sequence,4_6,2023-11-15T18:41:47.590Z,,,,,,,,,,10365.936999997008,completion,,,,,,,low,low,,,,,,true,,,,false,167030.60000000894,167029.79999999702,156647.154,156829.40000000596,156663.863,166863.826,1,16,,
trial,html.Screen,4_7_0,2023-11-15T18:41:59.024Z,,,,0,0.8665886246441876,0.8507210279123499,,true,ll,11600.473999997019,response,-1.1137763092539212,1.0499999999999998,-1.0499999999999998,-1.1599906701455132,1.0499999999999998,-1.0499999999999998,low,low,,ISIC_1071355.JPG,,ISIC_5413788.JPG,111,true,ll,keypress(f),100,false,178464.70000000298,178464.29999999702,166847.207,167030.79999999702,166863.826,178297.295,1,16,8,
sequence,flow.Sequence,4_7,2023-11-15T18:41:59.025Z,,,,,,,,,,11600.473999997019,completion,,,,,,,low,low,,,,,,true,,,,false,178465.20000000298,178464.29999999702,166847.207,167030.79999999702,166863.826,178297.295,1,16,,
trial,html.Screen,4_8_0,2023-11-15T18:42:07.185Z,,,,0,-0.8860551570327019,0.8067116931297591,,true,hl,8327.905000002967,response,0.8623414234919863,0.9499999999999997,-0.9499999999999997,-0.782830143980698,0.9499999999999997,-0.9499999999999997,high,low,,ISIC_1457687.JPG,,ISIC_2727016.JPG,26,true,hl,keypress(j),100,false,186625.5,186625.20000000298,178280.498,178465.5,178297.295,186463.848,1,16,9,
sequence,flow.Sequence,4_8,2023-11-15T18:42:07.186Z,,,,,,,,,,8327.905000002967,completion,,,,,,,high,low,,,,,,true,,,,false,186626.10000000894,186625.20000000298,178280.498,178465.40000000596,178297.295,186463.848,1,16,,
trial,html.Screen,4_9_0,2023-11-15T18:42:18.492Z,,,,0,-1.020990671779317,1.0116513850520903,,true,hl,11468.352000002982,response,0.8035152873995188,0.9499999999999997,-0.9499999999999997,-0.82868450251632,0.9499999999999997,-0.9499999999999997,high,low,,ISIC_0011995.JPG,,ISIC_0010671.JPG,26,true,hl,keypress(j),100,false,197932.5,197932.20000000298,186447.369,186626.29999999702,186463.848,197763.969,1,16,10,
sequence,flow.Sequence,4_9,2023-11-15T18:42:18.493Z,,,,,,,,,,11468.352000002982,completion,,,,,,,high,low,,,,,,true,,,,false,197933.10000000894,197932.20000000298,186447.369,186626.29999999702,186463.848,197763.969,1,16,,
trial,html.Screen,4_10_0,2023-11-15T18:42:27.608Z,,,,0,-0.7836356408583546,1.1197925594706428,,true,hl,9283.731000002968,response,0.9873794329144926,0.9499999999999997,-0.9499999999999997,-0.7991077882008257,0.9499999999999997,-0.9499999999999997,high,low,,ISIC_0024961.JPG,,ISIC_0013498.JPG,26,true,hl,keypress(j),100,false,207048.20000000298,207047.70000000298,197747.088,197933.29999999702,197763.969,206880.58,1,16,11,
sequence,flow.Sequence,4_10,2023-11-15T18:42:27.608Z,,,,,,,,,,9283.731000002968,completion,,,,,,,high,low,,,,,,true,,,,false,207048.70000000298,207047.70000000298,197747.088,197933.29999999702,197763.969,206880.58,1,16,,
trial,html.Screen,4_11_0,2023-11-15T18:42:36.755Z,,,,0,-0.869932994914832,0.8880533324432531,,true,hl,9314.120000002993,response,0.809764442462202,0.9499999999999997,-0.9499999999999997,-1.005337148078696,0.9499999999999997,-0.9499999999999997,high,low,,ISIC_8617084.JPG,,ISIC_2379379.JPG,26,true,hl,keypress(j),100,false,216194.90000000596,216194.70000000298,206863.781,207049.10000000894,206880.58,216030.528,1,16,12,
sequence,flow.Sequence,4_11,2023-11-15T18:42:36.755Z,,,,,,,,,,9314.120000002993,completion,,,,,,,high,low,,,,,,true,,,,false,216195.10000000894,216194.70000000298,206863.781,207049,206880.58,216030.528,1,16,,
trial,html.Screen,4_12_0,2023-11-15T18:42:45.736Z,,,,0,-0.7798182602765784,-0.8643036808931337,,true,hh,9145.172000002989,response,0.781420271893034,0.9499999999999997,-0.9499999999999997,0.8475699534335533,0.9499999999999997,-0.9499999999999997,high,high,,ISIC_6703027.JPG,,ISIC_0066429.JPG,167,true,hh,keypress(i),100,false,225175.79999999702,225175.70000000298,216013.878,216195.29999999702,216030.528,225013.665,1,16,13,
sequence,flow.Sequence,4_12,2023-11-15T18:42:45.736Z,,,,,,,,,,9145.172000002989,completion,,,,,,,high,high,,,,,,true,,,,false,225176,225175.70000000298,216013.878,216195.20000000298,216030.528,225013.665,1,16,,
trial,html.Screen,4_13_0,2023-11-15T18:42:54.173Z,,,,0,-1.101961018205887,-0.891963134716088,,true,hh,8598.735000005952,response,0.9263931440503964,0.9499999999999997,-0.9499999999999997,0.9159664042920548,0.9499999999999997,-0.9499999999999997,high,high,,ISIC_5625747.JPG,,ISIC_0053617.JPG,167,true,hh,keypress(i),100,false,233612.70000000298,233612.40000000596,224997,225176.10000000894,225013.665,233447.113,1,16,14,
sequence,flow.Sequence,4_13,2023-11-15T18:42:54.173Z,,,,,,,,,,8598.735000005952,completion,,,,,,,high,high,,,,,,true,,,,false,233613.29999999702,233612.40000000596,224997,225176.10000000894,225013.665,233447.113,1,16,,
trial,html.Screen,4_14_0,2023-11-15T18:42:59.736Z,,,,0,-0.9859190680307316,-1.0904756837966545,,true,hh,5728.587000002968,response,1.1135119625680223,0.9499999999999997,-0.9499999999999997,0.8824045702297937,0.9499999999999997,-0.9499999999999997,high,high,,ISIC_0063151.JPG,,ISIC_6899527.JPG,167,true,hh,keypress(i),100,false,239175.90000000596,239175.70000000298,233430.342,233613.60000000894,233447.113,239013.863,1,16,15,
sequence,flow.Sequence,4_14,2023-11-15T18:42:59.736Z,,,,,,,,,,5728.587000002968,completion,,,,,,,high,high,,,,,,true,,,,false,239176.20000000298,239175.70000000298,233430.342,233613.5,233447.113,239013.863,1,16,,
trial,html.Screen,4_15_0,2023-11-15T18:43:06.125Z,,,,0,-1.0270718265914571,-0.9536353804316964,,true,hh,6550.436999997008,response,0.9012711689442632,0.9499999999999997,-0.9499999999999997,0.8639942067158306,0.9499999999999997,-0.9499999999999997,high,high,,ISIC_3431915.JPG,,ISIC_0032718.JPG,167,true,hh,keypress(i),100,false,245564.70000000298,245564.29999999702,238997.191,239176.29999999702,239013.863,245396.929,1,16,16,
sequence,flow.Sequence,4_15,2023-11-15T18:43:06.125Z,,,,,,,,,,6550.436999997008,completion,,,,,,,high,high,,,,,,true,,,,false,245565.20000000298,245564.29999999702,238997.191,239176.20000000298,239013.863,245396.929,1,16,,
demonstration_loop,flow.Loop,4,2023-11-15T18:43:06.126Z,,,,,,,,,,144483.48299999704,completion,,,,,,,,,,,,,,true,,,,false,245565.60000000894,245564.29999999702,101064.232,101260,101080.817,245396.929,1,16,,
practice_instructions,html.Screen,5,2023-11-15T18:43:27.171Z,,,,,,,,,,21205.971000005957,response,,,,,,,,,,,,,,,continue,click button,,,266611.200000003,266602.90000000596,245380.357,245565.79999999702,245396.929,266413.533,,,,
trial,html.Screen,6_0_0,2023-11-15T18:43:38.024Z,,,,1,-1.0275060871969903,-0.8666323445825409,,,,10866.63500000001,timeout,0.9209488961172596,0.9499999999999997,-0.9499999999999997,0.9916011869447884,0.9499999999999997,-0.9499999999999997,high,high,,ISIC_9155028.JPG,,ISIC_3338629.JPG,167,true,,,0,false,277464,277463.60000000894,266396.855,266611.40000000596,266413.533,277280.168,1,40,1,
sequence,flow.Sequence,6_0,2023-11-15T18:43:38.025Z,,,,,,,,,,11050.067000008945,completion,,,,,,,high,high,,,,,,true,,,,false,277464.5,277463.60000000894,266396.855,266611.40000000596,266413.533,277280.168,1,40,,
trial,html.Screen,6_1_0,2023-11-15T18:43:43.085Z,,,,1,0.9388660854518424,-0.79533948698576,,true,lh,5244.631999997015,response,-0.7877939497981142,0.9499999999999997,-0.9499999999999997,0.8415032780288271,0.9499999999999997,-0.9499999999999997,low,high,,ISIC_9291926.JPG,,ISIC_0067308.JPG,28,true,lh,keypress(e),0,false,282525,282524.799999997,277263.759,277464.700000003,277280.168,282346.837,1,40,2,
sequence,flow.Sequence,6_1,2023-11-15T18:43:43.086Z,,,,,,,,,,5244.631999997015,completion,,,,,,,low,high,,,,,,true,,,,false,282525.5,282524.799999997,277263.759,277464.60000000894,277280.168,282346.837,1,40,,
trial,html.Screen,6_2_0,2023-11-15T18:43:48.286Z,,,,1,0.944066353660726,0.7979057924454982,,false,ll,5378.1630000000005,response,-1.1217390688497193,0.9499999999999997,-0.9499999999999997,-0.8482399573167824,0.9499999999999997,-0.9499999999999997,low,low,,ISIC_0060696.JPG,,ISIC_0026344.JPG,142,true,lh,keypress(e),0,false,287725.299999997,287725,282329.977,282525.700000003,282346.837,287546.877,1,40,3,
sequence,flow.Sequence,6_2,2023-11-15T18:43:48.286Z,,,,,,,,,,5378.1630000000005,completion,,,,,,,low,low,,,,,,true,,,,false,287725.700000003,287725,282329.977,282525.60000000894,282346.837,287546.877,1,40,,
trial,html.Screen,6_3_0,2023-11-15T18:43:55.268Z,,,,1,-1.0909285203537074,-1.013890238726642,,true,hh,7160.623000000021,response,0.8471355550006346,0.9499999999999997,-0.9499999999999997,0.8721011160837115,0.9499999999999997,-0.9499999999999997,high,high,,ISIC_0033799.JPG,,ISIC_0025744.JPG,167,true,hh,keypress(i),0,false,294707.60000000894,294707.5,287530.165,287725.90000000596,287546.877,294530.14,1,40,4,
sequence,flow.Sequence,6_3,2023-11-15T18:43:55.268Z,,,,,,,,,,7160.623000000021,completion,,,,,,,high,high,,,,,,true,,,,false,294707.799999997,294707.5,287530.165,287725.799999997,287546.877,294530.14,1,40,,
trial,html.Screen,6_4_0,2023-11-15T18:44:02.574Z,,,,1,1.0490239046679242,0.772342084429769,,false,ll,7483.159999997006,response,-1.0717785279820962,0.9499999999999997,-0.9499999999999997,-1.1267239445830604,0.9499999999999997,-0.9499999999999997,low,low,,ISIC_0071430.JPG,,ISIC_9948815.JPG,142,true,hh,keypress(i),0,false,302013.5,302013.299999997,294513.392,294707.799999997,294530.14,301830.102,1,40,5,
sequence,flow.Sequence,6_4,2023-11-15T18:44:02.574Z,,,,,,,,,,7483.159999997006,completion,,,,,,,low,low,,,,,,true,,,,false,302013.90000000596,302013.299999997,294513.392,294707.799999997,294530.14,301830.102,1,40,,
trial,html.Screen,6_5_0,2023-11-15T18:44:07.286Z,,,,1,1.0213365328004047,-1.088524359911891,,true,lh,4894.798000005947,response,-1.1181734135756094,0.9499999999999997,-0.9499999999999997,0.944560381774994,0.9499999999999997,-0.9499999999999997,low,high,,ISIC_5434229.JPG,,ISIC_9688534.JPG,28,true,lh,keypress(e),0,false,306725.299999997,306724.90000000596,301813.194,302014.10000000894,301830.102,306547.014,1,40,6,
sequence,flow.Sequence,6_5,2023-11-15T18:44:07.286Z,,,,,,,,,,4894.798000005947,completion,,,,,,,low,high,,,,,,true,,,,false,306725.60000000894,306724.90000000596,301813.194,302014.10000000894,301830.102,306547.014,1,40,,
trial,html.Screen,6_6_0,2023-11-15T18:44:11.654Z,,,,1,-0.858338058340649,0.9540612223480284,,false,hl,4546.686000002956,response,1.0213365328004047,0.9499999999999997,-0.9499999999999997,-1.088524359911891,0.9499999999999997,-0.9499999999999997,high,low,,ISIC_8922893.JPG,,ISIC_5434229.JPG,26,true,lh,keypress(e),0,false,311094,311093.700000003,306530.215,306725.799999997,306547.014,310913.483,1,40,7,
sequence,flow.Sequence,6_6,2023-11-15T18:44:11.655Z,,,,,,,,,,4546.686000002956,completion,,,,,,,high,low,,,,,,true,,,,false,311094.299999997,311093.700000003,306530.215,306725.799999997,306547.014,310913.483,1,40,,
trial,html.Screen,6_7_0,2023-11-15T18:44:17.566Z,,,,1,-0.9949403898803344,-1.0036806409150678,,false,hh,6091.917000005953,response,0.9053396132028096,0.9499999999999997,-0.9499999999999997,0.7935069588038893,0.9499999999999997,-0.9499999999999997,high,high,,ISIC_0012450.JPG,,ISIC_0010729.JPG,167,true,lh,keypress(e),0,false,317005.700000003,317005.40000000596,310896.74,311094.5,310913.483,316830.313,1,40,8,
sequence,flow.Sequence,6_7,2023-11-15T18:44:17.566Z,,,,,,,,,,6091.917000005953,completion,,,,,,,high,high,,,,,,true,,,,false,317006.200000003,317005.40000000596,310896.74,311094.5,310913.483,316830.313,1,40,,
trial,html.Screen,6_8_0,2023-11-15T18:44:22.813Z,,,,1,1.0115965332688306,-0.8282633603842442,,false,lh,5422.587000005937,response,-0.8579451262594331,0.9499999999999997,-0.9499999999999997,0.9633172970727744,0.9499999999999997,-0.9499999999999997,low,high,,ISIC_1069587.JPG,,ISIC_0067172.JPG,28,true,ll,keypress(f),0,false,322253,322252.90000000596,316813.489,317006.299999997,316830.313,322063.379,1,40,9,
sequence,flow.Sequence,6_8,2023-11-15T18:44:22.813Z,,,,,,,,,,5422.587000005937,completion,,,,,,,low,high,,,,,,true,,,,false,322253.200000003,322252.90000000596,316813.489,317006.299999997,316830.313,322063.379,1,40,,
trial,html.Screen,6_9_0,2023-11-15T18:44:28.687Z,,,,1,-0.8200367443437355,-0.8336927721396412,,false,hh,6062.420999997004,response,0.758207007584394,0.9499999999999997,-0.9499999999999997,1.0437879361189135,0.9499999999999997,-0.9499999999999997,high,high,,ISIC_0553565.JPG,,ISIC_0011626.JPG,167,true,hl,keypress(j),0,false,328126.200000003,328125.799999997,322046.774,322253.200000003,322063.379,327946.869,1,40,10,
sequence,flow.Sequence,6_9,2023-11-15T18:44:28.687Z,,,,,,,,,,6062.420999997004,completion,,,,,,,high,high,,,,,,true,,,,false,328126.60000000894,328125.799999997,322046.774,322253.200000003,322063.379,327946.869,1,40,,
trial,html.Screen,6_10_0,2023-11-15T18:44:34.941Z,,,,1,-0.9454713230140772,0.9245167441969216,,false,hl,6433.331000002974,response,0.9388660854518424,0.9499999999999997,-0.9499999999999997,-0.79533948698576,0.9499999999999997,-0.9499999999999997,high,low,,ISIC_9101055.JPG,,ISIC_9291926.JPG,26,true,lh,keypress(e),0,false,334380.299999997,334380.200000003,327930.079,328126.799999997,327946.869,334196.69,1,40,11,
sequence,flow.Sequence,6_10,2023-11-15T18:44:34.941Z,,,,,,,,,,6433.331000002974,completion,,,,,,,high,low,,,,,,true,,,,false,334380.40000000596,334380.200000003,327930.079,328126.700000003,327946.869,334196.69,1,40,,
trial,html.Screen,6_11_0,2023-11-15T18:44:39.646Z,,,,1,0.7646541361813586,0.7897684269039633,,false,ll,4888.510000002978,response,-1.1210325063849345,0.9499999999999997,-0.9499999999999997,-1.1498648320956202,0.9499999999999997,-0.9499999999999997,low,low,,ISIC_0057978.JPG,,ISIC_0032162.JPG,142,true,hh,keypress(i),0,false,339085.5,339085.200000003,334179.954,334380.40000000596,334196.69,338896.718,1,40,12,
sequence,flow.Sequence,6_11,2023-11-15T18:44:39.646Z,,,,,,,,,,4888.510000002978,completion,,,,,,,low,low,,,,,,true,,,,false,339085.90000000596,339085.200000003,334179.954,334380.40000000596,334196.69,338896.718,1,40,,
trial,html.Screen,6_12_0,2023-11-15T18:44:43.308Z,,,,1,0.9866439901618108,0.9294281370493894,,false,ll,3850.382000008947,response,-0.9358725198038064,0.9499999999999997,-0.9499999999999997,-0.9938776615596308,0.9499999999999997,-0.9499999999999997,low,low,,ISIC_0072953.JPG,,ISIC_3365692.JPG,142,true,hh,keypress(i),0,false,342747.200000003,342747.10000000894,338880.103,339086.200000003,338896.718,342563.298,1,40,13,
sequence,flow.Sequence,6_12,2023-11-15T18:44:43.308Z,,,,,,,,,,3850.382000008947,completion,,,,,,,low,low,,,,,,true,,,,false,342747.40000000596,342747.10000000894,338880.103,339086.200000003,338896.718,342563.298,1,40,,
trial,html.Screen,6_13_0,2023-11-15T18:44:48.598Z,,,,1,-1.0378929077920005,-1.012953297890337,,false,hh,5473.50199999701,response,0.987907971728555,0.9499999999999997,-0.9499999999999997,0.7987724453125647,0.9499999999999997,-0.9499999999999997,high,high,,ISIC_0231745.JPG,,ISIC_3613392.JPG,167,true,lh,keypress(e),0,false,348037.10000000894,348036.799999997,342546.76,342747.40000000596,342563.298,347863.527,1,40,14,
sequence,flow.Sequence,6_13,2023-11-15T18:44:48.598Z,,,,,,,,,,5473.50199999701,completion,,,,,,,high,high,,,,,,true,,,,false,348037.60000000894,348036.799999997,342546.76,342747.40000000596,342563.298,347863.527,1,40,,
trial,html.Screen,6_14_0,2023-11-15T18:44:51.892Z,,,,1,0.887838744955182,-0.7545096650863988,,true,lh,3468.073000008939,response,-0.8979276789594874,0.9499999999999997,-0.9499999999999997,0.925374811016654,0.9499999999999997,-0.9499999999999997,low,high,,ISIC_1488727.JPG,,ISIC_4208361.JPG,28,true,lh,keypress(e),0,false,351331.700000003,351331.60000000894,347830.078,348037.700000003,347863.527,351146.7,1,40,15,
sequence,flow.Sequence,6_14,2023-11-15T18:44:51.893Z,,,,,,,,,,3468.073000008939,completion,,,,,,,low,high,,,,,,true,,,,false,351331.90000000596,351331.60000000894,347830.078,348037.700000003,347863.527,351146.7,1,40,,
trial,html.Screen,6_15_0,2023-11-15T18:44:57.631Z,,,,1,0.8816288864119318,-0.801867301188093,,false,lh,5923.000000002969,response,-0.858338058340649,0.9499999999999997,-0.9499999999999997,0.9540612223480284,0.9499999999999997,-0.9499999999999997,low,high,,ISIC_9196783.JPG,,ISIC_8922893.JPG,28,true,hh,keypress(i),0,false,357069.90000000596,357069.700000003,351130.014,351332,351146.7,356897.085,1,40,16,
sequence,flow.Sequence,6_15,2023-11-15T18:44:57.631Z,,,,,,,,,,5923.000000002969,completion,,,,,,,low,high,,,,,,true,,,,false,357070.299999997,357069.700000003,351130.014,351331.90000000596,351146.7,356897.085,1,40,,
trial,html.Screen,6_16_0,2023-11-15T18:45:02.358Z,,,,1,-0.8809306963311293,0.8614910030038974,,false,hl,4899.714999996999,response,1.0115965332688306,0.9499999999999997,-0.9499999999999997,-0.8282633603842442,0.9499999999999997,-0.9499999999999997,high,low,,ISIC_0013731.JPG,,ISIC_1069587.JPG,26,true,ll,keypress(f),0,false,361797.10000000894,361796.799999997,356863.289,357070.60000000894,356897.085,361613.327,1,40,17,
sequence,flow.Sequence,6_16,2023-11-15T18:45:02.358Z,,,,,,,,,,4899.714999996999,completion,,,,,,,high,low,,,,,,true,,,,false,361797.40000000596,361796.799999997,356863.289,357070.5,356897.085,361613.327,1,40,,
trial,html.Screen,6_17_0,2023-11-15T18:45:07.238Z,,,,1,0.8068224817535752,0.8996141262602615,,false,ll,5063.97299999703,response,-1.13791006772072,0.9499999999999997,-0.9499999999999997,-0.8618956235878876,0.9499999999999997,-0.9499999999999997,low,low,,ISIC_0059601.JPG,,ISIC_6635699.JPG,142,true,lh,keypress(e),0,false,366677.60000000894,366677.299999997,361596.632,361797.60000000894,361613.327,366496.624,1,40,18,
sequence,flow.Sequence,6_17,2023-11-15T18:45:07.239Z,,,,,,,,,,5063.97299999703,completion,,,,,,,low,low,,,,,,true,,,,false,366677.90000000596,366677.299999997,361596.632,361797.60000000894,361613.327,366496.624,1,40,,
trial,html.Screen,6_18_0,2023-11-15T18:45:11.662Z,,,,1,-0.7977113275495125,-0.923711824877252,,true,hh,4604.27600000595,response,1.0910404089869363,0.9499999999999997,-0.9499999999999997,1.119702461098404,0.9499999999999997,-0.9499999999999997,high,high,,ISIC_1023354.JPG,,ISIC_0067097.JPG,167,true,hh,keypress(i),0,false,371101.200000003,371100.90000000596,366480.033,366678.200000003,366496.624,370913.302,1,40,19,
sequence,flow.Sequence,6_18,2023-11-15T18:45:11.662Z,,,,,,,,,,4604.27600000595,completion,,,,,,,high,high,,,,,,true,,,,false,371101.60000000894,371100.90000000596,366480.033,366678,366496.624,370913.302,1,40,,
trial,html.Screen,6_19_0,2023-11-15T18:45:17.174Z,,,,1,0.7902359375375733,0.8607451825540537,,false,ll,5699.398000002955,response,-0.8728834820669534,0.9499999999999997,-0.9499999999999997,-0.9788202580034188,0.9499999999999997,-0.9499999999999997,low,low,,ISIC_0899961.JPG,,ISIC_7519627.JPG,142,true,hl,keypress(j),0,false,376613,376612.700000003,370896.647,371101.799999997,370913.302,376429.961,1,40,20,
sequence,flow.Sequence,6_19,2023-11-15T18:45:17.174Z,,,,,,,,,,5699.398000002955,completion,,,,,,,low,low,,,,,,true,,,,false,376613.40000000596,376612.700000003,370896.647,371101.799999997,370913.302,376429.961,1,40,,
trial,html.Screen,6_20_0,2023-11-15T18:45:21.479Z,,,,1,0.7870237732709365,-0.9172955251119376,,false,lh,4487.63900000893,response,-1.0865333402803938,0.9499999999999997,-0.9499999999999997,1.0542635307358266,0.9499999999999997,-0.9499999999999997,low,high,,ISIC_0057716.JPG,,ISIC_0034006.JPG,28,true,ll,keypress(f),0,false,380917.90000000596,380917.60000000894,376413.307,376613.5,376429.961,380729.94,1,40,21,
sequence,flow.Sequence,6_20,2023-11-15T18:45:21.479Z,,,,,,,,,,4487.63900000893,completion,,,,,,,low,high,,,,,,true,,,,false,380918.200000003,380917.60000000894,376413.307,376613.5,376429.961,380729.94,1,40,,
trial,html.Screen,6_21_0,2023-11-15T18:45:25.365Z,,,,1,0.8809051780367407,1.044525830449456,,false,ll,4073.760000002978,response,-0.8552639039862626,0.9499999999999997,-0.9499999999999997,-1.0982314620989122,0.9499999999999997,-0.9499999999999997,low,low,,ISIC_0029212.JPG,,ISIC_0026278.JPG,142,true,lh,keypress(e),0,false,384803.799999997,384803.700000003,380713.292,380918.5,380729.94,384630.979,1,40,22,
sequence,flow.Sequence,6_21,2023-11-15T18:45:25.365Z,,,,,,,,,,4073.760000002978,completion,,,,,,,low,low,,,,,,true,,,,false,384803.90000000596,384803.700000003,380713.292,380918.40000000596,380729.94,384630.979,1,40,,
trial,html.Screen,6_22_0,2023-11-15T18:45:30.167Z,,,,1,0.7646541361813586,0.7897684269039633,,false,ll,4974.820999997028,response,-0.7647836924873925,0.9499999999999997,-0.9499999999999997,-0.8316555381467203,0.9499999999999997,-0.9499999999999997,low,low,,ISIC_0057978.JPG,,ISIC_0027145.JPG,142,true,lh,keypress(e),0,false,389606,389605.799999997,384596.625,384804,384630.979,389429.881,1,40,23,
sequence,flow.Sequence,6_22,2023-11-15T18:45:30.167Z,,,,,,,,,,4974.820999997028,completion,,,,,,,low,low,,,,,,true,,,,false,389606.40000000596,389605.799999997,384596.625,384804,384630.979,389429.881,1,40,,
trial,html.Screen,6_23_0,2023-11-15T18:45:35.878Z,,,,1,-1.011737552725394,0.8500530224490773,,false,hl,5886.819000002986,response,1.0115965332688306,0.9499999999999997,-0.9499999999999997,-0.8282633603842442,0.9499999999999997,-0.9499999999999997,high,low,,ISIC_2998367.JPG,,ISIC_1069587.JPG,26,true,ll,keypress(f),0,false,395316.90000000596,395316.700000003,389413.324,389606.60000000894,389429.881,395129.841,1,40,24,
sequence,flow.Sequence,6_23,2023-11-15T18:45:35.878Z,,,,,,,,,,5886.819000002986,completion,,,,,,,high,low,,,,,,true,,,,false,395317.299999997,395316.700000003,389413.324,389606.60000000894,389429.881,395129.841,1,40,,
trial,html.Screen,6_24_0,2023-11-15T18:45:41.790Z,,,,1,-0.7828164565982022,-1.1052448965242172,,false,hh,6098.958999997005,response,0.830715954875818,0.9499999999999997,-0.9499999999999997,0.8162119374466767,0.9499999999999997,-0.9499999999999997,high,high,,ISIC_0067840.JPG,,ISIC_0011894.JPG,167,true,hl,keypress(j),0,false,401229.10000000894,401228.799999997,395113.203,395317.5,395129.841,401046.498,1,40,25,
sequence,flow.Sequence,6_24,2023-11-15T18:45:41.790Z,,,,,,,,,,6098.958999997005,completion,,,,,,,high,high,,,,,,true,,,,false,401229.60000000894,401228.799999997,395113.203,395317.40000000596,395129.841,401046.498,1,40,,
trial,html.Screen,6_25_0,2023-11-15T18:45:46.927Z,,,,1,-0.8579451262594331,0.9633172970727744,,false,hl,5318.801999996998,response,0.8035152873995188,0.9499999999999997,-0.9499999999999997,-0.82868450251632,0.9499999999999997,-0.9499999999999997,high,low,,ISIC_0067172.JPG,,ISIC_0010671.JPG,26,true,ll,keypress(f),0,false,406365.5,406365.299999997,401029.931,401229.799999997,401046.498,406179.799,1,40,26,
sequence,flow.Sequence,6_25,2023-11-15T18:45:46.927Z,,,,,,,,,,5318.801999996998,completion,,,,,,,high,low,,,,,,true,,,,false,406365.90000000596,406365.299999997,401029.931,401229.700000003,401046.498,406179.799,1,40,,
trial,html.Screen,6_26_0,2023-11-15T18:45:51.718Z,,,,1,-1.0026266089287914,1.0913275913920335,,false,hl,4976.701000000001,response,0.7911024675435955,0.9499999999999997,-0.9499999999999997,-0.7975977016137676,0.9499999999999997,-0.9499999999999997,high,low,,ISIC_0033520.JPG,,ISIC_5813642.JPG,26,true,lh,keypress(e),0,false,411156.700000003,411156.5,406163.169,406366.10000000894,406179.799,410979.948,1,40,27,
sequence,flow.Sequence,6_26,2023-11-15T18:45:51.718Z,,,,,,,,,,4976.701000000001,completion,,,,,,,high,low,,,,,,true,,,,false,411157.299999997,411156.5,406163.169,406366,406179.799,410979.948,1,40,,
trial,html.Screen,6_27_0,2023-11-15T18:45:57.870Z,,,,1,-0.9872117590837104,-0.8387342204487216,,false,hh,6328.452000005986,response,0.8735470592544294,0.9499999999999997,-0.9499999999999997,0.9785086585007428,0.9499999999999997,-0.9499999999999997,high,high,,ISIC_4539674.JPG,,ISIC_0047031.JPG,167,true,hl,keypress(j),0,false,417308.60000000894,417308.40000000596,410963.21,411157.5,410979.948,417129.816,1,40,28,
sequence,flow.Sequence,6_27,2023-11-15T18:45:57.870Z,,,,,,,,,,6328.452000005986,completion,,,,,,,high,high,,,,,,true,,,,false,417309.10000000894,417308.40000000596,410963.21,411157.40000000596,410979.948,417129.816,1,40,,
trial,html.Screen,6_28_0,2023-11-15T18:46:03.550Z,,,,1,-0.869932994914832,0.8880533324432531,,false,hl,5858.684000000008,response,0.7809949855371787,0.9499999999999997,-0.9499999999999997,-0.8493861117004308,0.9499999999999997,-0.9499999999999997,high,low,,ISIC_8617084.JPG,,ISIC_7450481.JPG,26,true,hh,keypress(i),0,false,422988.700000003,422988.5,417113.145,417309.299999997,417129.816,422813.165,1,40,29,
sequence,flow.Sequence,6_28,2023-11-15T18:46:03.550Z,,,,,,,,,,5858.684000000008,completion,,,,,,,high,low,,,,,,true,,,,false,422989.10000000894,422988.5,417113.145,417309.200000003,417129.816,422813.165,1,40,,
trial,html.Screen,6_29_0,2023-11-15T18:46:07.870Z,,,,1,1.0022829373011404,-0.8311726972863814,,false,lh,4495.634999997041,response,-0.8979276789594874,0.9499999999999997,-0.9499999999999997,0.925374811016654,0.9499999999999997,-0.9499999999999997,low,high,,ISIC_0033287.JPG,,ISIC_4208361.JPG,28,true,ll,keypress(f),0,false,427309,427308.799999997,422796.528,422989.299999997,422813.165,427129.851,1,40,30,
sequence,flow.Sequence,6_29,2023-11-15T18:46:07.871Z,,,,,,,,,,4495.634999997041,completion,,,,,,,low,high,,,,,,true,,,,false,427309.40000000596,427308.799999997,422796.528,422989.299999997,422813.165,427129.851,1,40,,
trial,html.Screen,6_30_0,2023-11-15T18:46:11.534Z,,,,1,1.0122398223568725,-0.7505228537454216,,true,lh,3842.7490000089165,response,-0.8179805381029407,0.9499999999999997,-0.9499999999999997,0.8578467162767749,0.9499999999999997,-0.9499999999999997,low,high,,ISIC_0033802.JPG,,ISIC_0067253.JPG,28,true,lh,keypress(e),0,false,430972.799999997,430972.60000000894,427113.096,427309.60000000894,427129.851,430796.701,1,40,31,
sequence,flow.Sequence,6_30,2023-11-15T18:46:11.534Z,,,,,,,,,,3842.7490000089165,completion,,,,,,,low,high,,,,,,true,,,,false,430973.299999997,430972.60000000894,427113.096,427309.5,427129.851,430796.701,1,40,,
trial,html.Screen,6_31_0,2023-11-15T18:46:17.141Z,,,,1,0.8947611078712571,-0.8960964505004638,,false,lh,5782.6990000059595,response,-1.0865333402803938,0.9499999999999997,-0.9499999999999997,1.0542635307358266,0.9499999999999997,-0.9499999999999997,low,high,,ISIC_6441128.JPG,,ISIC_0034006.JPG,28,true,hl,keypress(j),0,false,436579.5,436579.40000000596,430779.716,430973.5,430796.701,436396.545,1,40,32,
sequence,flow.Sequence,6_31,2023-11-15T18:46:17.141Z,,,,,,,,,,5782.6990000059595,completion,,,,,,,low,high,,,,,,true,,,,false,436579.60000000894,436579.40000000596,430779.716,430973.299999997,430796.701,436396.545,1,40,,
trial,html.Screen,6_32_0,2023-11-15T18:46:23.695Z,,,,1,0.9585938767259125,0.8441404886756483,,false,ll,6737.1550000029965,response,-1.030423594637164,0.9499999999999997,-0.9499999999999997,-0.9418036199165556,0.9499999999999997,-0.9499999999999997,low,low,,ISIC_0055003.JPG,,ISIC_0010299.JPG,142,true,hl,keypress(j),0,false,443134,443133.700000003,436379.724,436579.60000000894,436396.545,442946.435,1,40,33,
sequence,flow.Sequence,6_32,2023-11-15T18:46:23.695Z,,,,,,,,,,6737.1550000029965,completion,,,,,,,low,low,,,,,,true,,,,false,443134.299999997,443133.700000003,436379.724,436579.60000000894,436396.545,442946.435,1,40,,
trial,html.Screen,6_33_0,2023-11-15T18:46:29.332Z,,,,1,-0.8995154199215303,-0.8258046477520162,,true,hh,5824.364999997022,response,0.754514979810059,0.9499999999999997,-0.9499999999999997,1.0675071685593824,0.9499999999999997,-0.9499999999999997,high,high,,ISIC_6345354.JPG,,ISIC_0063046.JPG,167,true,hh,keypress(i),0,false,448771,448770.799999997,442929.692,443134.5,442946.435,448596.368,1,40,34,
sequence,flow.Sequence,6_33,2023-11-15T18:46:29.332Z,,,,,,,,,,5824.364999997022,completion,,,,,,,high,high,,,,,,true,,,,false,448771.10000000894,448770.799999997,442929.692,443134.5,442946.435,448596.368,1,40,,
trial,html.Screen,6_34_0,2023-11-15T18:46:36.510Z,,,,1,-0.7647836924873925,-0.8316555381467203,,false,hh,7352.532000005944,response,0.999840720741648,0.9499999999999997,-0.9499999999999997,0.8010128234618513,0.9499999999999997,-0.9499999999999997,high,high,,ISIC_0027145.JPG,,ISIC_0058768.JPG,167,true,hl,keypress(j),0,false,455949.200000003,455948.90000000596,448563.099,448771.200000003,448596.368,455763.014,1,40,35,
sequence,flow.Sequence,6_34,2023-11-15T18:46:36.511Z,,,,,,,,,,7352.532000005944,completion,,,,,,,high,high,,,,,,true,,,,false,455949.60000000894,455948.90000000596,448563.099,448771.200000003,448596.368,455763.014,1,40,,
trial,html.Screen,6_35_0,2023-11-15T18:46:43.182Z,,,,1,-0.8979276789594874,0.925374811016654,,true,hl,6857.386000005936,response,0.887838744955182,0.9499999999999997,-0.9499999999999997,-0.7545096650863988,0.9499999999999997,-0.9499999999999997,high,low,,ISIC_4208361.JPG,,ISIC_1488727.JPG,26,true,hl,keypress(j),0,false,462620.700000003,462620.40000000596,455746.291,455949.799999997,455763.014,462446.401,1,40,36,
sequence,flow.Sequence,6_35,2023-11-15T18:46:43.183Z,,,,,,,,,,6857.386000005936,completion,,,,,,,high,low,,,,,,true,,,,false,462621.40000000596,462620.40000000596,455746.291,455949.799999997,455763.014,462446.401,1,40,,
trial,html.Screen,6_36_0,2023-11-15T18:46:49.230Z,,,,1,-0.7877939497981142,0.8415032780288271,,false,hl,6221.898999997007,response,0.9873794329144926,0.9499999999999997,-0.9499999999999997,-0.7991077882008257,0.9499999999999997,-0.9499999999999997,high,low,,ISIC_0067308.JPG,,ISIC_0013498.JPG,26,true,ll,keypress(f),0,false,468668.40000000596,468668.299999997,462429.678,462621.700000003,462446.401,468479.708,1,40,37,
sequence,flow.Sequence,6_36,2023-11-15T18:46:49.230Z,,,,,,,,,,6221.898999997007,completion,,,,,,,high,low,,,,,,true,,,,false,468668.90000000596,468668.299999997,462429.678,462621.60000000894,462446.401,468479.708,1,40,,
trial,html.Screen,6_37_0,2023-11-15T18:46:54.974Z,,,,1,-0.991282840649944,0.9397921099839784,,false,hl,5932.992000002996,response,0.9388660854518424,0.9499999999999997,-0.9499999999999997,-0.79533948698576,0.9499999999999997,-0.9499999999999997,high,low,,ISIC_0000463.JPG,,ISIC_9291926.JPG,26,true,lh,keypress(e),0,false,474412.90000000596,474412.700000003,468463.014,468668.90000000596,468479.708,474229.586,1,40,38,
sequence,flow.Sequence,6_37,2023-11-15T18:46:54.975Z,,,,,,,,,,5932.992000002996,completion,,,,,,,high,low,,,,,,true,,,,false,474413.299999997,474412.700000003,468463.014,468668.90000000596,468479.708,474229.586,1,40,,
trial,html.Screen,6_38_0,2023-11-15T18:46:59.894Z,,,,1,0.9225524349657857,0.9662688541319592,,false,ll,5102.7139999970095,response,-0.8093178584833343,0.9499999999999997,-0.9499999999999997,-1.0777929856705222,0.9499999999999997,-0.9499999999999997,low,low,,ISIC_0011077.JPG,,ISIC_6171084.JPG,142,true,hh,keypress(i),0,false,479332.700000003,479332.299999997,474212.958,474413.5,474229.586,479146.278,1,40,39,
sequence,flow.Sequence,6_38,2023-11-15T18:46:59.895Z,,,,,,,,,,5102.7139999970095,completion,,,,,,,low,low,,,,,,true,,,,false,479333,479332.299999997,474212.958,474413.40000000596,474229.586,479146.278,1,40,,
trial,html.Screen,6_39_0,2023-11-15T18:47:05.582Z,,,,1,0.887838744955182,-0.7545096650863988,,false,lh,5873.722000000009,response,-1.011737552725394,0.9499999999999997,-0.9499999999999997,0.8500530224490773,0.9499999999999997,-0.9499999999999997,low,high,,ISIC_1488727.JPG,,ISIC_2998367.JPG,28,true,ll,keypress(f),0,false,485020.200000003,485020,479129.715,479333.200000003,479146.278,484846.526,1,40,40,
sequence,flow.Sequence,6_39,2023-11-15T18:47:05.582Z,,,,,,,,,,5873.722000000009,completion,,,,,,,low,high,,,,,,true,,,,false,485020.5,485020,479129.715,479333.10000000894,479146.278,484846.526,1,40,,
practice_loop,flow.Loop,6,2023-11-15T18:47:05.582Z,,,,,,,,,,218606.467,completion,,,,,,,,,,,,,,true,,,,false,485020.700000003,485020,266396.855,266611.299999997,266413.533,484846.526,1,40,,
stair_instructions,html.Screen,7,2023-11-15T18:47:41.108Z,,,,,,,,,,35699.37400000595,response,,,,,,,,,,,,,,,continue,click button,,,520546.40000000596,520545.90000000596,484829.435,485020.799999997,484846.526,520379.497,,,,
trial,html.Screen,8_0_0,2023-11-15T18:47:47.695Z,,,,2,0.0217698886732706,-0.0410870915161425,,false,ll,6753.802999997046,response,-0.7819386010267503,0.9499999999999997,-0.9499999999999997,-1.0882850488448614,0.9499999999999997,-0.9499999999999997,low,low,,ISIC_0072173.JPG,,ISIC_9024078.JPG,142,false,lh,keypress(e),0,true,527133.700000003,527133.299999997,520362.813,520546.5,520379.497,526962.845,1,40,1,
sequence,flow.Sequence,8_0,2023-11-15T18:47:47.696Z,,,,,,,,,,6753.802999997046,completion,,,,,,,low,low,,,,,,false,,,,true,527134.1000000089,527133.299999997,520362.813,520546.40000000596,520379.497,526962.845,1,40,,
trial,html.Screen,8_1_0,2023-11-15T18:47:54.638Z,,,,2,0.0111354529246037,-0.0585810480909377,,false,hh,7113.555000005988,response,0.9053396132028096,0.9499999999999997,-0.9499999999999997,0.7935069588038893,0.9499999999999997,-0.9999999999999998,high,high,,ISIC_7858034.JPG,,ISIC_0010729.JPG,167,false,lh,keypress(e),0,true,534076.700000003,534076.400000006,526946.134,527134.1000000089,526962.845,533896.144,1,40,2,
sequence,flow.Sequence,8_1,2023-11-15T18:47:54.639Z,,,,,,,,,,7113.555000005988,completion,,,,,,,high,high,,,,,,false,,,,true,534077.1000000089,534076.400000006,526946.134,527134.1000000089,526962.845,533896.144,1,40,,
trial,html.Screen,8_2_0,2023-11-15T18:47:59.951Z,,,,2,-0.0531672914703651,0.0074883925434357,,false,lh,5492.356000000029,response,-1.0865333402803938,0.9999999999999998,-0.9499999999999997,1.0542635307358266,0.9499999999999997,-0.9999999999999998,low,high,,ISIC_4177043.JPG,,ISIC_0034006.JPG,28,false,hl,keypress(j),0,true,539388.799999997,539388.5,533879.413,534077.200000003,533896.144,539213.055,1,40,3,
sequence,flow.Sequence,8_2,2023-11-15T18:47:59.951Z,,,,,,,,,,5492.356000000029,completion,,,,,,,low,high,,,,,,false,,,,true,539389.200000003,539388.5,533879.413,534077.200000003,533896.144,539213.055,1,40,,
trial,html.Screen,8_3_0,2023-11-15T18:48:06.014Z,,,,2,-0.0245376145053177,0.0436993426328401,,false,ll,6239.2449999969685,response,-0.9416900312335138,0.9999999999999998,-0.9999999999999998,-0.8071149391753215,0.9999999999999998,-0.9999999999999998,low,low,,ISIC_0056444.JPG,,ISIC_2784686.JPG,131,false,lh,keypress(e),0,true,545452.6000000089,545452.299999997,539196.145,539389.400000006,539213.055,545280.013,1,40,4,
sequence,flow.Sequence,8_3,2023-11-15T18:48:06.015Z,,,,,,,,,,6239.2449999969685,completion,,,,,,,low,low,,,,,,false,,,,true,545452.900000006,545452.299999997,539196.145,539389.299999997,539213.055,545280.013,1,40,,
trial,html.Screen,8_4_0,2023-11-15T18:48:11.703Z,,,,2,0.007397293189458,0.0174716772037504,,false,hh,5861.187000002945,response,1.1253220985777015,0.9999999999999998,-0.9999999999999998,1.108725659461368,0.9999999999999998,-1.0499999999999998,high,high,,ISIC_0056226.JPG,,ISIC_0054954.JPG,137,false,hl,keypress(j),0,true,551141.5,551141.200000003,545246.134,545453.200000003,545280.013,550962.746,1,40,5,
sequence,flow.Sequence,8_4,2023-11-15T18:48:11.704Z,,,,,,,,,,5861.187000002945,completion,,,,,,,high,high,,,,,,false,,,,true,551142,551141.200000003,545246.134,545453.200000003,545280.013,550962.746,1,40,,
trial,html.Screen,8_5_0,2023-11-15T18:48:17.263Z,,,,2,-0.0516762988734011,0.0130195499281172,,false,ll,5738.354000008898,response,-0.8728834820669534,0.9999999999999998,-0.9999999999999998,-0.9788202580034188,1.0499999999999998,-1.0499999999999998,low,low,,ISIC_9978498.JPG,,ISIC_7519627.JPG,113,false,hh,keypress(i),0,true,556701.200000003,556701.1000000089,550946.131,551142.200000003,550962.746,556512.796,1,40,6,
sequence,flow.Sequence,8_5,2023-11-15T18:48:17.263Z,,,,,,,,,,5738.354000008898,completion,,,,,,,low,low,,,,,,false,,,,true,556701.700000003,556701.1000000089,550946.131,551142.1000000089,550962.746,556512.796,1,40,,
trial,html.Screen,8_6_0,2023-11-15T18:48:22.462Z,,,,2,-0.0134764727102299,-0.0033499036460912,,false,hl,5387.704000000027,response,0.8947611078712571,0.8999999999999997,-0.9499999999999997,-0.8960964505004638,0.9499999999999997,-0.9999999999999998,high,low,,ISIC_0009998.JPG,,ISIC_6441128.JPG,25,false,lh,keypress(e),0,true,561900.700000003,561900.5,556496.042,556701.799999997,556512.796,561712.779,1,40,7,
sequence,flow.Sequence,8_6,2023-11-15T18:48:22.463Z,,,,,,,,,,5387.704000000027,completion,,,,,,,high,low,,,,,,false,,,,true,561901.1000000089,561900.5,556496.042,556701.799999997,556512.796,561712.779,1,40,,
trial,html.Screen,8_7_0,2023-11-15T18:48:27.447Z,,,,2,0.0027483411352856,0.0100996915276271,,false,hl,5171.921000003,response,0.7037503985239492,0.8999999999999997,-0.8999999999999997,-0.8074292191440532,0.8999999999999997,-0.9999999999999998,high,low,,ISIC_7364041.JPG,,ISIC_2321671.JPG,25,false,ll,keypress(f),0,true,566884.900000006,566884.700000003,561696.09,561901.299999997,561712.779,566696.097,1,40,8,
sequence,flow.Sequence,8_7,2023-11-15T18:48:27.447Z,,,,,,,,,,5171.921000003,completion,,,,,,,high,low,,,,,,false,,,,true,566885.400000006,566884.700000003,561696.09,561901.299999997,561712.779,566696.097,1,40,,
trial,html.Screen,8_8_0,2023-11-15T18:48:33.829Z,,,,2,-0.0735635316240061,0.0537805418091709,,true,lh,6571.50300000899,response,-0.8136669413088868,0.9499999999999997,-0.8999999999999997,0.725304760326023,0.8999999999999997,-0.9999999999999998,low,high,,ISIC_1761799.JPG,,ISIC_0962121.JPG,38,false,lh,keypress(e),0,true,573267.6000000089,573267.6000000089,566679.225,566885.6000000089,566696.097,573079.391,1,40,9,
sequence,flow.Sequence,8_8,2023-11-15T18:48:33.830Z,,,,,,,,,,6571.50300000899,completion,,,,,,,low,high,,,,,,false,,,,true,573267.799999997,573267.6000000089,566679.225,566885.5,566696.097,573079.391,1,40,,
trial,html.Screen,8_9_0,2023-11-15T18:48:39.485Z,,,,2,,-0.0264544974620926,,true,lh,5843.408999997075,response,-0.7368651266094046,0.9499999999999997,-0.8999999999999997,0.7136832111835336,0.8999999999999997,-0.9999999999999998,low,high,,ISIC_0056991.JPG,,ISIC_0010433.JPG,38,false,lh,keypress(e),0,true,578923,578922.799999997,573062.772,573267.799999997,573079.391,578746.277,1,40,10,
sequence,flow.Sequence,8_9,2023-11-15T18:48:39.485Z,,,,,,,,,,5843.408999997075,completion,,,,,,,low,high,,,,,,false,,,,true,578923.1000000089,578922.799999997,573062.772,573267.799999997,573079.391,578746.277,1,40,,
trial,html.Screen,8_10_0,2023-11-15T18:48:43.767Z,,,,2,-0.0565575423757561,-0.0394300226801425,,false,hh,4458.222999999998,response,0.8881798219454458,0.9499999999999997,-0.8499999999999996,0.7540442234866285,0.6694939857547783,-0.9999999999999998,high,high,,ISIC_0046983.JPG,,ISIC_0055675.JPG,238,false,hl,keypress(j),0,true,583204.900000006,583204.5,578729.252,578923.1000000089,578746.277,583029.326,1,40,11,
sequence,flow.Sequence,8_10,2023-11-15T18:48:43.767Z,,,,,,,,,,4458.222999999998,completion,,,,,,,high,high,,,,,,false,,,,true,583205.200000003,583204.5,578729.252,578923.1000000089,578746.277,583029.326,1,40,,
trial,html.Screen,8_11_0,2023-11-15T18:48:47.373Z,,,,2,-0.0113873532168551,-0.0054999201556291,,true,hh,3781.673999999999,response,0.8751568783563604,0.9499999999999997,-0.8499999999999996,0.6089966038604951,0.7194939857547783,-0.9999999999999998,high,high,,ISIC_8812621.JPG,,ISIC_0027742.JPG,226,false,hh,keypress(i),0,true,586811.200000003,586811,583012.639,583205.400000006,583029.326,586629.366,1,40,12,
sequence,flow.Sequence,8_11,2023-11-15T18:48:47.373Z,,,,,,,,,,3781.673999999999,completion,,,,,,,high,high,,,,,,false,,,,true,586811.200000003,586811,583012.639,583205.400000006,583029.326,586629.366,1,40,,
trial,html.Screen,8_12_0,2023-11-15T18:48:53.991Z,,,,2,0.0538169356437535,-0.0113486191005169,,false,hl,6799.334000002942,response,0.7037503985239492,0.6920767411084277,-0.8499999999999996,-0.8074292191440532,0.7194939857547783,-0.9999999999999998,high,low,,ISIC_0009939.JPG,,ISIC_2321671.JPG,44,false,lh,keypress(e),0,true,593429.1000000089,593428.700000003,586612.567,586811.299999997,586629.366,593245.971,1,40,13,
sequence,flow.Sequence,8_12,2023-11-15T18:48:53.992Z,,,,,,,,,,6799.334000002942,completion,,,,,,,high,low,,,,,,false,,,,true,593429.400000006,593428.700000003,586612.567,586811.299999997,586629.366,593245.971,1,40,,
trial,html.Screen,8_13_0,2023-11-15T18:49:01.502Z,,,,2,0.0247880219471745,-0.0687761754603142,,true,lh,7693.729000002961,response,-0.7352416732819119,0.7420767411084277,-0.8499999999999996,0.5724016871877069,0.7194939857547783,-1.0499999999999998,low,high,,ISIC_0031745.JPG,,ISIC_0698821.JPG,69,false,lh,keypress(e),0,true,600939.799999997,600939.700000003,593229.201,593429.6000000089,593245.971,600762.875,1,40,14,
sequence,flow.Sequence,8_13,2023-11-15T18:49:01.502Z,,,,,,,,,,7693.729000002961,completion,,,,,,,low,high,,,,,,false,,,,true,600940.200000003,600939.700000003,593229.201,593429.5,593245.971,600762.875,1,40,,
trial,html.Screen,8_14_0,2023-11-15T18:49:05.831Z,,,,2,-0.040191644178716,0.0622582668671422,,true,hh,4505.625,response,0.7303551628669714,0.7420767411084277,-0.8499999999999996,0.8663139955905144,0.6694939857547783,-1.0499999999999998,high,high,,ISIC_6207688.JPG,,ISIC_0010040.JPG,305,false,hh,keypress(i),0,true,605268.900000006,605268.5,600745.862,600940.299999997,600762.875,605079.296,1,40,15,
sequence,flow.Sequence,8_14,2023-11-15T18:49:05.831Z,,,,,,,,,,4505.625,completion,,,,,,,high,high,,,,,,false,,,,true,605269.299999997,605268.5,600745.862,600940.299999997,600762.875,605079.296,1,40,,
trial,html.Screen,8_15_0,2023-11-15T18:49:14.006Z,,,,2,-0.0409338693593207,0.0072462710499874,,true,ll,8364.904000003007,response,-1.0275060871969903,0.7420767411084277,-0.8499999999999996,-0.8666323445825409,0.6694939857547783,-1.0499999999999998,low,low,,ISIC_3608788.JPG,,ISIC_9155028.JPG,138,false,ll,keypress(f),0,true,613444.299999997,613444.200000003,605062.7,605269.5,605079.296,613262.654,1,40,16,
sequence,flow.Sequence,8_15,2023-11-15T18:49:14.007Z,,,,,,,,,,8364.904000003007,completion,,,,,,,low,low,,,,,,false,,,,true,613444.400000006,613444.200000003,605062.7,605269.400000006,605079.296,613262.654,1,40,,
trial,html.Screen,8_16_0,2023-11-15T18:49:17.288Z,,,,2,-0.0362376068089956,-0.047825070846155,,false,hl,3462.74600000598,response,0.6159110752639473,0.7420767411084277,-0.8970692158897655,-0.9608461034527604,0.6694939857547783,-1.0499999999999998,high,low,,ISIC_6985114.JPG,,ISIC_0025215.JPG,30,false,ll,keypress(f),0,true,616725.700000003,616725.400000006,613245.778,613444.5,613262.654,616546.053,1,40,17,
sequence,flow.Sequence,8_16,2023-11-15T18:49:17.288Z,,,,,,,,,,3462.74600000598,completion,,,,,,,high,low,,,,,,false,,,,true,616726.1000000089,616725.400000006,613245.778,613444.5,613262.654,616546.053,1,40,,
trial,html.Screen,8_17_0,2023-11-15T18:49:23.638Z,,,,2,-0.0265457942157377,-0.0704357137706731,,false,lh,6529.447000000044,response,-0.6973913035914089,0.7920767411084277,-0.8970692158897655,0.7986292083840144,0.6694939857547783,-0.8637392240176507,low,high,,ISIC_3123377.JPG,,ISIC_9099430.JPG,74,false,hl,keypress(j),0,true,623075.5,623075.5,616529.322,616726.299999997,616546.053,622895.966,1,40,18,
sequence,flow.Sequence,8_17,2023-11-15T18:49:23.638Z,,,,,,,,,,6529.447000000044,completion,,,,,,,low,high,,,,,,false,,,,true,623075.700000003,623075.5,616529.322,616726.200000003,616546.053,622895.966,1,40,,
trial,html.Screen,8_18_0,2023-11-15T18:49:30.366Z,,,,2,0.0057914759495055,0.0074667911845194,,false,lh,6907.734000002965,response,-0.8541581294181414,0.7920767411084277,-0.9470692158897656,0.7637475587255248,0.7194939857547783,-0.8637392240176507,low,high,,ISIC_0058723.JPG,,ISIC_0014782.JPG,55,false,ll,keypress(f),0,true,629803.799999997,629803.700000003,622879.178,623075.799999997,622895.966,629629.733,1,40,19,
sequence,flow.Sequence,8_18,2023-11-15T18:49:30.366Z,,,,,,,,,,6907.734000002965,completion,,,,,,,low,high,,,,,,false,,,,true,629803.900000006,629803.700000003,622879.178,623075.799999997,622895.966,629629.733,1,40,,
trial,html.Screen,8_19_0,2023-11-15T18:49:37.670Z,,,,2,0.0085520978188085,-0.0464691161264081,,false,ll,7477.766999999993,response,-1.0446431649931565,0.7920767411084277,-0.9470692158897656,-0.7734199165278053,0.7694939857547783,-0.8637392240176507,low,low,,ISIC_0758797.JPG,,ISIC_1377409.JPG,175,false,hh,keypress(i),0,true,637107.6000000089,637107.5,629595.889,629803.900000006,629629.733,636929.377,1,40,20,
sequence,flow.Sequence,8_19,2023-11-15T18:49:37.670Z,,,,,,,,,,7477.766999999993,completion,,,,,,,low,low,,,,,,false,,,,true,637107.700000003,637107.5,629595.889,629803.900000006,629629.733,636929.377,1,40,,
trial,html.Screen,8_20_0,2023-11-15T18:49:42.072Z,,,,2,0.0511770300585718,0.029030243555971,,false,hl,4579.823000003002,response,0.6507198070497014,0.7920767411084277,-0.9970692158897656,-0.8917645531587611,0.7694939857547783,-0.9137392240176507,high,low,,ISIC_6652978.JPG,,ISIC_8781751.JPG,46,false,ll,keypress(f),0,true,641509.400000006,641509.200000003,636912.281,637107.700000003,636929.377,641329.241,1,40,21,
sequence,flow.Sequence,8_20,2023-11-15T18:49:42.072Z,,,,,,,,,,4579.823000003002,completion,,,,,,,high,low,,,,,,false,,,,true,641509.799999997,641509.200000003,636912.281,637107.700000003,636929.377,641329.241,1,40,,
trial,html.Screen,8_21_0,2023-11-15T18:49:46.376Z,,,,2,-0.0367218428225813,-0.0700576547090477,,false,hh,4483.659000005922,response,0.860176011193659,0.8420767411084278,-0.9970692158897656,0.5921223308620618,0.7694939857547783,-0.9137392240176507,high,high,,ISIC_7212271.JPG,,ISIC_4243283.JPG,241,false,lh,keypress(e),0,true,645813.1000000089,645812.900000006,641312.615,641510,641329.241,645629.131,1,40,22,
sequence,flow.Sequence,8_21,2023-11-15T18:49:46.376Z,,,,,,,,,,4483.659000005922,completion,,,,,,,high,high,,,,,,false,,,,true,645813.5,645812.900000006,641312.615,641509.900000006,641329.241,645629.131,1,40,,
trial,html.Screen,8_22_0,2023-11-15T18:49:55.903Z,,,,2,0.0027483411352856,0.0100996915276271,,false,ll,9710.969000008889,response,-0.9859190680307316,0.8920767411084278,-0.9970692158897656,-1.0904756837966545,0.7694939857547783,-0.9137392240176507,low,low,,ISIC_7364041.JPG,,ISIC_0063151.JPG,148,false,lh,keypress(e),0,true,655340.400000006,655340.1000000089,645612.346,645813.799999997,645629.131,655162.545,1,40,23,
sequence,flow.Sequence,8_22,2023-11-15T18:49:55.903Z,,,,,,,,,,9710.969000008889,completion,,,,,,,low,low,,,,,,false,,,,true,655340.799999997,655340.1000000089,645612.346,645813.6000000089,645629.131,655162.545,1,40,,
trial,html.Screen,8_23_0,2023-11-15T18:49:59.815Z,,,,2,0.0651705891246238,-0.0394586219902573,,false,hh,4089.3550000059186,response,0.8915634966621839,0.8920767411084278,-0.9970692158897656,0.7932594669441307,0.7694939857547783,-0.9637392240176508,high,high,,ISIC_0013491.JPG,,ISIC_1937197.JPG,248,false,ll,keypress(f),0,true,659252.200000003,659251.900000006,655145.781,655341,655162.545,659062.517,1,40,24,
sequence,flow.Sequence,8_23,2023-11-15T18:49:59.815Z,,,,,,,,,,4089.3550000059186,completion,,,,,,,high,high,,,,,,false,,,,true,659252.6000000089,659251.900000006,655145.781,655340.900000006,655162.545,659062.517,1,40,,
trial,html.Screen,8_24_0,2023-11-15T18:50:06.847Z,,,,2,0.0050679133050021,-0.0009714874637896,,false,hh,7221.483000000007,response,0.9866439901618108,0.9420767411084279,-0.9970692158897656,0.9294281370493894,0.8194939857547784,-0.9637392240176508,high,high,,ISIC_9848743.JPG,,ISIC_0072953.JPG,197,false,lh,keypress(e),0,true,666284.299999997,666284,659045.816,659252.799999997,659062.517,666095.832,1,40,25,
sequence,flow.Sequence,8_24,2023-11-15T18:50:06.847Z,,,,,,,,,,7221.483000000007,completion,,,,,,,high,high,,,,,,false,,,,true,666284.6000000089,666284,659045.816,659252.799999997,659062.517,666095.832,1,40,,
trial,html.Screen,8_25_0,2023-11-15T18:50:09.918Z,,,,2,-0.0220322185490382,-0.0740918837949419,,false,hl,3259.868000002927,response,0.8200962008791046,0.9420767411084279,-0.9470692158897656,-0.7936051642828523,0.7694939857547783,-0.9137392240176507,high,low,,ISIC_8105020.JPG,,ISIC_0027031.JPG,27,false,ll,keypress(f),0,true,669356,669355.700000003,666079.047,666284.799999997,666095.832,669179.142,1,40,26,
sequence,flow.Sequence,8_25,2023-11-15T18:50:09.919Z,,,,,,,,,,3259.868000002927,completion,,,,,,,high,low,,,,,,false,,,,true,669356.400000006,669355.700000003,666079.047,666284.700000003,666095.832,669179.142,1,40,,
trial,html.Screen,8_26_0,2023-11-15T18:50:12.941Z,,,,2,0.0336891949856763,0.060314732178219,,false,ll,3199.758000005968,response,-0.8529242055711017,0.9920767411084279,-0.9470692158897656,-0.9691635021928308,0.7694939857547783,-0.9137392240176507,low,low,,ISIC_6192289.JPG,,ISIC_8169564.JPG,156,false,hh,keypress(i),0,true,672379,672378.900000006,669162.627,669356.6000000089,669179.142,672195.889,1,40,27,
sequence,flow.Sequence,8_26,2023-11-15T18:50:12.941Z,,,,,,,,,,3199.758000005968,completion,,,,,,,low,low,,,,,,false,,,,true,672379.1000000089,672378.900000006,669162.627,669356.5,669179.142,672195.889,1,40,,
trial,html.Screen,8_27_0,2023-11-15T18:50:17.752Z,,,,2,-0.0546386976779619,0.0448724759283131,,false,lh,4993.511000005994,response,-1.1143840156421263,0.9920767411084279,-0.9970692158897656,0.5760729760192603,0.7694939857547783,-0.9637392240176508,low,high,,ISIC_6722934.JPG,,ISIC_0572205.JPG,47,false,ll,keypress(f),0,true,677189.6000000089,677189.400000006,672179.152,672379.1000000089,672195.889,677012.679,1,40,28,
sequence,flow.Sequence,8_27,2023-11-15T18:50:17.752Z,,,,,,,,,,4993.511000005994,completion,,,,,,,low,high,,,,,,false,,,,true,677190,677189.400000006,672179.152,672379.1000000089,672195.889,677012.679,1,40,,
trial,html.Screen,8_28_0,2023-11-15T18:50:22.783Z,,,,2,-0.0051189696037511,0.0396625911332438,,false,lh,5207.421000008937,response,-1.0363634319020814,0.9920767411084279,-0.9970692158897656,0.6512793949410997,0.8194939857547784,-0.9637392240176508,low,high,,ISIC_9742891.JPG,,ISIC_0064979.JPG,42,false,hl,keypress(j),0,true,682220.400000006,682220.1000000089,676995.762,677190.200000003,677012.679,682046.005,1,40,29,
sequence,flow.Sequence,8_28,2023-11-15T18:50:22.783Z,,,,,,,,,,5207.421000008937,completion,,,,,,,low,high,,,,,,false,,,,true,682220.799999997,682220.1000000089,676995.762,677190.1000000089,677012.679,682046.005,1,40,,
trial,html.Screen,8_29_0,2023-11-15T18:50:26.253Z,,,,2,0.0608867680161491,0.0206384042070211,,true,hh,3644.6950000029756,response,0.9991183219041097,0.9920767411084279,-1.0470692158897656,1.0098382533872188,0.8694939857547784,-0.9637392240176508,high,high,,ISIC_0640806.JPG,,ISIC_0010415.JPG,174,false,hh,keypress(i),0,true,685690.799999997,685690.700000003,682029.151,682221,682046.005,685512.391,1,40,30,
sequence,flow.Sequence,8_29,2023-11-15T18:50:26.253Z,,,,,,,,,,3644.6950000029756,completion,,,,,,,high,high,,,,,,false,,,,true,685690.799999997,685690.700000003,682029.151,682221,682046.005,685512.391,1,40,,
trial,html.Screen,8_30_0,2023-11-15T18:50:32.743Z,,,,2,-0.0113873532168551,-0.0054999201556291,,false,hh,6667.709000008996,response,0.8800173162815772,0.9920767411084279,-1.0470692158897656,0.7770513300237836,0.8694939857547784,-0.9637392240176508,high,high,,ISIC_8812621.JPG,,ISIC_0030852.JPG,174,false,hl,keypress(j),0,true,692180.400000006,692180.1000000089,685495.742,685691,685512.391,691995.653,1,40,31,
sequence,flow.Sequence,8_30,2023-11-15T18:50:32.743Z,,,,,,,,,,6667.709000008996,completion,,,,,,,high,high,,,,,,false,,,,true,692180.900000006,692180.1000000089,685495.742,685691,685512.391,691995.653,1,40,,
trial,html.Screen,8_31_0,2023-11-15T18:50:37.261Z,,,,2,0.0660839342637046,-0.0657899819532072,,false,lh,4703.047000002931,response,-0.9579209317488,0.8949277848343979,-1.0470692158897656,1.0147487101263497,0.9194939857547785,-0.9637392240176508,low,high,,ISIC_0065477.JPG,,ISIC_8124482.JPG,28,false,ll,keypress(f),0,true,696698.799999997,696698.700000003,691979.058,692181,691995.653,696512.324,1,40,32,
sequence,flow.Sequence,8_31,2023-11-15T18:50:37.261Z,,,,,,,,,,4703.047000002931,completion,,,,,,,low,high,,,,,,false,,,,true,696698.900000006,696698.700000003,691979.058,692181,691995.653,696512.324,1,40,,
trial,html.Screen,8_32_0,2023-11-15T18:50:40.847Z,,,,2,-0.0112310719058792,0.0469047359904117,,false,hl,3772.376000002958,response,0.809764442462202,0.8949277848343979,-1.0470692158897656,-1.005337148078696,0.9694939857547785,-0.9637392240176508,high,low,,ISIC_0068184.JPG,,ISIC_2379379.JPG,32,false,ll,keypress(f),0,true,700285,700284.700000003,696495.561,696699,696512.324,700095.736,1,40,33,
sequence,flow.Sequence,8_32,2023-11-15T18:50:40.848Z,,,,,,,,,,3772.376000002958,completion,,,,,,,high,low,,,,,,false,,,,true,700285.400000006,700284.700000003,696495.561,696698.900000006,696512.324,700095.736,1,40,,
trial,html.Screen,8_33_0,2023-11-15T18:50:46.031Z,,,,2,0.0324770283903853,0.0249968632204382,,false,lh,5372.2639999999665,response,-0.9454713230140772,0.944927784834398,-1.0470692158897656,0.9245167441969216,0.9694939857547785,-0.9637392240176508,low,high,,ISIC_7266462.JPG,,ISIC_9101055.JPG,25,false,hl,keypress(j),0,true,705468.200000003,705468,700079.199,700285.5,700095.736,705279.063,1,40,34,
sequence,flow.Sequence,8_33,2023-11-15T18:50:46.031Z,,,,,,,,,,5372.2639999999665,completion,,,,,,,low,high,,,,,,false,,,,true,705468.6000000089,705468,700079.199,700285.400000006,700095.736,705279.063,1,40,,
trial,html.Screen,8_34_0,2023-11-15T18:50:50.079Z,,,,2,0.0593670819812057,-0.0718390543903236,,false,hl,4237.037000008975,response,0.8623414234919863,0.944927784834398,-1.0970692158897657,-0.782830143980698,1.0194939857547785,-0.9637392240176508,high,low,,ISIC_0062367.JPG,,ISIC_2727016.JPG,26,false,hh,keypress(i),0,true,709516.299999997,709516.1000000089,705262.37,705468.799999997,705279.063,709329.058,1,40,35,
sequence,flow.Sequence,8_34,2023-11-15T18:50:50.080Z,,,,,,,,,,4237.037000008975,completion,,,,,,,high,low,,,,,,false,,,,true,709516.900000006,709516.1000000089,705262.37,705468.799999997,705279.063,709329.058,1,40,,
trial,html.Screen,8_35_0,2023-11-15T18:50:55.614Z,,,,2,0.0217698886732706,-0.0410870915161425,,false,ll,5722.342000006,response,-1.0017318800845572,0.944927784834398,-1.0970692158897657,-0.9394193355947452,1.0194939857547785,-1.0137392240176508,low,low,,ISIC_0072173.JPG,,ISIC_0024586.JPG,112,false,lh,keypress(e),0,true,715051.5,715051.400000006,709312.348,709517.1000000089,709329.058,714862.3,1,40,36,
sequence,flow.Sequence,8_35,2023-11-15T18:50:55.614Z,,,,,,,,,,5722.342000006,completion,,,,,,,low,low,,,,,,false,,,,true,715051.700000003,715051.400000006,709312.348,709517.1000000089,709329.058,714862.3,1,40,,
trial,html.Screen,8_36_0,2023-11-15T18:51:00.432Z,,,,2,-0.0051189696037511,0.0396625911332438,,false,ll,5006.699999999953,response,-1.0270718265914571,0.944927784834398,-1.0970692158897657,-0.9536353804316964,1.0194939857547785,-1.0637392240176509,low,low,,ISIC_9742891.JPG,,ISIC_3431915.JPG,98,false,hl,keypress(j),0,true,719869.1000000089,719869,714845.59,715051.700000003,714862.3,719696.164,1,40,37,
sequence,flow.Sequence,8_36,2023-11-15T18:51:00.432Z,,,,,,,,,,5006.699999999953,completion,,,,,,,low,low,,,,,,false,,,,true,719869.6000000089,719869,714845.59,715051.700000003,714862.3,719696.164,1,40,,
trial,html.Screen,8_37_0,2023-11-15T18:51:04.471Z,,,,2,0.0651705891246238,-0.0394586219902573,,true,ll,4212.0360000029905,response,-0.9991910338212396,0.944927784834398,-1.1470692158897657,-0.9242629064104082,1.0194939857547785,-1.0637392240176509,low,low,,ISIC_0013491.JPG,,ISIC_7795549.JPG,89,false,ll,keypress(f),0,true,723908.400000006,723908.200000003,719662.421,719869.799999997,719696.164,723729.039,1,40,38,
sequence,flow.Sequence,8_37,2023-11-15T18:51:04.472Z,,,,,,,,,,4212.0360000029905,completion,,,,,,,low,low,,,,,,false,,,,true,723908.799999997,723908.200000003,719662.421,719869.700000003,719696.164,723729.039,1,40,,
trial,html.Screen,8_38_0,2023-11-15T18:51:09.455Z,,,,2,-0.0552031398781121,-0.0652612426529481,,false,hl,5162.76099999703,response,0.991146183030456,0.944927784834398,-1.1470692158897657,-0.9949639823722534,1.0194939857547785,-0.9117269701158239,high,low,,ISIC_0024226.JPG,,ISIC_6342224.JPG,27,false,ll,keypress(f),0,true,728892,728891.799999997,723712.279,723908.900000006,723729.039,728712.453,1,40,39,
sequence,flow.Sequence,8_38,2023-11-15T18:51:09.455Z,,,,,,,,,,5162.76099999703,completion,,,,,,,high,low,,,,,,false,,,,true,728892.400000006,728891.799999997,723712.279,723908.900000006,723729.039,728712.453,1,40,,
trial,html.Screen,8_39_0,2023-11-15T18:51:15.367Z,,,,2,-0.0565575423757561,-0.0394300226801425,,false,hl,6091.5470000000205,response,1.0115965332688306,0.944927784834398,-1.0970692158897657,-0.8282633603842442,0.9694939857547784,-0.8617269701158239,high,low,,ISIC_0046983.JPG,,ISIC_1069587.JPG,35,false,ll,keypress(f),0,true,734804.299999997,734804,728695.454,728892.700000003,728712.453,734629.083,1,40,40,
sequence,flow.Sequence,8_39,2023-11-15T18:51:15.368Z,,,,,,,,,,6091.5470000000205,completion,,,,,,,high,low,,,,,,false,,,,true,734804.799999997,734804,728695.454,728892.6000000089,728712.453,734629.083,1,40,,
stair_loop,flow.Loop,8,2023-11-15T18:51:15.368Z,,,,,,,,,,214424.50300000003,completion,,,,,,,,,,,,,,false,,,,true,734805.1000000089,734804,520362.813,520546.40000000596,520379.497,734629.083,1,40,,
exp_instructions,html.Screen,9,2023-11-15T18:51:36.415Z,,,,,,,,,,21222.216999997036,response,,,,,,,,,,,,,,,continue,keypress(Space),,,755852,755851.299999997,734612.08,734805.200000003,734629.083,755662.246,,,,
trial,html.Screen,10_0_0,2023-11-15T18:51:43.223Z,,,,1,0.0538169356437535,-0.0113486191005169,,false,lh,6997.354000008898,response,-1.0865333402803938,0.9333597107851144,-1.0395692158897654,1.0542635307358266,0.8844939857547782,-0.9560379986274683,low,high,,ISIC_0009939.JPG,9,ISIC_0034006.JPG,31,false,hl,keypress(j),0,false,762659.900000006,762659.6000000089,755645.001,755852.5,755662.246,762478.891,4,500,1,
break,html.Screen,10_0_1,2023-11-15T18:51:43.224Z,,,,,,,,,,NaN,,,,,,,,low,high,,,,,,false,,,,false,762661,762660.6000000089,,762660.200000003,,762478.891,4,500,,
break_continue,html.Screen,10_0_2,2023-11-15T18:51:43.225Z,,,,,,,,,,NaN,,,,,,,,low,high,,,,,,false,,,,false,762662,762661.700000003,,762661.400000006,,762478.891,4,500,,
sequence,flow.Sequence,10_0,2023-11-15T18:51:43.225Z,,,,,,,,,,6999.454000002937,completion,,,,,,,low,high,,,,,,false,,,,false,762662.299999997,762661.700000003,755645.001,755852.400000006,755662.246,762478.891,4,500,,
trial,html.Screen,10_1_0,2023-11-15T18:51:48.744Z,,,,1,0.0336891949856763,0.060314732178219,,false,ll,5702.009000006015,response,-0.8854665385930431,0.9333597107851144,-1.0395692158897654,-1.0235331176078744,0.8844939857547782,-0.9560379986274683,low,low,,ISIC_6192289.JPG,9,ISIC_0026889.JPG,132,false,lh,keypress(e),0,false,768181.200000003,768180.900000006,762462.064,762662.5,762478.891,767995.492,4,500,2,
break,html.Screen,10_1_1,2023-11-15T18:51:48.745Z,,,,,,,,,,NaN,,,,,,,,low,low,,,,,,false,,,,false,768182.1000000089,768181.900000006,,768181.5,,767995.492,4,500,,
break_continue,html.Screen,10_1_2,2023-11-15T18:51:48.746Z,,,,,,,,,,NaN,,,,,,,,low,low,,,,,,false,,,,false,768182.799999997,768182.5,,768182.400000006,,767995.492,4,500,,
sequence,flow.Sequence,10_1,2023-11-15T18:51:48.746Z,,,,,,,,,,5703.609000000055,completion,,,,,,,low,low,,,,,,false,,,,false,768183,768182.5,762462.064,762662.400000006,762478.891,767995.492,4,500,,
trial,html.Screen,10_2_0,2023-11-15T18:51:54.119Z,,,,1,0.0050679133050021,-0.0009714874637896,,true,hl,5560.108000008971,response,1.0164576835546473,0.9333597107851144,-1.0395692158897654,-0.8120626538423016,0.8844939857547782,-0.9560379986274683,high,low,,ISIC_9848743.JPG,9,ISIC_6002694.JPG,26,false,hl,keypress(j),0,false,773555.900000006,773555.6000000089,767978.761,768183.200000003,767995.492,773378.941,4,500,3,
break,html.Screen,10_2_1,2023-11-15T18:51:54.120Z,,,,,,,,,,NaN,,,,,,,,high,low,,,,,,false,,,,false,773556.799999997,773556.700000003,,773556.299999997,,773378.941,4,500,,
break_continue,html.Screen,10_2_2,2023-11-15T18:51:54.121Z,,,,,,,,,,NaN,,,,,,,,high,low,,,,,,false,,,,false,773557.400000006,773557.299999997,,773557.1000000089,,773378.941,4,500,,
sequence,flow.Sequence,10_2,2023-11-15T18:51:54.121Z,,,,,,,,,,5561.8079999970505,completion,,,,,,,high,low,,,,,,false,,,,false,773557.700000003,773557.299999997,767978.761,768183.200000003,767995.492,773378.941,4,500,,
trial,html.Screen,10_3_0,2023-11-15T18:51:59.423Z,,,,1,0.0247880219471745,-0.0687761754603142,,false,lh,5480.959000005969,response,-1.10953285327247,0.9333597107851144,-1.0395692158897654,0.7377773112414787,0.8844939857547782,-0.9560379986274683,low,high,,ISIC_0031745.JPG,10,ISIC_1720840.JPG,31,false,hl,keypress(j),0,false,778860.200000003,778859.900000006,773362.317,773557.900000006,773378.941,778678.822,4,500,4,
break,html.Screen,10_3_1,2023-11-15T18:51:59.424Z,,,,,,,,,,NaN,,,,,,,,low,high,,,,,,false,,,,false,778861.200000003,778860.900000006,,778860.6000000089,,778678.822,4,500,,
break_continue,html.Screen,10_3_2,2023-11-15T18:51:59.425Z,,,,,,,,,,NaN,,,,,,,,low,high,,,,,,false,,,,false,778861.900000006,778861.700000003,,778861.400000006,,778678.822,4,500,,
sequence,flow.Sequence,10_3,2023-11-15T18:51:59.425Z,,,,,,,,,,5482.759000002989,completion,,,,,,,low,high,,,,,,false,,,,false,778862.1000000089,778861.700000003,773362.317,773557.799999997,773378.941,778678.822,4,500,,
trial,html.Screen,10_4_0,2023-11-15T18:52:04.928Z,,,,1,-0.0051189696037511,0.0396625911332438,,false,lh,5685.477999996976,response,-0.8979276789594874,0.9333597107851144,-1.0395692158897654,0.925374811016654,0.8844939857547782,-0.9560379986274683,low,high,,ISIC_9742891.JPG,9,ISIC_4208361.JPG,31,false,ll,keypress(f),0,false,784364.6000000089,784364.299999997,778662.238,778862.299999997,778678.822,784178.779,4,500,5,
break,html.Screen,10_4_1,2023-11-15T18:52:04.929Z,,,,,,,,,,NaN,,,,,,,,low,high,,,,,,false,,,,false,784365.6000000089,784365.400000006,,784364.900000006,,784178.779,4,500,,
break_continue,html.Screen,10_4_2,2023-11-15T18:52:04.929Z,,,,,,,,,,NaN,,,,,,,,low,high,,,,,,false,,,,false,784366.200000003,784366,,784365.700000003,,784178.779,4,500,,
sequence,flow.Sequence,10_4,2023-11-15T18:52:04.929Z,,,,,,,,,,5687.177999999956,completion,,,,,,,low,high,,,,,,false,,,,false,784366.400000006,784366,778662.238,778862.200000003,778678.822,784178.779,4,500,,
trial,html.Screen,10_5_0,2023-11-15T18:52:11.039Z,,,,1,-0.0134764727102299,-0.0033499036460912,,false,hh,6297.32100000896,response,1.0819892205282682,0.9333597107851144,-1.0395692158897654,0.7225330940143421,0.8844939857547782,-0.9560379986274683,high,high,,ISIC_0009998.JPG,9,ISIC_0029729.JPG,188,false,lh,keypress(e),0,false,790476.299999997,790476.1000000089,784162.275,784366.6000000089,784178.779,790295.493,4,500,6,
break,html.Screen,10_5_1,2023-11-15T18:52:11.040Z,,,,,,,,,,NaN,,,,,,,,high,high,,,,,,false,,,,false,790477.200000003,790477,,790476.6000000089,,790295.493,4,500,,
break_continue,html.Screen,10_5_2,2023-11-15T18:52:11.041Z,,,,,,,,,,NaN,,,,,,,,high,high,,,,,,false,,,,false,790477.799999997,790477.6000000089,,790477.5,,790295.493,4,500,,
sequence,flow.Sequence,10_5,2023-11-15T18:52:11.041Z,,,,,,,,,,6298.82100000896,completion,,,,,,,high,high,,,,,,false,,,,false,790478.1000000089,790477.6000000089,784162.275,784366.5,784178.779,790295.493,4,500,,
trial,html.Screen,10_6_0,2023-11-15T18:52:15.160Z,,,,1,-0.0134764727102299,-0.0033499036460912,,false,lh,4300.7070000029635,response,-1.2075172235545184,0.9333597107851144,-1.0395692158897654,0.9116724966267612,0.8844939857547782,-0.9560379986274683,low,high,,ISIC_0009998.JPG,9,ISIC_0024235.JPG,31,false,hh,keypress(i),0,false,794596.5,794596.200000003,790278.975,790478.299999997,790295.493,794412.063,4,500,7,
break,html.Screen,10_6_1,2023-11-15T18:52:15.160Z,,,,,,,,,,NaN,,,,,,,,low,high,,,,,,false,,,,false,794597.400000006,794597.299999997,,794596.799999997,,794412.063,4,500,,
break_continue,html.Screen,10_6_2,2023-11-15T18:52:15.161Z,,,,,,,,,,NaN,,,,,,,,low,high,,,,,,false,,,,false,794598,794597.900000006,,794597.6000000089,,794412.063,4,500,,
sequence,flow.Sequence,10_6,2023-11-15T18:52:15.161Z,,,,,,,,,,4302.407000005944,completion,,,,,,,low,high,,,,,,false,,,,false,794598.299999997,794597.900000006,790278.975,790478.200000003,790295.493,794412.063,4,500,,
trial,html.Screen,10_7_0,2023-11-15T18:52:20.335Z,,,,1,-0.0735635316240061,0.0537805418091709,,true,ll,5359.4370000000345,response,-0.9029354290897352,0.9333597107851144,-1.0395692158897654,-1.1346860677105404,0.8844939857547782,-0.9560379986274683,low,low,,ISIC_1761799.JPG,9,ISIC_4153687.JPG,132,false,ll,keypress(f),0,false,799771.799999997,799771.5,794395.665,794598.5,794412.063,799595.625,4,500,8,
break,html.Screen,10_7_1,2023-11-15T18:52:20.336Z,,,,,,,,,,NaN,,,,,,,,low,low,,,,,,false,,,,false,799772.799999997,799772.6000000089,,799772.1000000089,,799595.625,4,500,,
break_continue,html.Screen,10_7_2,2023-11-15T18:52:20.336Z,,,,,,,,,,NaN,,,,,,,,low,low,,,,,,false,,,,false,799773.400000006,799773.200000003,,799773.1000000089,,799595.625,4,500,,
sequence,flow.Sequence,10_7,2023-11-15T18:52:20.337Z,,,,,,,,,,5361.137000003015,completion,,,,,,,low,low,,,,,,false,,,,false,799773.700000003,799773.200000003,794395.665,794598.400000006,794412.063,799595.625,4,500,,
trial,html.Screen,10_8_0,2023-11-15T18:52:24.551Z,,,,1,0.0640778296621707,0.0387686079545705,,true,ll,4391.975000008941,response,-1.0565911491759823,0.9333597107851144,-1.0395692158897654,-1.0221582682700174,0.8844939857547782,-0.9560379986274683,low,low,,ISIC_0010124.JPG,9,ISIC_6604862.JPG,132,false,ll,keypress(f),0,false,803987.900000006,803987.6000000089,799578.856,799773.799999997,799595.625,803812.096,4,500,9,
break,html.Screen,10_8_1,2023-11-15T18:52:24.552Z,,,,,,,,,,NaN,,,,,,,,low,low,,,,,,false,,,,false,803988.799999997,803988.5,,803988.200000003,,803812.096,4,500,,
break_continue,html.Screen,10_8_2,2023-11-15T18:52:24.552Z,,,,,,,,,,NaN,,,,,,,,low,low,,,,,,false,,,,false,803989.400000006,803989.200000003,,803989,,803812.096,4,500,,
sequence,flow.Sequence,10_8,2023-11-15T18:52:24.553Z,,,,,,,,,,4393.57500000298,completion,,,,,,,low,low,,,,,,false,,,,false,803989.6000000089,803989.200000003,799578.856,799773.799999997,799595.625,803812.096,4,500,,
trial,html.Screen,10_9_0,2023-11-15T18:52:31.528Z,,,,1,0.0363437082783146,0.0333332186217051,,false,lh,7152.40399999998,response,-1.011737552725394,0.9333597107851144,-1.0395692158897654,0.8500530224490773,0.8844939857547782,-0.9560379986274683,low,high,,ISIC_3314555.JPG,10,ISIC_2998367.JPG,31,false,hl,keypress(j),0,false,810964.799999997,810964.5,803795.498,803989.799999997,803812.096,810778.764,4,500,10,
break,html.Screen,10_9_1,2023-11-15T18:52:31.529Z,,,,,,,,,,NaN,,,,,,,,low,high,,,,,,false,,,,false,810965.799999997,810965.6000000089,,810965.1000000089,,810778.764,4,500,,
break_continue,html.Screen,10_9_2,2023-11-15T18:52:31.529Z,,,,,,,,,,NaN,,,,,,,,low,high,,,,,,false,,,,false,810966.400000006,810966.200000003,,810965.900000006,,810778.764,4,500,,
sequence,flow.Sequence,10_9,2023-11-15T18:52:31.530Z,,,,,,,,,,7154.104000002961,completion,,,,,,,low,high,,,,,,false,,,,false,810966.6000000089,810966.200000003,803795.498,803989.799999997,803812.096,810778.764,4,500,,
trial,html.Screen,10_10_0,2023-11-15T18:52:35.477Z,,,,1,-0.009234249673026,-0.0627190878028592,,false,lh,4135.2360000000335,response,-0.8487429103619056,0.9333597107851144,-1.0395692158897654,0.9778257804233036,0.8844939857547782,-0.9560379986274683,low,high,,ISIC_0053760.JPG,9,ISIC_4554863.JPG,31,false,hh,keypress(i),0,false,814914.1000000089,814914,810762.223,810966.799999997,810778.764,814728.674,4,500,11,
break,html.Screen,10_10_1,2023-11-15T18:52:35.478Z,,,,,,,,,,NaN,,,,,,,,low,high,,,,,,false,,,,false,814914.400000006,814914.299999997,,814914.200000003,,814728.674,4,500,,
break_continue,html.Screen,10_10_2,2023-11-15T18:52:35.478Z,,,,,,,,,,NaN,,,,,,,,low,high,,,,,,false,,,,false,814914.700000003,814914.6000000089,,814914.5,,814728.674,4,500,,
sequence,flow.Sequence,10_10,2023-11-15T18:52:35.478Z,,,,,,,,,,4135.836000008974,completion,,,,,,,low,high,,,,,,false,,,,false,814914.700000003,814914.6000000089,810762.223,810966.799999997,810778.764,814728.674,4,500,,
trial,html.Screen,10_11_0,2023-11-15T18:52:39.799Z,,,,1,0.0651705891246238,-0.0394586219902573,,false,lh,4506.926000008942,response,-0.9454713230140772,0.9333597107851144,-1.0395692158897654,0.9245167441969216,0.8844939857547782,-0.9560379986274683,low,high,,ISIC_0013491.JPG,8,ISIC_9101055.JPG,31,false,ll,keypress(f),0,false,819235.900000006,819235.6000000089,814712.068,814914.799999997,814728.674,819063.121,4,500,12,
break,html.Screen,10_11_1,2023-11-15T18:52:39.800Z,,,,,,,,,,NaN,,,,,,,,low,high,,,,,,false,,,,false,819236.799999997,819236.6000000089,,819236.299999997,,819063.121,4,500,,
break_continue,html.Screen,10_11_2,2023-11-15T18:52:39.800Z,,,,,,,,,,NaN,,,,,,,,low,high,,,,,,false,,,,false,819237.400000006,819237.200000003,,819237,,819063.121,4,500,,
sequence,flow.Sequence,10_11,2023-11-15T18:52:39.801Z,,,,,,,,,,4508.526000002981,completion,,,,,,,low,high,,,,,,false,,,,false,819237.6000000089,819237.200000003,814712.068,814914.799999997,814728.674,819063.121,4,500,,
trial,html.Screen,10_12_0,2023-11-15T18:52:45.734Z,,,,1,0.0544808612748248,-0.0240487075377862,,true,lh,6107.779000005918,response,-0.8860551570327019,0.9333597107851144,-1.0395692158897654,0.8067116931297591,0.8844939857547782,-0.9560379986274683,low,high,,ISIC_4606646.JPG,9,ISIC_1457687.JPG,31,false,lh,keypress(e),0,false,825171,825170.900000006,819028.836,819237.799999997,819063.121,824995.522,4,500,13,
break,html.Screen,10_12_1,2023-11-15T18:52:45.735Z,,,,,,,,,,NaN,,,,,,,,low,high,,,,,,false,,,,false,825171.200000003,825171.200000003,,825171,,824995.522,4,500,,
break_continue,html.Screen,10_12_2,2023-11-15T18:52:45.735Z,,,,,,,,,,NaN,,,,,,,,low,high,,,,,,false,,,,false,825171.400000006,825171.400000006,,825171.400000006,,824995.522,4,500,,
sequence,flow.Sequence,10_12,2023-11-15T18:52:45.735Z,,,,,,,,,,6108.279000005918,completion,,,,,,,low,high,,,,,,false,,,,false,825171.5,825171.400000006,819028.836,819237.700000003,819063.121,824995.522,4,500,,
trial,html.Screen,10_13_0,2023-11-15T18:52:52.415Z,,,,1,-0.0277178575053843,0.0395587463147856,,true,hl,6856.277999997023,response,0.8035152873995188,0.9333597107851144,-1.0395692158897654,-0.82868450251632,0.8844939857547782,-0.9560379986274683,high,low,,ISIC_0010807.JPG,9,ISIC_0010671.JPG,26,false,hl,keypress(j),0,false,831852,831851.799999997,824978.735,825171.6000000089,824995.522,831679.796,4,500,14,
break,html.Screen,10_13_1,2023-11-15T18:52:52.416Z,,,,,,,,,,NaN,,,,,,,,high,low,,,,,,false,,,,false,831853,831852.700000003,,831852.299999997,,831679.796,4,500,,
break_continue,html.Screen,10_13_2,2023-11-15T18:52:52.417Z,,,,,,,,,,NaN,,,,,,,,high,low,,,,,,false,,,,false,831853.6000000089,831853.299999997,,831853.1000000089,,831679.796,4,500,,
sequence,flow.Sequence,10_13,2023-11-15T18:52:52.417Z,,,,,,,,,,6857.777999997023,completion,,,,,,,high,low,,,,,,false,,,,false,831853.799999997,831853.299999997,824978.735,825171.6000000089,824995.522,831679.796,4,500,,
trial,html.Screen,10_14_0,2023-11-15T18:52:58.175Z,,,,1,0.0116094682222121,-0.0258434522530318,,true,hl,5932.003999997047,response,0.9873794329144926,0.9333597107851144,-1.0395692158897654,-0.7991077882008257,0.8844939857547782,-0.9560379986274683,high,low,,ISIC_9239632.JPG,8,ISIC_0013498.JPG,26,false,hl,keypress(j),0,false,837612.200000003,837611.799999997,831645.468,831854,831679.796,837428.626,4,500,15,
break,html.Screen,10_14_1,2023-11-15T18:52:58.177Z,,,,,,,,,,NaN,,,,,,,,high,low,,,,,,false,,,,false,837613.200000003,837613,,837612.5,,837428.626,4,500,,
break_continue,html.Screen,10_14_2,2023-11-15T18:52:58.177Z,,,,,,,,,,NaN,,,,,,,,high,low,,,,,,false,,,,false,837613.900000006,837613.700000003,,837613.5,,837428.626,4,500,,
sequence,flow.Sequence,10_14,2023-11-15T18:52:58.177Z,,,,,,,,,,5933.904000003007,completion,,,,,,,high,low,,,,,,false,,,,false,837614.1000000089,837613.700000003,831645.468,831853.900000006,831679.796,837428.626,4,500,,
trial,html.Screen,10_15_0,2023-11-15T18:53:05.838Z,,,,1,0.0107854985447517,0.0478010417136109,,true,hh,7845.974000008893,response,0.7593404817744267,0.9333597107851144,-1.0395692158897654,0.8064601045837071,0.8844939857547782,-0.9560379986274683,high,high,,ISIC_0010500.JPG,8,ISIC_0010278.JPG,188,false,hh,keypress(i),0,false,845274.700000003,845274.6000000089,837412.104,837614.299999997,837428.626,845095.345,4,500,16,
break,html.Screen,10_15_1,2023-11-15T18:53:05.838Z,,,,,,,,,,NaN,,,,,,,,high,high,,,,,,false,,,,false,845275,845274.900000006,,845274.799999997,,845095.345,4,500,,
break_continue,html.Screen,10_15_2,2023-11-15T18:53:05.838Z,,,,,,,,,,NaN,,,,,,,,high,high,,,,,,false,,,,false,845275.200000003,845275.1000000089,,845275.1000000089,,845095.345,4,500,,
sequence,flow.Sequence,10_15,2023-11-15T18:53:05.839Z,,,,,,,,,,7846.474000008893,completion,,,,,,,high,high,,,,,,false,,,,false,845275.200000003,845275.1000000089,837412.104,837614.299999997,837428.626,845095.345,4,500,,
trial,html.Screen,10_16_0,2023-11-15T18:53:11.360Z,,,,1,0.063045324701596,-0.0064789751878758,,false,hh,5701.055000005988,response,0.9293545888449,0.9333597107851144,-1.0395692158897654,0.8047295996345292,0.8844939857547782,-0.9560379986274683,high,high,,ISIC_5805349.JPG,10,ISIC_7717907.JPG,188,false,ll,keypress(f),0,false,850796.700000003,850796.400000006,845078.608,845275.299999997,845095.345,850611.928,4,500,17,
break,html.Screen,10_16_1,2023-11-15T18:53:11.361Z,,,,,,,,,,NaN,,,,,,,,high,high,,,,,,false,,,,false,850797.6000000089,850797.400000006,,850797,,850611.928,4,500,,
break_continue,html.Screen,10_16_2,2023-11-15T18:53:11.361Z,,,,,,,,,,NaN,,,,,,,,high,high,,,,,,false,,,,false,850798.200000003,850798,,850797.799999997,,850611.928,4,500,,
sequence,flow.Sequence,10_16,2023-11-15T18:53:11.362Z,,,,,,,,,,5702.655000000028,completion,,,,,,,high,high,,,,,,false,,,,false,850798.400000006,850798,845078.608,845275.299999997,845095.345,850611.928,4,500,,
trial,html.Screen,10_17_0,2023-11-15T18:53:16.400Z,,,,1,0.007397293189458,0.0174716772037504,,false,ll,5224.072000000044,response,-0.9493297220358412,0.9333597107851144,-1.0395692158897654,-0.9126122723623854,0.8844939857547782,-0.9560379986274683,low,low,,ISIC_0056226.JPG,8,ISIC_9738202.JPG,132,false,hl,keypress(j),0,false,855836.400000006,855836,850595.333,850798.6000000089,850611.928,855678.768,4,500,18,
break,html.Screen,10_17_1,2023-11-15T18:53:16.401Z,,,,,,,,,,NaN,,,,,,,,low,low,,,,,,false,,,,false,855837.299999997,855837.1000000089,,855836.700000003,,855678.768,4,500,,
break_continue,html.Screen,10_17_2,2023-11-15T18:53:16.401Z,,,,,,,,,,NaN,,,,,,,,low,low,,,,,,false,,,,false,855838,855837.799999997,,855837.5,,855678.768,4,500,,
sequence,flow.Sequence,10_17,2023-11-15T18:53:16.402Z,,,,,,,,,,5225.8719999970635,completion,,,,,,,low,low,,,,,,false,,,,false,855838.299999997,855837.799999997,850595.333,850798.5,850611.928,855678.768,4,500,,
trial,html.Screen,10_18_0,2023-11-15T18:53:19.973Z,,,,1,,-0.0264544974620926,,false,lh,3731.1320000059204,response,-0.8979276789594874,0.9333597107851144,-1.0395692158897654,0.925374811016654,0.8844939857547782,-0.9560379986274683,low,high,,ISIC_0056991.JPG,10,ISIC_4208361.JPG,31,false,ll,keypress(f),0,false,859410,859409.900000006,855662.193,855838.400000006,855678.768,859228.724,4,500,19,
break,html.Screen,10_18_1,2023-11-15T18:53:19.974Z,,,,,,,,,,NaN,,,,,,,,low,high,,,,,,false,,,,false,859410.299999997,859410.200000003,,859410.1000000089,,859228.724,4,500,,
break_continue,html.Screen,10_18_2,2023-11-15T18:53:19.974Z,,,,,,,,,,NaN,,,,,,,,low,high,,,,,,false,,,,false,859410.400000006,859410.400000006,,859410.299999997,,859228.724,4,500,,
sequence,flow.Sequence,10_18,2023-11-15T18:53:19.974Z,,,,,,,,,,3731.6320000059204,completion,,,,,,,low,high,,,,,,false,,,,false,859410.5,859410.400000006,855662.193,855838.400000006,855678.768,859228.724,4,500,,
trial,html.Screen,10_19_0,2023-11-15T18:53:24.776Z,,,,1,-0.0693466529227737,-0.044703434393184,,true,hh,4984.075999996974,response,0.8879651542647811,0.9333597107851144,-1.0395692158897654,1.0571991308692388,0.8844939857547782,-0.9560379986274683,high,high,,ISIC_0004217.JPG,8,ISIC_0034100.JPG,188,false,hh,keypress(i),0,false,864213.1000000089,864212.799999997,859212.061,859410.6000000089,859228.724,864028.572,4,500,20,
break,html.Screen,10_19_1,2023-11-15T18:53:24.777Z,,,,,,,,,,NaN,,,,,,,,high,high,,,,,,false,,,,false,864214,864213.700000003,,864213.299999997,,864028.572,4,500,,
break_continue,html.Screen,10_19_2,2023-11-15T18:53:24.778Z,,,,,,,,,,NaN,,,,,,,,high,high,,,,,,false,,,,false,864214.6000000089,864214.299999997,,864214.1000000089,,864028.572,4,500,,
sequence,flow.Sequence,10_19,2023-11-15T18:53:24.778Z,,,,,,,,,,4985.575999996974,completion,,,,,,,high,high,,,,,,false,,,,false,864214.700000003,864214.299999997,859212.061,859410.6000000089,859228.724,864028.572,4,500,,
trial,html.Screen,10_20_0,2023-11-15T18:53:30.215Z,,,,1,0.0538169356437535,-0.0113486191005169,,false,hl,5622.927999999956,response,1.0164576835546473,0.9333597107851144,-1.0395692158897654,-0.8120626538423016,0.8844939857547782,-0.9560379986274683,high,low,,ISIC_0009939.JPG,9,ISIC_6002694.JPG,26,false,lh,keypress(e),0,false,869651.900000006,869651.5,864011.891,864215,864028.572,869461.932,4,500,21,
break,html.Screen,10_20_1,2023-11-15T18:53:30.216Z,,,,,,,,,,NaN,,,,,,,,high,low,,,,,,false,,,,false,869652.6000000089,869652.400000006,,869652,,869461.932,4,500,,
break_continue,html.Screen,10_20_2,2023-11-15T18:53:30.216Z,,,,,,,,,,NaN,,,,,,,,high,low,,,,,,false,,,,false,869653.1000000089,869652.900000006,,869652.799999997,,869461.932,4,500,,
sequence,flow.Sequence,10_20,2023-11-15T18:53:30.217Z,,,,,,,,,,5624.328000005917,completion,,,,,,,high,low,,,,,,false,,,,false,869653.400000006,869652.900000006,864011.891,864214.900000006,864028.572,869461.932,4,500,,
trial,html.Screen,10_21_0,2023-11-15T18:53:38.720Z,,,,1,-0.0265457942157377,-0.0704357137706731,,false,hh,8694.76800000295,response,1.085089185942698,0.9333597107851144,-1.0395692158897654,0.8165346395107898,0.8844939857547782,-0.9560379986274683,high,high,,ISIC_3123377.JPG,9,ISIC_2283628.JPG,188,false,hl,keypress(j),0,false,878156.900000006,878156.700000003,869445.465,869653.5,869461.932,877978.515,4,500,22,
break,html.Screen,10_21_1,2023-11-15T18:53:38.721Z,,,,,,,,,,NaN,,,,,,,,high,high,,,,,,false,,,,false,878157.799999997,878157.6000000089,,878157.200000003,,877978.515,4,500,,
break_continue,html.Screen,10_21_2,2023-11-15T18:53:38.722Z,,,,,,,,,,NaN,,,,,,,,high,high,,,,,,false,,,,false,878158.400000006,878158.200000003,,878158,,877978.515,4,500,,
sequence,flow.Sequence,10_21,2023-11-15T18:53:38.722Z,,,,,,,,,,8696.26800000295,completion,,,,,,,high,high,,,,,,false,,,,false,878158.6000000089,878158.200000003,869445.465,869653.5,869461.932,877978.515,4,500,,
trial,html.Screen,10_22_0,2023-11-15T18:53:46.040Z,,,,1,-0.000047919190197942736,-0.0462652940855003,,false,hh,7497.085000008927,response,0.7606790040467306,0.9333597107851144,-1.0395692158897654,0.915501688019354,0.8844939857547782,-0.9560379986274683,high,high,,ISIC_0011507.JPG,9,ISIC_6557194.JPG,188,false,hl,keypress(j),0,false,885475.799999997,885475.6000000089,877961.945,878158.799999997,877978.515,885295.235,4,500,23,
break,html.Screen,10_22_1,2023-11-15T18:53:46.040Z,,,,,,,,,,NaN,,,,,,,,high,high,,,,,,false,,,,false,885476.6000000089,885476.5,,885476.1000000089,,885295.235,4,500,,
break_continue,html.Screen,10_22_2,2023-11-15T18:53:46.041Z,,,,,,,,,,NaN,,,,,,,,high,high,,,,,,false,,,,false,885477.200000003,885477,,885476.799999997,,885295.235,4,500,,
sequence,flow.Sequence,10_22,2023-11-15T18:53:46.041Z,,,,,,,,,,7498.484999999986,completion,,,,,,,high,high,,,,,,false,,,,false,885477.5,885477,877961.945,878158.700000003,877978.515,885295.235,4,500,,
trial,html.Screen,10_23_0,2023-11-15T18:53:50.150Z,,,,1,0.0651705891246238,-0.0394586219902573,,false,lh,4290.765000000014,response,-0.8979276789594874,0.9333597107851144,-1.0395692158897654,0.925374811016654,0.8844939857547782,-0.9560379986274683,low,high,,ISIC_0013491.JPG,9,ISIC_4208361.JPG,31,false,ll,keypress(f),0,false,889586.1000000089,889586,885278.583,885477.6000000089,885295.235,889412.305,4,500,24,
break,html.Screen,10_23_1,2023-11-15T18:53:50.150Z,,,,,,,,,,NaN,,,,,,,,low,high,,,,,,false,,,,false,889586.5,889586.400000006,,889586.200000003,,889412.305,4,500,,
break_continue,html.Screen,10_23_2,2023-11-15T18:53:50.150Z,,,,,,,,,,NaN,,,,,,,,low,high,,,,,,false,,,,false,889586.700000003,889586.6000000089,,889586.5,,889412.305,4,500,,
sequence,flow.Sequence,10_23,2023-11-15T18:53:50.150Z,,,,,,,,,,4291.365000008955,completion,,,,,,,low,high,,,,,,false,,,,false,889586.700000003,889586.6000000089,885278.583,885477.6000000089,885295.235,889412.305,4,500,,
trial,html.Screen,10_24_0,2023-11-15T18:53:57.983Z,,,,1,-0.0188047466661863,0.0288346930436979,,false,hl,8006.4949999969685,response,0.8947611078712571,0.9333597107851144,-1.0395692158897654,-0.8960964505004638,0.8844939857547782,-0.9560379986274683,high,low,,ISIC_0014157.JPG,10,ISIC_6441128.JPG,26,false,lh,keypress(e),0,false,897419,897418.799999997,889378.7,889586.799999997,889412.305,897228.436,4,500,25,
break,html.Screen,10_24_1,2023-11-15T18:53:57.983Z,,,,,,,,,,NaN,,,,,,,,high,low,,,,,,false,,,,false,897419.299999997,897419.200000003,,897419,,897228.436,4,500,,
break_continue,html.Screen,10_24_2,2023-11-15T18:53:57.983Z,,,,,,,,,,NaN,,,,,,,,high,low,,,,,,false,,,,false,897419.400000006,897419.400000006,,897419.299999997,,897228.436,4,500,,
sequence,flow.Sequence,10_24,2023-11-15T18:53:57.983Z,,,,,,,,,,8007.095000005909,completion,,,,,,,high,low,,,,,,false,,,,false,897419.5,897419.400000006,889378.7,889586.799999997,889412.305,897228.436,4,500,,
trial,html.Screen,10_25_0,2023-11-15T18:54:01.760Z,,,,1,-0.013431314305098,0.0140597582944232,,false,hl,3967.363999997033,response,0.8816288864119318,0.9333597107851144,-1.0395692158897654,-0.801867301188093,0.8844939857547782,-0.9560379986274683,high,low,,ISIC_0069617.JPG,8,ISIC_9196783.JPG,26,false,hh,keypress(i),0,false,901196.1000000089,901195.799999997,897211.989,897419.5,897228.436,901011.848,4,500,26,
break,html.Screen,10_25_1,2023-11-15T18:54:01.761Z,,,,,,,,,,NaN,,,,,,,,high,low,,,,,,false,,,,false,901197,901196.799999997,,901196.400000006,,901011.848,4,500,,
break_continue,html.Screen,10_25_2,2023-11-15T18:54:01.761Z,,,,,,,,,,NaN,,,,,,,,high,low,,,,,,false,,,,false,901197.700000003,901197.5,,901197.200000003,,901011.848,4,500,,
sequence,flow.Sequence,10_25,2023-11-15T18:54:01.762Z,,,,,,,,,,3969.064000000013,completion,,,,,,,high,low,,,,,,false,,,,false,901197.900000006,901197.5,897211.989,897419.5,897228.436,901011.848,4,500,,
trial,html.Screen,10_26_0,2023-11-15T18:54:06.374Z,,,,1,-0.0245376145053177,0.0436993426328401,,false,hh,4798.152000000002,response,0.8868080718134892,0.9333597107851144,-1.0395692158897654,0.9914647862586572,0.8844939857547782,-0.9560379986274683,high,high,,ISIC_0056444.JPG,9,ISIC_0068895.JPG,188,false,ll,keypress(f),0,false,905810.1000000089,905810,900995.233,901198.1000000089,901011.848,905628.418,4,500,27,
break,html.Screen,10_26_1,2023-11-15T18:54:06.374Z,,,,,,,,,,NaN,,,,,,,,high,high,,,,,,false,,,,false,905810.400000006,905810.299999997,,905810.200000003,,905628.418,4,500,,
break_continue,html.Screen,10_26_2,2023-11-15T18:54:06.374Z,,,,,,,,,,NaN,,,,,,,,high,high,,,,,,false,,,,false,905810.6000000089,905810.5,,905810.5,,905628.418,4,500,,
sequence,flow.Sequence,10_26,2023-11-15T18:54:06.374Z,,,,,,,,,,4798.652000000002,completion,,,,,,,high,high,,,,,,false,,,,false,905810.6000000089,905810.5,900995.233,901198,901011.848,905628.418,4,500,,
trial,html.Screen,10_27_0,2023-11-15T18:54:10.023Z,,,,1,-0.0265457942157377,-0.0704357137706731,,false,hl,3830.881999997073,response,0.7809949855371787,0.9333597107851144,-1.0395692158897654,-0.8493861117004308,0.8844939857547782,-0.9560379986274683,high,low,,ISIC_3123377.JPG,9,ISIC_7450481.JPG,26,false,hh,keypress(i),0,false,909459.5,909459.299999997,905611.731,905810.700000003,905628.418,909278.466,4,500,28,
break,html.Screen,10_27_1,2023-11-15T18:54:10.024Z,,,,,,,,,,NaN,,,,,,,,high,low,,,,,,false,,,,false,909460.5,909460.299999997,,909459.900000006,,909278.466,4,500,,
break_continue,html.Screen,10_27_2,2023-11-15T18:54:10.025Z,,,,,,,,,,NaN,,,,,,,,high,low,,,,,,false,,,,false,909461,909460.799999997,,909460.6000000089,,909278.466,4,500,,
sequence,flow.Sequence,10_27,2023-11-15T18:54:10.025Z,,,,,,,,,,3832.381999997073,completion,,,,,,,high,low,,,,,,false,,,,false,909461.299999997,909460.799999997,905611.731,905810.6000000089,905628.418,909278.466,4,500,,
trial,html.Screen,10_28_0,2023-11-15T18:54:15.464Z,,,,1,0.0085520978188085,-0.0464691161264081,,false,hh,5621.033999999985,response,0.7532157061562929,0.9333597107851144,-1.0395692158897654,1.0469383288898104,0.8844939857547782,-0.9560379986274683,high,high,,ISIC_0758797.JPG,9,ISIC_0058926.JPG,188,false,lh,keypress(e),0,false,914899.799999997,914899.5,909261.837,909461.5,909278.466,914711.754,4,500,29,
break,html.Screen,10_28_1,2023-11-15T18:54:15.464Z,,,,,,,,,,NaN,,,,,,,,high,high,,,,,,false,,,,false,914900.6000000089,914900.5,,914900.1000000089,,914711.754,4,500,,
break_continue,html.Screen,10_28_2,2023-11-15T18:54:15.465Z,,,,,,,,,,NaN,,,,,,,,high,high,,,,,,false,,,,false,914901.299999997,914901.1000000089,,914900.900000006,,914711.754,4,500,,
sequence,flow.Sequence,10_28,2023-11-15T18:54:15.465Z,,,,,,,,,,5622.634000008926,completion,,,,,,,high,high,,,,,,false,,,,false,914901.5,914901.1000000089,909261.837,909461.400000006,909278.466,914711.754,4,500,,
trial,html.Screen,10_29_0,2023-11-15T18:54:22.480Z,,,,1,0.0329095507339554,-0.0382899749693245,,false,hh,7204.746000000043,response,1.0379960130550778,0.9333597107851144,-1.0395692158897654,0.746082623687746,0.8844939857547782,-0.9560379986274683,high,high,,ISIC_8812781.JPG,9,ISIC_0072612.JPG,188,false,lh,keypress(e),0,false,921916.799999997,921916.5,914695.153,914901.700000003,914711.754,921728.454,4,500,30,
break,html.Screen,10_29_1,2023-11-15T18:54:22.481Z,,,,,,,,,,NaN,,,,,,,,high,high,,,,,,false,,,,false,921917.6000000089,921917.400000006,,921917.1000000089,,921728.454,4,500,,
break_continue,html.Screen,10_29_2,2023-11-15T18:54:22.482Z,,,,,,,,,,NaN,,,,,,,,high,high,,,,,,false,,,,false,921918.200000003,921918.1000000089,,921917.799999997,,921728.454,4,500,,
sequence,flow.Sequence,10_29,2023-11-15T18:54:22.482Z,,,,,,,,,,7206.3460000089835,completion,,,,,,,high,high,,,,,,false,,,,false,921918.400000006,921918.1000000089,914695.153,914901.6000000089,914711.754,921728.454,4,500,,
trial,html.Screen,10_30_0,2023-11-15T18:54:26.750Z,,,,1,0.0329095507339554,-0.0382899749693245,,false,lh,4457.9460000059335,response,-1.020990671779317,0.9333597107851144,-1.0395692158897654,1.0116513850520903,0.8844939857547782,-0.9560379986274683,low,high,,ISIC_8812781.JPG,9,ISIC_0011995.JPG,31,false,ll,keypress(f),0,false,926186.5,926186.400000006,921711.804,921918.6000000089,921728.454,926011.865,4,500,31,
break,html.Screen,10_30_1,2023-11-15T18:54:26.750Z,,,,,,,,,,NaN,,,,,,,,low,high,,,,,,false,,,,false,926186.700000003,926186.6000000089,,926186.5,,926011.865,4,500,,
break_continue,html.Screen,10_30_2,2023-11-15T18:54:26.751Z,,,,,,,,,,NaN,,,,,,,,low,high,,,,,,false,,,,false,926186.900000006,926186.900000006,,926186.799999997,,926011.865,4,500,,
sequence,flow.Sequence,10_30,2023-11-15T18:54:26.751Z,,,,,,,,,,4458.4460000059335,completion,,,,,,,low,high,,,,,,false,,,,false,926187,926186.900000006,921711.804,921918.6000000089,921728.454,926011.865,4,500,,
trial,html.Screen,10_31_0,2023-11-15T18:54:31.216Z,,,,1,-0.0292059717970335,-0.0718256867525069,,false,hh,4639.83500000299,response,1.0865311574527308,0.9333597107851144,-1.0395692158897654,0.8498834948129796,0.8844939857547782,-0.9560379986274683,high,high,,ISIC_1114966.JPG,9,ISIC_0000296.JPG,188,false,hl,keypress(j),0,false,930652,930651.700000003,925978.626,926187.1000000089,926011.865,930479.558,4,500,32,
break,html.Screen,10_31_1,2023-11-15T18:54:31.217Z,,,,,,,,,,NaN,,,,,,,,high,high,,,,,,false,,,,false,930652.900000006,930652.799999997,,930652.299999997,,930479.558,4,500,,
break_continue,html.Screen,10_31_2,2023-11-15T18:54:31.217Z,,,,,,,,,,NaN,,,,,,,,high,high,,,,,,false,,,,false,930653.5,930653.299999997,,930653.1000000089,,930479.558,4,500,,
sequence,flow.Sequence,10_31,2023-11-15T18:54:31.217Z,,,,,,,,,,4641.434999997029,completion,,,,,,,high,high,,,,,,false,,,,false,930653.799999997,930653.299999997,925978.626,926187,926011.865,930479.558,4,500,,
trial,html.Screen,10_32_0,2023-11-15T18:54:35.702Z,,,,1,-0.0277178575053843,0.0395587463147856,,false,ll,4659.142000003019,response,-0.8689515664606163,0.9333597107851144,-1.0395692158897654,-1.0538817435713148,0.8844939857547782,-0.9560379986274683,low,low,,ISIC_0010807.JPG,9,ISIC_7333928.JPG,132,false,hh,keypress(i),0,false,935138.799999997,935138.700000003,930445.162,930654,930479.558,934961.896,4,500,33,
break,html.Screen,10_32_1,2023-11-15T18:54:35.703Z,,,,,,,,,,NaN,,,,,,,,low,low,,,,,,false,,,,false,935139.1000000089,935139,,935138.900000006,,934961.896,4,500,,
break_continue,html.Screen,10_32_2,2023-11-15T18:54:35.703Z,,,,,,,,,,NaN,,,,,,,,low,low,,,,,,false,,,,false,935139.200000003,935139.200000003,,935139.1000000089,,934961.896,4,500,,
sequence,flow.Sequence,10_32,2023-11-15T18:54:35.703Z,,,,,,,,,,4659.642000003019,completion,,,,,,,low,low,,,,,,false,,,,false,935139.200000003,935139.200000003,930445.162,930654,930479.558,934961.896,4,500,,
trial,html.Screen,10_33_0,2023-11-15T18:54:43.520Z,,,,1,-0.0265457942157377,-0.0704357137706731,,false,ll,7994.60400000005,response,-1.1210325063849345,0.9333597107851144,-1.0395692158897654,-1.1498648320956202,0.8844939857547782,-0.9560379986274683,low,low,,ISIC_3123377.JPG,10,ISIC_0032162.JPG,132,false,hl,keypress(j),0,false,942956.799999997,942956.5,934944.953,935139.299999997,934961.896,942778.364,4,500,34,
break,html.Screen,10_33_1,2023-11-15T18:54:43.521Z,,,,,,,,,,NaN,,,,,,,,low,low,,,,,,false,,,,false,942957.6000000089,942957.400000006,,942957.1000000089,,942778.364,4,500,,
break_continue,html.Screen,10_33_2,2023-11-15T18:54:43.522Z,,,,,,,,,,NaN,,,,,,,,low,low,,,,,,false,,,,false,942958.299999997,942958.1000000089,,942957.900000006,,942778.364,4,500,,
sequence,flow.Sequence,10_33,2023-11-15T18:54:43.522Z,,,,,,,,,,7996.204000008991,completion,,,,,,,low,low,,,,,,false,,,,false,942958.5,942958.1000000089,934944.953,935139.299999997,934961.896,942778.364,4,500,,
trial,html.Screen,10_34_0,2023-11-15T18:54:48.830Z,,,,1,-0.0102460616775615,0.0309670599545429,,false,hh,5487.836000003037,response,0.9866439901618108,0.9333597107851144,-1.0395692158897654,0.9294281370493894,0.8844939857547782,-0.9560379986274683,high,high,,ISIC_0072041.JPG,10,ISIC_0072953.JPG,188,false,lh,keypress(e),0,false,948266.200000003,948266.200000003,942761.756,942958.700000003,942778.364,948078.343,4,500,35,
break,html.Screen,10_34_1,2023-11-15T18:54:48.830Z,,,,,,,,,,NaN,,,,,,,,high,high,,,,,,false,,,,false,948266.5,948266.5,,948266.400000006,,948078.343,4,500,,
break_continue,html.Screen,10_34_2,2023-11-15T18:54:48.831Z,,,,,,,,,,NaN,,,,,,,,high,high,,,,,,false,,,,false,948266.700000003,948266.700000003,,948266.5,,948078.343,4,500,,
sequence,flow.Sequence,10_34,2023-11-15T18:54:48.831Z,,,,,,,,,,5488.336000003037,completion,,,,,,,high,high,,,,,,false,,,,false,948266.799999997,948266.700000003,942761.756,942958.6000000089,942778.364,948078.343,4,500,,
trial,html.Screen,10_35_0,2023-11-15T18:54:53.265Z,,,,1,-0.0367218428225813,-0.0700576547090477,,true,hh,4622.057000005967,response,0.9455512119785764,0.9333597107851144,-1.0395692158897654,0.9818230031674032,0.8844939857547782,-0.9560379986274683,high,high,,ISIC_7212271.JPG,9,ISIC_0057286.JPG,188,false,hh,keypress(i),0,false,952700.6000000089,952700.400000006,948061.813,948266.799999997,948078.343,952511.679,4,500,36,
break,html.Screen,10_35_1,2023-11-15T18:54:53.265Z,,,,,,,,,,NaN,,,,,,,,high,high,,,,,,false,,,,false,952701.5,952701.400000006,,952700.900000006,,952511.679,4,500,,
break_continue,html.Screen,10_35_2,2023-11-15T18:54:53.266Z,,,,,,,,,,NaN,,,,,,,,high,high,,,,,,false,,,,false,952702.1000000089,952701.900000006,,952701.700000003,,952511.679,4,500,,
sequence,flow.Sequence,10_35,2023-11-15T18:54:53.266Z,,,,,,,,,,4623.557000005967,completion,,,,,,,high,high,,,,,,false,,,,false,952702.299999997,952701.900000006,948061.813,948266.799999997,948078.343,952511.679,4,500,,
trial,html.Screen,10_36_0,2023-11-15T18:54:58.328Z,,,,1,-0.0348234368746005,0.0236866303880924,,false,hh,5252.320999999996,response,0.829888603887684,0.9333597107851144,-1.0395692158897654,0.8001360017471091,0.8844939857547782,-0.9560379986274683,high,high,,ISIC_0011099.JPG,9,ISIC_0012369.JPG,188,false,lh,keypress(e),0,false,957764.299999997,957764,952495.034,952702.5,952511.679,957578.306,4,500,37,
break,html.Screen,10_36_1,2023-11-15T18:54:58.329Z,,,,,,,,,,NaN,,,,,,,,high,high,,,,,,false,,,,false,957765.200000003,957764.900000006,,957764.6000000089,,957578.306,4,500,,
break_continue,html.Screen,10_36_2,2023-11-15T18:54:58.330Z,,,,,,,,,,NaN,,,,,,,,high,high,,,,,,false,,,,false,957765.700000003,957765.6000000089,,957765.299999997,,957578.306,4,500,,
sequence,flow.Sequence,10_36,2023-11-15T18:54:58.330Z,,,,,,,,,,5253.921000008937,completion,,,,,,,high,high,,,,,,false,,,,false,957765.900000006,957765.6000000089,952495.034,952702.400000006,952511.679,957578.306,4,500,,
trial,html.Screen,10_37_0,2023-11-15T18:55:06.024Z,,,,1,0.0509970506474296,0.0744820958440291,,false,lh,7881.094000005978,response,-1.011737552725394,0.9333597107851144,-1.0395692158897654,0.8500530224490773,0.8844939857547782,-0.9560379986274683,low,high,,ISIC_0009975.JPG,8,ISIC_2998367.JPG,31,false,hl,keypress(j),0,false,965459.6000000089,965459.400000006,957561.717,957766.1000000089,957578.306,965278.353,4,500,38,
break,html.Screen,10_37_1,2023-11-15T18:55:06.024Z,,,,,,,,,,NaN,,,,,,,,low,high,,,,,,false,,,,false,965460.5,965460.299999997,,965459.900000006,,965278.353,4,500,,
break_continue,html.Screen,10_37_2,2023-11-15T18:55:06.025Z,,,,,,,,,,NaN,,,,,,,,low,high,,,,,,false,,,,false,965461,965460.900000006,,965460.6000000089,,965278.353,4,500,,
