sender,sender_type,sender_id,timestamp,meta,,age,blockNo,c1,c2,condition,correct,correctResponse,duration,ended_on,f1,f1_high,f1_low,f2,f2_high,f2_low,feature_level1,feature_level2,gender,img_left,img_reveal,img_right,n_target_images,practice,response,response_action,selection_duration,staircase,time_commit,time_end,time_render,time_run,time_show,time_switch,total_blocks,total_trials,trialNo,url
informed_consent,html.Screen,0,2023-11-15T21:51:10.682Z,"{""labjs_version"":""20.2.4"",""labjs_build"":{""flavor"":""development"",""commit"":""f5b4a49f956347addd546a832a3327688c2c0fef""},""location"":""https://labjs.felixhenninger.com/api/labjs_preview/index.html"",""userAgent"":""Mozilla/5.0 (Windows NT 10.0; Win64; x64) AppleWebKit/537.36 (KHTML, like Gecko) Chrome/119.0.0.0 Safari/537.36"",""platform"":""Win32"",""language"":""en-US"",""locale"":""en-US"",""timeZone"":""America/Chicago"",""timezoneOffset"":360,""screen_width"":1920,""screen_height"":1080,""scroll_width"":945,""scroll_height"":918,""window_innerWidth"":945,""window_innerHeight"":966,""devicePixelRatio"":1}",,,,,,,,,7238.85,response,,,,,,,,,,,,,,,consent,click button,,,7817.20000000298,7808.5,552.861,544.4000000059605,569.65,7810.153,,,,{}
Demography form,html.Form,1,2023-11-15T21:51:23.002Z,,,18,,,,,,,12326.74700000596,form submission,,,,,,,,,female,,,,,,,,,,20137,20136.90000000596,7793.61,7817.29999999702,7810.153,20155.809,,,,
Welcome,html.Screen,2,2023-11-15T21:51:42.979Z,,,,,,,"[""asym"",""col""]",,,19956.79100000894,response,,,,,,,,,,,,,,,continue,click button,,,40113.10000000894,40112.60000000894,20139.164,20137.10000000894,20155.809,40125.906,,,,
demo_instructions,html.Screen,3,2023-11-15T21:52:03.083Z,,,,,,,,,,20090.593999999997,response,,,,,,,,,,,,,,,continue,click button,,,60217.29999999702,60216.5,40109.362,40113.29999999702,40125.906,60229.233,,,,
trial,html.Screen,4_0_0,2023-11-15T21:52:13.078Z,,,,0,0.8015753713975186,-1.0067065355978264,,true,lh,9982.16700000596,response,-1.1224745971429997,0.9999999999999998,-0.9999999999999998,0.8423270217438888,0.9999999999999998,-0.9999999999999998,low,high,,ISIC_0002119.JPG,,ISIC_0057032.JPG,24,true,lh,keypress(e),100,false,70211.70000000298,70211.40000000596,60212.634,60217.40000000596,60229.233,70239.37,1,16,1,
sequence,flow.Sequence,4_0,2023-11-15T21:52:13.078Z,,,,,,,,,,9982.16700000596,completion,,,,,,,low,high,,,,,,true,,,,false,70212,70211.40000000596,60212.634,60217.29999999702,60229.233,70239.37,1,16,,
trial,html.Screen,4_1_0,2023-11-15T21:52:17.836Z,,,,0,1.127346631538643,-0.8080854255453543,,true,lh,4730.030000005965,response,-0.8479396253253069,0.9999999999999998,-0.9999999999999998,1.011054319516718,0.9999999999999998,-0.9999999999999998,low,high,,ISIC_0011045.JPG,,ISIC_0063521.JPG,24,true,lh,keypress(e),100,false,74969.60000000894,74969.40000000596,70222.848,70212.10000000894,70239.37,74994.092,1,16,2,
sequence,flow.Sequence,4_1,2023-11-15T21:52:17.836Z,,,,,,,,,,4730.030000005965,completion,,,,,,,low,high,,,,,,true,,,,false,74969.79999999702,74969.40000000596,70222.848,70212.10000000894,70239.37,74994.092,1,16,,
trial,html.Screen,4_2_0,2023-11-15T21:52:22.770Z,,,,0,1.1592423187534993,-1.067128884093211,,true,lh,4909.308000005956,response,-0.9445114955578736,0.9999999999999998,-0.9999999999999998,1.0054210059625863,0.9999999999999998,-0.9999999999999998,low,high,,ISIC_6854940.JPG,,ISIC_0033807.JPG,24,true,lh,keypress(e),100,false,79903.60000000894,79903.40000000596,74977.607,74969.90000000596,74994.092,79932.566,1,16,3,
sequence,flow.Sequence,4_2,2023-11-15T21:52:22.770Z,,,,,,,,,,4909.308000005956,completion,,,,,,,low,high,,,,,,true,,,,false,79903.90000000596,79903.40000000596,74977.607,74969.90000000596,74994.092,79932.566,1,16,,
trial,html.Screen,4_3_0,2023-11-15T21:52:32.232Z,,,,0,0.8087127179888679,-0.8480635840272462,,true,lh,9433.134000002974,response,-0.9087169856594104,0.9999999999999998,-0.9999999999999998,0.8835647084207277,0.9999999999999998,-0.9999999999999998,low,high,,ISIC_3941147.JPG,,ISIC_0000349.JPG,24,true,lh,keypress(e),100,false,89365.79999999702,89365.70000000298,79915.772,79904.10000000894,79932.566,89391.797,1,16,4,
sequence,flow.Sequence,4_3,2023-11-15T21:52:32.232Z,,,,,,,,,,9433.134000002974,completion,,,,,,,low,high,,,,,,true,,,,false,89366,89365.70000000298,79915.772,79904,79932.566,89391.797,1,16,,
trial,html.Screen,4_4_0,2023-11-15T21:52:38.620Z,,,,0,1.0011647073734584,1.090690958018423,,true,ll,6361.502999997014,response,-1.1355178163103097,0.9999999999999998,-0.9999999999999998,-0.866806488363904,0.9999999999999998,-0.9999999999999998,low,low,,ISIC_0021901.JPG,,ISIC_3520750.JPG,111,true,ll,keypress(f),100,false,95753.60000000894,95753.29999999702,89375.118,89366,89391.797,95781.758,1,16,5,
sequence,flow.Sequence,4_4,2023-11-15T21:52:38.620Z,,,,,,,,,,6361.502999997014,completion,,,,,,,low,low,,,,,,true,,,,false,95753.90000000596,95753.29999999702,89375.118,89366,89391.797,95781.758,1,16,,
trial,html.Screen,4_5_0,2023-11-15T21:52:44.721Z,,,,0,0.9464457672695302,0.8245045690591577,,true,ll,6073.142000005959,response,-1.1679182396424097,0.9999999999999998,-0.9999999999999998,-0.8971678181565197,0.9999999999999998,-0.9999999999999998,low,low,,ISIC_0027021.JPG,,ISIC_0025085.JPG,111,true,ll,keypress(f),100,false,101855.10000000894,101854.90000000596,95764.866,95754,95781.758,101870.981,1,16,6,
sequence,flow.Sequence,4_5,2023-11-15T21:52:44.722Z,,,,,,,,,,6073.142000005959,completion,,,,,,,low,low,,,,,,true,,,,false,101855.20000000298,101854.90000000596,95764.866,95754,95781.758,101870.981,1,16,,
trial,html.Screen,4_6_0,2023-11-15T21:52:49.030Z,,,,0,0.9464457672695302,0.8245045690591577,,true,ll,4292.119000008941,response,-0.8285454085852607,0.9999999999999998,-0.9999999999999998,-0.8539676082936701,0.9999999999999998,-0.9999999999999998,low,low,,ISIC_0027021.JPG,,ISIC_2131707.JPG,111,true,ll,keypress(f),100,false,106163.20000000298,106163.10000000894,101854.557,101855.29999999702,101870.981,106192.21,1,16,7,
sequence,flow.Sequence,4_6,2023-11-15T21:52:49.030Z,,,,,,,,,,4292.119000008941,completion,,,,,,,low,low,,,,,,true,,,,false,106163.5,106163.10000000894,101854.557,101855.29999999702,101870.981,106192.21,1,16,,
trial,html.Screen,4_7_0,2023-11-15T21:52:54.297Z,,,,0,0.8588110989287362,0.8116693976180469,,true,ll,5238.690000005954,response,-1.084404366274825,0.9999999999999998,-0.9999999999999998,-0.8428187899450872,0.9999999999999998,-0.9999999999999998,low,low,,ISIC_0066878.JPG,,ISIC_3530422.JPG,111,true,ll,keypress(f),100,false,111431.10000000894,111430.90000000596,106175.358,106163.60000000894,106192.21,111447.458,1,16,8,
sequence,flow.Sequence,4_7,2023-11-15T21:52:54.298Z,,,,,,,,,,5238.690000005954,completion,,,,,,,low,low,,,,,,true,,,,false,111431.40000000596,111430.90000000596,106175.358,106163.5,106192.21,111447.458,1,16,,
trial,html.Screen,4_8_0,2023-11-15T21:53:01.743Z,,,,0,-0.8069562753553525,0.9101764190105358,,true,hl,7428.942000005962,response,0.8181754542205604,0.9999999999999998,-0.9999999999999998,-0.8285141543298179,0.9999999999999998,-0.9999999999999998,high,low,,ISIC_0046596.JPG,,ISIC_3812485.JPG,24,true,hl,keypress(j),100,false,118876.60000000894,118876.40000000596,111430.729,111431.5,111447.458,118904.91,1,16,9,
sequence,flow.Sequence,4_8,2023-11-15T21:53:01.743Z,,,,,,,,,,7428.942000005962,completion,,,,,,,high,low,,,,,,true,,,,false,118876.79999999702,118876.40000000596,111430.729,111431.40000000596,111447.458,118904.91,1,16,,
trial,html.Screen,4_9_0,2023-11-15T21:53:08.323Z,,,,0,-0.8923602890201078,0.8351700666074688,,true,hl,6551.0899999999965,response,0.8181754542205604,0.9999999999999998,-0.9999999999999998,-0.8285141543298179,0.9999999999999998,-0.9999999999999998,high,low,,ISIC_0033103.JPG,,ISIC_3812485.JPG,24,true,hl,keypress(j),100,false,125456.20000000298,125456,118888.308,118876.90000000596,118904.91,125477.955,1,16,10,
sequence,flow.Sequence,4_9,2023-11-15T21:53:08.323Z,,,,,,,,,,6551.0899999999965,completion,,,,,,,high,low,,,,,,true,,,,false,125456.60000000894,125456,118888.308,118876.90000000596,118904.91,125477.955,1,16,,
trial,html.Screen,4_10_0,2023-11-15T21:53:11.305Z,,,,0,-0.9445114955578736,1.0054210059625863,,false,hl,2960.844999997018,response,0.8561946552009824,0.9999999999999998,-0.9999999999999998,-0.9282171889213044,0.9999999999999998,-0.9999999999999998,high,low,,ISIC_0033807.JPG,,ISIC_3065032.JPG,24,true,hh,keypress(i),100,false,128438.90000000596,128438.79999999702,125461.277,125456.79999999702,125477.955,128464.491,1,16,11,
sequence,flow.Sequence,4_10,2023-11-15T21:53:11.305Z,,,,,,,,,,2960.844999997018,completion,,,,,,,high,low,,,,,,true,,,,false,128439.10000000894,128438.79999999702,125461.277,125456.70000000298,125477.955,128464.491,1,16,,
trial,html.Screen,4_11_0,2023-11-15T21:53:15.807Z,,,,0,-1.00615481805876,0.8428903771195875,,true,hl,4475.709000002986,response,0.8015753713975186,0.9999999999999998,-0.9999999999999998,-1.0067065355978264,0.9999999999999998,-0.9999999999999998,high,low,,ISIC_0069970.JPG,,ISIC_0002119.JPG,24,true,hl,keypress(j),100,false,132940.29999999702,132940.20000000298,128447.805,128439.20000000298,128464.491,132968.926,1,16,12,
sequence,flow.Sequence,4_11,2023-11-15T21:53:15.807Z,,,,,,,,,,4475.709000002986,completion,,,,,,,high,low,,,,,,true,,,,false,132940.40000000596,132940.20000000298,128447.805,128439.20000000298,128464.491,132968.926,1,16,,
trial,html.Screen,4_12_0,2023-11-15T21:53:19.234Z,,,,0,-0.8359065169837211,-0.8817320387395534,,true,hh,3398.174000008934,response,0.9693644437173125,0.9999999999999998,-0.9999999999999998,1.114502123877908,0.9999999999999998,-0.9999999999999998,high,high,,ISIC_0319928.JPG,,ISIC_0014795.JPG,154,true,hh,keypress(i),100,false,136367.20000000298,136367.10000000894,132952.316,132940.5,132968.926,136388.849,1,16,13,
sequence,flow.Sequence,4_12,2023-11-15T21:53:19.234Z,,,,,,,,,,3398.174000008934,completion,,,,,,,high,high,,,,,,true,,,,false,136367.5,136367.10000000894,132952.316,132940.5,132968.926,136388.849,1,16,,
trial,html.Screen,4_13_0,2023-11-15T21:53:22.759Z,,,,0,-0.8285454085852607,-0.8539676082936701,,true,hh,3503.4509999970323,response,0.8052466281778704,0.9999999999999998,-0.9999999999999998,0.8895194627589205,0.9999999999999998,-0.9999999999999998,high,high,,ISIC_2131707.JPG,,ISIC_0025814.JPG,154,true,hh,keypress(i),100,false,139892.5,139892.29999999702,136372.188,136367.60000000894,136388.849,139909.284,1,16,14,
sequence,flow.Sequence,4_13,2023-11-15T21:53:22.759Z,,,,,,,,,,3503.4509999970323,completion,,,,,,,high,high,,,,,,true,,,,false,139892.79999999702,139892.29999999702,136372.188,136367.5,136388.849,139909.284,1,16,,
trial,html.Screen,4_14_0,2023-11-15T21:53:26.220Z,,,,0,-1.1916474034036555,-0.9241960109301964,,true,hh,3443.916000002966,response,1.1618928077758934,0.9999999999999998,-0.9999999999999998,0.9630799724002608,0.9999999999999998,-0.9999999999999998,high,high,,ISIC_0000297.JPG,,ISIC_0034076.JPG,154,true,hh,keypress(i),100,false,143353.29999999702,143353.20000000298,139892.38,139892.79999999702,139909.284,143379.298,1,16,15,
sequence,flow.Sequence,4_14,2023-11-15T21:53:26.220Z,,,,,,,,,,3443.916000002966,completion,,,,,,,high,high,,,,,,true,,,,false,143353.5,143353.20000000298,139892.38,139892.79999999702,139909.284,143379.298,1,16,,
trial,html.Screen,4_15_0,2023-11-15T21:53:33.666Z,,,,0,-0.8049748534131217,-0.8804089534894812,,true,hh,7418.50199999701,response,1.1671212908494544,0.9999999999999998,-0.9999999999999998,1.1286681796701683,0.9999999999999998,-0.9999999999999998,high,high,,ISIC_2839431.JPG,,ISIC_0065022.JPG,154,true,hh,keypress(i),100,false,150798,150797.79999999702,143362.736,143353.5,143379.298,150819.966,1,16,16,
sequence,flow.Sequence,4_15,2023-11-15T21:53:33.666Z,,,,,,,,,,7418.50199999701,completion,,,,,,,high,high,,,,,,true,,,,false,150798.10000000894,150797.79999999702,143362.736,143353.5,143379.298,150819.966,1,16,,
demonstration_loop,flow.Loop,4,2023-11-15T21:53:33.666Z,,,,,,,,,,90568.56699999701,completion,,,,,,,,,,,,,,true,,,,false,150798.20000000298,150797.79999999702,60212.634,60217.29999999702,60229.233,150819.966,1,16,,
practice_instructions,html.Screen,5,2023-11-15T21:53:40.653Z,,,,,,,,,,6956.833999997034,response,,,,,,,,,,,,,,,continue,click button,,,157785,157776.79999999702,150803.289,150798.29999999702,150819.966,157793.61,,,,
trial,html.Screen,6_0_0,2023-11-15T21:53:44.709Z,,,,1,-1.0003671514840182,0.8992716557663581,,false,hl,4047.7900000059744,response,0.8407642478899736,0.9999999999999998,-0.9999999999999998,-0.9542322753334054,0.9999999999999998,-0.9999999999999998,high,low,,ISIC_0061749.JPG,,ISIC_9090822.JPG,24,true,hh,keypress(i),0,false,161841.60000000894,161841.40000000596,157777.19,157785.10000000894,157793.61,161864.357,1,40,1,
sequence,flow.Sequence,6_0,2023-11-15T21:53:44.709Z,,,,,,,,,,4047.7900000059744,completion,,,,,,,high,low,,,,,,true,,,,false,161841.79999999702,161841.40000000596,157777.19,157785.10000000894,157793.61,161864.357,1,40,,
trial,html.Screen,6_1_0,2023-11-15T21:53:50.293Z,,,,1,0.8847502213514871,0.9725947392713435,,false,ll,5560.743000008952,response,-0.8626849314423831,0.9999999999999998,-0.9999999999999998,-1.0374085478567705,0.9999999999999998,-0.9999999999999998,low,low,,ISIC_0073044.JPG,,ISIC_0026371.JPG,111,true,hh,keypress(i),0,false,167425.20000000298,167425.10000000894,161847.792,161841.79999999702,161864.357,167436.599,1,40,2,
sequence,flow.Sequence,6_1,2023-11-15T21:53:50.293Z,,,,,,,,,,5560.743000008952,completion,,,,,,,low,low,,,,,,true,,,,false,167425.29999999702,167425.10000000894,161847.792,161841.79999999702,161864.357,167436.599,1,40,,
trial,html.Screen,6_2_0,2023-11-15T21:53:54.422Z,,,,1,1.155796217969438,-1.1646564121743912,,true,lh,4117.200999997032,response,-0.8923602890201078,0.9999999999999998,-0.9999999999999998,0.8351700666074688,0.9999999999999998,-0.9999999999999998,low,high,,ISIC_2685523.JPG,,ISIC_0033103.JPG,24,true,lh,keypress(e),0,false,171553.90000000596,171553.79999999702,167420.053,167425.40000000596,167436.599,171557.408,1,40,3,
sequence,flow.Sequence,6_2,2023-11-15T21:53:54.422Z,,,,,,,,,,4117.200999997032,completion,,,,,,,low,high,,,,,,true,,,,false,171554.20000000298,171553.79999999702,167420.053,167425.40000000596,167436.599,171557.408,1,40,,
trial,html.Screen,6_3_0,2023-11-15T21:53:58.910Z,,,,1,1.0657476601009717,1.166572336354465,,false,ll,4484.891999997024,response,-1.1119564877278971,0.9999999999999998,-0.9999999999999998,-0.9546609075308709,0.9999999999999998,-0.9999999999999998,low,low,,ISIC_0010778.JPG,,ISIC_0056110.JPG,111,true,lh,keypress(e),0,false,176042.5,176042.29999999702,171540.909,171554.29999999702,171557.408,176045.268,1,40,4,
sequence,flow.Sequence,6_3,2023-11-15T21:53:58.910Z,,,,,,,,,,4484.891999997024,completion,,,,,,,low,low,,,,,,true,,,,false,176042.90000000596,176042.29999999702,171540.909,171554.29999999702,171557.408,176045.268,1,40,,
trial,html.Screen,6_4_0,2023-11-15T21:54:02.765Z,,,,1,1.1547137855907486,-1.0185275168641534,,true,lh,3852.231999999989,response,-0.9087169856594104,0.9999999999999998,-0.9999999999999998,0.8835647084207277,0.9999999999999998,-0.9999999999999998,low,high,,ISIC_7604870.JPG,,ISIC_0000349.JPG,24,true,lh,keypress(e),0,false,179897.70000000298,179897.5,176028.646,176043.10000000894,176045.268,179916.947,1,40,5,
sequence,flow.Sequence,6_4,2023-11-15T21:54:02.766Z,,,,,,,,,,3852.231999999989,completion,,,,,,,low,high,,,,,,true,,,,false,179897.90000000596,179897.5,176028.646,176043,176045.268,179916.947,1,40,,
trial,html.Screen,6_5_0,2023-11-15T21:54:05.846Z,,,,1,-0.9857495243999304,-0.8122595198859229,,true,hh,3060.7530000029947,response,0.8970039097647139,0.9999999999999998,-0.9999999999999998,0.9775899280745278,0.9999999999999998,-0.9999999999999998,high,high,,ISIC_5178031.JPG,,ISIC_0024449.JPG,154,true,hh,keypress(i),0,false,182977.90000000596,182977.70000000298,179882.485,179898,179916.947,182985.554,1,40,6,
sequence,flow.Sequence,6_5,2023-11-15T21:54:05.846Z,,,,,,,,,,3060.7530000029947,completion,,,,,,,high,high,,,,,,true,,,,false,182978.20000000298,182977.70000000298,179882.485,179898,179916.947,182985.554,1,40,,
trial,html.Screen,6_6_0,2023-11-15T21:54:09.230Z,,,,1,1.094624209823328,1.0544499428769605,,false,ll,3376.3460000059567,response,-0.8492821768888116,0.9999999999999998,-0.9999999999999998,-1.1667020643738155,0.9999999999999998,-0.9999999999999998,low,low,,ISIC_0055526.JPG,,ISIC_0011256.JPG,111,true,lh,keypress(e),0,false,186362.10000000894,186361.90000000596,182968.922,182978.40000000596,182985.554,186372.248,1,40,7,
sequence,flow.Sequence,6_6,2023-11-15T21:54:09.230Z,,,,,,,,,,3376.3460000059567,completion,,,,,,,low,low,,,,,,true,,,,false,186362.40000000596,186361.90000000596,182968.922,182978.29999999702,182985.554,186372.248,1,40,,
trial,html.Screen,6_7_0,2023-11-15T21:54:13.245Z,,,,1,-1.1224745971429997,0.8423270217438888,,true,hl,4005.0519999970275,response,1.1547137855907486,0.9999999999999998,-0.9999999999999998,-1.0185275168641534,0.9999999999999998,-0.9999999999999998,high,low,,ISIC_0057032.JPG,,ISIC_7604870.JPG,24,true,hl,keypress(j),0,false,190377.5,190377.29999999702,186355.582,186362.5,186372.248,190393.006,1,40,8,
sequence,flow.Sequence,6_7,2023-11-15T21:54:13.245Z,,,,,,,,,,4005.0519999970275,completion,,,,,,,high,low,,,,,,true,,,,false,190377.60000000894,190377.29999999702,186355.582,186362.5,186372.248,190393.006,1,40,,
trial,html.Screen,6_8_0,2023-11-15T21:54:18.557Z,,,,1,1.0053183338862537,1.0383223796934642,,false,ll,5296.094000008947,response,-0.9487751044258608,0.9999999999999998,-0.9999999999999998,-0.9230722071334148,0.9999999999999998,-0.9999999999999998,low,low,,ISIC_0000519.JPG,,ISIC_4568084.JPG,111,true,lh,keypress(e),0,false,195689.29999999702,195689.10000000894,190376.171,190377.70000000298,190393.006,195698.198,1,40,9,
sequence,flow.Sequence,6_8,2023-11-15T21:54:18.557Z,,,,,,,,,,5296.094000008947,completion,,,,,,,low,low,,,,,,true,,,,false,195689.40000000596,195689.10000000894,190376.171,190377.70000000298,190393.006,195698.198,1,40,,
trial,html.Screen,6_9_0,2023-11-15T21:54:22.542Z,,,,1,0.9866439901618108,1.1327283202367815,,false,ll,3975.5020000029763,response,-0.8529242055711017,0.9999999999999998,-0.9999999999999998,-1.0761216763182415,0.9999999999999998,-0.9999999999999998,low,low,,ISIC_0072953.JPG,,ISIC_8169564.JPG,111,true,hl,keypress(j),0,false,199673.90000000596,199673.70000000298,195681.712,195689.5,195698.198,199685.671,1,40,10,
sequence,flow.Sequence,6_9,2023-11-15T21:54:22.542Z,,,,,,,,,,3975.5020000029763,completion,,,,,,,low,low,,,,,,true,,,,false,199674.20000000298,199673.70000000298,195681.712,195689.5,195698.198,199685.671,1,40,,
trial,html.Screen,6_10_0,2023-11-15T21:54:25.358Z,,,,1,0.8407642478899736,-0.9542322753334054,,true,lh,2804.029000002978,response,-0.8591294258188253,0.9999999999999998,-0.9999999999999998,0.870797302150167,0.9999999999999998,-0.9999999999999998,low,high,,ISIC_9090822.JPG,,ISIC_0055841.JPG,24,true,lh,keypress(e),0,false,202489.90000000596,202489.70000000298,199668.858,199674.40000000596,199685.671,202505.286,1,40,11,
sequence,flow.Sequence,6_10,2023-11-15T21:54:25.358Z,,,,,,,,,,2804.029000002978,completion,,,,,,,low,high,,,,,,true,,,,false,202490.20000000298,202489.70000000298,199668.858,199674.40000000596,199685.671,202505.286,1,40,,
trial,html.Screen,6_11_0,2023-11-15T21:54:30.726Z,,,,1,-0.9416900312335138,-0.9485840589720004,,true,hh,5352.013999997027,response,0.8667223452789944,0.9999999999999998,-0.9999999999999998,1.08062537708245,0.9999999999999998,-0.9999999999999998,high,high,,ISIC_2784686.JPG,,ISIC_0070032.JPG,154,true,hh,keypress(i),0,false,207857.5,207857.29999999702,202488.413,202490.29999999702,202505.286,207860.364,1,40,12,
sequence,flow.Sequence,6_11,2023-11-15T21:54:30.726Z,,,,,,,,,,5352.013999997027,completion,,,,,,,high,high,,,,,,true,,,,false,207857.60000000894,207857.29999999702,202488.413,202490.20000000298,202505.286,207860.364,1,40,,
trial,html.Screen,6_12_0,2023-11-15T21:54:35.726Z,,,,1,-0.8070820195894357,0.8958120092147633,,false,hl,4997.435999997018,response,1.0264463986917702,0.9999999999999998,-0.9999999999999998,-1.171271535505083,0.9999999999999998,-0.9999999999999998,high,low,,ISIC_0060585.JPG,,ISIC_7889838.JPG,24,true,hh,keypress(i),0,false,212858,212857.79999999702,207843.639,207857.70000000298,207860.364,212865.401,1,40,13,
sequence,flow.Sequence,6_12,2023-11-15T21:54:35.727Z,,,,,,,,,,4997.435999997018,completion,,,,,,,high,low,,,,,,true,,,,false,212858.40000000596,212857.79999999702,207843.639,207857.70000000298,207860.364,212865.401,1,40,,
trial,html.Screen,6_13_0,2023-11-15T21:54:43.430Z,,,,1,-0.8779374983479176,0.9745548032823428,,true,hl,7695.699000008928,response,0.8087127179888679,0.9999999999999998,-0.9999999999999998,-0.8480635840272462,0.9999999999999998,-0.9999999999999998,high,low,,ISIC_2991354.JPG,,ISIC_3941147.JPG,24,true,hl,keypress(j),0,false,220561.20000000298,220561.10000000894,212848.776,212858.40000000596,212865.401,220573.224,1,40,14,
sequence,flow.Sequence,6_13,2023-11-15T21:54:43.430Z,,,,,,,,,,7695.699000008928,completion,,,,,,,high,low,,,,,,true,,,,false,220561.29999999702,220561.10000000894,212848.776,212858.40000000596,212865.401,220573.224,1,40,,
trial,html.Screen,6_14_0,2023-11-15T21:54:48.726Z,,,,1,0.9453986743399044,1.1220583709928147,,true,ll,5284.276000000013,response,-0.9991910338212396,0.9999999999999998,-0.9999999999999998,-1.0085499824556403,0.9999999999999998,-0.9999999999999998,low,low,,ISIC_0068696.JPG,,ISIC_7795549.JPG,111,true,ll,keypress(f),0,false,225857.70000000298,225857.5,220556.315,220561.40000000596,220573.224,225861.737,1,40,15,
sequence,flow.Sequence,6_14,2023-11-15T21:54:48.726Z,,,,,,,,,,5284.276000000013,completion,,,,,,,low,low,,,,,,true,,,,false,225857.79999999702,225857.5,220556.315,220561.40000000596,220573.224,225861.737,1,40,,
trial,html.Screen,6_15_0,2023-11-15T21:54:53.222Z,,,,1,1.0700930503975157,-0.923753102263735,,true,lh,4491.863000008947,response,-1.1501717278509027,0.9999999999999998,-0.9999999999999998,0.8228936373136835,0.9999999999999998,-0.9999999999999998,low,high,,ISIC_0000022.JPG,,ISIC_8398000.JPG,24,true,lh,keypress(e),0,false,230353.79999999702,230353.60000000894,225845.038,225858,225861.737,230366.36,1,40,16,
sequence,flow.Sequence,6_15,2023-11-15T21:54:53.222Z,,,,,,,,,,4491.863000008947,completion,,,,,,,low,high,,,,,,true,,,,false,230354,230353.60000000894,225845.038,225857.90000000596,225861.737,230366.36,1,40,,
trial,html.Screen,6_16_0,2023-11-15T21:54:57.502Z,,,,1,-1.0437497612294713,-0.93059645456522,,true,hh,4267.240000008955,response,1.078286816527963,0.9999999999999998,-0.9999999999999998,1.1255116193013075,0.9999999999999998,-0.9999999999999998,high,high,,ISIC_0032357.JPG,,ISIC_0066213.JPG,154,true,hh,keypress(i),0,false,234633.79999999702,234633.60000000894,230349.72,230354.20000000298,230366.36,234637.217,1,40,17,
sequence,flow.Sequence,6_16,2023-11-15T21:54:57.502Z,,,,,,,,,,4267.240000008955,completion,,,,,,,high,high,,,,,,true,,,,false,234634.10000000894,234633.60000000894,230349.72,230354.10000000894,230366.36,234637.217,1,40,,
trial,html.Screen,6_17_0,2023-11-15T21:55:00.110Z,,,,1,0.9566823908868002,-0.9602125665128364,,true,lh,2604.1830000059563,response,-0.8923602890201078,0.9999999999999998,-0.9999999999999998,0.8351700666074688,0.9999999999999998,-0.9999999999999998,low,high,,ISIC_0056784.JPG,,ISIC_0033103.JPG,24,true,lh,keypress(e),0,false,237241.5,237241.40000000596,234620.621,234634.20000000298,234637.217,237256.562,1,40,18,
sequence,flow.Sequence,6_17,2023-11-15T21:55:00.110Z,,,,,,,,,,2604.1830000059563,completion,,,,,,,low,high,,,,,,true,,,,false,237241.70000000298,237241.40000000596,234620.621,234634.20000000298,234637.217,237256.562,1,40,,
trial,html.Screen,6_18_0,2023-11-15T21:55:03.838Z,,,,1,-0.8317161304163111,-1.1627560037277045,,true,hh,3712.7379999970144,response,1.1320017221158485,0.9999999999999998,-0.9999999999999998,1.065213496692536,0.9999999999999998,-0.9999999999999998,high,high,,ISIC_5909403.JPG,,ISIC_0030597.JPG,154,true,hh,keypress(i),0,false,240969.40000000596,240969.29999999702,237239.986,237241.90000000596,237256.562,240976.928,1,40,19,
sequence,flow.Sequence,6_18,2023-11-15T21:55:03.838Z,,,,,,,,,,3712.7379999970144,completion,,,,,,,high,high,,,,,,true,,,,false,240969.5,240969.29999999702,237239.986,237241.79999999702,237256.562,240976.928,1,40,,
trial,html.Screen,6_19_0,2023-11-15T21:55:07.558Z,,,,1,-0.8644465729542988,0.8679598285079457,,true,hl,3712.472000005946,response,0.9566823908868002,0.9999999999999998,-0.9999999999999998,-0.9602125665128364,0.9999999999999998,-0.9999999999999998,high,low,,ISIC_6718969.JPG,,ISIC_0056784.JPG,24,true,hl,keypress(j),0,false,244689.5,244689.40000000596,240960.262,240969.60000000894,240976.928,244697.269,1,40,20,
sequence,flow.Sequence,6_19,2023-11-15T21:55:07.558Z,,,,,,,,,,3712.472000005946,completion,,,,,,,high,low,,,,,,true,,,,false,244689.79999999702,244689.40000000596,240960.262,240969.5,240976.928,244697.269,1,40,,
trial,html.Screen,6_20_0,2023-11-15T21:55:12.686Z,,,,1,-1.1119564877278971,-0.9546609075308709,,true,hh,5120.5309999970195,response,1.001509027138033,0.9999999999999998,-0.9999999999999998,0.834356631694593,0.9999999999999998,-0.9999999999999998,high,high,,ISIC_0056110.JPG,,ISIC_8621568.JPG,154,true,hh,keypress(i),0,false,249817.90000000596,249817.79999999702,244680.65,244689.90000000596,244697.269,249836.248,1,40,21,
sequence,flow.Sequence,6_20,2023-11-15T21:55:12.687Z,,,,,,,,,,5120.5309999970195,completion,,,,,,,high,high,,,,,,true,,,,false,249818.20000000298,249817.79999999702,244680.65,244689.79999999702,244697.269,249836.248,1,40,,
trial,html.Screen,6_21_0,2023-11-15T21:55:16.086Z,,,,1,-0.869721192450462,-0.843152880400445,,false,hh,3381.5519999970275,response,0.8970039097647139,0.9999999999999998,-0.9999999999999998,0.9775899280745278,0.9999999999999998,-0.9999999999999998,high,high,,ISIC_0000012.JPG,,ISIC_0024449.JPG,154,true,hl,keypress(j),0,false,253218,253217.79999999702,249802.47,249818.29999999702,249836.248,253222.464,1,40,22,
sequence,flow.Sequence,6_21,2023-11-15T21:55:16.087Z,,,,,,,,,,3381.5519999970275,completion,,,,,,,high,high,,,,,,true,,,,false,253218.20000000298,253217.79999999702,249802.47,249818.29999999702,249836.248,253222.464,1,40,,
trial,html.Screen,6_22_0,2023-11-15T21:55:18.630Z,,,,1,0.9225524349657857,-0.929746784178986,,true,lh,2538.8359999970126,response,-1.064425982109969,0.9999999999999998,-0.9999999999999998,0.958564243697126,0.9999999999999998,-0.9999999999999998,low,high,,ISIC_0011077.JPG,,ISIC_3203344.JPG,24,true,lh,keypress(e),0,false,255761.5,255761.29999999702,253205.853,253218.40000000596,253222.464,255775.027,1,40,23,
sequence,flow.Sequence,6_22,2023-11-15T21:55:18.630Z,,,,,,,,,,2538.8359999970126,completion,,,,,,,low,high,,,,,,true,,,,false,255761.90000000596,255761.29999999702,253205.853,253218.29999999702,253222.464,255775.027,1,40,,
trial,html.Screen,6_23_0,2023-11-15T21:55:21.342Z,,,,1,-0.8923602890201078,0.8351700666074688,,false,hl,2698.472999999998,response,0.9873794329144926,0.9999999999999998,-0.9999999999999998,-0.9500689037516484,0.9999999999999998,-0.9999999999999998,high,low,,ISIC_0033103.JPG,,ISIC_0013498.JPG,24,true,hh,keypress(i),0,false,258473.70000000298,258473.5,255758.476,255762,255775.027,258477.761,1,40,24,
sequence,flow.Sequence,6_23,2023-11-15T21:55:21.342Z,,,,,,,,,,2698.472999999998,completion,,,,,,,high,low,,,,,,true,,,,false,258474,258473.5,255758.476,255762,255775.027,258477.761,1,40,,
trial,html.Screen,6_24_0,2023-11-15T21:55:25.670Z,,,,1,0.8407642478899736,-0.9542322753334054,,true,lh,4324.139000005962,response,-0.9087169856594104,0.9999999999999998,-0.9999999999999998,0.8835647084207277,0.9999999999999998,-0.9999999999999998,low,high,,ISIC_9090822.JPG,,ISIC_0000349.JPG,24,true,lh,keypress(e),0,false,262802.10000000894,262801.90000000596,258461.152,258474.10000000894,258477.761,262815.465,1,40,25,
sequence,flow.Sequence,6_24,2023-11-15T21:55:25.671Z,,,,,,,,,,4324.139000005962,completion,,,,,,,low,high,,,,,,true,,,,false,262802.40000000596,262801.90000000596,258461.152,258474.10000000894,258477.761,262815.465,1,40,,
trial,html.Screen,6_25_0,2023-11-15T21:55:28.798Z,,,,1,-0.8093178584833343,-1.0139833925057518,,true,hh,3113.834999996994,response,0.9263931440503964,0.9999999999999998,-0.9999999999999998,0.96519839238634,0.9999999999999998,-0.9999999999999998,high,high,,ISIC_6171084.JPG,,ISIC_0053617.JPG,154,true,hh,keypress(i),0,false,265929.40000000596,265929.299999997,262798.653,262802.60000000894,262815.465,265935.165,1,40,26,
sequence,flow.Sequence,6_25,2023-11-15T21:55:28.799Z,,,,,,,,,,3113.834999996994,completion,,,,,,,high,high,,,,,,true,,,,false,265929.60000000894,265929.299999997,262798.653,262802.60000000894,262815.465,265935.165,1,40,,
trial,html.Screen,6_26_0,2023-11-15T21:55:34.271Z,,,,1,1.0822170028935367,-1.1654796154432183,,true,lh,5466.435000008962,response,-1.0003671514840182,0.9999999999999998,-0.9999999999999998,0.8992716557663581,0.9999999999999998,-0.9999999999999998,low,high,,ISIC_7288818.JPG,,ISIC_0061749.JPG,24,true,lh,keypress(e),0,false,271401.799999997,271401.60000000894,265918.719,265929.60000000894,265935.165,271407.35,1,40,27,
sequence,flow.Sequence,6_26,2023-11-15T21:55:34.271Z,,,,,,,,,,5466.435000008962,completion,,,,,,,low,high,,,,,,true,,,,false,271402.10000000894,271401.60000000894,265918.719,265929.60000000894,265935.165,271407.35,1,40,,
trial,html.Screen,6_27_0,2023-11-15T21:55:40.151Z,,,,1,-0.9537595754201148,-1.1342661775432377,,false,hh,5874.449999997043,response,0.9009408285331614,0.9999999999999998,-0.9999999999999998,0.8985422901220989,0.9999999999999998,-0.9999999999999998,high,high,,ISIC_0741694.JPG,,ISIC_0033834.JPG,154,true,lh,keypress(e),0,false,277282,277281.799999997,271390.676,271402.299999997,271407.35,277296.621,1,40,28,
sequence,flow.Sequence,6_27,2023-11-15T21:55:40.151Z,,,,,,,,,,5874.449999997043,completion,,,,,,,high,high,,,,,,true,,,,false,277282.40000000596,277281.799999997,271390.676,271402.200000003,271407.35,277296.621,1,40,,
trial,html.Screen,6_28_0,2023-11-15T21:55:44.598Z,,,,1,-0.8479396253253069,1.011054319516718,,false,hl,4432.579000002996,response,1.082730232773217,0.9999999999999998,-0.9999999999999998,-0.8833175387485132,0.9999999999999998,-0.9999999999999998,high,low,,ISIC_0063521.JPG,,ISIC_0011933.JPG,24,true,hh,keypress(i),0,false,281729.299999997,281729.200000003,277279.765,277282.5,277296.621,281734.312,1,40,29,
sequence,flow.Sequence,6_28,2023-11-15T21:55:44.598Z,,,,,,,,,,4432.579000002996,completion,,,,,,,high,low,,,,,,true,,,,false,281729.299999997,281729.200000003,277279.765,277282.5,277296.621,281734.312,1,40,,
trial,html.Screen,6_29_0,2023-11-15T21:55:49.759Z,,,,1,0.8531968652064474,1.0402692470955777,,false,ll,5155.588000005984,response,-0.9191486333136276,0.9999999999999998,-0.9999999999999998,-1.080719641270871,0.9999999999999998,-0.9999999999999998,low,low,,ISIC_0056201.JPG,,ISIC_0663941.JPG,111,true,hl,keypress(j),0,false,286890,286889.90000000596,281717.798,281729.5,281734.312,286906.29,1,40,30,
sequence,flow.Sequence,6_29,2023-11-15T21:55:49.759Z,,,,,,,,,,5155.588000005984,completion,,,,,,,low,low,,,,,,true,,,,false,286890.40000000596,286889.90000000596,281717.798,281729.5,281734.312,286906.29,1,40,,
trial,html.Screen,6_30_0,2023-11-15T21:55:54.399Z,,,,1,1.042408629210669,0.868184396474685,,true,ll,4623.610000005981,response,-0.8682521581029131,0.9999999999999998,-0.9999999999999998,-1.187434999088787,0.9999999999999998,-0.9999999999999998,low,low,,ISIC_0026738.JPG,,ISIC_5772144.JPG,111,true,ll,keypress(f),0,false,291530.10000000894,291529.90000000596,286889.66,286890.40000000596,286906.29,291544.219,1,40,31,
sequence,flow.Sequence,6_30,2023-11-15T21:55:54.399Z,,,,,,,,,,4623.610000005981,completion,,,,,,,low,low,,,,,,true,,,,false,291530.200000003,291529.90000000596,286889.66,286890.40000000596,286906.29,291544.219,1,40,,
trial,html.Screen,6_31_0,2023-11-15T21:55:57.431Z,,,,1,0.9225524349657857,-0.929746784178986,,true,lh,3017.2810000000172,response,-1.1224745971429997,0.9999999999999998,-0.9999999999999998,0.8423270217438888,0.9999999999999998,-0.9999999999999998,low,high,,ISIC_0011077.JPG,,ISIC_0057032.JPG,24,true,lh,keypress(e),0,false,294561.799999997,294561.5,291527.581,291530.40000000596,291544.219,294563.849,1,40,32,
sequence,flow.Sequence,6_31,2023-11-15T21:55:57.431Z,,,,,,,,,,3017.2810000000172,completion,,,,,,,low,high,,,,,,true,,,,false,294562,294561.5,291527.581,291530.299999997,291544.219,294563.849,1,40,,
trial,html.Screen,6_32_0,2023-11-15T21:56:02.791Z,,,,1,0.8620516892494489,-1.1108509340502866,,true,lh,5357.751000008953,response,-0.8152354890677903,0.9999999999999998,-0.9999999999999998,1.10470584815077,0.9999999999999998,-0.9999999999999998,low,high,,ISIC_5557806.JPG,,ISIC_0010283.JPG,24,true,lh,keypress(e),0,false,299921.90000000596,299921.60000000894,294547.355,294562.10000000894,294563.849,299935.952,1,40,33,
sequence,flow.Sequence,6_32,2023-11-15T21:56:02.791Z,,,,,,,,,,5357.751000008953,completion,,,,,,,low,high,,,,,,true,,,,false,299922.10000000894,299921.60000000894,294547.355,294562.10000000894,294563.849,299935.952,1,40,,
trial,html.Screen,6_33_0,2023-11-15T21:56:06.087Z,,,,1,-0.8591294258188253,0.870797302150167,,true,hl,3281.4480000059702,response,1.1547137855907486,0.9999999999999998,-0.9999999999999998,-1.0185275168641534,0.9999999999999998,-0.9999999999999998,high,low,,ISIC_0055841.JPG,,ISIC_7604870.JPG,24,true,hl,keypress(j),0,false,303217.5,303217.40000000596,299919.211,299922.299999997,299935.952,303222.481,1,40,34,
sequence,flow.Sequence,6_33,2023-11-15T21:56:06.087Z,,,,,,,,,,3281.4480000059702,completion,,,,,,,high,low,,,,,,true,,,,false,303217.60000000894,303217.40000000596,299919.211,299922.299999997,299935.952,303222.481,1,40,,
trial,html.Screen,6_34_0,2023-11-15T21:56:12.150Z,,,,1,-1.0375203228848855,-1.0256934713188917,,false,hh,6058.818999996991,response,1.1894639707647994,0.9999999999999998,-0.9999999999999998,0.8576622545513327,0.9999999999999998,-0.9999999999999998,high,high,,ISIC_4264600.JPG,,ISIC_0032858.JPG,154,true,hl,keypress(j),0,false,309281.5,309281.299999997,303205.955,303217.799999997,303222.481,309295.404,1,40,35,
sequence,flow.Sequence,6_34,2023-11-15T21:56:12.151Z,,,,,,,,,,6058.818999996991,completion,,,,,,,high,high,,,,,,true,,,,false,309281.700000003,309281.299999997,303205.955,303217.799999997,303222.481,309295.404,1,40,,
trial,html.Screen,6_35_0,2023-11-15T21:56:14.927Z,,,,1,-1.0003671514840182,0.8992716557663581,,true,hl,2761.99600000598,response,0.9212323139676136,0.9999999999999998,-0.9999999999999998,-0.9882196642247332,0.9999999999999998,-0.9999999999999998,high,low,,ISIC_0061749.JPG,,ISIC_0014255.JPG,24,true,hl,keypress(j),0,false,312057.60000000894,312057.40000000596,309278.593,309281.799999997,309295.404,312064.761,1,40,36,
sequence,flow.Sequence,6_35,2023-11-15T21:56:14.927Z,,,,,,,,,,2761.99600000598,completion,,,,,,,high,low,,,,,,true,,,,false,312057.799999997,312057.40000000596,309278.593,309281.700000003,309295.404,312064.761,1,40,,
trial,html.Screen,6_36_0,2023-11-15T21:56:18.558Z,,,,1,-0.8409658634318444,-0.8422553783328103,,false,hh,3624.538999997021,response,0.8330105500669435,0.9999999999999998,-0.9999999999999998,1.0795444519180726,0.9999999999999998,-0.9999999999999998,high,high,,ISIC_2731621.JPG,,ISIC_0030921.JPG,154,true,hl,keypress(j),0,false,315689.5,315689.299999997,312048.011,312057.90000000596,312064.761,315701.673,1,40,37,
sequence,flow.Sequence,6_36,2023-11-15T21:56:18.559Z,,,,,,,,,,3624.538999997021,completion,,,,,,,high,high,,,,,,true,,,,false,315689.60000000894,315689.299999997,312048.011,312057.90000000596,312064.761,315701.673,1,40,,
trial,html.Screen,6_37_0,2023-11-15T21:56:21.687Z,,,,1,-0.8923602890201078,0.8351700666074688,,true,hl,3115.927000008931,response,1.155796217969438,0.9999999999999998,-0.9999999999999998,-1.1646564121743912,0.9999999999999998,-0.9999999999999998,high,low,,ISIC_0033103.JPG,,ISIC_2685523.JPG,24,true,hl,keypress(j),0,false,318817.799999997,318817.60000000894,315685.158,315689.60000000894,315701.673,318821.476,1,40,38,
sequence,flow.Sequence,6_37,2023-11-15T21:56:21.687Z,,,,,,,,,,3115.927000008931,completion,,,,,,,high,low,,,,,,true,,,,false,318818,318817.60000000894,315685.158,315689.60000000894,315701.673,318821.476,1,40,,
trial,html.Screen,6_38_0,2023-11-15T21:56:25.735Z,,,,1,1.018568530854085,1.1850528225859975,,true,ll,4044.4240000059363,response,-0.8588484491384728,0.9999999999999998,-0.9999999999999998,-0.8025117666663619,0.9999999999999998,-0.9999999999999998,low,low,,ISIC_0057180.JPG,,ISIC_6008974.JPG,111,true,ll,keypress(f),0,false,322866.200000003,322865.90000000596,318804.854,318818.10000000894,318821.476,322875.533,1,40,39,
sequence,flow.Sequence,6_38,2023-11-15T21:56:25.736Z,,,,,,,,,,4044.4240000059363,completion,,,,,,,low,low,,,,,,true,,,,false,322866.5,322865.90000000596,318804.854,318818,318821.476,322875.533,1,40,,
trial,html.Screen,6_39_0,2023-11-15T21:56:29.864Z,,,,1,1.073353722471336,0.9464043043104888,,true,ll,4118.167000002984,response,-0.9112756881807856,0.9999999999999998,-0.9999999999999998,-0.87743267531148,0.9999999999999998,-0.9999999999999998,low,low,,ISIC_0055293.JPG,,ISIC_0000387.JPG,111,true,ll,keypress(f),0,false,326993.90000000596,326993.700000003,322858.777,322866.700000003,322875.533,326996.319,1,40,40,
sequence,flow.Sequence,6_39,2023-11-15T21:56:29.864Z,,,,,,,,,,4118.167000002984,completion,,,,,,,low,low,,,,,,true,,,,false,326994.10000000894,326993.700000003,322858.777,322866.700000003,322875.533,326996.319,1,40,,
practice_loop,flow.Loop,6,2023-11-15T21:56:29.864Z,,,,,,,,,,169200.090000003,completion,,,,,,,,,,,,,,true,,,,false,326994.299999997,326993.700000003,157777.19,157785.10000000894,157793.61,326996.319,1,40,,
stair_instructions,html.Screen,7,2023-11-15T21:56:35.135Z,,,,,,,,,,5268.581000005943,response,,,,,,,,,,,,,,,continue,click button,,,332265.40000000596,332264.90000000596,326979.681,326994.299999997,326996.319,332268.24,,,,
trial,html.Screen,8_0_0,2023-11-15T21:56:45.968Z,,,,2,0.0310298232022856,0.0697438859399019,,true,hh,10829.66000000597,response,0.8627799752848101,0.9999999999999998,-0.9999999999999998,0.9479141048747124,0.9999999999999998,-0.9999999999999998,high,high,,ISIC_0027669.JPG,,ISIC_9615486.JPG,154,false,hh,keypress(i),0,true,343098,343097.90000000596,332251.681,332265.60000000894,332268.24,343129.156,1,40,1,
sequence,flow.Sequence,8_0,2023-11-15T21:56:45.968Z,,,,,,,,,,10829.66000000597,completion,,,,,,,high,high,,,,,,false,,,,true,343098.200000003,343097.90000000596,332251.681,332265.60000000894,332268.24,343129.156,1,40,,
trial,html.Screen,8_1_0,2023-11-15T21:56:53.320Z,,,,2,-0.0597592587797575,,,false,hh,7320.544000002963,response,0.9464457672695302,0.9999999999999998,-0.9999999999999998,0.8245045690591577,0.9999999999999998,-0.9999999999999998,high,high,,ISIC_0071367.JPG,,ISIC_0027021.JPG,154,false,hl,keypress(j),0,true,350449.90000000596,350449.700000003,343112.582,343098.299999997,343129.156,350453.121,1,40,2,
sequence,flow.Sequence,8_1,2023-11-15T21:56:53.320Z,,,,,,,,,,7320.544000002963,completion,,,,,,,high,high,,,,,,false,,,,true,350450.10000000894,350449.700000003,343112.582,343098.200000003,343129.156,350453.121,1,40,,
trial,html.Screen,8_2_0,2023-11-15T21:56:56.864Z,,,,2,0.0702697127166421,0.0314752704888287,,false,hl,3540.779000005976,response,0.8015753713975186,0.8971799360721213,-0.9999999999999998,-1.0067065355978264,1.0499999999999998,-0.9999999999999998,high,low,,ISIC_0033881.JPG,,ISIC_0002119.JPG,35,false,ll,keypress(f),0,true,353994.10000000894,353993.90000000596,350436.55,350450.200000003,350453.121,354006.823,1,40,3,
sequence,flow.Sequence,8_2,2023-11-15T21:56:56.864Z,,,,,,,,,,3540.779000005976,completion,,,,,,,high,low,,,,,,false,,,,true,353994.40000000596,353993.90000000596,350436.55,350450.200000003,350453.121,354006.823,1,40,,
trial,html.Screen,8_3_0,2023-11-15T21:57:00.848Z,,,,2,0.0060934073440827,0.0279108145883031,,false,hl,3970.8770000030054,response,1.0700930503975157,0.9471799360721214,-0.9999999999999998,-0.923753102263735,1.0499999999999998,-0.9999999999999998,high,low,,ISIC_0032604.JPG,,ISIC_0000022.JPG,29,false,ll,keypress(f),0,true,357977.90000000596,357977.700000003,353989.895,353994.5,354006.823,357994.246,1,40,4,
sequence,flow.Sequence,8_3,2023-11-15T21:57:00.848Z,,,,,,,,,,3970.8770000030054,completion,,,,,,,high,low,,,,,,false,,,,true,357978,357977.700000003,353989.895,353994.5,354006.823,357994.246,1,40,,
trial,html.Screen,8_4_0,2023-11-15T21:57:03.400Z,,,,2,-0.0361875505619981,0.0291457404567876,,true,hl,2535.7540000000154,response,0.8087127179888679,0.9971799360721214,-0.9999999999999998,-0.8480635840272462,1.0499999999999998,-0.9152298189307806,high,low,,ISIC_0027480.JPG,,ISIC_3941147.JPG,30,false,hl,keypress(j),0,true,360530.10000000894,360530,357977.329,357978.10000000894,357994.246,360546.545,1,40,5,
sequence,flow.Sequence,8_4,2023-11-15T21:57:03.400Z,,,,,,,,,,2535.7540000000154,completion,,,,,,,high,low,,,,,,false,,,,true,360530.299999997,360530,357977.329,357978.10000000894,357994.246,360546.545,1,40,,
trial,html.Screen,8_5_0,2023-11-15T21:57:06.504Z,,,,2,-0.0199897690678184,-0.0312486875504497,,true,lh,3087.1550000029965,response,-1.0143509683988825,0.9971799360721214,-0.9999999999999998,1.0281980567462463,1.0499999999999998,-0.9152298189307806,low,high,,ISIC_5482426.JPG,,ISIC_0062031.JPG,21,false,lh,keypress(e),0,true,363633.90000000596,363633.700000003,360530.045,360530.40000000596,360546.545,363649.673,1,40,6,
sequence,flow.Sequence,8_5,2023-11-15T21:57:06.504Z,,,,,,,,,,3087.1550000029965,completion,,,,,,,low,high,,,,,,false,,,,true,363634.10000000894,363633.700000003,360530.045,360530.40000000596,360546.545,363649.673,1,40,,
trial,html.Screen,8_6_0,2023-11-15T21:57:10.040Z,,,,2,-0.0380440426394326,-0.0685633753763444,,true,hl,3520.2270000059507,response,0.8561946552009824,0.9971799360721214,-0.9999999999999998,-0.9282171889213044,1.0499999999999998,-0.9152298189307806,high,low,,ISIC_0032680.JPG,,ISIC_3065032.JPG,30,false,hl,keypress(j),0,true,367170,367169.90000000596,363633.081,363634.200000003,363649.673,367186.737,1,40,7,
sequence,flow.Sequence,8_6,2023-11-15T21:57:10.040Z,,,,,,,,,,3520.2270000059507,completion,,,,,,,high,low,,,,,,false,,,,true,367170.299999997,367169.90000000596,363633.081,363634.200000003,363649.673,367186.737,1,40,,
trial,html.Screen,8_7_0,2023-11-15T21:57:13.304Z,,,,2,-0.0367218428225813,0.0026956749740767,,false,hl,3247.1630000059376,response,0.9128554359750156,0.9471799360721214,-0.9999999999999998,-0.739303798149096,1.0499999999999998,-0.8652298189307805,high,low,,ISIC_7212271.JPG,,ISIC_0030985.JPG,43,false,lh,keypress(e),0,true,370434.10000000894,370433.90000000596,367169.793,367170.40000000596,367186.737,370439.772,1,40,8,
sequence,flow.Sequence,8_7,2023-11-15T21:57:13.304Z,,,,,,,,,,3247.1630000059376,completion,,,,,,,high,low,,,,,,false,,,,true,370434.299999997,370433.90000000596,367169.793,367170.40000000596,367186.737,370439.772,1,40,,
trial,html.Screen,8_8_0,2023-11-15T21:57:16.416Z,,,,2,-0.0207120852539861,-0.0589023744433183,,false,hl,3106.3280000089435,response,0.9128554359750156,0.9971799360721214,-0.9999999999999998,-0.739303798149096,1.0499999999999998,-0.9152298189307806,high,low,,ISIC_7973601.JPG,,ISIC_0030985.JPG,30,false,lh,keypress(e),0,true,373546.299999997,373546.10000000894,370423.25,370434.5,370439.772,373559.613,1,40,9,
sequence,flow.Sequence,8_8,2023-11-15T21:57:16.416Z,,,,,,,,,,3106.3280000089435,completion,,,,,,,high,low,,,,,,false,,,,true,373546.60000000894,373546.10000000894,370423.25,370434.40000000596,370439.772,373559.613,1,40,,
trial,html.Screen,8_9_0,2023-11-15T21:57:18.703Z,,,,2,-0.0050319651598106,0.047524453347389,,false,hh,2273.886999999988,response,1.0103956367534752,1.0471799360721215,-0.9999999999999998,0.9950817758087226,1.0499999999999998,-0.9652298189307806,high,high,,ISIC_0027081.JPG,,ISIC_0025267.JPG,133,false,lh,keypress(e),0,true,375833.700000003,375833.5,373542.954,373546.799999997,373559.613,375845.406,1,40,10,
sequence,flow.Sequence,8_9,2023-11-15T21:57:18.704Z,,,,,,,,,,2273.886999999988,completion,,,,,,,high,high,,,,,,false,,,,true,375833.799999997,375833.5,373542.954,373546.700000003,373559.613,375845.406,1,40,,
trial,html.Screen,8_10_0,2023-11-15T21:57:22.679Z,,,,2,0.0057914759495055,-0.018500200317654,,false,hl,3964.0939999999828,response,1.1592423187534993,1.0971799360721215,-0.9999999999999998,-1.067128884093211,0.9616399162774845,-0.9652298189307806,high,low,,ISIC_0058723.JPG,,ISIC_6854940.JPG,23,false,ll,keypress(f),0,true,379809.60000000894,379809.5,375828.676,375833.799999997,375845.406,379815.829,1,40,11,
sequence,flow.Sequence,8_10,2023-11-15T21:57:22.679Z,,,,,,,,,,3964.0939999999828,completion,,,,,,,high,low,,,,,,false,,,,true,379809.700000003,379809.5,375828.676,375833.799999997,375845.406,379815.829,1,40,,
trial,html.Screen,8_11_0,2023-11-15T21:57:25.279Z,,,,2,-0.0658524437333868,0.0334357178485904,,false,ll,2593.670999999973,response,-0.8049748534131217,1.1471799360721215,-0.9999999999999998,-0.8804089534894812,0.9616399162774845,-0.9652298189307806,low,low,,ISIC_8015541.JPG,,ISIC_2839431.JPG,120,false,lh,keypress(e),0,true,382409.60000000894,382409.5,379799.229,379809.799999997,379815.829,382418.667,1,40,12,
sequence,flow.Sequence,8_11,2023-11-15T21:57:25.279Z,,,,,,,,,,2593.670999999973,completion,,,,,,,low,low,,,,,,false,,,,true,382409.700000003,382409.5,379799.229,379809.799999997,379815.829,382418.667,1,40,,
trial,html.Screen,8_12_0,2023-11-15T21:57:28.304Z,,,,2,0.012810673904807,-0.00400964452501,,true,ll,3014.632999997004,response,-0.7601386260190991,1.1471799360721215,-0.8860518687531662,-1.203489364724753,0.9616399162774845,-1.0152298189307807,low,low,,ISIC_0064656.JPG,,ISIC_8170849.JPG,139,false,ll,keypress(f),0,true,385433.40000000596,385433.299999997,382401.937,382409.799999997,382418.667,385438.135,1,40,13,
sequence,flow.Sequence,8_12,2023-11-15T21:57:28.304Z,,,,,,,,,,3014.632999997004,completion,,,,,,,low,low,,,,,,false,,,,true,385433.5,385433.299999997,382401.937,382409.799999997,382418.667,385438.135,1,40,,
trial,html.Screen,8_13_0,2023-11-15T21:57:30.928Z,,,,2,-0.0514357258480358,-0.006520984995476,,false,lh,2619.565000002971,response,-0.7222350000626421,1.1471799360721215,-0.8860518687531662,1.1440026895944202,0.9616399162774845,-1.0152298189307807,low,high,,ISIC_0031386.JPG,,ISIC_0031214.JPG,36,false,hl,keypress(j),0,true,388057.90000000596,388057.700000003,385421.576,385433.60000000894,385438.135,388074.346,1,40,14,
sequence,flow.Sequence,8_13,2023-11-15T21:57:30.929Z,,,,,,,,,,2619.565000002971,completion,,,,,,,low,high,,,,,,false,,,,true,388058.200000003,388057.700000003,385421.576,385433.60000000894,385438.135,388074.346,1,40,,
trial,html.Screen,8_14_0,2023-11-15T21:57:34.713Z,,,,2,0.0377791839943904,-0.0227626648172468,,true,lh,3767.6539999999804,response,-0.7898684912324617,1.1471799360721215,-0.9360518687531663,0.8342581908806269,1.0116399162774845,-1.0152298189307807,low,high,,ISIC_7167479.JPG,,ISIC_0046537.JPG,27,false,lh,keypress(e),0,true,391842.10000000894,391842,388057.536,388058.200000003,388074.346,391844.559,1,40,15,
sequence,flow.Sequence,8_14,2023-11-15T21:57:34.713Z,,,,,,,,,,3767.6539999999804,completion,,,,,,,low,high,,,,,,false,,,,true,391842.40000000596,391842,388057.536,388058.200000003,388074.346,391844.559,1,40,,
trial,html.Screen,8_15_0,2023-11-15T21:57:38.832Z,,,,2,-0.010035581303589,0.0100711721396864,,false,lh,4116.740999997011,response,-0.8644465729542988,1.1471799360721215,-0.9360518687531663,0.8679598285079457,1.0116399162774845,-1.0152298189307807,low,high,,ISIC_0030592.JPG,,ISIC_6718969.JPG,27,false,ll,keypress(f),0,true,395961.5,395961.299999997,391828.032,391842.5,391844.559,395965.331,1,40,16,
sequence,flow.Sequence,8_15,2023-11-15T21:57:38.832Z,,,,,,,,,,4116.740999997011,completion,,,,,,,low,high,,,,,,false,,,,true,395961.5,395961.299999997,391828.032,391842.5,391844.559,395965.331,1,40,,
trial,html.Screen,8_16_0,2023-11-15T21:57:43.648Z,,,,2,0.0158987717472563,0.0292472192292015,,true,ll,4812.269000008935,response,-0.7474027741495143,1.1471799360721215,-0.8860518687531662,-1.0273608829432213,1.0616399162774846,-1.0152298189307807,low,low,,ISIC_1366765.JPG,,ISIC_9303849.JPG,139,false,ll,keypress(f),0,true,400777.799999997,400777.60000000894,395948.708,395961.60000000894,395965.331,400786.861,1,40,17,
sequence,flow.Sequence,8_16,2023-11-15T21:57:43.648Z,,,,,,,,,,4812.269000008935,completion,,,,,,,low,low,,,,,,false,,,,true,400778,400777.60000000894,395948.708,395961.60000000894,395965.331,400786.861,1,40,,
trial,html.Screen,8_17_0,2023-11-15T21:57:46.977Z,,,,2,-0.0514357258480358,-0.006520984995476,,false,ll,3319.9389999970444,response,-0.7115876827647835,1.1471799360721215,-0.8860518687531662,-0.92467239387,1.0616399162774846,-0.8373818285463677,low,low,,ISIC_0031386.JPG,,ISIC_0027600.JPG,198,false,lh,keypress(e),0,true,404107,404106.799999997,400770.208,400778.10000000894,400786.861,404123.665,1,40,18,
sequence,flow.Sequence,8_17,2023-11-15T21:57:46.978Z,,,,,,,,,,3319.9389999970444,completion,,,,,,,low,low,,,,,,false,,,,true,404107.200000003,404106.799999997,400770.208,400778,400786.861,404123.665,1,40,,
trial,html.Screen,8_18_0,2023-11-15T21:57:52.041Z,,,,2,0.0350697500805515,0.0166617848231997,,false,ll,5046.235000005981,response,-0.8049748534131217,1.1471799360721215,-0.6794952284571488,-0.8804089534894812,1.0616399162774846,-0.8873818285463677,low,low,,ISIC_0024423.JPG,,ISIC_2839431.JPG,238,false,lh,keypress(e),0,true,409170.200000003,409169.90000000596,404106.962,404107.40000000596,404123.665,409178.555,1,40,19,
sequence,flow.Sequence,8_18,2023-11-15T21:57:52.041Z,,,,,,,,,,5046.235000005981,completion,,,,,,,low,low,,,,,,false,,,,true,409170.40000000596,409169.90000000596,404106.962,404107.40000000596,404123.665,409178.555,1,40,,
trial,html.Screen,8_19_0,2023-11-15T21:57:56.240Z,,,,2,0.0523524458062335,-0.0048771624512062,,true,lh,4191.345000005967,response,-0.8150886811691144,1.1471799360721215,-0.6794952284571488,0.862416038462147,1.0616399162774846,-0.9373818285463678,low,high,,ISIC_0010379.JPG,,ISIC_0058079.JPG,56,false,lh,keypress(e),0,true,413370,413369.90000000596,409162.055,409170.5,409178.555,413382.811,1,40,20,
sequence,flow.Sequence,8_19,2023-11-15T21:57:56.241Z,,,,,,,,,,4191.345000005967,completion,,,,,,,low,high,,,,,,false,,,,true,413370.299999997,413369.90000000596,409162.055,409170.5,409178.555,413382.811,1,40,,
trial,html.Screen,8_20_0,2023-11-15T21:58:01.209Z,,,,2,0.0742149355137113,0.0423516069066019,,false,hl,4955.389000002993,response,1.1592423187534993,1.0971799360721215,-0.5794952284571487,-1.067128884093211,1.0116399162774845,-0.8873818285463677,high,low,,ISIC_0011483.JPG,,ISIC_6854940.JPG,27,false,ll,keypress(f),0,true,418338.40000000596,418338.200000003,413366.163,413370.40000000596,413382.811,418354.441,1,40,21,
sequence,flow.Sequence,8_20,2023-11-15T21:58:01.209Z,,,,,,,,,,4955.389000002993,completion,,,,,,,high,low,,,,,,false,,,,true,418338.700000003,418338.200000003,413366.163,413370.40000000596,413382.811,418354.441,1,40,,
trial,html.Screen,8_21_0,2023-11-15T21:58:04.113Z,,,,2,-0.0321039635696159,-0.020496766286318,,false,hh,2887.459000005969,response,1.0228768574896494,1.1471799360721215,-0.5794952284571487,0.9413691675751268,1.0116399162774845,-0.8873818285463677,high,high,,ISIC_0058063.JPG,,ISIC_0063492.JPG,116,false,hl,keypress(j),0,true,421242.10000000894,421241.90000000596,418337.836,418338.90000000596,418354.441,421257.521,1,40,22,
sequence,flow.Sequence,8_21,2023-11-15T21:58:04.113Z,,,,,,,,,,2887.459000005969,completion,,,,,,,high,high,,,,,,false,,,,true,421242.40000000596,421241.90000000596,418337.836,418338.799999997,418354.441,421257.521,1,40,,
trial,html.Screen,8_22_0,2023-11-15T21:58:09.752Z,,,,2,-0.0086413421586899,-0.0360184993500958,,true,hl,5624.179000002972,response,1.1972091533125124,1.0971799360721215,-0.5294952284571487,-0.785136546177602,1.0116399162774845,-0.8373818285463677,high,low,,ISIC_0010767.JPG,,ISIC_2124148.JPG,33,false,hl,keypress(j),0,true,426881.90000000596,426881.700000003,421240.835,421242.5,421257.521,426896.38,1,40,23,
sequence,flow.Sequence,8_22,2023-11-15T21:58:09.753Z,,,,,,,,,,5624.179000002972,completion,,,,,,,high,low,,,,,,false,,,,true,426882.10000000894,426881.700000003,421240.835,421242.40000000596,421257.521,426896.38,1,40,,
trial,html.Screen,8_23_0,2023-11-15T21:58:12.033Z,,,,2,-0.0051046740562181,0.0178832721027728,,false,ll,2265.520000005956,response,-0.5998181995035178,1.0471799360721215,-0.5294952284571487,-0.6540251648618647,1.0116399162774845,-0.7873818285463676,low,low,,ISIC_9545819.JPG,,ISIC_9197665.JPG,305,false,hl,keypress(j),0,true,429162.10000000894,429161.90000000596,426879.632,426882.200000003,426896.38,429165.244,1,40,24,
sequence,flow.Sequence,8_23,2023-11-15T21:58:12.033Z,,,,,,,,,,2265.520000005956,completion,,,,,,,low,low,,,,,,false,,,,true,429162.40000000596,429161.90000000596,426879.632,426882.200000003,426896.38,429165.244,1,40,,
trial,html.Screen,8_24_0,2023-11-15T21:58:13.945Z,,,,2,0.0420795830016583,-0.0226772711905177,,false,ll,1908.6560000059544,response,-0.6689204437892962,1.0471799360721215,-0.5794952284571487,-0.6619621949114218,1.0116399162774845,-0.7873818285463676,low,low,,ISIC_0638857.JPG,,ISIC_0013733.JPG,304,false,hl,keypress(j),0,true,431074.200000003,431073.90000000596,429148.551,429162.5,429165.244,431083.906,1,40,25,
sequence,flow.Sequence,8_24,2023-11-15T21:58:13.945Z,,,,,,,,,,1908.6560000059544,completion,,,,,,,low,low,,,,,,false,,,,true,431074.40000000596,431073.90000000596,429148.551,429162.40000000596,429165.244,431083.906,1,40,,
trial,html.Screen,8_25_0,2023-11-15T21:58:17.592Z,,,,2,-0.0367218428225813,0.0026956749740767,,true,hh,3637.8939999970025,response,0.985420189652684,1.0471799360721215,-0.6294952284571488,0.8921028806662099,1.0116399162774845,-0.6079936798866432,high,high,,ISIC_7212271.JPG,,ISIC_0014982.JPG,142,false,hh,keypress(i),0,true,434721.90000000596,434721.799999997,431067.252,431074.5,431083.906,434737.612,1,40,26,
sequence,flow.Sequence,8_25,2023-11-15T21:58:17.593Z,,,,,,,,,,3637.8939999970025,completion,,,,,,,high,high,,,,,,false,,,,true,434722.10000000894,434721.799999997,431067.252,431074.5,431083.906,434737.612,1,40,,
trial,html.Screen,8_26_0,2023-11-15T21:58:23.272Z,,,,2,-0.0327772618698018,0.0056908372048728,,true,hh,5664.187999996997,response,0.9019902492274832,1.0471799360721215,-0.6294952284571488,1.1873288031905294,1.0116399162774845,-0.6079936798866432,high,high,,ISIC_7897925.JPG,,ISIC_0070992.JPG,142,false,hh,keypress(i),0,true,440402.10000000894,440401.799999997,434720.778,434722.200000003,434737.612,440409.839,1,40,27,
sequence,flow.Sequence,8_26,2023-11-15T21:58:23.273Z,,,,,,,,,,5664.187999996997,completion,,,,,,,high,high,,,,,,false,,,,true,440402.40000000596,440401.799999997,434720.778,434722.200000003,434737.612,440409.839,1,40,,
trial,html.Screen,8_27_0,2023-11-15T21:58:28.729Z,,,,2,-0.0380440426394326,-0.0685633753763444,,false,hl,5447.960999997042,response,1.0950865523416786,0.9897158419283696,-0.6294952284571488,-0.599514803251481,0.9897158419283696,-0.6079936798866432,high,low,,ISIC_0032680.JPG,,ISIC_8362891.JPG,68,false,hh,keypress(i),0,true,445858,445857.799999997,440393.111,440402.700000003,440409.839,445865.293,1,40,28,
sequence,flow.Sequence,8_27,2023-11-15T21:58:28.729Z,,,,,,,,,,5447.960999997042,completion,,,,,,,high,low,,,,,,false,,,,true,445858.200000003,445857.799999997,440393.111,440402.60000000894,440409.839,445865.293,1,40,,
trial,html.Screen,8_28_0,2023-11-15T21:58:33.809Z,,,,2,0.0023664502831079,0.0252784582169994,,false,hh,5072.107000005955,response,0.9304005163834584,0.9897158419283696,-0.6294952284571488,0.9903292668457988,0.9897158419283696,-0.6579936798866433,high,high,,ISIC_4156010.JPG,,ISIC_3485482.JPG,161,false,hl,keypress(j),0,true,450937.60000000894,450937.40000000596,445848.559,445858.299999997,445865.293,450953.699,1,40,29,
sequence,flow.Sequence,8_28,2023-11-15T21:58:33.809Z,,,,,,,,,,5072.107000005955,completion,,,,,,,high,high,,,,,,false,,,,true,450937.799999997,450937.40000000596,445848.559,445858.299999997,445865.293,450953.699,1,40,,
trial,html.Screen,8_29_0,2023-11-15T21:58:36.441Z,,,,2,0.040352316356354,0.0039626669358928,,false,ll,2615.8009999999776,response,-0.7729330860069953,0.9627435343625685,-0.6294952284571488,-0.6859504297723743,1.0397158419283696,-0.6579936798866433,low,low,,ISIC_3018550.JPG,,ISIC_6548734.JPG,348,false,lh,keypress(e),0,true,453569.700000003,453569.5,450937.065,450937.799999997,450953.699,453572.982,1,40,30,
sequence,flow.Sequence,8_29,2023-11-15T21:58:36.441Z,,,,,,,,,,2615.8009999999776,completion,,,,,,,low,low,,,,,,false,,,,true,453569.799999997,453569.5,450937.065,450937.799999997,450953.699,453572.982,1,40,,
trial,html.Screen,8_30_0,2023-11-15T21:58:39.297Z,,,,2,-0.0050319651598106,0.047524453347389,,true,lh,2852.3179999970016,response,-0.5631272029785095,0.9627435343625685,-0.6294952284571488,0.8890733751393699,1.0397158419283696,-0.7079936798866433,low,high,,ISIC_0027081.JPG,,ISIC_2714572.JPG,65,false,lh,keypress(e),0,true,456425.40000000596,456425.299999997,453556.539,453569.90000000596,453572.982,456442.544,1,40,31,
sequence,flow.Sequence,8_30,2023-11-15T21:58:39.297Z,,,,,,,,,,2852.3179999970016,completion,,,,,,,low,high,,,,,,false,,,,true,456425.60000000894,456425.299999997,453556.539,453569.90000000596,453572.982,456442.544,1,40,,
trial,html.Screen,8_31_0,2023-11-15T21:58:46.033Z,,,,2,-0.0565575423757561,0.0536115913979284,,false,hh,6719.156000002986,response,0.7992421775390677,0.9627435343625685,-0.5794952284571487,1.1534875859179432,1.0397158419283696,-0.7079936798866433,high,high,,ISIC_0046983.JPG,,ISIC_0010772.JPG,151,false,ll,keypress(f),0,true,463161.799999997,463161.700000003,456409.358,456425.60000000894,456442.544,463165.954,1,40,32,
sequence,flow.Sequence,8_31,2023-11-15T21:58:46.033Z,,,,,,,,,,6719.156000002986,completion,,,,,,,high,high,,,,,,false,,,,true,463162,463161.700000003,456409.358,456425.60000000894,456442.544,463165.954,1,40,,
trial,html.Screen,8_32_0,2023-11-15T21:58:48.393Z,,,,2,-0.0380440426394326,-0.0685633753763444,,false,hh,2355.8459999969928,response,0.8627799752848101,1.0127435343625686,-0.5794952284571487,0.9479141048747124,1.0897158419283697,-0.7079936798866433,high,high,,ISIC_0032680.JPG,,ISIC_9615486.JPG,129,false,hl,keypress(j),0,true,465522.10000000894,465521.799999997,463149.362,463162.10000000894,463165.954,465535.135,1,40,33,
sequence,flow.Sequence,8_32,2023-11-15T21:58:48.393Z,,,,,,,,,,2355.8459999969928,completion,,,,,,,high,high,,,,,,false,,,,true,465522.40000000596,465521.799999997,463149.362,463162.10000000894,463165.954,465535.135,1,40,,
trial,html.Screen,8_33_0,2023-11-15T21:58:50.377Z,,,,2,0.0560021488981517,-0.0058131881595011,,true,lh,1970.6649999970105,response,-0.6449804924073304,1.0127435343625686,-0.5794952284571487,1.3100126783669683,1.1397158419283697,-0.7079936798866433,low,high,,ISIC_0000077.JPG,,ISIC_0060586.JPG,51,false,lh,keypress(e),0,true,467506,467505.799999997,465518.449,465522.5,465535.135,467520.304,1,40,34,
sequence,flow.Sequence,8_33,2023-11-15T21:58:50.377Z,,,,,,,,,,1970.6649999970105,completion,,,,,,,low,high,,,,,,false,,,,true,467506.299999997,467505.799999997,465518.449,465522.5,465535.135,467520.304,1,40,,
trial,html.Screen,8_34_0,2023-11-15T21:58:57.249Z,,,,2,-0.0207120852539861,-0.0589023744433183,,false,lh,6857.695999999996,response,-0.7203854121635694,1.0127435343625686,-0.5794952284571487,0.967180948735857,1.1397158419283697,-0.7079936798866433,low,high,,ISIC_7973601.JPG,,ISIC_0439726.JPG,51,false,hh,keypress(i),0,true,474378.200000003,474378,467503.836,467506.40000000596,467520.304,474393.891,1,40,35,
sequence,flow.Sequence,8_34,2023-11-15T21:58:57.250Z,,,,,,,,,,6857.695999999996,completion,,,,,,,low,high,,,,,,false,,,,true,474378.5,474378,467503.836,467506.40000000596,467520.304,474393.891,1,40,,
trial,html.Screen,8_35_0,2023-11-15T21:58:59.873Z,,,,2,-0.0245246789155119,0.0615355901813596,,false,ll,2608.2090000089374,response,-0.5934203635352386,1.0127435343625686,-0.6294952284571488,-0.6061921837464551,1.0885968135514126,-0.7079936798866433,low,low,,ISIC_0034144.JPG,,ISIC_9175856.JPG,334,false,lh,keypress(e),0,true,477002.299999997,477002.10000000894,474377.171,474378.60000000894,474393.891,477013.2,1,40,36,
sequence,flow.Sequence,8_35,2023-11-15T21:58:59.874Z,,,,,,,,,,2608.2090000089374,completion,,,,,,,low,low,,,,,,false,,,,true,477002.60000000894,477002.10000000894,474377.171,474378.60000000894,474393.891,477013.2,1,40,,
trial,html.Screen,8_36_0,2023-11-15T21:59:04.649Z,,,,2,-0.0321039635696159,-0.020496766286318,,false,lh,4764.500000002969,response,-0.5621075359809959,1.0127435343625686,-0.6294952284571488,1.0406120918946364,1.0885968135514126,-0.7579936798866433,low,high,,ISIC_0058063.JPG,,ISIC_1224329.JPG,57,false,ll,keypress(f),0,true,481777.799999997,481777.700000003,476996.69,477002.700000003,477013.2,481784.588,1,40,37,
sequence,flow.Sequence,8_36,2023-11-15T21:59:04.649Z,,,,,,,,,,4764.500000002969,completion,,,,,,,low,high,,,,,,false,,,,true,481778.10000000894,481777.700000003,476996.69,477002.700000003,477013.2,481784.588,1,40,,
trial,html.Screen,8_37_0,2023-11-15T21:59:10.753Z,,,,2,-0.0191999585302269,0.0745789212985316,,false,lh,6097.412000000011,response,-0.622483341819462,1.0127435343625686,-0.5277639497581172,1.0756568667434558,1.1385968135514126,-0.7579936798866433,low,high,,ISIC_4024062.JPG,,ISIC_0033333.JPG,57,false,ll,keypress(f),0,true,487882.200000003,487882,481767.822,481778.200000003,481784.588,487890.679,1,40,38,
sequence,flow.Sequence,8_37,2023-11-15T21:59:10.753Z,,,,,,,,,,6097.412000000011,completion,,,,,,,low,high,,,,,,false,,,,true,487882.299999997,487882,481767.822,481778.10000000894,481784.588,487890.679,1,40,,
trial,html.Screen,8_38_0,2023-11-15T21:59:16.041Z,,,,2,0.0023664502831079,0.0252784582169994,,false,ll,5279.221000005957,response,-0.5495734677754986,1.0127435343625686,-0.5277639497581172,-0.8107888307699666,1.1885968135514127,-0.7579936798866433,low,low,,ISIC_4156010.JPG,,ISIC_3013468.JPG,326,false,lh,keypress(e),0,true,493170.10000000894,493169.90000000596,487874.155,487882.40000000596,487890.679,493179.322,1,40,39,
sequence,flow.Sequence,8_38,2023-11-15T21:59:16.041Z,,,,,,,,,,5279.221000005957,completion,,,,,,,low,low,,,,,,false,,,,true,493170.299999997,493169.90000000596,487874.155,487882.40000000596,487890.679,493179.322,1,40,,
trial,html.Screen,8_39_0,2023-11-15T21:59:18.257Z,,,,2,0.0395849059583371,-0.049996355475379,,false,hh,2206.6780000000144,response,0.968277930473984,1.0127435343625686,-0.5360284047974803,1.0901346674420178,1.1885968135514127,-0.8079936798866434,high,high,,ISIC_4042619.JPG,,ISIC_0519386.JPG,105,false,lh,keypress(e),0,true,495386.10000000894,495386,493162.703,493170.299999997,493179.322,495398.29,1,40,40,
sequence,flow.Sequence,8_39,2023-11-15T21:59:18.258Z,,,,,,,,,,2206.6780000000144,completion,,,,,,,high,high,,,,,,false,,,,true,495386.5,495386,493162.703,493170.299999997,493179.322,495398.29,1,40,,
stair_loop,flow.Loop,8,2023-11-15T21:59:18.258Z,,,,,,,,,,163117.76,completion,,,,,,,,,,,,,,false,,,,true,495386.60000000894,495386,332251.681,332265.5,332268.24,495398.29,1,40,,
exp_instructions,html.Screen,9,2023-11-15T21:59:58.642Z,,,,,,,,,,40371.31000000896,response,,,,,,,,,,,,,,,continue,keypress(Space),,,535770.299999997,535769.6000000089,495381.764,495386.799999997,495398.29,535789.857,,,,
trial,html.Screen,10_0_0,2023-11-15T22:00:00.818Z,,,,1,0.0534676262527691,0.0384996820289673,,true,lh,2156.14300000004,response,-0.6565704252405165,1.0249935057174917,-0.5871487594042621,0.8842832613168725,1.0621095108563208,-0.7328407170515744,low,high,,ISIC_0030484.JPG,9,ISIC_0029157.JPG,62,false,lh,keypress(e),0,false,537946.200000003,537946,535754.578,535770.6000000089,535789.857,537957.588,4,500,1,
break,html.Screen,10_0_1,2023-11-15T22:00:00.818Z,,,,,,,,,,NaN,,,,,,,,low,high,,,,,,false,,,,false,537946.700000003,537946.5,,537946.299999997,,537957.588,4,500,,
break_continue,html.Screen,10_0_2,2023-11-15T22:00:00.819Z,,,,,,,,,,NaN,,,,,,,,low,high,,,,,,false,,,,false,537947,537946.900000006,,537946.799999997,,537957.588,4,500,,
sequence,flow.Sequence,10_0,2023-11-15T22:00:00.819Z,,,,,,,,,,2157.0430000060005,completion,,,,,,,low,high,,,,,,false,,,,false,537947.200000003,537946.900000006,535754.578,535770.5,535789.857,537957.588,4,500,,
trial,html.Screen,10_1_0,2023-11-15T22:00:05.354Z,,,,1,-0.0597592587797575,,,true,hl,4524.211999997031,response,1.0700930503975157,1.0249935057174917,-0.5871487594042621,-0.923753102263735,1.0621095108563208,-0.7328407170515744,high,low,,ISIC_0071367.JPG,10,ISIC_0000022.JPG,44,false,hl,keypress(j),0,false,542481.900000006,542481.799999997,537940.918,537947.299999997,537957.588,542495.51,4,500,2,
break,html.Screen,10_1_1,2023-11-15T22:00:05.354Z,,,,,,,,,,NaN,,,,,,,,high,low,,,,,,false,,,,false,542482.6000000089,542482.400000006,,542482.200000003,,542495.51,4,500,,
break_continue,html.Screen,10_1_2,2023-11-15T22:00:05.355Z,,,,,,,,,,NaN,,,,,,,,high,low,,,,,,false,,,,false,542483,542482.799999997,,542482.700000003,,542495.51,4,500,,
sequence,flow.Sequence,10_1,2023-11-15T22:00:05.355Z,,,,,,,,,,4525.211999997031,completion,,,,,,,high,low,,,,,,false,,,,false,542483.200000003,542482.799999997,537940.918,537947.299999997,537957.588,542495.51,4,500,,
trial,html.Screen,10_2_0,2023-11-15T22:00:07.289Z,,,,1,0.0458738008498492,0.0084690422621415,,true,lh,1922.190000002971,response,-0.4306210434269008,1.0249935057174917,-0.5871487594042621,1.173287130729609,1.0621095108563208,-0.7328407170515744,low,high,,ISIC_4026019.JPG,9,ISIC_0027620.JPG,62,false,lh,keypress(e),0,false,544417.900000006,544417.700000003,542478.685,542483.200000003,542495.51,544430.816,4,500,3,
break,html.Screen,10_2_1,2023-11-15T22:00:07.290Z,,,,,,,,,,NaN,,,,,,,,low,high,,,,,,false,,,,false,544418.299999997,544418.200000003,,544418,,544430.816,4,500,,
break_continue,html.Screen,10_2_2,2023-11-15T22:00:07.290Z,,,,,,,,,,NaN,,,,,,,,low,high,,,,,,false,,,,false,544418.6000000089,544418.6000000089,,544418.5,,544430.816,4,500,,
sequence,flow.Sequence,10_2,2023-11-15T22:00:07.290Z,,,,,,,,,,1923.0900000089314,completion,,,,,,,low,high,,,,,,false,,,,false,544418.799999997,544418.6000000089,542478.685,542483.200000003,542495.51,544430.816,4,500,,
trial,html.Screen,10_3_0,2023-11-15T22:00:09.425Z,,,,1,-0.0729466326865927,0.0055109446314237,,true,hl,2122.8840000029886,response,0.9991831965778788,1.0249935057174917,-0.5871487594042621,-0.650584166220151,1.0621095108563208,-0.7328407170515744,high,low,,ISIC_0032597.JPG,9,ISIC_0248628.JPG,44,false,hl,keypress(j),0,false,546553.799999997,546553.700000003,544414.163,544418.900000006,544430.816,546566.31,4,500,4,
break,html.Screen,10_3_1,2023-11-15T22:00:09.426Z,,,,,,,,,,NaN,,,,,,,,high,low,,,,,,false,,,,false,546554.299999997,546554.200000003,,546554,,546566.31,4,500,,
break_continue,html.Screen,10_3_2,2023-11-15T22:00:09.426Z,,,,,,,,,,NaN,,,,,,,,high,low,,,,,,false,,,,false,546554.700000003,546554.6000000089,,546554.5,,546566.31,4,500,,
sequence,flow.Sequence,10_3,2023-11-15T22:00:09.426Z,,,,,,,,,,2123.784000008949,completion,,,,,,,high,low,,,,,,false,,,,false,546554.799999997,546554.6000000089,544414.163,544418.900000006,544430.816,546566.31,4,500,,
trial,html.Screen,10_4_0,2023-11-15T22:00:13.002Z,,,,1,0.0668201703083464,-0.0222223530621927,,false,hh,3563.5900000059046,response,0.8847502213514871,1.0249935057174917,-0.5871487594042621,0.9725947392713435,1.0621095108563208,-0.7328407170515744,high,high,,ISIC_8321148.JPG,9,ISIC_0073044.JPG,131,false,hl,keypress(j),0,false,550130,550129.900000006,546549.408,546555,546566.31,550136.34,4,500,5,
break,html.Screen,10_4_1,2023-11-15T22:00:13.002Z,,,,,,,,,,NaN,,,,,,,,high,high,,,,,,false,,,,false,550130.799999997,550130.5,,550130.299999997,,550136.34,4,500,,
break_continue,html.Screen,10_4_2,2023-11-15T22:00:13.003Z,,,,,,,,,,NaN,,,,,,,,high,high,,,,,,false,,,,false,550131.200000003,550131.1000000089,,550130.900000006,,550136.34,4,500,,
sequence,flow.Sequence,10_4,2023-11-15T22:00:13.003Z,,,,,,,,,,3564.790000008885,completion,,,,,,,high,high,,,,,,false,,,,false,550131.299999997,550131.1000000089,546549.408,546554.900000006,546566.31,550136.34,4,500,,
trial,html.Screen,10_5_0,2023-11-15T22:00:15.360Z,,,,1,-0.0327772618698018,0.0056908372048728,,false,lh,2351.560000005993,response,-0.6183191485028506,1.0249935057174917,-0.5871487594042621,1.1926950873633173,1.0621095108563208,-0.7328407170515744,low,high,,ISIC_7897925.JPG,9,ISIC_0025382.JPG,62,false,hl,keypress(j),0,false,552488.1000000089,552487.900000006,550119.675,550131.5,550136.34,552505.387,4,500,6,
break,html.Screen,10_5_1,2023-11-15T22:00:15.360Z,,,,,,,,,,NaN,,,,,,,,low,high,,,,,,false,,,,false,552488.6000000089,552488.5,,552488.200000003,,552505.387,4,500,,
break_continue,html.Screen,10_5_2,2023-11-15T22:00:15.361Z,,,,,,,,,,NaN,,,,,,,,low,high,,,,,,false,,,,false,552488.900000006,552488.900000006,,552488.700000003,,552505.387,4,500,,
sequence,flow.Sequence,10_5,2023-11-15T22:00:15.361Z,,,,,,,,,,2352.560000005993,completion,,,,,,,low,high,,,,,,false,,,,false,552489.1000000089,552488.900000006,550119.675,550131.400000006,550136.34,552505.387,4,500,,
trial,html.Screen,10_6_0,2023-11-15T22:00:19.730Z,,,,1,0.0071892445601978,-0.0246015408628738,,true,ll,4352.912999997032,response,-0.5807831084534488,1.0249935057174917,-0.5871487594042621,-0.6458078806198705,1.0621095108563208,-0.7328407170515744,low,low,,ISIC_0014133.JPG,10,ISIC_0010861.JPG,335,false,ll,keypress(f),0,false,556858.5,556858.299999997,552488.711,552489.200000003,552505.387,556877.259,4,500,7,
break,html.Screen,10_6_1,2023-11-15T22:00:19.731Z,,,,,,,,,,NaN,,,,,,,,low,low,,,,,,false,,,,false,556859.200000003,556859.1000000089,,556858.700000003,,556877.259,4,500,,
break_continue,html.Screen,10_6_2,2023-11-15T22:00:19.731Z,,,,,,,,,,NaN,,,,,,,,low,low,,,,,,false,,,,false,556859.6000000089,556859.5,,556859.299999997,,556877.259,4,500,,
sequence,flow.Sequence,10_6,2023-11-15T22:00:19.731Z,,,,,,,,,,4354.113000000012,completion,,,,,,,low,low,,,,,,false,,,,false,556859.799999997,556859.5,552488.711,552489.200000003,552505.387,556877.259,4,500,,
trial,html.Screen,10_7_0,2023-11-15T22:00:23.146Z,,,,1,0.012810673904807,-0.00400964452501,,false,hl,3396.741000000038,response,0.984616508684894,1.0249935057174917,-0.5871487594042621,-0.5817253158337757,1.0621095108563208,-0.7328407170515744,high,low,,ISIC_0064656.JPG,9,ISIC_0055143.JPG,44,false,hh,keypress(i),0,false,560274.299999997,560274,556843.163,556859.799999997,556877.259,560279.792,4,500,8,
break,html.Screen,10_7_1,2023-11-15T22:00:23.147Z,,,,,,,,,,NaN,,,,,,,,high,low,,,,,,false,,,,false,560274.900000006,560274.799999997,,560274.5,,560279.792,4,500,,
break_continue,html.Screen,10_7_2,2023-11-15T22:00:23.147Z,,,,,,,,,,NaN,,,,,,,,high,low,,,,,,false,,,,false,560275.400000006,560275.200000003,,560275.1000000089,,560279.792,4,500,,
sequence,flow.Sequence,10_7,2023-11-15T22:00:23.147Z,,,,,,,,,,3397.9410000030184,completion,,,,,,,high,low,,,,,,false,,,,false,560275.5,560275.200000003,556843.163,556859.799999997,556877.259,560279.792,4,500,,
trial,html.Screen,10_8_0,2023-11-15T22:00:28.938Z,,,,1,0.0458738008498492,0.0084690422621415,,true,hh,5785.908000002964,response,0.892888705264033,1.0249935057174917,-0.5871487594042621,1.1616901486941038,1.0621095108563208,-0.7328407170515744,high,high,,ISIC_4026019.JPG,10,ISIC_0066101.JPG,131,false,hh,keypress(i),0,false,566065.900000006,566065.700000003,560263.365,560275.700000003,560279.792,566068.941,4,500,9,
break,html.Screen,10_8_1,2023-11-15T22:00:28.938Z,,,,,,,,,,NaN,,,,,,,,high,high,,,,,,false,,,,false,566066.5,566066.299999997,,566066.200000003,,566068.941,4,500,,
break_continue,html.Screen,10_8_2,2023-11-15T22:00:28.938Z,,,,,,,,,,NaN,,,,,,,,high,high,,,,,,false,,,,false,566066.799999997,566066.799999997,,566066.6000000089,,566068.941,4,500,,
sequence,flow.Sequence,10_8,2023-11-15T22:00:28.939Z,,,,,,,,,,5787.007999997004,completion,,,,,,,high,high,,,,,,false,,,,false,566066.900000006,566066.799999997,560263.365,560275.6000000089,560279.792,566068.941,4,500,,
trial,html.Screen,10_9_0,2023-11-15T22:00:32.170Z,,,,1,0.0023664502831079,0.0252784582169994,,true,lh,3228.858999997028,response,-0.7133243033950115,1.0249935057174917,-0.5871487594042621,1.0307816252475666,1.0621095108563208,-0.7328407170515744,low,high,,ISIC_4156010.JPG,10,ISIC_1369273.JPG,62,false,lh,keypress(e),0,false,569297.900000006,569297.799999997,566052.443,566067,566068.941,569305.53,4,500,10,
break,html.Screen,10_9_1,2023-11-15T22:00:32.170Z,,,,,,,,,,NaN,,,,,,,,low,high,,,,,,false,,,,false,569298.299999997,569298.200000003,,569298,,569305.53,4,500,,
break_continue,html.Screen,10_9_2,2023-11-15T22:00:32.170Z,,,,,,,,,,NaN,,,,,,,,low,high,,,,,,false,,,,false,569298.5,569298.400000006,,569298.299999997,,569305.53,4,500,,
sequence,flow.Sequence,10_9,2023-11-15T22:00:32.170Z,,,,,,,,,,3229.459000005969,completion,,,,,,,low,high,,,,,,false,,,,false,569298.6000000089,569298.400000006,566052.443,566067,566068.941,569305.53,4,500,,
trial,html.Screen,10_10_0,2023-11-15T22:00:36.562Z,,,,1,-0.0277178575053843,-0.0645068093068572,,false,hl,4384.469999999972,response,1.1682648288591504,1.0249935057174917,-0.5871487594042621,-0.7749773174967559,1.0621095108563208,-0.7328407170515744,high,low,,ISIC_0010807.JPG,8,ISIC_3936223.JPG,44,false,hh,keypress(i),0,false,573690.299999997,573690,569288.997,569298.700000003,569305.53,573693.246,4,500,11,
break,html.Screen,10_10_1,2023-11-15T22:00:36.563Z,,,,,,,,,,NaN,,,,,,,,high,low,,,,,,false,,,,false,573690.900000006,573690.700000003,,573690.5,,573693.246,4,500,,
break_continue,html.Screen,10_10_2,2023-11-15T22:00:36.563Z,,,,,,,,,,NaN,,,,,,,,high,low,,,,,,false,,,,false,573691.400000006,573691.200000003,,573691.1000000089,,573693.246,4,500,,
sequence,flow.Sequence,10_10,2023-11-15T22:00:36.563Z,,,,,,,,,,4385.670000002952,completion,,,,,,,high,low,,,,,,false,,,,false,573691.5,573691.200000003,569288.997,569298.6000000089,569305.53,573693.246,4,500,,
trial,html.Screen,10_11_0,2023-11-15T22:00:40.234Z,,,,1,-0.0733425953790377,0.0558194585272655,,false,lh,3669.053999996977,response,-0.5583789461536446,1.0249935057174917,-0.5871487594042621,1.2172588898407466,1.0621095108563208,-0.7328407170515744,low,high,,ISIC_0026756.JPG,8,ISIC_0011801.JPG,62,false,hh,keypress(i),0,false,577362.5,577362.299999997,573676.662,573691.6000000089,573693.246,577381.272,4,500,12,
break,html.Screen,10_11_1,2023-11-15T22:00:40.235Z,,,,,,,,,,NaN,,,,,,,,low,high,,,,,,false,,,,false,577363.200000003,577363.1000000089,,577362.799999997,,577381.272,4,500,,
break_continue,html.Screen,10_11_2,2023-11-15T22:00:40.235Z,,,,,,,,,,NaN,,,,,,,,low,high,,,,,,false,,,,false,577363.6000000089,577363.5,,577363.299999997,,577381.272,4,500,,
sequence,flow.Sequence,10_11,2023-11-15T22:00:40.235Z,,,,,,,,,,3670.253999999957,completion,,,,,,,low,high,,,,,,false,,,,false,577363.700000003,577363.5,573676.662,573691.6000000089,573693.246,577381.272,4,500,,
trial,html.Screen,10_12_0,2023-11-15T22:00:43.106Z,,,,1,-0.0327772618698018,0.0056908372048728,,false,hh,2853.1280000059633,response,1.1671212908494544,1.0249935057174917,-0.5871487594042621,1.1286681796701683,1.0621095108563208,-0.7328407170515744,high,high,,ISIC_7897925.JPG,9,ISIC_0065022.JPG,131,false,hl,keypress(j),0,false,580234.6000000089,580234.400000006,577347.005,577363.799999997,577381.272,580249.952,4,500,13,
break,html.Screen,10_12_1,2023-11-15T22:00:43.107Z,,,,,,,,,,NaN,,,,,,,,high,high,,,,,,false,,,,false,580235.400000006,580235.200000003,,580234.900000006,,580249.952,4,500,,
break_continue,html.Screen,10_12_2,2023-11-15T22:00:43.107Z,,,,,,,,,,NaN,,,,,,,,high,high,,,,,,false,,,,false,580235.700000003,580235.6000000089,,580235.400000006,,580249.952,4,500,,
sequence,flow.Sequence,10_12,2023-11-15T22:00:43.108Z,,,,,,,,,,2854.3280000089435,completion,,,,,,,high,high,,,,,,false,,,,false,580235.900000006,580235.6000000089,577347.005,577363.799999997,577381.272,580249.952,4,500,,
trial,html.Screen,10_13_0,2023-11-15T22:00:46.377Z,,,,1,-0.0500182837729639,0.0231316228640781,,true,hl,3255.5479999999516,response,0.8946880006769797,1.0249935057174917,-0.5871487594042621,-0.7754915110667046,1.0621095108563208,-0.7328407170515744,high,low,,ISIC_2246150.JPG,9,ISIC_7840728.JPG,44,false,hl,keypress(j),0,false,583505.6000000089,583505.5,580233.092,580236.1000000089,580249.952,583519.714,4,500,14,
break,html.Screen,10_13_1,2023-11-15T22:00:46.378Z,,,,,,,,,,NaN,,,,,,,,high,low,,,,,,false,,,,false,583506,583505.900000006,,583505.700000003,,583519.714,4,500,,
break_continue,html.Screen,10_13_2,2023-11-15T22:00:46.378Z,,,,,,,,,,NaN,,,,,,,,high,low,,,,,,false,,,,false,583506.1000000089,583506.1000000089,,583506,,583519.714,4,500,,
sequence,flow.Sequence,10_13,2023-11-15T22:00:46.378Z,,,,,,,,,,3256.1480000088923,completion,,,,,,,high,low,,,,,,false,,,,false,583506.200000003,583506.1000000089,580233.092,580236.1000000089,580249.952,583519.714,4,500,,
trial,html.Screen,10_14_0,2023-11-15T22:00:49.738Z,,,,1,-0.0386453938786174,-0.0465908665241285,,false,hl,3346.486000002944,response,1.2155543056102651,1.0249935057174917,-0.5871487594042621,-0.6130988099315797,1.0621095108563208,-0.7328407170515744,high,low,,ISIC_1698119.JPG,8,ISIC_0011686.JPG,44,false,hh,keypress(i),0,false,586866.5,586866.200000003,583503.276,583506.200000003,583519.714,586873.087,4,500,15,
break,html.Screen,10_14_1,2023-11-15T22:00:49.739Z,,,,,,,,,,NaN,,,,,,,,high,low,,,,,,false,,,,false,586867.200000003,586867.1000000089,,586866.700000003,,586873.087,4,500,,
break_continue,html.Screen,10_14_2,2023-11-15T22:00:49.739Z,,,,,,,,,,NaN,,,,,,,,high,low,,,,,,false,,,,false,586867.700000003,586867.6000000089,,586867.400000006,,586873.087,4,500,,
sequence,flow.Sequence,10_14,2023-11-15T22:00:49.740Z,,,,,,,,,,3347.8860000089044,completion,,,,,,,high,low,,,,,,false,,,,false,586867.799999997,586867.6000000089,583503.276,583506.200000003,583519.714,586873.087,4,500,,
trial,html.Screen,10_15_0,2023-11-15T22:00:54.409Z,,,,1,-0.0733425953790377,0.0558194585272655,,true,hh,4664.712999996962,response,0.934130994804294,1.0249935057174917,-0.5871487594042621,1.110086733022912,1.0621095108563208,-0.7328407170515744,high,high,,ISIC_0026756.JPG,9,ISIC_0053916.JPG,131,false,hh,keypress(i),0,false,591537.900000006,591537.799999997,586856.612,586868,586873.087,591544.501,4,500,16,
break,html.Screen,10_15_1,2023-11-15T22:00:54.410Z,,,,,,,,,,NaN,,,,,,,,high,high,,,,,,false,,,,false,591538.200000003,591538.200000003,,591538,,591544.501,4,500,,
break_continue,html.Screen,10_15_2,2023-11-15T22:00:54.410Z,,,,,,,,,,NaN,,,,,,,,high,high,,,,,,false,,,,false,591538.400000006,591538.400000006,,591538.299999997,,591544.501,4,500,,
sequence,flow.Sequence,10_15,2023-11-15T22:00:54.410Z,,,,,,,,,,4665.313000005903,completion,,,,,,,high,high,,,,,,false,,,,false,591538.5,591538.400000006,586856.612,586868,586873.087,591544.501,4,500,,
trial,html.Screen,10_16_0,2023-11-15T22:00:58.066Z,,,,1,0.0077673378094614,0.0021810768579373,,true,hl,3649.399000005913,response,1.1678457300774685,1.0249935057174917,-0.5871487594042621,-0.6240446333345846,1.0621095108563208,-0.7328407170515744,high,low,,ISIC_0067621.JPG,9,ISIC_5282642.JPG,44,false,hl,keypress(j),0,false,595194,595193.900000006,591527.893,591538.5,591544.501,595198.126,4,500,17,
break,html.Screen,10_16_1,2023-11-15T22:00:58.066Z,,,,,,,,,,NaN,,,,,,,,high,low,,,,,,false,,,,false,595194.6000000089,595194.5,,595194.299999997,,595198.126,4,500,,
break_continue,html.Screen,10_16_2,2023-11-15T22:00:58.067Z,,,,,,,,,,NaN,,,,,,,,high,low,,,,,,false,,,,false,595195,595194.900000006,,595194.799999997,,595198.126,4,500,,
sequence,flow.Sequence,10_16,2023-11-15T22:00:58.067Z,,,,,,,,,,3650.399000005913,completion,,,,,,,high,low,,,,,,false,,,,false,595195.1000000089,595194.900000006,591527.893,591538.5,591544.501,595198.126,4,500,,
trial,html.Screen,10_17_0,2023-11-15T22:01:01.523Z,,,,1,0.0702697127166421,0.0314752704888287,,false,hh,3451.474000008893,response,0.9858885614273278,1.0249935057174917,-0.5871487594042621,1.050716657084935,1.0621095108563208,-0.7328407170515744,high,high,,ISIC_0033881.JPG,10,ISIC_0055498.JPG,131,false,lh,keypress(e),0,false,598649.799999997,598649.6000000089,595181.419,595195.200000003,595198.126,598651.558,4,500,18,
break,html.Screen,10_17_1,2023-11-15T22:01:01.523Z,,,,,,,,,,NaN,,,,,,,,high,high,,,,,,false,,,,false,598650.1000000089,598650.1000000089,,598649.900000006,,598651.558,4,500,,
break_continue,html.Screen,10_17_2,2023-11-15T22:01:01.523Z,,,,,,,,,,NaN,,,,,,,,high,high,,,,,,false,,,,false,598650.200000003,598650.200000003,,598650.1000000089,,598651.558,4,500,,
sequence,flow.Sequence,10_17,2023-11-15T22:01:01.523Z,,,,,,,,,,3452.0740000029327,completion,,,,,,,high,high,,,,,,false,,,,false,598650.299999997,598650.200000003,595181.419,595195.200000003,595198.126,598651.558,4,500,,
trial,html.Screen,10_18_0,2023-11-15T22:01:04.139Z,,,,1,-0.0051046740562181,0.0178832721027728,,true,lh,2614.1420000030193,response,-0.6471966699150622,1.0249935057174917,-0.5871487594042621,1.255267780694846,1.0621095108563208,-0.7328407170515744,low,high,,ISIC_9545819.JPG,9,ISIC_0029000.JPG,62,false,lh,keypress(e),0,false,601265.900000006,601265.700000003,598635.067,598650.400000006,598651.558,601270.828,4,500,19,
break,html.Screen,10_18_1,2023-11-15T22:01:04.139Z,,,,,,,,,,NaN,,,,,,,,low,high,,,,,,false,,,,false,601266.299999997,601266.200000003,,601266,,601270.828,4,500,,
break_continue,html.Screen,10_18_2,2023-11-15T22:01:04.139Z,,,,,,,,,,NaN,,,,,,,,low,high,,,,,,false,,,,false,601266.5,601266.5,,601266.299999997,,601270.828,4,500,,
sequence,flow.Sequence,10_18,2023-11-15T22:01:04.139Z,,,,,,,,,,2614.942000000039,completion,,,,,,,low,high,,,,,,false,,,,false,601266.700000003,601266.5,598635.067,598650.400000006,598651.558,601270.828,4,500,,
trial,html.Screen,10_19_0,2023-11-15T22:01:08.579Z,,,,1,-0.0686816131231518,0.0045217849100701,,false,hl,4435.47199999704,response,0.9254898763900528,1.0249935057174917,-0.5871487594042621,-0.6729642430400987,1.0621095108563208,-0.7328407170515744,high,low,,ISIC_5707761.JPG,8,ISIC_0862745.JPG,44,false,hh,keypress(i),0,false,605706.5,605706.299999997,601254.401,601266.700000003,601270.828,605708.67,4,500,20,
break,html.Screen,10_19_1,2023-11-15T22:01:08.580Z,,,,,,,,,,NaN,,,,,,,,high,low,,,,,,false,,,,false,605707,605707,,605706.700000003,,605708.67,4,500,,
break_continue,html.Screen,10_19_2,2023-11-15T22:01:08.580Z,,,,,,,,,,NaN,,,,,,,,high,low,,,,,,false,,,,false,605707.5,605707.299999997,,605707.200000003,,605708.67,4,500,,
sequence,flow.Sequence,10_19,2023-11-15T22:01:08.580Z,,,,,,,,,,4436.47199999704,completion,,,,,,,high,low,,,,,,false,,,,false,605707.6000000089,605707.299999997,601254.401,601266.700000003,601270.828,605708.67,4,500,,
trial,html.Screen,10_20_0,2023-11-15T22:01:11.995Z,,,,1,0.0023664502831079,0.0252784582169994,,false,hl,3413.329999999958,response,1.1682648288591504,1.0249935057174917,-0.5871487594042621,-0.7749773174967559,1.0621095108563208,-0.7328407170515744,high,low,,ISIC_4156010.JPG,8,ISIC_3936223.JPG,44,false,hh,keypress(i),0,false,609122.299999997,609122,605692.169,605707.799999997,605708.67,609128.746,4,500,21,
break,html.Screen,10_20_1,2023-11-15T22:01:11.996Z,,,,,,,,,,NaN,,,,,,,,high,low,,,,,,false,,,,false,609122.900000006,609122.700000003,,609122.5,,609128.746,4,500,,
break_continue,html.Screen,10_20_2,2023-11-15T22:01:11.996Z,,,,,,,,,,NaN,,,,,,,,high,low,,,,,,false,,,,false,609123.299999997,609123.200000003,,609123,,609128.746,4,500,,
sequence,flow.Sequence,10_20,2023-11-15T22:01:11.996Z,,,,,,,,,,3414.5300000029383,completion,,,,,,,high,low,,,,,,false,,,,false,609123.5,609123.200000003,605692.169,605707.700000003,605708.67,609128.746,4,500,,
trial,html.Screen,10_21_0,2023-11-15T22:01:14.707Z,,,,1,-0.0658524437333868,0.0334357178485904,,true,lh,2704.9540000029374,response,-0.586092307527928,1.0249935057174917,-0.5871487594042621,0.9367637732363708,1.0621095108563208,-0.7328407170515744,low,high,,ISIC_8015541.JPG,9,ISIC_4407580.JPG,62,false,lh,keypress(e),0,false,611833.900000006,611833.700000003,609112.247,609123.6000000089,609128.746,611848.371,4,500,22,
break,html.Screen,10_21_1,2023-11-15T22:01:14.707Z,,,,,,,,,,NaN,,,,,,,,low,high,,,,,,false,,,,false,611834.400000006,611834.299999997,,611834,,611848.371,4,500,,
break_continue,html.Screen,10_21_2,2023-11-15T22:01:14.707Z,,,,,,,,,,NaN,,,,,,,,low,high,,,,,,false,,,,false,611834.700000003,611834.6000000089,,611834.5,,611848.371,4,500,,
sequence,flow.Sequence,10_21,2023-11-15T22:01:14.708Z,,,,,,,,,,2705.854000008898,completion,,,,,,,low,high,,,,,,false,,,,false,611834.799999997,611834.6000000089,609112.247,609123.6000000089,609128.746,611848.371,4,500,,
trial,html.Screen,10_22_0,2023-11-15T22:01:19.292Z,,,,1,-0.0367218428225813,0.0026956749740767,,false,lh,4570.428999996977,response,-0.622483341819462,1.0249935057174917,-0.5871487594042621,1.0756568667434558,1.0621095108563208,-0.7328407170515744,low,high,,ISIC_7212271.JPG,9,ISIC_0033333.JPG,62,false,hh,keypress(i),0,false,616418.900000006,616418.799999997,611831.489,611835,611848.371,616452.917,4,500,23,
break,html.Screen,10_22_1,2023-11-15T22:01:19.293Z,,,,,,,,,,NaN,,,,,,,,low,high,,,,,,false,,,,false,616419.700000003,616419.6000000089,,616419.200000003,,616452.917,4,500,,
break_continue,html.Screen,10_22_2,2023-11-15T22:01:19.293Z,,,,,,,,,,NaN,,,,,,,,low,high,,,,,,false,,,,false,616420.1000000089,616420,,616419.900000006,,616452.917,4,500,,
sequence,flow.Sequence,10_22,2023-11-15T22:01:19.293Z,,,,,,,,,,4571.628999999957,completion,,,,,,,low,high,,,,,,false,,,,false,616420.299999997,616420,611831.489,611835,611848.371,616452.917,4,500,,
trial,html.Screen,10_23_0,2023-11-15T22:01:21.147Z,,,,1,0.0539169177295974,-0.039571352787207,,false,ll,1821.1830000089249,response,-0.6336866128947327,1.0249935057174917,-0.5871487594042621,-0.6032247760228675,1.0621095108563208,-0.7328407170515744,low,low,,ISIC_1076091.JPG,9,ISIC_8747095.JPG,335,false,lh,keypress(e),0,false,618274.299999997,618274.1000000089,616436.275,616420.400000006,616452.917,618288.125,4,500,24,
break,html.Screen,10_23_1,2023-11-15T22:01:21.148Z,,,,,,,,,,NaN,,,,,,,,low,low,,,,,,false,,,,false,618274.900000006,618274.799999997,,618274.6000000089,,618288.125,4,500,,
break_continue,html.Screen,10_23_2,2023-11-15T22:01:21.148Z,,,,,,,,,,NaN,,,,,,,,low,low,,,,,,false,,,,false,618275.299999997,618275.200000003,,618275.1000000089,,618288.125,4,500,,
sequence,flow.Sequence,10_23,2023-11-15T22:01:21.148Z,,,,,,,,,,1822.2830000029644,completion,,,,,,,low,low,,,,,,false,,,,false,618275.400000006,618275.200000003,616436.275,616420.400000006,616452.917,618288.125,4,500,,
trial,html.Screen,10_24_0,2023-11-15T22:01:23.043Z,,,,1,-0.0063515208248796,-0.0194177605767913,,false,hh,1881.5750000029802,response,1.2137859487412823,1.0249935057174917,-0.5871487594042621,0.9733061422664008,1.0621095108563208,-0.7328407170515744,high,high,,ISIC_5281908.JPG,8,ISIC_2987613.JPG,131,false,lh,keypress(e),0,false,620169.900000006,620169.700000003,618271.389,618275.6000000089,618288.125,620173.083,4,500,25,
break,html.Screen,10_24_1,2023-11-15T22:01:23.043Z,,,,,,,,,,NaN,,,,,,,,high,high,,,,,,false,,,,false,620170.299999997,620170.200000003,,620170,,620173.083,4,500,,
break_continue,html.Screen,10_24_2,2023-11-15T22:01:23.043Z,,,,,,,,,,NaN,,,,,,,,high,high,,,,,,false,,,,false,620170.5,620170.400000006,,620170.299999997,,620173.083,4,500,,
sequence,flow.Sequence,10_24,2023-11-15T22:01:23.043Z,,,,,,,,,,1882.2750000059605,completion,,,,,,,high,high,,,,,,false,,,,false,620170.5,620170.400000006,618271.389,618275.6000000089,618288.125,620173.083,4,500,,
trial,html.Screen,10_25_0,2023-11-15T22:01:25.811Z,,,,1,0.0523524458062335,-0.0048771624512062,,false,ll,2765.0170000089565,response,-0.5615077257192704,1.0249935057174917,-0.5871487594042621,-0.6711174861837572,1.0621095108563208,-0.7328407170515744,low,low,,ISIC_0010379.JPG,9,ISIC_5336007.JPG,335,false,lh,keypress(e),0,false,622938.299999997,622938.1000000089,620156.535,620170.6000000089,620173.083,622942.537,4,500,26,
break,html.Screen,10_25_1,2023-11-15T22:01:25.812Z,,,,,,,,,,NaN,,,,,,,,low,low,,,,,,false,,,,false,622938.900000006,622938.799999997,,622938.5,,622942.537,4,500,,
break_continue,html.Screen,10_25_2,2023-11-15T22:01:25.812Z,,,,,,,,,,NaN,,,,,,,,low,low,,,,,,false,,,,false,622939.400000006,622939.299999997,,622939.1000000089,,622942.537,4,500,,
sequence,flow.Sequence,10_25,2023-11-15T22:01:25.812Z,,,,,,,,,,2766.2169999970356,completion,,,,,,,low,low,,,,,,false,,,,false,622939.6000000089,622939.299999997,620156.535,620170.6000000089,620173.083,622942.537,4,500,,
trial,html.Screen,10_26_0,2023-11-15T22:01:28.890Z,,,,1,-0.0189295602385628,-0.0128812415435153,,true,hl,3075.0630000089295,response,1.082730232773217,1.0249935057174917,-0.5871487594042621,-0.8833175387485132,1.0621095108563208,-0.7328407170515744,high,low,,ISIC_0010372.JPG,8,ISIC_0011933.JPG,44,false,hl,keypress(j),0,false,626017.700000003,626017.6000000089,622925.845,622939.700000003,622942.537,626028.965,4,500,27,
break,html.Screen,10_26_1,2023-11-15T22:01:28.891Z,,,,,,,,,,NaN,,,,,,,,high,low,,,,,,false,,,,false,626018.1000000089,626018,,626017.799999997,,626028.965,4,500,,
break_continue,html.Screen,10_26_2,2023-11-15T22:01:28.891Z,,,,,,,,,,NaN,,,,,,,,high,low,,,,,,false,,,,false,626018.299999997,626018.200000003,,626018.1000000089,,626028.965,4,500,,
sequence,flow.Sequence,10_26,2023-11-15T22:01:28.891Z,,,,,,,,,,3075.663000002969,completion,,,,,,,high,low,,,,,,false,,,,false,626018.400000006,626018.200000003,622925.845,622939.700000003,622942.537,626028.965,4,500,,
trial,html.Screen,10_27_0,2023-11-15T22:01:31.227Z,,,,1,-0.0245246789155119,0.0615355901813596,,false,hh,2324.8349999970524,response,1.2232482867978696,1.0249935057174917,-0.5871487594042621,1.2451219760556858,1.0621095108563208,-0.7328407170515744,high,high,,ISIC_0034144.JPG,9,ISIC_0030889.JPG,131,false,hl,keypress(j),0,false,628353.900000006,628353.799999997,626012.501,626018.400000006,626028.965,628364.694,4,500,28,
break,html.Screen,10_27_1,2023-11-15T22:01:31.227Z,,,,,,,,,,NaN,,,,,,,,high,high,,,,,,false,,,,false,628354.400000006,628354.299999997,,628354.1000000089,,628364.694,4,500,,
break_continue,html.Screen,10_27_2,2023-11-15T22:01:31.227Z,,,,,,,,,,NaN,,,,,,,,high,high,,,,,,false,,,,false,628354.6000000089,628354.6000000089,,628354.5,,628364.694,4,500,,
sequence,flow.Sequence,10_27,2023-11-15T22:01:31.227Z,,,,,,,,,,2325.6350000089733,completion,,,,,,,high,high,,,,,,false,,,,false,628354.700000003,628354.6000000089,626012.501,626018.400000006,626028.965,628364.694,4,500,,
trial,html.Screen,10_28_0,2023-11-15T22:01:33.235Z,,,,1,0.0085520978188085,-0.0535296539628673,,true,lh,1997.3059999999823,response,-0.5621075359809959,1.0249935057174917,-0.5871487594042621,1.0406120918946364,1.0621095108563208,-0.7328407170515744,low,high,,ISIC_0758797.JPG,10,ISIC_1224329.JPG,62,false,lh,keypress(e),0,false,630362.299999997,630362,628348.044,628354.799999997,628364.694,630366.644,4,500,29,
break,html.Screen,10_28_1,2023-11-15T22:01:33.236Z,,,,,,,,,,NaN,,,,,,,,low,high,,,,,,false,,,,false,630363,630362.799999997,,630362.5,,630366.644,4,500,,
break_continue,html.Screen,10_28_2,2023-11-15T22:01:33.236Z,,,,,,,,,,NaN,,,,,,,,low,high,,,,,,false,,,,false,630363.400000006,630363.200000003,,630363.1000000089,,630366.644,4,500,,
sequence,flow.Sequence,10_28,2023-11-15T22:01:33.236Z,,,,,,,,,,1998.5060000029625,completion,,,,,,,low,high,,,,,,false,,,,false,630363.5,630363.200000003,628348.044,628354.700000003,628364.694,630366.644,4,500,,
trial,html.Screen,10_29_0,2023-11-15T22:01:36.043Z,,,,1,0.0339906816361373,0.0603913124071272,,false,hh,2803.4560000089696,response,1.084683602025889,1.0249935057174917,-0.5871487594042621,1.0111744161375118,1.0621095108563208,-0.7328407170515744,high,high,,ISIC_1258763.JPG,10,ISIC_0069946.JPG,131,false,lh,keypress(e),0,false,633170.200000003,633170.1000000089,630350.128,630363.6000000089,630366.644,633186.362,4,500,30,
break,html.Screen,10_29_1,2023-11-15T22:01:36.044Z,,,,,,,,,,NaN,,,,,,,,high,high,,,,,,false,,,,false,633170.799999997,633170.700000003,,633170.5,,633186.362,4,500,,
break_continue,html.Screen,10_29_2,2023-11-15T22:01:36.044Z,,,,,,,,,,NaN,,,,,,,,high,high,,,,,,false,,,,false,633171.1000000089,633171.1000000089,,633171,,633186.362,4,500,,
sequence,flow.Sequence,10_29,2023-11-15T22:01:36.044Z,,,,,,,,,,2804.4560000089696,completion,,,,,,,high,high,,,,,,false,,,,false,633171.200000003,633171.1000000089,630350.128,630363.6000000089,630366.644,633186.362,4,500,,
trial,html.Screen,10_30_0,2023-11-15T22:01:40.354Z,,,,1,-0.0127320821962457,0.0315308940184827,,true,hh,4295.138000000035,response,0.9125678790631364,1.0249935057174917,-0.5871487594042621,1.124157865127501,1.0621095108563208,-0.7328407170515744,high,high,,ISIC_8156101.JPG,9,ISIC_0062111.JPG,131,false,hh,keypress(i),0,false,637481.6000000089,637481.5,633169.706,633171.400000006,633186.362,637490.466,4,500,31,
break,html.Screen,10_30_1,2023-11-15T22:01:40.355Z,,,,,,,,,,NaN,,,,,,,,high,high,,,,,,false,,,,false,637481.900000006,637481.900000006,,637481.700000003,,637490.466,4,500,,
break_continue,html.Screen,10_30_2,2023-11-15T22:01:40.355Z,,,,,,,,,,NaN,,,,,,,,high,high,,,,,,false,,,,false,637482.1000000089,637482,,637482,,637490.466,4,500,,
sequence,flow.Sequence,10_30,2023-11-15T22:01:40.355Z,,,,,,,,,,4295.638000000035,completion,,,,,,,high,high,,,,,,false,,,,false,637482.200000003,637482,633169.706,633171.400000006,633186.362,637490.466,4,500,,
trial,html.Screen,10_31_0,2023-11-15T22:01:46.355Z,,,,1,0.0700745968706567,0.013891147856594,,false,lh,5991.333999997005,response,-0.6899115458415905,1.0249935057174917,-0.5871487594042621,1.1859040095641875,1.0621095108563208,-0.7328407170515744,low,high,,ISIC_0054663.JPG,8,ISIC_0028967.JPG,62,false,hh,keypress(i),0,false,643481.900000006,643481.799999997,637473.852,637482.299999997,637490.466,643496.706,4,500,32,
break,html.Screen,10_31_1,2023-11-15T22:01:46.355Z,,,,,,,,,,NaN,,,,,,,,low,high,,,,,,false,,,,false,643482.299999997,643482.299999997,,643482,,643496.706,4,500,,
break_continue,html.Screen,10_31_2,2023-11-15T22:01:46.355Z,,,,,,,,,,NaN,,,,,,,,low,high,,,,,,false,,,,false,643482.5,643482.5,,643482.400000006,,643496.706,4,500,,
sequence,flow.Sequence,10_31,2023-11-15T22:01:46.355Z,,,,,,,,,,5992.033999999985,completion,,,,,,,low,high,,,,,,false,,,,false,643482.700000003,643482.5,637473.852,637482.200000003,637490.466,643496.706,4,500,,
trial,html.Screen,10_32_0,2023-11-15T22:01:49.795Z,,,,1,-0.0207120852539861,-0.0589023744433183,,false,hh,3425.093999997014,response,1.0570280672376675,1.0249935057174917,-0.5871487594042621,1.0932046580095067,1.0621095108563208,-0.7328407170515744,high,high,,ISIC_7973601.JPG,9,ISIC_0061320.JPG,131,false,hl,keypress(j),0,false,646921.900000006,646921.799999997,643479.814,643482.700000003,643496.706,646933.277,4,500,33,
break,html.Screen,10_32_1,2023-11-15T22:01:49.795Z,,,,,,,,,,NaN,,,,,,,,high,high,,,,,,false,,,,false,646922.5,646922.299999997,,646922.200000003,,646933.277,4,500,,
break_continue,html.Screen,10_32_2,2023-11-15T22:01:49.796Z,,,,,,,,,,NaN,,,,,,,,high,high,,,,,,false,,,,false,646922.799999997,646922.700000003,,646922.5,,646933.277,4,500,,
sequence,flow.Sequence,10_32,2023-11-15T22:01:49.796Z,,,,,,,,,,3425.9940000029746,completion,,,,,,,high,high,,,,,,false,,,,false,646922.900000006,646922.700000003,643479.814,643482.700000003,643496.706,646933.277,4,500,,
trial,html.Screen,10_33_0,2023-11-15T22:01:53.219Z,,,,1,0.0742149355137113,0.0423516069066019,,false,ll,3413.222999999998,response,-0.7664488606296374,1.0249935057174917,-0.5871487594042621,-0.823352976488833,1.0621095108563208,-0.7328407170515744,low,low,,ISIC_0011483.JPG,9,ISIC_6868089.JPG,335,false,lh,keypress(e),0,false,650346.6000000089,650346.5,646916.614,646923,646933.277,650353.346,4,500,34,
break,html.Screen,10_33_1,2023-11-15T22:01:53.220Z,,,,,,,,,,NaN,,,,,,,,low,low,,,,,,false,,,,false,650347.299999997,650347.200000003,,650346.799999997,,650353.346,4,500,,
break_continue,html.Screen,10_33_2,2023-11-15T22:01:53.220Z,,,,,,,,,,NaN,,,,,,,,low,low,,,,,,false,,,,false,650347.6000000089,650347.5,,650347.299999997,,650353.346,4,500,,
sequence,flow.Sequence,10_33,2023-11-15T22:01:53.221Z,,,,,,,,,,3414.222999999998,completion,,,,,,,low,low,,,,,,false,,,,false,650347.799999997,650347.5,646916.614,646923,646933.277,650353.346,4,500,,
trial,html.Screen,10_34_0,2023-11-15T22:01:55.755Z,,,,1,-0.0127364719403411,-0.0549103570808099,,true,lh,2528.453999997,response,-0.4049576314888107,1.0249935057174917,-0.5871487594042621,0.9513534811138804,1.0621095108563208,-0.7328407170515744,low,high,,ISIC_0054705.JPG,9,ISIC_0032537.JPG,62,false,lh,keypress(e),0,false,652882,652881.799999997,650336.667,650347.900000006,650353.346,652889.176,4,500,35,
break,html.Screen,10_34_1,2023-11-15T22:01:55.755Z,,,,,,,,,,NaN,,,,,,,,low,high,,,,,,false,,,,false,652882.400000006,652882.299999997,,652882.1000000089,,652889.176,4,500,,
break_continue,html.Screen,10_34_2,2023-11-15T22:01:55.755Z,,,,,,,,,,NaN,,,,,,,,low,high,,,,,,false,,,,false,652882.6000000089,652882.6000000089,,652882.5,,652889.176,4,500,,
sequence,flow.Sequence,10_34,2023-11-15T22:01:55.755Z,,,,,,,,,,2529.254000008921,completion,,,,,,,low,high,,,,,,false,,,,false,652882.799999997,652882.6000000089,650336.667,650347.900000006,650353.346,652889.176,4,500,,
trial,html.Screen,10_35_0,2023-11-15T22:01:57.715Z,,,,1,0.0629926578251803,-0.0626296407938785,,true,hl,1953.1239999970421,response,1.0318344400485473,1.0249935057174917,-0.5871487594042621,-0.5670988877894552,1.0621095108563208,-0.7328407170515744,high,low,,ISIC_0027043.JPG,10,ISIC_2178032.JPG,44,false,hl,keypress(j),0,false,654842.5,654842.299999997,652872.469,652882.799999997,652889.176,654857.958,4,500,36,
break,html.Screen,10_35_1,2023-11-15T22:01:57.716Z,,,,,,,,,,NaN,,,,,,,,high,low,,,,,,false,,,,false,654843.1000000089,654842.900000006,,654842.6000000089,,654857.958,4,500,,
break_continue,html.Screen,10_35_2,2023-11-15T22:01:57.716Z,,,,,,,,,,NaN,,,,,,,,high,low,,,,,,false,,,,false,654843.299999997,654843.299999997,,654843.1000000089,,654857.958,4,500,,
sequence,flow.Sequence,10_35,2023-11-15T22:01:57.716Z,,,,,,,,,,1954.1239999970421,completion,,,,,,,high,low,,,,,,false,,,,false,654843.400000006,654843.299999997,652872.469,652882.799999997,652889.176,654857.958,4,500,,
trial,html.Screen,10_36_0,2023-11-15T22:02:01.284Z,,,,1,-0.0086413421586899,-0.0360184993500958,,false,hl,3552.042000000016,response,0.8946880006769797,1.0249935057174917,-0.5871487594042621,-0.7754915110667046,1.0621095108563208,-0.7328407170515744,high,low,,ISIC_0010767.JPG,9,ISIC_7840728.JPG,44,false,lh,keypress(e),0,false,658410.200000003,658410,654841.341,654843.6000000089,654857.958,658429.254,4,500,37,
break,html.Screen,10_36_1,2023-11-15T22:02:01.284Z,,,,,,,,,,NaN,,,,,,,,high,low,,,,,,false,,,,false,658410.700000003,658410.5,,658410.299999997,,658429.254,4,500,,
break_continue,html.Screen,10_36_2,2023-11-15T22:02:01.284Z,,,,,,,,,,NaN,,,,,,,,high,low,,,,,,false,,,,false,658410.900000006,658410.900000006,,658410.700000003,,658429.254,4,500,,
sequence,flow.Sequence,10_36,2023-11-15T22:02:01.285Z,,,,,,,,,,3552.9420000059763,completion,,,,,,,high,low,,,,,,false,,,,false,658411.1000000089,658410.900000006,654841.341,654843.6000000089,654857.958,658429.254,4,500,,
trial,html.Screen,10_37_0,2023-11-15T22:02:04.740Z,,,,1,-0.0474755744799381,-0.0692210794081785,,false,lh,3437.246000000043,response,-0.5620263174522387,1.0249935057174917,-0.5871487594042621,1.195179000765479,1.0621095108563208,-0.7328407170515744,low,high,,ISIC_8794567.JPG,10,ISIC_0010023.JPG,62,false,hh,keypress(i),0,false,661866.6000000089,661866.5,658394.68,658411.200000003,658429.254,661881.562,4,500,38,
break,html.Screen,10_37_1,2023-11-15T22:02:04.741Z,,,,,,,,,,NaN,,,,,,,,low,high,,,,,,false,,,,false,661867.299999997,661867.1000000089,,661866.900000006,,661881.562,4,500,,
