sender,sender_type,sender_id,timestamp,meta,,age,blockNo,c1,c2,condition,correct,correctResponse,duration,ended_on,f1,f1_high,f1_low,f2,f2_high,f2_low,feature_level1,feature_level2,gender,img_left,img_reveal,img_right,n_target_images,practice,response,response_action,selection_duration,staircase,time_commit,time_end,time_render,time_run,time_show,time_switch,total_blocks,total_trials,trialNo,url
informed_consent,html.Screen,0,2023-11-15T20:41:04.837Z,"{""labjs_version"":""20.2.4"",""labjs_build"":{""flavor"":""development"",""commit"":""f5b4a49f956347addd546a832a3327688c2c0fef""},""location"":""https://labjs.felixhenninger.com/api/labjs_preview/index.html"",""userAgent"":""Mozilla/5.0 (Windows NT 10.0; Win64; x64) AppleWebKit/537.36 (KHTML, like Gecko) Chrome/119.0.0.0 Safari/537.36"",""platform"":""Win32"",""language"":""en-US"",""locale"":""en-US"",""timeZone"":""America/Chicago"",""timezoneOffset"":360,""screen_width"":1920,""screen_height"":1080,""scroll_width"":945,""scroll_height"":918,""window_innerWidth"":945,""window_innerHeight"":966,""devicePixelRatio"":1}",,,,,,,,,55526.589999964235,response,,,,,,,,,,,,,,,consent,click button,,,56036.5,56030.09999996424,486.799,632.6999999880791,503.51,55903.632,,,,{}
Demography form,html.Form,1,2023-11-15T20:41:20.776Z,,,18,,,,,,,16071.46799996424,form submission,,,,,,,,,male,,,,,,,,,,71975.30000001192,71975.09999996424,55887.187,56036.69999998808,55903.632,71853.636,,,,
Welcome,html.Screen,2,2023-11-15T20:41:52.191Z,,,,,,,"[""bor"",""col""]",,,31536.364,response,,,,,,,,,,,,,,,continue,click button,,,103390.80000001192,103390,71836.751,71975.39999997616,71853.636,103253.366,,,,
demo_instructions,html.Screen,3,2023-11-15T20:42:14.983Z,,,,,,,,,,22928.233999964243,response,,,,,,,,,,,,,,,continue,click button,,,126182.19999998808,126181.59999996424,103236.972,103390.89999997616,103253.366,126053.321,,,,
trial,html.Screen,4_0_0,2023-11-15T20:42:29.654Z,,,,0,1.0788024398087033,-0.9911875460374616,,true,lh,14800.078999976162,response,-0.8472024037189965,0.8999999999999997,-0.8999999999999997,0.986370061404882,0.8999999999999997,-0.8999999999999997,low,high,,ISIC_5951430.JPG,,ISIC_0054355.JPG,29,true,lh,keypress(e),100,false,140853.5,140853.39999997616,126036.65,126182.30000001192,126053.321,140736.675,1,16,1,
sequence,flow.Sequence,4_0,2023-11-15T20:42:29.654Z,,,,,,,,,,14800.078999976162,completion,,,,,,,low,high,,,,,,true,,,,false,140853.69999998808,140853.39999997616,126036.65,126182.30000001192,126053.321,140736.675,1,16,,
trial,html.Screen,4_1_0,2023-11-15T20:42:40.378Z,,,,0,0.9089402323867112,-0.8034544077281132,,true,lh,10840.22499997617,response,-0.8830264383952469,0.8999999999999997,-0.8999999999999997,0.8635562538060516,0.8999999999999997,-0.8999999999999997,low,high,,ISIC_3585381.JPG,,ISIC_0032258.JPG,29,true,lh,keypress(e),100,false,151577.09999996424,151576.89999997616,140720.003,140853.80000001192,140736.675,151470.427,1,16,2,
sequence,flow.Sequence,4_1,2023-11-15T20:42:40.378Z,,,,,,,,,,10840.22499997617,completion,,,,,,,low,high,,,,,,true,,,,false,151577.39999997616,151576.89999997616,140720.003,140853.80000001192,140736.675,151470.427,1,16,,
trial,html.Screen,4_2_0,2023-11-15T20:42:46.607Z,,,,0,0.7629099401226335,-0.8515956627075536,,true,lh,6335.373000011925,response,-0.9653573371180936,0.8999999999999997,-0.8999999999999997,0.854766800381037,0.8999999999999997,-0.8999999999999997,low,high,,ISIC_0028718.JPG,,ISIC_9640145.JPG,29,true,lh,keypress(e),100,false,157806,157805.80000001192,151453.473,151577.39999997616,151470.427,157686.711,1,16,3,
sequence,flow.Sequence,4_2,2023-11-15T20:42:46.607Z,,,,,,,,,,6335.373000011925,completion,,,,,,,low,high,,,,,,true,,,,false,157806.19999998808,157805.80000001192,151453.473,151577.39999997616,151470.427,157686.711,1,16,,
trial,html.Screen,4_3_0,2023-11-15T20:42:52.178Z,,,,0,0.9111352818043872,-0.7517932332411794,,true,lh,5689.888999964227,response,-0.7411887874358276,0.8999999999999997,-0.8999999999999997,0.7869222465141029,0.8999999999999997,-0.8999999999999997,low,high,,ISIC_3346045.JPG,,ISIC_6255113.JPG,29,true,lh,keypress(e),100,false,163376.89999997616,163376.59999996424,157669.993,157806.39999997616,157686.711,163270.233,1,16,4,
sequence,flow.Sequence,4_3,2023-11-15T20:42:52.178Z,,,,,,,,,,5689.888999964227,completion,,,,,,,low,high,,,,,,true,,,,false,163377.09999996424,163376.59999996424,157669.993,157806.19999998808,157686.711,163270.233,1,16,,
trial,html.Screen,4_4_0,2023-11-15T20:43:12.247Z,,,,0,0.8161945839077875,0.8847883487572158,,true,ll,20175.96699998807,response,-0.710846172611277,0.8999999999999997,-0.8999999999999997,-1.086313423336944,0.8999999999999997,-0.8999999999999997,low,low,,ISIC_0058496.JPG,,ISIC_0946923.JPG,169,true,ll,keypress(f),100,false,183446.30000001192,183446.19999998808,163253.747,163377.19999998808,163270.233,183336.705,1,16,5,
sequence,flow.Sequence,4_4,2023-11-15T20:43:12.247Z,,,,,,,,,,20175.96699998807,completion,,,,,,,low,low,,,,,,true,,,,false,183446.5,183446.19999998808,163253.747,163377.09999996424,163270.233,183336.705,1,16,,
trial,html.Screen,4_5_0,2023-11-15T20:43:16.490Z,,,,0,0.8010128234618513,0.9031251164933652,,true,ll,4352.494999988092,response,-0.745731903414877,0.8999999999999997,-0.8999999999999997,-0.9653147884001048,0.8999999999999997,-0.8999999999999997,low,low,,ISIC_0058768.JPG,,ISIC_3613012.JPG,169,true,ll,keypress(f),100,false,187689.39999997616,187689.19999998808,183320.205,183446.5,183336.705,187569.962,1,16,6,
sequence,flow.Sequence,4_5,2023-11-15T20:43:16.490Z,,,,,,,,,,4352.494999988092,completion,,,,,,,low,low,,,,,,true,,,,false,187689.59999996424,187689.19999998808,183320.205,183446.5,183336.705,187569.962,1,16,,
trial,html.Screen,4_6_0,2023-11-15T20:43:22.430Z,,,,0,0.8824429342294199,0.8627090057984027,,true,ll,6059.338000011921,response,-0.8778738400881212,0.8999999999999997,-0.8999999999999997,-0.8629033386879579,0.8999999999999997,-0.8999999999999997,low,low,,ISIC_0015193.JPG,,ISIC_5607702.JPG,169,true,ll,keypress(f),100,false,193629.5,193629.30000001192,187553.284,187689.59999996424,187569.962,193520.193,1,16,7,
sequence,flow.Sequence,4_6,2023-11-15T20:43:22.430Z,,,,,,,,,,6059.338000011921,completion,,,,,,,low,low,,,,,,true,,,,false,193629.80000001192,193629.30000001192,187553.284,187689.59999996424,187569.962,193520.193,1,16,,
trial,html.Screen,4_7_0,2023-11-15T20:43:27.730Z,,,,0,1.0665699221890637,1.0106762707163983,,true,ll,5409.107000011922,response,-0.83166078255243,0.8999999999999997,-0.8999999999999997,-0.9118813671244655,0.8999999999999997,-0.8999999999999997,low,low,,ISIC_1630301.JPG,,ISIC_1453671.JPG,169,true,ll,keypress(f),100,false,198929.59999996424,198929.30000001192,193503.525,193629.80000001192,193520.193,198819.967,1,16,8,
sequence,flow.Sequence,4_7,2023-11-15T20:43:27.730Z,,,,,,,,,,5409.107000011922,completion,,,,,,,low,low,,,,,,true,,,,false,198929.69999998808,198929.30000001192,193503.525,193629.80000001192,193520.193,198819.967,1,16,,
trial,html.Screen,4_8_0,2023-11-15T20:43:41.478Z,,,,0,-0.8954803463300026,0.7071819047913821,,true,hl,13856.732999988075,response,0.9617893983965208,0.8999999999999997,-0.8999999999999997,-0.9453006131304652,0.8999999999999997,-0.8999999999999997,high,low,,ISIC_0033071.JPG,,ISIC_4229473.JPG,43,true,hl,keypress(j),100,false,212676.80000001192,212676.69999998808,198803.525,198929.69999998808,198819.967,212570.177,1,16,9,
sequence,flow.Sequence,4_8,2023-11-15T20:43:41.478Z,,,,,,,,,,13856.732999988075,completion,,,,,,,high,low,,,,,,true,,,,false,212677,212676.69999998808,198803.525,198929.69999998808,198819.967,212570.177,1,16,,
trial,html.Screen,4_9_0,2023-11-15T20:43:44.283Z,,,,0,-1.0453124399868816,0.8986747280184286,,true,hl,2911.722999976162,response,0.7016609136175869,0.8999999999999997,-0.8999999999999997,-0.8694041951927121,0.8999999999999997,-0.8999999999999997,high,low,,ISIC_0013967.JPG,,ISIC_0897876.JPG,43,true,hl,keypress(j),100,false,215482.09999996424,215481.89999997616,212553.508,212677.09999996424,212570.177,215370.098,1,16,10,
sequence,flow.Sequence,4_9,2023-11-15T20:43:44.283Z,,,,,,,,,,2911.722999976162,completion,,,,,,,high,low,,,,,,true,,,,false,215482.30000001192,215481.89999997616,212553.508,212677.09999996424,212570.177,215370.098,1,16,,
trial,html.Screen,4_10_0,2023-11-15T20:43:48.478Z,,,,0,-0.7883321712536753,1.0011430756825364,,true,hl,4306.601999988081,response,0.8987343013179191,0.8999999999999997,-0.8999999999999997,-0.8149073454566363,0.8999999999999997,-0.8999999999999997,high,low,,ISIC_9828853.JPG,,ISIC_0472513.JPG,43,true,hl,keypress(j),100,false,219676.89999997616,219676.69999998808,215353.516,215482.30000001192,215370.098,219570.091,1,16,11,
sequence,flow.Sequence,4_10,2023-11-15T20:43:48.478Z,,,,,,,,,,4306.601999988081,completion,,,,,,,high,low,,,,,,true,,,,false,219677,219676.69999998808,215353.516,215482.30000001192,215370.098,219570.091,1,16,,
trial,html.Screen,4_11_0,2023-11-15T20:43:52.067Z,,,,0,-0.7010101889216934,0.9022783418178474,,true,hl,3696.0089999642514,response,1.0153439398566937,0.8999999999999997,-0.8999999999999997,-0.93001438372942,0.8999999999999997,-0.8999999999999997,high,low,,ISIC_0057858.JPG,,ISIC_8211214.JPG,43,true,hl,keypress(j),100,false,223266.30000001192,223266.09999996424,219553.494,219677.19999998808,219570.091,223153.674,1,16,12,
sequence,flow.Sequence,4_11,2023-11-15T20:43:52.067Z,,,,,,,,,,3696.0089999642514,completion,,,,,,,high,low,,,,,,true,,,,false,223266.39999997616,223266.09999996424,219553.494,219677,219570.091,223153.674,1,16,,
trial,html.Screen,4_12_0,2023-11-15T20:43:56.103Z,,,,0,-0.9394358755892184,-1.0256934713188917,,true,hh,4148.52599998808,response,1.0172828675249892,0.8999999999999997,-0.8999999999999997,0.7195583354712407,0.8999999999999997,-0.8999999999999997,high,high,,ISIC_4264600.JPG,,ISIC_0033696.JPG,184,true,hh,keypress(i),100,false,227302.39999997616,227302.19999998808,223136.837,223266.5,223153.674,227186.603,1,16,13,
sequence,flow.Sequence,4_12,2023-11-15T20:43:56.103Z,,,,,,,,,,4148.52599998808,completion,,,,,,,high,high,,,,,,true,,,,false,227302.5,227302.19999998808,223136.837,223266.5,223153.674,227186.603,1,16,,
trial,html.Screen,4_13_0,2023-11-15T20:44:01.995Z,,,,0,-0.9048246926578776,-1.0392108946107133,,true,hh,6007.096999988076,response,0.9864553897205228,0.8999999999999997,-0.8999999999999997,0.7203939202840286,0.8999999999999997,-0.8999999999999997,high,high,,ISIC_0068544.JPG,,ISIC_0054334.JPG,184,true,hh,keypress(i),100,false,233193.89999997616,233193.69999998808,227169.988,227302.59999996424,227186.603,233086.75,1,16,14,
sequence,flow.Sequence,4_13,2023-11-15T20:44:01.995Z,,,,,,,,,,6007.096999988076,completion,,,,,,,high,high,,,,,,true,,,,false,233194.19999998808,233193.69999998808,227169.988,227302.59999996424,227186.603,233086.75,1,16,,
trial,html.Screen,4_14_0,2023-11-15T20:44:04.047Z,,,,0,-0.896095941423076,-0.7326408730609683,,true,hh,2159.75,response,0.9737567085091248,0.8999999999999997,-0.8999999999999997,0.9013996680304692,0.8999999999999997,-0.8999999999999997,high,high,,ISIC_5226353.JPG,,ISIC_2483825.JPG,184,true,hh,keypress(i),100,false,235246.59999996424,235246.5,233070.152,233194.30000001192,233086.75,235136.633,1,16,15,
sequence,flow.Sequence,4_14,2023-11-15T20:44:04.047Z,,,,,,,,,,2159.75,completion,,,,,,,high,high,,,,,,true,,,,false,235246.59999996424,235246.5,233070.152,233194.30000001192,233086.75,235136.633,1,16,,
trial,html.Screen,4_15_0,2023-11-15T20:44:06.098Z,,,,0,-0.8405707669205109,-0.7425323414439162,,true,hh,2160.2669999761565,response,0.9740596249572724,0.8999999999999997,-0.8999999999999997,0.915332132320829,0.8999999999999997,-0.8999999999999997,high,high,,ISIC_4272317.JPG,,ISIC_9053910.JPG,184,true,hh,keypress(i),100,false,237297,237296.89999997616,235120.324,235246.80000001192,235136.633,237186.819,1,16,16,
sequence,flow.Sequence,4_15,2023-11-15T20:44:06.098Z,,,,,,,,,,2160.2669999761565,completion,,,,,,,high,high,,,,,,true,,,,false,237297.19999998808,237296.89999997616,235120.324,235246.80000001192,235136.633,237186.819,1,16,,
demonstration_loop,flow.Loop,4,2023-11-15T20:44:06.098Z,,,,,,,,,,111243.57899997616,completion,,,,,,,,,,,,,,true,,,,false,237297.19999998808,237296.89999997616,126036.65,126182.30000001192,126053.321,237186.819,1,16,,
practice_instructions,html.Screen,5,2023-11-15T20:44:17.645Z,,,,,,,,,,11650.88099998809,response,,,,,,,,,,,,,,,continue,click button,,,248844,248837.69999998808,237170.081,237297.19999998808,237186.819,248703.192,,,,
trial,html.Screen,6_0_0,2023-11-15T20:44:28.629Z,,,,1,-1.058275612142778,0.7824898568540655,,,,11017.122000000003,timeout,0.9089402323867112,0.8999999999999997,-0.8999999999999997,-0.8034544077281132,0.8999999999999997,-0.8999999999999997,high,low,,ISIC_4906385.JPG,,ISIC_3585381.JPG,43,true,,,0,false,259828.09999996424,259827.89999997616,248686.544,248844.09999996424,248703.192,259720.314,1,40,1,
sequence,flow.Sequence,6_0,2023-11-15T20:44:28.629Z,,,,,,,,,,11124.707999976148,completion,,,,,,,high,low,,,,,,true,,,,false,259828.19999998808,259827.89999997616,248686.544,248844.09999996424,248703.192,259720.314,1,40,,
trial,html.Screen,6_1_0,2023-11-15T20:44:31.680Z,,,,1,0.8443403196524287,-0.8858525429102605,,false,lh,3158.986000011908,response,-1.0369885917487718,0.8999999999999997,-0.8999999999999997,0.8486937878412699,0.8999999999999997,-0.8999999999999997,low,high,,ISIC_8777813.JPG,,ISIC_6917681.JPG,29,true,hl,keypress(j),0,false,262879.5,262879.3000000119,259703.438,259828.30000001192,259720.314,262753.363,1,40,2,
sequence,flow.Sequence,6_1,2023-11-15T20:44:31.680Z,,,,,,,,,,3158.986000011908,completion,,,,,,,low,high,,,,,,true,,,,false,262879.5,262879.3000000119,259703.438,259828.30000001192,259720.314,262753.363,1,40,,
trial,html.Screen,6_2_0,2023-11-15T20:44:35.121Z,,,,1,0.8165346395107898,-0.7657798385266591,,true,lh,3566.236999964225,response,-1.058275612142778,0.8999999999999997,-0.8999999999999997,0.7824898568540655,0.8999999999999997,-0.8999999999999997,low,high,,ISIC_2283628.JPG,,ISIC_4906385.JPG,29,true,lh,keypress(e),0,false,266319.6999999881,266319.59999996424,262736.627,262879.59999996424,262753.363,266186.596,1,40,3,
sequence,flow.Sequence,6_2,2023-11-15T20:44:35.121Z,,,,,,,,,,3566.236999964225,completion,,,,,,,low,high,,,,,,true,,,,false,266319.8000000119,266319.59999996424,262736.627,262879.59999996424,262753.363,266186.596,1,40,,
trial,html.Screen,6_3_0,2023-11-15T20:44:37.424Z,,,,1,1.0685314915436992,-0.8203833713472237,,true,lh,2436.8039999761386,response,-0.930804711032185,0.8999999999999997,-0.8999999999999997,0.7294067991476295,0.8999999999999997,-0.8999999999999997,low,high,,ISIC_0029374.JPG,,ISIC_5067317.JPG,29,true,lh,keypress(e),0,false,268623.59999996424,268623.39999997616,266170.027,266319.89999997616,266186.596,268503.943,1,40,4,
sequence,flow.Sequence,6_3,2023-11-15T20:44:37.425Z,,,,,,,,,,2436.8039999761386,completion,,,,,,,low,high,,,,,,true,,,,false,268623.6999999881,268623.39999997616,266170.027,266319.8000000119,266186.596,268503.943,1,40,,
trial,html.Screen,6_4_0,2023-11-15T20:44:43.104Z,,,,1,-0.8526775318290718,-0.9398012765219632,,true,hh,5799.256999988051,response,0.900981242677363,0.8999999999999997,-0.8999999999999997,0.8834104283484265,0.8999999999999997,-0.8999999999999997,high,high,,ISIC_2647198.JPG,,ISIC_7236365.JPG,184,true,hh,keypress(i),0,false,274303.3000000119,274303.1999999881,268469.829,268623.6999999881,268503.943,274169.824,1,40,5,
sequence,flow.Sequence,6_4,2023-11-15T20:44:43.104Z,,,,,,,,,,5799.256999988051,completion,,,,,,,high,high,,,,,,true,,,,false,274303.39999997616,274303.1999999881,268469.829,268623.6999999881,268503.943,274169.824,1,40,,
trial,html.Screen,6_5_0,2023-11-15T20:44:46.768Z,,,,1,0.9984751310732674,0.7993808609040723,,false,ll,3797.4760000118986,response,-0.7945270488878992,0.8999999999999997,-0.8999999999999997,-0.9054354695775536,0.8999999999999997,-0.8999999999999997,low,low,,ISIC_0032510.JPG,,ISIC_5820693.JPG,169,true,lh,keypress(e),0,false,277967.5,277967.3000000119,274153.271,274303.5,274169.824,277836.587,1,40,6,
sequence,flow.Sequence,6_5,2023-11-15T20:44:46.768Z,,,,,,,,,,3797.4760000118986,completion,,,,,,,low,low,,,,,,true,,,,false,277967.5,277967.3000000119,274153.271,274303.5,274169.824,277836.587,1,40,,
trial,html.Screen,6_6_0,2023-11-15T20:44:50.720Z,,,,1,-0.83166078255243,-0.9118813671244655,,true,hh,4082.8129999761586,response,0.8507058629676155,0.8999999999999997,-0.8999999999999997,0.9499573218577314,0.8999999999999997,-0.8999999999999997,high,high,,ISIC_1453671.JPG,,ISIC_0024951.JPG,184,true,hh,keypress(i),0,false,281919.39999997616,281919.39999997616,277819.721,277967.59999996424,277836.587,281786.622,1,40,7,
sequence,flow.Sequence,6_6,2023-11-15T20:44:50.720Z,,,,,,,,,,4082.8129999761586,completion,,,,,,,high,high,,,,,,true,,,,false,281919.5,281919.39999997616,277819.721,277967.59999996424,277836.587,281786.622,1,40,,
trial,html.Screen,6_7_0,2023-11-15T20:44:53.904Z,,,,1,0.8987343013179191,-0.8149073454566363,,false,lh,3316.777999976184,response,-0.930804711032185,0.8999999999999997,-0.8999999999999997,0.7294067991476295,0.8999999999999997,-0.8999999999999997,low,high,,ISIC_0472513.JPG,,ISIC_5067317.JPG,29,true,hl,keypress(j),0,false,285103.59999996424,285103.39999997616,281769.979,281919.59999996424,281786.622,284969.877,1,40,8,
sequence,flow.Sequence,6_7,2023-11-15T20:44:53.905Z,,,,,,,,,,3316.777999976184,completion,,,,,,,low,high,,,,,,true,,,,false,285103.6999999881,285103.39999997616,281769.979,281919.59999996424,281786.622,284969.877,1,40,,
trial,html.Screen,6_8_0,2023-11-15T20:44:58.224Z,,,,1,0.9354612477528912,0.7310902828236168,,true,ll,4453.3229999881005,response,-0.8153135636447707,0.8999999999999997,-0.8999999999999997,-0.9269022323245946,0.8999999999999997,-0.8999999999999997,low,low,,ISIC_0046900.JPG,,ISIC_5239607.JPG,169,true,ll,keypress(f),0,false,289423.3000000119,289423.1999999881,284953.332,285103.6999999881,284969.877,289286.477,1,40,9,
sequence,flow.Sequence,6_8,2023-11-15T20:44:58.224Z,,,,,,,,,,4453.3229999881005,completion,,,,,,,low,low,,,,,,true,,,,false,289423.39999997616,289423.1999999881,284953.332,285103.6999999881,284969.877,289286.477,1,40,,
trial,html.Screen,6_9_0,2023-11-15T20:45:00.944Z,,,,1,-0.7193286557553458,-1.0636787813411093,,false,hh,2856.8230000119074,response,1.0000402707486682,0.8999999999999997,-0.8999999999999997,0.7041144799770903,0.8999999999999997,-0.8999999999999997,high,high,,ISIC_9690371.JPG,,ISIC_0068798.JPG,184,true,hl,keypress(j),0,false,292143.3000000119,292143.3000000119,289269.961,289423.39999997616,289286.477,292020.068,1,40,10,
sequence,flow.Sequence,6_9,2023-11-15T20:45:00.944Z,,,,,,,,,,2856.8230000119074,completion,,,,,,,high,high,,,,,,true,,,,false,292143.39999997616,292143.3000000119,289269.961,289423.39999997616,289286.477,292020.068,1,40,,
trial,html.Screen,6_10_0,2023-11-15T20:45:06.672Z,,,,1,0.9662688541319592,-0.929746784178986,,true,lh,5851.33199997613,response,-0.7010101889216934,0.8999999999999997,-0.8999999999999997,0.9022783418178474,0.8999999999999997,-0.8999999999999997,low,high,,ISIC_0011077.JPG,,ISIC_0057858.JPG,29,true,lh,keypress(e),0,false,297871.5,297871.39999997616,292003.37,292143.5,292020.068,297753.129,1,40,11,
sequence,flow.Sequence,6_10,2023-11-15T20:45:06.673Z,,,,,,,,,,5851.33199997613,completion,,,,,,,low,high,,,,,,true,,,,false,297871.59999996424,297871.39999997616,292003.37,292143.5,292020.068,297753.129,1,40,,
trial,html.Screen,6_11_0,2023-11-15T20:45:14.400Z,,,,1,0.9244148283103414,-0.9712966348713286,,false,lh,7846.270999976143,response,-0.7010101889216934,0.8999999999999997,-0.8999999999999997,0.9022783418178474,0.8999999999999997,-0.8999999999999997,low,high,,ISIC_7927525.JPG,,ISIC_0057858.JPG,29,true,hl,keypress(j),0,false,305599.5,305599.39999997616,297719.886,297871.59999996424,297753.129,305470.007,1,40,12,
sequence,flow.Sequence,6_11,2023-11-15T20:45:14.401Z,,,,,,,,,,7846.270999976143,completion,,,,,,,low,high,,,,,,true,,,,false,305599.59999996424,305599.39999997616,297719.886,297871.59999996424,297753.129,305470.007,1,40,,
trial,html.Screen,6_12_0,2023-11-15T20:45:18.609Z,,,,1,-0.737350298056154,-0.8708481721044242,,false,hh,4337.493000000017,response,0.726088143883226,0.8999999999999997,-0.8999999999999997,0.9195149254716736,0.8999999999999997,-0.8999999999999997,high,high,,ISIC_2784965.JPG,,ISIC_3445468.JPG,184,true,hl,keypress(j),0,false,309807.59999996424,309807.5,305453.135,305599.59999996424,305470.007,309686.989,1,40,13,
sequence,flow.Sequence,6_12,2023-11-15T20:45:18.609Z,,,,,,,,,,4337.493000000017,completion,,,,,,,high,high,,,,,,true,,,,false,309807.6999999881,309807.5,305453.135,305599.59999996424,305470.007,309686.989,1,40,,
trial,html.Screen,6_13_0,2023-11-15T20:45:22.128Z,,,,1,0.7688509750532941,-0.7699842387811451,,true,lh,3640.3110000119195,response,-0.7246771568562105,0.8999999999999997,-0.8999999999999997,0.9161385080362604,0.8999999999999997,-0.8999999999999997,low,high,,ISIC_0014527.JPG,,ISIC_0028225.JPG,29,true,lh,keypress(e),0,false,313327.39999997616,313327.3000000119,309653.476,309807.8000000119,309686.989,313203.36,1,40,14,
sequence,flow.Sequence,6_13,2023-11-15T20:45:22.128Z,,,,,,,,,,3640.3110000119195,completion,,,,,,,low,high,,,,,,true,,,,false,313327.5,313327.3000000119,309653.476,309807.6999999881,309686.989,313203.36,1,40,,
trial,html.Screen,6_14_0,2023-11-15T20:45:26.736Z,,,,1,-0.8034318937720549,1.0024917298189338,,true,hl,4731.839999988093,response,0.7016609136175869,0.8999999999999997,-0.8999999999999997,-0.8694041951927121,0.8999999999999997,-0.8999999999999997,high,low,,ISIC_0032766.JPG,,ISIC_0897876.JPG,43,true,hl,keypress(j),0,false,317935.3000000119,317935.1999999881,313186.52,313327.5,313203.36,317803.305,1,40,15,
sequence,flow.Sequence,6_14,2023-11-15T20:45:26.736Z,,,,,,,,,,4731.839999988093,completion,,,,,,,high,low,,,,,,true,,,,false,317935.39999997616,317935.1999999881,313186.52,313327.5,313203.36,317803.305,1,40,,
trial,html.Screen,6_15_0,2023-11-15T20:45:29.680Z,,,,1,-0.7411887874358276,0.7869222465141029,,false,hl,3075.695000000007,response,0.7629099401226335,0.8999999999999997,-0.8999999999999997,-0.8515956627075536,0.8999999999999997,-0.8999999999999997,high,low,,ISIC_6255113.JPG,,ISIC_0028718.JPG,43,true,lh,keypress(e),0,false,320879.09999996424,320879,317786.518,317935.39999997616,317803.305,320753.115,1,40,16,
sequence,flow.Sequence,6_15,2023-11-15T20:45:29.680Z,,,,,,,,,,3075.695000000007,completion,,,,,,,high,low,,,,,,true,,,,false,320879.3000000119,320879,317786.518,317935.39999997616,317803.305,320753.115,1,40,,
trial,html.Screen,6_16_0,2023-11-15T20:45:33.696Z,,,,1,-0.7260937191514694,-1.0330921542391769,,true,hh,4142.18500001193,response,0.9619672413799648,0.8999999999999997,-0.8999999999999997,1.000847348662667,0.8999999999999997,-0.8999999999999997,high,high,,ISIC_4043580.JPG,,ISIC_0067205.JPG,184,true,hh,keypress(i),0,false,324895.39999997616,324895.3000000119,320736.64,320879.3000000119,320753.115,324770.006,1,40,17,
sequence,flow.Sequence,6_16,2023-11-15T20:45:33.696Z,,,,,,,,,,4142.18500001193,completion,,,,,,,high,high,,,,,,true,,,,false,324895.5,324895.3000000119,320736.64,320879.3000000119,320753.115,324770.006,1,40,,
trial,html.Screen,6_17_0,2023-11-15T20:45:37.040Z,,,,1,0.8443403196524287,-0.8858525429102605,,true,lh,3469.294000011927,response,-0.7883321712536753,0.8999999999999997,-0.8999999999999997,1.0011430756825364,0.8999999999999997,-0.8999999999999997,low,high,,ISIC_8777813.JPG,,ISIC_9828853.JPG,29,true,lh,keypress(e),0,false,328239.39999997616,328239.3000000119,324753.263,324895.5,324770.006,328103.098,1,40,18,
sequence,flow.Sequence,6_17,2023-11-15T20:45:37.040Z,,,,,,,,,,3469.294000011927,completion,,,,,,,low,high,,,,,,true,,,,false,328239.59999996424,328239.3000000119,324753.263,324895.5,324770.006,328103.098,1,40,,
trial,html.Screen,6_18_0,2023-11-15T20:45:44.192Z,,,,1,0.8064929303349243,0.9193468294804482,,true,ll,7288.202000011923,response,-0.70951327138006,0.8999999999999997,-0.8999999999999997,-0.7652124263954667,0.8999999999999997,-0.8999999999999997,low,low,,ISIC_0060968.JPG,,ISIC_2415803.JPG,169,true,ll,keypress(f),0,false,335391.39999997616,335391.3000000119,328086.403,328239.59999996424,328103.098,335270.021,1,40,19,
sequence,flow.Sequence,6_18,2023-11-15T20:45:44.192Z,,,,,,,,,,7288.202000011923,completion,,,,,,,low,low,,,,,,true,,,,false,335391.39999997616,335391.3000000119,328086.403,328239.59999996424,328103.098,335270.021,1,40,,
trial,html.Screen,6_19_0,2023-11-15T20:45:48.544Z,,,,1,-0.8063086831157171,-0.7804750549895122,,true,hh,4473.37899997615,response,0.7059460714049748,0.8999999999999997,-0.8999999999999997,0.7603583058377162,0.8999999999999997,-0.8999999999999997,high,high,,ISIC_0002899.JPG,,ISIC_0066506.JPG,184,true,hh,keypress(i),0,false,339743.5,339743.39999997616,335253.132,335391.5,335270.021,339620.19,1,40,20,
sequence,flow.Sequence,6_19,2023-11-15T20:45:48.544Z,,,,,,,,,,4473.37899997615,completion,,,,,,,high,high,,,,,,true,,,,false,339743.59999996424,339743.39999997616,335253.132,335391.5,335270.021,339620.19,1,40,,
trial,html.Screen,6_20_0,2023-11-15T20:45:54.112Z,,,,1,-0.7411887874358276,0.7869222465141029,,false,hl,5691.209999976156,response,1.0926414044454305,0.8999999999999997,-0.8999999999999997,-0.7741624649032207,0.8999999999999997,-0.8999999999999997,high,low,,ISIC_6255113.JPG,,ISIC_2355513.JPG,43,true,lh,keypress(e),0,false,345311.39999997616,345311.39999997616,339603.231,339743.59999996424,339620.19,345186.511,1,40,21,
sequence,flow.Sequence,6_20,2023-11-15T20:45:54.112Z,,,,,,,,,,5691.209999976156,completion,,,,,,,high,low,,,,,,true,,,,false,345311.5,345311.39999997616,339603.231,339743.59999996424,339620.19,345186.511,1,40,,
trial,html.Screen,6_21_0,2023-11-15T20:45:59.200Z,,,,1,-0.7800797396940995,-0.973676161739592,,true,hh,5212.8889999761595,response,1.0789425085962503,0.8999999999999997,-0.8999999999999997,0.7554447571704619,0.8999999999999997,-0.8999999999999997,high,high,,ISIC_0641173.JPG,,ISIC_9797578.JPG,184,true,hh,keypress(i),0,false,350399.5,350399.39999997616,345169.754,345311.5,345186.511,350269.928,1,40,22,
sequence,flow.Sequence,6_21,2023-11-15T20:45:59.200Z,,,,,,,,,,5212.8889999761595,completion,,,,,,,high,high,,,,,,true,,,,false,350399.59999996424,350399.39999997616,345169.754,345311.5,345186.511,350269.928,1,40,,
trial,html.Screen,6_22_0,2023-11-15T20:46:06.480Z,,,,1,1.0924307772114292,0.725341168321984,,true,ll,7409.471999976144,response,-1.004723718805983,0.8999999999999997,-0.8999999999999997,-0.746205213256203,0.8999999999999997,-0.8999999999999997,low,low,,ISIC_0024929.JPG,,ISIC_6717322.JPG,169,true,ll,keypress(f),0,false,357679.39999997616,357679.39999997616,350253.181,350399.6999999881,350269.928,357553.332,1,40,23,
sequence,flow.Sequence,6_22,2023-11-15T20:46:06.481Z,,,,,,,,,,7409.471999976144,completion,,,,,,,low,low,,,,,,true,,,,false,357679.5,357679.39999997616,350253.181,350399.59999996424,350269.928,357553.332,1,40,,
trial,html.Screen,6_23_0,2023-11-15T20:46:09.408Z,,,,1,-0.7056033055793339,-0.9454619685729876,,false,hh,3053.968000011926,response,1.098939882801048,0.8999999999999997,-0.8999999999999997,0.7469537600215133,0.8999999999999997,-0.8999999999999997,high,high,,ISIC_1410408.JPG,,ISIC_0059897.JPG,184,true,hl,keypress(j),0,false,360607.39999997616,360607.3000000119,357536.201,357679.59999996424,357553.332,360487.435,1,40,24,
sequence,flow.Sequence,6_23,2023-11-15T20:46:09.409Z,,,,,,,,,,3053.968000011926,completion,,,,,,,high,high,,,,,,true,,,,false,360607.5,360607.3000000119,357536.201,357679.59999996424,357553.332,360487.435,1,40,,
trial,html.Screen,6_24_0,2023-11-15T20:46:17.872Z,,,,1,0.8380649167521746,0.7135701709445428,,false,ll,8583.66499996424,response,-0.8618587928964498,0.8999999999999997,-0.8999999999999997,-0.9138141165916164,0.8999999999999997,-0.8999999999999997,low,low,,ISIC_0010061.JPG,,ISIC_0004564.JPG,169,true,lh,keypress(e),0,false,369071.1999999881,369071.09999996424,360453.264,360607.59999996424,360487.435,368936.353,1,40,25,
sequence,flow.Sequence,6_24,2023-11-15T20:46:17.872Z,,,,,,,,,,8583.66499996424,completion,,,,,,,low,low,,,,,,true,,,,false,369071.3000000119,369071.09999996424,360453.264,360607.59999996424,360487.435,368936.353,1,40,,
trial,html.Screen,6_25_0,2023-11-15T20:46:23.280Z,,,,1,0.900981242677363,0.8834104283484265,,true,ll,5542.846999988076,response,-0.83166078255243,0.8999999999999997,-0.8999999999999997,-0.9118813671244655,0.8999999999999997,-0.8999999999999997,low,low,,ISIC_7236365.JPG,,ISIC_1453671.JPG,169,true,ll,keypress(f),0,false,374479.3000000119,374479.1999999881,368919.702,369071.3000000119,368936.353,374353.18,1,40,26,
sequence,flow.Sequence,6_25,2023-11-15T20:46:23.280Z,,,,,,,,,,5542.846999988076,completion,,,,,,,low,low,,,,,,true,,,,false,374479.39999997616,374479.1999999881,368919.702,369071.3000000119,368936.353,374353.18,1,40,,
trial,html.Screen,6_26_0,2023-11-15T20:46:27.888Z,,,,1,-1.0453124399868816,0.8986747280184286,,false,hl,4733.820000000007,response,0.8067627078956657,0.8999999999999997,-0.8999999999999997,-0.7115865750196155,0.8999999999999997,-0.8999999999999997,high,low,,ISIC_0013967.JPG,,ISIC_0010014.JPG,43,true,hh,keypress(i),0,false,379087.1999999881,379087,374336.476,374479.39999997616,374353.18,378953.06,1,40,27,
sequence,flow.Sequence,6_26,2023-11-15T20:46:27.888Z,,,,,,,,,,4733.820000000007,completion,,,,,,,high,low,,,,,,true,,,,false,379087.3000000119,379087,374336.476,374479.39999997616,374353.18,378953.06,1,40,,
trial,html.Screen,6_27_0,2023-11-15T20:46:30.064Z,,,,1,-0.8551569963988895,-0.7286805411358589,,false,hh,2310.3399999761605,response,0.9415126659682582,0.8999999999999997,-0.8999999999999997,1.0413549203180965,0.8999999999999997,-0.8999999999999997,high,high,,ISIC_0016014.JPG,,ISIC_4398011.JPG,184,true,hl,keypress(j),0,false,381263.39999997616,381263.39999997616,378936.508,379087.3000000119,378953.06,381136.639,1,40,28,
sequence,flow.Sequence,6_27,2023-11-15T20:46:30.065Z,,,,,,,,,,2310.3399999761605,completion,,,,,,,high,high,,,,,,true,,,,false,381263.5,381263.39999997616,378936.508,379087.3000000119,378953.06,381136.639,1,40,,
trial,html.Screen,6_28_0,2023-11-15T20:46:32.720Z,,,,1,1.013670467344924,0.8383919586371591,,false,ll,2782.4609999642125,response,-0.7607573190812582,0.8999999999999997,-0.8999999999999997,-0.7880740841769366,0.8999999999999997,-0.8999999999999997,low,low,,ISIC_0014541.JPG,,ISIC_2178689.JPG,169,true,lh,keypress(e),0,false,383919.1999999881,383919.09999996424,381119.936,381263.59999996424,381136.639,383786.404,1,40,29,
sequence,flow.Sequence,6_28,2023-11-15T20:46:32.720Z,,,,,,,,,,2782.4609999642125,completion,,,,,,,low,low,,,,,,true,,,,false,383919.3000000119,383919.09999996424,381119.936,381263.5,381136.639,383786.404,1,40,,
trial,html.Screen,6_29_0,2023-11-15T20:46:38.832Z,,,,1,-0.8110121381849364,0.7563142141851558,,false,hl,6244.8960000119405,response,0.9544693251394116,0.8999999999999997,-0.8999999999999997,-1.0727539917203766,0.8999999999999997,-0.8999999999999997,high,low,,ISIC_0033605.JPG,,ISIC_0055147.JPG,43,true,lh,keypress(e),0,false,390031.39999997616,390031.3000000119,383769.905,383919.39999997616,383786.404,389903.193,1,40,30,
sequence,flow.Sequence,6_29,2023-11-15T20:46:38.832Z,,,,,,,,,,6244.8960000119405,completion,,,,,,,high,low,,,,,,true,,,,false,390031.5,390031.3000000119,383769.905,383919.3000000119,383786.404,389903.193,1,40,,
trial,html.Screen,6_30_0,2023-11-15T20:46:41.808Z,,,,1,-0.8075741539776473,0.7326891894107508,,true,hl,3103.5069999880507,response,0.9617893983965208,0.8999999999999997,-0.8999999999999997,-0.9453006131304652,0.8999999999999997,-0.8999999999999997,high,low,,ISIC_3428523.JPG,,ISIC_4229473.JPG,43,true,hl,keypress(j),0,false,393006.8000000119,393006.6999999881,389886.426,390031.59999996424,389903.193,392887.038,1,40,31,
sequence,flow.Sequence,6_30,2023-11-15T20:46:41.808Z,,,,,,,,,,3103.5069999880507,completion,,,,,,,high,low,,,,,,true,,,,false,393007,393006.6999999881,389886.426,390031.59999996424,389903.193,392887.038,1,40,,
trial,html.Screen,6_31_0,2023-11-15T20:46:47.360Z,,,,1,-0.84290786638064,0.7332521189371746,,false,hl,5671.4619999999995,response,0.7305475296009624,0.8999999999999997,-0.8999999999999997,-0.7442779237098178,0.8999999999999997,-0.8999999999999997,high,low,,ISIC_4708642.JPG,,ISIC_7266604.JPG,43,true,ll,keypress(f),0,false,398558.59999996424,398558.5,392852.965,393007,392887.038,398436.348,1,40,32,
sequence,flow.Sequence,6_31,2023-11-15T20:46:47.360Z,,,,,,,,,,5671.4619999999995,completion,,,,,,,high,low,,,,,,true,,,,false,398558.6999999881,398558.5,392852.965,393007,392887.038,398436.348,1,40,,
trial,html.Screen,6_32_0,2023-11-15T20:46:53.152Z,,,,1,-0.979674241817633,-0.8567251746816678,,true,hh,5914.952000011923,response,1.0396291493634244,0.8999999999999997,-0.8999999999999997,0.8099604275482958,0.8999999999999997,-0.8999999999999997,high,high,,ISIC_0006757.JPG,,ISIC_0068580.JPG,184,true,hh,keypress(i),0,false,404351.39999997616,404351.3000000119,398419.511,398558.8000000119,398436.348,404219.795,1,40,33,
sequence,flow.Sequence,6_32,2023-11-15T20:46:53.152Z,,,,,,,,,,5914.952000011923,completion,,,,,,,high,high,,,,,,true,,,,false,404351.5,404351.3000000119,398419.511,398558.8000000119,398436.348,404219.795,1,40,,
trial,html.Screen,6_33_0,2023-11-15T20:46:56.752Z,,,,1,0.8867328775712738,-1.0063426986460375,,true,lh,3731.4049999880954,response,-0.8830264383952469,0.8999999999999997,-0.8999999999999997,0.8635562538060516,0.8999999999999997,-0.8999999999999997,low,high,,ISIC_0055759.JPG,,ISIC_0032258.JPG,29,true,lh,keypress(e),0,false,407951.1999999881,407951.1999999881,404202.936,404351.5,404219.795,407820.002,1,40,34,
sequence,flow.Sequence,6_33,2023-11-15T20:46:56.752Z,,,,,,,,,,3731.4049999880954,completion,,,,,,,low,high,,,,,,true,,,,false,407951.3000000119,407951.1999999881,404202.936,404351.5,404219.795,407820.002,1,40,,
trial,html.Screen,6_34_0,2023-11-15T20:47:02.096Z,,,,1,0.8069112035903693,0.7730616186864473,,false,ll,5474.89799997618,response,-0.710846172611277,0.8999999999999997,-0.8999999999999997,-1.086313423336944,0.8999999999999997,-0.8999999999999997,low,low,,ISIC_7074321.JPG,,ISIC_0946923.JPG,169,true,hl,keypress(j),0,false,413295,413294.89999997616,407803.173,407951.39999997616,407820.002,413170.107,1,40,35,
sequence,flow.Sequence,6_34,2023-11-15T20:47:02.096Z,,,,,,,,,,5474.89799997618,completion,,,,,,,low,low,,,,,,true,,,,false,413295.09999996424,413294.89999997616,407803.173,407951.39999997616,407820.002,413170.107,1,40,,
trial,html.Screen,6_35_0,2023-11-15T20:47:07.232Z,,,,1,-0.7991459998473059,1.0280788723474688,,true,hl,5261.193000011903,response,0.7396001261916139,0.8999999999999997,-0.8999999999999997,-0.9901017340796716,0.8999999999999997,-0.8999999999999997,high,low,,ISIC_7951202.JPG,,ISIC_8679617.JPG,43,true,hl,keypress(j),0,false,418431.39999997616,418431.3000000119,413152.824,413295.09999996424,413170.107,418303.206,1,40,36,
sequence,flow.Sequence,6_35,2023-11-15T20:47:07.232Z,,,,,,,,,,5261.193000011903,completion,,,,,,,high,low,,,,,,true,,,,false,418431.5,418431.3000000119,413152.824,413295.09999996424,413170.107,418303.206,1,40,,
trial,html.Screen,6_36_0,2023-11-15T20:47:12.832Z,,,,1,0.8312823923310584,0.9576418532667232,,false,ll,5727.893999964232,response,-1.006091591942289,0.8999999999999997,-0.8999999999999997,-0.8039345947564286,0.8999999999999997,-0.8999999999999997,low,low,,ISIC_3688407.JPG,,ISIC_6993129.JPG,169,true,lh,keypress(e),0,false,424031.1999999881,424031.09999996424,418286.542,418431.5,418303.206,423903.242,1,40,37,
sequence,flow.Sequence,6_36,2023-11-15T20:47:12.832Z,,,,,,,,,,5727.893999964232,completion,,,,,,,low,low,,,,,,true,,,,false,424031.3000000119,424031.09999996424,418286.542,418431.5,418303.206,423903.242,1,40,,
trial,html.Screen,6_37_0,2023-11-15T20:47:17.504Z,,,,1,-0.8719231363109603,0.7704280220140033,,true,hl,4800.157999976131,response,1.0788024398087033,0.8999999999999997,-0.8999999999999997,-0.9911875460374616,0.8999999999999997,-0.8999999999999997,high,low,,ISIC_0029453.JPG,,ISIC_5951430.JPG,43,true,hl,keypress(j),0,false,428703.5,428703.39999997616,423886.347,424031.39999997616,423903.242,428569.68,1,40,38,
sequence,flow.Sequence,6_37,2023-11-15T20:47:17.505Z,,,,,,,,,,4800.157999976131,completion,,,,,,,high,low,,,,,,true,,,,false,428703.59999996424,428703.39999997616,423886.347,424031.39999997616,423903.242,428569.68,1,40,,
trial,html.Screen,6_38_0,2023-11-15T20:47:23.360Z,,,,1,0.9662688541319592,-0.929746784178986,,true,lh,5989.519999988086,response,-0.789083277544982,0.8999999999999997,-0.8999999999999997,0.7172067273002093,0.8999999999999997,-0.8999999999999997,low,high,,ISIC_0011077.JPG,,ISIC_0011030.JPG,29,true,lh,keypress(e),0,false,434559.1999999881,434559.1999999881,428553.107,428703.6999999881,428569.68,434436.452,1,40,39,
sequence,flow.Sequence,6_38,2023-11-15T20:47:23.360Z,,,,,,,,,,5989.519999988086,completion,,,,,,,low,high,,,,,,true,,,,false,434559.39999997616,434559.1999999881,428553.107,428703.6999999881,428569.68,434436.452,1,40,,
trial,html.Screen,6_39_0,2023-11-15T20:47:27.008Z,,,,1,1.0189634710647173,0.7310110375972448,,false,ll,3770.04800000001,response,-1.0348000491894005,0.8999999999999997,-0.8999999999999997,-0.7770667763745356,0.8999999999999997,-0.8999999999999997,low,low,,ISIC_0057949.JPG,,ISIC_2565154.JPG,169,true,lh,keypress(e),0,false,438206.59999996424,438206.5,434419.449,434559.39999997616,434436.452,438086.835,1,40,40,
sequence,flow.Sequence,6_39,2023-11-15T20:47:27.008Z,,,,,,,,,,3770.04800000001,completion,,,,,,,low,low,,,,,,true,,,,false,438206.6999999881,438206.5,434419.449,434559.39999997616,434436.452,438086.835,1,40,,
practice_loop,flow.Loop,6,2023-11-15T20:47:27.008Z,,,,,,,,,,189503.308,completion,,,,,,,,,,,,,,true,,,,false,438206.6999999881,438206.5,248686.544,248844.09999996424,248703.192,438086.835,1,40,,
stair_instructions,html.Screen,7,2023-11-15T20:47:33.279Z,,,,,,,,,,6390.4650000119,response,,,,,,,,,,,,,,,continue,click button,,,444478,444477.3000000119,438053.181,438206.8000000119,438086.835,444353.089,,,,
trial,html.Screen,8_0_0,2023-11-15T20:47:39.491Z,,,,2,0.0273855825278348,-0.0566295048930719,,true,hh,6336.510999964259,response,0.772342084429769,0.8999999999999997,-0.8999999999999997,0.8755566396204548,0.8999999999999997,-0.8999999999999997,high,high,,ISIC_0000141.JPG,,ISIC_0071430.JPG,184,false,hh,keypress(i),0,true,450689.59999996424,450689.59999996424,444336.557,444478.09999996424,444353.089,450569.632,1,40,1,
sequence,flow.Sequence,8_0,2023-11-15T20:47:39.491Z,,,,,,,,,,6336.510999964259,completion,,,,,,,high,high,,,,,,false,,,,true,450689.6999999881,450689.59999996424,444336.557,444478.09999996424,444353.089,450569.632,1,40,,
trial,html.Screen,8_1_0,2023-11-15T20:47:44.192Z,,,,2,0.0478761683145946,-0.012927090508672,,false,hl,4821.368000000017,response,0.9138670886161264,0.8999999999999997,-0.8999999999999997,-0.8414121478342018,0.8999999999999997,-0.8999999999999997,high,low,,ISIC_9631669.JPG,,ISIC_6709052.JPG,43,false,lh,keypress(e),0,true,455391.09999996424,455391,450552.953,450689.8000000119,450569.632,455270.056,1,40,2,
sequence,flow.Sequence,8_1,2023-11-15T20:47:44.192Z,,,,,,,,,,4821.368000000017,completion,,,,,,,high,low,,,,,,false,,,,true,455391.1999999881,455391,450552.953,450689.6999999881,450569.632,455270.056,1,40,,
trial,html.Screen,8_2_0,2023-11-15T20:47:48.768Z,,,,2,0.0564512008196606,-0.0205312570039753,,false,hl,4697.143999988097,response,0.9544693251394116,0.9499999999999997,-0.8999999999999997,-1.0727539917203766,0.8999999999999997,-0.9499999999999997,high,low,,ISIC_9019691.JPG,,ISIC_0055147.JPG,30,false,lh,keypress(e),0,true,459967.3000000119,459967.1999999881,455253.008,455391.1999999881,455270.056,459836.457,1,40,3,
sequence,flow.Sequence,8_2,2023-11-15T20:47:48.768Z,,,,,,,,,,4697.143999988097,completion,,,,,,,high,low,,,,,,false,,,,true,459967.39999997616,459967.1999999881,455253.008,455391.1999999881,455270.056,459836.457,1,40,,
trial,html.Screen,8_3_0,2023-11-15T20:47:52.288Z,,,,2,-0.0447960916594447,-0.0451557856659748,,false,hl,3650.742999988084,response,0.8443403196524287,0.9499999999999997,-0.8499999999999996,-0.8858525429102605,0.8499999999999996,-0.9499999999999997,high,low,,ISIC_1379405.JPG,,ISIC_8777813.JPG,30,false,lh,keypress(e),0,true,463487.39999997616,463487.1999999881,459819.737,459967.39999997616,459836.457,463352.974,1,40,4,
sequence,flow.Sequence,8_3,2023-11-15T20:47:52.288Z,,,,,,,,,,3650.742999988084,completion,,,,,,,high,low,,,,,,false,,,,true,463487.5,463487.1999999881,459819.737,459967.39999997616,459836.457,463352.974,1,40,,
trial,html.Screen,8_4_0,2023-11-15T20:47:56.194Z,,,,2,-0.0308384937406319,0.0038396364323947,,true,hh,4040.4259999761707,response,1.1849883512428183,0.9999999999999998,-0.8499999999999996,0.6603403567915567,0.8499999999999996,-0.9999999999999998,high,high,,ISIC_0029825.JPG,,ISIC_0064943.JPG,157,false,hh,keypress(i),0,true,467393.5,467393.39999997616,463336.455,463487.5,463352.974,467269.697,1,40,5,
sequence,flow.Sequence,8_4,2023-11-15T20:47:56.195Z,,,,,,,,,,4040.4259999761707,completion,,,,,,,high,high,,,,,,false,,,,true,467393.59999996424,467393.39999997616,463336.455,463487.5,463352.974,467269.697,1,40,,
trial,html.Screen,8_5_0,2023-11-15T20:48:03.872Z,,,,2,-0.0200295718112167,-0.0155559071275806,,false,lh,7801.5029999880935,response,-0.7246771568562105,0.9999999999999998,-0.8499999999999996,0.9161385080362604,0.8726643540171874,-0.9999999999999998,low,high,,ISIC_0061343.JPG,,ISIC_0028225.JPG,41,false,ll,keypress(f),0,true,475071.3000000119,475071.1999999881,467253.105,467393.6999999881,467269.697,474936.273,1,40,6,
sequence,flow.Sequence,8_5,2023-11-15T20:48:03.872Z,,,,,,,,,,7801.5029999880935,completion,,,,,,,low,high,,,,,,false,,,,true,475071.39999997616,475071.1999999881,467253.105,467393.6999999881,467269.697,474936.273,1,40,,
trial,html.Screen,8_6_0,2023-11-15T20:48:12.016Z,,,,2,0.0198696495649504,-0.0387952353063878,,true,ll,8278.82699996425,response,-0.7329112094844119,0.9999999999999998,-0.8499999999999996,-1.0828420308854412,0.9226643540171875,-0.9999999999999998,low,low,,ISIC_6735970.JPG,,ISIC_5778927.JPG,143,false,ll,keypress(f),0,true,483215.1999999881,483215.09999996424,474919.601,475071.39999997616,474936.273,483086.313,1,40,7,
sequence,flow.Sequence,8_6,2023-11-15T20:48:12.016Z,,,,,,,,,,8278.82699996425,completion,,,,,,,low,low,,,,,,false,,,,true,483215.3000000119,483215.09999996424,474919.601,475071.39999997616,474936.273,483086.313,1,40,,
trial,html.Screen,8_7_0,2023-11-15T20:48:16.720Z,,,,2,-0.0715931084231032,0.011427878877272,,false,lh,4832.7869999642135,response,-0.8828738626295417,0.9999999999999998,-0.8578766201849265,0.8288177599439582,0.9226643540171875,-0.9999999999999998,low,high,,ISIC_1470250.JPG,,ISIC_0056041.JPG,32,false,hl,keypress(j),0,true,487919.1999999881,487919.09999996424,483069.773,483215.39999997616,483086.313,487786.252,1,40,8,
sequence,flow.Sequence,8_7,2023-11-15T20:48:16.720Z,,,,,,,,,,4832.7869999642135,completion,,,,,,,low,high,,,,,,false,,,,true,487919.3000000119,487919.09999996424,483069.773,483215.39999997616,483086.313,487786.252,1,40,,
trial,html.Screen,8_8_0,2023-11-15T20:48:19.760Z,,,,2,0.039520186367207,0.0377961575607372,,false,ll,3172.9479999881005,response,-0.8073835700282378,0.9999999999999998,-0.9078766201849265,-1.0079605779898853,0.9726643540171875,-0.9999999999999998,low,low,,ISIC_6356149.JPG,,ISIC_5335139.JPG,138,false,hl,keypress(j),0,true,490959.3000000119,490959.1999999881,487769.904,487919.3000000119,487786.252,490836.526,1,40,9,
sequence,flow.Sequence,8_8,2023-11-15T20:48:19.760Z,,,,,,,,,,3172.9479999881005,completion,,,,,,,low,low,,,,,,false,,,,true,490959.39999997616,490959.1999999881,487769.904,487919.3000000119,487786.252,490836.526,1,40,,
trial,html.Screen,8_9_0,2023-11-15T20:48:26.928Z,,,,2,-0.0606387586319451,-0.0283716809868572,,false,lh,7290.573999964225,response,-1.075512775389519,0.9499999999999997,-0.9078766201849265,1.0454702683049502,0.9226643540171875,-0.945401304437663,low,high,,ISIC_0061158.JPG,,ISIC_0033603.JPG,25,false,ll,keypress(f),0,true,498127.1999999881,498127.09999996424,490819.749,490959.5,490836.526,498003.123,1,40,10,
sequence,flow.Sequence,8_9,2023-11-15T20:48:26.928Z,,,,,,,,,,7290.573999964225,completion,,,,,,,low,high,,,,,,false,,,,true,498127.3000000119,498127.09999996424,490819.749,490959.39999997616,490836.526,498003.123,1,40,,
trial,html.Screen,8_10_0,2023-11-15T20:48:30.352Z,,,,2,-0.0009714874637896,0.0174815595031679,,false,hh,3547.8769999999786,response,0.7991796180405828,0.9499999999999997,-0.9078766201849265,0.8257025902625775,0.9726643540171875,-0.945401304437663,high,high,,ISIC_9848743.JPG,,ISIC_0010478.JPG,162,false,hl,keypress(j),0,true,501551.1999999881,501551,497986.192,498127.39999997616,498003.123,501419.754,1,40,11,
sequence,flow.Sequence,8_10,2023-11-15T20:48:30.352Z,,,,,,,,,,3547.8769999999786,completion,,,,,,,high,high,,,,,,false,,,,true,501551.1999999881,501551,497986.192,498127.39999997616,498003.123,501419.754,1,40,,
trial,html.Screen,8_11_0,2023-11-15T20:48:34.432Z,,,,2,0.0088741920055285,0.0058246074740588,,true,lh,4211.445999988064,response,-0.8926515927689261,0.8499999999999996,-0.8578766201849265,0.7935960767768927,0.9726643540171875,-0.895401304437663,low,high,,ISIC_4136663.JPG,,ISIC_8901371.JPG,25,false,lh,keypress(e),0,true,505631.3000000119,505631.1999999881,501402.85,501551.1999999881,501419.754,505503.149,1,40,12,
sequence,flow.Sequence,8_11,2023-11-15T20:48:34.432Z,,,,,,,,,,4211.445999988064,completion,,,,,,,low,high,,,,,,false,,,,true,505631.5,505631.1999999881,501402.85,501551.1999999881,501419.754,505503.149,1,40,,
trial,html.Screen,8_12_0,2023-11-15T20:48:38.992Z,,,,2,0.0418938536494534,-0.0678614270583654,,false,lh,4688.151000011945,response,-0.6847356212299776,0.8499999999999996,-0.8078766201849265,0.8347403229058601,0.9726643540171875,-0.895401304437663,low,high,,ISIC_0027573.JPG,,ISIC_0064517.JPG,28,false,hh,keypress(i),0,true,510191.39999997616,510191.3000000119,505486.203,505631.5,505503.149,510069.591,1,40,13,
sequence,flow.Sequence,8_12,2023-11-15T20:48:38.993Z,,,,,,,,,,4688.151000011945,completion,,,,,,,low,high,,,,,,false,,,,true,510191.5,510191.3000000119,505486.203,505631.5,505503.149,510069.591,1,40,,
trial,html.Screen,8_13_0,2023-11-15T20:48:45.440Z,,,,2,-0.0220026381002083,0.0170756452911772,,true,hh,6569.508999964222,response,0.7870680543001342,0.8499999999999996,-0.8578766201849265,0.6481051928705829,0.7641681998413763,-0.895401304437663,high,high,,ISIC_5347806.JPG,,ISIC_0010426.JPG,235,false,hh,keypress(i),0,true,516639.3000000119,516639.09999996424,510052.925,510191.5,510069.591,516502.859,1,40,14,
sequence,flow.Sequence,8_13,2023-11-15T20:48:45.440Z,,,,,,,,,,6569.508999964222,completion,,,,,,,high,high,,,,,,false,,,,true,516639.3000000119,516639.09999996424,510052.925,510191.5,510069.591,516502.859,1,40,,
trial,html.Screen,8_14_0,2023-11-15T20:48:49.760Z,,,,2,-0.0727065082131878,-0.0601627969482033,,false,hh,4456.441000011924,response,0.7452700151122865,0.8499999999999996,-0.8578766201849265,0.7438857109222746,0.7641681998413763,-0.895401304437663,high,high,,ISIC_2245069.JPG,,ISIC_0027067.JPG,235,false,hl,keypress(j),0,true,520959.39999997616,520959.3000000119,516486.27,516639.39999997616,516502.859,520836.464,1,40,15,
sequence,flow.Sequence,8_14,2023-11-15T20:48:49.760Z,,,,,,,,,,4456.441000011924,completion,,,,,,,high,high,,,,,,false,,,,true,520959.5,520959.3000000119,516486.27,516639.39999997616,516502.859,520836.464,1,40,,
trial,html.Screen,8_15_0,2023-11-15T20:48:53.936Z,,,,2,-0.0249297455748133,0.055986418955019,,false,lh,4298.536000000022,response,-0.9292144567580788,0.6466876039914347,-0.8578766201849265,0.6431072529043046,0.8141681998413763,-0.895401304437663,low,high,,ISIC_3900049.JPG,,ISIC_4108397.JPG,50,false,ll,keypress(f),0,true,525135.0999999642,525135,520819.699,520959.5,520836.464,525002.959,1,40,16,
sequence,flow.Sequence,8_15,2023-11-15T20:48:53.936Z,,,,,,,,,,4298.536000000022,completion,,,,,,,low,high,,,,,,false,,,,true,525135.1999999881,525135,520819.699,520959.5,520836.464,525002.959,1,40,,
trial,html.Screen,8_16_0,2023-11-15T20:49:01.248Z,,,,2,0.039520186367207,0.0377961575607372,,false,hh,7444.140999964206,response,0.5843780496914245,0.6466876039914347,-0.8578766201849265,0.8086759551249599,0.8641681998413764,-0.895401304437663,high,high,,ISIC_6356149.JPG,,ISIC_9337870.JPG,266,false,hl,keypress(j),0,true,532447.1999999881,532447.0999999642,524986.351,525135.1999999881,525002.959,532319.967,1,40,17,
sequence,flow.Sequence,8_16,2023-11-15T20:49:01.248Z,,,,,,,,,,7444.140999964206,completion,,,,,,,high,high,,,,,,false,,,,true,532447.3000000119,532447.0999999642,524986.351,525135.1999999881,525002.959,532319.967,1,40,,
trial,html.Screen,8_17_0,2023-11-15T20:49:04.768Z,,,,2,0.0418938536494534,-0.0678614270583654,,false,hh,3647.1329999642912,response,0.710346464977095,0.6466876039914347,-0.8578766201849265,0.764416987038234,0.9141681998413764,-0.895401304437663,high,high,,ISIC_0027573.JPG,,ISIC_6125652.JPG,251,false,hl,keypress(j),0,true,535967.1999999881,535967.0999999642,532302.895,532447.3000000119,532319.967,535836.324,1,40,18,
sequence,flow.Sequence,8_17,2023-11-15T20:49:04.768Z,,,,,,,,,,3647.1329999642912,completion,,,,,,,high,high,,,,,,false,,,,true,535967.3000000119,535967.0999999642,532302.895,532447.3000000119,532319.967,535836.324,1,40,,
trial,html.Screen,8_18_0,2023-11-15T20:49:07.408Z,,,,2,-0.0524649813000588,0.0155452034299028,,false,ll,2770.775999964215,response,-1.0040510013663018,0.5973622573342596,-0.8578766201849265,-0.9707475308236284,0.9641681998413765,-0.895401304437663,low,low,,ISIC_0030087.JPG,,ISIC_0026911.JPG,180,false,lh,keypress(e),0,true,538607.3000000119,538607.0999999642,535819.88,535967.3000000119,535836.324,538487.313,1,40,19,
sequence,flow.Sequence,8_18,2023-11-15T20:49:07.408Z,,,,,,,,,,2770.775999964215,completion,,,,,,,low,low,,,,,,false,,,,true,538607.3000000119,538607.0999999642,535819.88,535967.3000000119,535836.324,538487.313,1,40,,
trial,html.Screen,8_19_0,2023-11-15T20:49:09.568Z,,,,2,0.0586587895724749,0.0220047273041276,,false,ll,2279.1870000000345,response,-0.764893988285809,0.5973622573342596,-0.8078766201849265,-1.055978100098093,0.9641681998413765,-0.945401304437663,low,low,,ISIC_0028320.JPG,,ISIC_2077116.JPG,182,false,lh,keypress(e),0,true,540766.5,540766.5,538453.237,538607.3999999762,538487.313,540636.177,1,40,20,
sequence,flow.Sequence,8_19,2023-11-15T20:49:09.568Z,,,,,,,,,,2279.1870000000345,completion,,,,,,,low,low,,,,,,false,,,,true,540766.6999999881,540766.5,538453.237,538607.3000000119,538487.313,540636.177,1,40,,
trial,html.Screen,8_20_0,2023-11-15T20:49:11.712Z,,,,2,0.0088741920055285,0.0058246074740588,,false,ll,2275.123000011896,response,-0.7918012854539199,0.5973622573342596,-0.8078766201849265,-1.0631481857644678,0.9641681998413765,-0.9954013044376631,low,low,,ISIC_4136663.JPG,,ISIC_0033137.JPG,155,false,lh,keypress(e),0,true,542911.3999999762,542911.3000000119,540619.641,540766.8000000119,540636.177,542786.449,1,40,21,
sequence,flow.Sequence,8_20,2023-11-15T20:49:11.713Z,,,,,,,,,,2275.123000011896,completion,,,,,,,low,low,,,,,,false,,,,true,542911.3999999762,542911.3000000119,540619.641,540766.8000000119,540636.177,542786.449,1,40,,
trial,html.Screen,8_21_0,2023-11-15T20:49:18.112Z,,,,2,0.0123274848503577,-0.0516828290734233,,false,hh,6524.550999999978,response,0.6888517054321138,0.5973622573342596,-0.7283476368698645,1.0738390982868342,0.9641681998413765,-1.045401304437663,high,high,,ISIC_0056790.JPG,,ISIC_0030002.JPG,239,false,hl,keypress(j),0,true,549311.0999999642,549311,542769.731,542911.5,542786.449,549186.435,1,40,22,
sequence,flow.Sequence,8_21,2023-11-15T20:49:18.112Z,,,,,,,,,,6524.550999999978,completion,,,,,,,high,high,,,,,,false,,,,true,549311.3000000119,549311,542769.731,542911.5,542786.449,549186.435,1,40,,
trial,html.Screen,8_22_0,2023-11-15T20:49:20.864Z,,,,2,-0.0715931084231032,0.011427878877272,,true,lh,2876.6649999641813,response,-0.6232846435651058,0.5973622573342596,-0.7283476368698645,0.870797302150167,1.0141681998413765,-1.045401304437663,low,high,,ISIC_1470250.JPG,,ISIC_0055841.JPG,36,false,lh,keypress(e),0,true,552063.1999999881,552063.0999999642,549169.366,549311.3000000119,549186.435,551936.431,1,40,23,
sequence,flow.Sequence,8_22,2023-11-15T20:49:20.864Z,,,,,,,,,,2876.6649999641813,completion,,,,,,,low,high,,,,,,false,,,,true,552063.3000000119,552063.0999999642,549169.366,549311.3000000119,549186.435,551936.431,1,40,,
trial,html.Screen,8_23_0,2023-11-15T20:49:25.632Z,,,,2,0.0326050223870869,0.0579165897319751,,false,ll,4894.768999988097,response,-0.9242629064104082,0.5973622573342596,-0.7283476368698645,-1.0085499824556403,1.0141681998413765,-1.045401304437663,low,low,,ISIC_4570724.JPG,,ISIC_7795549.JPG,184,false,hl,keypress(j),0,true,556831.3000000119,556831.1999999881,551919.713,552063.3000000119,551936.431,556703.058,1,40,24,
sequence,flow.Sequence,8_23,2023-11-15T20:49:25.632Z,,,,,,,,,,4894.768999988097,completion,,,,,,,low,low,,,,,,false,,,,true,556831.3000000119,556831.1999999881,551919.713,552063.3000000119,551936.431,556703.058,1,40,,
trial,html.Screen,8_24_0,2023-11-15T20:49:27.793Z,,,,2,-0.0220026381002083,0.0170756452911772,,false,ll,2288.5419999642763,response,-0.8060364385508932,0.5973622573342596,-0.7783476368698645,-1.1901903479241411,1.0141681998413765,-1.045401304437663,low,low,,ISIC_5347806.JPG,,ISIC_7454512.JPG,154,false,hl,keypress(j),0,true,558991.6999999881,558991.5999999642,556686.345,556831.3000000119,556703.058,558869.502,1,40,25,
sequence,flow.Sequence,8_24,2023-11-15T20:49:27.793Z,,,,,,,,,,2288.5419999642763,completion,,,,,,,low,low,,,,,,false,,,,true,558991.8999999762,558991.5999999642,556686.345,556831.3000000119,556703.058,558869.502,1,40,,
trial,html.Screen,8_25_0,2023-11-15T20:49:31.120Z,,,,2,0.0273175221875807,0.0515126441328492,,true,lh,3449.5979999642586,response,-0.6742481921837281,0.5973622573342596,-0.8283476368698646,0.9118635731669033,1.0141681998413765,-1.0493701651898906,low,high,,ISIC_0064034.JPG,,ISIC_7961365.JPG,23,false,lh,keypress(e),0,true,562319.1999999881,562319.0999999642,558852.794,558991.8999999762,558869.502,562186.323,1,40,26,
sequence,flow.Sequence,8_25,2023-11-15T20:49:31.120Z,,,,,,,,,,3449.5979999642586,completion,,,,,,,low,high,,,,,,false,,,,true,562319.3000000119,562319.0999999642,558852.794,558991.8999999762,558869.502,562186.323,1,40,,
trial,html.Screen,8_26_0,2023-11-15T20:49:34.832Z,,,,2,0.0010920693448107,0.0492408806128631,,false,hl,3844.376999988104,response,0.411429415510906,0.5973622573342596,-0.8283476368698646,-1.0485268550965705,0.9641681998413765,-1.0493701651898906,high,low,,ISIC_6155981.JPG,,ISIC_0030666.JPG,57,false,lh,keypress(e),0,true,566030.8000000119,566030.6999999881,562169.67,562319.3000000119,562186.323,565903.257,1,40,27,
sequence,flow.Sequence,8_26,2023-11-15T20:49:34.832Z,,,,,,,,,,3844.376999988104,completion,,,,,,,high,low,,,,,,false,,,,true,566030.8999999762,566030.6999999881,562169.67,562319.3000000119,562186.323,565903.257,1,40,,
trial,html.Screen,8_27_0,2023-11-15T20:49:37.200Z,,,,2,0.0409660561823769,-0.039283578935498,,false,ll,2495.942999988096,response,-0.8526775318290718,0.6473622573342597,-0.8283476368698646,-0.9398012765219632,0.9641681998413765,-1.0993701651898906,low,low,,ISIC_0479264.JPG,,ISIC_2647198.JPG,132,false,lh,keypress(e),0,true,568399.3000000119,568399.1999999881,565886.313,566030.8999999762,565903.257,568269.476,1,40,28,
sequence,flow.Sequence,8_27,2023-11-15T20:49:37.201Z,,,,,,,,,,2495.942999988096,completion,,,,,,,low,low,,,,,,false,,,,true,568399.3999999762,568399.1999999881,565886.313,566030.8999999762,565903.257,568269.476,1,40,,
trial,html.Screen,8_28_0,2023-11-15T20:49:45.696Z,,,,2,0.001445457736793,0.0165307427449982,,false,hl,8625.623999964213,response,0.5132683418835376,0.6473622573342597,-0.7134628620063999,-1.2795156779072283,0.9641681998413765,-1.1493701651898907,high,low,,ISIC_0027350.JPG,,ISIC_1925632.JPG,35,false,ll,keypress(f),0,true,576895.1999999881,576895.0999999642,568252.861,568399.5,568269.476,576769.739,1,40,29,
sequence,flow.Sequence,8_28,2023-11-15T20:49:45.696Z,,,,,,,,,,8625.623999964213,completion,,,,,,,high,low,,,,,,false,,,,true,576895.1999999881,576895.0999999642,568252.861,568399.5,568269.476,576769.739,1,40,,
trial,html.Screen,8_29_0,2023-11-15T20:49:51.600Z,,,,2,0.0146597765042814,0.06222227493177,,false,hl,6029.360999964294,response,0.6866466162921743,0.6973622573342597,-0.7134628620063999,-0.9993010401520164,0.9641681998413765,-1.1493701651898907,high,low,,ISIC_5982769.JPG,,ISIC_6155782.JPG,27,false,hh,keypress(i),0,true,582799.1999999881,582799.0999999642,576752.564,576895.3000000119,576769.739,582669.606,1,40,30,
sequence,flow.Sequence,8_29,2023-11-15T20:49:51.600Z,,,,,,,,,,6029.360999964294,completion,,,,,,,high,low,,,,,,false,,,,true,582799.3000000119,582799.0999999642,576752.564,576895.3000000119,576769.739,582669.606,1,40,,
trial,html.Screen,8_30_0,2023-11-15T20:49:57.616Z,,,,2,-0.0700576547090477,0.0026956749740767,,true,hl,6144.893999999971,response,0.6493357552537865,0.6973622573342597,-0.7134628620063999,-1.085710894474977,0.9641681998413765,-1.1993701651898907,high,low,,ISIC_7212271.JPG,,ISIC_0013644.JPG,22,false,hl,keypress(j),0,true,588814.5999999642,588814.5,582652.6,582799.3999999762,582669.606,588686.226,1,40,31,
sequence,flow.Sequence,8_30,2023-11-15T20:49:57.616Z,,,,,,,,,,6144.893999999971,completion,,,,,,,high,low,,,,,,false,,,,true,588814.6999999881,588814.5,582652.6,582799.3000000119,582669.606,588686.226,1,40,,
trial,html.Screen,8_31_0,2023-11-15T20:50:02.560Z,,,,2,0.0198696495649504,-0.0387952353063878,,true,hh,5072.873999964213,response,0.485609787469248,0.6473622573342597,-0.7134628620063999,0.8813449419999657,0.9641681998413765,-1.1993701651898907,high,high,,ISIC_6735970.JPG,,ISIC_0069432.JPG,230,false,hh,keypress(i),0,true,593759.1999999881,593759.0999999642,588669.287,588814.8000000119,588686.226,593636.393,1,40,32,
sequence,flow.Sequence,8_31,2023-11-15T20:50:02.560Z,,,,,,,,,,5072.873999964213,completion,,,,,,,high,high,,,,,,false,,,,true,593759.3000000119,593759.0999999642,588669.287,588814.8000000119,588686.226,593636.393,1,40,,
trial,html.Screen,8_32_0,2023-11-15T20:50:05.840Z,,,,2,-0.0715931084231032,0.011427878877272,,true,lh,3402.506999976118,response,-0.7882758084023446,0.6473622573342597,-0.7134628620063999,0.8296405881378283,0.9641681998413765,-1.1993701651898907,low,high,,ISIC_1470250.JPG,,ISIC_0065882.JPG,48,false,lh,keypress(e),0,true,597038.8999999762,597038.8999999762,593619.49,593759.3999999762,593636.393,596902.786,1,40,33,
sequence,flow.Sequence,8_32,2023-11-15T20:50:05.840Z,,,,,,,,,,3402.506999976118,completion,,,,,,,low,high,,,,,,false,,,,true,597039,597038.8999999762,593619.49,593759.3000000119,593636.393,596902.786,1,40,,
trial,html.Screen,8_33_0,2023-11-15T20:50:11.568Z,,,,2,,0.0102871556606504,,false,hl,5864.214000000036,response,0.4508420106854047,0.6473622573342597,-0.7134628620063999,-1.1523782210394555,0.9141681998413764,-1.1993701651898907,high,low,,ISIC_1805163.JPG,,ISIC_2399613.JPG,27,false,hh,keypress(i),0,true,602767.1999999881,602767,596886.48,597039.0999999642,596902.786,602636.254,1,40,34,
sequence,flow.Sequence,8_33,2023-11-15T20:50:11.568Z,,,,,,,,,,5864.214000000036,completion,,,,,,,high,low,,,,,,false,,,,true,602767.1999999881,602767,596886.48,597039.0999999642,596902.786,602636.254,1,40,,
trial,html.Screen,8_34_0,2023-11-15T20:50:15.680Z,,,,2,0.0388334549081915,-0.0303399972963369,,true,hl,4242.645999976201,response,0.4564179720807195,0.5973622573342596,-0.7134628620063999,-1.1713749785597822,0.9141681998413764,-1.1993701651898907,high,low,,ISIC_4961708.JPG,,ISIC_8195604.JPG,27,false,hl,keypress(j),0,true,606879,606878.8999999762,602619.381,602767.3000000119,602636.254,606752.991,1,40,35,
sequence,flow.Sequence,8_34,2023-11-15T20:50:15.680Z,,,,,,,,,,4242.645999976201,completion,,,,,,,high,low,,,,,,false,,,,true,606879.0999999642,606878.8999999762,602619.381,602767.3000000119,602636.254,606752.991,1,40,,
trial,html.Screen,8_35_0,2023-11-15T20:50:20.032Z,,,,2,-0.0727065082131878,-0.0601627969482033,,true,ll,4478.008999999962,response,-0.8771268423449017,0.5973622573342596,-0.7134628620063999,-1.1920987821412627,0.9141681998413764,-1.1993701651898907,low,low,,ISIC_2245069.JPG,,ISIC_9957389.JPG,126,false,ll,keypress(f),0,true,611231.0999999642,611231,606736.262,606879.1999999881,606752.991,611103.022,1,40,36,
sequence,flow.Sequence,8_35,2023-11-15T20:50:20.032Z,,,,,,,,,,4478.008999999962,completion,,,,,,,low,low,,,,,,false,,,,true,611231.1999999881,611231,606736.262,606879.1999999881,606752.991,611103.022,1,40,,
trial,html.Screen,8_36_0,2023-11-15T20:50:28.304Z,,,,2,0.0080817964357627,-0.0444435264307931,,false,hl,8400.177999988082,response,0.4564179720807195,0.5973622573342596,-1.1317368803505226,-1.1713749785597822,0.9141681998413764,-1.1317368803505226,high,low,,ISIC_0013165.JPG,,ISIC_8195604.JPG,43,false,lh,keypress(e),0,true,619503.3000000119,619503.1999999881,611085.973,611231.1999999881,611103.022,619369.431,1,40,37,
sequence,flow.Sequence,8_36,2023-11-15T20:50:28.305Z,,,,,,,,,,8400.177999988082,completion,,,,,,,high,low,,,,,,false,,,,true,619503.3999999762,619503.1999999881,611085.973,611231.1999999881,611103.022,619369.431,1,40,,
trial,html.Screen,8_37_0,2023-11-15T20:50:36.032Z,,,,2,0.0473541545202326,-0.0294076954053606,,false,hh,7861.668999964255,response,0.6599510720187666,0.6473622573342597,-1.1317368803505226,1.03005454747145,0.9141681998413764,-1.1817368803505226,high,high,,ISIC_0034065.JPG,,ISIC_5527224.JPG,252,false,hl,keypress(j),0,true,627231.1999999881,627231.0999999642,619352.588,619503.3999999762,619369.431,627102.741,1,40,38,
sequence,flow.Sequence,8_37,2023-11-15T20:50:36.032Z,,,,,,,,,,7861.668999964255,completion,,,,,,,high,high,,,,,,false,,,,true,627231.3999999762,627231.0999999642,619352.588,619503.3999999762,619369.431,627102.741,1,40,,
trial,html.Screen,8_38_0,2023-11-15T20:50:43.392Z,,,,2,-0.0257631352671967,-0.0202837002774028,,true,lh,7488.358999964199,response,-0.8926515927689261,0.5473622573342596,-1.0317368803505225,0.7935960767768927,0.8641681998413764,-1.0817368803505225,low,high,,ISIC_0032797.JPG,,ISIC_8901371.JPG,24,false,lh,keypress(e),0,true,634591.1999999881,634591.0999999642,627086.086,627231.3999999762,627102.741,634469.667,1,40,39,
sequence,flow.Sequence,8_38,2023-11-15T20:50:43.392Z,,,,,,,,,,7488.358999964199,completion,,,,,,,low,high,,,,,,false,,,,true,634591.3000000119,634591.0999999642,627086.086,627231.3999999762,627102.741,634469.667,1,40,,
trial,html.Screen,8_39_0,2023-11-15T20:50:48.384Z,,,,2,-0.0718464495991687,0.0429653518314044,,false,ll,5113.332999999984,response,-0.8796516667961567,0.5473622573342596,-1.0317368803505225,-1.1452798229083057,0.8641681998413764,-1.0817368803505225,low,low,,ISIC_0028597.JPG,,ISIC_4808298.JPG,90,false,lh,keypress(e),0,true,639583,639583,634452.465,634591.3000000119,634469.667,639452.942,1,40,40,
sequence,flow.Sequence,8_39,2023-11-15T20:50:48.384Z,,,,,,,,,,5113.332999999984,completion,,,,,,,low,low,,,,,,false,,,,true,639583.0999999642,639583,634452.465,634591.3000000119,634469.667,639452.942,1,40,,
stair_loop,flow.Loop,8,2023-11-15T20:50:48.384Z,,,,,,,,,,195229.91100000002,completion,,,,,,,,,,,,,,false,,,,true,639583.1999999881,639583,444336.557,444478.09999996424,444353.089,639452.942,1,40,,
exp_instructions,html.Screen,9,2023-11-15T20:50:52.128Z,,,,,,,,,,3873.557999999961,response,,,,,,,,,,,,,,,continue,keypress(Space),,,643326.8999999762,643326.5,639436.193,639583.1999999881,639452.942,643202.908,,,,
trial,html.Screen,10_0_0,2023-11-15T20:50:55.074Z,,,,1,-0.024731486864197,-0.0504232274546553,,false,ll,3070.291999988025,response,-0.9362962536620838,0.6173622573342598,-0.8145480247863635,-1.1317411618506656,0.9516681998413766,-1.1173512930339604,low,low,,ISIC_4782878.JPG,8,ISIC_3691320.JPG,122,false,hl,keypress(j),0,false,646273.3000000119,646273.1999999881,643186.02,643327,643202.908,646153.375,4,500,1,
break,html.Screen,10_0_1,2023-11-15T20:50:55.075Z,,,,,,,,,,NaN,,,,,,,,low,low,,,,,,false,,,,false,646273.8000000119,646273.5999999642,,646273.3000000119,,646153.375,4,500,,
break_continue,html.Screen,10_0_2,2023-11-15T20:50:55.075Z,,,,,,,,,,NaN,,,,,,,,low,low,,,,,,false,,,,false,646274,646273.8999999762,,646273.8000000119,,646153.375,4,500,,
sequence,flow.Sequence,10_0,2023-11-15T20:50:55.075Z,,,,,,,,,,3070.991999976104,completion,,,,,,,low,low,,,,,,false,,,,false,646274,646273.8999999762,643186.02,643327,643202.908,646153.375,4,500,,
trial,html.Screen,10_1_0,2023-11-15T20:50:58.224Z,,,,1,-0.0257631352671967,-0.0202837002774028,,true,hl,3269.524999976158,response,0.6284406742939498,0.6173622573342598,-0.8145480247863635,-0.9882196642247332,0.9516681998413766,-1.1173512930339604,high,low,,ISIC_0032797.JPG,9,ISIC_0014255.JPG,43,false,hl,keypress(j),0,false,649423,649422.8999999762,646119.608,646274.0999999642,646153.375,649286.036,4,500,2,
break,html.Screen,10_1_1,2023-11-15T20:50:58.225Z,,,,,,,,,,NaN,,,,,,,,high,low,,,,,,false,,,,false,649423.3000000119,649423.1999999881,,649423.0999999642,,649286.036,4,500,,
break_continue,html.Screen,10_1_2,2023-11-15T20:50:58.225Z,,,,,,,,,,NaN,,,,,,,,high,low,,,,,,false,,,,false,649423.6999999881,649423.5999999642,,649423.3999999762,,649286.036,4,500,,
sequence,flow.Sequence,10_1,2023-11-15T20:50:58.225Z,,,,,,,,,,3270.224999964237,completion,,,,,,,high,low,,,,,,false,,,,false,649423.8000000119,649423.5999999642,646119.608,646274.0999999642,646153.375,649286.036,4,500,,
trial,html.Screen,10_2_0,2023-11-15T20:51:02.112Z,,,,1,0.0388181790775959,-0.0049623405709465,,true,lh,4024.9640000000363,response,-0.7991459998473059,0.6173622573342598,-0.8145480247863635,1.0280788723474688,0.9516681998413766,-1.1173512930339604,low,high,,ISIC_0061880.JPG,10,ISIC_7951202.JPG,30,false,lh,keypress(e),0,false,653311.0999999642,653311,649269.625,649423.8999999762,649286.036,653186.319,4,500,3,
break,html.Screen,10_2_1,2023-11-15T20:51:02.113Z,,,,,,,,,,NaN,,,,,,,,low,high,,,,,,false,,,,false,653311.3999999762,653311.3000000119,,653311.1999999881,,653186.319,4,500,,
break_continue,html.Screen,10_2_2,2023-11-15T20:51:02.113Z,,,,,,,,,,NaN,,,,,,,,low,high,,,,,,false,,,,false,653311.5999999642,653311.5,,653311.3999999762,,653186.319,4,500,,
sequence,flow.Sequence,10_2,2023-11-15T20:51:02.113Z,,,,,,,,,,4025.4640000000363,completion,,,,,,,low,high,,,,,,false,,,,false,653311.6999999881,653311.5,649269.625,649423.8000000119,649286.036,653186.319,4,500,,
trial,html.Screen,10_3_0,2023-11-15T20:51:05.248Z,,,,1,0.0629648527969799,-0.0694960898867798,,false,ll,3260.8809999880614,response,-0.9249180304825352,0.6173622573342598,-0.8145480247863635,-0.9557254346276748,0.9516681998413766,-1.1173512930339604,low,low,,ISIC_0025597.JPG,9,ISIC_6778515.JPG,122,false,lh,keypress(e),0,false,656447.3000000119,656447.1999999881,653169.728,653311.6999999881,653186.319,656319.578,4,500,4,
break,html.Screen,10_3_1,2023-11-15T20:51:05.249Z,,,,,,,,,,NaN,,,,,,,,low,low,,,,,,false,,,,false,656447.5,656447.5,,656447.3000000119,,656319.578,4,500,,
break_continue,html.Screen,10_3_2,2023-11-15T20:51:05.249Z,,,,,,,,,,NaN,,,,,,,,low,low,,,,,,false,,,,false,656447.6999999881,656447.5999999642,,656447.5999999642,,656319.578,4,500,,
sequence,flow.Sequence,10_3,2023-11-15T20:51:05.249Z,,,,,,,,,,3261.2809999642195,completion,,,,,,,low,low,,,,,,false,,,,false,656447.8000000119,656447.5999999642,653169.728,653311.6999999881,653186.319,656319.578,4,500,,
trial,html.Screen,10_4_0,2023-11-15T20:51:08.992Z,,,,1,0.0199950873045219,0.0172506388509166,,true,hh,3871.2220000119414,response,0.726088143883226,0.6173622573342598,-0.8145480247863635,0.9195149254716736,0.9516681998413766,-1.1173512930339604,high,high,,ISIC_0029906.JPG,9,ISIC_3445468.JPG,244,false,hh,keypress(i),0,false,660190.8999999762,660190.8000000119,656303.145,656447.8000000119,656319.578,660069.64,4,500,5,
break,html.Screen,10_4_1,2023-11-15T20:51:08.992Z,,,,,,,,,,NaN,,,,,,,,high,high,,,,,,false,,,,false,660191.1999999881,660191.0999999642,,660191,,660069.64,4,500,,
break_continue,html.Screen,10_4_2,2023-11-15T20:51:08.993Z,,,,,,,,,,NaN,,,,,,,,high,high,,,,,,false,,,,false,660191.5,660191.3000000119,,660191.1999999881,,660069.64,4,500,,
sequence,flow.Sequence,10_4,2023-11-15T20:51:08.993Z,,,,,,,,,,3871.7220000119414,completion,,,,,,,high,high,,,,,,false,,,,false,660191.5999999642,660191.3000000119,656303.145,656447.8000000119,656319.578,660069.64,4,500,,
trial,html.Screen,10_5_0,2023-11-15T20:51:15.920Z,,,,1,-0.0633291412406864,0.0446580444004686,,false,hl,7049.359999999986,response,0.4622648412655316,0.6173622573342598,-0.8145480247863635,-1.126366634702435,0.9516681998413766,-1.1173512930339604,high,low,,ISIC_0010718.JPG,9,ISIC_2577938.JPG,43,false,hh,keypress(i),0,false,667119.0999999642,667119,660036.245,660191.5999999642,660069.64,666986.073,4,500,6,
break,html.Screen,10_5_1,2023-11-15T20:51:15.921Z,,,,,,,,,,NaN,,,,,,,,high,low,,,,,,false,,,,false,667119.5,667119.3999999762,,667119.1999999881,,666986.073,4,500,,
break_continue,html.Screen,10_5_2,2023-11-15T20:51:15.921Z,,,,,,,,,,NaN,,,,,,,,high,low,,,,,,false,,,,false,667119.6999999881,667119.5999999642,,667119.5,,666986.073,4,500,,
sequence,flow.Sequence,10_5,2023-11-15T20:51:15.921Z,,,,,,,,,,7049.959999964223,completion,,,,,,,high,low,,,,,,false,,,,false,667119.8000000119,667119.5999999642,660036.245,660191.5999999642,660069.64,666986.073,4,500,,
trial,html.Screen,10_6_0,2023-11-15T20:51:21.872Z,,,,1,0.0367060100866019,0.0630207980628495,,true,hh,6084.626999988104,response,0.4781157419880458,0.6173622573342598,-0.8145480247863635,1.0242441278639045,0.9516681998413766,-1.1173512930339604,high,high,,ISIC_0028396.JPG,9,ISIC_0031499.JPG,244,false,hh,keypress(i),0,false,673070.8000000119,673070.6999999881,666969.591,667119.8999999762,666986.073,672936.086,4,500,7,
break,html.Screen,10_6_1,2023-11-15T20:51:21.872Z,,,,,,,,,,NaN,,,,,,,,high,high,,,,,,false,,,,false,673071,673071,,673070.8999999762,,672936.086,4,500,,
break_continue,html.Screen,10_6_2,2023-11-15T20:51:21.873Z,,,,,,,,,,NaN,,,,,,,,high,high,,,,,,false,,,,false,673071.3000000119,673071.3000000119,,673071.1999999881,,672936.086,4,500,,
sequence,flow.Sequence,10_6,2023-11-15T20:51:21.873Z,,,,,,,,,,6085.227000011946,completion,,,,,,,high,high,,,,,,false,,,,false,673071.3999999762,673071.3000000119,666969.591,667119.8999999762,666986.073,672936.086,4,500,,
trial,html.Screen,10_7_0,2023-11-15T20:51:24.336Z,,,,1,0.0199950873045219,0.0172506388509166,,true,lh,2598.4139999999898,response,-0.6742481921837281,0.6173622573342598,-0.8145480247863635,0.9118635731669033,0.9516681998413766,-1.1173512930339604,low,high,,ISIC_0029906.JPG,9,ISIC_7961365.JPG,30,false,lh,keypress(e),0,false,675534.5999999642,675534.5,672919.497,673071.3999999762,672936.086,675402.847,4,500,8,
break,html.Screen,10_7_1,2023-11-15T20:51:24.336Z,,,,,,,,,,NaN,,,,,,,,low,high,,,,,,false,,,,false,675535,675534.8999999762,,675534.8000000119,,675402.847,4,500,,
break_continue,html.Screen,10_7_2,2023-11-15T20:51:24.336Z,,,,,,,,,,NaN,,,,,,,,low,high,,,,,,false,,,,false,675535.3000000119,675535.0999999642,,675535.0999999642,,675402.847,4,500,,
sequence,flow.Sequence,10_7,2023-11-15T20:51:24.336Z,,,,,,,,,,2599.013999964227,completion,,,,,,,low,high,,,,,,false,,,,false,675535.3000000119,675535.0999999642,672919.497,673071.3999999762,672936.086,675402.847,4,500,,
trial,html.Screen,10_8_0,2023-11-15T20:51:30.368Z,,,,1,0.049790040126711,-0.0195291725171472,,false,hh,6163.95300001197,response,0.606134315987544,0.6173622573342598,-0.8145480247863635,0.8782493084721485,0.9516681998413766,-1.1173512930339604,high,high,,ISIC_0372902.JPG,9,ISIC_0009882.JPG,244,false,ll,keypress(f),0,false,681567,681566.8000000119,675386.225,675535.3000000119,675402.847,681436.038,4,500,9,
break,html.Screen,10_8_1,2023-11-15T20:51:30.368Z,,,,,,,,,,NaN,,,,,,,,high,high,,,,,,false,,,,false,681567.3999999762,681567.1999999881,,681567,,681436.038,4,500,,
break_continue,html.Screen,10_8_2,2023-11-15T20:51:30.369Z,,,,,,,,,,NaN,,,,,,,,high,high,,,,,,false,,,,false,681567.5,681567.5,,681567.3999999762,,681436.038,4,500,,
sequence,flow.Sequence,10_8,2023-11-15T20:51:30.369Z,,,,,,,,,,6164.653000000049,completion,,,,,,,high,high,,,,,,false,,,,false,681567.5,681567.5,675386.225,675535.3000000119,675402.847,681436.038,4,500,,
trial,html.Screen,10_9_0,2023-11-15T20:51:33.376Z,,,,1,0.0367060100866019,0.0630207980628495,,false,lh,3138.9620000000577,response,-0.7308116448711435,0.6173622573342598,-0.8145480247863635,0.908713834988551,0.9516681998413766,-1.1173512930339604,low,high,,ISIC_0028396.JPG,9,ISIC_7811951.JPG,30,false,hl,keypress(j),0,false,684575,684575,681419.397,681567.6999999881,681436.038,684452.939,4,500,10,
break,html.Screen,10_9_1,2023-11-15T20:51:33.377Z,,,,,,,,,,NaN,,,,,,,,low,high,,,,,,false,,,,false,684575.3999999762,684575.3000000119,,684575.1999999881,,684452.939,4,500,,
break_continue,html.Screen,10_9_2,2023-11-15T20:51:33.377Z,,,,,,,,,,NaN,,,,,,,,low,high,,,,,,false,,,,false,684575.5999999642,684575.5,,684575.3999999762,,684452.939,4,500,,
sequence,flow.Sequence,10_9,2023-11-15T20:51:33.377Z,,,,,,,,,,3139.4620000000577,completion,,,,,,,low,high,,,,,,false,,,,false,684575.5999999642,684575.5,681419.397,681567.6999999881,681436.038,684452.939,4,500,,
trial,html.Screen,10_10_0,2023-11-15T20:51:36.176Z,,,,1,-0.0105349256029223,0.0723574625425557,,false,ll,2921.960999976145,response,-0.8538847735848973,0.6173622573342598,-0.8145480247863635,-0.979053170316694,0.9516681998413766,-1.1173512930339604,low,low,,ISIC_0058998.JPG,9,ISIC_1269461.JPG,122,false,lh,keypress(e),0,false,687375,687374.8999999762,684436.059,684575.6999999881,684452.939,687252.886,4,500,11,
break,html.Screen,10_10_1,2023-11-15T20:51:36.176Z,,,,,,,,,,NaN,,,,,,,,low,low,,,,,,false,,,,false,687375.1999999881,687375.1999999881,,687375,,687252.886,4,500,,
break_continue,html.Screen,10_10_2,2023-11-15T20:51:36.177Z,,,,,,,,,,NaN,,,,,,,,low,low,,,,,,false,,,,false,687375.5,687375.3999999762,,687375.3000000119,,687252.886,4,500,,
sequence,flow.Sequence,10_10,2023-11-15T20:51:36.177Z,,,,,,,,,,2922.460999976145,completion,,,,,,,low,low,,,,,,false,,,,false,687375.5,687375.3999999762,684436.059,684575.6999999881,684452.939,687252.886,4,500,,
trial,html.Screen,10_11_0,2023-11-15T20:51:41.136Z,,,,1,-0.0200295718112167,-0.0155559071275806,,false,hh,5082.113999999943,response,0.7465062180153651,0.6173622573342598,-0.8145480247863635,0.774182701900248,0.9516681998413766,-1.1173512930339604,high,high,,ISIC_0061343.JPG,9,ISIC_1566428.JPG,244,false,hl,keypress(j),0,false,692335.0999999642,692335,687236.386,687375.5999999642,687252.886,692202.664,4,500,12,
break,html.Screen,10_11_1,2023-11-15T20:51:41.137Z,,,,,,,,,,NaN,,,,,,,,high,high,,,,,,false,,,,false,692335.3999999762,692335.3999999762,,692335.1999999881,,692202.664,4,500,,
break_continue,html.Screen,10_11_2,2023-11-15T20:51:41.137Z,,,,,,,,,,NaN,,,,,,,,high,high,,,,,,false,,,,false,692335.5999999642,692335.5,,692335.3999999762,,692202.664,4,500,,
sequence,flow.Sequence,10_11,2023-11-15T20:51:41.137Z,,,,,,,,,,5082.613999999943,completion,,,,,,,high,high,,,,,,false,,,,false,692335.6999999881,692335.5,687236.386,687375.5999999642,687252.886,692202.664,4,500,,
trial,html.Screen,10_12_0,2023-11-15T20:51:44.096Z,,,,1,-0.0220026381002083,0.0170756452911772,,true,hl,3092.3360000000102,response,0.4463812003479255,0.6173622573342598,-0.8145480247863635,-0.9602125665128364,0.9516681998413766,-1.1173512930339604,high,low,,ISIC_5347806.JPG,8,ISIC_0056784.JPG,43,false,hl,keypress(j),0,false,695295.1999999881,695295,692186.236,692335.8000000119,692202.664,695169.591,4,500,13,
break,html.Screen,10_12_1,2023-11-15T20:51:44.097Z,,,,,,,,,,NaN,,,,,,,,high,low,,,,,,false,,,,false,695295.5,695295.3999999762,,695295.3000000119,,695169.591,4,500,,
break_continue,html.Screen,10_12_2,2023-11-15T20:51:44.097Z,,,,,,,,,,NaN,,,,,,,,high,low,,,,,,false,,,,false,695295.6999999881,695295.5999999642,,695295.5,,695169.591,4,500,,
sequence,flow.Sequence,10_12,2023-11-15T20:51:44.097Z,,,,,,,,,,3092.9359999642475,completion,,,,,,,high,low,,,,,,false,,,,false,695295.8000000119,695295.5999999642,692186.236,692335.8000000119,692202.664,695169.591,4,500,,
trial,html.Screen,10_13_0,2023-11-15T20:51:47.488Z,,,,1,-0.0367744112927588,-0.0324865661712824,,false,ll,3517.3089999761432,response,-0.6498590149621993,0.6173622573342598,-0.8145480247863635,-1.1137805288232097,0.9516681998413766,-1.1173512930339604,low,low,,ISIC_4523565.JPG,8,ISIC_8006094.JPG,122,false,lh,keypress(e),0,false,698687,698686.8999999762,695152.891,695295.8000000119,695169.591,698552.698,4,500,14,
break,html.Screen,10_13_1,2023-11-15T20:51:47.488Z,,,,,,,,,,NaN,,,,,,,,low,low,,,,,,false,,,,false,698687.3000000119,698687.1999999881,,698687.0999999642,,698552.698,4,500,,
break_continue,html.Screen,10_13_2,2023-11-15T20:51:47.489Z,,,,,,,,,,NaN,,,,,,,,low,low,,,,,,false,,,,false,698687.5,698687.3999999762,,698687.3999999762,,698552.698,4,500,,
sequence,flow.Sequence,10_13,2023-11-15T20:51:47.489Z,,,,,,,,,,3517.8089999761432,completion,,,,,,,low,low,,,,,,false,,,,false,698687.5999999642,698687.3999999762,695152.891,695295.8000000119,695169.591,698552.698,4,500,,
trial,html.Screen,10_14_0,2023-11-15T20:51:53.728Z,,,,1,-0.0044063257337227,-0.0172548282859886,,true,hh,6374.302000000025,response,0.7509882656706086,0.6173622573342598,-0.8145480247863635,0.8368364447246962,0.9516681998413766,-1.1173512930339604,high,high,,ISIC_7413786.JPG,9,ISIC_0062005.JPG,244,false,hh,keypress(i),0,false,704927.0999999642,704927,698536.197,698687.6999999881,698552.698,704802.794,4,500,15,
break,html.Screen,10_14_1,2023-11-15T20:51:53.729Z,,,,,,,,,,NaN,,,,,,,,high,high,,,,,,false,,,,false,704927.3999999762,704927.3000000119,,704927.1999999881,,704802.794,4,500,,
break_continue,html.Screen,10_14_2,2023-11-15T20:51:53.729Z,,,,,,,,,,NaN,,,,,,,,high,high,,,,,,false,,,,false,704927.5999999642,704927.5,,704927.3999999762,,704802.794,4,500,,
sequence,flow.Sequence,10_14,2023-11-15T20:51:53.729Z,,,,,,,,,,6374.802000000025,completion,,,,,,,high,high,,,,,,false,,,,false,704927.6999999881,704927.5,698536.197,698687.6999999881,698552.698,704802.794,4,500,,
trial,html.Screen,10_15_0,2023-11-15T20:51:57.232Z,,,,1,-0.0480293506029756,-0.0744454320613987,,false,ll,3628.1059999761637,response,-0.7800797396940995,0.6173622573342598,-0.8145480247863635,-0.973676161739592,0.9516681998413766,-1.1173512930339604,low,low,,ISIC_1798471.JPG,9,ISIC_0641173.JPG,122,false,lh,keypress(e),0,false,708431,708430.8999999762,704785.914,704927.6999999881,704802.794,708319.583,4,500,16,
break,html.Screen,10_15_1,2023-11-15T20:51:57.232Z,,,,,,,,,,NaN,,,,,,,,low,low,,,,,,false,,,,false,708431.3000000119,708431.1999999881,,708431.0999999642,,708319.583,4,500,,
break_continue,html.Screen,10_15_2,2023-11-15T20:51:57.233Z,,,,,,,,,,NaN,,,,,,,,low,low,,,,,,false,,,,false,708431.5,708431.3999999762,,708431.3999999762,,708319.583,4,500,,
sequence,flow.Sequence,10_15,2023-11-15T20:51:57.233Z,,,,,,,,,,3628.6059999761637,completion,,,,,,,low,low,,,,,,false,,,,false,708431.5,708431.3999999762,704785.914,704927.6999999881,704802.794,708319.583,4,500,,
trial,html.Screen,10_16_0,2023-11-15T20:52:00.752Z,,,,1,-0.0044063257337227,-0.0172548282859886,,false,hh,3631.516999964253,response,0.7175484898254125,0.6173622573342598,-0.8145480247863635,0.9475215296190668,0.9516681998413766,-1.1173512930339604,high,high,,ISIC_7413786.JPG,9,ISIC_0062536.JPG,244,false,hl,keypress(j),0,false,711951.1999999881,711951.0999999642,708303.088,708431.5999999642,708319.583,711819.484,4,500,17,
break,html.Screen,10_16_1,2023-11-15T20:52:00.753Z,,,,,,,,,,NaN,,,,,,,,high,high,,,,,,false,,,,false,711951.5,711951.3999999762,,711951.1999999881,,711819.484,4,500,,
break_continue,html.Screen,10_16_2,2023-11-15T20:52:00.753Z,,,,,,,,,,NaN,,,,,,,,high,high,,,,,,false,,,,false,711951.6999999881,711951.5,,711951.5,,711819.484,4,500,,
sequence,flow.Sequence,10_16,2023-11-15T20:52:00.753Z,,,,,,,,,,3631.917000000016,completion,,,,,,,high,high,,,,,,false,,,,false,711951.6999999881,711951.5,708303.088,708431.5,708319.583,711819.484,4,500,,
trial,html.Screen,10_17_0,2023-11-15T20:52:02.976Z,,,,1,0.049790040126711,-0.0195291725171472,,true,lh,2355.1159999641823,response,-0.6742481921837281,0.6173622573342598,-0.8145480247863635,0.9118635731669033,0.9516681998413766,-1.1173512930339604,low,high,,ISIC_0372902.JPG,9,ISIC_7961365.JPG,30,false,lh,keypress(e),0,false,714174.6999999881,714174.5999999642,711802.664,711951.6999999881,711819.484,714052.914,4,500,18,
break,html.Screen,10_17_1,2023-11-15T20:52:02.976Z,,,,,,,,,,NaN,,,,,,,,low,high,,,,,,false,,,,false,714175,714174.8999999762,,714174.6999999881,,714052.914,4,500,,
break_continue,html.Screen,10_17_2,2023-11-15T20:52:02.976Z,,,,,,,,,,NaN,,,,,,,,low,high,,,,,,false,,,,false,714175.1999999881,714175.1999999881,,714175.0999999642,,714052.914,4,500,,
sequence,flow.Sequence,10_17,2023-11-15T20:52:02.976Z,,,,,,,,,,2355.715999988024,completion,,,,,,,low,high,,,,,,false,,,,false,714175.3000000119,714175.1999999881,711802.664,711951.6999999881,711819.484,714052.914,4,500,,
trial,html.Screen,10_18_0,2023-11-15T20:52:05.696Z,,,,1,0.0010920693448107,0.0492408806128631,,false,hh,2841.886000011931,response,0.6211992931391747,0.6173622573342598,-0.8145480247863635,1.1333944393041642,0.9516681998413766,-1.1173512930339604,high,high,,ISIC_6155981.JPG,8,ISIC_0069481.JPG,244,false,lh,keypress(e),0,false,716895,716894.8000000119,714035.97,714175.3999999762,714052.914,716769.748,4,500,19,
break,html.Screen,10_18_1,2023-11-15T20:52:05.696Z,,,,,,,,,,NaN,,,,,,,,high,high,,,,,,false,,,,false,716895.1999999881,716895.1999999881,,716895,,716769.748,4,500,,
break_continue,html.Screen,10_18_2,2023-11-15T20:52:05.697Z,,,,,,,,,,NaN,,,,,,,,high,high,,,,,,false,,,,false,716895.5,716895.3000000119,,716895.3000000119,,716769.748,4,500,,
sequence,flow.Sequence,10_18,2023-11-15T20:52:05.697Z,,,,,,,,,,2842.386000011931,completion,,,,,,,high,high,,,,,,false,,,,false,716895.5,716895.3000000119,714035.97,714175.3999999762,714052.914,716769.748,4,500,,
trial,html.Screen,10_19_0,2023-11-15T20:52:10.320Z,,,,1,-0.0283578106329894,0.0088840758711548,,true,ll,4749.251999999979,response,-0.7450842320799537,0.6173622573342598,-0.8145480247863635,-1.1820897893908655,0.9516681998413766,-1.1173512930339604,low,low,,ISIC_0060707.JPG,9,ISIC_6292348.JPG,122,false,ll,keypress(f),0,false,721519.0999999642,721519,716752.836,716895.5,716769.748,721386.015,4,500,20,
break,html.Screen,10_19_1,2023-11-15T20:52:10.321Z,,,,,,,,,,NaN,,,,,,,,low,low,,,,,,false,,,,false,721519.3000000119,721519.3000000119,,721519.1999999881,,721386.015,4,500,,
break_continue,html.Screen,10_19_2,2023-11-15T20:52:10.321Z,,,,,,,,,,NaN,,,,,,,,low,low,,,,,,false,,,,false,721519.5999999642,721519.3999999762,,721519.3999999762,,721386.015,4,500,,
sequence,flow.Sequence,10_19,2023-11-15T20:52:10.321Z,,,,,,,,,,4749.651999976137,completion,,,,,,,low,low,,,,,,false,,,,false,721519.5999999642,721519.3999999762,716752.836,716895.5,716769.748,721386.015,4,500,,
trial,html.Screen,10_20_0,2023-11-15T20:52:14.816Z,,,,1,0.0273855825278348,-0.0566295048930719,,false,lh,4629.184999988065,response,-0.7246771568562105,0.6173622573342598,-0.8145480247863635,0.9161385080362604,0.9516681998413766,-1.1173512930339604,low,high,,ISIC_0000141.JPG,9,ISIC_0028225.JPG,30,false,ll,keypress(f),0,false,726015.3000000119,726015.1999999881,721369.371,721519.6999999881,721386.015,725886.056,4,500,21,
break,html.Screen,10_20_1,2023-11-15T20:52:14.817Z,,,,,,,,,,NaN,,,,,,,,low,high,,,,,,false,,,,false,726015.5999999642,726015.3999999762,,726015.3000000119,,725886.056,4,500,,
break_continue,html.Screen,10_20_2,2023-11-15T20:52:14.817Z,,,,,,,,,,NaN,,,,,,,,low,high,,,,,,false,,,,false,726015.6999999881,726015.5999999642,,726015.5999999642,,725886.056,4,500,,
sequence,flow.Sequence,10_20,2023-11-15T20:52:14.817Z,,,,,,,,,,4629.584999964223,completion,,,,,,,low,high,,,,,,false,,,,false,726015.8000000119,726015.5999999642,721369.371,721519.6999999881,721386.015,725886.056,4,500,,
trial,html.Screen,10_21_0,2023-11-15T20:52:19.088Z,,,,1,0.0448994009031783,-0.0708723658092544,,true,ll,4401.043999964255,response,-0.7553497600333596,0.6173622573342598,-0.8145480247863635,-1.0400427384571451,0.9516681998413766,-1.1173512930339604,low,low,,ISIC_0025238.JPG,9,ISIC_0561634.JPG,122,false,ll,keypress(f),0,false,730287.1999999881,730287.0999999642,725869.195,726015.8999999762,725886.056,730152.616,4,500,22,
break,html.Screen,10_21_1,2023-11-15T20:52:19.089Z,,,,,,,,,,NaN,,,,,,,,low,low,,,,,,false,,,,false,730287.5999999642,730287.5,,730287.3999999762,,730152.616,4,500,,
break_continue,html.Screen,10_21_2,2023-11-15T20:52:19.089Z,,,,,,,,,,NaN,,,,,,,,low,low,,,,,,false,,,,false,730287.6999999881,730287.5999999642,,730287.5999999642,,730152.616,4,500,,
sequence,flow.Sequence,10_21,2023-11-15T20:52:19.089Z,,,,,,,,,,4401.543999964255,completion,,,,,,,low,low,,,,,,false,,,,false,730287.8000000119,730287.5999999642,725869.195,726015.8999999762,725886.056,730152.616,4,500,,
trial,html.Screen,10_22_0,2023-11-15T20:52:21.871Z,,,,1,-0.0009714874637896,0.0174815595031679,,false,hl,2917.483999964199,response,0.6545252668717846,0.6173622573342598,-0.8145480247863635,-1.2205481992327876,0.9516681998413766,-1.1173512930339604,high,low,,ISIC_9848743.JPG,9,ISIC_9927221.JPG,43,false,ll,keypress(f),0,false,733070.1999999881,733070.0999999642,730136.179,730287.8999999762,730152.616,732935.953,4,500,23,
break,html.Screen,10_22_1,2023-11-15T20:52:21.872Z,,,,,,,,,,NaN,,,,,,,,high,low,,,,,,false,,,,false,733070.5,733070.3999999762,,733070.3000000119,,732935.953,4,500,,
break_continue,html.Screen,10_22_2,2023-11-15T20:52:21.872Z,,,,,,,,,,NaN,,,,,,,,high,low,,,,,,false,,,,false,733070.8000000119,733070.6999999881,,733070.5999999642,,732935.953,4,500,,
sequence,flow.Sequence,10_22,2023-11-15T20:52:21.872Z,,,,,,,,,,2918.083999988041,completion,,,,,,,high,low,,,,,,false,,,,false,733070.8000000119,733070.6999999881,730136.179,730287.8000000119,730152.616,732935.953,4,500,,
trial,html.Screen,10_23_0,2023-11-15T20:52:24.768Z,,,,1,0.0223011224608011,-0.0466190802905965,,true,lh,3030.7469999880996,response,-0.6232846435651058,0.6173622573342598,-0.8145480247863635,0.870797302150167,0.9516681998413766,-1.1173512930339604,low,high,,ISIC_0028041.JPG,8,ISIC_0055841.JPG,30,false,lh,keypress(e),0,false,735966.8000000119,735966.6999999881,732919.666,733070.8999999762,732935.953,735853.062,4,500,24,
break,html.Screen,10_23_1,2023-11-15T20:52:24.768Z,,,,,,,,,,NaN,,,,,,,,low,high,,,,,,false,,,,false,735967.0999999642,735967.0999999642,,735966.8999999762,,735853.062,4,500,,
break_continue,html.Screen,10_23_2,2023-11-15T20:52:24.769Z,,,,,,,,,,NaN,,,,,,,,low,high,,,,,,false,,,,false,735967.3000000119,735967.1999999881,,735967.0999999642,,735853.062,4,500,,
sequence,flow.Sequence,10_23,2023-11-15T20:52:24.769Z,,,,,,,,,,3031.2469999880996,completion,,,,,,,low,high,,,,,,false,,,,false,735967.3000000119,735967.1999999881,732919.666,733070.8999999762,732935.953,735853.062,4,500,,
trial,html.Screen,10_24_0,2023-11-15T20:52:27.792Z,,,,1,0.0199950873045219,0.0172506388509166,,false,ll,3137.7380000118865,response,-0.6689759983211285,0.6173622573342598,-0.8145480247863635,-1.0897816030211662,0.9516681998413766,-1.1173512930339604,low,low,,ISIC_0029906.JPG,9,ISIC_4885444.JPG,122,false,hl,keypress(j),0,false,738990.8999999762,738990.8000000119,735836.222,735967.3999999762,735853.062,738869.542,4,500,25,
break,html.Screen,10_24_1,2023-11-15T20:52:27.792Z,,,,,,,,,,NaN,,,,,,,,low,low,,,,,,false,,,,false,738991.1999999881,738991.0999999642,,738991,,738869.542,4,500,,
break_continue,html.Screen,10_24_2,2023-11-15T20:52:27.793Z,,,,,,,,,,NaN,,,,,,,,low,low,,,,,,false,,,,false,738991.3999999762,738991.3000000119,,738991.1999999881,,738869.542,4,500,,
sequence,flow.Sequence,10_24,2023-11-15T20:52:27.793Z,,,,,,,,,,3138.2380000118865,completion,,,,,,,low,low,,,,,,false,,,,false,738991.3999999762,738991.3000000119,735836.222,735967.3999999762,735853.062,738869.542,4,500,,
trial,html.Screen,10_25_0,2023-11-15T20:52:34.784Z,,,,1,-0.0286056110007553,-0.036125199756515,,false,hl,7112.957999999984,response,0.4797931034572478,0.6173622573342598,-0.8145480247863635,-0.9966811875793808,0.9516681998413766,-1.1173512930339604,high,low,,ISIC_6535558.JPG,9,ISIC_8389361.JPG,43,false,ll,keypress(f),0,false,745982.6999999881,745982.5,738836.335,738991.5,738869.542,745869.426,4,500,26,
break,html.Screen,10_25_1,2023-11-15T20:52:34.784Z,,,,,,,,,,NaN,,,,,,,,high,low,,,,,,false,,,,false,745983,745982.8999999762,,745982.8000000119,,745869.426,4,500,,
break_continue,html.Screen,10_25_2,2023-11-15T20:52:34.784Z,,,,,,,,,,NaN,,,,,,,,high,low,,,,,,false,,,,false,745983.0999999642,745983,,745983,,745869.426,4,500,,
sequence,flow.Sequence,10_25,2023-11-15T20:52:34.784Z,,,,,,,,,,7113.457999999984,completion,,,,,,,high,low,,,,,,false,,,,false,745983.1999999881,745983,738836.335,738991.5,738869.542,745869.426,4,500,,
trial,html.Screen,10_26_0,2023-11-15T20:52:42.192Z,,,,1,-0.0606387586319451,-0.0283716809868572,,false,ll,7521.574000000022,response,-0.6429984900308822,0.6173622573342598,-0.8145480247863635,-1.0504497568112026,0.9516681998413766,-1.1173512930339604,low,low,,ISIC_0061158.JPG,9,ISIC_6976570.JPG,122,false,hl,keypress(j),0,false,753391.0999999642,753391,745852.824,745983.1999999881,745869.426,753269.495,4,500,27,
break,html.Screen,10_26_1,2023-11-15T20:52:42.193Z,,,,,,,,,,NaN,,,,,,,,low,low,,,,,,false,,,,false,753391.3999999762,753391.3000000119,,753391.1999999881,,753269.495,4,500,,
break_continue,html.Screen,10_26_2,2023-11-15T20:52:42.193Z,,,,,,,,,,NaN,,,,,,,,low,low,,,,,,false,,,,false,753391.5,753391.5,,753391.5,,753269.495,4,500,,
sequence,flow.Sequence,10_26,2023-11-15T20:52:42.193Z,,,,,,,,,,7522.074000000022,completion,,,,,,,low,low,,,,,,false,,,,false,753391.5999999642,753391.5,745852.824,745983.1999999881,745869.426,753269.495,4,500,,
trial,html.Screen,10_27_0,2023-11-15T20:52:46.272Z,,,,1,0.0473541545202326,-0.0294076954053606,,true,hl,4201.204999988084,response,0.5126012332206266,0.6173622573342598,-0.8145480247863635,-1.0362898322319691,0.9516681998413766,-1.1173512930339604,high,low,,ISIC_0034065.JPG,8,ISIC_6688417.JPG,43,false,hl,keypress(j),0,false,757470.6999999881,757470.6999999881,753252.415,753391.6999999881,753269.495,757335.939,4,500,28,
break,html.Screen,10_27_1,2023-11-15T20:52:46.272Z,,,,,,,,,,NaN,,,,,,,,high,low,,,,,,false,,,,false,757471.0999999642,757471,,757470.8999999762,,757335.939,4,500,,
break_continue,html.Screen,10_27_2,2023-11-15T20:52:46.273Z,,,,,,,,,,NaN,,,,,,,,high,low,,,,,,false,,,,false,757471.3999999762,757471.3000000119,,757471.1999999881,,757335.939,4,500,,
sequence,flow.Sequence,10_27,2023-11-15T20:52:46.273Z,,,,,,,,,,4201.805000011926,completion,,,,,,,high,low,,,,,,false,,,,false,757471.5,757471.3000000119,753252.415,753391.5999999642,753269.495,757335.939,4,500,,
trial,html.Screen,10_28_0,2023-11-15T20:52:53.536Z,,,,1,-0.0249297455748133,0.055986418955019,,true,lh,7398.960999976145,response,-0.7088606387153258,0.6173622573342598,-0.8145480247863635,0.948610930521224,0.9516681998413766,-1.1173512930339604,low,high,,ISIC_3900049.JPG,9,ISIC_0026293.JPG,30,false,lh,keypress(e),0,false,764735,764734.8999999762,757319.46,757471.5,757335.939,764602.603,4,500,29,
break,html.Screen,10_28_1,2023-11-15T20:52:53.537Z,,,,,,,,,,NaN,,,,,,,,low,high,,,,,,false,,,,false,764735.3000000119,764735.3000000119,,764735,,764602.603,4,500,,
break_continue,html.Screen,10_28_2,2023-11-15T20:52:53.537Z,,,,,,,,,,NaN,,,,,,,,low,high,,,,,,false,,,,false,764735.5,764735.3999999762,,764735.3000000119,,764602.603,4,500,,
sequence,flow.Sequence,10_28,2023-11-15T20:52:53.537Z,,,,,,,,,,7399.460999976145,completion,,,,,,,low,high,,,,,,false,,,,false,764735.5999999642,764735.3999999762,757319.46,757471.5,757335.939,764602.603,4,500,,
trial,html.Screen,10_29_0,2023-11-15T20:53:01.744Z,,,,1,0.0146597765042814,0.06222227493177,,true,hh,8340.197000011918,response,0.4883848309143563,0.6173622573342598,-0.8145480247863635,0.8374805508361907,0.9516681998413766,-1.1173512930339604,high,high,,ISIC_5982769.JPG,9,ISIC_2739449.JPG,244,false,hh,keypress(i),0,false,772942.8999999762,772942.8000000119,764586.297,764735.5999999642,764602.603,772819.686,4,500,30,
break,html.Screen,10_29_1,2023-11-15T20:53:01.744Z,,,,,,,,,,NaN,,,,,,,,high,high,,,,,,false,,,,false,772943.3000000119,772943.0999999642,,772943,,772819.686,4,500,,
break_continue,html.Screen,10_29_2,2023-11-15T20:53:01.745Z,,,,,,,,,,NaN,,,,,,,,high,high,,,,,,false,,,,false,772943.5,772943.3999999762,,772943.3000000119,,772819.686,4,500,,
sequence,flow.Sequence,10_29,2023-11-15T20:53:01.745Z,,,,,,,,,,8340.796999976155,completion,,,,,,,high,high,,,,,,false,,,,false,772943.5999999642,772943.3999999762,764586.297,764735.5999999642,764602.603,772819.686,4,500,,
trial,html.Screen,10_30_0,2023-11-15T20:53:05.280Z,,,,1,0.0374659946425444,0.0086043094957617,,false,hh,3659.314000000013,response,0.7450220923011052,0.6173622573342598,-0.8145480247863635,1.110053837161886,0.9516681998413766,-1.1173512930339604,high,high,,ISIC_0033051.JPG,9,ISIC_0028418.JPG,244,false,hl,keypress(j),0,false,776479.0999999642,776479,772802.633,772943.5999999642,772819.686,776352.825,4,500,31,
break,html.Screen,10_30_1,2023-11-15T20:53:05.281Z,,,,,,,,,,NaN,,,,,,,,high,high,,,,,,false,,,,false,776479.3999999762,776479.3000000119,,776479.0999999642,,776352.825,4,500,,
break_continue,html.Screen,10_30_2,2023-11-15T20:53:05.281Z,,,,,,,,,,NaN,,,,,,,,high,high,,,,,,false,,,,false,776479.5999999642,776479.3999999762,,776479.3999999762,,776352.825,4,500,,
sequence,flow.Sequence,10_30,2023-11-15T20:53:05.281Z,,,,,,,,,,3659.713999976171,completion,,,,,,,high,high,,,,,,false,,,,false,776479.5999999642,776479.3999999762,772802.633,772943.5999999642,772819.686,776352.825,4,500,,
trial,html.Screen,10_31_0,2023-11-15T20:53:09.264Z,,,,1,0.049790040126711,-0.0195291725171472,,false,lh,4109.9750000119675,response,-0.6428017625736049,0.6173622573342598,-0.8145480247863635,0.8080600569333839,0.9516681998413766,-1.1173512930339604,low,high,,ISIC_0372902.JPG,9,ISIC_9244047.JPG,30,false,hl,keypress(j),0,false,780462.8999999762,780462.8000000119,776336.274,776479.6999999881,776352.825,780336.078,4,500,32,
break,html.Screen,10_31_1,2023-11-15T20:53:09.264Z,,,,,,,,,,NaN,,,,,,,,low,high,,,,,,false,,,,false,780463.1999999881,780463.0999999642,,780463,,780336.078,4,500,,
break_continue,html.Screen,10_31_2,2023-11-15T20:53:09.265Z,,,,,,,,,,NaN,,,,,,,,low,high,,,,,,false,,,,false,780463.3999999762,780463.3000000119,,780463.1999999881,,780336.078,4,500,,
sequence,flow.Sequence,10_31,2023-11-15T20:53:09.265Z,,,,,,,,,,4110.4750000119675,completion,,,,,,,low,high,,,,,,false,,,,false,780463.3999999762,780463.3000000119,776336.274,776479.6999999881,776352.825,780336.078,4,500,,
trial,html.Screen,10_32_0,2023-11-15T20:53:12.848Z,,,,1,-0.0423567271646023,-0.0380126882576854,,false,lh,3710.9220000000205,response,-0.653428169925849,0.6173622573342598,-0.8145480247863635,1.1440026895944202,0.9516681998413766,-1.1173512930339604,low,high,,ISIC_0046932.JPG,9,ISIC_0031214.JPG,30,false,hl,keypress(j),0,false,784047.0999999642,784047,780319.302,780463.3999999762,780336.078,783919.668,4,500,33,
break,html.Screen,10_32_1,2023-11-15T20:53:12.849Z,,,,,,,,,,NaN,,,,,,,,low,high,,,,,,false,,,,false,784047.3999999762,784047.3000000119,,784047.1999999881,,783919.668,4,500,,
break_continue,html.Screen,10_32_2,2023-11-15T20:53:12.849Z,,,,,,,,,,NaN,,,,,,,,low,high,,,,,,false,,,,false,784047.5999999642,784047.5,,784047.3999999762,,783919.668,4,500,,
sequence,flow.Sequence,10_32,2023-11-15T20:53:12.849Z,,,,,,,,,,3711.4220000000205,completion,,,,,,,low,high,,,,,,false,,,,false,784047.5999999642,784047.5,780319.302,780463.3999999762,780336.078,783919.668,4,500,,
trial,html.Screen,10_33_0,2023-11-15T20:53:15.792Z,,,,1,-0.0586798548295751,0.0060040805764433,,true,lh,3071.132000011974,response,-0.8830264383952469,0.6173622573342598,-0.8145480247863635,0.8635562538060516,0.9516681998413766,-1.1173512930339604,low,high,,ISIC_1552232.JPG,9,ISIC_0032258.JPG,30,false,lh,keypress(e),0,false,786990.8999999762,786990.8000000119,783902.769,784047.5999999642,783919.668,786869.49,4,500,34,
break,html.Screen,10_33_1,2023-11-15T20:53:15.792Z,,,,,,,,,,NaN,,,,,,,,low,high,,,,,,false,,,,false,786991.1999999881,786991.1999999881,,786990.8999999762,,786869.49,4,500,,
break_continue,html.Screen,10_33_2,2023-11-15T20:53:15.793Z,,,,,,,,,,NaN,,,,,,,,low,high,,,,,,false,,,,false,786991.3000000119,786991.3000000119,,786991.1999999881,,786869.49,4,500,,
sequence,flow.Sequence,10_33,2023-11-15T20:53:15.793Z,,,,,,,,,,3071.632000011974,completion,,,,,,,low,high,,,,,,false,,,,false,786991.5,786991.3000000119,783902.769,784047.5999999642,783919.668,786869.49,4,500,,
trial,html.Screen,10_34_0,2023-11-15T20:53:18.064Z,,,,1,0.0367060100866019,0.0630207980628495,,true,hl,2393.2099999880884,response,0.4463812003479255,0.6173622573342598,-0.8145480247863635,-0.9602125665128364,0.9516681998413766,-1.1173512930339604,high,low,,ISIC_0028396.JPG,9,ISIC_0056784.JPG,43,false,hl,keypress(j),0,false,789262.8999999762,789262.6999999881,786852.628,786991.5,786869.49,789136.158,4,500,35,
break,html.Screen,10_34_1,2023-11-15T20:53:18.064Z,,,,,,,,,,NaN,,,,,,,,high,low,,,,,,false,,,,false,789263.0999999642,789263,,789262.8999999762,,789136.158,4,500,,
break_continue,html.Screen,10_34_2,2023-11-15T20:53:18.065Z,,,,,,,,,,NaN,,,,,,,,high,low,,,,,,false,,,,false,789263.3999999762,789263.3000000119,,789263.1999999881,,789136.158,4,500,,
sequence,flow.Sequence,10_34,2023-11-15T20:53:18.065Z,,,,,,,,,,2393.8100000119302,completion,,,,,,,high,low,,,,,,false,,,,false,789263.5,789263.3000000119,786852.628,786991.5,786869.49,789136.158,4,500,,
trial,html.Screen,10_35_0,2023-11-15T20:53:21.264Z,,,,1,-0.0633291412406864,0.0446580444004686,,false,ll,3326.341999999946,response,-0.6518493482259836,0.6173622573342598,-0.8145480247863635,-1.300224660339869,0.9516681998413766,-1.1173512930339604,low,low,,ISIC_0010718.JPG,10,ISIC_2105563.JPG,122,false,lh,keypress(e),0,false,792462.5,792462.5,789119.449,789263.5,789136.158,792336.153,4,500,36,
break,html.Screen,10_35_1,2023-11-15T20:53:21.264Z,,,,,,,,,,NaN,,,,,,,,low,low,,,,,,false,,,,false,792462.8999999762,792462.8000000119,,792462.5999999642,,792336.153,4,500,,
break_continue,html.Screen,10_35_2,2023-11-15T20:53:21.264Z,,,,,,,,,,NaN,,,,,,,,low,low,,,,,,false,,,,false,792463.0999999642,792463,,792462.8999999762,,792336.153,4,500,,
sequence,flow.Sequence,10_35,2023-11-15T20:53:21.264Z,,,,,,,,,,3326.841999999946,completion,,,,,,,low,low,,,,,,false,,,,false,792463.0999999642,792463,789119.449,789263.5,789136.158,792336.153,4,500,,
trial,html.Screen,10_36_0,2023-11-15T20:53:25.888Z,,,,1,0.0418938536494534,-0.0678614270583654,,false,lh,4750.846999999951,response,-0.6847356212299776,0.6173622573342598,-0.8145480247863635,0.8347403229058601,0.9516681998413766,-1.1173512930339604,low,high,,ISIC_0027573.JPG,9,ISIC_0064517.JPG,30,false,hh,keypress(i),0,false,797087,797087,792319.577,792463.1999999881,792336.153,796952.522,4,500,37,
break,html.Screen,10_36_1,2023-11-15T20:53:25.889Z,,,,,,,,,,NaN,,,,,,,,low,high,,,,,,false,,,,false,797087.3000000119,797087.3000000119,,797087.1999999881,,796952.522,4,500,,
break_continue,html.Screen,10_36_2,2023-11-15T20:53:25.889Z,,,,,,,,,,NaN,,,,,,,,low,high,,,,,,false,,,,false,797087.5999999642,797087.5,,797087.3999999762,,796952.522,4,500,,
sequence,flow.Sequence,10_36,2023-11-15T20:53:25.889Z,,,,,,,,,,4751.346999999951,completion,,,,,,,low,high,,,,,,false,,,,false,797087.5999999642,797087.5,792319.577,792463.1999999881,792336.153,796952.522,4,500,,
trial,html.Screen,10_37_0,2023-11-15T20:53:31.312Z,,,,1,0.0146597765042814,0.06222227493177,,false,hl,5557.978000000003,response,0.6761608723588025,0.6173622573342598,-0.8145480247863635,-1.0058174828582729,0.9516681998413766,-1.1173512930339604,high,low,,ISIC_5982769.JPG,9,ISIC_1343302.JPG,43,false,hh,keypress(i),0,false,802510.5999999642,802510.5,796936.126,797087.6999999881,796952.522,802385.975,4,500,38,
