sender,sender_type,sender_id,timestamp,meta,,age,blockNo,c1,c2,condition,correct,correctResponse,duration,ended_on,f1,f1_high,f1_low,f2,f2_high,f2_low,feature_level1,feature_level2,gender,img_left,img_reveal,img_right,n_target_images,practice,response,response_action,selection_duration,staircase,time_commit,time_end,time_render,time_run,time_show,time_switch,total_blocks,total_trials,trialNo,url
informed_consent,html.Screen,0,2023-11-15T18:31:13.123Z,"{""labjs_version"":""20.2.4"",""labjs_build"":{""flavor"":""development"",""commit"":""f5b4a49f956347addd546a832a3327688c2c0fef""},""location"":""https://labjs.felixhenninger.com/api/labjs_preview/index.html"",""userAgent"":""Mozilla/5.0 (Windows NT 10.0; Win64; x64) AppleWebKit/537.36 (KHTML, like Gecko) Chrome/119.0.0.0 Safari/537.36"",""platform"":""Win32"",""language"":""en-US"",""locale"":""en-US"",""timeZone"":""America/Chicago"",""timezoneOffset"":360,""screen_width"":1920,""screen_height"":1080,""scroll_width"":945,""scroll_height"":918,""window_innerWidth"":945,""window_innerHeight"":966,""devicePixelRatio"":1}",,,,,,,,,22055.91500000596,response,,,,,,,,,,,,,,,consent,click button,,,22658.79999999702,22650.40000000596,577.883,803.2000000029802,594.485,22433.034,,,,{}
Demography form,html.Form,1,2023-11-15T18:31:35.804Z,,,18,,,,,,,22906.466,form submission,,,,,,,,,female,,,,,,,,,,45339.70000000298,45339.5,22416.483,22659.10000000894,22433.034,45122.412,,,,
Welcome,html.Screen,2,2023-11-15T18:32:11.235Z,,,,,,,"[""asym"",""bor""]",,,35647.988000005964,response,,,,,,,,,,,,,,,continue,click button,,,80771,80770.40000000596,45105.897,45339.70000000298,45122.412,80574.693,,,,
demo_instructions,html.Screen,3,2023-11-15T18:32:56.500Z,,,,,,,,,,45460.00700000298,response,,,,,,,,,,,,,,,continue,click button,,,126035.20000000298,126034.70000000298,80558.105,80771.10000000894,80574.693,125819.857,,,,
trial,html.Screen,4_0_0,2023-11-15T18:33:16.567Z,,,,0,0.8655167308525522,-0.9298580423306444,,true,lh,20282.043000005957,response,-0.8579451262594331,1.0499999999999998,-1.0499999999999998,0.9633172970727744,1.0499999999999998,-1.0499999999999998,low,high,,ISIC_4603706.JPG,,ISIC_0067172.JPG,21,true,lh,keypress(e),100,false,146102.10000000894,146101.90000000596,125803.371,126035.40000000596,125819.857,145906.781,1,16,1,
sequence,flow.Sequence,4_0,2023-11-15T18:33:16.575Z,,,,,,,,,,20282.043000005957,completion,,,,,,,low,high,,,,,,true,,,,false,146109.5,146101.90000000596,125803.371,126035.40000000596,125819.857,145906.781,1,16,,
trial,html.Screen,4_1_0,2023-11-15T18:33:24.387Z,,,,0,0.8947611078712571,-0.8960964505004638,,true,lh,8015.119000005972,response,-0.858338058340649,1.0499999999999998,-1.0499999999999998,0.9540612223480284,1.0499999999999998,-1.0499999999999998,low,high,,ISIC_6441128.JPG,,ISIC_8922893.JPG,21,true,lh,keypress(e),100,false,153922.10000000894,153921.90000000596,145889.946,146109.60000000894,145906.781,153731.282,1,16,2,
sequence,flow.Sequence,4_1,2023-11-15T18:33:24.387Z,,,,,,,,,,8015.119000005972,completion,,,,,,,low,high,,,,,,true,,,,false,153922.40000000596,153921.90000000596,145889.946,146109.60000000894,145906.781,153731.282,1,16,,
trial,html.Screen,4_2_0,2023-11-15T18:33:29.928Z,,,,0,0.991146183030456,-0.9949639823722534,,true,lh,5731.517999997013,response,-1.0751036484083878,1.0499999999999998,-1.0499999999999998,1.143906455483852,1.0499999999999998,-1.0499999999999998,low,high,,ISIC_6342224.JPG,,ISIC_0064406.JPG,21,true,lh,keypress(e),100,false,159463.10000000894,159462.79999999702,153714.685,153922.60000000894,153731.282,159270.108,1,16,3,
sequence,flow.Sequence,4_2,2023-11-15T18:33:29.929Z,,,,,,,,,,5731.517999997013,completion,,,,,,,low,high,,,,,,true,,,,false,159463.40000000596,159462.79999999702,153714.685,153922.5,153731.282,159270.108,1,16,,
trial,html.Screen,4_3_0,2023-11-15T18:33:33.518Z,,,,0,0.991146183030456,-0.9949639823722534,,true,lh,3782.792000005953,response,-1.2364994561934892,1.0499999999999998,-1.0499999999999998,0.9174173651516624,1.0499999999999998,-1.0499999999999998,low,high,,ISIC_6342224.JPG,,ISIC_3481133.JPG,21,true,lh,keypress(e),100,false,163053.20000000298,163052.90000000596,159253.529,159463.60000000894,159270.108,162856.936,1,16,4,
sequence,flow.Sequence,4_3,2023-11-15T18:33:33.519Z,,,,,,,,,,3782.792000005953,completion,,,,,,,low,high,,,,,,true,,,,false,163053.40000000596,163052.90000000596,159253.529,159463.5,159270.108,162856.936,1,16,,
trial,html.Screen,4_4_0,2023-11-15T18:33:41.443Z,,,,0,1.242586748440878,1.1207933200172129,,true,ll,8120.9640000059735,response,-0.9936778235464944,1.0499999999999998,-1.0499999999999998,-0.9945365746760566,1.0499999999999998,-1.0499999999999998,low,low,,ISIC_0013073.JPG,,ISIC_5108076.JPG,111,true,ll,keypress(f),100,false,170978.20000000298,170977.90000000596,162840.268,163053.5,162856.936,170781.533,1,16,5,
sequence,flow.Sequence,4_4,2023-11-15T18:33:41.444Z,,,,,,,,,,8120.9640000059735,completion,,,,,,,low,low,,,,,,true,,,,false,170978.5,170977.90000000596,162840.268,163053.5,162856.936,170781.533,1,16,,
trial,html.Screen,4_5_0,2023-11-15T18:33:45.259Z,,,,0,0.9789697360622612,1.0321843200509992,,true,ll,4011.6670000029844,response,-1.037577073517966,1.0499999999999998,-1.0499999999999998,-1.027048110709042,1.0499999999999998,-1.0499999999999998,low,low,,ISIC_0056406.JPG,,ISIC_0004932.JPG,111,true,ll,keypress(f),100,false,174793.40000000596,174793.20000000298,170764.974,170978.70000000298,170781.533,174602.253,1,16,6,
sequence,flow.Sequence,4_5,2023-11-15T18:33:45.259Z,,,,,,,,,,4011.6670000029844,completion,,,,,,,low,low,,,,,,true,,,,false,174793.70000000298,174793.20000000298,170764.974,170978.70000000298,170781.533,174602.253,1,16,,
trial,html.Screen,4_6_0,2023-11-15T18:33:46.686Z,,,,0,1.2249552940807693,1.1723015116910682,,true,ll,1618.8470000089437,response,-1.167096465294285,1.0499999999999998,-1.0499999999999998,-0.9006099890327319,1.0499999999999998,-1.0499999999999998,low,low,,ISIC_0055251.JPG,,ISIC_7511557.JPG,111,true,ll,keypress(f),100,false,176221.29999999702,176221.10000000894,174585.376,174793.70000000298,174602.253,176020.086,1,16,7,
sequence,flow.Sequence,4_6,2023-11-15T18:33:46.687Z,,,,,,,,,,1618.8470000089437,completion,,,,,,,low,low,,,,,,true,,,,false,176221.70000000298,176221.10000000894,174585.376,174793.70000000298,174602.253,176020.086,1,16,,
trial,html.Screen,4_7_0,2023-11-15T18:33:48.197Z,,,,0,1.0377676235641546,1.0836906473836847,,true,ll,1712.11400000297,response,-1.227935316040483,1.0499999999999998,-1.0499999999999998,-1.0211808747755002,1.0499999999999998,-1.0499999999999998,low,low,,ISIC_0010540.JPG,,ISIC_1211506.JPG,111,true,ll,keypress(f),100,false,177732.40000000596,177732.20000000298,176003.431,176221.90000000596,176020.086,177538.315,1,16,8,
sequence,flow.Sequence,4_7,2023-11-15T18:33:48.198Z,,,,,,,,,,1712.11400000297,completion,,,,,,,low,low,,,,,,true,,,,false,177732.5,177732.20000000298,176003.431,176221.79999999702,176020.086,177538.315,1,16,,
trial,html.Screen,4_8_0,2023-11-15T18:34:10.923Z,,,,0,-0.869932994914832,0.8880533324432531,,true,hl,22919.385000002978,response,0.7833710010171356,0.9499999999999997,-0.9499999999999997,-0.9315588090336896,0.9499999999999997,-0.9499999999999997,high,low,,ISIC_8617084.JPG,,ISIC_3826102.JPG,26,true,hl,keypress(j),100,false,200457.90000000596,200457.70000000298,177521.788,177732.60000000894,177538.315,200261.019,1,16,9,
sequence,flow.Sequence,4_8,2023-11-15T18:34:10.924Z,,,,,,,,,,22919.385000002978,completion,,,,,,,high,low,,,,,,true,,,,false,200458.20000000298,200457.70000000298,177521.788,177732.60000000894,177538.315,200261.019,1,16,,
trial,html.Screen,4_9_0,2023-11-15T18:34:14.353Z,,,,0,-0.8579451262594331,0.9633172970727744,,true,hl,3626.0810000089405,response,1.0122398223568725,0.9499999999999997,-0.9499999999999997,-0.7505228537454216,0.9499999999999997,-0.9499999999999997,high,low,,ISIC_0067172.JPG,,ISIC_0033802.JPG,26,true,hl,keypress(j),100,false,203887.29999999702,203887.10000000894,200244.546,200458.20000000298,200261.019,203697.97,1,16,10,
sequence,flow.Sequence,4_9,2023-11-15T18:34:14.353Z,,,,,,,,,,3626.0810000089405,completion,,,,,,,high,low,,,,,,true,,,,false,203887.60000000894,203887.10000000894,200244.546,200458.20000000298,200261.019,203697.97,1,16,,
trial,html.Screen,4_10_0,2023-11-15T18:34:16.102Z,,,,0,-0.9454713230140772,0.9245167441969216,,true,hl,1938.230000002979,response,1.0115965332688306,0.9499999999999997,-0.9499999999999997,-0.8282633603842442,0.9499999999999997,-0.9499999999999997,high,low,,ISIC_9101055.JPG,,ISIC_1069587.JPG,26,true,hl,keypress(j),100,false,205636.40000000596,205636.20000000298,203681.129,203887.70000000298,203697.97,205432.887,1,16,11,
sequence,flow.Sequence,4_10,2023-11-15T18:34:16.102Z,,,,,,,,,,1938.230000002979,completion,,,,,,,high,low,,,,,,true,,,,false,205636.5,205636.20000000298,203681.129,203887.70000000298,203697.97,205432.887,1,16,,
trial,html.Screen,4_11_0,2023-11-15T18:34:17.449Z,,,,0,-0.7784583866003763,0.9641514808986528,,true,hl,1550.7130000089528,response,0.7871162143493278,0.9499999999999997,-0.9499999999999997,-0.8429329800778957,0.9499999999999997,-0.9499999999999997,high,low,,ISIC_0011924.JPG,,ISIC_3439215.JPG,26,true,hl,keypress(j),100,false,206983.90000000596,206983.60000000894,205416.164,205636.60000000894,205432.887,206784.353,1,16,12,
sequence,flow.Sequence,4_11,2023-11-15T18:34:17.450Z,,,,,,,,,,1550.7130000089528,completion,,,,,,,high,low,,,,,,true,,,,false,206984.20000000298,206983.60000000894,205416.164,205636.60000000894,205432.887,206784.353,1,16,,
trial,html.Screen,4_12_0,2023-11-15T18:34:19.648Z,,,,0,-0.77266095910939,-0.8171109532905281,,true,hh,2398.3470000029774,response,0.8809051780367407,0.9499999999999997,-0.9499999999999997,1.044525830449456,0.9499999999999997,-0.9499999999999997,high,high,,ISIC_0283506.JPG,,ISIC_0029212.JPG,167,true,hh,keypress(i),100,false,209182.90000000596,209182.70000000298,206767.55,206984.40000000596,206784.353,208986.505,1,16,13,
sequence,flow.Sequence,4_12,2023-11-15T18:34:19.648Z,,,,,,,,,,2398.3470000029774,completion,,,,,,,high,high,,,,,,true,,,,false,209183.10000000894,209182.70000000298,206767.55,206984.40000000596,206784.353,208986.505,1,16,,
trial,html.Screen,4_13_0,2023-11-15T18:34:21.829Z,,,,0,-1.0650525146668357,-0.9852293825146712,,true,hh,2377.294999997015,response,0.8426512029386741,0.9499999999999997,-0.9499999999999997,0.7924499678897714,0.9499999999999997,-0.9499999999999997,high,high,,ISIC_6642608.JPG,,ISIC_0013636.JPG,167,true,hh,keypress(i),100,false,211364,211363.79999999702,208969.87,209183.10000000894,208986.505,211171.992,1,16,14,
sequence,flow.Sequence,4_13,2023-11-15T18:34:21.830Z,,,,,,,,,,2377.294999997015,completion,,,,,,,high,high,,,,,,true,,,,false,211364.29999999702,211363.79999999702,208969.87,209183.10000000894,208986.505,211171.992,1,16,,
trial,html.Screen,4_14_0,2023-11-15T18:34:23.307Z,,,,0,-1.09666761087476,-1.1072126870290426,,true,hh,1669.0080000000016,response,0.7667223565323059,0.9499999999999997,-0.9499999999999997,0.7525280650246937,0.9499999999999997,-0.9499999999999997,high,high,,ISIC_0071754.JPG,,ISIC_0031397.JPG,167,true,hh,keypress(i),100,false,212841.20000000298,212841,211155.368,211364.60000000894,211171.992,212640.232,1,16,15,
sequence,flow.Sequence,4_14,2023-11-15T18:34:23.307Z,,,,,,,,,,1669.0080000000016,completion,,,,,,,high,high,,,,,,true,,,,false,212841.5,212841,211155.368,211364.5,211171.992,212640.232,1,16,,
trial,html.Screen,4_15_0,2023-11-15T18:34:25.184Z,,,,0,-0.8728834820669534,-0.9788202580034188,,true,hh,2078.768000000011,response,1.1253220985777015,0.9499999999999997,-0.9499999999999997,1.108725659461368,0.9499999999999997,-0.9499999999999997,high,high,,ISIC_7519627.JPG,,ISIC_0054954.JPG,167,true,hh,keypress(i),100,false,214719.10000000894,214719,212623.401,212841.60000000894,212640.232,214525.497,1,16,16,
sequence,flow.Sequence,4_15,2023-11-15T18:34:25.185Z,,,,,,,,,,2078.768000000011,completion,,,,,,,high,high,,,,,,true,,,,false,214719.29999999702,214719,212623.401,212841.5,212640.232,214525.497,1,16,,
demonstration_loop,flow.Loop,4,2023-11-15T18:34:25.185Z,,,,,,,,,,88899.143,completion,,,,,,,,,,,,,,true,,,,false,214719.5,214719,125803.371,126035.29999999702,125819.857,214525.497,1,16,,
practice_instructions,html.Screen,5,2023-11-15T18:34:39.949Z,,,,,,,,,,14949.203000002977,response,,,,,,,,,,,,,,,continue,click button,,,229483.5,229474.70000000298,214508.653,214719.5,214525.497,229256.723,,,,
trial,html.Screen,6_0_0,2023-11-15T18:34:50.727Z,,,,1,-1.011737552725394,0.8500530224490773,,,,10794.174999999988,timeout,0.8816288864119318,0.9499999999999997,-0.9499999999999997,-0.801867301188093,0.9499999999999997,-0.9499999999999997,high,low,,ISIC_2998367.JPG,,ISIC_9196783.JPG,26,true,,,0,false,240261.79999999702,240261.60000000894,229240.251,229483.60000000894,229256.723,240050.898,1,40,1,
sequence,flow.Sequence,6_0,2023-11-15T18:34:50.727Z,,,,,,,,,,11004.877000008943,completion,,,,,,,high,low,,,,,,true,,,,false,240262,240261.60000000894,229240.251,229483.60000000894,229256.723,240050.898,1,40,,
trial,html.Screen,6_1_0,2023-11-15T18:34:53.861Z,,,,1,-0.9607077625123552,-1.0682608339754711,,false,hh,3344.202000008954,response,0.9866439901618108,0.9499999999999997,-0.9499999999999997,0.9294281370493894,0.9499999999999997,-0.9499999999999997,high,high,,ISIC_0064763.JPG,,ISIC_0072953.JPG,167,true,ll,keypress(f),0,false,243395.20000000298,243395.10000000894,240034.187,240262,240050.898,243187.376,1,40,2,
sequence,flow.Sequence,6_1,2023-11-15T18:34:53.861Z,,,,,,,,,,3344.202000008954,completion,,,,,,,high,high,,,,,,true,,,,false,243395.40000000596,243395.10000000894,240034.187,240262,240050.898,243187.376,1,40,,
trial,html.Screen,6_2_0,2023-11-15T18:35:02.741Z,,,,1,-1.0751036484083878,1.143906455483852,,false,hl,9087.824000002991,response,0.7911024675435955,0.9499999999999997,-0.9499999999999997,-0.7975977016137676,0.9499999999999997,-0.9499999999999997,high,low,,ISIC_0064406.JPG,,ISIC_5813642.JPG,26,true,ll,keypress(f),0,false,252275.29999999702,252275.20000000298,243170.722,243395.5,243187.376,252062.981,1,40,3,
sequence,flow.Sequence,6_2,2023-11-15T18:35:02.741Z,,,,,,,,,,9087.824000002991,completion,,,,,,,high,low,,,,,,true,,,,false,252275.40000000596,252275.20000000298,243170.722,243395.40000000596,243187.376,252062.981,1,40,,
trial,html.Screen,6_3_0,2023-11-15T18:35:07.333Z,,,,1,-1.0865333402803938,1.0542635307358266,,false,hl,4804.31899999702,response,0.9388660854518424,0.9499999999999997,-0.9499999999999997,-0.79533948698576,0.9499999999999997,-0.9499999999999997,high,low,,ISIC_0034006.JPG,,ISIC_9291926.JPG,26,true,hh,keypress(i),0,false,256867.40000000596,256867.29999999702,252046.136,252275.60000000894,252062.981,256650.793,1,40,4,
sequence,flow.Sequence,6_3,2023-11-15T18:35:07.333Z,,,,,,,,,,4804.31899999702,completion,,,,,,,high,low,,,,,,true,,,,false,256867.60000000894,256867.29999999702,252046.136,252275.5,252062.981,256650.793,1,40,,
trial,html.Screen,6_4_0,2023-11-15T18:35:14.781Z,,,,1,0.9185517403328254,0.9975299101285906,,true,ll,7664.506999997015,response,-0.8323753563397326,0.9499999999999997,-0.9499999999999997,-1.0355093302574103,0.9499999999999997,-0.9499999999999997,low,low,,ISIC_0011130.JPG,,ISIC_0046729.JPG,142,true,ll,keypress(f),0,false,264315.299999997,264315.299999997,256634.089,256867.60000000894,256650.793,264108.525,1,40,5,
sequence,flow.Sequence,6_4,2023-11-15T18:35:14.781Z,,,,,,,,,,7664.506999997015,completion,,,,,,,low,low,,,,,,true,,,,false,264315.5,264315.299999997,256634.089,256867.60000000894,256650.793,264108.525,1,40,,
trial,html.Screen,6_5_0,2023-11-15T18:35:17.573Z,,,,1,0.7705311022248598,0.8320229600727801,,true,ll,2998.875000005937,response,-1.0275060871969903,0.9499999999999997,-0.9499999999999997,-0.8666323445825409,0.9499999999999997,-0.9499999999999997,low,low,,ISIC_0026802.JPG,,ISIC_9155028.JPG,142,true,ll,keypress(f),0,false,267107.60000000894,267107.40000000596,264091.649,264315.5,264108.525,266894.426,1,40,6,
sequence,flow.Sequence,6_5,2023-11-15T18:35:17.573Z,,,,,,,,,,2998.875000005937,completion,,,,,,,low,low,,,,,,true,,,,false,267107.799999997,267107.40000000596,264091.649,264315.5,264108.525,266894.426,1,40,,
trial,html.Screen,6_6_0,2023-11-15T18:35:20.550Z,,,,1,0.809764442462202,-1.005337148078696,,false,lh,3189.2740000030026,response,-0.9696118525781644,0.9499999999999997,-0.9499999999999997,0.9244148283103414,0.9499999999999997,-0.9499999999999997,low,high,,ISIC_2379379.JPG,,ISIC_7927525.JPG,28,true,ll,keypress(f),0,false,270084,270083.700000003,266877.79,267108,266894.426,269880.902,1,40,7,
sequence,flow.Sequence,6_6,2023-11-15T18:35:20.550Z,,,,,,,,,,3189.2740000030026,completion,,,,,,,low,high,,,,,,true,,,,false,270084.299999997,270083.700000003,266877.79,267107.90000000596,266894.426,269880.902,1,40,,
trial,html.Screen,6_7_0,2023-11-15T18:35:28.446Z,,,,1,-1.0751036484083878,1.143906455483852,,false,hl,8098.897999997018,response,0.7833710010171356,0.9499999999999997,-0.9499999999999997,-0.9315588090336896,0.9499999999999997,-0.9499999999999997,high,low,,ISIC_0064406.JPG,,ISIC_3826102.JPG,26,true,hh,keypress(i),0,false,277980,277979.799999997,269847.569,270084.40000000596,269880.902,277772.02,1,40,8,
sequence,flow.Sequence,6_7,2023-11-15T18:35:28.446Z,,,,,,,,,,8098.897999997018,completion,,,,,,,high,low,,,,,,true,,,,false,277980.200000003,277979.799999997,269847.569,270084.299999997,269880.902,277772.02,1,40,,
trial,html.Screen,6_8_0,2023-11-15T18:35:30.933Z,,,,1,-0.869932994914832,0.8880533324432531,,false,hl,2695.380000005942,response,0.9388660854518424,0.9499999999999997,-0.9499999999999997,-0.79533948698576,0.9499999999999997,-0.9499999999999997,high,low,,ISIC_8617084.JPG,,ISIC_9291926.JPG,26,true,hh,keypress(i),0,false,280467.60000000894,280467.40000000596,277755.331,277980.299999997,277772.02,280257.848,1,40,9,
sequence,flow.Sequence,6_8,2023-11-15T18:35:30.933Z,,,,,,,,,,2695.380000005942,completion,,,,,,,high,low,,,,,,true,,,,false,280467.799999997,280467.40000000596,277755.331,277980.299999997,277772.02,280257.848,1,40,,
trial,html.Screen,6_9_0,2023-11-15T18:35:32.709Z,,,,1,0.7833710010171356,-0.9315588090336896,,false,lh,1985.4519999970216,response,-0.8534691366511764,0.9499999999999997,-0.9499999999999997,1.03975580494588,0.9499999999999997,-0.9499999999999997,low,high,,ISIC_3826102.JPG,,ISIC_0056788.JPG,28,true,hh,keypress(i),0,false,282243.5,282243.299999997,280241.233,280467.90000000596,280257.848,282026.21,1,40,10,
sequence,flow.Sequence,6_9,2023-11-15T18:35:32.709Z,,,,,,,,,,1985.4519999970216,completion,,,,,,,low,high,,,,,,true,,,,false,282243.700000003,282243.299999997,280241.233,280467.90000000596,280257.848,282026.21,1,40,,
trial,html.Screen,6_10_0,2023-11-15T18:35:38.901Z,,,,1,0.7870237732709365,-0.9172955251119376,,true,lh,6409.089999996999,response,-0.8979276789594874,0.9499999999999997,-0.9499999999999997,0.925374811016654,0.9499999999999997,-0.9499999999999997,low,high,,ISIC_0057716.JPG,,ISIC_4208361.JPG,28,true,lh,keypress(e),0,false,288435.40000000596,288435.299999997,282009.561,282243.700000003,282026.21,288232.808,1,40,11,
sequence,flow.Sequence,6_10,2023-11-15T18:35:38.901Z,,,,,,,,,,6409.089999996999,completion,,,,,,,low,high,,,,,,true,,,,false,288435.60000000894,288435.299999997,282009.561,282243.700000003,282026.21,288232.808,1,40,,
trial,html.Screen,6_11_0,2023-11-15T18:35:46.093Z,,,,1,0.754514979810059,1.0675071685593824,,true,ll,7394.592000005941,response,-1.0909285203537074,0.9499999999999997,-0.9499999999999997,-1.013890238726642,0.9499999999999997,-0.9499999999999997,low,low,,ISIC_0063046.JPG,,ISIC_0033799.JPG,142,true,ll,keypress(f),0,false,295627.5,295627.40000000596,288199.074,288435.700000003,288232.808,295422.942,1,40,12,
sequence,flow.Sequence,6_11,2023-11-15T18:35:46.093Z,,,,,,,,,,7394.592000005941,completion,,,,,,,low,low,,,,,,true,,,,false,295627.700000003,295627.40000000596,288199.074,288435.700000003,288232.808,295422.942,1,40,,
trial,html.Screen,6_12_0,2023-11-15T18:35:48.334Z,,,,1,1.0657476601009717,0.970732112511705,,true,ll,2444.857999997039,response,-0.9991910338212396,0.9499999999999997,-0.9499999999999997,-0.9242629064104082,0.9499999999999997,-0.9499999999999997,low,low,,ISIC_0010778.JPG,,ISIC_7795549.JPG,142,true,ll,keypress(f),0,false,297868,297867.799999997,295406.29,295627.799999997,295422.942,297658.564,1,40,13,
sequence,flow.Sequence,6_12,2023-11-15T18:35:48.334Z,,,,,,,,,,2444.857999997039,completion,,,,,,,low,low,,,,,,true,,,,false,297868.299999997,297867.799999997,295406.29,295627.700000003,295422.942,297658.564,1,40,,
trial,html.Screen,6_13_0,2023-11-15T18:35:51.461Z,,,,1,-0.7848009721557384,-0.750809298734252,,true,hh,3336.7359999970067,response,0.8284509690992466,0.9499999999999997,-0.9499999999999997,1.016636264838755,0.9499999999999997,-0.9499999999999997,high,high,,ISIC_9648812.JPG,,ISIC_7973598.JPG,167,true,hh,keypress(i),0,false,300995.40000000596,300995.299999997,297641.928,297868.40000000596,297658.564,300778.262,1,40,14,
sequence,flow.Sequence,6_13,2023-11-15T18:35:51.461Z,,,,,,,,,,3336.7359999970067,completion,,,,,,,high,high,,,,,,true,,,,false,300995.5,300995.299999997,297641.928,297868.40000000596,297658.564,300778.262,1,40,,
trial,html.Screen,6_14_0,2023-11-15T18:35:54.589Z,,,,1,-1.0878102877901663,-0.9483364581769096,,true,hh,3344.9380000029923,response,1.0470490803707713,0.9499999999999997,-0.9499999999999997,0.9267385554195492,0.9499999999999997,-0.9499999999999997,high,high,,ISIC_1413242.JPG,,ISIC_0058649.JPG,167,true,hh,keypress(i),0,false,304123.200000003,304123.200000003,300761.791,300995.60000000894,300778.262,303914.846,1,40,15,
sequence,flow.Sequence,6_14,2023-11-15T18:35:54.589Z,,,,,,,,,,3344.9380000029923,completion,,,,,,,high,high,,,,,,true,,,,false,304123.40000000596,304123.200000003,300761.791,300995.60000000894,300778.262,303914.846,1,40,,
trial,html.Screen,6_15_0,2023-11-15T18:36:02.677Z,,,,1,-0.8534691366511764,1.03975580494588,,false,hl,8296.55400000594,response,0.809764442462202,0.9499999999999997,-0.9499999999999997,-1.005337148078696,0.9499999999999997,-0.9499999999999997,high,low,,ISIC_0056788.JPG,,ISIC_2379379.JPG,26,true,lh,keypress(e),0,false,312211.60000000894,312211.40000000596,303898.271,304123.40000000596,303914.846,312006.484,1,40,16,
sequence,flow.Sequence,6_15,2023-11-15T18:36:02.678Z,,,,,,,,,,8296.55400000594,completion,,,,,,,high,low,,,,,,true,,,,false,312211.799999997,312211.40000000596,303898.271,304123.40000000596,303914.846,312006.484,1,40,,
trial,html.Screen,6_16_0,2023-11-15T18:36:12.093Z,,,,1,0.8426401499140178,0.9561650569523902,,true,ll,9620.815999997023,response,-1.1011373150916248,0.9499999999999997,-0.9499999999999997,-0.7816231038128233,0.9499999999999997,-0.9499999999999997,low,low,,ISIC_0060380.JPG,,ISIC_8477065.JPG,142,true,ll,keypress(f),0,false,321627.40000000596,321627.299999997,311989.392,312211.90000000596,312006.484,321415.704,1,40,17,
sequence,flow.Sequence,6_16,2023-11-15T18:36:12.093Z,,,,,,,,,,9620.815999997023,completion,,,,,,,low,low,,,,,,true,,,,false,321627.60000000894,321627.299999997,311989.392,312211.90000000596,312006.484,321415.704,1,40,,
trial,html.Screen,6_17_0,2023-11-15T18:36:18.174Z,,,,1,-0.7918194339998469,-0.8721226813924959,,true,hh,6292.095999996993,response,0.7532157061562929,0.9499999999999997,-0.9499999999999997,1.0469383288898104,0.9499999999999997,-0.9499999999999997,high,high,,ISIC_0697953.JPG,,ISIC_0058926.JPG,167,true,hh,keypress(i),0,false,327708,327707.799999997,321398.916,321627.700000003,321415.704,327506.375,1,40,18,
sequence,flow.Sequence,6_17,2023-11-15T18:36:18.174Z,,,,,,,,,,6292.095999996993,completion,,,,,,,high,high,,,,,,true,,,,false,327708.200000003,327707.799999997,321398.916,321627.700000003,321415.704,327506.375,1,40,,
trial,html.Screen,6_18_0,2023-11-15T18:36:27.813Z,,,,1,0.809764442462202,-1.005337148078696,,true,lh,9841.125,response,-0.8579451262594331,0.9499999999999997,-0.9499999999999997,0.9633172970727744,0.9499999999999997,-0.9499999999999997,low,high,,ISIC_2379379.JPG,,ISIC_0067172.JPG,28,true,lh,keypress(e),0,false,337347.700000003,337347.5,327471.727,327708.299999997,327506.375,337131.36,1,40,19,
sequence,flow.Sequence,6_18,2023-11-15T18:36:27.814Z,,,,,,,,,,9841.125,completion,,,,,,,low,high,,,,,,true,,,,false,337347.90000000596,337347.5,327471.727,327708.299999997,327506.375,337131.36,1,40,,
trial,html.Screen,6_19_0,2023-11-15T18:36:37.654Z,,,,1,0.943978570218156,0.9420387258741144,,true,ll,10056.340000002994,response,-0.8763527075016911,0.9499999999999997,-0.9499999999999997,-0.8957887978691169,0.9499999999999997,-0.9499999999999997,low,low,,ISIC_0011642.JPG,,ISIC_8943906.JPG,142,true,ll,keypress(f),0,false,347188,347187.700000003,337114.695,337348,337131.36,346974.537,1,40,20,
sequence,flow.Sequence,6_19,2023-11-15T18:36:37.654Z,,,,,,,,,,10056.340000002994,completion,,,,,,,low,low,,,,,,true,,,,false,347188.200000003,347187.700000003,337114.695,337347.90000000596,337131.36,346974.537,1,40,,
trial,html.Screen,6_20_0,2023-11-15T18:36:46.205Z,,,,1,-0.9493297220358412,-0.9126122723623854,,true,hh,8765.06300000893,response,1.0687084488958063,0.9499999999999997,-0.9499999999999997,0.8837970437785844,0.9499999999999997,-0.9499999999999997,high,high,,ISIC_9738202.JPG,,ISIC_0072714.JPG,167,true,hh,keypress(i),0,false,355739.700000003,355739.60000000894,346957.796,347188.40000000596,346974.537,355533.213,1,40,21,
sequence,flow.Sequence,6_20,2023-11-15T18:36:46.206Z,,,,,,,,,,8765.06300000893,completion,,,,,,,high,high,,,,,,true,,,,false,355739.799999997,355739.60000000894,346957.796,347188.299999997,346974.537,355533.213,1,40,,
trial,html.Screen,6_21_0,2023-11-15T18:36:49.013Z,,,,1,-0.8318514901182542,-0.9538458994523976,,true,hh,3014.387000008952,response,1.0644984649911948,0.9499999999999997,-0.9499999999999997,0.8053137102379775,0.9499999999999997,-0.9499999999999997,high,high,,ISIC_3161477.JPG,,ISIC_2007396.JPG,167,true,hh,keypress(i),0,false,358547.700000003,358547.60000000894,355516.519,355740,355533.213,358336.062,1,40,22,
sequence,flow.Sequence,6_21,2023-11-15T18:36:49.014Z,,,,,,,,,,3014.387000008952,completion,,,,,,,high,high,,,,,,true,,,,false,358548,358547.60000000894,355516.519,355740,355533.213,358336.062,1,40,,
trial,html.Screen,6_22_0,2023-11-15T18:36:53.421Z,,,,1,-0.8979276789594874,0.925374811016654,,true,hl,4618.938000000024,response,0.8947611078712571,0.9499999999999997,-0.9499999999999997,-0.8960964505004638,0.9499999999999997,-0.9499999999999997,high,low,,ISIC_4208361.JPG,,ISIC_6441128.JPG,26,true,hl,keypress(j),0,false,362955.10000000894,362955,358319.311,358548,358336.062,362740.35,1,40,23,
sequence,flow.Sequence,6_22,2023-11-15T18:36:53.421Z,,,,,,,,,,4618.938000000024,completion,,,,,,,high,low,,,,,,true,,,,false,362955.299999997,362955,358319.311,358548,358336.062,362740.35,1,40,,
trial,html.Screen,6_23_0,2023-11-15T18:36:58.774Z,,,,1,0.8909652099281345,0.7550834643357679,,true,ll,5567.050000005984,response,-0.8755959065262388,0.9499999999999997,-0.9499999999999997,-1.093284184366194,0.9499999999999997,-0.9499999999999997,low,low,,ISIC_7501061.JPG,,ISIC_8096177.JPG,142,true,ll,keypress(f),0,false,368307.700000003,368307.40000000596,362723.677,362955.299999997,362740.35,368095.686,1,40,24,
sequence,flow.Sequence,6_23,2023-11-15T18:36:58.774Z,,,,,,,,,,5567.050000005984,completion,,,,,,,low,low,,,,,,true,,,,false,368307.90000000596,368307.40000000596,362723.677,362955.299999997,362740.35,368095.686,1,40,,
trial,html.Screen,6_24_0,2023-11-15T18:37:05.175Z,,,,1,0.7871162143493278,-0.8429329800778957,,true,lh,6612.7140000059735,response,-0.9454713230140772,0.9499999999999997,-0.9499999999999997,0.9245167441969216,0.9499999999999997,-0.9499999999999997,low,high,,ISIC_3439215.JPG,,ISIC_9101055.JPG,28,true,lh,keypress(e),0,false,374708.60000000894,374708.40000000596,368079.068,368308.10000000894,368095.686,374502.328,1,40,25,
sequence,flow.Sequence,6_24,2023-11-15T18:37:05.175Z,,,,,,,,,,6612.7140000059735,completion,,,,,,,low,high,,,,,,true,,,,false,374709.10000000894,374708.40000000596,368079.068,368308,368095.686,374502.328,1,40,,
trial,html.Screen,6_25_0,2023-11-15T18:37:15.949Z,,,,1,0.796241477082623,-0.9017449335975743,,,,10777.391000000003,timeout,-1.1181734135756094,0.9499999999999997,-0.9499999999999997,0.944560381774994,0.9499999999999997,-0.9499999999999997,low,high,,ISIC_8588033.JPG,,ISIC_9688534.JPG,28,true,,,0,false,385482.90000000596,385482.799999997,374485.437,374709.299999997,374502.328,385279.719,1,40,26,
sequence,flow.Sequence,6_25,2023-11-15T18:37:15.949Z,,,,,,,,,,10980.47199999704,completion,,,,,,,low,high,,,,,,true,,,,false,385483.40000000596,385482.799999997,374485.437,374709.200000003,374502.328,385279.719,1,40,,
trial,html.Screen,6_26_0,2023-11-15T18:37:19.477Z,,,,1,0.8331144817673659,0.9687545919760946,,true,ll,3731.580999997037,response,-0.8297121564547995,0.9499999999999997,-0.9499999999999997,-0.9292144567580788,0.9499999999999997,-0.9499999999999997,low,low,,ISIC_0028075.JPG,,ISIC_4108397.JPG,142,true,ll,keypress(f),0,false,389011.40000000596,389011.299999997,385263.127,385483.5,385279.719,388799.727,1,40,27,
sequence,flow.Sequence,6_26,2023-11-15T18:37:19.478Z,,,,,,,,,,3731.580999997037,completion,,,,,,,low,low,,,,,,true,,,,false,389011.700000003,389011.299999997,385263.127,385483.40000000596,385279.719,388799.727,1,40,,
trial,html.Screen,6_27_0,2023-11-15T18:37:21.142Z,,,,1,-0.8487429103619056,0.9778257804233036,,true,hl,1875.9730000029667,response,0.948927472020595,0.9499999999999997,-0.9499999999999997,-1.0660437155921598,0.9499999999999997,-0.9499999999999997,high,low,,ISIC_4554863.JPG,,ISIC_5808758.JPG,26,true,hl,keypress(j),0,false,390675.799999997,390675.700000003,388783.174,389011.799999997,388799.727,390468.148,1,40,28,
sequence,flow.Sequence,6_27,2023-11-15T18:37:21.142Z,,,,,,,,,,1875.9730000029667,completion,,,,,,,high,low,,,,,,true,,,,false,390676,390675.700000003,388783.174,389011.799999997,388799.727,390468.148,1,40,,
trial,html.Screen,6_28_0,2023-11-15T18:37:22.622Z,,,,1,-0.9487751044258608,-0.875032819970805,,true,hh,1687.9520000089542,response,0.7902359375375733,0.9499999999999997,-0.9499999999999997,0.8607451825540537,0.9499999999999997,-0.9499999999999997,high,high,,ISIC_4568084.JPG,,ISIC_0899961.JPG,167,true,hh,keypress(i),0,false,392156.299999997,392156.10000000894,390451.439,390676.200000003,390468.148,391953.013,1,40,29,
sequence,flow.Sequence,6_28,2023-11-15T18:37:22.623Z,,,,,,,,,,1687.9520000089542,completion,,,,,,,high,high,,,,,,true,,,,false,392156.700000003,392156.10000000894,390451.439,390676.200000003,390468.148,391953.013,1,40,,
trial,html.Screen,6_29_0,2023-11-15T18:37:24.310Z,,,,1,-0.8487429103619056,0.9778257804233036,,true,hl,1890.7869999970426,response,1.0164576835546473,0.9499999999999997,-0.9499999999999997,-0.8120626538423016,0.9499999999999997,-0.9499999999999997,high,low,,ISIC_4554863.JPG,,ISIC_6002694.JPG,26,true,hl,keypress(j),0,false,393844,393843.799999997,391936.326,392156.799999997,391953.013,393638.096,1,40,30,
sequence,flow.Sequence,6_29,2023-11-15T18:37:24.310Z,,,,,,,,,,1890.7869999970426,completion,,,,,,,high,low,,,,,,true,,,,false,393844.200000003,393843.799999997,391936.326,392156.799999997,391953.013,393638.096,1,40,,
trial,html.Screen,6_30_0,2023-11-15T18:37:27.254Z,,,,1,0.809764442462202,-1.005337148078696,,true,lh,3149.4039999999804,response,-1.0751036484083878,0.9499999999999997,-0.9499999999999997,1.143906455483852,0.9499999999999997,-0.9499999999999997,low,high,,ISIC_2379379.JPG,,ISIC_0064406.JPG,28,true,lh,keypress(e),0,false,396787.5,396787.5,393621.245,393844.40000000596,393638.096,396574.229,1,40,31,
sequence,flow.Sequence,6_30,2023-11-15T18:37:27.254Z,,,,,,,,,,3149.4039999999804,completion,,,,,,,low,high,,,,,,true,,,,false,396787.700000003,396787.5,393621.245,393844.299999997,393638.096,396574.229,1,40,,
trial,html.Screen,6_31_0,2023-11-15T18:37:29.614Z,,,,1,-0.952434586184464,-0.870679752281305,,true,hh,2573.271000000008,response,1.1383813631375823,0.9499999999999997,-0.9499999999999997,1.1319312220332556,0.9499999999999997,-0.9499999999999997,high,high,,ISIC_5791954.JPG,,ISIC_6227397.JPG,167,true,hh,keypress(i),0,false,399147.60000000894,399147.5,396557.557,396787.700000003,396574.229,398943.313,1,40,32,
sequence,flow.Sequence,6_31,2023-11-15T18:37:29.614Z,,,,,,,,,,2573.271000000008,completion,,,,,,,high,high,,,,,,true,,,,false,399147.700000003,399147.5,396557.557,396787.700000003,396574.229,398943.313,1,40,,
trial,html.Screen,6_32_0,2023-11-15T18:37:30.982Z,,,,1,0.9235571765207048,-1.0008081653938232,,true,lh,1572.5870000059367,response,-0.858338058340649,0.9499999999999997,-0.9499999999999997,0.9540612223480284,0.9499999999999997,-0.9499999999999997,low,high,,ISIC_8796632.JPG,,ISIC_8922893.JPG,28,true,lh,keypress(e),0,false,400516.200000003,400515.90000000596,398926.537,399147.799999997,398943.313,400311.344,1,40,33,
sequence,flow.Sequence,6_32,2023-11-15T18:37:30.982Z,,,,,,,,,,1572.5870000059367,completion,,,,,,,low,high,,,,,,true,,,,false,400516.5,400515.90000000596,398926.537,399147.799999997,398943.313,400311.344,1,40,,
trial,html.Screen,6_33_0,2023-11-15T18:37:33.582Z,,,,1,0.887838744955182,-0.7545096650863988,,true,lh,2804.5560000059777,response,-1.0865333402803938,0.9499999999999997,-0.9499999999999997,1.0542635307358266,0.9499999999999997,-0.9499999999999997,low,high,,ISIC_1488727.JPG,,ISIC_0034006.JPG,28,true,lh,keypress(e),0,false,403116.10000000894,403115.90000000596,400294.711,400516.60000000894,400311.344,402897.224,1,40,34,
sequence,flow.Sequence,6_33,2023-11-15T18:37:33.582Z,,,,,,,,,,2804.5560000059777,completion,,,,,,,low,high,,,,,,true,,,,false,403116.299999997,403115.90000000596,400294.711,400516.60000000894,400311.344,402897.224,1,40,,
trial,html.Screen,6_34_0,2023-11-15T18:37:34.805Z,,,,1,0.7572081681523501,1.1153245416918625,,true,ll,1442.0759999970323,response,-1.037577073517966,0.9499999999999997,-0.9499999999999997,-1.027048110709042,0.9499999999999997,-0.9499999999999997,low,low,,ISIC_5837098.JPG,,ISIC_0004932.JPG,142,true,ll,keypress(f),0,false,404339.299999997,404339.299999997,402880.535,403116.5,402897.224,404131.77,1,40,35,
sequence,flow.Sequence,6_34,2023-11-15T18:37:34.805Z,,,,,,,,,,1442.0759999970323,completion,,,,,,,low,low,,,,,,true,,,,false,404339.5,404339.299999997,402880.535,403116.40000000596,402897.224,404131.77,1,40,,
trial,html.Screen,6_35_0,2023-11-15T18:37:36.157Z,,,,1,-1.09666761087476,-1.1072126870290426,,true,hh,1559.4300000029616,response,0.8946880006769797,0.9499999999999997,-0.9499999999999997,0.9198276163642348,0.9499999999999997,-0.9499999999999997,high,high,,ISIC_0071754.JPG,,ISIC_7840728.JPG,167,true,hh,keypress(i),0,false,405691.299999997,405691.200000003,404115.08,404339.60000000894,404131.77,405483.113,1,40,36,
sequence,flow.Sequence,6_35,2023-11-15T18:37:36.157Z,,,,,,,,,,1559.4300000029616,completion,,,,,,,high,high,,,,,,true,,,,false,405691.5,405691.200000003,404115.08,404339.60000000894,404131.77,405483.113,1,40,,
trial,html.Screen,6_36_0,2023-11-15T18:37:38.757Z,,,,1,-1.0656673213158945,0.8082541692781954,,true,hl,2808.1869999970077,response,0.7809949855371787,0.9499999999999997,-0.9499999999999997,-0.8493861117004308,0.9499999999999997,-0.9499999999999997,high,low,,ISIC_0033985.JPG,,ISIC_7450481.JPG,26,true,hl,keypress(j),0,false,408291.40000000596,408291.299999997,405466.44,405691.5,405483.113,408085.762,1,40,37,
sequence,flow.Sequence,6_36,2023-11-15T18:37:38.758Z,,,,,,,,,,2808.1869999970077,completion,,,,,,,high,low,,,,,,true,,,,false,408291.60000000894,408291.299999997,405466.44,405691.5,405483.113,408085.762,1,40,,
trial,html.Screen,6_37_0,2023-11-15T18:37:40.254Z,,,,1,1.0470490803707713,0.9267385554195492,,true,ll,1701.9380000029923,response,-1.09666761087476,0.9499999999999997,-0.9499999999999997,-1.1072126870290426,0.9499999999999997,-0.9499999999999997,low,low,,ISIC_0058649.JPG,,ISIC_0071754.JPG,142,true,ll,keypress(f),0,false,409787.90000000596,409787.700000003,408069.237,408291.60000000894,408085.762,409570.558,1,40,38,
sequence,flow.Sequence,6_37,2023-11-15T18:37:40.254Z,,,,,,,,,,1701.9380000029923,completion,,,,,,,low,low,,,,,,true,,,,false,409788.10000000894,409787.700000003,408069.237,408291.60000000894,408085.762,409570.558,1,40,,
trial,html.Screen,6_38_0,2023-11-15T18:37:41.878Z,,,,1,0.8200962008791046,-0.7936051642828523,,true,lh,1841.1420000029611,response,-0.8809306963311293,0.9499999999999997,-0.9499999999999997,0.8614910030038974,0.9499999999999997,-0.9499999999999997,low,high,,ISIC_0027031.JPG,,ISIC_0013731.JPG,28,true,lh,keypress(e),0,false,411411.90000000596,411411.700000003,409553.962,409788.10000000894,409570.558,411205.527,1,40,39,
sequence,flow.Sequence,6_38,2023-11-15T18:37:41.878Z,,,,,,,,,,1841.1420000029611,completion,,,,,,,low,high,,,,,,true,,,,false,411412.10000000894,411411.700000003,409553.962,409788.10000000894,409570.558,411205.527,1,40,,
trial,html.Screen,6_39_0,2023-11-15T18:37:43.694Z,,,,1,-0.7647549879784493,-0.777443662430605,,true,hh,2022.1730000029784,response,0.838482148534353,0.9499999999999997,-0.9499999999999997,0.8179691667073062,0.9499999999999997,-0.9499999999999997,high,high,,ISIC_0012435.JPG,,ISIC_0055079.JPG,167,true,hh,keypress(i),0,false,413227.90000000596,413227.700000003,411188.944,411412.299999997,411205.527,413024.026,1,40,40,
sequence,flow.Sequence,6_39,2023-11-15T18:37:43.694Z,,,,,,,,,,2022.1730000029784,completion,,,,,,,high,high,,,,,,true,,,,false,413228.10000000894,413227.700000003,411188.944,411412.299999997,411205.527,413024.026,1,40,,
practice_loop,flow.Loop,6,2023-11-15T18:37:43.694Z,,,,,,,,,,183970.97700000298,completion,,,,,,,,,,,,,,true,,,,false,413228.200000003,413227.700000003,229240.251,229483.5,229256.723,413024.026,1,40,,
stair_instructions,html.Screen,7,2023-11-15T18:37:46.165Z,,,,,,,,,,2674.6740000029677,response,,,,,,,,,,,,,,,continue,click button,,,415699.10000000894,415698.700000003,413007.347,413228.299999997,413024.026,415493.151,,,,
trial,html.Screen,8_0_0,2023-11-15T18:37:56.957Z,,,,2,0.0640778296621707,0.0387686079545705,,,,10794.130000000005,timeout,0.7809949855371787,0.9499999999999997,-0.9499999999999997,-0.8493861117004308,0.9499999999999997,-0.9499999999999997,high,low,,ISIC_0010124.JPG,,ISIC_7450481.JPG,26,false,,,0,true,426490.90000000596,426490.799999997,415476.475,415699.200000003,415493.151,426287.281,1,40,1,
sequence,flow.Sequence,8_0,2023-11-15T18:37:56.957Z,,,,,,,,,,10997.648999997007,completion,,,,,,,high,low,,,,,,false,,,,true,426491,426490.799999997,415476.475,415699.200000003,415493.151,426287.281,1,40,,
trial,html.Screen,8_1_0,2023-11-15T18:37:58.110Z,,,,2,0.0217698886732706,-0.0410870915161425,,false,ll,1356.3190000089235,response,-0.7543493127539531,0.9499999999999997,-0.9499999999999997,-0.9452304370934528,0.9499999999999997,-0.9499999999999997,low,low,,ISIC_0072173.JPG,,ISIC_0029017.JPG,142,false,hh,keypress(i),0,true,427643.799999997,427643.60000000894,426270.6,426491.10000000894,426287.281,427438.467,1,40,2,
sequence,flow.Sequence,8_1,2023-11-15T18:37:58.110Z,,,,,,,,,,1356.3190000089235,completion,,,,,,,low,low,,,,,,false,,,,true,427644,427643.60000000894,426270.6,426491.10000000894,426287.281,427438.467,1,40,,
trial,html.Screen,8_2_0,2023-11-15T18:38:00.765Z,,,,2,0.0194167651857046,0.0726253809408601,,true,hh,2860.733000002976,response,0.9866439901618108,0.9499999999999997,-0.9999999999999998,0.9294281370493894,0.9499999999999997,-0.9999999999999998,high,high,,ISIC_0056692.JPG,,ISIC_0072953.JPG,167,false,hh,keypress(i),0,true,430299.299999997,430299.200000003,427421.933,427644,427438.467,430091.083,1,40,3,
sequence,flow.Sequence,8_2,2023-11-15T18:38:00.766Z,,,,,,,,,,2860.733000002976,completion,,,,,,,high,high,,,,,,false,,,,true,430299.40000000596,430299.200000003,427421.933,427644,427438.467,430091.083,1,40,,
trial,html.Screen,8_3_0,2023-11-15T18:38:06.182Z,,,,2,-0.0149482827359613,0.0661630859332833,,false,hl,5624.317000005976,response,0.796241477082623,0.9499999999999997,-0.9999999999999998,-0.9017449335975743,0.9499999999999997,-0.9999999999999998,high,low,,ISIC_6815524.JPG,,ISIC_8588033.JPG,20,false,lh,keypress(e),0,true,435715.60000000894,435715.40000000596,430074.481,430299.40000000596,430091.083,435496.489,1,40,4,
sequence,flow.Sequence,8_3,2023-11-15T18:38:06.182Z,,,,,,,,,,5624.317000005976,completion,,,,,,,high,low,,,,,,false,,,,true,435715.700000003,435715.40000000596,430074.481,430299.40000000596,430091.083,435496.489,1,40,,
trial,html.Screen,8_4_0,2023-11-15T18:38:11.025Z,,,,2,0.0593670819812057,-0.0718390543903236,,true,lh,5062.411000005959,response,-1.020990671779317,0.9999999999999998,-0.9999999999999998,1.0116513850520903,0.9499999999999997,-1.0499999999999998,low,high,,ISIC_0062367.JPG,,ISIC_0011995.JPG,24,false,lh,keypress(e),0,true,440559,440558.90000000596,435479.948,435715.799999997,435496.489,440351.568,1,40,5,
sequence,flow.Sequence,8_4,2023-11-15T18:38:11.025Z,,,,,,,,,,5062.411000005959,completion,,,,,,,low,high,,,,,,false,,,,true,440559.10000000894,440558.90000000596,435479.948,435715.700000003,435496.489,440351.568,1,40,,
trial,html.Screen,8_5_0,2023-11-15T18:38:14.694Z,,,,2,-0.040191644178716,0.0622582668671422,,false,hl,3876.2319999969914,response,1.0115965332688306,0.9499999999999997,-0.9499999999999997,-0.8282633603842442,0.8499999999999996,-0.9999999999999998,high,low,,ISIC_6207688.JPG,,ISIC_1069587.JPG,20,false,hh,keypress(i),0,true,444228,444227.799999997,440334.604,440559.200000003,440351.568,444021.763,1,40,6,
sequence,flow.Sequence,8_5,2023-11-15T18:38:14.694Z,,,,,,,,,,3876.2319999969914,completion,,,,,,,high,low,,,,,,false,,,,true,444228.299999997,444227.799999997,440334.604,440559.200000003,440351.568,444021.763,1,40,,
trial,html.Screen,8_6_0,2023-11-15T18:38:23.030Z,,,,2,0.0111354529246037,-0.0585810480909377,,false,hl,8542.237000000023,response,0.809764442462202,0.8999999999999997,-0.8999999999999997,-1.005337148078696,0.7999999999999996,-0.9999999999999998,high,low,,ISIC_7858034.JPG,,ISIC_2379379.JPG,25,false,lh,keypress(e),0,true,452564.10000000894,452564,444005.069,444228.299999997,444021.763,452346.712,1,40,7,
sequence,flow.Sequence,8_6,2023-11-15T18:38:23.031Z,,,,,,,,,,8542.237000000023,completion,,,,,,,high,low,,,,,,false,,,,true,452564.40000000596,452564,444005.069,444228.299999997,444021.763,452346.712,1,40,,
trial,html.Screen,8_7_0,2023-11-15T18:38:28.926Z,,,,2,0.0363437082783146,0.0333332186217051,,false,ll,6113.2880000000005,response,-1.0378929077920005,0.9499999999999997,-0.8999999999999997,-1.012953297890337,0.7999999999999996,-1.0499999999999998,low,low,,ISIC_3314555.JPG,,ISIC_0231745.JPG,136,false,lh,keypress(e),0,true,458460.10000000894,458460,452329.948,452564.5,452346.712,458252.69,1,40,8,
sequence,flow.Sequence,8_7,2023-11-15T18:38:28.927Z,,,,,,,,,,6113.2880000000005,completion,,,,,,,low,low,,,,,,false,,,,true,458460.40000000596,458460,452329.948,452564.5,452346.712,458252.69,1,40,,
trial,html.Screen,8_8_0,2023-11-15T18:38:38.806Z,,,,2,-0.0134764727102299,-0.0033499036460912,,true,ll,10086.609999997017,response,-0.7422736922357102,0.9499999999999997,-0.8499999999999996,-0.9021253278345898,0.7999999999999996,-1.0999999999999999,low,low,,ISIC_0009998.JPG,,ISIC_0031582.JPG,126,false,ll,keypress(f),0,true,468339.5,468339.299999997,458235.94,458460.60000000894,458252.69,468129.231,1,40,9,
sequence,flow.Sequence,8_8,2023-11-15T18:38:38.806Z,,,,,,,,,,10086.609999997017,completion,,,,,,,low,low,,,,,,false,,,,true,468339.5,468339.299999997,458235.94,458460.60000000894,458252.69,468129.231,1,40,,
trial,html.Screen,8_9_0,2023-11-15T18:38:42.046Z,,,,2,0.0509970506474296,0.0744820958440291,,true,ll,3450.268999999971,response,-0.7856258389240071,0.9499999999999997,-0.8499999999999996,-1.239970909956787,0.7999999999999996,-1.0999999999999999,low,low,,ISIC_0009975.JPG,,ISIC_7860137.JPG,126,false,ll,keypress(f),0,true,471579.60000000894,471579.5,468112.289,468339.60000000894,468129.231,471365.789,1,40,10,
sequence,flow.Sequence,8_9,2023-11-15T18:38:42.046Z,,,,,,,,,,3450.268999999971,completion,,,,,,,low,low,,,,,,false,,,,true,471579.700000003,471579.5,468112.289,468339.60000000894,468129.231,471365.789,1,40,,
trial,html.Screen,8_10_0,2023-11-15T18:38:47.622Z,,,,2,-0.0533723079251252,-0.0299718727255261,,true,hh,5790.01099999703,response,0.830715954875818,0.9499999999999997,-1.0210481188956884,0.8162119374466767,0.7999999999999996,-1.0210481188956884,high,high,,ISIC_6562871.JPG,,ISIC_0011894.JPG,204,false,hh,keypress(i),0,true,477156,477155.799999997,471349.051,471579.799999997,471365.789,476938.001,1,40,11,
sequence,flow.Sequence,8_10,2023-11-15T18:38:47.623Z,,,,,,,,,,5790.01099999703,completion,,,,,,,high,high,,,,,,false,,,,true,477156.299999997,477155.799999997,471349.051,471579.799999997,471365.789,476938.001,1,40,,
trial,html.Screen,8_11_0,2023-11-15T18:38:52.822Z,,,,2,-0.0245376145053177,0.0436993426328401,,true,ll,5417.599000008951,response,-1.0316392011945703,0.9499999999999997,-1.0210481188956884,-1.1580619988377847,0.7999999999999996,-1.0210481188956884,low,low,,ISIC_0056444.JPG,,ISIC_0054206.JPG,129,false,ll,keypress(f),0,true,482355.700000003,482355.60000000894,476921.203,477156.5,476938.001,482143.214,1,40,12,
sequence,flow.Sequence,8_11,2023-11-15T18:38:52.822Z,,,,,,,,,,5417.599000008951,completion,,,,,,,low,low,,,,,,false,,,,true,482355.90000000596,482355.60000000894,476921.203,477156.299999997,476938.001,482143.214,1,40,,
trial,html.Screen,8_12_0,2023-11-15T18:39:01.015Z,,,,2,,-0.0264544974620926,,true,hh,8404.686000005982,response,1.0522062210008176,0.9499999999999997,-1.0210481188956884,0.7537341061655476,0.7999999999999996,-1.0210481188956884,high,high,,ISIC_0056991.JPG,,ISIC_0013588.JPG,204,false,hh,keypress(i),0,true,490548.200000003,490547.90000000596,482126.447,482355.90000000596,482143.214,490334.756,1,40,13,
sequence,flow.Sequence,8_12,2023-11-15T18:39:01.015Z,,,,,,,,,,8404.686000005982,completion,,,,,,,high,high,,,,,,false,,,,true,490548.5,490547.90000000596,482126.447,482355.90000000596,482143.214,490334.756,1,40,,
trial,html.Screen,8_13_0,2023-11-15T18:39:05.071Z,,,,2,0.0511770300585718,0.029030243555971,,false,lh,4269.444000002986,response,-1.2075172235545184,0.8999999999999997,-1.0210481188956884,0.9116724966267612,0.7499999999999996,-1.0210481188956884,low,high,,ISIC_6652978.JPG,,ISIC_0024235.JPG,46,false,ll,keypress(f),0,true,494604.299999997,494604.200000003,490318.166,490548.60000000894,490334.756,494388.802,1,40,14,
sequence,flow.Sequence,8_13,2023-11-15T18:39:05.071Z,,,,,,,,,,4269.444000002986,completion,,,,,,,low,high,,,,,,false,,,,true,494604.700000003,494604.200000003,490318.166,490548.5,490334.756,494388.802,1,40,,
trial,html.Screen,8_14_0,2023-11-15T18:39:07.391Z,,,,2,-0.0292059717970335,-0.0718256867525069,,true,hh,2534.9979999969946,response,1.0570568707560892,0.8999999999999997,-1.1327896111961515,0.8316850702452728,0.7999999999999996,-1.0210481188956884,high,high,,ISIC_1114966.JPG,,ISIC_0059294.JPG,230,false,hh,keypress(i),0,true,496924.10000000894,496923.799999997,494372.152,494604.799999997,494388.802,496707.768,1,40,15,
sequence,flow.Sequence,8_14,2023-11-15T18:39:07.391Z,,,,,,,,,,2534.9979999969946,completion,,,,,,,high,high,,,,,,false,,,,true,496924.299999997,496923.799999997,494372.152,494604.799999997,494388.802,496707.768,1,40,,
trial,html.Screen,8_15_0,2023-11-15T18:39:11.383Z,,,,2,-0.0546386976779619,0.0448724759283131,,true,ll,4208.232000000018,response,-0.96885674750163,0.8999999999999997,-1.1327896111961515,-1.153255258098753,0.7999999999999996,-1.0210481188956884,low,low,,ISIC_6722934.JPG,,ISIC_5722914.JPG,100,false,ll,keypress(f),0,true,500916.200000003,500916,496691.169,496924.5,496707.768,500711.982,1,40,16,
sequence,flow.Sequence,8_15,2023-11-15T18:39:11.383Z,,,,,,,,,,4208.232000000018,completion,,,,,,,low,low,,,,,,false,,,,true,500916.40000000596,500916,496691.169,496924.40000000596,496707.768,500711.982,1,40,,
trial,html.Screen,8_16_0,2023-11-15T18:39:16.366Z,,,,2,-0.0367218428225813,-0.0700576547090477,,true,hh,5187.718000002962,response,0.7951907368136324,0.8999999999999997,-1.1327896111961515,0.8943547811786065,0.7999999999999996,-1.0110560028001914,high,high,,ISIC_7212271.JPG,,ISIC_0071771.JPG,230,false,hh,keypress(i),0,true,505899.799999997,505899.700000003,500695.213,500916.60000000894,500711.982,505683.43,1,40,17,
sequence,flow.Sequence,8_16,2023-11-15T18:39:16.366Z,,,,,,,,,,5187.718000002962,completion,,,,,,,high,high,,,,,,false,,,,true,505900.10000000894,505899.700000003,500695.213,500916.60000000894,500711.982,505683.43,1,40,,
trial,html.Screen,8_17_0,2023-11-15T18:39:24.270Z,,,,2,-0.0021038737988857,0.0570427519488725,,true,lh,8120.369999997027,response,-1.27543269240326,0.8499999999999996,-1.1327896111961515,0.80839597388021,0.7499999999999996,-1.0110560028001914,low,high,,ISIC_3596927.JPG,,ISIC_3296136.JPG,32,false,lh,keypress(e),0,true,513804,513803.799999997,505666.869,505900.10000000894,505683.43,513591.371,1,40,18,
sequence,flow.Sequence,8_17,2023-11-15T18:39:24.271Z,,,,,,,,,,8120.369999997027,completion,,,,,,,low,high,,,,,,false,,,,true,513804.200000003,513803.799999997,505666.869,505900.10000000894,505683.43,513591.371,1,40,,
trial,html.Screen,8_18_0,2023-11-15T18:39:29.214Z,,,,2,-0.0149482827359613,0.0661630859332833,,false,hl,5156.329000002996,response,0.796241477082623,0.8499999999999996,-1.0827896111961515,-0.9017449335975743,0.7499999999999996,-1.0110560028001914,high,low,,ISIC_6815524.JPG,,ISIC_8588033.JPG,28,false,hh,keypress(i),0,true,518747.799999997,518747.700000003,513574.77,513804.299999997,513591.371,518529.578,1,40,19,
sequence,flow.Sequence,8_18,2023-11-15T18:39:29.214Z,,,,,,,,,,5156.329000002996,completion,,,,,,,high,low,,,,,,false,,,,true,518747.90000000596,518747.700000003,513574.77,513804.299999997,513591.371,518529.578,1,40,,
trial,html.Screen,8_19_0,2023-11-15T18:39:31.991Z,,,,2,,-0.0264544974620926,,true,hh,2994.322000005981,response,0.7761051802944624,0.8499999999999996,-1.0827896111961515,0.6170657269402366,0.7499999999999996,-1.0610560028001914,high,high,,ISIC_0056991.JPG,,ISIC_0009984.JPG,240,false,hh,keypress(i),0,true,521524,521523.90000000596,518513.032,518747.90000000596,518529.578,521315.799,1,40,20,
sequence,flow.Sequence,8_19,2023-11-15T18:39:31.991Z,,,,,,,,,,2994.322000005981,completion,,,,,,,high,high,,,,,,false,,,,true,521524.299999997,521523.90000000596,518513.032,518747.90000000596,518529.578,521315.799,1,40,,
trial,html.Screen,8_20_0,2023-11-15T18:39:33.718Z,,,,2,0.0057914759495055,0.0074667911845194,,true,hh,1936.0009999970207,response,0.546205213430479,0.6566536020114297,-1.0827896111961515,0.5072135574550125,0.6566536020114297,-1.0610560028001914,high,high,,ISIC_0058723.JPG,,ISIC_0066992.JPG,337,false,hh,keypress(i),0,true,523252,523251.799999997,521299.257,521524.40000000596,521315.799,523034.113,1,40,21,
sequence,flow.Sequence,8_20,2023-11-15T18:39:33.719Z,,,,,,,,,,1936.0009999970207,completion,,,,,,,high,high,,,,,,false,,,,true,523252.200000003,523251.799999997,521299.257,521524.40000000596,521315.799,523034.113,1,40,,
trial,html.Screen,8_21_0,2023-11-15T18:39:37.167Z,,,,2,-0.009234249673026,-0.0627190878028592,,false,lh,3665.9870000089286,response,-1.1143840156421263,0.6566536020114297,-1.0827896111961515,0.5760729760192603,0.6566536020114297,-1.0610560028001914,low,high,,ISIC_0053760.JPG,,ISIC_0572205.JPG,40,false,ll,keypress(f),0,true,526700.299999997,526700.1000000089,523017.403,523252.40000000596,523034.113,526487.628,1,40,22,
sequence,flow.Sequence,8_21,2023-11-15T18:39:37.167Z,,,,,,,,,,3665.9870000089286,completion,,,,,,,low,high,,,,,,false,,,,true,526700.5,526700.1000000089,523017.403,523252.299999997,523034.113,526487.628,1,40,,
trial,html.Screen,8_22_0,2023-11-15T18:39:40.550Z,,,,2,-0.0348234368746005,0.0236866303880924,,false,hh,3596.1719999969937,response,0.8398442002572357,0.6566536020114297,-1.0827896111961515,0.7440881446325777,0.7066536020114298,-1.0610560028001914,high,high,,ISIC_0011099.JPG,,ISIC_0061918.JPG,301,false,lh,keypress(e),0,true,530084,530083.799999997,526470.954,526700.700000003,526487.628,529874.368,1,40,23,
sequence,flow.Sequence,8_22,2023-11-15T18:39:40.551Z,,,,,,,,,,3596.1719999969937,completion,,,,,,,high,high,,,,,,false,,,,true,530084.200000003,530083.799999997,526470.954,526700.6000000089,526487.628,529874.368,1,40,,
trial,html.Screen,8_23_0,2023-11-15T18:39:43.911Z,,,,2,-0.009234249673026,-0.0627190878028592,,false,lh,3569.431999997003,response,-0.9652856136432328,0.7066536020114298,-1.0827896111961515,0.6471031362916833,0.7066536020114298,-1.0610560028001914,low,high,,ISIC_0053760.JPG,,ISIC_0008636.JPG,33,false,ll,keypress(f),0,true,533444.1000000089,533443.799999997,529857.565,530084.400000006,529874.368,533227.659,1,40,24,
sequence,flow.Sequence,8_23,2023-11-15T18:39:43.911Z,,,,,,,,,,3569.431999997003,completion,,,,,,,low,high,,,,,,false,,,,true,533444.299999997,533443.799999997,529857.565,530084.299999997,529874.368,533227.659,1,40,,
trial,html.Screen,8_24_0,2023-11-15T18:39:47.534Z,,,,2,0.0217698886732706,-0.0410870915161425,,true,ll,3839.6409999970347,response,-1.008381128411934,0.7066536020114298,-1.0327896111961514,-1.0088020117106191,0.7566536020114298,-1.0610560028001914,low,low,,ISIC_0072173.JPG,,ISIC_6546903.JPG,110,false,ll,keypress(f),0,true,537067.400000006,537067.299999997,533210.94,533444.400000006,533227.659,536865.907,1,40,25,
sequence,flow.Sequence,8_24,2023-11-15T18:39:47.534Z,,,,,,,,,,3839.6409999970347,completion,,,,,,,low,low,,,,,,false,,,,true,537067.5,537067.299999997,533210.94,533444.400000006,533227.659,536865.907,1,40,,
trial,html.Screen,8_25_0,2023-11-15T18:39:51.775Z,,,,2,-0.0112310719058792,0.0469047359904117,,true,hh,4442.293000002974,response,0.5589594180739628,0.7066536020114298,-1.0327896111961514,0.8007069553778358,0.7566536020114298,-1.0610560028001914,high,high,,ISIC_0068184.JPG,,ISIC_0033981.JPG,268,false,hh,keypress(i),0,true,541308.400000006,541308.200000003,536831.345,537067.6000000089,536865.907,541102.257,1,40,26,
sequence,flow.Sequence,8_25,2023-11-15T18:39:51.775Z,,,,,,,,,,4442.293000002974,completion,,,,,,,high,high,,,,,,false,,,,true,541308.799999997,541308.200000003,536831.345,537067.6000000089,536865.907,541102.257,1,40,,
trial,html.Screen,8_26_0,2023-11-15T18:39:58.295Z,,,,2,-0.0051189696037511,0.0396625911332438,,false,ll,6725.743000000017,response,-0.9191486333136276,0.7066536020114298,-1.0327896111961514,-1.001866590114321,0.7566536020114298,-1.0610560028001914,low,low,,ISIC_9742891.JPG,,ISIC_0663941.JPG,110,false,lh,keypress(e),0,true,547828.1000000089,547828,541085.663,541309,541102.257,547626.667,1,40,27,
sequence,flow.Sequence,8_26,2023-11-15T18:39:58.295Z,,,,,,,,,,6725.743000000017,completion,,,,,,,low,low,,,,,,false,,,,true,547828.299999997,547828,541085.663,541309,541102.257,547626.667,1,40,,
trial,html.Screen,8_27_0,2023-11-15T18:40:03.287Z,,,,2,-0.0552031398781121,-0.0652612426529481,,false,hl,5193.433000008925,response,0.5208163483939755,0.7066536020114298,-0.9827896111961514,-1.1047904380696325,0.7566536020114298,-1.1110560028001915,high,low,,ISIC_0024226.JPG,,ISIC_2039579.JPG,28,false,lh,keypress(e),0,true,552820.299999997,552820.1000000089,547591.988,547828.5,547626.667,552613.796,1,40,28,
sequence,flow.Sequence,8_27,2023-11-15T18:40:03.287Z,,,,,,,,,,5193.433000008925,completion,,,,,,,high,low,,,,,,false,,,,true,552820.700000003,552820.1000000089,547591.988,547828.5,547626.667,552613.796,1,40,,
trial,html.Screen,8_28_0,2023-11-15T18:40:06.407Z,,,,2,-0.0220322185490382,-0.0740918837949419,,false,hl,3326.1040000059875,response,0.661371304428672,0.7066536020114298,-0.9327896111961513,-1.0907423478129648,0.7066536020114298,-1.1110560028001915,high,low,,ISIC_8105020.JPG,,ISIC_6860222.JPG,28,false,lh,keypress(e),0,true,555940.1000000089,555939.900000006,552596.929,552820.799999997,552613.796,555733.77,1,40,29,
sequence,flow.Sequence,8_28,2023-11-15T18:40:06.407Z,,,,,,,,,,3326.1040000059875,completion,,,,,,,high,low,,,,,,false,,,,true,555940.299999997,555939.900000006,552596.929,552820.799999997,552613.796,555733.77,1,40,,
trial,html.Screen,8_29_0,2023-11-15T18:40:08.743Z,,,,2,-0.0051189696037511,0.0396625911332438,,false,ll,2542.130000005942,response,-1.008381128411934,0.7566536020114298,-0.9327896111961513,-1.0088020117106191,0.7066536020114298,-1.1610560028001915,low,low,,ISIC_9742891.JPG,,ISIC_6546903.JPG,96,false,lh,keypress(e),0,true,558276.1000000089,558275.900000006,555716.859,555940.400000006,555733.77,558069.222,1,40,30,
sequence,flow.Sequence,8_29,2023-11-15T18:40:08.743Z,,,,,,,,,,2542.130000005942,completion,,,,,,,low,low,,,,,,false,,,,true,558276.400000006,558275.900000006,555716.859,555940.400000006,555733.77,558069.222,1,40,,
trial,html.Screen,8_30_0,2023-11-15T18:40:12.351Z,,,,2,0.0389988030702649,0.0143212271490256,,false,lh,3814.67800000601,response,-0.7352416732819119,0.7566536020114298,-0.9327896111961513,0.5724016871877069,0.7066536020114298,-1.1610560028001915,low,high,,ISIC_0064669.JPG,,ISIC_0698821.JPG,63,false,ll,keypress(f),0,true,561884.1000000089,561883.900000006,558052.694,558276.5,558069.222,561672.848,1,40,31,
sequence,flow.Sequence,8_30,2023-11-15T18:40:12.351Z,,,,,,,,,,3814.67800000601,completion,,,,,,,low,high,,,,,,false,,,,true,561884.400000006,561883.900000006,558052.694,558276.5,558069.222,561672.848,1,40,,
trial,html.Screen,8_31_0,2023-11-15T18:40:17.111Z,,,,2,-0.0565575423757561,-0.0394300226801425,,false,hl,4971.252000008943,response,0.6971413872676647,0.7066536020114298,-0.7718114008469228,-0.9786113496628154,0.7066536020114298,-1.1110560028001915,high,low,,ISIC_0046983.JPG,,ISIC_8195528.JPG,28,false,hh,keypress(i),0,true,566644.200000003,566644.1000000089,561656.162,561884.5,561672.848,566427.57,1,40,32,
sequence,flow.Sequence,8_31,2023-11-15T18:40:17.111Z,,,,,,,,,,4971.252000008943,completion,,,,,,,high,low,,,,,,false,,,,true,566644.5,566644.1000000089,561656.162,561884.400000006,561672.848,566427.57,1,40,,
trial,html.Screen,8_32_0,2023-11-15T18:40:19.527Z,,,,2,0.0336891949856763,0.060314732178219,,false,lh,2632.530000008992,response,-0.7706378181230575,0.7066536020114298,-0.7718114008469228,0.5667176896269589,0.7066536020114298,-1.1610560028001915,low,high,,ISIC_6192289.JPG,,ISIC_9574101.JPG,91,false,hh,keypress(i),0,true,569060.299999997,569060.1000000089,566410.919,566644.6000000089,566427.57,568846.639,1,40,33,
sequence,flow.Sequence,8_32,2023-11-15T18:40:19.527Z,,,,,,,,,,2632.530000008992,completion,,,,,,,low,high,,,,,,false,,,,true,569060.6000000089,569060.1000000089,566410.919,566644.6000000089,566427.57,568846.639,1,40,,
trial,html.Screen,8_33_0,2023-11-15T18:40:30.198Z,,,,2,-0.0112310719058792,0.0469047359904117,,false,lh,10885.061000003014,response,-0.9514031565526356,0.7066536020114298,-0.8218114008469228,0.6052368961457435,0.7066536020114298,-1.1610560028001915,low,high,,ISIC_0068184.JPG,,ISIC_0067412.JPG,81,false,hh,keypress(i),0,true,579731.799999997,579731.700000003,568830.115,569060.6000000089,568846.639,579524.07,1,40,34,
sequence,flow.Sequence,8_33,2023-11-15T18:40:30.199Z,,,,,,,,,,10885.061000003014,completion,,,,,,,low,high,,,,,,false,,,,true,579731.900000006,579731.700000003,568830.115,569060.6000000089,568846.639,579524.07,1,40,,
trial,html.Screen,8_34_0,2023-11-15T18:40:40.986Z,,,,2,0.0116094682222121,-0.0258434522530318,,,,10777.379000000074,timeout,-1.0075237064225877,0.7066536020114298,-0.8718114008469229,0.4281479704640096,0.5359772928863511,-1.1610560028001915,low,high,,ISIC_9239632.JPG,,ISIC_0710431.JPG,112,false,,,0,true,590519.400000006,590519.299999997,579507.465,579731.900000006,579524.07,590301.449,1,40,35,
sequence,flow.Sequence,8_34,2023-11-15T18:40:40.986Z,,,,,,,,,,10995.229999997071,completion,,,,,,,low,high,,,,,,false,,,,true,590519.5,590519.299999997,579507.465,579731.900000006,579524.07,590301.449,1,40,,
trial,html.Screen,8_35_0,2023-11-15T18:40:44.607Z,,,,2,-0.0245585387483123,0.053462758614929,,true,hh,3838.6510000089183,response,0.8076069102108323,0.7066536020114298,-0.8718114008469229,0.6757950805985067,0.5359772928863511,-1.1610560028001915,high,high,,ISIC_3389704.JPG,,ISIC_0070046.JPG,368,false,hh,keypress(i),0,true,594140.200000003,594140.1000000089,590284.768,590519.6000000089,590301.449,593921.762,1,40,36,
sequence,flow.Sequence,8_35,2023-11-15T18:40:44.607Z,,,,,,,,,,3838.6510000089183,completion,,,,,,,high,high,,,,,,false,,,,true,594140.6000000089,594140.1000000089,590284.768,590519.6000000089,590301.449,593921.762,1,40,,
trial,html.Screen,8_36_0,2023-11-15T18:40:47.518Z,,,,2,-0.0102460616775615,0.0309670599545429,,false,lh,3129.9380000029923,response,-1.0290381953067007,0.6917009954046694,-0.8718114008469229,0.4158764638602013,0.5359772928863511,-1.1610560028001915,low,high,,ISIC_0072041.JPG,,ISIC_3166276.JPG,112,false,hh,keypress(i),0,true,597051.799999997,597051.700000003,593905.04,594140.700000003,593921.762,596841.393,1,40,37,
sequence,flow.Sequence,8_36,2023-11-15T18:40:47.519Z,,,,,,,,,,3129.9380000029923,completion,,,,,,,low,high,,,,,,false,,,,true,597052,597051.700000003,593905.04,594140.700000003,593921.762,596841.393,1,40,,
trial,html.Screen,8_37_0,2023-11-15T18:40:49.359Z,,,,2,-0.0051189696037511,0.0396625911332438,,false,hl,2050.4069999969797,response,0.5116577697734059,0.6917009954046694,-0.9218114008469229,-1.0329549150636406,0.495835772229354,-1.1610560028001915,high,low,,ISIC_9742891.JPG,,ISIC_0054670.JPG,20,false,hh,keypress(i),0,true,598892,598891.799999997,596824.723,597052.1000000089,596841.393,598676.518,1,40,38,
sequence,flow.Sequence,8_37,2023-11-15T18:40:49.359Z,,,,,,,,,,2050.4069999969797,completion,,,,,,,high,low,,,,,,false,,,,true,598892.299999997,598891.799999997,596824.723,597052.1000000089,596841.393,598676.518,1,40,,
trial,html.Screen,8_38_0,2023-11-15T18:40:53.999Z,,,,2,0.0415913596725838,-0.0543422987007948,,true,ll,4855.38200000592,response,-1.0789197754694622,0.6917009954046694,-0.9218114008469229,-1.1654690806750023,0.495835772229354,-1.1610560028001915,low,low,,ISIC_0027956.JPG,,ISIC_1576437.JPG,98,false,ll,keypress(f),0,true,603532.1000000089,603531.900000006,598659.903,598892.400000006,598676.518,603314.497,1,40,39,
sequence,flow.Sequence,8_38,2023-11-15T18:40:53.999Z,,,,,,,,,,4855.38200000592,completion,,,,,,,low,low,,,,,,false,,,,true,603532.200000003,603531.900000006,598659.903,598892.400000006,598676.518,603314.497,1,40,,
trial,html.Screen,8_39_0,2023-11-15T18:40:57.575Z,,,,2,-0.040191644178716,0.0622582668671422,,true,hl,3793.503000000026,response,0.5702575800718795,0.6917009954046694,-0.9218114008469229,-1.2206345072567373,0.495835772229354,-1.1610560028001915,high,low,,ISIC_6207688.JPG,,ISIC_0032875.JPG,20,false,hl,keypress(j),0,true,607108.200000003,607108,603297.7,603532.400000006,603314.497,606901.411,1,40,40,
sequence,flow.Sequence,8_39,2023-11-15T18:40:57.575Z,,,,,,,,,,3793.503000000026,completion,,,,,,,high,low,,,,,,false,,,,true,607108.400000006,607108,603297.7,603532.400000006,603314.497,606901.411,1,40,,
stair_loop,flow.Loop,8,2023-11-15T18:40:57.575Z,,,,,,,,,,191614.849,completion,,,,,,,,,,,,,,false,,,,true,607108.6000000089,607108,415476.475,415699.200000003,415493.151,606901.411,1,40,,
exp_instructions,html.Screen,9,2023-11-15T18:41:21.376Z,,,,,,,,,,24006.689000008977,response,,,,,,,,,,,,,,,continue,keypress(Space),,,630908.900000006,630908.1000000089,606884.668,607108.700000003,606901.411,630691.909,,,,
trial,html.Screen,10_0_0,2023-11-15T18:41:26.954Z,,,,1,-0.0188047466661863,0.0288346930436979,,true,hh,5795.390999997035,response,0.5685814156754376,0.7011630806900779,-0.9478494165389988,0.8348393543229714,0.6544294811753566,-1.118556002800191,high,high,,ISIC_0014157.JPG,9,ISIC_0030820.JPG,330,false,hh,keypress(i),0,false,636487.400000006,636487.299999997,630674.776,630909,630691.909,636281.006,4,500,1,
break,html.Screen,10_0_1,2023-11-15T18:41:26.955Z,,,,,,,,,,NaN,,,,,,,,high,high,,,,,,false,,,,false,636488,636487.799999997,,636487.5,,636281.006,4,500,,
break_continue,html.Screen,10_0_2,2023-11-15T18:41:26.955Z,,,,,,,,,,NaN,,,,,,,,high,high,,,,,,false,,,,false,636488.299999997,636488.299999997,,636488.1000000089,,636281.006,4,500,,
sequence,flow.Sequence,10_0,2023-11-15T18:41:26.955Z,,,,,,,,,,5796.390999997035,completion,,,,,,,high,high,,,,,,false,,,,false,636488.5,636488.299999997,630674.776,630909,630691.909,636281.006,4,500,,
trial,html.Screen,10_1_0,2023-11-15T18:41:30.087Z,,,,1,0.0057914759495055,0.0074667911845194,,true,hh,3338.5940000088885,response,0.702815065838286,0.7011630806900779,-0.9478494165389988,0.8363670617045607,0.6544294811753566,-1.118556002800191,high,high,,ISIC_0058723.JPG,9,ISIC_0056710.JPG,330,false,hh,keypress(i),0,false,639619.799999997,639619.6000000089,636264.089,636488.5,636281.006,639400.591,4,500,2,
break,html.Screen,10_1_1,2023-11-15T18:41:30.087Z,,,,,,,,,,NaN,,,,,,,,high,high,,,,,,false,,,,false,639620.200000003,639620.1000000089,,639620,,639400.591,4,500,,
break_continue,html.Screen,10_1_2,2023-11-15T18:41:30.087Z,,,,,,,,,,NaN,,,,,,,,high,high,,,,,,false,,,,false,639620.400000006,639620.400000006,,639620.299999997,,639400.591,4,500,,
sequence,flow.Sequence,10_1,2023-11-15T18:41:30.087Z,,,,,,,,,,3339.3940000059083,completion,,,,,,,high,high,,,,,,false,,,,false,639620.5,639620.400000006,636264.089,636488.5,636281.006,639400.591,4,500,,
trial,html.Screen,10_2_0,2023-11-15T18:41:36.527Z,,,,1,-0.0149482827359613,0.0661630859332833,,false,hl,6659.809000005946,response,0.6714344890480403,0.7011630806900779,-0.9478494165389988,-0.9362962536620838,0.6544294811753566,-1.118556002800191,high,low,,ISIC_6815524.JPG,10,ISIC_3691320.JPG,29,false,lh,keypress(e),0,false,646060.6000000089,646060.400000006,639383.969,639620.6000000089,639400.591,645857.186,4,500,3,
break,html.Screen,10_2_1,2023-11-15T18:41:36.528Z,,,,,,,,,,NaN,,,,,,,,high,low,,,,,,false,,,,false,646061.299999997,646061.1000000089,,646060.799999997,,645857.186,4,500,,
break_continue,html.Screen,10_2_2,2023-11-15T18:41:36.529Z,,,,,,,,,,NaN,,,,,,,,high,low,,,,,,false,,,,false,646061.700000003,646061.6000000089,,646061.400000006,,645857.186,4,500,,
sequence,flow.Sequence,10_2,2023-11-15T18:41:36.529Z,,,,,,,,,,6661.009000008926,completion,,,,,,,high,low,,,,,,false,,,,false,646062,646061.6000000089,639383.969,639620.6000000089,639400.591,645857.186,4,500,,
trial,html.Screen,10_3_0,2023-11-15T18:41:44.143Z,,,,1,0.0116094682222121,-0.0258434522530318,,false,hl,7818.613999997033,response,0.6864497754928831,0.7011630806900779,-0.9478494165389988,-1.0456580051873738,0.6544294811753566,-1.118556002800191,high,low,,ISIC_9239632.JPG,9,ISIC_0055388.JPG,29,false,lh,keypress(e),0,false,653676,653675.799999997,645824.206,646062,645857.186,653464.73,4,500,4,
break,html.Screen,10_3_1,2023-11-15T18:41:44.143Z,,,,,,,,,,NaN,,,,,,,,high,low,,,,,,false,,,,false,653676.5,653676.400000006,,653676.200000003,,653464.73,4,500,,
break_continue,html.Screen,10_3_2,2023-11-15T18:41:44.144Z,,,,,,,,,,NaN,,,,,,,,high,low,,,,,,false,,,,false,653676.900000006,653676.900000006,,653676.799999997,,653464.73,4,500,,
sequence,flow.Sequence,10_3,2023-11-15T18:41:44.144Z,,,,,,,,,,7819.7140000059735,completion,,,,,,,high,low,,,,,,false,,,,false,653677,653676.900000006,645824.206,646062,645857.186,653464.73,4,500,,
trial,html.Screen,10_4_0,2023-11-15T18:41:47.871Z,,,,1,-0.0409338693593207,0.0072462710499874,,true,hh,3939.5699999970384,response,0.5087994180894078,0.7011630806900779,-0.9478494165389988,0.6838212696602605,0.6544294811753566,-1.118556002800191,high,high,,ISIC_3608788.JPG,9,ISIC_0032586.JPG,330,false,hh,keypress(i),0,false,657404.5,657404.299999997,653448.02,653677.200000003,653464.73,657202.306,4,500,5,
break,html.Screen,10_4_1,2023-11-15T18:41:47.872Z,,,,,,,,,,NaN,,,,,,,,high,high,,,,,,false,,,,false,657405.200000003,657405,,657404.700000003,,657202.306,4,500,,
break_continue,html.Screen,10_4_2,2023-11-15T18:41:47.872Z,,,,,,,,,,NaN,,,,,,,,high,high,,,,,,false,,,,false,657405.6000000089,657405.400000006,,657405.299999997,,657202.306,4,500,,
sequence,flow.Sequence,10_4,2023-11-15T18:41:47.873Z,,,,,,,,,,3940.670000005979,completion,,,,,,,high,high,,,,,,false,,,,false,657405.799999997,657405.400000006,653448.02,653677.200000003,653464.73,657202.306,4,500,,
trial,html.Screen,10_5_0,2023-11-15T18:41:52.166Z,,,,1,-0.0737104822171846,0.0725320314728604,,false,hh,4497.094000005978,response,0.7526062616361453,0.7011630806900779,-0.9478494165389988,0.7278276920565994,0.6544294811753566,-1.118556002800191,high,high,,ISIC_0002862.JPG,9,ISIC_0011276.JPG,330,false,lh,keypress(e),0,false,661699.6000000089,661699.400000006,657168.403,657405.900000006,657202.306,661489.515,4,500,6,
break,html.Screen,10_5_1,2023-11-15T18:41:52.167Z,,,,,,,,,,NaN,,,,,,,,high,high,,,,,,false,,,,false,661699.900000006,661699.799999997,,661699.700000003,,661489.515,4,500,,
break_continue,html.Screen,10_5_2,2023-11-15T18:41:52.167Z,,,,,,,,,,NaN,,,,,,,,high,high,,,,,,false,,,,false,661700,661700,,661699.900000006,,661489.515,4,500,,
sequence,flow.Sequence,10_5,2023-11-15T18:41:52.167Z,,,,,,,,,,4497.694000000018,completion,,,,,,,high,high,,,,,,false,,,,false,661700.1000000089,661700,657168.403,657405.799999997,657202.306,661489.515,4,500,,
trial,html.Screen,10_6_0,2023-11-15T18:41:58.824Z,,,,1,0.0651705891246238,-0.0394586219902573,,false,hl,6866.784999997006,response,0.6231695572160023,0.7011630806900779,-0.9478494165389988,-0.9598176954765794,0.6544294811753566,-1.118556002800191,high,low,,ISIC_0013491.JPG,9,ISIC_0024297.JPG,29,false,hh,keypress(i),0,false,668356.6000000089,668356.299999997,661472.665,661700.1000000089,661489.515,668146.025,4,500,7,
break,html.Screen,10_6_1,2023-11-15T18:41:58.824Z,,,,,,,,,,NaN,,,,,,,,high,low,,,,,,false,,,,false,668357.200000003,668357.1000000089,,668356.700000003,,668146.025,4,500,,
break_continue,html.Screen,10_6_2,2023-11-15T18:41:58.825Z,,,,,,,,,,NaN,,,,,,,,high,low,,,,,,false,,,,false,668357.6000000089,668357.400000006,,668357.299999997,,668146.025,4,500,,
sequence,flow.Sequence,10_6,2023-11-15T18:41:58.825Z,,,,,,,,,,6867.8850000059465,completion,,,,,,,high,low,,,,,,false,,,,false,668357.700000003,668357.400000006,661472.665,661700.1000000089,661489.515,668146.025,4,500,,
trial,html.Screen,10_7_0,2023-11-15T18:42:01.415Z,,,,1,-0.0245585387483123,0.053462758614929,,false,hh,2801.675000002957,response,0.6286548029530173,0.7011630806900779,-0.9478494165389988,0.6451928502216471,0.6544294811753566,-1.118556002800191,high,high,,ISIC_3389704.JPG,9,ISIC_5545874.JPG,330,false,lh,keypress(e),0,false,670947.799999997,670947.700000003,668129.455,668357.900000006,668146.025,670731.945,4,500,8,
break,html.Screen,10_7_1,2023-11-15T18:42:01.415Z,,,,,,,,,,NaN,,,,,,,,high,high,,,,,,false,,,,false,670948.200000003,670948.1000000089,,670948,,670731.945,4,500,,
break_continue,html.Screen,10_7_2,2023-11-15T18:42:01.415Z,,,,,,,,,,NaN,,,,,,,,high,high,,,,,,false,,,,false,670948.299999997,670948.299999997,,670948.299999997,,670731.945,4,500,,
sequence,flow.Sequence,10_7,2023-11-15T18:42:01.415Z,,,,,,,,,,2802.2749999969965,completion,,,,,,,high,high,,,,,,false,,,,false,670948.400000006,670948.299999997,668129.455,668357.900000006,668146.025,670731.945,4,500,,
trial,html.Screen,10_8_0,2023-11-15T18:42:06.327Z,,,,1,0.0336891949856763,0.060314732178219,,true,hh,5127.655000008992,response,0.5288040779699248,0.7011630806900779,-0.9478494165389988,0.4695456559951669,0.6544294811753566,-1.118556002800191,high,high,,ISIC_6192289.JPG,9,ISIC_0011150.JPG,330,false,hh,keypress(i),0,false,675859.700000003,675859.6000000089,670715.371,670948.5,670731.945,675653.818,4,500,9,
break,html.Screen,10_8_1,2023-11-15T18:42:06.327Z,,,,,,,,,,NaN,,,,,,,,high,high,,,,,,false,,,,false,675860.1000000089,675860,,675859.799999997,,675653.818,4,500,,
break_continue,html.Screen,10_8_2,2023-11-15T18:42:06.327Z,,,,,,,,,,NaN,,,,,,,,high,high,,,,,,false,,,,false,675860.299999997,675860.200000003,,675860.1000000089,,675653.818,4,500,,
sequence,flow.Sequence,10_8,2023-11-15T18:42:06.327Z,,,,,,,,,,5128.2550000030315,completion,,,,,,,high,high,,,,,,false,,,,false,675860.299999997,675860.200000003,670715.371,670948.5,670731.945,675653.818,4,500,,
trial,html.Screen,10_9_0,2023-11-15T18:42:12.199Z,,,,1,-0.0362376068089956,-0.047825070846155,,false,ll,6078.38200000301,response,-0.8985413691921805,0.7011630806900779,-0.9478494165389988,-1.1177351920180405,0.6544294811753566,-1.118556002800191,low,low,,ISIC_6985114.JPG,10,ISIC_2805573.JPG,110,false,lh,keypress(e),0,false,681732.299999997,681732.200000003,675637.006,675860.299999997,675653.818,681526.175,4,500,10,
break,html.Screen,10_9_1,2023-11-15T18:42:12.200Z,,,,,,,,,,NaN,,,,,,,,low,low,,,,,,false,,,,false,681733,681732.799999997,,681732.5,,681526.175,4,500,,
break_continue,html.Screen,10_9_2,2023-11-15T18:42:12.200Z,,,,,,,,,,NaN,,,,,,,,low,low,,,,,,false,,,,false,681733.400000006,681733.200000003,,681733.1000000089,,681526.175,4,500,,
sequence,flow.Sequence,10_9,2023-11-15T18:42:12.201Z,,,,,,,,,,6079.38200000301,completion,,,,,,,low,low,,,,,,false,,,,false,681733.6000000089,681733.200000003,675637.006,675860.299999997,675653.818,681526.175,4,500,,
trial,html.Screen,10_10_0,2023-11-15T18:42:14.975Z,,,,1,-0.0245585387483123,0.053462758614929,,true,hh,2981.8249999999534,response,0.6228844383449431,0.7011630806900779,-0.9478494165389988,0.5135176718625952,0.6544294811753566,-1.118556002800191,high,high,,ISIC_3389704.JPG,9,ISIC_0053796.JPG,330,false,hh,keypress(i),0,false,684508.299999997,684508,681509.47,681733.6000000089,681526.175,684295.575,4,500,11,
break,html.Screen,10_10_1,2023-11-15T18:42:14.976Z,,,,,,,,,,NaN,,,,,,,,high,high,,,,,,false,,,,false,684509,684508.799999997,,684508.5,,684295.575,4,500,,
break_continue,html.Screen,10_10_2,2023-11-15T18:42:14.976Z,,,,,,,,,,NaN,,,,,,,,high,high,,,,,,false,,,,false,684509.400000006,684509.299999997,,684509.1000000089,,684295.575,4,500,,
sequence,flow.Sequence,10_10,2023-11-15T18:42:14.977Z,,,,,,,,,,2983.124999996973,completion,,,,,,,high,high,,,,,,false,,,,false,684509.6000000089,684509.299999997,681509.47,681733.6000000089,681526.175,684295.575,4,500,,
trial,html.Screen,10_11_0,2023-11-15T18:42:22.103Z,,,,1,-0.0693466529227737,-0.044703434393184,,false,lh,7340.625000003027,response,-0.8541581294181414,0.7011630806900779,-0.9478494165389988,0.7637475587255248,0.6544294811753566,-1.118556002800191,low,high,,ISIC_0004217.JPG,9,ISIC_0014782.JPG,64,false,ll,keypress(f),0,false,691636.400000006,691636.200000003,684278.926,684509.700000003,684295.575,691419.321,4,500,12,
break,html.Screen,10_11_1,2023-11-15T18:42:22.104Z,,,,,,,,,,NaN,,,,,,,,low,high,,,,,,false,,,,false,691636.900000006,691636.799999997,,691636.5,,691419.321,4,500,,
break_continue,html.Screen,10_11_2,2023-11-15T18:42:22.104Z,,,,,,,,,,NaN,,,,,,,,low,high,,,,,,false,,,,false,691637.1000000089,691637,,691636.900000006,,691419.321,4,500,,
sequence,flow.Sequence,10_11,2023-11-15T18:42:22.104Z,,,,,,,,,,7341.425000000047,completion,,,,,,,low,high,,,,,,false,,,,false,691637.299999997,691637,684278.926,684509.700000003,684295.575,691419.321,4,500,,
trial,html.Screen,10_12_0,2023-11-15T18:42:27.815Z,,,,1,0.0509970506474296,0.0744820958440291,,false,hh,5928.779000008944,response,0.5390327112714592,0.7011630806900779,-0.9478494165389988,0.5419582464428436,0.6544294811753566,-1.118556002800191,high,high,,ISIC_0009975.JPG,10,ISIC_0011546.JPG,330,false,lh,keypress(e),0,false,697348.299999997,697348.1000000089,691402.883,691637.400000006,691419.321,697141.741,4,500,13,
break,html.Screen,10_12_1,2023-11-15T18:42:27.816Z,,,,,,,,,,NaN,,,,,,,,high,high,,,,,,false,,,,false,697348.900000006,697348.799999997,,697348.400000006,,697141.741,4,500,,
break_continue,html.Screen,10_12_2,2023-11-15T18:42:27.816Z,,,,,,,,,,NaN,,,,,,,,high,high,,,,,,false,,,,false,697349.200000003,697349.1000000089,,697349,,697141.741,4,500,,
sequence,flow.Sequence,10_12,2023-11-15T18:42:27.816Z,,,,,,,,,,5929.779000008944,completion,,,,,,,high,high,,,,,,false,,,,false,697349.400000006,697349.1000000089,691402.883,691637.400000006,691419.321,697141.741,4,500,,
trial,html.Screen,10_13_0,2023-11-15T18:42:35.215Z,,,,1,-0.0113873532168551,-0.0054999201556291,,false,ll,7606.258999999962,response,-0.8689515664606163,0.7011630806900779,-0.9478494165389988,-1.0538817435713148,0.6544294811753566,-1.118556002800191,low,low,,ISIC_8812621.JPG,10,ISIC_7333928.JPG,110,false,hh,keypress(i),0,false,704748.1000000089,704748,697125.116,697349.5,697141.741,704532.48,4,500,14,
break,html.Screen,10_13_1,2023-11-15T18:42:35.216Z,,,,,,,,,,NaN,,,,,,,,low,low,,,,,,false,,,,false,704748.700000003,704748.6000000089,,704748.299999997,,704532.48,4,500,,
break_continue,html.Screen,10_13_2,2023-11-15T18:42:35.216Z,,,,,,,,,,NaN,,,,,,,,low,low,,,,,,false,,,,false,704749,704748.900000006,,704748.700000003,,704532.48,4,500,,
sequence,flow.Sequence,10_13,2023-11-15T18:42:35.216Z,,,,,,,,,,7607.159000005922,completion,,,,,,,low,low,,,,,,false,,,,false,704749.200000003,704748.900000006,697125.116,697349.5,697141.741,704532.48,4,500,,
trial,html.Screen,10_14_0,2023-11-15T18:42:39.031Z,,,,1,0.0336891949856763,0.060314732178219,,true,hh,4031.1200000089593,response,0.8427384713916508,0.7011630806900779,-0.9478494165389988,0.5117676549118707,0.6544294811753566,-1.118556002800191,high,high,,ISIC_6192289.JPG,9,ISIC_0033704.JPG,330,false,hh,keypress(i),0,false,708563.799999997,708563.6000000089,704515.931,704749.200000003,704532.48,708352.935,4,500,15,
break,html.Screen,10_14_1,2023-11-15T18:42:39.031Z,,,,,,,,,,NaN,,,,,,,,high,high,,,,,,false,,,,false,708564.200000003,708564.200000003,,708564,,708352.935,4,500,,
break_continue,html.Screen,10_14_2,2023-11-15T18:42:39.032Z,,,,,,,,,,NaN,,,,,,,,high,high,,,,,,false,,,,false,708564.400000006,708564.400000006,,708564.299999997,,708352.935,4,500,,
sequence,flow.Sequence,10_14,2023-11-15T18:42:39.032Z,,,,,,,,,,4031.920000005979,completion,,,,,,,high,high,,,,,,false,,,,false,708564.6000000089,708564.400000006,704515.931,704749.200000003,704532.48,708352.935,4,500,,
trial,html.Screen,10_15_0,2023-11-15T18:42:41.438Z,,,,1,0.0651705891246238,-0.0394586219902573,,false,hl,2618.364999996964,response,0.5817380271979394,0.7011630806900779,-0.9478494165389988,-1.2499674737468107,0.6544294811753566,-1.118556002800191,high,low,,ISIC_0013491.JPG,8,ISIC_0013617.JPG,29,false,hh,keypress(i),0,false,710971.299999997,710971.299999997,708336.476,708564.6000000089,708352.935,710755.314,4,500,16,
break,html.Screen,10_15_1,2023-11-15T18:42:41.439Z,,,,,,,,,,NaN,,,,,,,,high,low,,,,,,false,,,,false,710971.700000003,710971.6000000089,,710971.5,,710755.314,4,500,,
break_continue,html.Screen,10_15_2,2023-11-15T18:42:41.439Z,,,,,,,,,,NaN,,,,,,,,high,low,,,,,,false,,,,false,710971.799999997,710971.799999997,,710971.700000003,,710755.314,4,500,,
sequence,flow.Sequence,10_15,2023-11-15T18:42:41.439Z,,,,,,,,,,2618.864999996964,completion,,,,,,,high,low,,,,,,false,,,,false,710971.900000006,710971.799999997,708336.476,708564.6000000089,708352.935,710755.314,4,500,,
trial,html.Screen,10_16_0,2023-11-15T18:42:48.111Z,,,,1,0.0456515796420274,-0.0273567130070961,,false,hl,6888.485999997007,response,0.6629163102028129,0.7011630806900779,-0.9478494165389988,-1.2268098550740514,0.6544294811753566,-1.118556002800191,high,low,,ISIC_0068610.JPG,9,ISIC_9562157.JPG,29,false,ll,keypress(f),0,false,717643.900000006,717643.799999997,710738.682,710972,710755.314,717428.712,4,500,17,
break,html.Screen,10_16_1,2023-11-15T18:42:48.111Z,,,,,,,,,,NaN,,,,,,,,high,low,,,,,,false,,,,false,717644.200000003,717644.1000000089,,717644,,717428.712,4,500,,
break_continue,html.Screen,10_16_2,2023-11-15T18:42:48.111Z,,,,,,,,,,NaN,,,,,,,,high,low,,,,,,false,,,,false,717644.400000006,717644.400000006,,717644.200000003,,717428.712,4,500,,
sequence,flow.Sequence,10_16,2023-11-15T18:42:48.112Z,,,,,,,,,,6889.086000005947,completion,,,,,,,high,low,,,,,,false,,,,false,717644.5,717644.400000006,710738.682,710971.900000006,710755.314,717428.712,4,500,,
trial,html.Screen,10_17_0,2023-11-15T18:42:51.568Z,,,,1,-0.0362376068089956,-0.047825070846155,,false,ll,3671.587999996962,response,-0.8093923499033241,0.7011630806900779,-0.9478494165389988,-1.102485543525293,0.6544294811753566,-1.118556002800191,low,low,,ISIC_6985114.JPG,9,ISIC_1208705.JPG,110,false,hh,keypress(i),0,false,721100.5,721100.299999997,717412.184,717644.6000000089,717428.712,720882.195,4,500,18,
break,html.Screen,10_17_1,2023-11-15T18:42:51.568Z,,,,,,,,,,NaN,,,,,,,,low,low,,,,,,false,,,,false,721101.1000000089,721101,,721100.700000003,,720882.195,4,500,,
break_continue,html.Screen,10_17_2,2023-11-15T18:42:51.569Z,,,,,,,,,,NaN,,,,,,,,low,low,,,,,,false,,,,false,721101.6000000089,721101.5,,721101.400000006,,720882.195,4,500,,
sequence,flow.Sequence,10_17,2023-11-15T18:42:51.569Z,,,,,,,,,,3672.7879999999423,completion,,,,,,,low,low,,,,,,false,,,,false,721101.700000003,721101.5,717412.184,717644.6000000089,717428.712,720882.195,4,500,,
trial,html.Screen,10_18_0,2023-11-15T18:42:54.207Z,,,,1,-0.0051189696037511,0.0396625911332438,,false,hl,2857.905000008992,response,0.6629163102028129,0.7011630806900779,-0.9478494165389988,-1.2268098550740514,0.6544294811753566,-1.118556002800191,high,low,,ISIC_9742891.JPG,9,ISIC_9562157.JPG,29,false,ll,keypress(f),0,false,723740.299999997,723740.1000000089,720865.591,721101.900000006,720882.195,723534.969,4,500,19,
break,html.Screen,10_18_1,2023-11-15T18:42:54.208Z,,,,,,,,,,NaN,,,,,,,,high,low,,,,,,false,,,,false,723741.1000000089,723740.900000006,,723740.6000000089,,723534.969,4,500,,
break_continue,html.Screen,10_18_2,2023-11-15T18:42:54.209Z,,,,,,,,,,NaN,,,,,,,,high,low,,,,,,false,,,,false,723741.5,723741.299999997,,723741.200000003,,723534.969,4,500,,
sequence,flow.Sequence,10_18,2023-11-15T18:42:54.209Z,,,,,,,,,,2859.104999997071,completion,,,,,,,high,low,,,,,,false,,,,false,723741.700000003,723741.299999997,720865.591,721101.900000006,720882.195,723534.969,4,500,,
trial,html.Screen,10_19_0,2023-11-15T18:43:01.863Z,,,,1,-0.0220322185490382,-0.0740918837949419,,true,ll,7860.731000002939,response,-0.831295474746028,0.7011630806900779,-0.9478494165389988,-1.2101243893950622,0.6544294811753566,-1.118556002800191,low,low,,ISIC_8105020.JPG,9,ISIC_0760740.JPG,110,false,ll,keypress(f),0,false,731395.799999997,731395.700000003,723518.251,723741.799999997,723534.969,731193.558,4,500,20,
break,html.Screen,10_19_1,2023-11-15T18:43:01.863Z,,,,,,,,,,NaN,,,,,,,,low,low,,,,,,false,,,,false,731396.200000003,731396.1000000089,,731395.900000006,,731193.558,4,500,,
break_continue,html.Screen,10_19_2,2023-11-15T18:43:01.864Z,,,,,,,,,,NaN,,,,,,,,low,low,,,,,,false,,,,false,731396.400000006,731396.400000006,,731396.299999997,,731193.558,4,500,,
sequence,flow.Sequence,10_19,2023-11-15T18:43:01.864Z,,,,,,,,,,7861.4310000059195,completion,,,,,,,low,low,,,,,,false,,,,false,731396.5,731396.400000006,723518.251,723741.799999997,723534.969,731193.558,4,500,,
trial,html.Screen,10_20_0,2023-11-15T18:43:05.279Z,,,,1,-0.0051189696037511,0.0396625911332438,,true,ll,3618.04200000898,response,-0.8399241413841876,0.7011630806900779,-0.9478494165389988,-0.9343381610425818,0.6544294811753566,-1.118556002800191,low,low,,ISIC_9742891.JPG,8,ISIC_9203914.JPG,110,false,ll,keypress(f),0,false,734811.700000003,734811.6000000089,731159.226,731396.5,731193.558,734595.843,4,500,21,
break,html.Screen,10_20_1,2023-11-15T18:43:05.279Z,,,,,,,,,,NaN,,,,,,,,low,low,,,,,,false,,,,false,734812,734812,,734811.799999997,,734595.843,4,500,,
break_continue,html.Screen,10_20_2,2023-11-15T18:43:05.280Z,,,,,,,,,,NaN,,,,,,,,low,low,,,,,,false,,,,false,734812.299999997,734812.299999997,,734812.1000000089,,734595.843,4,500,,
sequence,flow.Sequence,10_20,2023-11-15T18:43:05.280Z,,,,,,,,,,3618.741999997059,completion,,,,,,,low,low,,,,,,false,,,,false,734812.400000006,734812.299999997,731159.226,731396.5,731193.558,734595.843,4,500,,
trial,html.Screen,10_21_0,2023-11-15T18:43:09.687Z,,,,1,-0.0531672914703651,0.0074883925434357,,true,lh,4624.057000005967,response,-1.0706588446368888,0.7011630806900779,-0.9478494165389988,0.6941525005619681,0.6544294811753566,-1.118556002800191,low,high,,ISIC_4177043.JPG,9,ISIC_8855790.JPG,64,false,lh,keypress(e),0,false,739220.1000000089,739219.900000006,734579.219,734812.400000006,734595.843,739018.239,4,500,22,
break,html.Screen,10_21_1,2023-11-15T18:43:09.688Z,,,,,,,,,,NaN,,,,,,,,low,high,,,,,,false,,,,false,739220.6000000089,739220.5,,739220.299999997,,739018.239,4,500,,
break_continue,html.Screen,10_21_2,2023-11-15T18:43:09.688Z,,,,,,,,,,NaN,,,,,,,,low,high,,,,,,false,,,,false,739220.900000006,739220.700000003,,739220.6000000089,,739018.239,4,500,,
sequence,flow.Sequence,10_21,2023-11-15T18:43:09.688Z,,,,,,,,,,4624.857000002987,completion,,,,,,,low,high,,,,,,false,,,,false,739221,739220.700000003,734579.219,734812.400000006,734595.843,739018.239,4,500,,
trial,html.Screen,10_22_0,2023-11-15T18:43:15.367Z,,,,1,0.0608867680161491,0.0206384042070211,,false,hl,5881.560999997077,response,0.6714344890480403,0.7011630806900779,-0.9478494165389988,-0.9362962536620838,0.6544294811753566,-1.118556002800191,high,low,,ISIC_0640806.JPG,8,ISIC_3691320.JPG,29,false,lh,keypress(e),0,false,744900,744899.799999997,738983.702,739221.1000000089,739018.239,744689.408,4,500,23,
break,html.Screen,10_22_1,2023-11-15T18:43:15.368Z,,,,,,,,,,NaN,,,,,,,,high,low,,,,,,false,,,,false,744900.299999997,744900.299999997,,744900.1000000089,,744689.408,4,500,,
break_continue,html.Screen,10_22_2,2023-11-15T18:43:15.368Z,,,,,,,,,,NaN,,,,,,,,high,low,,,,,,false,,,,false,744900.5,744900.400000006,,744900.400000006,,744689.408,4,500,,
sequence,flow.Sequence,10_22,2023-11-15T18:43:15.368Z,,,,,,,,,,5882.161000006017,completion,,,,,,,high,low,,,,,,false,,,,false,744900.5,744900.400000006,738983.702,739221,739018.239,744689.408,4,500,,
trial,html.Screen,10_23_0,2023-11-15T18:43:20.039Z,,,,1,-0.0265457942157377,-0.0704357137706731,,true,hh,4882.591999999946,response,0.8426512029386741,0.7011630806900779,-0.9478494165389988,0.7924499678897714,0.6544294811753566,-1.118556002800191,high,high,,ISIC_3123377.JPG,8,ISIC_0013636.JPG,330,false,hh,keypress(i),0,false,749572.200000003,749572,744672.852,744900.6000000089,744689.408,749360.65,4,500,24,
break,html.Screen,10_23_1,2023-11-15T18:43:20.040Z,,,,,,,,,,NaN,,,,,,,,high,high,,,,,,false,,,,false,749572.700000003,749572.6000000089,,749572.400000006,,749360.65,4,500,,
break_continue,html.Screen,10_23_2,2023-11-15T18:43:20.040Z,,,,,,,,,,NaN,,,,,,,,high,high,,,,,,false,,,,false,749573,749573,,749572.900000006,,749360.65,4,500,,
sequence,flow.Sequence,10_23,2023-11-15T18:43:20.040Z,,,,,,,,,,4883.591999999946,completion,,,,,,,high,high,,,,,,false,,,,false,749573.200000003,749573,744672.852,744900.6000000089,744689.408,749360.65,4,500,,
trial,html.Screen,10_24_0,2023-11-15T18:43:30.812Z,,,,1,-0.0113873532168551,-0.0054999201556291,,,,10777.672999999952,timeout,-1.0359890726035268,0.7011630806900779,-0.9478494165389988,0.5373232654388217,0.6544294811753566,-1.118556002800191,low,high,,ISIC_8812621.JPG,9,ISIC_2847555.JPG,64,false,,,0,false,760345.200000003,760345,749344.086,749573.299999997,749360.65,760138.323,4,500,25,
break,html.Screen,10_24_1,2023-11-15T18:43:30.813Z,,,,,,,,,,NaN,,,,,,,,low,high,,,,,,false,,,,false,760345.900000006,760345.799999997,,760345.5,,760138.323,4,500,,
break_continue,html.Screen,10_24_2,2023-11-15T18:43:30.814Z,,,,,,,,,,NaN,,,,,,,,low,high,,,,,,false,,,,false,760346.400000006,760346.200000003,,760346.1000000089,,760138.323,4,500,,
sequence,flow.Sequence,10_24,2023-11-15T18:43:30.814Z,,,,,,,,,,10985.550000002957,completion,,,,,,,low,high,,,,,,false,,,,false,760346.6000000089,760346.200000003,749344.086,749573.299999997,749360.65,760138.323,4,500,,
trial,html.Screen,10_25_0,2023-11-15T18:43:36.407Z,,,,1,0.039728379742806,-0.0228701131373768,,true,lh,5801.377000003005,response,-0.8277658066009654,0.7011630806900779,-0.9478494165389988,0.7390449930107234,0.6544294811753566,-1.118556002800191,low,high,,ISIC_0054073.JPG,9,ISIC_0033168.JPG,64,false,lh,keypress(e),0,false,765939.799999997,765939.700000003,760121.553,760346.700000003,760138.323,765727.049,4,500,26,
break,html.Screen,10_25_1,2023-11-15T18:43:36.407Z,,,,,,,,,,NaN,,,,,,,,low,high,,,,,,false,,,,false,765940.1000000089,765940.1000000089,,765940,,765727.049,4,500,,
break_continue,html.Screen,10_25_2,2023-11-15T18:43:36.408Z,,,,,,,,,,NaN,,,,,,,,low,high,,,,,,false,,,,false,765940.400000006,765940.200000003,,765940.200000003,,765727.049,4,500,,
sequence,flow.Sequence,10_25,2023-11-15T18:43:36.408Z,,,,,,,,,,5801.877000003005,completion,,,,,,,low,high,,,,,,false,,,,false,765940.400000006,765940.200000003,760121.553,760346.700000003,760138.323,765727.049,4,500,,
trial,html.Screen,10_26_0,2023-11-15T18:43:40.063Z,,,,1,-0.0688801591312476,-0.0185462113313342,,false,lh,3869.0510000089416,response,-1.084404366274825,0.7011630806900779,-0.9478494165389988,0.6211476071518608,0.6544294811753566,-1.118556002800191,low,high,,ISIC_0067723.JPG,9,ISIC_3530422.JPG,64,false,ll,keypress(f),0,false,769596.299999997,769596.1000000089,765710.26,765940.400000006,765727.049,769380.702,4,500,27,
break,html.Screen,10_26_1,2023-11-15T18:43:40.064Z,,,,,,,,,,NaN,,,,,,,,low,high,,,,,,false,,,,false,769596.700000003,769596.6000000089,,769596.299999997,,769380.702,4,500,,
break_continue,html.Screen,10_26_2,2023-11-15T18:43:40.064Z,,,,,,,,,,NaN,,,,,,,,low,high,,,,,,false,,,,false,769597,769596.900000006,,769596.799999997,,769380.702,4,500,,
sequence,flow.Sequence,10_26,2023-11-15T18:43:40.064Z,,,,,,,,,,3869.8510000059614,completion,,,,,,,low,high,,,,,,false,,,,false,769597.1000000089,769596.900000006,765710.26,765940.400000006,765727.049,769380.702,4,500,,
trial,html.Screen,10_27_0,2023-11-15T18:43:43.279Z,,,,1,0.039728379742806,-0.0228701131373768,,true,hh,3430.8980000088923,response,0.5459906861193687,0.7011630806900779,-0.9478494165389988,0.5723924693513213,0.6544294811753566,-1.118556002800191,high,high,,ISIC_0054073.JPG,10,ISIC_0313507.JPG,330,false,hh,keypress(i),0,false,772811.700000003,772811.6000000089,769364.131,769597.200000003,769380.702,772600.74,4,500,28,
break,html.Screen,10_27_1,2023-11-15T18:43:43.279Z,,,,,,,,,,NaN,,,,,,,,high,high,,,,,,false,,,,false,772812,772812,,772811.799999997,,772600.74,4,500,,
break_continue,html.Screen,10_27_2,2023-11-15T18:43:43.279Z,,,,,,,,,,NaN,,,,,,,,high,high,,,,,,false,,,,false,772812.200000003,772812.1000000089,,772812.1000000089,,772600.74,4,500,,
sequence,flow.Sequence,10_27,2023-11-15T18:43:43.280Z,,,,,,,,,,3431.3980000088923,completion,,,,,,,high,high,,,,,,false,,,,false,772812.200000003,772812.1000000089,769364.131,769597.200000003,769380.702,772600.74,4,500,,
trial,html.Screen,10_28_0,2023-11-15T18:43:44.928Z,,,,1,-0.0277178575053843,0.0395587463147856,,true,hh,1859.4600000029895,response,0.6224679810838276,0.7011630806900779,-0.9478494165389988,0.5259517943886952,0.6544294811753566,-1.118556002800191,high,high,,ISIC_0010807.JPG,8,ISIC_0001148.JPG,330,false,hh,keypress(i),0,false,774460.400000006,774460.200000003,772583.844,772812.299999997,772600.74,774252.506,4,500,29,
break,html.Screen,10_28_1,2023-11-15T18:43:44.928Z,,,,,,,,,,NaN,,,,,,,,high,high,,,,,,false,,,,false,774460.900000006,774460.799999997,,774460.5,,774252.506,4,500,,
break_continue,html.Screen,10_28_2,2023-11-15T18:43:44.929Z,,,,,,,,,,NaN,,,,,,,,high,high,,,,,,false,,,,false,774461.299999997,774461.200000003,,774461.1000000089,,774252.506,4,500,,
sequence,flow.Sequence,10_28,2023-11-15T18:43:44.929Z,,,,,,,,,,1860.4600000029895,completion,,,,,,,high,high,,,,,,false,,,,false,774461.400000006,774461.200000003,772583.844,772812.299999997,772600.74,774252.506,4,500,,
trial,html.Screen,10_29_0,2023-11-15T18:43:48.640Z,,,,1,-0.0113873532168551,-0.0054999201556291,,true,ll,3919.993999999948,response,-0.8856899178393457,0.7011630806900779,-0.9478494165389988,-1.1903131706835868,0.6544294811753566,-1.118556002800191,low,low,,ISIC_8812621.JPG,9,ISIC_1233104.JPG,110,false,ll,keypress(f),0,false,778172.700000003,778172.5,774235.677,774461.5,774252.506,777955.943,4,500,30,
break,html.Screen,10_29_1,2023-11-15T18:43:48.641Z,,,,,,,,,,NaN,,,,,,,,low,low,,,,,,false,,,,false,778173.400000006,778173.200000003,,778173,,777955.943,4,500,,
break_continue,html.Screen,10_29_2,2023-11-15T18:43:48.641Z,,,,,,,,,,NaN,,,,,,,,low,low,,,,,,false,,,,false,778173.799999997,778173.6000000089,,778173.5,,777955.943,4,500,,
sequence,flow.Sequence,10_29,2023-11-15T18:43:48.641Z,,,,,,,,,,3921.0940000088885,completion,,,,,,,low,low,,,,,,false,,,,false,778174,778173.6000000089,774235.677,774461.5,774252.506,777955.943,4,500,,
trial,html.Screen,10_30_0,2023-11-15T18:43:50.928Z,,,,1,-0.0533723079251252,-0.0299718727255261,,true,hh,2504.3569999970496,response,0.546205213430479,0.7011630806900779,-0.9478494165389988,0.5072135574550125,0.6544294811753566,-1.118556002800191,high,high,,ISIC_6562871.JPG,10,ISIC_0066992.JPG,330,false,hh,keypress(i),0,false,780460.5,780460.299999997,777939.325,778174.1000000089,777955.943,780241.597,4,500,31,
break,html.Screen,10_30_1,2023-11-15T18:43:50.928Z,,,,,,,,,,NaN,,,,,,,,high,high,,,,,,false,,,,false,780461.1000000089,780461,,780460.700000003,,780241.597,4,500,,
break_continue,html.Screen,10_30_2,2023-11-15T18:43:50.929Z,,,,,,,,,,NaN,,,,,,,,high,high,,,,,,false,,,,false,780461.5,780461.400000006,,780461.200000003,,780241.597,4,500,,
sequence,flow.Sequence,10_30,2023-11-15T18:43:50.929Z,,,,,,,,,,2505.4570000059903,completion,,,,,,,high,high,,,,,,false,,,,false,780461.700000003,780461.400000006,777939.325,778174.1000000089,777955.943,780241.597,4,500,,
trial,html.Screen,10_31_0,2023-11-15T18:43:52.600Z,,,,1,0.0050679133050021,-0.0009714874637896,,false,hl,1890.7029999970691,response,0.6231695572160023,0.7011630806900779,-0.9478494165389988,-0.9598176954765794,0.6544294811753566,-1.118556002800191,high,low,,ISIC_9848743.JPG,8,ISIC_0024297.JPG,29,false,hh,keypress(i),0,false,782132.5,782132.299999997,780224.972,780461.799999997,780241.597,781926.756,4,500,32,
break,html.Screen,10_31_1,2023-11-15T18:43:52.600Z,,,,,,,,,,NaN,,,,,,,,high,low,,,,,,false,,,,false,782133.1000000089,782133,,782132.700000003,,781926.756,4,500,,
break_continue,html.Screen,10_31_2,2023-11-15T18:43:52.601Z,,,,,,,,,,NaN,,,,,,,,high,low,,,,,,false,,,,false,782133.400000006,782133.299999997,,782133.200000003,,781926.756,4,500,,
sequence,flow.Sequence,10_31,2023-11-15T18:43:52.601Z,,,,,,,,,,1891.7029999970691,completion,,,,,,,high,low,,,,,,false,,,,false,782133.6000000089,782133.299999997,780224.972,780461.799999997,780241.597,781926.756,4,500,,
trial,html.Screen,10_32_0,2023-11-15T18:43:55.823Z,,,,1,-0.0102460616775615,0.0309670599545429,,true,ll,3428.944000002928,response,-0.8399241413841876,0.7011630806900779,-0.9478494165389988,-0.9343381610425818,0.6544294811753566,-1.118556002800191,low,low,,ISIC_0072041.JPG,9,ISIC_9203914.JPG,110,false,ll,keypress(f),0,false,785355.799999997,785355.700000003,781909.883,782133.700000003,781926.756,785146.493,4,500,33,
break,html.Screen,10_32_1,2023-11-15T18:43:55.823Z,,,,,,,,,,NaN,,,,,,,,low,low,,,,,,false,,,,false,785356.200000003,785356,,785355.900000006,,785146.493,4,500,,
break_continue,html.Screen,10_32_2,2023-11-15T18:43:55.824Z,,,,,,,,,,NaN,,,,,,,,low,low,,,,,,false,,,,false,785356.400000006,785356.400000006,,785356.299999997,,785146.493,4,500,,
sequence,flow.Sequence,10_32,2023-11-15T18:43:55.824Z,,,,,,,,,,3429.6440000059083,completion,,,,,,,low,low,,,,,,false,,,,false,785356.5,785356.400000006,781909.883,782133.700000003,781926.756,785146.493,4,500,,
trial,html.Screen,10_33_0,2023-11-15T18:43:57.880Z,,,,1,-0.0546386976779619,0.0448724759283131,,false,hl,2265.7070000029635,response,0.6629163102028129,0.7011630806900779,-0.9478494165389988,-1.2268098550740514,0.6544294811753566,-1.118556002800191,high,low,,ISIC_6722934.JPG,9,ISIC_9562157.JPG,29,false,ll,keypress(f),0,false,787412.400000006,787412.200000003,785129.775,785356.5,785146.493,787198.519,4,500,34,
break,html.Screen,10_33_1,2023-11-15T18:43:57.881Z,,,,,,,,,,NaN,,,,,,,,high,low,,,,,,false,,,,false,787413.1000000089,787413,,787412.6000000089,,787198.519,4,500,,
break_continue,html.Screen,10_33_2,2023-11-15T18:43:57.881Z,,,,,,,,,,NaN,,,,,,,,high,low,,,,,,false,,,,false,787413.5,787413.299999997,,787413.200000003,,787198.519,4,500,,
sequence,flow.Sequence,10_33,2023-11-15T18:43:57.881Z,,,,,,,,,,2266.806999997003,completion,,,,,,,high,low,,,,,,false,,,,false,787413.6000000089,787413.299999997,785129.775,785356.5,785146.493,787198.519,4,500,,
trial,html.Screen,10_34_0,2023-11-15T18:43:59.872Z,,,,1,-0.0565575423757561,-0.0394300226801425,,true,ll,2205.8810000059893,response,-1.030423594637164,0.7011630806900779,-0.9478494165389988,-0.9418036199165556,0.6544294811753566,-1.118556002800191,low,low,,ISIC_0046983.JPG,10,ISIC_0010299.JPG,110,false,ll,keypress(f),0,false,789404.6000000089,789404.400000006,787181.833,787413.799999997,787198.519,789200.706,4,500,35,
break,html.Screen,10_34_1,2023-11-15T18:43:59.873Z,,,,,,,,,,NaN,,,,,,,,low,low,,,,,,false,,,,false,789405.1000000089,789404.900000006,,789404.700000003,,789200.706,4,500,,
break_continue,html.Screen,10_34_2,2023-11-15T18:43:59.873Z,,,,,,,,,,NaN,,,,,,,,low,low,,,,,,false,,,,false,789405.400000006,789405.200000003,,789405.1000000089,,789200.706,4,500,,
sequence,flow.Sequence,10_34,2023-11-15T18:43:59.873Z,,,,,,,,,,2206.681000003009,completion,,,,,,,low,low,,,,,,false,,,,false,789405.5,789405.200000003,787181.833,787413.700000003,787198.519,789200.706,4,500,,
trial,html.Screen,10_35_0,2023-11-15T18:44:01.856Z,,,,1,-0.0102460616775615,0.0309670599545429,,false,hl,2187.593999997014,response,0.6864497754928831,0.7011630806900779,-0.9478494165389988,-1.0456580051873738,0.6544294811753566,-1.118556002800191,high,low,,ISIC_0072041.JPG,8,ISIC_0055388.JPG,29,false,ll,keypress(f),0,false,791388.400000006,791388.299999997,789183.858,789405.5,789200.706,791186.371,4,500,36,
break,html.Screen,10_35_1,2023-11-15T18:44:01.857Z,,,,,,,,,,NaN,,,,,,,,high,low,,,,,,false,,,,false,791389,791388.900000006,,791388.700000003,,791186.371,4,500,,
break_continue,html.Screen,10_35_2,2023-11-15T18:44:01.857Z,,,,,,,,,,NaN,,,,,,,,high,low,,,,,,false,,,,false,791389.400000006,791389.200000003,,791389.200000003,,791186.371,4,500,,
sequence,flow.Sequence,10_35,2023-11-15T18:44:01.857Z,,,,,,,,,,2188.4940000029746,completion,,,,,,,high,low,,,,,,false,,,,false,791389.6000000089,791389.200000003,789183.858,789405.5,789200.706,791186.371,4,500,,
trial,html.Screen,10_36_0,2023-11-15T18:44:03.536Z,,,,1,-0.0292059717970335,-0.0718256867525069,,true,ll,1882.1289999999572,response,-0.7848333827448511,0.7011630806900779,-0.9478494165389988,-0.9249180304825352,0.6544294811753566,-1.118556002800191,low,low,,ISIC_1114966.JPG,10,ISIC_6778515.JPG,110,false,ll,keypress(f),0,false,793068.799999997,793068.5,791152.632,791389.700000003,791186.371,792854.235,4,500,37,
break,html.Screen,10_36_1,2023-11-15T18:44:03.537Z,,,,,,,,,,NaN,,,,,,,,low,low,,,,,,false,,,,false,793069.400000006,793069.299999997,,793069,,792854.235,4,500,,
break_continue,html.Screen,10_36_2,2023-11-15T18:44:03.537Z,,,,,,,,,,NaN,,,,,,,,low,low,,,,,,false,,,,false,793069.799999997,793069.6000000089,,793069.5,,792854.235,4,500,,
sequence,flow.Sequence,10_36,2023-11-15T18:44:03.537Z,,,,,,,,,,1883.2290000088979,completion,,,,,,,low,low,,,,,,false,,,,false,793069.900000006,793069.6000000089,791152.632,791389.700000003,791186.371,792854.235,4,500,,
trial,html.Screen,10_37_0,2023-11-15T18:44:05.576Z,,,,1,0.0329095507339554,-0.0382899749693245,,false,lh,2253.965000002994,response,-1.1097716037944447,0.7011630806900779,-0.9478494165389988,0.726994437314983,0.6544294811753566,-1.118556002800191,low,high,,ISIC_8812781.JPG,9,ISIC_0000139.JPG,64,false,ll,keypress(f),0,false,795108.400000006,795108.200000003,792837.507,793070.200000003,792854.235,794889.585,4,500,38,
break,html.Screen,10_37_1,2023-11-15T18:44:05.576Z,,,,,,,,,,NaN,,,,,,,,low,high,,,,,,false,,,,false,795108.900000006,795108.799999997,,795108.6000000089,,794889.585,4,500,,
break_continue,html.Screen,10_37_2,2023-11-15T18:44:05.577Z,,,,,,,,,,NaN,,,,,,,,low,high,,,,,,false,,,,false,795109.200000003,795109.200000003,,795109,,794889.585,4,500,,
