sender,sender_type,sender_id,timestamp,meta,,age,blockNo,c1,c2,condition,correct,correctResponse,duration,ended_on,f1,f1_high,f1_low,f2,f2_high,f2_low,feature_level1,feature_level2,gender,img_left,img_reveal,img_right,n_target_images,practice,response,response_action,selection_duration,staircase,time_commit,time_end,time_render,time_run,time_show,time_switch,total_blocks,total_trials,trialNo,url
informed_consent,html.Screen,0,2023-11-15T20:42:23.735Z,"{""labjs_version"":""20.2.4"",""labjs_build"":{""flavor"":""development"",""commit"":""f5b4a49f956347addd546a832a3327688c2c0fef""},""location"":""https://labjs.felixhenninger.com/api/labjs_preview/index.html"",""userAgent"":""Mozilla/5.0 (Windows NT 10.0; Win64; x64) AppleWebKit/537.36 (KHTML, like Gecko) Chrome/119.0.0.0 Safari/537.36"",""platform"":""Win32"",""language"":""en-US"",""locale"":""en-US"",""timeZone"":""America/Chicago"",""timezoneOffset"":360,""screen_width"":1920,""screen_height"":1080,""scroll_width"":945,""scroll_height"":918,""window_innerWidth"":945,""window_innerHeight"":966,""devicePixelRatio"":1}",,,,,,,,,43863.18099998808,response,,,,,,,,,,,,,,,consent,click button,,,44325.60000002384,44319.69999998808,439.861,536.9000000357628,456.519,44256.643,,,,{}
Demography form,html.Form,1,2023-11-15T20:42:35.488Z,,,19,,,,,,,11821.657000011925,form submission,,,,,,,,,male,,,,,,,,,,56078.40000003576,56078.30000001192,44240.033,44325.80000001192,44256.643,55989.84,,,,
Welcome,html.Screen,2,2023-11-15T20:42:55.666Z,,,,,,,"[""bor"",""col""]",,,20266.060000035766,response,,,,,,,,,,,,,,,continue,click button,,,76256.60000002384,76255.90000003576,55973.446,56078.40000003576,55989.84,76190.003,,,,
demo_instructions,html.Screen,3,2023-11-15T20:43:07.386Z,,,,,,,,,,11785.696999988082,response,,,,,,,,,,,,,,,continue,click button,,,87976.30000001192,87975.69999998808,76173.615,76256.60000002384,76190.003,87906.931,,,,
trial,html.Screen,4_0_0,2023-11-15T20:43:35.348Z,,,,0,0.7872534775441857,-0.8441107693833454,,true,lh,28030.569000000003,response,-0.7991459998473059,0.8999999999999997,-0.8999999999999997,1.0280788723474688,0.8999999999999997,-0.8999999999999997,low,high,,ISIC_0028788.JPG,,ISIC_7951202.JPG,29,true,lh,keypress(e),100,false,115937.69999998808,115937.5,87889.849,87976.5,87906.931,115873.418,1,16,1,
sequence,flow.Sequence,4_0,2023-11-15T20:43:35.348Z,,,,,,,,,,28030.569000000003,completion,,,,,,,low,high,,,,,,true,,,,false,115937.80000001192,115937.5,87889.849,87976.5,87906.931,115873.418,1,16,,
trial,html.Screen,4_1_0,2023-11-15T20:43:41.993Z,,,,0,1.045301444872812,-1.0872560254441277,,true,lh,6708.982000035758,response,-0.8513427412482127,0.8999999999999997,-0.8999999999999997,0.9295303568095064,0.8999999999999997,-0.8999999999999997,low,high,,ISIC_4507700.JPG,,ISIC_0034164.JPG,29,true,lh,keypress(e),100,false,122582.60000002384,122582.40000003576,115856.879,115937.90000003576,115873.418,122506.683,1,16,2,
sequence,flow.Sequence,4_1,2023-11-15T20:43:41.993Z,,,,,,,,,,6708.982000035758,completion,,,,,,,low,high,,,,,,true,,,,false,122582.80000001192,122582.40000003576,115856.879,115937.90000003576,115873.418,122506.683,1,16,,
trial,html.Screen,4_2_0,2023-11-15T20:43:51.405Z,,,,0,0.9089402323867112,-0.8034544077281132,,true,lh,9487.417000023837,response,-0.7010101889216934,0.8999999999999997,-0.8999999999999997,0.9022783418178474,0.8999999999999997,-0.8999999999999997,low,high,,ISIC_3585381.JPG,,ISIC_0057858.JPG,29,true,lh,keypress(e),100,false,131994.30000001192,131994.10000002384,122489.791,122582.90000003576,122506.683,131923.114,1,16,3,
sequence,flow.Sequence,4_2,2023-11-15T20:43:51.405Z,,,,,,,,,,9487.417000023837,completion,,,,,,,low,high,,,,,,true,,,,false,131994.40000003576,131994.10000002384,122489.791,122582.90000003576,122506.683,131923.114,1,16,,
trial,html.Screen,4_3_0,2023-11-15T20:43:59.136Z,,,,0,1.0788024398087033,-0.9911875460374616,,true,lh,7802.1860000119195,response,-0.7883321712536753,0.8999999999999997,-0.8999999999999997,1.0011430756825364,0.8999999999999997,-0.8999999999999997,low,high,,ISIC_5951430.JPG,,ISIC_9828853.JPG,29,true,lh,keypress(e),100,false,139725.40000003576,139725.30000001192,131906.672,131994.5,131923.114,139656.884,1,16,4,
sequence,flow.Sequence,4_3,2023-11-15T20:43:59.136Z,,,,,,,,,,7802.1860000119195,completion,,,,,,,low,high,,,,,,true,,,,false,139725.60000002384,139725.30000001192,131906.672,131994.5,131923.114,139656.884,1,16,,
trial,html.Screen,4_4_0,2023-11-15T20:44:12.451Z,,,,0,0.7770513300237836,0.912069987718464,,true,ll,13383.616000000009,response,-1.0348000491894005,0.8999999999999997,-0.8999999999999997,-0.7770667763745356,0.8999999999999997,-0.8999999999999997,low,low,,ISIC_0030852.JPG,,ISIC_2565154.JPG,169,true,ll,keypress(f),100,false,153040.69999998808,153040.5,139639.809,139725.69999998808,139656.884,152973.569,1,16,5,
sequence,flow.Sequence,4_4,2023-11-15T20:44:12.451Z,,,,,,,,,,13383.616000000009,completion,,,,,,,low,low,,,,,,true,,,,false,153040.90000003576,153040.5,139639.809,139725.60000002384,139656.884,152973.569,1,16,,
trial,html.Screen,4_5_0,2023-11-15T20:44:25.527Z,,,,0,0.8507058629676155,0.9499573218577314,,true,ll,13142.431000000011,response,-0.7276136672767647,0.8999999999999997,-0.8999999999999997,-0.9132548085712324,0.8999999999999997,-0.8999999999999997,low,low,,ISIC_0024951.JPG,,ISIC_0007740.JPG,169,true,ll,keypress(f),100,false,166116.40000003576,166116,152956.866,153041,152973.569,166040.026,1,16,6,
sequence,flow.Sequence,4_5,2023-11-15T20:44:25.527Z,,,,,,,,,,13142.431000000011,completion,,,,,,,low,low,,,,,,true,,,,false,166116.60000002384,166116,152956.866,153040.90000003576,152973.569,166040.026,1,16,,
trial,html.Screen,4_6_0,2023-11-15T20:44:32.154Z,,,,0,0.7000746177907212,0.708327734553696,,true,ll,6702.973999999987,response,-1.0058354021163274,0.8999999999999997,-0.8999999999999997,-0.8916720716393026,0.8999999999999997,-0.8999999999999997,low,low,,ISIC_0010174.JPG,,ISIC_5581936.JPG,169,true,ll,keypress(f),100,false,172743.10000002384,172743,166023.4,166116.60000002384,166040.026,172673.247,1,16,7,
sequence,flow.Sequence,4_6,2023-11-15T20:44:32.154Z,,,,,,,,,,6702.973999999987,completion,,,,,,,low,low,,,,,,true,,,,false,172743.30000001192,172743,166023.4,166116.60000002384,166040.026,172673.247,1,16,,
trial,html.Screen,4_7_0,2023-11-15T20:44:37.709Z,,,,0,0.9712921601561192,1.08279751862979,,true,ll,5624.752999999997,response,-0.710846172611277,0.8999999999999997,-0.8999999999999997,-1.086313423336944,0.8999999999999997,-0.8999999999999997,low,low,,ISIC_4049598.JPG,,ISIC_0946923.JPG,169,true,ll,keypress(f),100,false,178298.19999998808,178298,172656.802,172743.30000001192,172673.247,178223.357,1,16,8,
sequence,flow.Sequence,4_7,2023-11-15T20:44:37.709Z,,,,,,,,,,5624.752999999997,completion,,,,,,,low,low,,,,,,true,,,,false,178298.30000001192,178298,172656.802,172743.30000001192,172673.247,178223.357,1,16,,
trial,html.Screen,4_8_0,2023-11-15T20:44:55.312Z,,,,0,-0.8472024037189965,0.986370061404882,,true,hl,17677.64300000001,response,0.9089402323867112,0.8999999999999997,-0.8999999999999997,-0.8034544077281132,0.8999999999999997,-0.8999999999999997,high,low,,ISIC_0054355.JPG,,ISIC_3585381.JPG,43,true,hl,keypress(j),100,false,195901.19999998808,195901,178206.45,178298.40000003576,178223.357,195840.21,1,16,9,
sequence,flow.Sequence,4_8,2023-11-15T20:44:55.312Z,,,,,,,,,,17677.64300000001,completion,,,,,,,high,low,,,,,,true,,,,false,195901.40000003576,195901,178206.45,178298.40000003576,178223.357,195840.21,1,16,,
trial,html.Screen,4_9_0,2023-11-15T20:44:59.237Z,,,,0,-1.0453124399868816,0.8986747280184286,,true,hl,3986.290000000008,response,0.8067627078956657,0.8999999999999997,-0.8999999999999997,-0.7115865750196155,0.8999999999999997,-0.8999999999999997,high,low,,ISIC_0013967.JPG,,ISIC_0010014.JPG,43,true,hl,keypress(j),100,false,199826.60000002384,199826.5,195823.531,195901.5,195840.21,199756.537,1,16,10,
sequence,flow.Sequence,4_9,2023-11-15T20:44:59.237Z,,,,,,,,,,3986.290000000008,completion,,,,,,,high,low,,,,,,true,,,,false,199826.80000001192,199826.5,195823.531,195901.5,195840.21,199756.537,1,16,,
trial,html.Screen,4_10_0,2023-11-15T20:45:06.855Z,,,,0,-0.7883321712536753,1.0011430756825364,,true,hl,7687.962999999989,response,0.7236002097394486,0.8999999999999997,-0.8999999999999997,-0.7895205994309619,0.8999999999999997,-0.8999999999999997,high,low,,ISIC_9828853.JPG,,ISIC_0413563.JPG,43,true,hl,keypress(j),100,false,207444.60000002384,207444.5,199740.205,199826.90000003576,199756.537,207373.097,1,16,11,
sequence,flow.Sequence,4_10,2023-11-15T20:45:06.855Z,,,,,,,,,,7687.962999999989,completion,,,,,,,high,low,,,,,,true,,,,false,207444.69999998808,207444.5,199740.205,199826.90000003576,199756.537,207373.097,1,16,,
trial,html.Screen,4_11_0,2023-11-15T20:45:14.906Z,,,,0,-0.8472024037189965,0.986370061404882,,true,hl,8122.803000035754,response,0.7016609136175869,0.8999999999999997,-0.8999999999999997,-0.8694041951927121,0.8999999999999997,-0.8999999999999997,high,low,,ISIC_0054355.JPG,,ISIC_0897876.JPG,43,true,hl,keypress(j),100,false,215496,215495.90000003576,207356.866,207444.80000001192,207373.097,215423.1,1,16,12,
sequence,flow.Sequence,4_11,2023-11-15T20:45:14.907Z,,,,,,,,,,8122.803000035754,completion,,,,,,,high,low,,,,,,true,,,,false,215496.19999998808,215495.90000003576,207356.866,207444.80000001192,207373.097,215423.1,1,16,,
trial,html.Screen,4_12_0,2023-11-15T20:45:28.461Z,,,,0,-0.7918012854539199,-1.0631481857644678,,true,hh,13627.700000011915,response,0.8380649167521746,0.8999999999999997,-0.8999999999999997,0.7135701709445428,0.8999999999999997,-0.8999999999999997,high,high,,ISIC_0033137.JPG,,ISIC_0010061.JPG,184,true,hh,keypress(i),100,false,229050.90000003576,229050.80000001192,215406.379,215496.19999998808,215423.1,228990.18,1,16,13,
sequence,flow.Sequence,4_12,2023-11-15T20:45:28.461Z,,,,,,,,,,13627.700000011915,completion,,,,,,,high,high,,,,,,true,,,,false,229051.10000002384,229050.80000001192,215406.379,215496.19999998808,215423.1,228990.18,1,16,,
trial,html.Screen,4_13_0,2023-11-15T20:45:41.618Z,,,,0,-0.8152074889040049,-0.8626913703401816,,true,hh,13217.620000011928,response,0.9506660770270554,0.8999999999999997,-0.8999999999999997,0.8543483016673109,0.8999999999999997,-0.8999999999999997,high,high,,ISIC_4745475.JPG,,ISIC_0053469.JPG,184,true,hh,keypress(i),100,false,242208,242207.80000001192,228973.394,229051.10000002384,228990.18,242140.176,1,16,14,
sequence,flow.Sequence,4_13,2023-11-15T20:45:41.618Z,,,,,,,,,,13217.620000011928,completion,,,,,,,high,high,,,,,,true,,,,false,242208.19999998808,242207.80000001192,228973.394,229051.10000002384,228990.18,242140.176,1,16,,
trial,html.Screen,4_14_0,2023-11-15T20:45:47.045Z,,,,0,-0.7519481565232475,-0.9019952027171262,,true,hh,5494.224000035756,response,0.9984751310732674,0.8999999999999997,-0.8999999999999997,0.7993808609040723,0.8999999999999997,-0.8999999999999997,high,high,,ISIC_1497800.JPG,,ISIC_0032510.JPG,184,true,hh,keypress(i),100,false,247634.60000002384,247634.40000003576,242123.522,242208.19999998808,242140.176,247573.153,1,16,15,
sequence,flow.Sequence,4_14,2023-11-15T20:45:47.045Z,,,,,,,,,,5494.224000035756,completion,,,,,,,high,high,,,,,,true,,,,false,247634.80000001192,247634.40000003576,242123.522,242208.19999998808,242140.176,247573.153,1,16,,
trial,html.Screen,4_15_0,2023-11-15T20:45:51.322Z,,,,0,-0.8778738400881212,-0.8629033386879579,,true,hh,4338.046999988088,response,0.8441404886756483,0.8999999999999997,-0.8999999999999997,0.8493445183566039,0.8999999999999997,-0.8999999999999997,high,high,,ISIC_5607702.JPG,,ISIC_0055003.JPG,184,true,hh,keypress(i),100,false,251911.40000003576,251911.19999998808,247556.663,247634.90000003576,247573.153,251840.169,1,16,16,
sequence,flow.Sequence,4_15,2023-11-15T20:45:51.322Z,,,,,,,,,,4338.046999988088,completion,,,,,,,high,high,,,,,,true,,,,false,251911.5,251911.19999998808,247556.663,247634.90000003576,247573.153,251840.169,1,16,,
demonstration_loop,flow.Loop,4,2023-11-15T20:45:51.322Z,,,,,,,,,,164004.2689999881,completion,,,,,,,,,,,,,,true,,,,false,251911.69999998808,251911.19999998808,87889.849,87976.5,87906.931,251840.169,1,16,,
practice_instructions,html.Screen,5,2023-11-15T20:46:10.807Z,,,,,,,,,,19551.030999988085,response,,,,,,,,,,,,,,,continue,click button,,,271397.1999999881,271391.1999999881,251823.037,251911.69999998808,251840.169,271306.354,,,,
trial,html.Screen,6_0_0,2023-11-15T20:46:21.460Z,,,,1,-0.904926943774141,-0.8630923941752319,,true,hh,10742.946000011929,response,0.9069076630783806,0.8999999999999997,-0.8999999999999997,0.849461654555185,0.8999999999999997,-0.8999999999999997,high,high,,ISIC_4573624.JPG,,ISIC_0054527.JPG,184,true,hh,keypress(i),0,false,282049.40000003576,282049.3000000119,271289.689,271397.3000000119,271306.354,281973.476,1,40,1,
sequence,flow.Sequence,6_0,2023-11-15T20:46:21.460Z,,,,,,,,,,10742.946000011929,completion,,,,,,,high,high,,,,,,true,,,,false,282049.5,282049.3000000119,271289.689,271397.3000000119,271306.354,281973.476,1,40,,
trial,html.Screen,6_1_0,2023-11-15T20:46:32.165Z,,,,1,0.9662688541319592,-0.929746784178986,,false,lh,10780.124000023818,response,-1.075512775389519,0.8999999999999997,-0.8999999999999997,1.0454702683049502,0.8999999999999997,-0.8999999999999997,low,high,,ISIC_0011077.JPG,,ISIC_0033603.JPG,29,true,ll,keypress(f),0,false,292753.6999999881,292753.60000002384,281956.051,282049.5,281973.476,292673.146,1,40,2,
sequence,flow.Sequence,6_1,2023-11-15T20:46:32.165Z,,,,,,,,,,10780.124000023818,completion,,,,,,,low,high,,,,,,true,,,,false,292753.8000000119,292753.60000002384,281956.051,282049.5,281973.476,292673.146,1,40,,
trial,html.Screen,6_2_0,2023-11-15T20:46:43.161Z,,,,1,1.045301444872812,-1.0872560254441277,,,,11016.53899999999,timeout,-0.8830264383952469,0.8999999999999997,-0.8999999999999997,0.8635562538060516,0.8999999999999997,-0.8999999999999997,low,high,,ISIC_4507700.JPG,,ISIC_0032258.JPG,29,true,,,0,false,303749.6999999881,303749.6999999881,292656.417,292753.90000003576,292673.146,303689.685,1,40,3,
sequence,flow.Sequence,6_2,2023-11-15T20:46:43.161Z,,,,,,,,,,11076.553999988071,completion,,,,,,,low,high,,,,,,true,,,,false,303749.90000003576,303749.6999999881,292656.417,292753.90000003576,292673.146,303689.685,1,40,,
trial,html.Screen,6_3_0,2023-11-15T20:46:50.164Z,,,,1,-0.7088606387153258,0.948610930521224,,false,hl,7063.215000035765,response,0.7872534775441857,0.8999999999999997,-0.8999999999999997,-0.8441107693833454,0.8999999999999997,-0.8999999999999997,high,low,,ISIC_0026293.JPG,,ISIC_0028788.JPG,43,true,hh,keypress(i),0,false,310752.90000003576,310752.90000003576,303673.055,303750,303689.685,310673.461,1,40,4,
sequence,flow.Sequence,6_3,2023-11-15T20:46:50.164Z,,,,,,,,,,7063.215000035765,completion,,,,,,,high,low,,,,,,true,,,,false,310753.10000002384,310752.90000003576,303673.055,303749.90000003576,303689.685,310673.461,1,40,,
trial,html.Screen,6_4_0,2023-11-15T20:46:57.893Z,,,,1,-1.0008081653938232,-0.7832040253954599,,true,hh,7807.839000011911,response,1.0879680624915455,0.8999999999999997,-0.8999999999999997,0.9819300422707804,0.8999999999999997,-0.8999999999999997,high,high,,ISIC_8796632.JPG,,ISIC_0011369.JPG,184,true,hh,keypress(i),0,false,318481.40000003576,318481.3000000119,310656.505,310753.10000002384,310673.461,318406.703,1,40,5,
sequence,flow.Sequence,6_4,2023-11-15T20:46:57.893Z,,,,,,,,,,7807.839000011911,completion,,,,,,,high,high,,,,,,true,,,,false,318481.5,318481.3000000119,310656.505,310753.10000002384,310673.461,318406.703,1,40,,
trial,html.Screen,6_5_0,2023-11-15T20:47:03.845Z,,,,1,0.94165594025755,0.8169638598102704,,false,ll,6026.697000035783,response,-0.7553497600333596,0.8999999999999997,-0.8999999999999997,-1.0400427384571451,0.8999999999999997,-0.8999999999999997,low,low,,ISIC_0072429.JPG,,ISIC_0561634.JPG,169,true,hl,keypress(j),0,false,324433.40000003576,324433.40000003576,318373.18,318481.60000002384,318406.703,324356.789,1,40,6,
sequence,flow.Sequence,6_5,2023-11-15T20:47:03.845Z,,,,,,,,,,6026.697000035783,completion,,,,,,,low,low,,,,,,true,,,,false,324433.5,324433.40000003576,318373.18,318481.60000002384,318406.703,324356.789,1,40,,
trial,html.Screen,6_6_0,2023-11-15T20:47:11.812Z,,,,1,0.7552468233268477,-0.71846037114465,,true,lh,8044.21100000001,response,-0.8513427412482127,0.8999999999999997,-0.8999999999999997,0.9295303568095064,0.8999999999999997,-0.8999999999999997,low,high,,ISIC_2354070.JPG,,ISIC_0034164.JPG,29,true,lh,keypress(e),0,false,332401.10000002384,332401,324339.931,324433.6999999881,324356.789,332323.169,1,40,7,
sequence,flow.Sequence,6_6,2023-11-15T20:47:11.812Z,,,,,,,,,,8044.21100000001,completion,,,,,,,low,high,,,,,,true,,,,false,332401.1999999881,332401,324339.931,324433.60000002384,324356.789,332323.169,1,40,,
trial,html.Screen,6_7_0,2023-11-15T20:47:17.812Z,,,,1,-0.875928844868032,-1.0147952958458766,,true,hh,6077.731000035768,response,0.7908195179596742,0.8999999999999997,-0.8999999999999997,0.846286768918253,0.8999999999999997,-0.8999999999999997,high,high,,ISIC_7492682.JPG,,ISIC_0033843.JPG,184,true,hh,keypress(i),0,false,338401,338400.90000003576,332306.512,332401.3000000119,332323.169,338323.444,1,40,8,
sequence,flow.Sequence,6_7,2023-11-15T20:47:17.812Z,,,,,,,,,,6077.731000035768,completion,,,,,,,high,high,,,,,,true,,,,false,338401.10000002384,338400.90000003576,332306.512,332401.3000000119,332323.169,338323.444,1,40,,
trial,html.Screen,6_8_0,2023-11-15T20:47:23.732Z,,,,1,-0.745731903414877,-0.9653147884001048,,false,hh,5997.356000011903,response,0.9984751310732674,0.8999999999999997,-0.8999999999999997,0.7993808609040723,0.8999999999999997,-0.8999999999999997,high,high,,ISIC_3613012.JPG,,ISIC_0032510.JPG,184,true,ll,keypress(f),0,false,344320.90000003576,344320.8000000119,338306.333,338401.10000002384,338323.444,344240.103,1,40,9,
sequence,flow.Sequence,6_8,2023-11-15T20:47:23.732Z,,,,,,,,,,5997.356000011903,completion,,,,,,,high,high,,,,,,true,,,,false,344321,344320.8000000119,338306.333,338401.10000002384,338323.444,344240.103,1,40,,
trial,html.Screen,6_9_0,2023-11-15T20:47:29.365Z,,,,1,1.0333845898785206,0.998838774713298,,true,ll,5713.29700003576,response,-1.0979463718010185,0.8999999999999997,-0.8999999999999997,-0.7365909200455387,0.8999999999999997,-0.8999999999999997,low,low,,ISIC_0010486.JPG,,ISIC_3909443.JPG,169,true,ll,keypress(f),0,false,349953.5,349953.40000003576,344223.222,344321.10000002384,344240.103,349873.431,1,40,10,
sequence,flow.Sequence,6_9,2023-11-15T20:47:29.365Z,,,,,,,,,,5713.29700003576,completion,,,,,,,low,low,,,,,,true,,,,false,349953.60000002384,349953.40000003576,344223.222,344321.10000002384,344240.103,349873.431,1,40,,
trial,html.Screen,6_10_0,2023-11-15T20:47:40.357Z,,,,1,0.9544693251394116,-1.0727539917203766,,true,lh,11071.869000011939,response,-0.8110121381849364,0.8999999999999997,-0.8999999999999997,0.7563142141851558,0.8999999999999997,-0.8999999999999997,low,high,,ISIC_0055147.JPG,,ISIC_0033605.JPG,29,true,lh,keypress(e),0,false,360945.40000003576,360945.3000000119,349856.587,349953.6999999881,349873.431,360872.987,1,40,11,
sequence,flow.Sequence,6_10,2023-11-15T20:47:40.357Z,,,,,,,,,,11071.869000011939,completion,,,,,,,low,high,,,,,,true,,,,false,360945.5,360945.3000000119,349856.587,349953.6999999881,349873.431,360872.987,1,40,,
trial,html.Screen,6_11_0,2023-11-15T20:47:51.361Z,,,,1,0.7723423895392068,-0.7630051745722757,,,,11016.61599999998,timeout,-0.989300717252516,0.8999999999999997,-0.8999999999999997,0.7908280206937478,0.8999999999999997,-0.8999999999999997,low,high,,ISIC_9694911.JPG,,ISIC_6416533.JPG,29,true,,,0,false,371949.60000002384,371949.60000002384,360856.763,360945.5,360872.987,371889.603,1,40,12,
sequence,flow.Sequence,6_11,2023-11-15T20:47:51.361Z,,,,,,,,,,11076.613000023819,completion,,,,,,,low,high,,,,,,true,,,,false,371949.8000000119,371949.60000002384,360856.763,360945.5,360872.987,371889.603,1,40,,
trial,html.Screen,6_12_0,2023-11-15T20:47:59.445Z,,,,1,-0.979674241817633,-0.8567251746816678,,true,hh,8143.596999988076,response,0.7217466853250509,0.8999999999999997,-0.8999999999999997,0.8448637774265015,0.8999999999999997,-0.8999999999999997,high,high,,ISIC_0006757.JPG,,ISIC_0030780.JPG,184,true,hh,keypress(i),0,false,380033.40000003576,380033.1999999881,371873.411,371949.8000000119,371889.603,379956.744,1,40,13,
sequence,flow.Sequence,6_12,2023-11-15T20:47:59.445Z,,,,,,,,,,8143.596999988076,completion,,,,,,,high,high,,,,,,true,,,,false,380033.60000002384,380033.1999999881,371873.411,371949.8000000119,371889.603,379956.744,1,40,,
trial,html.Screen,6_13_0,2023-11-15T20:48:04.212Z,,,,1,-0.7883321712536753,1.0011430756825364,,false,hl,4844.156000035757,response,0.9244148283103414,0.8999999999999997,-0.8999999999999997,-0.9712966348713286,0.8999999999999997,-0.8999999999999997,high,low,,ISIC_9828853.JPG,,ISIC_7927525.JPG,43,true,hh,keypress(i),0,false,384801,384800.90000003576,379939.506,380033.60000002384,379956.744,384723.409,1,40,14,
sequence,flow.Sequence,6_13,2023-11-15T20:48:04.213Z,,,,,,,,,,4844.156000035757,completion,,,,,,,high,low,,,,,,true,,,,false,384801,384800.90000003576,379939.506,380033.60000002384,379956.744,384723.409,1,40,,
trial,html.Screen,6_14_0,2023-11-15T20:48:08.661Z,,,,1,-0.8954803463300026,0.7071819047913821,,true,hl,4525.790999988094,response,0.7856143618373893,0.8999999999999997,-0.8999999999999997,-1.0273608829432213,0.8999999999999997,-0.8999999999999997,high,low,,ISIC_0033071.JPG,,ISIC_9303849.JPG,43,true,hl,keypress(j),0,false,389249.40000003576,389249.1999999881,384706.24,384801.10000002384,384723.409,389173.412,1,40,15,
sequence,flow.Sequence,6_14,2023-11-15T20:48:08.661Z,,,,,,,,,,4525.790999988094,completion,,,,,,,high,low,,,,,,true,,,,false,389249.5,389249.1999999881,384706.24,384801.10000002384,384723.409,389173.412,1,40,,
trial,html.Screen,6_15_0,2023-11-15T20:48:19.661Z,,,,1,0.9405746940315332,0.7847785203585506,,,,11016.292000000016,timeout,-0.8639662056285013,0.8999999999999997,-0.8999999999999997,-0.9092203211946492,0.8999999999999997,-0.8999999999999997,low,low,,ISIC_0034237.JPG,,ISIC_2634356.JPG,169,true,,,0,false,400249.6999999881,400249.60000002384,389156.327,389249.60000002384,389173.412,400189.704,1,40,16,
sequence,flow.Sequence,6_15,2023-11-15T20:48:19.661Z,,,,,,,,,,11076.18800002383,completion,,,,,,,low,low,,,,,,true,,,,false,400249.8000000119,400249.60000002384,389156.327,389249.60000002384,389173.412,400189.704,1,40,,
trial,html.Screen,6_16_0,2023-11-15T20:48:24.949Z,,,,1,0.8137027730168936,0.7771609347349258,,true,ll,5347.696000035736,response,-0.83166078255243,0.8999999999999997,-0.8999999999999997,-0.9118813671244655,0.8999999999999997,-0.8999999999999997,low,low,,ISIC_7899041.JPG,,ISIC_1453671.JPG,169,true,ll,keypress(f),0,false,405537.5,405537.40000003576,400173.406,400249.90000003576,400189.704,405456.337,1,40,17,
sequence,flow.Sequence,6_16,2023-11-15T20:48:24.949Z,,,,,,,,,,5347.696000035736,completion,,,,,,,low,low,,,,,,true,,,,false,405537.6999999881,405537.40000003576,400173.406,400249.8000000119,400189.704,405456.337,1,40,,
trial,html.Screen,6_17_0,2023-11-15T20:48:30.181Z,,,,1,0.9602936946729488,0.747034716272411,,true,ll,5313.063000035763,response,-0.7918012854539199,0.8999999999999997,-0.8999999999999997,-1.0631481857644678,0.8999999999999997,-0.8999999999999997,low,low,,ISIC_0205127.JPG,,ISIC_0033137.JPG,169,true,ll,keypress(f),0,false,410769.5,410769.40000003576,405439.893,405537.6999999881,405456.337,410690.065,1,40,18,
sequence,flow.Sequence,6_17,2023-11-15T20:48:30.181Z,,,,,,,,,,5313.063000035763,completion,,,,,,,low,low,,,,,,true,,,,false,410769.6999999881,410769.40000003576,405439.893,405537.6999999881,405456.337,410690.065,1,40,,
trial,html.Screen,6_18_0,2023-11-15T20:48:37.301Z,,,,1,-1.058275612142778,0.7824898568540655,,true,hl,7198.634999988077,response,1.0926414044454305,0.8999999999999997,-0.8999999999999997,-0.7741624649032207,0.8999999999999997,-0.8999999999999997,high,low,,ISIC_4906385.JPG,,ISIC_2355513.JPG,43,true,hl,keypress(j),0,false,417888.8000000119,417888.6999999881,410672.999,410769.6999999881,410690.065,417806.384,1,40,19,
sequence,flow.Sequence,6_18,2023-11-15T20:48:37.301Z,,,,,,,,,,7198.634999988077,completion,,,,,,,high,low,,,,,,true,,,,false,417889,417888.6999999881,410672.999,410769.6999999881,410690.065,417806.384,1,40,,
trial,html.Screen,6_19_0,2023-11-15T20:48:43.237Z,,,,1,-0.7420119067987634,-0.9245836900688724,,true,hh,6018.916000011901,response,0.9737567085091248,0.8999999999999997,-0.8999999999999997,0.9013996680304692,0.8999999999999997,-0.8999999999999997,high,high,,ISIC_4130167.JPG,,ISIC_2483825.JPG,184,true,hh,keypress(i),0,false,423825.40000003576,423825.3000000119,417789.57,417889,417806.384,423739.67,1,40,20,
sequence,flow.Sequence,6_19,2023-11-15T20:48:43.237Z,,,,,,,,,,6018.916000011901,completion,,,,,,,high,high,,,,,,true,,,,false,423825.5,423825.3000000119,417789.57,417889,417806.384,423739.67,1,40,,
trial,html.Screen,6_20_0,2023-11-15T20:48:48.565Z,,,,1,-0.8778738400881212,-0.8629033386879579,,true,hh,5413.330000000016,response,0.7544107015739535,0.8999999999999997,-0.8999999999999997,0.781438724006539,0.8999999999999997,-0.8999999999999997,high,high,,ISIC_5607702.JPG,,ISIC_0021271.JPG,184,true,hh,keypress(i),0,false,429153,429153,423723.198,423825.60000002384,423739.67,429073.027,1,40,21,
sequence,flow.Sequence,6_20,2023-11-15T20:48:48.565Z,,,,,,,,,,5413.330000000016,completion,,,,,,,high,high,,,,,,true,,,,false,429153.1999999881,429153,423723.198,423825.60000002384,423739.67,429073.027,1,40,,
trial,html.Screen,6_21_0,2023-11-15T20:48:54.213Z,,,,1,0.9617893983965208,-0.9453006131304652,,false,lh,5727.972999999998,response,-0.789083277544982,0.8999999999999997,-0.8999999999999997,0.7172067273002093,0.8999999999999997,-0.8999999999999997,low,high,,ISIC_4229473.JPG,,ISIC_0011030.JPG,29,true,ll,keypress(f),0,false,434801.10000002384,434801,429056.085,429153.1999999881,429073.027,434723.38,1,40,22,
sequence,flow.Sequence,6_21,2023-11-15T20:48:54.213Z,,,,,,,,,,5727.972999999998,completion,,,,,,,low,high,,,,,,true,,,,false,434801.1999999881,434801,429056.085,429153.1999999881,429073.027,434723.38,1,40,,
trial,html.Screen,6_22_0,2023-11-15T20:48:58.068Z,,,,1,0.778047987566092,0.9219271880931648,,true,ll,3933.220000023837,response,-0.7151945682937986,0.8999999999999997,-0.8999999999999997,-0.9514368385965256,0.8999999999999997,-0.8999999999999997,low,low,,ISIC_1499915.JPG,,ISIC_0198331.JPG,169,true,ll,keypress(f),0,false,438656.6999999881,438656.60000002384,434706.257,434801.1999999881,434723.38,438573.377,1,40,23,
sequence,flow.Sequence,6_22,2023-11-15T20:48:58.069Z,,,,,,,,,,3933.220000023837,completion,,,,,,,low,low,,,,,,true,,,,false,438656.8000000119,438656.60000002384,434706.257,434801.1999999881,434723.38,438573.377,1,40,,
trial,html.Screen,6_23_0,2023-11-15T20:49:05.861Z,,,,1,-1.0484741330672678,-0.7102404161195045,,true,hh,7875.523000035784,response,0.7497331641141682,0.8999999999999997,-0.8999999999999997,0.9543531879821028,0.8999999999999997,-0.8999999999999997,high,high,,ISIC_6326803.JPG,,ISIC_0067801.JPG,184,true,hh,keypress(i),0,false,446449,446448.90000003576,438556.633,438656.90000003576,438573.377,446373.374,1,40,24,
sequence,flow.Sequence,6_23,2023-11-15T20:49:05.861Z,,,,,,,,,,7875.523000035784,completion,,,,,,,high,high,,,,,,true,,,,false,446449.10000002384,446448.90000003576,438556.633,438656.90000003576,438573.377,446373.374,1,40,,
trial,html.Screen,6_24_0,2023-11-15T20:49:16.861Z,,,,1,-0.7010101889216934,0.9022783418178474,,,,11016.222999999998,timeout,1.004142980655507,0.8999999999999997,-0.8999999999999997,-0.7749773174967559,0.8999999999999997,-0.8999999999999997,high,low,,ISIC_0057858.JPG,,ISIC_3936223.JPG,43,true,,,0,false,457449.60000002384,457449.5,446356.454,446449.10000002384,446373.374,457389.597,1,40,25,
sequence,flow.Sequence,6_24,2023-11-15T20:49:16.861Z,,,,,,,,,,11076.12599999999,completion,,,,,,,high,low,,,,,,true,,,,false,457449.6999999881,457449.5,446356.454,446449.10000002384,446373.374,457389.597,1,40,,
trial,html.Screen,6_25_0,2023-11-15T20:49:25.093Z,,,,1,0.7552468233268477,-0.71846037114465,,true,lh,8291.703000011912,response,-0.7882758084023446,0.8999999999999997,-0.8999999999999997,0.8296405881378283,0.8999999999999997,-0.8999999999999997,low,high,,ISIC_2354070.JPG,,ISIC_0065882.JPG,29,true,lh,keypress(e),0,false,465681.5,465681.3000000119,457373.366,457449.8000000119,457389.597,465606.493,1,40,26,
sequence,flow.Sequence,6_25,2023-11-15T20:49:25.093Z,,,,,,,,,,8291.703000011912,completion,,,,,,,low,high,,,,,,true,,,,false,465681.60000002384,465681.3000000119,457373.366,457449.8000000119,457389.597,465606.493,1,40,,
trial,html.Screen,6_26_0,2023-11-15T20:49:29.765Z,,,,1,-0.824124127424315,-0.8170596140441219,,true,hh,4746.907000035746,response,0.8179322126045343,0.8999999999999997,-0.8999999999999997,0.9445915945560848,0.8999999999999997,-0.8999999999999997,high,high,,ISIC_5909451.JPG,,ISIC_0056364.JPG,184,true,hh,keypress(i),0,false,470353.5,470353.40000003576,465573.08,465681.6999999881,465606.493,470273.357,1,40,27,
sequence,flow.Sequence,6_26,2023-11-15T20:49:29.766Z,,,,,,,,,,4746.907000035746,completion,,,,,,,high,high,,,,,,true,,,,false,470353.60000002384,470353.40000003576,465573.08,465681.6999999881,465606.493,470273.357,1,40,,
trial,html.Screen,6_27_0,2023-11-15T20:49:35.877Z,,,,1,-1.085906502329253,-0.8769314895018409,,true,hh,6192.043000035745,response,1.098939882801048,0.8999999999999997,-0.8999999999999997,0.7469537600215133,0.8999999999999997,-0.8999999999999997,high,high,,ISIC_2693412.JPG,,ISIC_0059897.JPG,184,true,hh,keypress(i),0,false,476465.5,476465.40000003576,470256.525,470353.60000002384,470273.357,476390.007,1,40,28,
sequence,flow.Sequence,6_27,2023-11-15T20:49:35.878Z,,,,,,,,,,6192.043000035745,completion,,,,,,,high,high,,,,,,true,,,,false,476465.60000002384,476465.40000003576,470256.525,470353.60000002384,470273.357,476390.007,1,40,,
trial,html.Screen,6_28_0,2023-11-15T20:49:41.829Z,,,,1,-0.9237241143561707,0.7102087839245512,,false,hl,6027.093000023859,response,0.9244148283103414,0.8999999999999997,-0.8999999999999997,-0.9712966348713286,0.8999999999999997,-0.8999999999999997,high,low,,ISIC_0058661.JPG,,ISIC_7927525.JPG,43,true,hh,keypress(i),0,false,482417.3000000119,482417.10000002384,476373.167,476465.60000002384,476390.007,482340.029,1,40,29,
sequence,flow.Sequence,6_28,2023-11-15T20:49:41.829Z,,,,,,,,,,6027.093000023859,completion,,,,,,,high,low,,,,,,true,,,,false,482417.40000003576,482417.10000002384,476373.167,476465.60000002384,476390.007,482340.029,1,40,,
trial,html.Screen,6_29_0,2023-11-15T20:49:48.420Z,,,,1,-0.7883321712536753,1.0011430756825364,,true,hl,6667.7710000119405,response,0.9752130063130028,0.8999999999999997,-0.8999999999999997,-0.7248550908059443,0.8999999999999997,-0.8999999999999997,high,low,,ISIC_9828853.JPG,,ISIC_5190484.JPG,43,true,hl,keypress(j),0,false,489008,489007.8000000119,482322.881,482417.40000003576,482340.029,488922.929,1,40,30,
sequence,flow.Sequence,6_29,2023-11-15T20:49:48.420Z,,,,,,,,,,6667.7710000119405,completion,,,,,,,high,low,,,,,,true,,,,false,489008.10000002384,489007.8000000119,482322.881,482417.40000003576,482340.029,488922.929,1,40,,
trial,html.Screen,6_30_0,2023-11-15T20:49:56.533Z,,,,1,0.8544507134472948,-0.9244388608707323,,true,lh,8198.171000023838,response,-0.7010101889216934,0.8999999999999997,-0.8999999999999997,0.9022783418178474,0.8999999999999997,-0.8999999999999997,low,high,,ISIC_3565564.JPG,,ISIC_0057858.JPG,29,true,lh,keypress(e),0,false,497121.3000000119,497121.10000002384,488906.499,489008.10000002384,488922.929,497040.013,1,40,31,
sequence,flow.Sequence,6_30,2023-11-15T20:49:56.533Z,,,,,,,,,,8198.171000023838,completion,,,,,,,low,high,,,,,,true,,,,false,497121.40000003576,497121.10000002384,488906.499,489008.10000002384,488922.929,497040.013,1,40,,
trial,html.Screen,6_31_0,2023-11-15T20:50:01.188Z,,,,1,0.8679614460736003,0.9273061036826674,,true,ll,4736.087000023865,response,-0.8326661044614712,0.8999999999999997,-0.8999999999999997,-1.0208030773499672,0.8999999999999997,-0.8999999999999997,low,low,,ISIC_9955163.JPG,,ISIC_4477599.JPG,169,true,ll,keypress(f),0,false,501776.3000000119,501776.10000002384,497023.043,497121.40000003576,497040.013,501689.607,1,40,32,
sequence,flow.Sequence,6_31,2023-11-15T20:50:01.188Z,,,,,,,,,,4736.087000023865,completion,,,,,,,low,low,,,,,,true,,,,false,501776.3000000119,501776.10000002384,497023.043,497121.40000003576,497040.013,501689.607,1,40,,
trial,html.Screen,6_32_0,2023-11-15T20:50:07.462Z,,,,1,0.7552468233268477,-0.71846037114465,,false,lh,6359.892999999982,response,-0.8034318937720549,0.8999999999999997,-0.8999999999999997,1.0024917298189338,0.8999999999999997,-0.8999999999999997,low,high,,ISIC_2354070.JPG,,ISIC_0032766.JPG,29,true,hh,keypress(i),0,false,508049.60000002384,508049.5,501672.929,501776.3000000119,501689.607,507973.338,1,40,33,
sequence,flow.Sequence,6_32,2023-11-15T20:50:07.462Z,,,,,,,,,,6359.892999999982,completion,,,,,,,low,high,,,,,,true,,,,false,508049.60000002384,508049.5,501672.929,501776.3000000119,501689.607,507973.338,1,40,,
trial,html.Screen,6_33_0,2023-11-15T20:50:13.285Z,,,,1,0.7331902152638365,0.9466874538814276,,true,ll,5899.162000000011,response,-0.8405707669205109,0.8999999999999997,-0.8999999999999997,-0.7425323414439162,0.8999999999999997,-0.8999999999999997,low,low,,ISIC_0012107.JPG,,ISIC_4272317.JPG,169,true,ll,keypress(f),0,false,513872.6999999881,513872.5,507956.071,508049.6999999881,507973.338,513789.64,1,40,34,
sequence,flow.Sequence,6_33,2023-11-15T20:50:13.285Z,,,,,,,,,,5899.162000000011,completion,,,,,,,low,low,,,,,,true,,,,false,513872.6999999881,513872.5,507956.071,508049.6999999881,507973.338,513789.64,1,40,,
trial,html.Screen,6_34_0,2023-11-15T20:50:19.413Z,,,,1,1.0788024398087033,-0.9911875460374616,,true,lh,6211.359999999986,response,-0.8513427412482127,0.8999999999999997,-0.8999999999999997,0.9295303568095064,0.8999999999999997,-0.8999999999999997,low,high,,ISIC_5951430.JPG,,ISIC_0034164.JPG,29,true,lh,keypress(e),0,false,520001.10000002384,520001,513773.151,513872.8000000119,513789.64,519923.325,1,40,35,
sequence,flow.Sequence,6_34,2023-11-15T20:50:19.413Z,,,,,,,,,,6211.359999999986,completion,,,,,,,low,high,,,,,,true,,,,false,520001.3000000119,520001,513773.151,513872.8000000119,513789.64,519923.325,1,40,,
trial,html.Screen,6_35_0,2023-11-15T20:50:27.829Z,,,,1,0.7200546926039536,0.7206544552694351,,true,ll,8493.27500002383,response,-0.8152074889040049,0.8999999999999997,-0.8999999999999997,-0.8626913703401816,0.8999999999999997,-0.8999999999999997,low,low,,ISIC_7334117.JPG,,ISIC_4745475.JPG,169,true,ll,keypress(f),0,false,528416.6999999881,528416.6000000238,519906.007,520001.3000000119,519923.325,528339.525,1,40,36,
sequence,flow.Sequence,6_35,2023-11-15T20:50:27.829Z,,,,,,,,,,8493.27500002383,completion,,,,,,,low,low,,,,,,true,,,,false,528416.8000000119,528416.6000000238,519906.007,520001.3000000119,519923.325,528339.525,1,40,,
trial,html.Screen,6_36_0,2023-11-15T20:50:34.197Z,,,,1,-0.8926515927689261,0.7935960767768927,,true,hl,6445.575000023819,response,0.7016609136175869,0.8999999999999997,-0.8999999999999997,-0.8694041951927121,0.8999999999999997,-0.8999999999999997,high,low,,ISIC_8901371.JPG,,ISIC_0897876.JPG,43,true,hl,keypress(j),0,false,534785.1999999881,534785.1000000238,528322.586,528416.9000000358,528339.525,534706.646,1,40,37,
sequence,flow.Sequence,6_36,2023-11-15T20:50:34.197Z,,,,,,,,,,6445.575000023819,completion,,,,,,,high,low,,,,,,true,,,,false,534785.3000000119,534785.1000000238,528322.586,528416.9000000358,528339.525,534706.646,1,40,,
trial,html.Screen,6_37_0,2023-11-15T20:50:44.182Z,,,,1,-0.84290786638064,0.7332521189371746,,true,hl,10062.55399998813,response,0.7236002097394486,0.8999999999999997,-0.8999999999999997,-0.7895205994309619,0.8999999999999997,-0.8999999999999997,high,low,,ISIC_4708642.JPG,,ISIC_0413563.JPG,43,true,hl,keypress(j),0,false,544769.4000000358,544769.1999999881,534689.481,534785.4000000358,534706.646,544689.803,1,40,38,
sequence,flow.Sequence,6_37,2023-11-15T20:50:44.182Z,,,,,,,,,,10062.55399998813,completion,,,,,,,high,low,,,,,,true,,,,false,544769.4000000358,544769.1999999881,534689.481,534785.3000000119,534706.646,544689.803,1,40,,
trial,html.Screen,6_38_0,2023-11-15T20:50:54.565Z,,,,1,-0.7883321712536753,1.0011430756825364,,true,hl,10462.896999988123,response,0.7872534775441857,0.8999999999999997,-0.8999999999999997,-0.8441107693833454,0.8999999999999997,-0.8999999999999997,high,low,,ISIC_9828853.JPG,,ISIC_0028788.JPG,43,true,hl,keypress(j),0,false,555152.6999999881,555152.6999999881,544672.915,544769.5,544689.803,555072.831,1,40,39,
sequence,flow.Sequence,6_38,2023-11-15T20:50:54.565Z,,,,,,,,,,10462.896999988123,completion,,,,,,,high,low,,,,,,true,,,,false,555152.8000000119,555152.6999999881,544672.915,544769.5,544689.803,555072.831,1,40,,
trial,html.Screen,6_39_0,2023-11-15T20:51:00.853Z,,,,1,0.7973802899836573,0.7843891838063659,,true,ll,6368.3689999880735,response,-0.7869352105908418,0.8999999999999997,-0.8999999999999997,-1.003780497631855,0.8999999999999997,-0.8999999999999997,low,low,,ISIC_0033473.JPG,,ISIC_4559115.JPG,169,true,ll,keypress(f),0,false,561441.3000000119,561441.1999999881,555055.964,555152.9000000358,555072.831,561356.186,1,40,40,
sequence,flow.Sequence,6_39,2023-11-15T20:51:00.854Z,,,,,,,,,,6368.3689999880735,completion,,,,,,,low,low,,,,,,true,,,,false,561441.4000000358,561441.1999999881,555055.964,555152.9000000358,555072.831,561356.186,1,40,,
practice_loop,flow.Loop,6,2023-11-15T20:51:00.854Z,,,,,,,,,,290134.8459999881,completion,,,,,,,,,,,,,,true,,,,false,561441.4000000358,561441.1999999881,271289.689,271397.3000000119,271306.354,561356.186,1,40,,
stair_instructions,html.Screen,7,2023-11-15T20:51:24.388Z,,,,,,,,,,23618.614000011934,response,,,,,,,,,,,,,,,continue,click button,,,584975.4000000358,584974.8000000119,561339.728,561441.5,561356.186,584906.159,,,,
trial,html.Screen,8_0_0,2023-11-15T20:51:34.277Z,,,,2,-0.0718464495991687,0.0429653518314044,,true,hl,9958.441000023857,response,0.9198276163642348,0.8999999999999997,-0.8999999999999997,-0.7754915110667046,0.8999999999999997,-0.8999999999999997,high,low,,ISIC_0028597.JPG,,ISIC_7840728.JPG,43,false,hl,keypress(j),0,true,594864.8000000119,594864.6000000238,584889.493,584975.4000000358,584906.159,594790.235,1,40,1,
sequence,flow.Sequence,8_0,2023-11-15T20:51:34.277Z,,,,,,,,,,9958.441000023857,completion,,,,,,,high,low,,,,,,false,,,,true,594864.9000000358,594864.6000000238,584889.493,584975.4000000358,584906.159,594790.235,1,40,,
trial,html.Screen,8_1_0,2023-11-15T20:51:39.157Z,,,,2,0.0107170641394226,-0.0596294643429623,,true,hl,4954.165000035777,response,0.9752130063130028,0.8999999999999997,-0.8999999999999997,-0.7248550908059443,0.8999999999999997,-0.8999999999999997,high,low,,ISIC_0005291.JPG,,ISIC_5190484.JPG,43,false,hl,keypress(j),0,true,599744.6000000238,599744.4000000358,594755.822,594865,594790.235,599656.129,1,40,2,
sequence,flow.Sequence,8_1,2023-11-15T20:51:39.157Z,,,,,,,,,,4954.165000035777,completion,,,,,,,high,low,,,,,,false,,,,true,599744.6999999881,599744.4000000358,594755.822,594865,594790.235,599656.129,1,40,,
trial,html.Screen,8_2_0,2023-11-15T20:51:43.957Z,,,,2,-0.0204987932325723,0.0619049476763945,,true,hl,4888.471000023885,response,0.7614652006672636,0.8499999999999996,-0.8999999999999997,-0.5973154829478726,0.8999999999999997,-0.7001733009363245,high,low,,ISIC_0887792.JPG,,ISIC_8406262.JPG,75,false,hl,keypress(j),0,true,604544.6999999881,604544.6000000238,599639.623,599744.6999999881,599656.129,604456.219,1,40,3,
sequence,flow.Sequence,8_2,2023-11-15T20:51:43.957Z,,,,,,,,,,4888.471000023885,completion,,,,,,,high,low,,,,,,false,,,,true,604544.6999999881,604544.6000000238,599639.623,599744.6999999881,599656.129,604456.219,1,40,,
trial,html.Screen,8_3_0,2023-11-15T20:51:49.861Z,,,,2,-0.0423567271646023,-0.0380126882576854,,false,ll,5992.480999988038,response,-0.804560999788504,0.8499999999999996,-0.8999999999999997,-0.6228537047862701,0.8999999999999997,-0.7001733009363245,low,low,,ISIC_0046932.JPG,,ISIC_6377622.JPG,234,false,hh,keypress(i),0,true,610448.9000000358,610448.6999999881,604439.791,604544.8000000119,604456.219,610372.795,1,40,4,
sequence,flow.Sequence,8_3,2023-11-15T20:51:49.861Z,,,,,,,,,,5992.480999988038,completion,,,,,,,low,low,,,,,,false,,,,true,610448.9000000358,610448.6999999881,604439.791,604544.8000000119,604456.219,610372.795,1,40,,
trial,html.Screen,8_4_0,2023-11-15T20:51:56.581Z,,,,2,0.0065172941585523,-0.0118857043117315,,true,hh,6795.505000011879,response,0.6655076126006295,0.8499999999999996,-0.9499999999999997,0.7227910971294874,0.8999999999999997,-0.7501733009363245,high,high,,ISIC_6119202.JPG,,ISIC_0031958.JPG,195,false,hh,keypress(i),0,true,617168.3000000119,617168.3000000119,610355.96,610449,610372.795,617089.627,1,40,5,
sequence,flow.Sequence,8_4,2023-11-15T20:51:56.581Z,,,,,,,,,,6795.505000011879,completion,,,,,,,high,high,,,,,,false,,,,true,617168.5,617168.3000000119,610355.96,610449,610372.795,617089.627,1,40,,
trial,html.Screen,8_5_0,2023-11-15T20:52:01.382Z,,,,2,-0.0606387586319451,-0.0283716809868572,,true,hh,4879.673000011942,response,0.5790283975109448,0.6441493548650584,-0.9499999999999997,0.9145475604754156,0.8999999999999997,-0.7501733009363245,high,high,,ISIC_0061158.JPG,,ISIC_3435596.JPG,254,false,hh,keypress(i),0,true,621969.5,621969.3000000119,617073.056,617168.5,617089.627,621889.718,1,40,6,
sequence,flow.Sequence,8_5,2023-11-15T20:52:01.382Z,,,,,,,,,,4879.673000011942,completion,,,,,,,high,high,,,,,,false,,,,true,621969.6000000238,621969.3000000119,617073.056,617168.5,617089.627,621889.718,1,40,,
trial,html.Screen,8_6_0,2023-11-15T20:52:05.494Z,,,,2,-0.0258224118104549,0.0029364553353019,,true,lh,4191.481999988086,response,-1.0160925610470608,0.6441493548650584,-0.9499999999999997,0.5707094956389498,0.6967879789931801,-0.7501733009363245,low,high,,ISIC_8325226.JPG,,ISIC_8120622.JPG,46,false,lh,keypress(e),0,true,626081.4000000358,626081.1999999881,621872.671,621969.6000000238,621889.718,626006.331,1,40,7,
sequence,flow.Sequence,8_6,2023-11-15T20:52:05.494Z,,,,,,,,,,4191.481999988086,completion,,,,,,,low,high,,,,,,false,,,,true,626081.4000000358,626081.1999999881,621872.671,621969.6000000238,621889.718,626006.331,1,40,,
trial,html.Screen,8_7_0,2023-11-15T20:52:11.382Z,,,,2,-0.0544036313884697,-0.0564516462775647,,false,lh,5962.769000023836,response,-1.0369885917487718,0.6441493548650584,-0.9499999999999997,0.8486937878412699,0.6967879789931801,-0.7501733009363245,low,high,,ISIC_7441957.JPG,,ISIC_6917681.JPG,46,false,hh,keypress(i),0,true,631969.1000000238,631969.1000000238,625972.978,626081.4000000358,626006.331,631889.611,1,40,8,
sequence,flow.Sequence,8_7,2023-11-15T20:52:11.382Z,,,,,,,,,,5962.769000023836,completion,,,,,,,low,high,,,,,,false,,,,true,631969.1999999881,631969.1000000238,625972.978,626081.4000000358,626006.331,631889.611,1,40,,
trial,html.Screen,8_8_0,2023-11-15T20:52:17.173Z,,,,2,0.0349011973222753,-0.065080527952874,,false,ll,5870.5889999880455,response,-0.8152074889040049,0.6441493548650584,-0.9999999999999998,-0.8626913703401816,0.6597016417401098,-0.7501733009363245,low,low,,ISIC_3898738.JPG,,ISIC_4745475.JPG,188,false,hl,keypress(j),0,true,637760.4000000358,637760.1999999881,631872.582,631969.3000000119,631889.611,637672.797,1,40,9,
sequence,flow.Sequence,8_8,2023-11-15T20:52:17.173Z,,,,,,,,,,5870.5889999880455,completion,,,,,,,low,low,,,,,,false,,,,true,637760.5,637760.1999999881,631872.582,631969.1999999881,631889.611,637672.797,1,40,,
trial,html.Screen,8_9_0,2023-11-15T20:52:26.693Z,,,,2,-0.0700576547090477,0.0026956749740767,,false,hl,9607.803000023821,response,0.4856782058994473,0.6441493548650584,-1.0499999999999998,-0.784321890696854,0.6597016417401098,-0.7501733009363245,high,low,,ISIC_7212271.JPG,,ISIC_4231346.JPG,120,false,lh,keypress(e),0,true,647280.8000000119,647280.6000000238,637655.922,637760.5,637672.797,647207.087,1,40,10,
sequence,flow.Sequence,8_9,2023-11-15T20:52:26.694Z,,,,,,,,,,9607.803000023821,completion,,,,,,,high,low,,,,,,false,,,,true,647280.9000000358,647280.6000000238,637655.922,637760.5,637672.797,647207.087,1,40,,
trial,html.Screen,8_10_0,2023-11-15T20:52:36.006Z,,,,2,0.0409660561823769,-0.039283578935498,,false,lh,9386.213000011863,response,-0.937244118871122,0.6941493548650585,-1.0499999999999998,0.6016155161011499,0.6597016417401098,-0.8001733009363245,low,high,,ISIC_0479264.JPG,,ISIC_0031611.JPG,41,false,ll,keypress(f),0,true,656593.3000000119,656593.3000000119,647172.961,647280.9000000358,647207.087,656506.116,1,40,11,
sequence,flow.Sequence,8_10,2023-11-15T20:52:36.006Z,,,,,,,,,,9386.213000011863,completion,,,,,,,low,high,,,,,,false,,,,true,656593.5,656593.3000000119,647172.961,647280.9000000358,647207.087,656506.116,1,40,,
trial,html.Screen,8_11_0,2023-11-15T20:52:44.726Z,,,,2,0.0326050223870869,0.0579165897319751,,false,lh,8806.984000023804,response,-0.8719231363109603,0.6941493548650585,-1.0499999999999998,0.7704280220140033,0.7097016417401099,-0.8001733009363245,low,high,,ISIC_4570724.JPG,,ISIC_0029453.JPG,37,false,hh,keypress(i),0,true,665313.1000000238,665313.1000000238,656489.119,656593.5,656506.116,665222.742,1,40,12,
sequence,flow.Sequence,8_11,2023-11-15T20:52:44.726Z,,,,,,,,,,8806.984000023804,completion,,,,,,,low,high,,,,,,false,,,,true,665313.1999999881,665313.1000000238,656489.119,656593.5,656506.116,665222.742,1,40,,
trial,html.Screen,8_12_0,2023-11-15T20:52:51.942Z,,,,2,0.0495531443078245,0.0310660434153916,,true,hh,7306.058000011952,response,0.6451586173786905,0.6941493548650585,-1.0999999999999999,0.515359306565808,0.7097016417401099,-0.8001733009363245,high,high,,ISIC_0013719.JPG,,ISIC_0070888.JPG,303,false,hh,keypress(i),0,true,672528.9000000358,672528.8000000119,665206.27,665313.3000000119,665222.742,672439.422,1,40,13,
sequence,flow.Sequence,8_12,2023-11-15T20:52:51.942Z,,,,,,,,,,7306.058000011952,completion,,,,,,,high,high,,,,,,false,,,,true,672529,672528.8000000119,665206.27,665313.3000000119,665222.742,672439.422,1,40,,
trial,html.Screen,8_13_0,2023-11-15T20:52:59.941Z,,,,2,-0.068830656047477,0.0471494209282208,,true,hl,8088.978000035742,response,0.8544507134472948,0.6941493548650585,-1.0999999999999999,-0.9244388608707323,0.5302589619722492,-0.8001733009363245,high,low,,ISIC_0029982.JPG,,ISIC_3565564.JPG,91,false,hl,keypress(j),0,true,680528.5,680528.4000000358,672422.565,672529,672439.422,680439.411,1,40,14,
sequence,flow.Sequence,8_13,2023-11-15T20:52:59.941Z,,,,,,,,,,8088.978000035742,completion,,,,,,,high,low,,,,,,false,,,,true,680528.6000000238,680528.4000000358,672422.565,672529,672439.422,680439.411,1,40,,
trial,html.Screen,8_14_0,2023-11-15T20:53:03.493Z,,,,2,0.049790040126711,-0.0195291725171472,,true,hl,3640.5890000000363,response,0.6451928502216471,0.6441493548650584,-1.0999999999999999,-0.9025935080849524,0.5302589619722492,-0.8001733009363245,high,low,,ISIC_0372902.JPG,,ISIC_5545874.JPG,111,false,hl,keypress(j),0,true,684080,684080,680422.767,680528.6000000238,680439.411,683989.439,1,40,15,
sequence,flow.Sequence,8_14,2023-11-15T20:53:03.493Z,,,,,,,,,,3640.5890000000363,completion,,,,,,,high,low,,,,,,false,,,,true,684080.1999999881,684080,680422.767,680528.6000000238,680439.411,683989.439,1,40,,
trial,html.Screen,8_15_0,2023-11-15T20:53:11.558Z,,,,2,-0.0606387586319451,-0.0283716809868572,,false,lh,8155.661000023829,response,-1.0321350332513155,0.6441493548650584,-1.0999999999999999,0.4403991857280807,0.5302589619722492,-0.7501733009363245,low,high,,ISIC_0061158.JPG,,ISIC_6430210.JPG,50,false,ll,keypress(f),0,true,692145.1999999881,692145.1000000238,683972.675,684080.3000000119,683989.439,692056.159,1,40,16,
sequence,flow.Sequence,8_15,2023-11-15T20:53:11.558Z,,,,,,,,,,8155.661000023829,completion,,,,,,,low,high,,,,,,false,,,,true,692145.3000000119,692145.1000000238,683972.675,684080.1999999881,683989.439,692056.159,1,40,,
trial,html.Screen,8_16_0,2023-11-15T20:53:18.325Z,,,,2,0.0629648527969799,-0.0694960898867798,,false,ll,6856.441000023857,response,-0.9966799416482932,0.6441493548650584,-1.0999999999999999,-0.7513707283535042,0.5802589619722492,-0.7501733009363245,low,low,,ISIC_0025597.JPG,,ISIC_7489895.JPG,141,false,hl,keypress(j),0,true,698912.6999999881,698912.6000000238,692039.322,692145.3000000119,692056.159,698822.799,1,40,17,
sequence,flow.Sequence,8_16,2023-11-15T20:53:18.325Z,,,,,,,,,,6856.441000023857,completion,,,,,,,low,low,,,,,,false,,,,true,698912.8000000119,698912.6000000238,692039.322,692145.3000000119,692056.159,698822.799,1,40,,
trial,html.Screen,8_17_0,2023-11-15T20:53:27.126Z,,,,2,0.0644356642124594,-0.0565130492997401,,false,hl,8889.701000000001,response,0.7872534775441857,0.6441493548650584,-1.15,-0.8441107693833454,0.5802589619722492,-0.7501733009363245,high,low,,ISIC_7520843.JPG,,ISIC_0028788.JPG,120,false,ll,keypress(f),0,true,707712.6000000238,707712.5,698806.031,698912.8000000119,698822.799,707622.778,1,40,18,
sequence,flow.Sequence,8_17,2023-11-15T20:53:27.126Z,,,,,,,,,,8889.701000000001,completion,,,,,,,high,low,,,,,,false,,,,true,707712.8000000119,707712.5,698806.031,698912.8000000119,698822.799,707622.778,1,40,,
trial,html.Screen,8_18_0,2023-11-15T20:53:37.478Z,,,,2,-0.0727065082131878,-0.0601627969482033,,false,hh,10442.22199999995,response,0.6302621497096959,0.6941493548650585,-1.15,0.7210895516279604,0.5802589619722492,-0.7477407488684247,high,high,,ISIC_2245069.JPG,,ISIC_0033016.JPG,334,false,ll,keypress(f),0,true,718065.1999999881,718065,707606.224,707712.8000000119,707622.778,717989.63,1,40,19,
sequence,flow.Sequence,8_18,2023-11-15T20:53:37.478Z,,,,,,,,,,10442.22199999995,completion,,,,,,,high,high,,,,,,false,,,,true,718065.1999999881,718065,707606.224,707712.8000000119,707622.778,717989.63,1,40,,
trial,html.Screen,8_19_0,2023-11-15T20:53:43.542Z,,,,2,-0.0634150092059303,0.0177502973253611,,true,ll,6139.369999999995,response,-1.275774577028331,0.7441493548650585,-1.15,-0.7824087886010256,0.6302589619722493,-0.7477407488684247,low,low,,ISIC_0032433.JPG,,ISIC_2426937.JPG,121,false,ll,keypress(f),0,true,724129.1999999881,724129,717972.81,718065.3000000119,717989.63,724039.405,1,40,20,
sequence,flow.Sequence,8_19,2023-11-15T20:53:43.542Z,,,,,,,,,,6139.369999999995,completion,,,,,,,low,low,,,,,,false,,,,true,724129.3000000119,724129,717972.81,718065.1999999881,717989.63,724039.405,1,40,,
trial,html.Screen,8_20_0,2023-11-15T20:53:50.854Z,,,,2,0.0164027439304477,-0.0082910758715273,,false,lh,7401.195000023814,response,-1.2054195059663604,0.7441493548650585,-1.15,0.7760611240296147,0.6302589619722493,-0.7477407488684247,low,high,,ISIC_7381224.JPG,,ISIC_8712559.JPG,30,false,hh,keypress(i),0,true,731440.6999999881,731440.6000000238,724022.52,724129.4000000358,724039.405,731356.171,1,40,21,
sequence,flow.Sequence,8_20,2023-11-15T20:53:50.854Z,,,,,,,,,,7401.195000023814,completion,,,,,,,low,high,,,,,,false,,,,true,731440.8000000119,731440.6000000238,724022.52,724129.3000000119,724039.405,731356.171,1,40,,
trial,html.Screen,8_21_0,2023-11-15T20:53:55.462Z,,,,2,-0.0076984477620101,-0.0069458408496562,,false,lh,4692.929000023869,response,-1.1730867561644371,0.7441493548650585,-1.15,0.498718247990354,0.6302589619722493,-0.7477407488684247,low,high,,ISIC_0000434.JPG,,ISIC_7138875.JPG,30,false,hl,keypress(j),0,true,736049.1999999881,736049.1000000238,731339.159,731440.9000000358,731356.171,735973.197,1,40,22,
sequence,flow.Sequence,8_21,2023-11-15T20:53:55.462Z,,,,,,,,,,4692.929000023869,completion,,,,,,,low,high,,,,,,false,,,,true,736049.3000000119,736049.1000000238,731339.159,731440.9000000358,731356.171,735973.197,1,40,,
trial,html.Screen,8_22_0,2023-11-15T20:54:01.142Z,,,,2,0.055893254685579,0.0187125006410995,,false,hh,5755.403000023798,response,0.6262675594380931,0.7441493548650585,-1.15,0.7653350470412937,0.6802589619722493,-0.7477407488684247,high,high,,ISIC_0011779.JPG,,ISIC_0010271.JPG,297,false,hl,keypress(j),0,true,741728.6000000238,741728.6000000238,735956.221,736049.3000000119,735973.197,741639.442,1,40,23,
sequence,flow.Sequence,8_22,2023-11-15T20:54:01.142Z,,,,,,,,,,5755.403000023798,completion,,,,,,,high,high,,,,,,false,,,,true,741728.6999999881,741728.6000000238,735956.221,736049.3000000119,735973.197,741639.442,1,40,,
trial,html.Screen,8_23_0,2023-11-15T20:54:06.885Z,,,,2,-0.0501343550751953,-0.0101991443736165,,true,lh,5832.858000011882,response,-1.1797246542163315,0.7441493548650585,-1.15,0.5881499989296397,0.7302589619722494,-0.7477407488684247,low,high,,ISIC_4232761.JPG,,ISIC_0031741.JPG,23,false,lh,keypress(e),0,true,747472.4000000358,747472.3000000119,741622.825,741728.6999999881,741639.442,747389.395,1,40,24,
sequence,flow.Sequence,8_23,2023-11-15T20:54:06.885Z,,,,,,,,,,5832.858000011882,completion,,,,,,,low,high,,,,,,false,,,,true,747472.5,747472.3000000119,741622.825,741728.6999999881,741639.442,747389.395,1,40,,
trial,html.Screen,8_24_0,2023-11-15T20:54:10.870Z,,,,2,-0.0220026381002083,0.0170756452911772,,true,hh,4067.6049999999814,response,0.6751795295573298,0.7441493548650585,-1.15,0.92354170722443,0.7302589619722494,-0.7477407488684247,high,high,,ISIC_5347806.JPG,,ISIC_0054350.JPG,292,false,hh,keypress(i),0,true,751457.1000000238,751457,747372.512,747472.5,747389.395,751372.893,1,40,25,
sequence,flow.Sequence,8_24,2023-11-15T20:54:10.870Z,,,,,,,,,,4067.6049999999814,completion,,,,,,,high,high,,,,,,false,,,,true,751457.1999999881,751457,747372.512,747472.5,747389.395,751372.893,1,40,,
trial,html.Screen,8_25_0,2023-11-15T20:54:17.830Z,,,,2,-0.066631540328269,-0.005292120470259,,true,ll,7044.007000035723,response,-1.0875460679671178,0.7058458530770348,-1.15,-0.5996566181576706,0.7058458530770348,-0.7477407488684247,low,low,,ISIC_8041550.JPG,,ISIC_5127759.JPG,121,false,ll,keypress(f),0,true,758417.1000000238,758416.9000000358,751356.126,751457.3000000119,751372.893,758339.644,1,40,26,
sequence,flow.Sequence,8_25,2023-11-15T20:54:17.830Z,,,,,,,,,,7044.007000035723,completion,,,,,,,low,low,,,,,,false,,,,true,758417.1999999881,758416.9000000358,751356.126,751457.1999999881,751372.893,758339.644,1,40,,
trial,html.Screen,8_26_0,2023-11-15T20:54:24.406Z,,,,2,-0.024731486864197,-0.0504232274546553,,false,ll,6653.65600001195,response,-0.950239189375527,0.7058458530770348,-1.0999999999999999,-0.5467644375672306,0.7058458530770348,-0.6977407488684246,low,low,,ISIC_4782878.JPG,,ISIC_5599298.JPG,156,false,hl,keypress(j),0,true,764993.5,764993.3000000119,758322.842,758417.3000000119,758339.644,764906.053,1,40,27,
sequence,flow.Sequence,8_26,2023-11-15T20:54:24.406Z,,,,,,,,,,6653.65600001195,completion,,,,,,,low,low,,,,,,false,,,,true,764993.5,764993.3000000119,758322.842,758417.1999999881,758339.644,764906.053,1,40,,
trial,html.Screen,8_27_0,2023-11-15T20:54:28.134Z,,,,2,-0.0501343550751953,-0.0101991443736165,,true,hh,3815.2470000119647,response,0.6337040621751633,0.7058458530770348,-1.15,0.5568521856662413,0.7058458530770348,-0.6977407488684246,high,high,,ISIC_4232761.JPG,,ISIC_0063026.JPG,293,false,hh,keypress(i),0,true,768721.3000000119,768721.3000000119,764889.156,764993.6000000238,764906.053,768639.841,1,40,28,
sequence,flow.Sequence,8_27,2023-11-15T20:54:28.135Z,,,,,,,,,,3815.2470000119647,completion,,,,,,,high,high,,,,,,false,,,,true,768721.4000000358,768721.3000000119,764889.156,764993.5,764906.053,768639.841,1,40,,
trial,html.Screen,8_28_0,2023-11-15T20:54:32.486Z,,,,2,-0.0447960916594447,-0.0451557856659748,,false,hl,4432.559000035748,response,0.7552468233268477,0.7058458530770348,-1.15,-0.71846037114465,0.7058458530770348,-0.6977407488684246,high,low,,ISIC_1379405.JPG,,ISIC_2354070.JPG,109,false,ll,keypress(f),0,true,773072.5,773072.4000000358,768622.599,768721.5,768639.841,772989.384,1,40,29,
sequence,flow.Sequence,8_28,2023-11-15T20:54:32.486Z,,,,,,,,,,4432.559000035748,completion,,,,,,,high,low,,,,,,false,,,,true,773072.6000000238,773072.4000000358,768622.599,768721.4000000358,768639.841,772989.384,1,40,,
trial,html.Screen,8_29_0,2023-11-15T20:54:39.653Z,,,,2,-0.0544036313884697,-0.0564516462775647,,true,ll,7250.815999988117,response,-1.0935738707576264,0.7558458530770349,-1.15,-0.5824858405470491,0.7058458530770348,-0.6477407488684246,low,low,,ISIC_7441957.JPG,,ISIC_0007084.JPG,141,false,ll,keypress(f),0,true,780240.3000000119,780240.1999999881,772972.753,773072.6999999881,772989.384,780156.096,1,40,30,
sequence,flow.Sequence,8_29,2023-11-15T20:54:39.654Z,,,,,,,,,,7250.815999988117,completion,,,,,,,low,low,,,,,,false,,,,true,780240.4000000358,780240.1999999881,772972.753,773072.6999999881,772989.384,780156.096,1,40,,
trial,html.Screen,8_30_0,2023-11-15T20:54:47.366Z,,,,2,0.055893254685579,0.0187125006410995,,true,hh,7796.40399999998,response,0.6446856711428899,0.7558458530770349,-1.15,0.8378294871233868,0.7058458530770348,-0.6477407488684246,high,high,,ISIC_0011779.JPG,,ISIC_0026167.JPG,290,false,hh,keypress(i),0,true,787952.6000000238,787952.5,780139.125,780240.5,780156.096,787872.686,1,40,31,
sequence,flow.Sequence,8_30,2023-11-15T20:54:47.366Z,,,,,,,,,,7796.40399999998,completion,,,,,,,high,high,,,,,,false,,,,true,787952.6999999881,787952.5,780139.125,780240.5,780156.096,787872.686,1,40,,
trial,html.Screen,8_31_0,2023-11-15T20:54:52.694Z,,,,2,-0.066631540328269,-0.005292120470259,,false,hl,5407.914000023855,response,0.5679331408757108,0.7558458530770349,-1.15,-0.7093626936202189,0.6912575791331383,-0.6477407488684246,high,low,,ISIC_8041550.JPG,,ISIC_2852805.JPG,110,false,ll,keypress(f),0,true,793280.6999999881,793280.6000000238,787856.25,787952.6999999881,787872.686,793207.063,1,40,32,
sequence,flow.Sequence,8_31,2023-11-15T20:54:52.694Z,,,,,,,,,,5407.914000023855,completion,,,,,,,high,low,,,,,,false,,,,true,793280.8000000119,793280.6000000238,787856.25,787952.6999999881,787872.686,793207.063,1,40,,
trial,html.Screen,8_32_0,2023-11-15T20:54:57.894Z,,,,2,-0.0283578106329894,0.0088840758711548,,true,ll,5273.337000035797,response,-1.29565751500362,0.8058458530770349,-1.15,-0.4888092336778709,0.6912575791331383,-0.5977407488684245,low,low,,ISIC_0060707.JPG,,ISIC_0002613.JPG,149,false,ll,keypress(f),0,true,798480.5,798480.4000000358,793172.997,793281,793207.063,798406.767,1,40,33,
sequence,flow.Sequence,8_32,2023-11-15T20:54:57.894Z,,,,,,,,,,5273.337000035797,completion,,,,,,,low,low,,,,,,false,,,,true,798480.6000000238,798480.4000000358,793172.997,793280.9000000358,793207.063,798406.767,1,40,,
trial,html.Screen,8_33_0,2023-11-15T20:55:03.174Z,,,,2,-0.0480293506029756,-0.0744454320613987,,true,lh,5354.333000023849,response,-0.6620849170131392,0.8058458530770349,-0.8422333743407454,0.5000117622556115,0.6912575791331383,-0.5977407488684245,low,high,,ISIC_1798471.JPG,,ISIC_5787517.JPG,76,false,lh,keypress(e),0,true,803761.1999999881,803761.1000000238,798372.724,798480.6999999881,798406.767,803672.656,1,40,34,
sequence,flow.Sequence,8_33,2023-11-15T20:55:03.174Z,,,,,,,,,,5354.333000023849,completion,,,,,,,low,high,,,,,,false,,,,true,803761.1999999881,803761.1000000238,798372.724,798480.6999999881,798406.767,803672.656,1,40,,
trial,html.Screen,8_34_0,2023-11-15T20:55:10.102Z,,,,2,0.0418938536494534,-0.0678614270583654,,true,ll,7016.244000035804,response,-0.9721094751150764,0.8058458530770349,-0.8422333743407454,-0.4693911504888752,0.6912575791331383,-0.5977407488684245,low,low,,ISIC_0027573.JPG,,ISIC_5157775.JPG,313,false,ll,keypress(f),0,true,810689,810688.9000000358,803656.293,803761.3000000119,803672.656,810606.121,1,40,35,
sequence,flow.Sequence,8_34,2023-11-15T20:55:10.102Z,,,,,,,,,,7016.244000035804,completion,,,,,,,low,low,,,,,,false,,,,true,810689.1000000238,810688.9000000358,803656.293,803761.3000000119,803672.656,810606.121,1,40,,
trial,html.Screen,8_35_0,2023-11-15T20:55:14.423Z,,,,2,0.0644356642124594,-0.0565130492997401,,true,hh,4403.378999999957,response,0.6522645599841925,0.8058458530770349,-0.7922333743407454,0.6799668378078466,0.6912575791331383,-0.5477407488684245,high,high,,ISIC_7520843.JPG,,ISIC_2843983.JPG,268,false,hh,keypress(i),0,true,815009.6000000238,815009.5,810589.6,810689.1999999881,810606.121,814922.74,1,40,36,
sequence,flow.Sequence,8_35,2023-11-15T20:55:14.423Z,,,,,,,,,,4403.378999999957,completion,,,,,,,high,high,,,,,,false,,,,true,815009.6999999881,815009.5,810589.6,810689.1000000238,810606.121,814922.74,1,40,,
trial,html.Screen,8_36_0,2023-11-15T20:55:21.526Z,,,,2,-0.0715931084231032,0.011427878877272,,true,ll,7190.160000035772,response,-0.7526018364577972,0.8058458530770349,-0.7922333743407454,-0.4749360909963536,0.6161156988960195,-0.5477407488684245,low,low,,ISIC_1470250.JPG,,ISIC_0588855.JPG,350,false,ll,keypress(f),0,true,822113,822112.9000000358,814905.908,815009.6999999881,814922.74,822022.665,1,40,37,
sequence,flow.Sequence,8_36,2023-11-15T20:55:21.526Z,,,,,,,,,,7190.160000035772,completion,,,,,,,low,low,,,,,,false,,,,true,822113.1000000238,822112.9000000358,814905.908,815009.6999999881,814922.74,822022.665,1,40,,
trial,html.Screen,8_37_0,2023-11-15T20:55:26.022Z,,,,2,-0.0524649813000588,0.0155452034299028,,true,hh,4585.635000011884,response,0.8219291608649915,0.8058458530770349,-0.7922333743407454,0.496633025569213,0.6161156988960195,-0.5477407488684245,high,high,,ISIC_0030087.JPG,,ISIC_0024701.JPG,279,false,hh,keypress(i),0,true,826608.4000000358,826608.3000000119,822005.952,822113.1000000238,822022.665,826522.753,1,40,38,
sequence,flow.Sequence,8_37,2023-11-15T20:55:26.022Z,,,,,,,,,,4585.635000011884,completion,,,,,,,high,high,,,,,,false,,,,true,826608.5,826608.3000000119,822005.952,822113.1000000238,822022.665,826522.753,1,40,,
trial,html.Screen,8_38_0,2023-11-15T20:55:35.206Z,,,,2,0.0448994009031783,-0.0708723658092544,,true,hl,9269.547000011895,response,0.5423898596168855,0.6092810932171022,-0.7922333743407454,-0.7118914731084739,0.6161156988960195,-0.5477407488684245,high,low,,ISIC_0025238.JPG,,ISIC_0010476.JPG,171,false,hl,keypress(j),0,true,835792.4000000358,835792.3000000119,826506.198,826608.5,826522.753,835705.995,1,40,39,
sequence,flow.Sequence,8_38,2023-11-15T20:55:35.206Z,,,,,,,,,,9269.547000011895,completion,,,,,,,high,low,,,,,,false,,,,true,835792.5,835792.3000000119,826506.198,826608.5,826522.753,835705.995,1,40,,
trial,html.Screen,8_39_0,2023-11-15T20:55:43.047Z,,,,2,0.0528688218207886,-0.0356788458032396,,true,lh,7927.305000011926,response,-0.989300717252516,0.6092810932171022,-0.7922333743407454,0.7908280206937478,0.6161156988960195,-0.4977407488684245,low,high,,ISIC_5287748.JPG,,ISIC_6416533.JPG,109,false,lh,keypress(e),0,true,843633.4000000358,843633.3000000119,835689.009,835792.5,835705.995,843556.196,1,40,40,
sequence,flow.Sequence,8_39,2023-11-15T20:55:43.047Z,,,,,,,,,,7927.305000011926,completion,,,,,,,low,high,,,,,,false,,,,true,843633.5,843633.3000000119,835689.009,835792.5,835705.995,843556.196,1,40,,
stair_loop,flow.Loop,8,2023-11-15T20:55:43.047Z,,,,,,,,,,258727.14100001194,completion,,,,,,,,,,,,,,false,,,,true,843633.6999999881,843633.3000000119,584889.493,584975.4000000358,584906.159,843556.196,1,40,,
exp_instructions,html.Screen,9,2023-11-15T20:55:49.846Z,,,,,,,,,,6876.2040000357665,response,,,,,,,,,,,,,,,continue,keypress(Space),,,850433,850432.4000000358,843539.308,843633.6999999881,843556.196,850356.32,,,,
trial,html.Screen,10_0_0,2023-11-15T20:55:54.550Z,,,,1,0.0107170641394226,-0.0596294643429623,,true,hh,4780.180000000051,response,0.6320264697327407,0.7432652525380474,-1.0272816810192613,0.5594254740341711,0.6778560309786611,-0.6502407488684246,high,high,,ISIC_0005291.JPG,9,ISIC_0034253.JPG,297,false,hh,keypress(i),0,false,855136.5,855136.5,850339.04,850433,850356.32,855055.98,4,500,1,
break,html.Screen,10_0_1,2023-11-15T20:55:54.550Z,,,,,,,,,,NaN,,,,,,,,high,high,,,,,,false,,,,false,855137,855136.8000000119,,855136.6999999881,,855055.98,4,500,,
break_continue,html.Screen,10_0_2,2023-11-15T20:55:54.551Z,,,,,,,,,,NaN,,,,,,,,high,high,,,,,,false,,,,false,855137.3000000119,855137.1999999881,,855137.1000000238,,855055.98,4,500,,
sequence,flow.Sequence,10_0,2023-11-15T20:55:54.551Z,,,,,,,,,,4780.87999998813,completion,,,,,,,high,high,,,,,,false,,,,false,855137.3000000119,855137.1999999881,850339.04,850433,850356.32,855055.98,4,500,,
trial,html.Screen,10_1_0,2023-11-15T20:56:01.142Z,,,,1,0.0065172941585523,-0.0118857043117315,,false,ll,6673.020000000019,response,-1.0622023082418524,0.7432652525380474,-1.0272816810192613,-0.8319500041964579,0.6778560309786611,-0.6502407488684246,low,low,,ISIC_6119202.JPG,9,ISIC_0056707.JPG,212,false,hl,keypress(j),0,false,861729.1000000238,861729,855039.169,855137.4000000358,855055.98,861639.321,4,500,2,
break,html.Screen,10_1_1,2023-11-15T20:56:01.143Z,,,,,,,,,,NaN,,,,,,,,low,low,,,,,,false,,,,false,861729.4000000358,861729.4000000358,,861729.1999999881,,861639.321,4,500,,
break_continue,html.Screen,10_1_2,2023-11-15T20:56:01.143Z,,,,,,,,,,NaN,,,,,,,,low,low,,,,,,false,,,,false,861729.6999999881,861729.6000000238,,861729.5,,861639.321,4,500,,
sequence,flow.Sequence,10_1,2023-11-15T20:56:01.143Z,,,,,,,,,,6673.6200000238605,completion,,,,,,,low,low,,,,,,false,,,,false,861729.6999999881,861729.6000000238,855039.169,855137.4000000358,855055.98,861639.321,4,500,,
trial,html.Screen,10_2_0,2023-11-15T20:56:05.334Z,,,,1,0.0632965338582772,0.0107588824722911,,false,lh,4281.378999988083,response,-0.937244118871122,0.7432652525380474,-1.0272816810192613,0.6016155161011499,0.6778560309786611,-0.6502407488684246,low,high,,ISIC_1265755.JPG,10,ISIC_0031611.JPG,42,false,ll,keypress(f),0,false,865920.9000000358,865920.6999999881,861622.414,861729.6999999881,861639.321,865839.781,4,500,3,
break,html.Screen,10_2_1,2023-11-15T20:56:05.335Z,,,,,,,,,,NaN,,,,,,,,low,high,,,,,,false,,,,false,865921.1999999881,865921.1000000238,,865920.9000000358,,865839.781,4,500,,
break_continue,html.Screen,10_2_2,2023-11-15T20:56:05.335Z,,,,,,,,,,NaN,,,,,,,,low,high,,,,,,false,,,,false,865921.4000000358,865921.3000000119,,865921.3000000119,,865839.781,4,500,,
sequence,flow.Sequence,10_2,2023-11-15T20:56:05.335Z,,,,,,,,,,4281.979000011925,completion,,,,,,,low,high,,,,,,false,,,,false,865921.5,865921.3000000119,861622.414,861729.6999999881,861639.321,865839.781,4,500,,
trial,html.Screen,10_3_0,2023-11-15T20:56:10.231Z,,,,1,-0.0462522625051681,-0.0088419594888635,,true,ll,4977.319000023883,response,-0.9473579617457568,0.7432652525380474,-1.0272816810192613,-0.7787784704155521,0.6778560309786611,-0.6502407488684246,low,low,,ISIC_1945381.JPG,8,ISIC_0012037.JPG,212,false,ll,keypress(f),0,false,870817.3000000119,870817.1000000238,865823.067,865921.6000000238,865839.781,870739.339,4,500,4,
break,html.Screen,10_3_1,2023-11-15T20:56:10.231Z,,,,,,,,,,NaN,,,,,,,,low,low,,,,,,false,,,,false,870817.5,870817.5,,870817.4000000358,,870739.339,4,500,,
break_continue,html.Screen,10_3_2,2023-11-15T20:56:10.231Z,,,,,,,,,,NaN,,,,,,,,low,low,,,,,,false,,,,false,870817.8000000119,870817.6999999881,,870817.6999999881,,870739.339,4,500,,
sequence,flow.Sequence,10_3,2023-11-15T20:56:10.231Z,,,,,,,,,,4977.91899998812,completion,,,,,,,low,low,,,,,,false,,,,false,870817.8000000119,870817.6999999881,865823.067,865921.5,865839.781,870739.339,4,500,,
trial,html.Screen,10_4_0,2023-11-15T20:56:15.510Z,,,,1,-0.0633291412406864,0.0446580444004686,,true,hh,5357.160999999964,response,0.6297449622724133,0.7432652525380474,-1.0272816810192613,0.6871716167384573,0.6778560309786611,-0.6502407488684246,high,high,,ISIC_0010718.JPG,9,ISIC_0011700.JPG,297,false,hh,keypress(i),0,false,876096.6000000238,876096.5,870722.96,870817.9000000358,870739.339,876005.98,4,500,5,
break,html.Screen,10_4_1,2023-11-15T20:56:15.510Z,,,,,,,,,,NaN,,,,,,,,high,high,,,,,,false,,,,false,876096.9000000358,876096.9000000358,,876096.6999999881,,876005.98,4,500,,
break_continue,html.Screen,10_4_2,2023-11-15T20:56:15.511Z,,,,,,,,,,NaN,,,,,,,,high,high,,,,,,false,,,,false,876097.1999999881,876097.1000000238,,876097,,876005.98,4,500,,
sequence,flow.Sequence,10_4,2023-11-15T20:56:15.511Z,,,,,,,,,,5357.7610000238055,completion,,,,,,,high,high,,,,,,false,,,,false,876097.1999999881,876097.1000000238,870722.96,870817.9000000358,870739.339,876005.98,4,500,,
trial,html.Screen,10_5_0,2023-11-15T20:56:22.326Z,,,,1,-0.0044063257337227,-0.0172548282859886,,true,ll,6907.020000000019,response,-1.080079406135048,0.7432652525380474,-1.0272816810192613,-0.5494267626379239,0.6778560309786611,-0.6502407488684246,low,low,,ISIC_7413786.JPG,9,ISIC_0003201.JPG,212,false,ll,keypress(f),0,false,882913.1000000238,882913,875989.756,876097.3000000119,876005.98,882822.626,4,500,6,
break,html.Screen,10_5_1,2023-11-15T20:56:22.327Z,,,,,,,,,,NaN,,,,,,,,low,low,,,,,,false,,,,false,882913.3000000119,882913.3000000119,,882913.1999999881,,882822.626,4,500,,
break_continue,html.Screen,10_5_2,2023-11-15T20:56:22.327Z,,,,,,,,,,NaN,,,,,,,,low,low,,,,,,false,,,,false,882913.6000000238,882913.5,,882913.4000000358,,882822.626,4,500,,
sequence,flow.Sequence,10_5,2023-11-15T20:56:22.327Z,,,,,,,,,,6907.520000000019,completion,,,,,,,low,low,,,,,,false,,,,false,882913.6999999881,882913.5,875989.756,876097.1999999881,876005.98,882822.626,4,500,,
trial,html.Screen,10_6_0,2023-11-15T20:56:28.663Z,,,,1,-0.0703653376600499,0.0206740478999942,,true,ll,6426.474000023794,response,-1.0036806409150678,0.7432652525380474,-1.0272816810192613,-0.5352348146057497,0.6778560309786611,-0.6502407488684246,low,low,,ISIC_4899386.JPG,9,ISIC_0012450.JPG,212,false,ll,keypress(f),0,false,889249.1000000238,889249.1000000238,882806.158,882913.6999999881,882822.626,889173.099,4,500,7,
break,html.Screen,10_6_1,2023-11-15T20:56:28.663Z,,,,,,,,,,NaN,,,,,,,,low,low,,,,,,false,,,,false,889249.4000000358,889249.4000000358,,889249.3000000119,,889173.099,4,500,,
break_continue,html.Screen,10_6_2,2023-11-15T20:56:28.663Z,,,,,,,,,,NaN,,,,,,,,low,low,,,,,,false,,,,false,889249.6999999881,889249.6000000238,,889249.6000000238,,889173.099,4,500,,
sequence,flow.Sequence,10_6,2023-11-15T20:56:28.663Z,,,,,,,,,,6426.974000023794,completion,,,,,,,low,low,,,,,,false,,,,false,889249.6999999881,889249.6000000238,882806.158,882913.6999999881,882822.626,889173.099,4,500,,
trial,html.Screen,10_7_0,2023-11-15T20:56:34.103Z,,,,1,0.0632965338582772,0.0107588824722911,,false,hl,5515.801000035717,response,0.8242627447470376,0.7432652525380474,-1.0272816810192613,-0.6500864181433015,0.6778560309786611,-0.6502407488684246,high,low,,ISIC_1265755.JPG,10,ISIC_0014186.JPG,112,false,ll,keypress(f),0,false,894689.1000000238,894688.9000000358,889156.302,889249.6999999881,889173.099,894606.164,4,500,8,
break,html.Screen,10_7_1,2023-11-15T20:56:34.103Z,,,,,,,,,,NaN,,,,,,,,high,low,,,,,,false,,,,false,894689.4000000358,894689.3000000119,,894689.1999999881,,894606.164,4,500,,
break_continue,html.Screen,10_7_2,2023-11-15T20:56:34.103Z,,,,,,,,,,NaN,,,,,,,,high,low,,,,,,false,,,,false,894689.6999999881,894689.5,,894689.4000000358,,894606.164,4,500,,
sequence,flow.Sequence,10_7,2023-11-15T20:56:34.103Z,,,,,,,,,,5516.400999999954,completion,,,,,,,high,low,,,,,,false,,,,false,894689.6999999881,894689.5,889156.302,889249.6999999881,889173.099,894606.164,4,500,,
trial,html.Screen,10_8_0,2023-11-15T20:56:38.838Z,,,,1,0.0074667911845194,-0.018500200317654,,true,ll,4818.436000023852,response,-0.9961674882214306,0.7432652525380474,-1.0272816810192613,-0.7490338425009774,0.6778560309786611,-0.6502407488684246,low,low,,ISIC_0058723.JPG,10,ISIC_0624779.JPG,212,false,ll,keypress(f),0,false,899424.6999999881,899424.6000000238,894589.402,894689.8000000119,894606.164,899339.472,4,500,9,
break,html.Screen,10_8_1,2023-11-15T20:56:38.838Z,,,,,,,,,,NaN,,,,,,,,low,low,,,,,,false,,,,false,899425,899424.9000000358,,899424.8000000119,,899339.472,4,500,,
break_continue,html.Screen,10_8_2,2023-11-15T20:56:38.839Z,,,,,,,,,,NaN,,,,,,,,low,low,,,,,,false,,,,false,899425.1999999881,899425.1999999881,,899425,,899339.472,4,500,,
sequence,flow.Sequence,10_8,2023-11-15T20:56:38.839Z,,,,,,,,,,4819.035999988089,completion,,,,,,,low,low,,,,,,false,,,,false,899425.1999999881,899425.1999999881,894589.402,894689.8000000119,894606.164,899339.472,4,500,,
trial,html.Screen,10_9_0,2023-11-15T20:56:44.214Z,,,,1,0.0273175221875807,0.0515126441328492,,false,hh,5461.227999988128,response,0.7951271207785265,0.7432652525380474,-1.0272816810192613,0.7447019313943737,0.6778560309786611,-0.6502407488684246,high,high,,ISIC_0064034.JPG,9,ISIC_8325260.JPG,297,false,hl,keypress(j),0,false,904800.8000000119,904800.6999999881,899322.865,899425.3000000119,899339.472,904722.845,4,500,10,
break,html.Screen,10_9_1,2023-11-15T20:56:44.215Z,,,,,,,,,,NaN,,,,,,,,high,high,,,,,,false,,,,false,904801.1000000238,904801,,904800.9000000358,,904722.845,4,500,,
break_continue,html.Screen,10_9_2,2023-11-15T20:56:44.215Z,,,,,,,,,,NaN,,,,,,,,high,high,,,,,,false,,,,false,904801.3000000119,904801.1000000238,,904801.1000000238,,904722.845,4,500,,
sequence,flow.Sequence,10_9,2023-11-15T20:56:44.215Z,,,,,,,,,,5461.628000023891,completion,,,,,,,high,high,,,,,,false,,,,false,904801.3000000119,904801.1000000238,899322.865,899425.3000000119,899339.472,904722.845,4,500,,
trial,html.Screen,10_10_0,2023-11-15T20:56:48.231Z,,,,1,-0.0501343550751953,-0.0101991443736165,,false,hl,4094.25500002387,response,0.7612472458680769,0.7432652525380474,-1.0272816810192613,-0.729960233427452,0.6778560309786611,-0.6502407488684246,high,low,,ISIC_4232761.JPG,9,ISIC_5307210.JPG,112,false,hh,keypress(i),0,false,908817.1999999881,908817.1000000238,904706.401,904801.4000000358,904722.845,908739.756,4,500,11,
break,html.Screen,10_10_1,2023-11-15T20:56:48.231Z,,,,,,,,,,NaN,,,,,,,,high,low,,,,,,false,,,,false,908817.5,908817.4000000358,,908817.4000000358,,908739.756,4,500,,
break_continue,html.Screen,10_10_2,2023-11-15T20:56:48.231Z,,,,,,,,,,NaN,,,,,,,,high,low,,,,,,false,,,,false,908817.6999999881,908817.6000000238,,908817.5,,908739.756,4,500,,
sequence,flow.Sequence,10_10,2023-11-15T20:56:48.231Z,,,,,,,,,,4094.75500002387,completion,,,,,,,high,low,,,,,,false,,,,false,908817.8000000119,908817.6000000238,904706.401,904801.4000000358,904722.845,908739.756,4,500,,
trial,html.Screen,10_11_0,2023-11-15T20:56:51.591Z,,,,1,-0.0727065082131878,-0.0601627969482033,,false,hh,3437.243999999948,response,0.7525280650246937,0.7432652525380474,-1.0272816810192613,0.5871566151554108,0.6778560309786611,-0.6502407488684246,high,high,,ISIC_2245069.JPG,9,ISIC_0031397.JPG,297,false,hl,keypress(j),0,false,912177.1000000238,912177,908722.974,908817.8000000119,908739.756,912089.423,4,500,12,
break,html.Screen,10_11_1,2023-11-15T20:56:51.591Z,,,,,,,,,,NaN,,,,,,,,high,high,,,,,,false,,,,false,912177.4000000358,912177.3000000119,,912177.1000000238,,912089.423,4,500,,
break_continue,html.Screen,10_11_2,2023-11-15T20:56:51.591Z,,,,,,,,,,NaN,,,,,,,,high,high,,,,,,false,,,,false,912177.6000000238,912177.6000000238,,912177.4000000358,,912089.423,4,500,,
sequence,flow.Sequence,10_11,2023-11-15T20:56:51.591Z,,,,,,,,,,3437.8440000237897,completion,,,,,,,high,high,,,,,,false,,,,false,912177.6000000238,912177.6000000238,908722.974,908817.8000000119,908739.756,912089.423,4,500,,
trial,html.Screen,10_12_0,2023-11-15T20:57:01.942Z,,,,1,-0.0643519619373155,-0.0340638715725122,,false,lh,10438.776999988127,response,-0.8493817247965978,0.7432652525380474,-1.0272816810192613,0.6545324227286122,0.6778560309786611,-0.6502407488684246,low,high,,ISIC_0066401.JPG,9,ISIC_0030219.JPG,42,false,ll,keypress(f),0,false,922528.4000000358,922528.1999999881,912072.991,912177.6999999881,912089.423,922439.322,4,500,13,
break,html.Screen,10_12_1,2023-11-15T20:57:01.942Z,,,,,,,,,,NaN,,,,,,,,low,high,,,,,,false,,,,false,922528.6999999881,922528.6000000238,,922528.5,,922439.322,4,500,,
break_continue,html.Screen,10_12_2,2023-11-15T20:57:01.942Z,,,,,,,,,,NaN,,,,,,,,low,high,,,,,,false,,,,false,922528.9000000358,922528.8000000119,,922528.6999999881,,922439.322,4,500,,
sequence,flow.Sequence,10_12,2023-11-15T20:57:01.942Z,,,,,,,,,,10439.37700001197,completion,,,,,,,low,high,,,,,,false,,,,false,922528.9000000358,922528.8000000119,912072.991,912177.6000000238,912089.423,922439.322,4,500,,
trial,html.Screen,10_13_0,2023-11-15T20:57:06.583Z,,,,1,-0.0204987932325723,0.0619049476763945,,false,hl,4729.778000023798,response,0.8264866435807133,0.7432652525380474,-1.0272816810192613,-0.5322642025342497,0.6778560309786611,-0.6502407488684246,high,low,,ISIC_0887792.JPG,9,ISIC_0770920.JPG,112,false,hh,keypress(i),0,false,927169.1999999881,927169.1000000238,922423.07,922529,922439.322,927089.737,4,500,14,
break,html.Screen,10_13_1,2023-11-15T20:57:06.583Z,,,,,,,,,,NaN,,,,,,,,high,low,,,,,,false,,,,false,927169.5,927169.4000000358,,927169.3000000119,,927089.737,4,500,,
break_continue,html.Screen,10_13_2,2023-11-15T20:57:06.583Z,,,,,,,,,,NaN,,,,,,,,high,low,,,,,,false,,,,false,927169.6999999881,927169.6999999881,,927169.6000000238,,927089.737,4,500,,
sequence,flow.Sequence,10_13,2023-11-15T20:57:06.583Z,,,,,,,,,,4730.377999988035,completion,,,,,,,high,low,,,,,,false,,,,false,927169.6999999881,927169.6999999881,922423.07,922528.9000000358,922439.322,927089.737,4,500,,
trial,html.Screen,10_14_0,2023-11-15T20:57:12.151Z,,,,1,-0.0700576547090477,0.0026956749740767,,false,ll,5647.363000023877,response,-0.9877933303057684,0.7432652525380474,-1.0272816810192613,-0.6499435419901544,0.6778560309786611,-0.6502407488684246,low,low,,ISIC_7212271.JPG,9,ISIC_5422432.JPG,212,false,lh,keypress(e),0,false,932737.1999999881,932737.1000000238,927072.908,927169.9000000358,927089.737,932656.165,4,500,15,
break,html.Screen,10_14_1,2023-11-15T20:57:12.151Z,,,,,,,,,,NaN,,,,,,,,low,low,,,,,,false,,,,false,932737.5,932737.5,,932737.3000000119,,932656.165,4,500,,
break_continue,html.Screen,10_14_2,2023-11-15T20:57:12.151Z,,,,,,,,,,NaN,,,,,,,,low,low,,,,,,false,,,,false,932737.8000000119,932737.6000000238,,932737.6000000238,,932656.165,4,500,,
sequence,flow.Sequence,10_14,2023-11-15T20:57:12.151Z,,,,,,,,,,5647.863000023877,completion,,,,,,,low,low,,,,,,false,,,,false,932737.8000000119,932737.6000000238,927072.908,927169.8000000119,927089.737,932656.165,4,500,,
trial,html.Screen,10_15_0,2023-11-15T20:57:20.918Z,,,,1,0.0199950873045219,0.0172506388509166,,true,ll,8848.635000011884,response,-1.179014525862934,0.7432652525380474,-1.0272816810192613,-0.5316169259379484,0.6778560309786611,-0.6502407488684246,low,low,,ISIC_0029906.JPG,9,ISIC_0015226.JPG,212,false,ll,keypress(f),0,false,941505,941504.8000000119,932639.281,932737.8000000119,932656.165,941422.719,4,500,16,
break,html.Screen,10_15_1,2023-11-15T20:57:20.919Z,,,,,,,,,,NaN,,,,,,,,low,low,,,,,,false,,,,false,941505.3000000119,941505.1999999881,,941505,,941422.719,4,500,,
break_continue,html.Screen,10_15_2,2023-11-15T20:57:20.919Z,,,,,,,,,,NaN,,,,,,,,low,low,,,,,,false,,,,false,941505.5,941505.4000000358,,941505.3000000119,,941422.719,4,500,,
sequence,flow.Sequence,10_15,2023-11-15T20:57:20.919Z,,,,,,,,,,8849.235000035726,completion,,,,,,,low,low,,,,,,false,,,,false,941505.6000000238,941505.4000000358,932639.281,932737.8000000119,932656.165,941422.719,4,500,,
trial,html.Screen,10_16_0,2023-11-15T20:57:29.638Z,,,,1,-0.0249297455748133,0.055986418955019,,false,lh,8801.8810000238,response,-0.8493817247965978,0.7432652525380474,-1.0272816810192613,0.6545324227286122,0.6778560309786611,-0.6502407488684246,low,high,,ISIC_3900049.JPG,9,ISIC_0030219.JPG,42,false,ll,keypress(f),0,false,950224.6999999881,950224.6000000238,941406.188,941505.6999999881,941422.719,950139.427,4,500,17,
break,html.Screen,10_16_1,2023-11-15T20:57:29.639Z,,,,,,,,,,NaN,,,,,,,,low,high,,,,,,false,,,,false,950225.1000000238,950224.9000000358,,950224.8000000119,,950139.427,4,500,,
break_continue,html.Screen,10_16_2,2023-11-15T20:57:29.639Z,,,,,,,,,,NaN,,,,,,,,low,high,,,,,,false,,,,false,950225.3000000119,950225.1999999881,,950225.1000000238,,950139.427,4,500,,
sequence,flow.Sequence,10_16,2023-11-15T20:57:29.639Z,,,,,,,,,,8802.480999988038,completion,,,,,,,low,high,,,,,,false,,,,false,950225.4000000358,950225.1999999881,941406.188,941505.6999999881,941422.719,950139.427,4,500,,
trial,html.Screen,10_17_0,2023-11-15T20:57:34.679Z,,,,1,0.0603356922898045,0.0630785445312754,,false,hl,5125.373000011896,response,0.701391706020652,0.7432652525380474,-1.0272816810192613,-0.5451848624982515,0.6778560309786611,-0.6502407488684246,high,low,,ISIC_9996128.JPG,9,ISIC_5736979.JPG,112,false,ll,keypress(f),0,false,955265,955264.8000000119,950122.561,950225.4000000358,950139.427,955205.928,4,500,18,
break,html.Screen,10_17_1,2023-11-15T20:57:34.679Z,,,,,,,,,,NaN,,,,,,,,high,low,,,,,,false,,,,false,955265.1999999881,955265.1999999881,,955265,,955205.928,4,500,,
break_continue,html.Screen,10_17_2,2023-11-15T20:57:34.679Z,,,,,,,,,,NaN,,,,,,,,high,low,,,,,,false,,,,false,955265.5,955265.5,,955265.3000000119,,955205.928,4,500,,
sequence,flow.Sequence,10_17,2023-11-15T20:57:34.679Z,,,,,,,,,,5126.072999999975,completion,,,,,,,high,low,,,,,,false,,,,false,955265.6000000238,955265.5,950122.561,950225.4000000358,950139.427,955205.928,4,500,,
trial,html.Screen,10_18_0,2023-11-15T20:57:42.039Z,,,,1,-0.0367706518941078,0.0161069838272154,,false,hl,7418.972000035807,response,0.6247480605482788,0.7432652525380474,-1.0272816810192613,-0.7543386176997238,0.6778560309786611,-0.6502407488684246,high,low,,ISIC_0033419.JPG,9,ISIC_5776158.JPG,112,false,ll,keypress(f),0,false,962624.9000000358,962624.9000000358,955189.328,955265.6999999881,955205.928,962539.272,4,500,19,
break,html.Screen,10_18_1,2023-11-15T20:57:42.039Z,,,,,,,,,,NaN,,,,,,,,high,low,,,,,,false,,,,false,962625.1999999881,962625.1999999881,,962625,,962539.272,4,500,,
break_continue,html.Screen,10_18_2,2023-11-15T20:57:42.039Z,,,,,,,,,,NaN,,,,,,,,high,low,,,,,,false,,,,false,962625.5,962625.4000000358,,962625.3000000119,,962539.272,4,500,,
sequence,flow.Sequence,10_18,2023-11-15T20:57:42.039Z,,,,,,,,,,7419.472000035807,completion,,,,,,,high,low,,,,,,false,,,,false,962625.6000000238,962625.4000000358,955189.328,955265.6000000238,955205.928,962539.272,4,500,,
trial,html.Screen,10_19_0,2023-11-15T20:57:46.567Z,,,,1,0.0473541545202326,-0.0294076954053606,,true,hh,4613.528000011924,response,0.661103230391728,0.7432652525380474,-1.0272816810192613,0.5949590719462826,0.6778560309786611,-0.6502407488684246,high,high,,ISIC_0034065.JPG,9,ISIC_0070313.JPG,297,false,hh,keypress(i),0,false,967152.9000000358,967152.8000000119,962522.509,962625.6999999881,962539.272,967072.774,4,500,20,
break,html.Screen,10_19_1,2023-11-15T20:57:46.567Z,,,,,,,,,,NaN,,,,,,,,high,high,,,,,,false,,,,false,967153.3000000119,967153.1999999881,,967153,,967072.774,4,500,,
break_continue,html.Screen,10_19_2,2023-11-15T20:57:46.567Z,,,,,,,,,,NaN,,,,,,,,high,high,,,,,,false,,,,false,967153.6000000238,967153.5,,967153.3000000119,,967072.774,4,500,,
sequence,flow.Sequence,10_19,2023-11-15T20:57:46.567Z,,,,,,,,,,4614.228000000003,completion,,,,,,,high,high,,,,,,false,,,,false,967153.6000000238,967153.5,962522.509,962625.6000000238,962539.272,967072.774,4,500,,
trial,html.Screen,10_20_0,2023-11-15T20:57:50.390Z,,,,1,0.0145962222125655,0.0525495878509009,,true,ll,3903.526000011945,response,-1.0792571418874513,0.7432652525380474,-1.0272816810192613,-0.6719969524833546,0.6778560309786611,-0.6502407488684246,low,low,,ISIC_4248013.JPG,9,ISIC_0013688.JPG,212,false,ll,keypress(f),0,false,970976.6000000238,970976.3000000119,967055.879,967153.6999999881,967072.774,970889.269,4,500,21,
break,html.Screen,10_20_1,2023-11-15T20:57:50.391Z,,,,,,,,,,NaN,,,,,,,,low,low,,,,,,false,,,,false,970976.8000000119,970976.6999999881,,970976.6000000238,,970889.269,4,500,,
break_continue,html.Screen,10_20_2,2023-11-15T20:57:50.391Z,,,,,,,,,,NaN,,,,,,,,low,low,,,,,,false,,,,false,970977.1000000238,970977,,970976.9000000358,,970889.269,4,500,,
sequence,flow.Sequence,10_20,2023-11-15T20:57:50.391Z,,,,,,,,,,3904.226000000024,completion,,,,,,,low,low,,,,,,false,,,,false,970977.1000000238,970977,967055.879,967153.6000000238,967072.774,970889.269,4,500,,
trial,html.Screen,10_21_0,2023-11-15T20:57:54.517Z,,,,1,-0.0715931084231032,0.011427878877272,,false,lh,4214.131000035792,response,-0.84290786638064,0.7432652525380474,-1.0272816810192613,0.7332521189371746,0.6778560309786611,-0.6502407488684246,low,high,,ISIC_1470250.JPG,9,ISIC_4708642.JPG,42,false,hl,keypress(j),0,false,975103.5,975103.4000000358,970872.468,970977.1999999881,970889.269,975022.558,4,500,22,
break,html.Screen,10_21_1,2023-11-15T20:57:54.518Z,,,,,,,,,,NaN,,,,,,,,low,high,,,,,,false,,,,false,975103.9000000358,975103.8000000119,,975103.6000000238,,975022.558,4,500,,
break_continue,html.Screen,10_21_2,2023-11-15T20:57:54.518Z,,,,,,,,,,NaN,,,,,,,,low,high,,,,,,false,,,,false,975104.1000000238,975104,,975103.9000000358,,975022.558,4,500,,
sequence,flow.Sequence,10_21,2023-11-15T20:57:54.518Z,,,,,,,,,,4214.731000000029,completion,,,,,,,low,high,,,,,,false,,,,false,975104.1999999881,975104,970872.468,970977.1999999881,970889.269,975022.558,4,500,,
trial,html.Screen,10_22_0,2023-11-15T20:57:59.029Z,,,,1,0.0395587463147856,-0.0645068093068572,,true,ll,4592.842000035802,response,-0.8304226279839966,0.7432652525380474,-1.0272816810192613,-0.4556174378813781,0.6778560309786611,-0.6502407488684246,low,low,,ISIC_0010807.JPG,10,ISIC_0465476.JPG,212,false,ll,keypress(f),0,false,979615.5,979615.4000000358,975005.787,975104.1999999881,975022.558,979539.219,4,500,23,
break,html.Screen,10_22_1,2023-11-15T20:57:59.030Z,,,,,,,,,,NaN,,,,,,,,low,low,,,,,,false,,,,false,979615.8000000119,979615.6999999881,,979615.6000000238,,979539.219,4,500,,
break_continue,html.Screen,10_22_2,2023-11-15T20:57:59.030Z,,,,,,,,,,NaN,,,,,,,,low,low,,,,,,false,,,,false,979616.1000000238,979616,,979615.9000000358,,979539.219,4,500,,
sequence,flow.Sequence,10_22,2023-11-15T20:57:59.030Z,,,,,,,,,,4593.442000000039,completion,,,,,,,low,low,,,,,,false,,,,false,979616.1999999881,979616,975005.787,975104.1999999881,975022.558,979539.219,4,500,,
trial,html.Screen,10_23_0,2023-11-15T20:58:03.175Z,,,,1,0.055893254685579,0.0187125006410995,,false,lh,4221.58100001188,response,-1.166343097509157,0.7432652525380474,-1.0272816810192613,0.4853139037825953,0.6778560309786611,-0.6502407488684246,low,high,,ISIC_0011779.JPG,10,ISIC_0030342.JPG,42,false,ll,keypress(f),0,false,983761,983760.8000000119,979522.456,979616.1999999881,979539.219,983672.567,4,500,24,
break,html.Screen,10_23_1,2023-11-15T20:58:03.175Z,,,,,,,,,,NaN,,,,,,,,low,high,,,,,,false,,,,false,983761.1999999881,983761.1999999881,,983761,,983672.567,4,500,,
break_continue,html.Screen,10_23_2,2023-11-15T20:58:03.175Z,,,,,,,,,,NaN,,,,,,,,low,high,,,,,,false,,,,false,983761.4000000358,983761.3000000119,,983761.1999999881,,983672.567,4,500,,
sequence,flow.Sequence,10_23,2023-11-15T20:58:03.175Z,,,,,,,,,,4222.08100001188,completion,,,,,,,low,high,,,,,,false,,,,false,983761.5,983761.3000000119,979522.456,979616.1999999881,979539.219,983672.567,4,500,,
trial,html.Screen,10_24_0,2023-11-15T20:58:07.335Z,,,,1,0.0080817964357627,-0.0444435264307931,,true,ll,4248.432999999961,response,-1.021981961304436,0.7432652525380474,-1.0272816810192613,-0.7957634739543782,0.6778560309786611,-0.6502407488684246,low,low,,ISIC_0013165.JPG,9,ISIC_0006327.JPG,212,false,ll,keypress(f),0,false,987921,987921,983655.72,983761.6000000238,983672.567,987839.379,4,500,25,
break,html.Screen,10_24_1,2023-11-15T20:58:07.335Z,,,,,,,,,,NaN,,,,,,,,low,low,,,,,,false,,,,false,987921.3000000119,987921.1999999881,,987921.1000000238,,987839.379,4,500,,
break_continue,html.Screen,10_24_2,2023-11-15T20:58:07.335Z,,,,,,,,,,NaN,,,,,,,,low,low,,,,,,false,,,,false,987921.5,987921.5,,987921.3000000119,,987839.379,4,500,,
sequence,flow.Sequence,10_24,2023-11-15T20:58:07.335Z,,,,,,,,,,4248.932999999961,completion,,,,,,,low,low,,,,,,false,,,,false,987921.6000000238,987921.5,983655.72,983761.5,983672.567,987839.379,4,500,,
trial,html.Screen,10_25_0,2023-11-15T20:58:12.615Z,,,,1,0.0497314815986203,-0.0303374618795786,,false,lh,5361.421000011964,response,-0.857009486589637,0.7432652525380474,-1.0272816810192613,0.4795531332231282,0.6778560309786611,-0.6502407488684246,low,high,,ISIC_6023504.JPG,8,ISIC_0066314.JPG,42,false,hl,keypress(j),0,false,993200.8000000119,993200.8000000119,987822.442,987921.6000000238,987839.379,993123.034,4,500,26,
break,html.Screen,10_25_1,2023-11-15T20:58:12.615Z,,,,,,,,,,NaN,,,,,,,,low,high,,,,,,false,,,,false,993201.1999999881,993201.1000000238,,993201,,993123.034,4,500,,
break_continue,html.Screen,10_25_2,2023-11-15T20:58:12.615Z,,,,,,,,,,NaN,,,,,,,,low,high,,,,,,false,,,,false,993201.4000000358,993201.3000000119,,993201.1999999881,,993123.034,4,500,,
sequence,flow.Sequence,10_25,2023-11-15T20:58:12.615Z,,,,,,,,,,5361.921000011964,completion,,,,,,,low,high,,,,,,false,,,,false,993201.4000000358,993201.3000000119,987822.442,987921.6000000238,987839.379,993123.034,4,500,,
trial,html.Screen,10_26_0,2023-11-15T20:58:16.999Z,,,,1,0.0388181790775959,-0.0049623405709465,,true,hh,4461.866000035778,response,0.7191040832140663,0.7432652525380474,-1.0272816810192613,0.5138230680472102,0.6778560309786611,-0.6502407488684246,high,high,,ISIC_0061880.JPG,8,ISIC_0070215.JPG,297,false,hh,keypress(i),0,false,997585,997584.9000000358,993106.209,993201.4000000358,993123.034,997506.364,4,500,27,
break,html.Screen,10_26_1,2023-11-15T20:58:16.999Z,,,,,,,,,,NaN,,,,,,,,high,high,,,,,,false,,,,false,997585.3000000119,997585.1999999881,,997585,,997506.364,4,500,,
break_continue,html.Screen,10_26_2,2023-11-15T20:58:16.999Z,,,,,,,,,,NaN,,,,,,,,high,high,,,,,,false,,,,false,997585.5,997585.5,,997585.3000000119,,997506.364,4,500,,
sequence,flow.Sequence,10_26,2023-11-15T20:58:16.999Z,,,,,,,,,,4462.466000000015,completion,,,,,,,high,high,,,,,,false,,,,false,997585.5,997585.5,993106.209,993201.4000000358,993123.034,997506.364,4,500,,
trial,html.Screen,10_27_0,2023-11-15T20:58:20.183Z,,,,1,0.0495531443078245,0.0310660434153916,,false,lh,3262.636000000057,response,-1.166343097509157,0.7432652525380474,-1.0272816810192613,0.4853139037825953,0.6778560309786611,-0.6502407488684246,low,high,,ISIC_0013719.JPG,9,ISIC_0030342.JPG,42,false,ll,keypress(f),0,false,1000769,1000769,997489.574,997585.5,997506.364,1000689.461,4,500,28,
break,html.Screen,10_27_1,2023-11-15T20:58:20.183Z,,,,,,,,,,NaN,,,,,,,,low,high,,,,,,false,,,,false,1000769.4000000358,1000769.3000000119,,1000769.1999999881,,1000689.461,4,500,,
break_continue,html.Screen,10_27_2,2023-11-15T20:58:20.183Z,,,,,,,,,,NaN,,,,,,,,low,high,,,,,,false,,,,false,1000769.5,1000769.5,,1000769.4000000358,,1000689.461,4,500,,
sequence,flow.Sequence,10_27,2023-11-15T20:58:20.183Z,,,,,,,,,,3263.136000000057,completion,,,,,,,low,high,,,,,,false,,,,false,1000769.6000000238,1000769.5,997489.574,997585.5,997506.364,1000689.461,4,500,,
trial,html.Screen,10_28_0,2023-11-15T20:58:29.783Z,,,,1,-0.0076984477620101,-0.0069458408496562,,false,ll,9679.53899999999,response,-0.9854871691490024,0.7432652525380474,-1.0272816810192613,-0.4880944080664786,0.6778560309786611,-0.6502407488684246,low,low,,ISIC_0000434.JPG,9,ISIC_6828892.JPG,212,false,hl,keypress(j),0,false,1010369.1999999881,1010369,1000672.691,1000769.6000000238,1000689.461,1010289.693,4,500,29,
break,html.Screen,10_28_1,2023-11-15T20:58:29.783Z,,,,,,,,,,NaN,,,,,,,,low,low,,,,,,false,,,,false,1010369.5,1010369.4000000358,,1010369.1999999881,,1010289.693,4,500,,
break_continue,html.Screen,10_28_2,2023-11-15T20:58:29.784Z,,,,,,,,,,NaN,,,,,,,,low,low,,,,,,false,,,,false,1010369.6999999881,1010369.6000000238,,1010369.6000000238,,1010289.693,4,500,,
sequence,flow.Sequence,10_28,2023-11-15T20:58:29.784Z,,,,,,,,,,9680.139000023832,completion,,,,,,,low,low,,,,,,false,,,,false,1010369.6999999881,1010369.6000000238,1000672.691,1000769.6000000238,1000689.461,1010289.693,4,500,,
trial,html.Screen,10_29_0,2023-11-15T20:58:35.511Z,,,,1,-0.0257631352671967,-0.0202837002774028,,false,hl,5807.407000023872,response,0.7662878759344443,0.7432652525380474,-1.0272816810192613,-0.6102205089871772,0.6778560309786611,-0.6502407488684246,high,low,,ISIC_0032797.JPG,10,ISIC_9094080.JPG,112,false,ll,keypress(f),0,false,1016097.1999999881,1016097.1000000238,1010272.451,1010369.8000000119,1010289.693,1016022.979,4,500,30,
break,html.Screen,10_29_1,2023-11-15T20:58:35.511Z,,,,,,,,,,NaN,,,,,,,,high,low,,,,,,false,,,,false,1016097.6000000238,1016097.4000000358,,1016097.3000000119,,1016022.979,4,500,,
break_continue,html.Screen,10_29_2,2023-11-15T20:58:35.512Z,,,,,,,,,,NaN,,,,,,,,high,low,,,,,,false,,,,false,1016097.8000000119,1016097.6999999881,,1016097.6000000238,,1016022.979,4,500,,
sequence,flow.Sequence,10_29,2023-11-15T20:58:35.512Z,,,,,,,,,,5808.006999988109,completion,,,,,,,high,low,,,,,,false,,,,false,1016097.9000000358,1016097.6999999881,1010272.451,1010369.8000000119,1010289.693,1016022.979,4,500,,
trial,html.Screen,10_30_0,2023-11-15T20:58:38.535Z,,,,1,-0.0220026381002083,0.0170756452911772,,true,hh,3098.0209999999497,response,0.5789081217295278,0.7432652525380474,-1.0272816810192613,0.8574556100206551,0.6778560309786611,-0.6502407488684246,high,high,,ISIC_5347806.JPG,9,ISIC_0056739.JPG,297,false,hh,keypress(i),0,false,1019121.1000000238,1019121,1015989.215,1016097.9000000358,1016022.979,1019039.441,4,500,31,
break,html.Screen,10_30_1,2023-11-15T20:58:38.535Z,,,,,,,,,,NaN,,,,,,,,high,high,,,,,,false,,,,false,1019121.4000000358,1019121.4000000358,,1019121.1000000238,,1019039.441,4,500,,
break_continue,html.Screen,10_30_2,2023-11-15T20:58:38.536Z,,,,,,,,,,NaN,,,,,,,,high,high,,,,,,false,,,,false,1019121.6000000238,1019121.5,,1019121.4000000358,,1019039.441,4,500,,
sequence,flow.Sequence,10_30,2023-11-15T20:58:38.536Z,,,,,,,,,,3098.5209999999497,completion,,,,,,,high,high,,,,,,false,,,,false,1019121.6999999881,1019121.5,1015989.215,1016097.9000000358,1016022.979,1019039.441,4,500,,
trial,html.Screen,10_31_0,2023-11-15T20:58:41.735Z,,,,1,0.0074667911845194,-0.018500200317654,,true,hh,3281.459000035771,response,0.5565532413037697,0.7432652525380474,-1.0272816810192613,0.6437058660162371,0.6778560309786611,-0.6502407488684246,high,high,,ISIC_0058723.JPG,10,ISIC_0026545.JPG,297,false,hh,keypress(i),0,false,1022321,1022320.9000000358,1019022.686,1019121.6999999881,1019039.441,1022239.687,4,500,32,
break,html.Screen,10_31_1,2023-11-15T20:58:41.735Z,,,,,,,,,,NaN,,,,,,,,high,high,,,,,,false,,,,false,1022321.3000000119,1022321.3000000119,,1022321.1000000238,,1022239.687,4,500,,
break_continue,html.Screen,10_31_2,2023-11-15T20:58:41.735Z,,,,,,,,,,NaN,,,,,,,,high,high,,,,,,false,,,,false,1022321.5,1022321.4000000358,,1022321.3000000119,,1022239.687,4,500,,
sequence,flow.Sequence,10_31,2023-11-15T20:58:41.736Z,,,,,,,,,,3281.959000035771,completion,,,,,,,high,high,,,,,,false,,,,false,1022321.6000000238,1022321.4000000358,1019022.686,1019121.6999999881,1019039.441,1022239.687,4,500,,
trial,html.Screen,10_32_0,2023-11-15T20:58:48.151Z,,,,1,-0.0204987932325723,0.0619049476763945,,true,hl,6496.8129999999655,response,0.6697311934654728,0.7432652525380474,-1.0272816810192613,-0.5143738257755217,0.6778560309786611,-0.6502407488684246,high,low,,ISIC_0887792.JPG,8,ISIC_5364330.JPG,112,false,hl,keypress(j),0,false,1028736.6000000238,1028736.5,1022222.922,1022321.6999999881,1022239.687,1028655.941,4,500,33,
break,html.Screen,10_32_1,2023-11-15T20:58:48.151Z,,,,,,,,,,NaN,,,,,,,,high,low,,,,,,false,,,,false,1028736.9000000358,1028736.9000000358,,1028736.6999999881,,1028655.941,4,500,,
break_continue,html.Screen,10_32_2,2023-11-15T20:58:48.151Z,,,,,,,,,,NaN,,,,,,,,high,low,,,,,,false,,,,false,1028737.3000000119,1028737.1000000238,,1028737,,1028655.941,4,500,,
sequence,flow.Sequence,10_32,2023-11-15T20:58:48.151Z,,,,,,,,,,6497.413000023807,completion,,,,,,,high,low,,,,,,false,,,,false,1028737.3000000119,1028737.1000000238,1022222.922,1022321.6000000238,1022239.687,1028655.941,4,500,,
trial,html.Screen,10_33_0,2023-11-15T20:58:55.175Z,,,,1,0.0123274848503577,-0.0516828290734233,,false,ll,7104.959000035771,response,-0.8318080342969796,0.7432652525380474,-1.0272816810192613,-0.5727236162980366,0.6778560309786611,-0.6502407488684246,low,low,,ISIC_0056790.JPG,9,ISIC_8502341.JPG,212,false,hh,keypress(i),0,false,1035761,1035760.9000000358,1028639.14,1028737.4000000358,1028655.941,1035672.606,4,500,34,
break,html.Screen,10_33_1,2023-11-15T20:58:55.175Z,,,,,,,,,,NaN,,,,,,,,low,low,,,,,,false,,,,false,1035761.4000000358,1035761.1999999881,,1035761.1000000238,,1035672.606,4,500,,
break_continue,html.Screen,10_33_2,2023-11-15T20:58:55.175Z,,,,,,,,,,NaN,,,,,,,,low,low,,,,,,false,,,,false,1035761.5,1035761.5,,1035761.4000000358,,1035672.606,4,500,,
sequence,flow.Sequence,10_33,2023-11-15T20:58:55.176Z,,,,,,,,,,7105.559000000008,completion,,,,,,,low,low,,,,,,false,,,,false,1035761.6000000238,1035761.5,1028639.14,1028737.3000000119,1028655.941,1035672.606,4,500,,
trial,html.Screen,10_34_0,2023-11-15T20:58:58.550Z,,,,1,0.0473541545202326,-0.0294076954053606,,false,ll,3463.59399998805,response,-0.8960553239911734,0.7432652525380474,-1.0272816810192613,-0.4833550978737788,0.6778560309786611,-0.6502407488684246,low,low,,ISIC_0034065.JPG,9,ISIC_4348994.JPG,212,false,hh,keypress(i),0,false,1039136.4000000358,1039136.1999999881,1035656.203,1035761.6999999881,1035672.606,1039056.356,4,500,35,
break,html.Screen,10_34_1,2023-11-15T20:58:58.551Z,,,,,,,,,,NaN,,,,,,,,low,low,,,,,,false,,,,false,1039136.6000000238,1039136.6000000238,,1039136.5,,1039056.356,4,500,,
break_continue,html.Screen,10_34_2,2023-11-15T20:58:58.551Z,,,,,,,,,,NaN,,,,,,,,low,low,,,,,,false,,,,false,1039136.9000000358,1039136.6999999881,,1039136.6999999881,,1039056.356,4,500,,
sequence,flow.Sequence,10_34,2023-11-15T20:58:58.551Z,,,,,,,,,,3464.09399998805,completion,,,,,,,low,low,,,,,,false,,,,false,1039137,1039136.6999999881,1035656.203,1035761.6000000238,1035672.606,1039056.356,4,500,,
trial,html.Screen,10_35_0,2023-11-15T20:59:01.815Z,,,,1,0.0426957918502628,0.044166030546046,,true,hl,3344.143999999971,response,0.9198276163642348,0.7432652525380474,-1.0272816810192613,-0.7754915110667046,0.6778560309786611,-0.6502407488684246,high,low,,ISIC_4649440.JPG,8,ISIC_7840728.JPG,112,false,hl,keypress(j),0,false,1042400.6000000238,1042400.5,1039039.641,1039137,1039056.356,1042323.011,4,500,36,
break,html.Screen,10_35_1,2023-11-15T20:59:01.815Z,,,,,,,,,,NaN,,,,,,,,high,low,,,,,,false,,,,false,1042401,1042400.9000000358,,1042400.6999999881,,1042323.011,4,500,,
break_continue,html.Screen,10_35_2,2023-11-15T20:59:01.815Z,,,,,,,,,,NaN,,,,,,,,high,low,,,,,,false,,,,false,1042401.1999999881,1042401.1000000238,,1042401,,1042323.011,4,500,,
sequence,flow.Sequence,10_35,2023-11-15T20:59:01.815Z,,,,,,,,,,3344.744000023813,completion,,,,,,,high,low,,,,,,false,,,,false,1042401.1999999881,1042401.1000000238,1039039.641,1039137,1039056.356,1042323.011,4,500,,
trial,html.Screen,10_36_0,2023-11-15T20:59:04.391Z,,,,1,-0.0727065082131878,-0.0601627969482033,,false,ll,2653.789000011864,response,-0.8960553239911734,0.7432652525380474,-1.0272816810192613,-0.4833550978737788,0.6778560309786611,-0.6502407488684246,low,low,,ISIC_2245069.JPG,8,ISIC_4348994.JPG,212,false,hl,keypress(j),0,false,1044976.9000000358,1044976.8000000119,1042306.264,1042401.1999999881,1042323.011,1044889.243,4,500,37,
break,html.Screen,10_36_1,2023-11-15T20:59:04.391Z,,,,,,,,,,NaN,,,,,,,,low,low,,,,,,false,,,,false,1044977.1999999881,1044977.1999999881,,1044977.1000000238,,1044889.243,4,500,,
break_continue,html.Screen,10_36_2,2023-11-15T20:59:04.391Z,,,,,,,,,,NaN,,,,,,,,low,low,,,,,,false,,,,false,1044977.4000000358,1044977.3000000119,,1044977.3000000119,,1044889.243,4,500,,
sequence,flow.Sequence,10_36,2023-11-15T20:59:04.391Z,,,,,,,,,,2654.289000011864,completion,,,,,,,low,low,,,,,,false,,,,false,1044977.5,1044977.3000000119,1042306.264,1042401.1999999881,1042323.011,1044889.243,4,500,,
trial,html.Screen,10_37_0,2023-11-15T20:59:08.615Z,,,,1,-0.068830656047477,0.0471494209282208,,true,lh,4311.557000011904,response,-1.0160925610470608,0.7432652525380474,-1.0272816810192613,0.5707094956389498,0.6778560309786611,-0.6502407488684246,low,high,,ISIC_0029982.JPG,9,ISIC_8120622.JPG,42,false,lh,keypress(e),0,false,1049201,1049200.800000012,1044872.814,1044977.6000000238,1044889.243,1049123.005,4,500,38,
break,html.Screen,10_37_1,2023-11-15T20:59:08.615Z,,,,,,,,,,NaN,,,,,,,,low,high,,,,,,false,,,,false,1049201.199999988,1049201.199999988,,1049201,,1049123.005,4,500,,
