sender,sender_type,sender_id,timestamp,meta,,age,blockNo,c1,c2,condition,correct,correctResponse,duration,ended_on,f1,f1_high,f1_low,f2,f2_high,f2_low,feature_level1,feature_level2,gender,img_left,img_reveal,img_right,n_target_images,practice,response,response_action,selection_duration,staircase,time_commit,time_end,time_render,time_run,time_show,time_switch,total_blocks,total_trials,trialNo,url
informed_consent,html.Screen,0,2023-11-15T20:25:06.782Z,"{""labjs_version"":""20.2.4"",""labjs_build"":{""flavor"":""development"",""commit"":""f5b4a49f956347addd546a832a3327688c2c0fef""},""location"":""https://labjs.felixhenninger.com/api/labjs_preview/index.html"",""userAgent"":""Mozilla/5.0 (Windows NT 10.0; Win64; x64) AppleWebKit/537.36 (KHTML, like Gecko) Chrome/119.0.0.0 Safari/537.36"",""platform"":""Win32"",""language"":""en-US"",""locale"":""en-US"",""timeZone"":""America/Chicago"",""timezoneOffset"":360,""screen_width"":1920,""screen_height"":1080,""scroll_width"":945,""scroll_height"":918,""window_innerWidth"":945,""window_innerHeight"":966,""devicePixelRatio"":1}",,,,,,,,,55414.64500000596,response,,,,,,,,,,,,,,,consent,click button,,,56098,56089.40000000596,658.054,654.7999999970198,674.755,56091.235,,,,{}
Demography form,html.Form,1,2023-11-15T20:25:14.430Z,,,18,,,,,,,7655.064999997019,form submission,,,,,,,,,female,,,,,,,,,,63746.40000000596,63746.29999999702,56074.784,56098.29999999702,56091.235,63758.051,,,,
Welcome,html.Screen,2,2023-11-15T20:25:46.670Z,,,,,,,"[""asym"",""bor""]",,,32227.54900000894,response,,,,,,,,,,,,,,,continue,click button,,,95986.10000000894,95985.60000000894,63741.226,63746.5,63758.051,95991.124,,,,
demo_instructions,html.Screen,3,2023-11-15T20:26:30.398Z,,,,,,,,,,43722.17599999702,response,,,,,,,,,,,,,,,continue,click button,,,139713.79999999702,139713.29999999702,95974.699,95986.20000000298,95991.124,139724.408,,,,
trial,html.Screen,4_0_0,2023-11-15T20:26:46.261Z,,,,0,0.8947611078712571,-0.8960964505004638,,true,lh,15852.391999997024,response,-0.9696118525781644,1.0499999999999998,-1.0499999999999998,0.9244148283103414,1.0499999999999998,-1.0499999999999998,low,high,,ISIC_6441128.JPG,,ISIC_7927525.JPG,21,true,lh,keypress(e),100,false,155577.20000000298,155576.79999999702,139707.826,139713.90000000596,139724.408,155607.697,1,16,1,
sequence,flow.Sequence,4_0,2023-11-15T20:26:46.262Z,,,,,,,,,,15852.391999997024,completion,,,,,,,low,high,,,,,,true,,,,false,155577.79999999702,155576.79999999702,139707.826,139713.90000000596,139724.408,155607.697,1,16,,
trial,html.Screen,4_1_0,2023-11-15T20:27:01.904Z,,,,0,0.948927472020595,-1.0660437155921598,,true,lh,15611.703000005975,response,-0.858338058340649,1.0499999999999998,-1.0499999999999998,0.9540612223480284,1.0499999999999998,-1.0499999999999998,low,high,,ISIC_5808758.JPG,,ISIC_8922893.JPG,21,true,lh,keypress(e),100,false,171219.70000000298,171219.40000000596,155591.144,155578.20000000298,155607.697,171241.206,1,16,2,
sequence,flow.Sequence,4_1,2023-11-15T20:27:01.904Z,,,,,,,,,,15611.703000005975,completion,,,,,,,low,high,,,,,,true,,,,false,171220.29999999702,171219.40000000596,155591.144,155578.10000000894,155607.697,171241.206,1,16,,
trial,html.Screen,4_2_0,2023-11-15T20:27:14.074Z,,,,0,0.991146183030456,-0.9949639823722534,,true,lh,12148.494000002975,response,-0.991282840649944,1.0499999999999998,-1.0499999999999998,0.9397921099839784,1.0499999999999998,-1.0499999999999998,low,high,,ISIC_6342224.JPG,,ISIC_0000463.JPG,21,true,lh,keypress(e),100,false,183390.10000000894,183389.70000000298,171224.298,171220.5,171241.206,183407.598,1,16,3,
sequence,flow.Sequence,4_2,2023-11-15T20:27:14.074Z,,,,,,,,,,12148.494000002975,completion,,,,,,,low,high,,,,,,true,,,,false,183390.60000000894,183389.70000000298,171224.298,171220.40000000596,171241.206,183407.598,1,16,,
trial,html.Screen,4_3_0,2023-11-15T20:27:20.101Z,,,,0,0.9235571765207048,-1.0008081653938232,,true,lh,6009.002000008943,response,-1.2331439637486756,1.0499999999999998,-1.0499999999999998,0.9691143900156988,1.0499999999999998,-1.0499999999999998,low,high,,ISIC_8796632.JPG,,ISIC_7877488.JPG,21,true,lh,keypress(e),100,false,189416.90000000596,189416.60000000894,183390.986,183390.79999999702,183407.598,189441.082,1,16,4,
sequence,flow.Sequence,4_3,2023-11-15T20:27:20.101Z,,,,,,,,,,6009.002000008943,completion,,,,,,,low,high,,,,,,true,,,,false,189417.5,189416.60000000894,183390.986,183390.79999999702,183407.598,189441.082,1,16,,
trial,html.Screen,4_4_0,2023-11-15T20:27:37.105Z,,,,0,0.9307420457704906,1.0040662939937806,,true,ll,16980.717999997025,response,-1.037577073517966,1.0499999999999998,-1.0499999999999998,-1.027048110709042,1.0499999999999998,-1.0499999999999998,low,low,,ISIC_4508878.JPG,,ISIC_0004932.JPG,111,true,ll,keypress(f),100,false,206422.20000000298,206421.79999999702,189424.312,189417.70000000298,189441.082,206440.806,1,16,5,
sequence,flow.Sequence,4_4,2023-11-15T20:27:37.106Z,,,,,,,,,,16980.717999997025,completion,,,,,,,low,low,,,,,,true,,,,false,206422.79999999702,206421.79999999702,189424.312,189417.70000000298,189441.082,206440.806,1,16,,
trial,html.Screen,4_5_0,2023-11-15T20:27:47.324Z,,,,0,1.188743606919222,1.0980226451001782,,true,ll,10199.894000002969,response,-1.030423594637164,1.0499999999999998,-1.0499999999999998,-0.9418036199165556,1.0499999999999998,-1.0499999999999998,low,low,,ISIC_0060481.JPG,,ISIC_0010299.JPG,111,true,ll,keypress(f),100,false,216641,216640.70000000298,206424.201,206423,206440.806,216657.72,1,16,6,
sequence,flow.Sequence,4_5,2023-11-15T20:27:47.325Z,,,,,,,,,,10199.894000002969,completion,,,,,,,low,low,,,,,,true,,,,false,216641.29999999702,216640.70000000298,206424.201,206422.90000000596,206440.806,216657.72,1,16,,
trial,html.Screen,4_6_0,2023-11-15T20:28:00.275Z,,,,0,0.9049419708812736,1.1525122949771718,,true,ll,12933.68000000596,response,-1.0769490291795207,1.0499999999999998,-1.0499999999999998,-1.0174515954885954,1.0499999999999998,-1.0499999999999998,low,low,,ISIC_0011348.JPG,,ISIC_0028135.JPG,111,true,ll,keypress(f),100,false,229591.70000000298,229591.40000000596,216640.815,216641.5,216657.72,229607.643,1,16,7,
sequence,flow.Sequence,4_6,2023-11-15T20:28:00.276Z,,,,,,,,,,12933.68000000596,completion,,,,,,,low,low,,,,,,true,,,,false,229592.20000000298,229591.40000000596,216640.815,216641.5,216657.72,229607.643,1,16,,
trial,html.Screen,4_7_0,2023-11-15T20:28:05.069Z,,,,0,0.8926778502294954,0.9164454040166848,,true,ll,4778.156999997009,response,-0.8859261802814055,1.0499999999999998,-1.0499999999999998,-0.9191342361964594,1.0499999999999998,-1.0499999999999998,low,low,,ISIC_0011460.JPG,,ISIC_0029395.JPG,111,true,ll,keypress(f),100,false,234386.10000000894,234385.79999999702,229591.047,229592.5,229607.643,234407.623,1,16,8,
sequence,flow.Sequence,4_7,2023-11-15T20:28:05.070Z,,,,,,,,,,4778.156999997009,completion,,,,,,,low,low,,,,,,true,,,,false,234386.60000000894,234385.79999999702,229591.047,229592.40000000596,229607.643,234407.623,1,16,,
trial,html.Screen,4_8_0,2023-11-15T20:28:32.414Z,,,,0,-0.8579451262594331,0.9633172970727744,,true,hl,27321.676999997027,response,0.7833710010171356,0.9499999999999997,-0.9499999999999997,-0.9315588090336896,0.9499999999999997,-0.9499999999999997,high,low,,ISIC_0067172.JPG,,ISIC_3826102.JPG,26,true,hl,keypress(j),100,false,261729.5,261729.29999999702,234390.774,234386.90000000596,234407.623,261757.372,1,16,9,
sequence,flow.Sequence,4_8,2023-11-15T20:28:32.414Z,,,,,,,,,,27321.676999997027,completion,,,,,,,high,low,,,,,,true,,,,false,261729.70000000298,261729.29999999702,234390.774,234386.90000000596,234407.623,261757.372,1,16,,
trial,html.Screen,4_9_0,2023-11-15T20:28:49.778Z,,,,0,-0.9696118525781644,0.9244148283103414,,true,hl,17335.828000002977,response,0.796241477082623,0.9499999999999997,-0.9499999999999997,-0.9017449335975743,0.9499999999999997,-0.9499999999999997,high,low,,ISIC_7927525.JPG,,ISIC_8588033.JPG,26,true,hl,keypress(j),100,false,279093.60000000894,279093.200000003,261740.696,261729.70000000298,261757.372,279124.031,1,16,10,
sequence,flow.Sequence,4_9,2023-11-15T20:28:49.778Z,,,,,,,,,,17335.828000002977,completion,,,,,,,high,low,,,,,,true,,,,false,279094.200000003,279093.200000003,261740.696,261729.70000000298,261757.372,279124.031,1,16,,
trial,html.Screen,4_10_0,2023-11-15T20:29:01.133Z,,,,0,-1.011737552725394,0.8500530224490773,,true,hl,11324.569000008923,response,0.887838744955182,0.9499999999999997,-0.9499999999999997,-0.7545096650863988,0.9499999999999997,-0.9499999999999997,high,low,,ISIC_2998367.JPG,,ISIC_1488727.JPG,26,true,hl,keypress(j),100,false,290448.90000000596,290448.60000000894,279107.558,279094.5,279124.031,290474.121,1,16,11,
sequence,flow.Sequence,4_10,2023-11-15T20:29:01.134Z,,,,,,,,,,11324.569000008923,completion,,,,,,,high,low,,,,,,true,,,,false,290449.5,290448.60000000894,279107.558,279094.40000000596,279124.031,290474.121,1,16,,
trial,html.Screen,4_11_0,2023-11-15T20:29:12.216Z,,,,0,-0.991282840649944,0.9397921099839784,,true,hl,11057.178999997035,response,0.8623414234919863,0.9499999999999997,-0.9499999999999997,-0.782830143980698,0.9499999999999997,-0.9499999999999997,high,low,,ISIC_0000463.JPG,,ISIC_2727016.JPG,26,true,hl,keypress(j),100,false,301531.5,301531.299999997,290457.321,290449.799999997,290474.121,301557.249,1,16,12,
sequence,flow.Sequence,4_11,2023-11-15T20:29:12.216Z,,,,,,,,,,11057.178999997035,completion,,,,,,,high,low,,,,,,true,,,,false,301531.700000003,301531.299999997,290457.321,290449.700000003,290474.121,301557.249,1,16,,
trial,html.Screen,4_12_0,2023-11-15T20:29:17.836Z,,,,0,-0.7543493127539531,-0.9452304370934528,,true,hh,5594.15100000595,response,0.7916641003387539,0.9499999999999997,-0.9499999999999997,0.8795523971208432,0.9499999999999997,-0.9499999999999997,high,high,,ISIC_0029017.JPG,,ISIC_0069635.JPG,167,true,hh,keypress(i),100,false,307151.700000003,307151.40000000596,301540.591,301531.700000003,301557.249,307174.104,1,16,13,
sequence,flow.Sequence,4_12,2023-11-15T20:29:17.836Z,,,,,,,,,,5594.15100000595,completion,,,,,,,high,high,,,,,,true,,,,false,307152.200000003,307151.40000000596,301540.591,301531.700000003,301557.249,307174.104,1,16,,
trial,html.Screen,4_13_0,2023-11-15T20:29:22.214Z,,,,0,-0.9949403898803344,-1.0036806409150678,,true,hh,4355.496000008949,response,0.9054613726799198,0.9499999999999997,-0.9499999999999997,1.0522064490699743,0.9499999999999997,-0.9499999999999997,high,high,,ISIC_0012450.JPG,,ISIC_0064860.JPG,167,true,hh,keypress(i),100,false,311529.799999997,311529.60000000894,307157.241,307152.5,307174.104,311557.238,1,16,14,
sequence,flow.Sequence,4_13,2023-11-15T20:29:22.215Z,,,,,,,,,,4355.496000008949,completion,,,,,,,high,high,,,,,,true,,,,false,311530.40000000596,311529.60000000894,307157.241,307152.40000000596,307174.104,311557.238,1,16,,
trial,html.Screen,4_14_0,2023-11-15T20:29:27.617Z,,,,0,-1.079549480496248,-0.9336079040538864,,true,hh,5375.362000008929,response,0.8426512029386741,0.9499999999999997,-0.9499999999999997,0.7924499678897714,0.9499999999999997,-0.9499999999999997,high,high,,ISIC_6913045.JPG,,ISIC_0013636.JPG,167,true,hh,keypress(i),100,false,316933,316932.60000000894,311540.584,311530.60000000894,311557.238,316957.484,1,16,15,
sequence,flow.Sequence,4_14,2023-11-15T20:29:27.618Z,,,,,,,,,,5375.362000008929,completion,,,,,,,high,high,,,,,,true,,,,false,316933.60000000894,316932.60000000894,311540.584,311530.60000000894,311557.238,316957.484,1,16,,
trial,html.Screen,4_15_0,2023-11-15T20:29:31.420Z,,,,0,-0.8329154010765664,-0.9000661178885296,,true,hh,3777.5160000000033,response,0.758207007584394,0.9499999999999997,-0.9499999999999997,1.0437879361189135,0.9499999999999997,-0.9499999999999997,high,high,,ISIC_7407847.JPG,,ISIC_0011626.JPG,167,true,hh,keypress(i),100,false,320735.40000000596,320735,316940.583,316933.799999997,316957.484,320757.189,1,16,16,
sequence,flow.Sequence,4_15,2023-11-15T20:29:31.420Z,,,,,,,,,,3777.5160000000033,completion,,,,,,,high,high,,,,,,true,,,,false,320735.90000000596,320735,316940.583,316933.799999997,316957.484,320757.189,1,16,,
demonstration_loop,flow.Loop,4,2023-11-15T20:29:31.421Z,,,,,,,,,,181010.592,completion,,,,,,,,,,,,,,true,,,,false,320736.200000003,320735,139707.826,139713.90000000596,139724.408,320757.189,1,16,,
practice_instructions,html.Screen,5,2023-11-15T20:29:59.862Z,,,,,,,,,,28411.610999997007,response,,,,,,,,,,,,,,,continue,click button,,,349177.299999997,349168.799999997,320740.615,320736.5,320757.189,349173.766,,,,
trial,html.Screen,6_0_0,2023-11-15T20:30:09.248Z,,,,1,-0.8463538475082831,-0.8806175558408877,,true,hh,9389.533999997017,response,0.7749816372238512,0.9499999999999997,-0.9499999999999997,0.9483461637567244,0.9499999999999997,-0.9499999999999997,high,high,,ISIC_8916136.JPG,,ISIC_0065943.JPG,167,true,hh,keypress(i),0,false,358563.700000003,358563.299999997,349157.319,349177.40000000596,349173.766,358590.634,1,40,1,
sequence,flow.Sequence,6_0,2023-11-15T20:30:09.249Z,,,,,,,,,,9389.533999997017,completion,,,,,,,high,high,,,,,,true,,,,false,358564.10000000894,358563.299999997,349157.319,349177.40000000596,349173.766,358590.634,1,40,,
trial,html.Screen,6_1_0,2023-11-15T20:30:20.260Z,,,,1,-0.8979276789594874,0.925374811016654,,,,11016.523999999976,timeout,0.7833710010171356,0.9499999999999997,-0.9499999999999997,-0.9315588090336896,0.9499999999999997,-0.9499999999999997,high,low,,ISIC_4208361.JPG,,ISIC_3826102.JPG,26,true,,,0,false,369575.40000000596,369575.299999997,358573.868,358564.40000000596,358590.634,369607.158,1,40,2,
sequence,flow.Sequence,6_1,2023-11-15T20:30:20.260Z,,,,,,,,,,10984.665999997,completion,,,,,,,high,low,,,,,,true,,,,false,369575.5,369575.299999997,358573.868,358564.40000000596,358590.634,369607.158,1,40,,
trial,html.Screen,6_2_0,2023-11-15T20:30:21.457Z,,,,1,-0.7784583866003763,0.9641514808986528,,true,hl,1164.641999997024,response,0.7638895244791114,0.9499999999999997,-0.9499999999999997,-0.7780412100090998,0.9499999999999997,-0.9499999999999997,high,low,,ISIC_0011924.JPG,,ISIC_0026516.JPG,26,true,hl,keypress(j),0,false,370772.10000000894,370771.799999997,369590.363,369575.60000000894,369607.158,370790.959,1,40,3,
sequence,flow.Sequence,6_2,2023-11-15T20:30:21.457Z,,,,,,,,,,1164.641999997024,completion,,,,,,,high,low,,,,,,true,,,,false,370772.5,370771.799999997,369590.363,369575.60000000894,369607.158,370790.959,1,40,,
trial,html.Screen,6_3_0,2023-11-15T20:30:28.073Z,,,,1,0.8947611078712571,-0.8960964505004638,,true,lh,6596.941000005987,response,-0.869932994914832,0.9499999999999997,-0.9499999999999997,0.8880533324432531,0.9499999999999997,-0.9499999999999997,low,high,,ISIC_6441128.JPG,,ISIC_8617084.JPG,28,true,lh,keypress(e),0,false,377388.10000000894,377387.90000000596,370757.151,370772.60000000894,370790.959,377390.41,1,40,4,
sequence,flow.Sequence,6_3,2023-11-15T20:30:28.073Z,,,,,,,,,,6596.941000005987,completion,,,,,,,low,high,,,,,,true,,,,false,377388.5,377387.90000000596,370757.151,370772.5,370790.959,377390.41,1,40,,
trial,html.Screen,6_4_0,2023-11-15T20:30:33.576Z,,,,1,-0.9696118525781644,0.9244148283103414,,true,hl,5500.490000005986,response,1.0122398223568725,0.9499999999999997,-0.9499999999999997,-0.7505228537454216,0.9499999999999997,-0.9499999999999997,high,low,,ISIC_7927525.JPG,,ISIC_0033802.JPG,26,true,hl,keypress(j),0,false,382891.10000000894,382890.90000000596,377373.643,377388.700000003,377390.41,382907.022,1,40,5,
sequence,flow.Sequence,6_4,2023-11-15T20:30:33.576Z,,,,,,,,,,5500.490000005986,completion,,,,,,,high,low,,,,,,true,,,,false,382891.5,382890.90000000596,377373.643,377388.700000003,377390.41,382907.022,1,40,,
trial,html.Screen,6_5_0,2023-11-15T20:30:39.929Z,,,,1,0.7561387739182023,0.9464921353391288,,true,ll,6336.678000002983,response,-0.8586909757509995,0.9499999999999997,-0.9499999999999997,-1.0893508435831143,0.9499999999999997,-0.9499999999999997,low,low,,ISIC_0031586.JPG,,ISIC_0003111.JPG,142,true,ll,keypress(f),0,false,389243.90000000596,389243.700000003,382890.396,382891.799999997,382907.022,389257.078,1,40,6,
sequence,flow.Sequence,6_5,2023-11-15T20:30:39.929Z,,,,,,,,,,6336.678000002983,completion,,,,,,,low,low,,,,,,true,,,,false,389244.299999997,389243.700000003,382890.396,382891.60000000894,382907.022,389257.078,1,40,,
trial,html.Screen,6_6_0,2023-11-15T20:30:47.280Z,,,,1,0.8947611078712571,-0.8960964505004638,,true,lh,7338.4220000000205,response,-0.9696118525781644,0.9499999999999997,-0.9499999999999997,0.9244148283103414,0.9499999999999997,-0.9499999999999997,low,high,,ISIC_6441128.JPG,,ISIC_7927525.JPG,28,true,lh,keypress(e),0,false,396595.799999997,396595.5,389240.299,389244.60000000894,389257.078,396607.034,1,40,7,
sequence,flow.Sequence,6_6,2023-11-15T20:30:47.281Z,,,,,,,,,,7338.4220000000205,completion,,,,,,,low,high,,,,,,true,,,,false,396596.200000003,396595.5,389240.299,389244.5,389257.078,396607.034,1,40,,
trial,html.Screen,6_7_0,2023-11-15T20:30:51.703Z,,,,1,-1.0103403743290518,-0.8231760770331785,,true,hh,4411.366000005975,response,0.8597768256741747,0.9499999999999997,-0.9499999999999997,1.1001121427563445,0.9499999999999997,-0.9499999999999997,high,high,,ISIC_1254469.JPG,,ISIC_5922588.JPG,167,true,hh,keypress(i),0,false,401018.60000000894,401018.40000000596,396590.221,396596.299999997,396607.034,401023.648,1,40,8,
sequence,flow.Sequence,6_7,2023-11-15T20:30:51.704Z,,,,,,,,,,4411.366000005975,completion,,,,,,,high,high,,,,,,true,,,,false,401018.90000000596,401018.40000000596,396590.221,396596.299999997,396607.034,401023.648,1,40,,
trial,html.Screen,6_8_0,2023-11-15T20:30:57.945Z,,,,1,0.9254369922344792,0.801722142776163,,true,ll,6236.252000005974,response,-0.7819386010267503,0.9499999999999997,-0.9499999999999997,-1.0882850488448614,0.9499999999999997,-0.9499999999999997,low,low,,ISIC_3236964.JPG,,ISIC_9024078.JPG,142,true,ll,keypress(f),0,false,407260.200000003,407259.90000000596,401007.074,401019.10000000894,401023.648,407273.681,1,40,9,
sequence,flow.Sequence,6_8,2023-11-15T20:30:57.945Z,,,,,,,,,,6236.252000005974,completion,,,,,,,low,low,,,,,,true,,,,false,407260.60000000894,407259.90000000596,401007.074,401019,401023.648,407273.681,1,40,,
trial,html.Screen,6_9_0,2023-11-15T20:31:02.735Z,,,,1,-0.8626849314423831,-0.8919402924145458,,true,hh,4776.219000005978,response,0.9054613726799198,0.9499999999999997,-0.9499999999999997,1.0522064490699743,0.9499999999999997,-0.9499999999999997,high,high,,ISIC_0026371.JPG,,ISIC_0064860.JPG,167,true,hh,keypress(i),0,false,412050,412049.90000000596,407256.921,407260.700000003,407273.681,412056.977,1,40,10,
sequence,flow.Sequence,6_9,2023-11-15T20:31:02.735Z,,,,,,,,,,4776.219000005978,completion,,,,,,,high,high,,,,,,true,,,,false,412050.10000000894,412049.90000000596,407256.921,407260.700000003,407273.681,412056.977,1,40,,
trial,html.Screen,6_10_0,2023-11-15T20:31:06.751Z,,,,1,0.958609763811768,1.0650939066726144,,true,ll,4009.2230000029667,response,-0.8552639039862626,0.9499999999999997,-0.9499999999999997,-1.0982314620989122,0.9499999999999997,-0.9499999999999997,low,low,,ISIC_0070163.JPG,,ISIC_0026278.JPG,142,true,ll,keypress(f),0,false,416066.200000003,416066.200000003,412040.282,412050.200000003,412056.977,416073.584,1,40,11,
sequence,flow.Sequence,6_10,2023-11-15T20:31:06.751Z,,,,,,,,,,4009.2230000029667,completion,,,,,,,low,low,,,,,,true,,,,false,416066.40000000596,416066.200000003,412040.282,412050.200000003,412056.977,416073.584,1,40,,
trial,html.Screen,6_11_0,2023-11-15T20:31:13.664Z,,,,1,-0.9064565001469764,-0.7748322849719208,,true,hh,6905.4160000000265,response,0.8915634966621839,0.9499999999999997,-0.9499999999999997,0.7932594669441307,0.9499999999999997,-0.9499999999999997,high,high,,ISIC_0025877.JPG,,ISIC_1937197.JPG,167,true,hh,keypress(i),0,false,422979.40000000596,422979,416057.119,416066.5,416073.584,422990.272,1,40,12,
sequence,flow.Sequence,6_11,2023-11-15T20:31:13.664Z,,,,,,,,,,6905.4160000000265,completion,,,,,,,high,high,,,,,,true,,,,false,422979.700000003,422979,416057.119,416066.40000000596,416073.584,422990.272,1,40,,
trial,html.Screen,6_12_0,2023-11-15T20:31:20.247Z,,,,1,-0.7877939497981142,0.8415032780288271,,true,hl,6572.228000000003,response,0.7911024675435955,0.9499999999999997,-0.9499999999999997,-0.7975977016137676,0.9499999999999997,-0.9499999999999997,high,low,,ISIC_0067308.JPG,,ISIC_5813642.JPG,26,true,hl,keypress(j),0,false,429562.5,429562.5,422973.46,422980.10000000894,422990.272,429573.613,1,40,13,
sequence,flow.Sequence,6_12,2023-11-15T20:31:20.247Z,,,,,,,,,,6572.228000000003,completion,,,,,,,high,low,,,,,,true,,,,false,429562.700000003,429562.5,422973.46,422979.90000000596,422990.272,429573.613,1,40,,
trial,html.Screen,6_13_0,2023-11-15T20:31:27.848Z,,,,1,0.796241477082623,-0.9017449335975743,,true,lh,7589.487000008929,response,-0.9579209317488,0.9499999999999997,-0.9499999999999997,1.0147487101263497,0.9499999999999997,-0.9499999999999997,low,high,,ISIC_8588033.JPG,,ISIC_8124482.JPG,28,true,lh,keypress(e),0,false,437163.299999997,437163.10000000894,429556.661,429562.700000003,429573.613,437173.528,1,40,14,
sequence,flow.Sequence,6_13,2023-11-15T20:31:27.849Z,,,,,,,,,,7589.487000008929,completion,,,,,,,low,high,,,,,,true,,,,false,437163.799999997,437163.10000000894,429556.661,429562.700000003,429573.613,437173.528,1,40,,
trial,html.Screen,6_14_0,2023-11-15T20:31:31.401Z,,,,1,-1.1363600109870835,-0.7799430990551102,,true,hh,3541.972000000009,response,0.7942487684199633,0.9499999999999997,-0.9499999999999997,0.7711092153701026,0.9499999999999997,-0.9499999999999997,high,high,,ISIC_0026141.JPG,,ISIC_3810274.JPG,167,true,hh,keypress(i),0,false,440715.700000003,440715.5,437156.805,437164.10000000894,437173.528,440723.503,1,40,15,
sequence,flow.Sequence,6_14,2023-11-15T20:31:31.401Z,,,,,,,,,,3541.972000000009,completion,,,,,,,high,high,,,,,,true,,,,false,440716.10000000894,440715.5,437156.805,437164,437173.528,440723.503,1,40,,
trial,html.Screen,6_15_0,2023-11-15T20:31:36.704Z,,,,1,0.8655167308525522,-0.9298580423306444,,true,lh,5295.397000005934,response,-0.8979276789594874,0.9499999999999997,-0.9499999999999997,0.925374811016654,0.9499999999999997,-0.9499999999999997,low,high,,ISIC_4603706.JPG,,ISIC_4208361.JPG,28,true,lh,keypress(e),0,false,446019.10000000894,446018.90000000596,440706.926,440716.299999997,440723.503,446023.55,1,40,16,
sequence,flow.Sequence,6_15,2023-11-15T20:31:36.704Z,,,,,,,,,,5295.397000005934,completion,,,,,,,low,high,,,,,,true,,,,false,446019.60000000894,446018.90000000596,440706.926,440716.299999997,440723.503,446023.55,1,40,,
trial,html.Screen,6_16_0,2023-11-15T20:31:41.496Z,,,,1,-1.1210325063849345,-1.1498648320956202,,true,hh,4787.350000005972,response,1.0931477426281198,0.9499999999999997,-0.9499999999999997,1.0028306951898116,0.9499999999999997,-0.9499999999999997,high,high,,ISIC_0032162.JPG,,ISIC_0026531.JPG,167,true,hh,keypress(i),0,false,450811.10000000894,450810.90000000596,446006.871,446019.799999997,446023.55,450823.628,1,40,17,
sequence,flow.Sequence,6_16,2023-11-15T20:31:41.496Z,,,,,,,,,,4787.350000005972,completion,,,,,,,high,high,,,,,,true,,,,false,450811.40000000596,450810.90000000596,446006.871,446019.700000003,446023.55,450823.628,1,40,,
trial,html.Screen,6_17_0,2023-11-15T20:31:46.520Z,,,,1,0.8881798219454458,0.7540442234866285,,true,ll,5010.871999999974,response,-1.1217390688497193,0.9499999999999997,-0.9499999999999997,-0.8482399573167824,0.9499999999999997,-0.9499999999999997,low,low,,ISIC_0055675.JPG,,ISIC_0026344.JPG,142,true,ll,keypress(f),0,false,455834.799999997,455834.5,450806.69,450811.60000000894,450823.628,455840.132,1,40,18,
sequence,flow.Sequence,6_17,2023-11-15T20:31:46.520Z,,,,,,,,,,5010.871999999974,completion,,,,,,,low,low,,,,,,true,,,,false,455835.200000003,455834.5,450806.69,450811.60000000894,450823.628,455840.132,1,40,,
trial,html.Screen,6_18_0,2023-11-15T20:31:50.385Z,,,,1,0.9562051868665176,1.110797661774712,,true,ll,3859.568000002997,response,-0.8513702094329779,0.9499999999999997,-0.9499999999999997,-0.8646686295881743,0.9499999999999997,-0.9499999999999997,low,low,,ISIC_0061199.JPG,,ISIC_1881133.JPG,142,true,ll,keypress(f),0,false,459699.90000000596,459699.700000003,455823.545,455835.299999997,455840.132,459706.801,1,40,19,
sequence,flow.Sequence,6_18,2023-11-15T20:31:50.385Z,,,,,,,,,,3859.568000002997,completion,,,,,,,low,low,,,,,,true,,,,false,459700.299999997,459699.700000003,455823.545,455835.299999997,455840.132,459706.801,1,40,,
trial,html.Screen,6_19_0,2023-11-15T20:31:59.521Z,,,,1,-0.9579209317488,1.0147487101263497,,true,hl,9128.899000003003,response,1.0213365328004047,0.9499999999999997,-0.9499999999999997,-1.088524359911891,0.9499999999999997,-0.9499999999999997,high,low,,ISIC_8124482.JPG,,ISIC_5434229.JPG,26,true,hl,keypress(j),0,false,468836,468835.700000003,459690.273,459700.60000000894,459706.801,468840.161,1,40,20,
sequence,flow.Sequence,6_19,2023-11-15T20:31:59.521Z,,,,,,,,,,9128.899000003003,completion,,,,,,,high,low,,,,,,true,,,,false,468836.40000000596,468835.700000003,459690.273,459700.5,459706.801,468840.161,1,40,,
trial,html.Screen,6_20_0,2023-11-15T20:32:02.801Z,,,,1,-0.8755959065262388,-1.093284184366194,,true,hh,3275.5390000029583,response,1.0644984649911948,0.9499999999999997,-0.9499999999999997,0.8053137102379775,0.9499999999999997,-0.9499999999999997,high,high,,ISIC_8096177.JPG,,ISIC_2007396.JPG,167,true,hh,keypress(i),0,false,472116.10000000894,472115.700000003,468823.39,468836.5,468840.161,472123.408,1,40,21,
sequence,flow.Sequence,6_20,2023-11-15T20:32:02.801Z,,,,,,,,,,3275.5390000029583,completion,,,,,,,high,high,,,,,,true,,,,false,472116.5,472115.700000003,468823.39,468836.5,468840.161,472123.408,1,40,,
trial,html.Screen,6_21_0,2023-11-15T20:32:09.368Z,,,,1,-0.8809306963311293,0.8614910030038974,,true,hl,6559.492000005965,response,1.0164576835546473,0.9499999999999997,-0.9499999999999997,-0.8120626538423016,0.9499999999999997,-0.9499999999999997,high,low,,ISIC_0013731.JPG,,ISIC_6002694.JPG,26,true,hl,keypress(j),0,false,478683.200000003,478682.90000000596,472106.757,472116.700000003,472123.408,478690.143,1,40,22,
sequence,flow.Sequence,6_21,2023-11-15T20:32:09.368Z,,,,,,,,,,6559.492000005965,completion,,,,,,,high,low,,,,,,true,,,,false,478683.5,478682.90000000596,472106.757,472116.700000003,472123.408,478690.143,1,40,,
trial,html.Screen,6_22_0,2023-11-15T20:32:15.719Z,,,,1,-0.9696118525781644,0.9244148283103414,,true,hl,6343.457000008959,response,1.0122398223568725,0.9499999999999997,-0.9499999999999997,-0.7505228537454216,0.9499999999999997,-0.9499999999999997,high,low,,ISIC_7927525.JPG,,ISIC_0033802.JPG,26,true,hl,keypress(j),0,false,485033.700000003,485033.60000000894,478673.36,478683.799999997,478690.143,485040.045,1,40,23,
sequence,flow.Sequence,6_22,2023-11-15T20:32:15.719Z,,,,,,,,,,6343.457000008959,completion,,,,,,,high,low,,,,,,true,,,,false,485033.799999997,485033.60000000894,478673.36,478683.700000003,478690.143,485040.045,1,40,,
trial,html.Screen,6_23_0,2023-11-15T20:32:18.080Z,,,,1,0.9235571765207048,-1.0008081653938232,,true,lh,2355.055000008957,response,-0.7877939497981142,0.9499999999999997,-0.9499999999999997,0.8415032780288271,0.9499999999999997,-0.9499999999999997,low,high,,ISIC_8796632.JPG,,ISIC_0067308.JPG,28,true,lh,keypress(e),0,false,487395.299999997,487395.10000000894,485023.373,485033.90000000596,485040.045,487406.939,1,40,24,
sequence,flow.Sequence,6_23,2023-11-15T20:32:18.081Z,,,,,,,,,,2355.055000008957,completion,,,,,,,low,high,,,,,,true,,,,false,487395.700000003,487395.10000000894,485023.373,485033.90000000596,485040.045,487406.939,1,40,,
trial,html.Screen,6_24_0,2023-11-15T20:32:25.647Z,,,,1,0.8947611078712571,-0.8960964505004638,,true,lh,7555.161000008928,response,-1.0751036484083878,0.9499999999999997,-0.9499999999999997,1.143906455483852,0.9499999999999997,-0.9499999999999997,low,high,,ISIC_6441128.JPG,,ISIC_0064406.JPG,28,true,lh,keypress(e),0,false,494962.40000000596,494962.10000000894,487390.155,487395.90000000596,487406.939,494973.421,1,40,25,
sequence,flow.Sequence,6_24,2023-11-15T20:32:25.648Z,,,,,,,,,,7555.161000008928,completion,,,,,,,low,high,,,,,,true,,,,false,494962.90000000596,494962.10000000894,487390.155,487395.90000000596,487406.939,494973.421,1,40,,
trial,html.Screen,6_25_0,2023-11-15T20:32:31.265Z,,,,1,-0.7933921755497018,0.7692916291112835,,true,hl,5606.378999997047,response,0.8200962008791046,0.9499999999999997,-0.9499999999999997,-0.7936051642828523,0.9499999999999997,-0.9499999999999997,high,low,,ISIC_7844825.JPG,,ISIC_0027031.JPG,26,true,hl,keypress(j),0,false,500580.10000000894,500579.799999997,494956.677,494963.10000000894,494973.421,500590.009,1,40,26,
sequence,flow.Sequence,6_25,2023-11-15T20:32:31.266Z,,,,,,,,,,5606.378999997047,completion,,,,,,,high,low,,,,,,true,,,,false,500580.5,500579.799999997,494956.677,494963,494973.421,500590.009,1,40,,
trial,html.Screen,6_26_0,2023-11-15T20:32:36.528Z,,,,1,-0.8938250806816868,-0.8120302962631756,,true,hh,5252.89100000594,response,0.9090432487160188,0.9499999999999997,-0.9499999999999997,1.033319341099857,0.9499999999999997,-0.9499999999999997,high,high,,ISIC_9268141.JPG,,ISIC_4119029.JPG,167,true,hh,keypress(i),0,false,505843.200000003,505842.90000000596,500573.473,500580.700000003,500590.009,505856.878,1,40,27,
sequence,flow.Sequence,6_26,2023-11-15T20:32:36.529Z,,,,,,,,,,5252.89100000594,completion,,,,,,,high,high,,,,,,true,,,,false,505843.700000003,505842.90000000596,500573.473,500580.700000003,500590.009,505856.878,1,40,,
trial,html.Screen,6_27_0,2023-11-15T20:32:44.744Z,,,,1,-0.858338058340649,0.9540612223480284,,true,hl,8201.822000002954,response,0.7833710010171356,0.9499999999999997,-0.9499999999999997,-0.9315588090336896,0.9499999999999997,-0.9499999999999997,high,low,,ISIC_8922893.JPG,,ISIC_3826102.JPG,26,true,hl,keypress(j),0,false,514059,514058.700000003,505839.847,505843.90000000596,505856.878,514073.516,1,40,28,
sequence,flow.Sequence,6_27,2023-11-15T20:32:44.744Z,,,,,,,,,,8201.822000002954,completion,,,,,,,high,low,,,,,,true,,,,false,514059.299999997,514058.700000003,505839.847,505843.799999997,505856.878,514073.516,1,40,,
trial,html.Screen,6_28_0,2023-11-15T20:32:48.518Z,,,,1,0.7846840640804751,1.0912590313299513,,true,ll,3759.384000005957,response,-0.9071602543711612,0.9499999999999997,-0.9499999999999997,-1.073798502866343,0.9499999999999997,-0.9499999999999997,low,low,,ISIC_0026352.JPG,,ISIC_6676776.JPG,142,true,ll,keypress(f),0,false,517833.10000000894,517832.90000000596,514056.483,514059.60000000894,514073.516,517839.987,1,40,29,
sequence,flow.Sequence,6_28,2023-11-15T20:32:48.518Z,,,,,,,,,,3759.384000005957,completion,,,,,,,low,low,,,,,,true,,,,false,517833.299999997,517832.90000000596,514056.483,514059.5,514073.516,517839.987,1,40,,
trial,html.Screen,6_29_0,2023-11-15T20:32:55.521Z,,,,1,-0.9454713230140772,0.9245167441969216,,true,hl,6995.713000002957,response,0.991146183030456,0.9499999999999997,-0.9499999999999997,-0.9949639823722534,0.9499999999999997,-0.9499999999999997,high,low,,ISIC_9101055.JPG,,ISIC_6342224.JPG,26,true,hl,keypress(j),0,false,524836,524835.700000003,517823.329,517833.40000000596,517839.987,524839.971,1,40,30,
sequence,flow.Sequence,6_29,2023-11-15T20:32:55.521Z,,,,,,,,,,6995.713000002957,completion,,,,,,,high,low,,,,,,true,,,,false,524836.400000006,524835.700000003,517823.329,517833.40000000596,517839.987,524839.971,1,40,,
trial,html.Screen,6_30_0,2023-11-15T20:33:02.904Z,,,,1,1.064818044116379,1.0146741178993408,,true,ll,7378.52899999998,response,-1.1011373150916248,0.9499999999999997,-0.9499999999999997,-0.7816231038128233,0.9499999999999997,-0.9499999999999997,low,low,,ISIC_0032504.JPG,,ISIC_8477065.JPG,142,true,ll,keypress(f),0,false,532218.6000000089,532218.5,524823.217,524836.6000000089,524839.971,532223.234,1,40,31,
sequence,flow.Sequence,6_30,2023-11-15T20:33:02.904Z,,,,,,,,,,7378.52899999998,completion,,,,,,,low,low,,,,,,true,,,,false,532219.1000000089,532218.5,524823.217,524836.5,524839.971,532223.234,1,40,,
trial,html.Screen,6_31_0,2023-11-15T20:33:06.105Z,,,,1,1.0323818763018933,0.8120239593278021,,true,ll,3196.565999996965,response,-0.8399241413841876,0.9499999999999997,-0.9499999999999997,-0.9343381610425818,0.9499999999999997,-0.9499999999999997,low,low,,ISIC_0012055.JPG,,ISIC_9203914.JPG,142,true,ll,keypress(f),0,false,535420,535419.799999997,532206.498,532219.200000003,532223.234,535423.311,1,40,32,
sequence,flow.Sequence,6_31,2023-11-15T20:33:06.106Z,,,,,,,,,,3196.565999996965,completion,,,,,,,low,low,,,,,,true,,,,false,535420.5,535419.799999997,532206.498,532219.200000003,532223.234,535423.311,1,40,,
trial,html.Screen,6_32_0,2023-11-15T20:33:11.448Z,,,,1,-0.8728834820669534,-0.9788202580034188,,true,hh,5339.389000002993,response,1.1227373144244253,0.9499999999999997,-0.9499999999999997,0.7778878341942241,0.9499999999999997,-0.9499999999999997,high,high,,ISIC_7519627.JPG,,ISIC_0059506.JPG,167,true,hh,keypress(i),0,false,540763,540762.700000003,535406.672,535420.6000000089,535423.311,540773.269,1,40,33,
sequence,flow.Sequence,6_32,2023-11-15T20:33:11.449Z,,,,,,,,,,5339.389000002993,completion,,,,,,,high,high,,,,,,true,,,,false,540763.400000006,540762.700000003,535406.672,535420.5,535423.311,540773.269,1,40,,
trial,html.Screen,6_33_0,2023-11-15T20:33:14.592Z,,,,1,-1.0878102877901663,-0.9483364581769096,,true,hh,3133.3310000089696,response,1.0996798766352407,0.9499999999999997,-0.9499999999999997,0.9259269949251356,0.9499999999999997,-0.9499999999999997,high,high,,ISIC_1413242.JPG,,ISIC_0030970.JPG,167,true,hh,keypress(i),0,false,543906.799999997,543906.6000000089,540756.543,540763.700000003,540773.269,543923.449,1,40,34,
sequence,flow.Sequence,6_33,2023-11-15T20:33:14.592Z,,,,,,,,,,3133.3310000089696,completion,,,,,,,high,high,,,,,,true,,,,false,543907.299999997,543906.6000000089,540756.543,540763.5,540773.269,543923.449,1,40,,
trial,html.Screen,6_34_0,2023-11-15T20:33:19.760Z,,,,1,0.8200962008791046,-0.7936051642828523,,true,lh,5151.251000002958,response,-0.8179805381029407,0.9499999999999997,-0.9499999999999997,0.8578467162767749,0.9499999999999997,-0.9499999999999997,low,high,,ISIC_0027031.JPG,,ISIC_0067253.JPG,28,true,lh,keypress(e),0,false,549074.900000006,549074.700000003,543906.721,543907.5,543923.449,549090.111,1,40,35,
sequence,flow.Sequence,6_34,2023-11-15T20:33:19.760Z,,,,,,,,,,5151.251000002958,completion,,,,,,,low,high,,,,,,true,,,,false,549075.299999997,549074.700000003,543906.721,543907.400000006,543923.449,549090.111,1,40,,
trial,html.Screen,6_35_0,2023-11-15T20:33:23.160Z,,,,1,0.9125678790631364,0.9430679164922772,,true,ll,3384.489000008907,response,-0.9949403898803344,0.9499999999999997,-0.9499999999999997,-1.0036806409150678,0.9499999999999997,-0.9499999999999997,low,low,,ISIC_0062111.JPG,,ISIC_0012450.JPG,142,true,ll,keypress(f),0,false,552474.900000006,552474.6000000089,549073.318,549075.5,549090.111,552489.862,1,40,36,
sequence,flow.Sequence,6_35,2023-11-15T20:33:23.160Z,,,,,,,,,,3384.489000008907,completion,,,,,,,low,low,,,,,,true,,,,false,552475.400000006,552474.6000000089,549073.318,549075.5,549090.111,552489.862,1,40,,
trial,html.Screen,6_36_0,2023-11-15T20:33:28.399Z,,,,1,0.9873794329144926,-0.7991077882008257,,true,lh,5223.437999997055,response,-0.7836356408583546,0.9499999999999997,-0.9499999999999997,1.1197925594706428,0.9499999999999997,-0.9499999999999997,low,high,,ISIC_0013498.JPG,,ISIC_0024961.JPG,28,true,lh,keypress(e),0,false,557713.400000006,557713.299999997,552473.362,552475.5,552489.862,557723.193,1,40,37,
sequence,flow.Sequence,6_36,2023-11-15T20:33:28.399Z,,,,,,,,,,5223.437999997055,completion,,,,,,,low,high,,,,,,true,,,,false,557713.6000000089,557713.299999997,552473.362,552475.5,552489.862,557723.193,1,40,,
trial,html.Screen,6_37_0,2023-11-15T20:33:32.921Z,,,,1,0.8623414234919863,-0.782830143980698,,true,lh,4512.20700000599,response,-1.1181734135756094,0.9499999999999997,-0.9499999999999997,0.944560381774994,0.9499999999999997,-0.9499999999999997,low,high,,ISIC_2727016.JPG,,ISIC_9688534.JPG,28,true,lh,keypress(e),0,false,562235.799999997,562235.400000006,557706.626,557713.6000000089,557723.193,562239.915,1,40,38,
sequence,flow.Sequence,6_37,2023-11-15T20:33:32.921Z,,,,,,,,,,4512.20700000599,completion,,,,,,,low,high,,,,,,true,,,,false,562236.200000003,562235.400000006,557706.626,557713.6000000089,557723.193,562239.915,1,40,,
trial,html.Screen,6_38_0,2023-11-15T20:33:36.496Z,,,,1,0.7809949855371787,-0.8493861117004308,,true,lh,3570.3849999969825,response,-0.7933921755497018,0.9499999999999997,-0.9499999999999997,0.7692916291112835,0.9499999999999997,-0.9499999999999997,low,high,,ISIC_7450481.JPG,,ISIC_7844825.JPG,28,true,lh,keypress(e),0,false,565810.6000000089,565810.299999997,562223.283,562236.400000006,562239.915,565823.341,1,40,39,
sequence,flow.Sequence,6_38,2023-11-15T20:33:36.496Z,,,,,,,,,,3570.3849999969825,completion,,,,,,,low,high,,,,,,true,,,,false,565811,565810.299999997,562223.283,562236.400000006,562239.915,565823.341,1,40,,
trial,html.Screen,6_39_0,2023-11-15T20:33:40.689Z,,,,1,0.9125678790631364,0.9430679164922772,,true,ll,4179.958999997005,response,-0.8318514901182542,0.9499999999999997,-0.9499999999999997,-0.9538458994523976,0.9499999999999997,-0.9499999999999997,low,low,,ISIC_0062111.JPG,,ISIC_3161477.JPG,142,true,ll,keypress(f),0,false,570003.6000000089,570003.299999997,565806.688,565811.200000003,565823.341,570006.544,1,40,40,
sequence,flow.Sequence,6_39,2023-11-15T20:33:40.689Z,,,,,,,,,,4179.958999997005,completion,,,,,,,low,low,,,,,,true,,,,false,570004,570003.299999997,565806.688,565811.1000000089,565823.341,570006.544,1,40,,
practice_loop,flow.Loop,6,2023-11-15T20:33:40.690Z,,,,,,,,,,220829.53399999702,completion,,,,,,,,,,,,,,true,,,,false,570004.299999997,570003.299999997,349157.319,349177.40000000596,349173.766,570006.544,1,40,,
stair_instructions,html.Screen,7,2023-11-15T20:33:58.926Z,,,,,,,,,,18233.656000002986,response,,,,,,,,,,,,,,,continue,click button,,,588240.700000003,588240.200000003,569989.692,570004.400000006,570006.544,588256.691,,,,
trial,html.Screen,8_0_0,2023-11-15T20:34:09.926Z,,,,2,0.0107854985447517,0.0478010417136109,,,,11016.52899999998,timeout,0.8597768256741747,0.9499999999999997,-0.9499999999999997,1.1001121427563445,0.9499999999999997,-0.9499999999999997,high,high,,ISIC_0010500.JPG,,ISIC_5922588.JPG,167,false,,,0,true,599240.799999997,599240.5,588239.872,588240.799999997,588256.691,599273.22,1,40,1,
sequence,flow.Sequence,8_0,2023-11-15T20:34:09.927Z,,,,,,,,,,10983.809000000008,completion,,,,,,,high,high,,,,,,false,,,,true,599241.299999997,599240.5,588239.872,588240.799999997,588256.691,599273.22,1,40,,
trial,html.Screen,8_1_0,2023-11-15T20:34:16.706Z,,,,2,0.0640778296621707,0.0387686079545705,,false,hl,6746.780000000028,response,0.9235571765207048,0.9499999999999997,-0.9499999999999997,-1.0008081653938232,0.9499999999999997,-0.9499999999999997,high,low,,ISIC_0010124.JPG,,ISIC_8796632.JPG,26,false,lh,keypress(e),0,true,606020.299999997,606020,599256.662,599241.400000006,599273.22,606039.799,1,40,2,
sequence,flow.Sequence,8_1,2023-11-15T20:34:16.706Z,,,,,,,,,,6746.780000000028,completion,,,,,,,high,low,,,,,,false,,,,true,606020.799999997,606020,599256.662,599241.400000006,599273.22,606039.799,1,40,,
trial,html.Screen,8_2_0,2023-11-15T20:34:22.840Z,,,,2,-0.0565575423757561,-0.0394300226801425,,false,lh,6114.701000000001,response,-1.020990671779317,0.9999999999999998,-0.9499999999999997,1.0116513850520903,0.9499999999999997,-0.9999999999999998,low,high,,ISIC_0046983.JPG,,ISIC_0011995.JPG,28,false,hl,keypress(j),0,true,612154.799999997,612154.5,606023.068,606021,606039.799,612173.59,1,40,3,
sequence,flow.Sequence,8_2,2023-11-15T20:34:22.840Z,,,,,,,,,,6114.701000000001,completion,,,,,,,low,high,,,,,,false,,,,true,612155.200000003,612154.5,606023.068,606020.799999997,606039.799,612173.59,1,40,,
trial,html.Screen,8_3_0,2023-11-15T20:34:29.097Z,,,,2,0.0107854985447517,0.0478010417136109,,true,hh,6237.209999997052,response,1.1135119625680223,0.9999999999999998,-0.9999999999999998,0.8824045702297937,0.9999999999999998,-0.9999999999999998,high,high,,ISIC_0010500.JPG,,ISIC_6899527.JPG,137,false,hh,keypress(i),0,true,618411.1000000089,618410.799999997,612139.502,612155.299999997,612173.59,618423.113,1,40,4,
sequence,flow.Sequence,8_3,2023-11-15T20:34:29.097Z,,,,,,,,,,6237.209999997052,completion,,,,,,,high,high,,,,,,false,,,,true,618411.5,618410.799999997,612139.502,612155.299999997,612173.59,618423.113,1,40,,
trial,html.Screen,8_4_0,2023-11-15T20:34:34.441Z,,,,2,0.007397293189458,0.0174716772037504,,true,hh,5332.186999997008,response,0.8597768256741747,0.9999999999999998,-0.9999999999999998,1.1001121427563445,0.9999999999999998,-0.9999999999999998,high,high,,ISIC_0056226.JPG,,ISIC_5922588.JPG,137,false,hh,keypress(i),0,true,623755.700000003,623755.299999997,618406.297,618411.700000003,618423.113,623773.163,1,40,5,
sequence,flow.Sequence,8_4,2023-11-15T20:34:34.441Z,,,,,,,,,,5332.186999997008,completion,,,,,,,high,high,,,,,,false,,,,true,623756.1000000089,623755.299999997,618406.297,618411.700000003,618423.113,623773.163,1,40,,
trial,html.Screen,8_5_0,2023-11-15T20:34:39.968Z,,,,2,-0.0112310719058792,0.0469047359904117,,false,hl,5509.337000000058,response,0.7833710010171356,0.941258356493069,-0.9999999999999998,-0.9315588090336896,0.941258356493069,-0.9999999999999998,high,low,,ISIC_0068184.JPG,,ISIC_3826102.JPG,21,false,ll,keypress(f),0,true,629282.799999997,629282.5,623756.178,623756.200000003,623773.163,629289.661,1,40,6,
sequence,flow.Sequence,8_5,2023-11-15T20:34:39.969Z,,,,,,,,,,5509.337000000058,completion,,,,,,,high,low,,,,,,false,,,,true,629283.200000003,629282.5,623756.178,623756.200000003,623773.163,629289.661,1,40,,
trial,html.Screen,8_6_0,2023-11-15T20:34:44.920Z,,,,2,0.0511770300585718,0.029030243555971,,true,ll,4944.439000008977,response,-1.0525847190618245,0.991258356493069,-0.9999999999999998,-0.934080360486692,0.941258356493069,-0.9999999999999998,low,low,,ISIC_6652978.JPG,,ISIC_0010684.JPG,131,false,ll,keypress(f),0,true,634234.400000006,634234.1000000089,629273.06,629283.299999997,629289.661,634239.702,1,40,7,
sequence,flow.Sequence,8_6,2023-11-15T20:34:44.920Z,,,,,,,,,,4944.439000008977,completion,,,,,,,low,low,,,,,,false,,,,true,634234.799999997,634234.1000000089,629273.06,629283.299999997,629289.661,634239.702,1,40,,
trial,html.Screen,8_7_0,2023-11-15T20:34:50.906Z,,,,2,-0.0362376068089956,-0.047825070846155,,false,ll,5980.597999996971,response,-0.8323753563397326,0.991258356493069,-0.9999999999999998,-1.0355093302574103,0.941258356493069,-0.9433325397742582,low,low,,ISIC_6985114.JPG,,ISIC_0046729.JPG,141,false,lh,keypress(e),0,true,640220.400000006,640220.299999997,634222.849,634234.900000006,634239.702,640222.934,1,40,8,
sequence,flow.Sequence,8_7,2023-11-15T20:34:50.906Z,,,,,,,,,,5980.597999996971,completion,,,,,,,low,low,,,,,,false,,,,true,640220.400000006,640220.299999997,634222.849,634234.900000006,634239.702,640222.934,1,40,,
trial,html.Screen,8_8_0,2023-11-15T20:34:57.791Z,,,,2,0.0111354529246037,-0.0585810480909377,,false,hl,6882.565999999992,response,0.7809949855371787,0.941258356493069,-0.8424800377007784,-0.8493861117004308,0.891258356493069,-0.9433325397742582,high,low,,ISIC_7858034.JPG,,ISIC_7450481.JPG,27,false,hh,keypress(i),0,true,647105.6000000089,647105.5,640206.272,640220.400000006,640222.934,647123.665,1,40,9,
sequence,flow.Sequence,8_8,2023-11-15T20:34:57.791Z,,,,,,,,,,6882.565999999992,completion,,,,,,,high,low,,,,,,false,,,,true,647105.700000003,647105.5,640206.272,640220.400000006,640222.934,647123.665,1,40,,
trial,html.Screen,8_9_0,2023-11-15T20:35:04.992Z,,,,2,0.0085520978188085,-0.0464691161264081,,true,hh,7182.834999999963,response,0.7575535538842866,0.941258356493069,-0.8424800377007784,0.7059460714049748,0.891258356493069,-0.9933325397742583,high,high,,ISIC_0758797.JPG,,ISIC_0066506.JPG,179,false,hh,keypress(i),0,true,654306.700000003,654306.5,647089.484,647105.799999997,647123.665,654322.985,1,40,10,
sequence,flow.Sequence,8_9,2023-11-15T20:35:04.993Z,,,,,,,,,,7182.834999999963,completion,,,,,,,high,high,,,,,,false,,,,true,654307.1000000089,654306.5,647089.484,647105.799999997,647123.665,654322.985,1,40,,
trial,html.Screen,8_10_0,2023-11-15T20:35:11.153Z,,,,2,0.0324770283903853,0.0249968632204382,,true,lh,6144.015000000014,response,-0.7401156491866404,0.6817498126446306,-0.8424800377007784,0.94165594025755,0.891258356493069,-0.9933325397742583,low,high,,ISIC_7266462.JPG,,ISIC_0072429.JPG,46,false,lh,keypress(e),0,true,660467.299999997,660467,654306.208,654307.299999997,654322.985,660472.95,1,40,11,
sequence,flow.Sequence,8_10,2023-11-15T20:35:11.153Z,,,,,,,,,,6144.015000000014,completion,,,,,,,low,high,,,,,,false,,,,true,660467.700000003,660467,654306.208,654307.299999997,654322.985,660472.95,1,40,,
trial,html.Screen,8_11_0,2023-11-15T20:35:17.960Z,,,,2,0.0111354529246037,-0.0585810480909377,,false,lh,6801.349999997066,response,-0.969947771489652,0.6817498126446306,-0.8424800377007784,0.6651811306243314,0.8412583564930689,-0.9933325397742583,low,high,,ISIC_7858034.JPG,,ISIC_7254389.JPG,57,false,ll,keypress(f),0,true,667274.400000006,667274.299999997,660456.188,660467.900000006,660472.95,667289.625,1,40,12,
sequence,flow.Sequence,8_11,2023-11-15T20:35:17.960Z,,,,,,,,,,6801.349999997066,completion,,,,,,,low,high,,,,,,false,,,,true,667274.900000006,667274.299999997,660456.188,660467.900000006,660472.95,667289.625,1,40,,
trial,html.Screen,8_12_0,2023-11-15T20:35:22.201Z,,,,2,0.0509970506474296,0.0744820958440291,,false,hl,4225.375,response,0.7871162143493278,0.6817498126446306,-0.8050317103381461,-0.8429329800778957,0.891258356493069,-0.9933325397742583,high,low,,ISIC_0009975.JPG,,ISIC_3439215.JPG,47,false,ll,keypress(f),0,true,671515.299999997,671515,667272.734,667275,667289.625,671522.877,1,40,13,
sequence,flow.Sequence,8_12,2023-11-15T20:35:22.201Z,,,,,,,,,,4225.375,completion,,,,,,,high,low,,,,,,false,,,,true,671515.700000003,671515,667272.734,667275,667289.625,671522.877,1,40,,
trial,html.Screen,8_13_0,2023-11-15T20:35:28.361Z,,,,2,0.0509970506474296,0.0744820958440291,,false,hl,6151.922999997041,response,0.8200962008791046,0.7317498126446307,-0.8050317103381461,-0.7936051642828523,0.891258356493069,-0.9933325397742583,high,low,,ISIC_0009975.JPG,,ISIC_0027031.JPG,40,false,ll,keypress(f),0,true,677675,677674.799999997,671506.099,671516,671522.877,677689.575,1,40,14,
sequence,flow.Sequence,8_13,2023-11-15T20:35:28.361Z,,,,,,,,,,6151.922999997041,completion,,,,,,,high,low,,,,,,false,,,,true,677675.400000006,677674.799999997,671506.099,671515.900000006,671522.877,677689.575,1,40,,
trial,html.Screen,8_14_0,2023-11-15T20:35:36.718Z,,,,2,-0.0021038737988857,0.0570427519488725,,false,lh,8342.925000000047,response,-0.7668300064246735,0.7817498126446307,-0.8050317103381461,0.7079689798840642,0.891258356493069,-0.768269072180374,low,high,,ISIC_3596927.JPG,,ISIC_0058863.JPG,54,false,ll,keypress(f),0,true,686032.5,686032.5,677672.82,677675.6000000089,677689.575,686039.469,1,40,15,
sequence,flow.Sequence,8_14,2023-11-15T20:35:36.718Z,,,,,,,,,,8342.925000000047,completion,,,,,,,low,high,,,,,,false,,,,true,686032.700000003,686032.5,677672.82,677675.6000000089,677689.575,686039.469,1,40,,
trial,html.Screen,8_15_0,2023-11-15T20:35:40.553Z,,,,2,-0.0051189696037511,0.0396625911332438,,true,hh,3827.2310000029393,response,0.6867208511502763,0.7817498126446307,-0.8050317103381461,0.9657289110900686,0.941258356493069,-0.768269072180374,high,high,,ISIC_9742891.JPG,,ISIC_0063447.JPG,214,false,hh,keypress(i),0,true,689867,689866.700000003,686022.653,686032.799999997,686039.469,689872.902,1,40,16,
sequence,flow.Sequence,8_15,2023-11-15T20:35:40.553Z,,,,,,,,,,3827.2310000029393,completion,,,,,,,high,high,,,,,,false,,,,true,689867.5,689866.700000003,686022.653,686032.799999997,686039.469,689872.902,1,40,,
trial,html.Screen,8_16_0,2023-11-15T20:35:49.568Z,,,,2,0.0107854985447517,0.0478010417136109,,false,ll,9009.498000005959,response,-0.8505030116412483,0.7817498126446307,-0.8050317103381461,-0.5764926348526587,0.941258356493069,-0.768269072180374,low,low,,ISIC_0010500.JPG,,ISIC_4867043.JPG,272,false,hl,keypress(j),0,true,698882.6000000089,698882.400000006,689856.195,689867.6000000089,689872.902,698889.534,1,40,17,
sequence,flow.Sequence,8_16,2023-11-15T20:35:49.569Z,,,,,,,,,,9009.498000005959,completion,,,,,,,low,low,,,,,,false,,,,true,698882.900000006,698882.400000006,689856.195,689867.6000000089,689872.902,698889.534,1,40,,
trial,html.Screen,8_17_0,2023-11-15T20:35:53.935Z,,,,2,-0.059471106306043,0.0678292174694111,,true,hl,4359.666000002995,response,0.8947611078712571,0.7817498126446307,-0.8550317103381462,-0.8960964505004638,0.941258356493069,-0.768269072180374,high,low,,ISIC_0015631.JPG,,ISIC_6441128.JPG,71,false,hl,keypress(j),0,true,703249.200000003,703249.200000003,698872.527,698883.200000003,698889.534,703256.182,1,40,18,
sequence,flow.Sequence,8_17,2023-11-15T20:35:53.935Z,,,,,,,,,,4359.666000002995,completion,,,,,,,high,low,,,,,,false,,,,true,703249.400000006,703249.200000003,698872.527,698883.200000003,698889.534,703256.182,1,40,,
trial,html.Screen,8_18_0,2023-11-15T20:35:58.497Z,,,,2,0.0509970506474296,0.0744820958440291,,false,hh,4555.01800000295,response,0.8745213387814831,0.7317498126446307,-0.8550317103381462,0.7523163498880049,0.941258356493069,-0.6862945426765612,high,high,,ISIC_0009975.JPG,,ISIC_0054677.JPG,224,false,hl,keypress(j),0,true,707811.400000006,707811.200000003,703239.568,703249.5,703256.182,707822.943,1,40,19,
sequence,flow.Sequence,8_18,2023-11-15T20:35:58.498Z,,,,,,,,,,4555.01800000295,completion,,,,,,,high,high,,,,,,false,,,,true,707811.900000006,707811.200000003,703239.568,703249.400000006,703256.182,707822.943,1,40,,
trial,html.Screen,8_19_0,2023-11-15T20:36:05.647Z,,,,2,-0.000047919190197942736,-0.0462652940855003,,false,hh,7138.05700000003,response,0.732465136047461,0.7317498126446307,-0.8550317103381462,1.075325928880211,0.991258356493069,-0.6862945426765612,high,high,,ISIC_0011507.JPG,,ISIC_0062301.JPG,205,false,lh,keypress(e),0,true,714961.1000000089,714961,707806.219,707812.1000000089,707822.943,714972.93,1,40,20,
sequence,flow.Sequence,8_19,2023-11-15T20:36:05.647Z,,,,,,,,,,7138.05700000003,completion,,,,,,,high,high,,,,,,false,,,,true,714961.200000003,714961,707806.219,707812,707822.943,714972.93,1,40,,
trial,html.Screen,8_20_0,2023-11-15T20:36:09.144Z,,,,2,-0.0348234368746005,0.0236866303880924,,true,ll,3485.069999999949,response,-0.8670473182120986,0.7817498126446307,-0.8550317103381462,-0.7813797649042047,0.991258356493069,-0.6862945426765612,low,low,,ISIC_0011099.JPG,,ISIC_0069257.JPG,268,false,ll,keypress(f),0,true,718458.200000003,718458,714955.851,714961.299999997,714972.93,718472.84,1,40,21,
sequence,flow.Sequence,8_20,2023-11-15T20:36:09.144Z,,,,,,,,,,3485.069999999949,completion,,,,,,,low,low,,,,,,false,,,,true,718458.6000000089,718458,714955.851,714961.299999997,714972.93,718472.84,1,40,,
trial,html.Screen,8_21_0,2023-11-15T20:36:16.017Z,,,,2,0.0544808612748248,-0.0240487075377862,,false,lh,6858.459999997052,response,-0.8487429103619056,0.7817498126446307,-0.8550317103381462,0.9778257804233036,0.991258356493069,-0.6862945426765612,low,high,,ISIC_4606646.JPG,,ISIC_4554863.JPG,35,false,hl,keypress(j),0,true,725331.5,725331.299999997,718456.107,718458.700000003,718472.84,725339.4,1,40,22,
sequence,flow.Sequence,8_21,2023-11-15T20:36:16.018Z,,,,,,,,,,6858.459999997052,completion,,,,,,,low,high,,,,,,false,,,,true,725332,725331.299999997,718456.107,718458.700000003,718472.84,725339.4,1,40,,
trial,html.Screen,8_22_0,2023-11-15T20:36:21.721Z,,,,2,-0.0644357632656846,-0.0501167370292348,,false,lh,5695.3999999969965,response,-1.0751036484083878,0.7817498126446307,-0.9050317103381462,1.143906455483852,1.041258356493069,-0.6862945426765612,low,high,,ISIC_5207050.JPG,,ISIC_0064406.JPG,28,false,hh,keypress(i),0,true,731035,731034.799999997,725322.643,725332.1000000089,725339.4,731039.443,1,40,23,
sequence,flow.Sequence,8_22,2023-11-15T20:36:21.721Z,,,,,,,,,,5695.3999999969965,completion,,,,,,,low,high,,,,,,false,,,,true,731035.400000006,731034.799999997,725322.643,725332.1000000089,725339.4,731039.443,1,40,,
trial,html.Screen,8_23_0,2023-11-15T20:36:29.345Z,,,,2,-0.0149482827359613,0.0661630859332833,,false,ll,7619.1570000089705,response,-0.9669871499604612,0.7817498126446307,-0.9550317103381463,-0.5971396089487134,1.041258356493069,-0.6862945426765612,low,low,,ISIC_6815524.JPG,,ISIC_0055783.JPG,217,false,lh,keypress(e),0,true,738658.900000006,738658.6000000089,731022.685,731035.6000000089,731039.443,738672.77,1,40,24,
sequence,flow.Sequence,8_23,2023-11-15T20:36:29.345Z,,,,,,,,,,7619.1570000089705,completion,,,,,,,low,low,,,,,,false,,,,true,738659.299999997,738658.6000000089,731022.685,731035.5,731039.443,738672.77,1,40,,
trial,html.Screen,8_24_0,2023-11-15T20:36:38.687Z,,,,2,0.0116094682222121,-0.0258434522530318,,true,hl,9327.930000002962,response,0.6829931324912223,0.7817498126446307,-0.9550317103381463,-0.6177402066684206,1.041258356493069,-0.7362945426765612,high,low,,ISIC_9239632.JPG,,ISIC_0025648.JPG,75,false,hl,keypress(j),0,true,748000.700000003,748000.700000003,738656.053,738659.5,738672.77,748005.965,1,40,25,
sequence,flow.Sequence,8_24,2023-11-15T20:36:38.687Z,,,,,,,,,,9327.930000002962,completion,,,,,,,high,low,,,,,,false,,,,true,748000.799999997,748000.700000003,738656.053,738659.5,738672.77,748005.965,1,40,,
trial,html.Screen,8_25_0,2023-11-15T20:36:45.096Z,,,,2,-0.0097091270150747,0.0417921315885292,,false,hl,6404.334999997052,response,0.7723849213858904,0.7817498126446307,-0.9550317103381463,-0.888372424147899,1.041258356493069,-0.7362945426765612,high,low,,ISIC_3967213.JPG,,ISIC_3884221.JPG,75,false,hh,keypress(i),0,true,754410.6000000089,754410.299999997,747989.25,748000.900000006,748005.965,754422.661,1,40,26,
sequence,flow.Sequence,8_25,2023-11-15T20:36:45.097Z,,,,,,,,,,6404.334999997052,completion,,,,,,,high,low,,,,,,false,,,,true,754410.900000006,754410.299999997,747989.25,748000.900000006,748005.965,754422.661,1,40,,
trial,html.Screen,8_26_0,2023-11-15T20:36:49.009Z,,,,2,-0.0644357632656846,-0.0501167370292348,,false,ll,3899.739000005997,response,-0.8863853453867395,0.7317498126446307,-0.9550317103381463,-0.6309349612476222,1.041258356493069,-0.7862945426765613,low,low,,ISIC_5207050.JPG,,ISIC_7206167.JPG,182,false,lh,keypress(e),0,true,758322.700000003,758322.400000006,754405.9,754411.1000000089,754422.661,758339.331,1,40,27,
sequence,flow.Sequence,8_26,2023-11-15T20:36:49.009Z,,,,,,,,,,3899.739000005997,completion,,,,,,,low,low,,,,,,false,,,,true,758323.1000000089,758322.400000006,754405.9,754411.1000000089,754422.661,758339.331,1,40,,
trial,html.Screen,8_27_0,2023-11-15T20:36:56.936Z,,,,2,-0.0693466529227737,-0.044703434393184,,true,ll,7910.968999997014,response,-0.6306507730816445,0.7317498126446307,-0.7020627760275799,-0.8231972302191964,1.041258356493069,-0.8362945426765613,low,low,,ISIC_0004217.JPG,,ISIC_7973296.JPG,265,false,ll,keypress(f),0,true,766250.5,766250.299999997,758322.725,758323.299999997,758339.331,766256.011,1,40,28,
sequence,flow.Sequence,8_27,2023-11-15T20:36:56.937Z,,,,,,,,,,7910.968999997014,completion,,,,,,,low,low,,,,,,false,,,,true,766250.900000006,766250.299999997,758322.725,758323.200000003,758339.331,766256.011,1,40,,
trial,html.Screen,8_28_0,2023-11-15T20:37:05.393Z,,,,2,-0.059471106306043,0.0678292174694111,,true,ll,8450.988999999943,response,-0.8626849314423831,0.7317498126446307,-0.7020627760275799,-0.8919402924145458,1.041258356493069,-0.8362945426765613,low,low,,ISIC_0015631.JPG,,ISIC_0026371.JPG,265,false,ll,keypress(f),0,true,774707.299999997,774707,766239.181,766251.1000000089,766256.011,774722.742,1,40,29,
sequence,flow.Sequence,8_28,2023-11-15T20:37:05.394Z,,,,,,,,,,8450.988999999943,completion,,,,,,,low,low,,,,,,false,,,,true,774707.6000000089,774707,766239.181,766251,766256.011,774722.742,1,40,,
trial,html.Screen,8_29_0,2023-11-15T20:37:09.865Z,,,,2,-0.0737104822171846,0.0725320314728604,,true,hh,4455.758000000031,response,0.7023241123957465,0.7317498126446307,-0.807568761316871,1.2030823621789808,1.041258356493069,-0.807568761316871,high,high,,ISIC_0002862.JPG,,ISIC_0067206.JPG,183,false,hh,keypress(i),0,true,779178.700000003,779178.5,774705.871,774707.799999997,774722.742,779189.306,1,40,30,
sequence,flow.Sequence,8_29,2023-11-15T20:37:09.865Z,,,,,,,,,,4455.758000000031,completion,,,,,,,high,high,,,,,,false,,,,true,779179.1000000089,779178.5,774705.871,774707.799999997,774722.742,779189.306,1,40,,
trial,html.Screen,8_30_0,2023-11-15T20:37:16.263Z,,,,2,-0.013431314305098,0.0140597582944232,,false,hl,6387.4939999970375,response,0.9014321140874824,0.7317498126446307,-0.807568761316871,-0.7062038626894745,0.9027032372873636,-0.807568761316871,high,low,,ISIC_0069617.JPG,,ISIC_3654454.JPG,74,false,ll,keypress(f),0,true,785577,785576.799999997,779172.481,779179.299999997,779189.306,785589.356,1,40,31,
sequence,flow.Sequence,8_30,2023-11-15T20:37:16.263Z,,,,,,,,,,6387.4939999970375,completion,,,,,,,high,low,,,,,,false,,,,true,785577.1000000089,785576.799999997,779172.481,779179.200000003,779189.306,785589.356,1,40,,
trial,html.Screen,8_31_0,2023-11-15T20:37:21.271Z,,,,2,-0.0097091270150747,0.0417921315885292,,true,hh,4995.544000005932,response,0.8691120116185356,0.7817498126446307,-0.807568761316871,0.7932562349979263,0.9027032372873636,-0.807568761316871,high,high,,ISIC_3967213.JPG,,ISIC_0031350.JPG,217,false,hh,keypress(i),0,true,790585,790584.900000006,785572.485,785577.200000003,785589.356,790589.203,1,40,32,
sequence,flow.Sequence,8_31,2023-11-15T20:37:21.271Z,,,,,,,,,,4995.544000005932,completion,,,,,,,high,high,,,,,,false,,,,true,790585.200000003,790584.900000006,785572.485,785577.200000003,785589.356,790589.203,1,40,,
trial,html.Screen,8_32_0,2023-11-15T20:37:27.200Z,,,,2,-0.0688801591312476,-0.0185462113313342,,false,lh,5924.897000008961,response,-0.689670632754227,0.7817498126446307,-0.807568761316871,0.7602523156097264,0.9027032372873636,-0.807568761316871,low,high,,ISIC_0067723.JPG,,ISIC_0011627.JPG,54,false,hh,keypress(i),0,true,796514.299999997,796514.1000000089,790572.629,790585.200000003,790589.203,796522.501,1,40,33,
sequence,flow.Sequence,8_32,2023-11-15T20:37:27.200Z,,,,,,,,,,5924.897000008961,completion,,,,,,,low,high,,,,,,false,,,,true,796514.5,796514.1000000089,790572.629,790585.200000003,790589.203,796522.501,1,40,,
trial,html.Screen,8_33_0,2023-11-15T20:37:32.519Z,,,,2,0.0194167651857046,0.0726253809408601,,false,lh,5310.798999996972,response,-0.8860551570327019,0.7817498126446307,-0.8575687613168711,0.8067116931297591,0.7267542753038263,-0.807568761316871,low,high,,ISIC_0056692.JPG,,ISIC_1457687.JPG,70,false,ll,keypress(f),0,true,801833.299999997,801833.299999997,796505.788,796514.5,796522.501,801839.174,1,40,34,
sequence,flow.Sequence,8_33,2023-11-15T20:37:32.520Z,,,,,,,,,,5310.798999996972,completion,,,,,,,low,high,,,,,,false,,,,true,801833.400000006,801833.299999997,796505.788,796514.5,796522.501,801839.174,1,40,,
trial,html.Screen,8_34_0,2023-11-15T20:37:37.009Z,,,,2,-0.0516762988734011,0.0130195499281172,,true,hh,4483.526000002981,response,0.7512357438170302,0.7817498126446307,-0.8575687613168711,0.6690527044719874,0.7767542753038263,-0.807568761316871,high,high,,ISIC_9978498.JPG,,ISIC_0032269.JPG,253,false,hh,keypress(i),0,true,806322.900000006,806322.700000003,801822.515,801833.5,801839.174,806339.427,1,40,35,
sequence,flow.Sequence,8_34,2023-11-15T20:37:37.009Z,,,,,,,,,,4483.526000002981,completion,,,,,,,high,high,,,,,,false,,,,true,806323.299999997,806322.700000003,801822.515,801833.5,801839.174,806339.427,1,40,,
trial,html.Screen,8_35_0,2023-11-15T20:37:44.280Z,,,,2,,-0.0264544974620926,,true,hl,7254.673000008916,response,0.5778860106559912,0.6601442241445088,-0.8575687613168711,-0.6085661221804143,0.7767542753038263,-0.807568761316871,high,low,,ISIC_0056991.JPG,,ISIC_1470934.JPG,89,false,hl,keypress(j),0,true,813594.299999997,813594.1000000089,806322.434,806323.6000000089,806339.427,813605.887,1,40,36,
sequence,flow.Sequence,8_35,2023-11-15T20:37:44.281Z,,,,,,,,,,7254.673000008916,completion,,,,,,,high,low,,,,,,false,,,,true,813594.700000003,813594.1000000089,806322.434,806323.400000006,806339.427,813605.887,1,40,,
trial,html.Screen,8_36_0,2023-11-15T20:37:50.016Z,,,,2,0.0027483411352856,0.0100996915276271,,true,ll,5724.013000005973,response,-0.8505030116412483,0.6601442241445088,-0.8575687613168711,-0.5764926348526587,0.7767542753038263,-0.757568761316871,low,low,,ISIC_7364041.JPG,,ISIC_4867043.JPG,252,false,ll,keypress(f),0,true,819330.1000000089,819329.900000006,813589.087,813594.900000006,813605.887,819339.113,1,40,37,
sequence,flow.Sequence,8_36,2023-11-15T20:37:50.017Z,,,,,,,,,,5724.013000005973,completion,,,,,,,low,low,,,,,,false,,,,true,819330.5,819329.900000006,813589.087,813594.799999997,813605.887,819339.113,1,40,,
trial,html.Screen,8_37_0,2023-11-15T20:37:55.233Z,,,,2,0.0336891949856763,0.060314732178219,,true,lh,5207.886999999988,response,-0.6257880275865895,0.6601442241445088,-0.6634978232469535,0.7629099401226335,0.7767542753038263,-0.757568761316871,low,high,,ISIC_6192289.JPG,,ISIC_0028718.JPG,92,false,lh,keypress(e),0,true,824547.200000003,824547,819322.464,819330.700000003,819339.113,824555.751,1,40,38,
sequence,flow.Sequence,8_37,2023-11-15T20:37:55.234Z,,,,,,,,,,5207.886999999988,completion,,,,,,,low,high,,,,,,false,,,,true,824547.700000003,824547,819322.464,819330.6000000089,819339.113,824555.751,1,40,,
trial,html.Screen,8_38_0,2023-11-15T20:38:01.591Z,,,,2,-0.0265457942157377,-0.0704357137706731,,false,ll,6348.949000002933,response,-0.7317102606001565,0.6601442241445088,-0.6634978232469535,-0.8606587687115046,0.7267542753038263,-0.757568761316871,low,low,,ISIC_3123377.JPG,,ISIC_7102028.JPG,319,false,lh,keypress(e),0,true,830904.799999997,830904.700000003,824539.113,824547.799999997,824555.751,830923.792,1,40,39,
sequence,flow.Sequence,8_38,2023-11-15T20:38:01.591Z,,,,,,,,,,6348.949000002933,completion,,,,,,,low,low,,,,,,false,,,,true,830905,830904.700000003,824539.113,824547.799999997,824555.751,830923.792,1,40,,
trial,html.Screen,8_39_0,2023-11-15T20:38:08.040Z,,,,2,0.0247880219471745,-0.0687761754603142,,true,lh,6430.108000005945,response,-0.5940148458258058,0.6601442241445088,-0.628749144093373,0.6288785570130496,0.7267542753038263,-0.807568761316871,low,high,,ISIC_0031745.JPG,,ISIC_0025835.JPG,112,false,lh,keypress(e),0,true,837354.200000003,837353.900000006,830889.127,830905,830923.792,837372.515,1,40,40,
sequence,flow.Sequence,8_39,2023-11-15T20:38:08.041Z,,,,,,,,,,6430.108000005945,completion,,,,,,,low,high,,,,,,false,,,,true,837354.799999997,837353.900000006,830889.127,830905,830923.792,837372.515,1,40,,
stair_loop,flow.Loop,8,2023-11-15T20:38:08.041Z,,,,,,,,,,249097.20900000597,completion,,,,,,,,,,,,,,false,,,,true,837355,837353.900000006,588239.872,588240.799999997,588256.691,837372.515,1,40,,
exp_instructions,html.Screen,9,2023-11-15T20:38:20.672Z,,,,,,,,,,12612.385000005946,response,,,,,,,,,,,,,,,continue,keypress(Space),,,849985.6000000089,849984.900000006,837355.691,837355.200000003,837372.515,849989.111,,,,
trial,html.Screen,10_0_0,2023-11-15T20:38:24.944Z,,,,1,-0.059471106306043,0.0678292174694111,,true,ll,4268.688999996986,response,-0.8962405503857854,0.7388484155195999,-0.8227821202772215,-0.7471974462802605,0.9153986601959782,-0.7704953629287317,low,low,,ISIC_0015631.JPG,9,ISIC_9278685.JPG,257,false,ll,keypress(f),0,false,854258,854257.799999997,849972.182,849986,849989.111,854272.627,4,500,1,
break,html.Screen,10_0_1,2023-11-15T20:38:24.945Z,,,,,,,,,,NaN,,,,,,,,low,low,,,,,,false,,,,false,854259.200000003,854258.799999997,,854258.299999997,,854272.627,4,500,,
break_continue,html.Screen,10_0_2,2023-11-15T20:38:24.946Z,,,,,,,,,,NaN,,,,,,,,low,low,,,,,,false,,,,false,854260,854259.700000003,,854259.400000006,,854272.627,4,500,,
sequence,flow.Sequence,10_0,2023-11-15T20:38:24.946Z,,,,,,,,,,4270.589000002947,completion,,,,,,,low,low,,,,,,false,,,,false,854260.200000003,854259.700000003,849972.182,849985.900000006,849989.111,854272.627,4,500,,
trial,html.Screen,10_1_0,2023-11-15T20:38:28.782Z,,,,1,0.0401045651353626,0.053461375824197,,false,hl,3823.3730000000214,response,0.8103021308201687,0.7388484155195999,-0.8227821202772215,-0.7042733963657423,0.9153986601959782,-0.7704953629287317,high,low,,ISIC_6483504.JPG,9,ISIC_1496194.JPG,81,false,ll,keypress(f),0,false,858096.1000000089,858096,854255.567,854260.400000006,854272.627,858105.684,4,500,2,
break,html.Screen,10_1_1,2023-11-15T20:38:28.783Z,,,,,,,,,,NaN,,,,,,,,high,low,,,,,,false,,,,false,858096.5,858096.5,,858096.299999997,,858105.684,4,500,,
break_continue,html.Screen,10_1_2,2023-11-15T20:38:28.783Z,,,,,,,,,,NaN,,,,,,,,high,low,,,,,,false,,,,false,858096.799999997,858096.700000003,,858096.6000000089,,858105.684,4,500,,
sequence,flow.Sequence,10_1,2023-11-15T20:38:28.783Z,,,,,,,,,,3824.0730000030017,completion,,,,,,,high,low,,,,,,false,,,,false,858096.900000006,858096.700000003,854255.567,854260.400000006,854272.627,858105.684,4,500,,
trial,html.Screen,10_2_0,2023-11-15T20:38:37.546Z,,,,1,-0.0348234368746005,0.0236866303880924,,false,ll,8753.416000008932,response,-0.8297014589569788,0.7388484155195999,-0.8227821202772215,-0.7466919175204653,0.9153986601959782,-0.7704953629287317,low,low,,ISIC_0011099.JPG,8,ISIC_4064936.JPG,257,false,lh,keypress(e),0,false,866859.400000006,866859.1000000089,858089.054,858097,858105.684,866872.503,4,500,3,
break,html.Screen,10_2_1,2023-11-15T20:38:37.547Z,,,,,,,,,,NaN,,,,,,,,low,low,,,,,,false,,,,false,866860.400000006,866860.200000003,,866859.799999997,,866872.503,4,500,,
break_continue,html.Screen,10_2_2,2023-11-15T20:38:37.547Z,,,,,,,,,,NaN,,,,,,,,low,low,,,,,,false,,,,false,866861,866860.900000006,,866860.700000003,,866872.503,4,500,,
sequence,flow.Sequence,10_2,2023-11-15T20:38:37.548Z,,,,,,,,,,8755.216000005952,completion,,,,,,,low,low,,,,,,false,,,,false,866861.299999997,866860.900000006,858089.054,858097,858105.684,866872.503,4,500,,
trial,html.Screen,10_3_0,2023-11-15T20:38:40.895Z,,,,1,-0.0292059717970335,-0.0718256867525069,,false,hl,3336.3970000059344,response,0.9388029871780448,0.7388484155195999,-0.8227821202772215,-0.6990723246540984,0.9153986601959782,-0.7704953629287317,high,low,,ISIC_1114966.JPG,8,ISIC_0014190.JPG,81,false,hh,keypress(i),0,false,870209,870208.900000006,866855.702,866861.5,866872.503,870222.363,4,500,4,
break,html.Screen,10_3_1,2023-11-15T20:38:40.896Z,,,,,,,,,,NaN,,,,,,,,high,low,,,,,,false,,,,false,870209.299999997,870209.200000003,,870209.1000000089,,870222.363,4,500,,
break_continue,html.Screen,10_3_2,2023-11-15T20:38:40.896Z,,,,,,,,,,NaN,,,,,,,,high,low,,,,,,false,,,,false,870209.400000006,870209.400000006,,870209.299999997,,870222.363,4,500,,
sequence,flow.Sequence,10_3,2023-11-15T20:38:40.896Z,,,,,,,,,,3336.8970000059344,completion,,,,,,,high,low,,,,,,false,,,,false,870209.5,870209.400000006,866855.702,866861.5,866872.503,870222.363,4,500,,
trial,html.Screen,10_4_0,2023-11-15T20:38:45.552Z,,,,1,0.0415913596725838,-0.0543422987007948,,false,ll,4643.237000008929,response,-1.0064329161780483,0.7388484155195999,-0.8227821202772215,-0.7918012854539199,0.9153986601959782,-0.7704953629287317,low,low,,ISIC_0027956.JPG,8,ISIC_0033137.JPG,257,false,lh,keypress(e),0,false,874865.900000006,874865.6000000089,870205.567,870209.6000000089,870222.363,874872.323,4,500,5,
break,html.Screen,10_4_1,2023-11-15T20:38:45.553Z,,,,,,,,,,NaN,,,,,,,,low,low,,,,,,false,,,,false,874866.799999997,874866.6000000089,,874866.200000003,,874872.323,4,500,,
break_continue,html.Screen,10_4_2,2023-11-15T20:38:45.554Z,,,,,,,,,,NaN,,,,,,,,low,low,,,,,,false,,,,false,874867.299999997,874867.200000003,,874866.900000006,,874872.323,4,500,,
sequence,flow.Sequence,10_4,2023-11-15T20:38:45.554Z,,,,,,,,,,4644.837000002968,completion,,,,,,,low,low,,,,,,false,,,,false,874867.6000000089,874867.200000003,870205.567,870209.6000000089,870222.363,874872.323,4,500,,
trial,html.Screen,10_5_0,2023-11-15T20:38:49.176Z,,,,1,0.0085520978188085,-0.0464691161264081,,true,lh,3617.476999997045,response,-0.6244038963994437,0.7388484155195999,-0.8227821202772215,0.8987343013179191,0.9153986601959782,-0.7704953629287317,low,high,,ISIC_0758797.JPG,9,ISIC_0472513.JPG,53,false,lh,keypress(e),0,false,878490,878489.799999997,874855.742,874867.700000003,874872.323,878505.845,4,500,6,
break,html.Screen,10_5_1,2023-11-15T20:38:49.177Z,,,,,,,,,,NaN,,,,,,,,low,high,,,,,,false,,,,false,878490.900000006,878490.700000003,,878490.299999997,,878505.845,4,500,,
break_continue,html.Screen,10_5_2,2023-11-15T20:38:49.178Z,,,,,,,,,,NaN,,,,,,,,low,high,,,,,,false,,,,false,878491.5,878491.299999997,,878491.1000000089,,878505.845,4,500,,
sequence,flow.Sequence,10_5,2023-11-15T20:38:49.178Z,,,,,,,,,,3618.976999997045,completion,,,,,,,low,high,,,,,,false,,,,false,878491.700000003,878491.299999997,874855.742,874867.6000000089,874872.323,878505.845,4,500,,
trial,html.Screen,10_6_0,2023-11-15T20:38:55.888Z,,,,1,-0.0348234368746005,0.0236866303880924,,false,lh,6695.655000000028,response,-0.6342395687531054,0.7388484155195999,-0.8227821202772215,0.8082990654469779,0.9153986601959782,-0.7704953629287317,low,high,,ISIC_0011099.JPG,9,ISIC_0033368.JPG,53,false,hh,keypress(i),0,false,885201.900000006,885201.5,878489.118,878491.900000006,878505.845,885205.692,4,500,7,
break,html.Screen,10_6_1,2023-11-15T20:38:55.889Z,,,,,,,,,,NaN,,,,,,,,low,high,,,,,,false,,,,false,885202.799999997,885202.6000000089,,885202.1000000089,,885205.692,4,500,,
break_continue,html.Screen,10_6_2,2023-11-15T20:38:55.890Z,,,,,,,,,,NaN,,,,,,,,low,high,,,,,,false,,,,false,885203.400000006,885203.200000003,,885203,,885205.692,4,500,,
sequence,flow.Sequence,10_6,2023-11-15T20:38:55.890Z,,,,,,,,,,6697.355000003008,completion,,,,,,,low,high,,,,,,false,,,,false,885203.700000003,885203.200000003,878489.118,878491.799999997,878505.845,885205.692,4,500,,
trial,html.Screen,10_7_0,2023-11-15T20:39:00.225Z,,,,1,0.0651705891246238,-0.0394586219902573,,true,ll,4332.408000008902,response,-0.9031332540970408,0.7388484155195999,-0.8227821202772215,-0.853200189915778,0.9153986601959782,-0.7704953629287317,low,low,,ISIC_0013491.JPG,9,ISIC_4679971.JPG,257,false,ll,keypress(f),0,false,889538.400000006,889538.1000000089,885189.213,885203.900000006,885205.692,889555.644,4,500,8,
break,html.Screen,10_7_1,2023-11-15T20:39:00.226Z,,,,,,,,,,NaN,,,,,,,,low,low,,,,,,false,,,,false,889539.400000006,889539.200000003,,889538.700000003,,889555.644,4,500,,
break_continue,html.Screen,10_7_2,2023-11-15T20:39:00.226Z,,,,,,,,,,NaN,,,,,,,,low,low,,,,,,false,,,,false,889539.900000006,889539.700000003,,889539.6000000089,,889555.644,4,500,,
sequence,flow.Sequence,10_7,2023-11-15T20:39:00.226Z,,,,,,,,,,4334.008000002941,completion,,,,,,,low,low,,,,,,false,,,,false,889540.200000003,889539.700000003,885189.213,885203.799999997,885205.692,889555.644,4,500,,
trial,html.Screen,10_8_0,2023-11-15T20:39:04.095Z,,,,1,0.0085520978188085,-0.0464691161264081,,true,ll,3852.856000000029,response,-0.7940465751898268,0.7388484155195999,-0.8227821202772215,-0.6590086358119718,0.9153986601959782,-0.7704953629287317,low,low,,ISIC_0758797.JPG,9,ISIC_5509212.JPG,257,false,ll,keypress(f),0,false,893408.700000003,893408.5,889539.01,889540.400000006,889555.644,893422.272,4,500,9,
break,html.Screen,10_8_1,2023-11-15T20:39:04.095Z,,,,,,,,,,NaN,,,,,,,,low,low,,,,,,false,,,,false,893409,893408.900000006,,893408.700000003,,893422.272,4,500,,
break_continue,html.Screen,10_8_2,2023-11-15T20:39:04.095Z,,,,,,,,,,NaN,,,,,,,,low,low,,,,,,false,,,,false,893409.200000003,893409,,893409,,893422.272,4,500,,
sequence,flow.Sequence,10_8,2023-11-15T20:39:04.095Z,,,,,,,,,,3853.356000000029,completion,,,,,,,low,low,,,,,,false,,,,false,893409.200000003,893409,889539.01,889540.400000006,889555.644,893422.272,4,500,,
trial,html.Screen,10_9_0,2023-11-15T20:39:10.511Z,,,,1,-0.0277178575053843,0.0395587463147856,,false,hh,6402.3280000089435,response,0.5883713377120428,0.7388484155195999,-0.8227821202772215,0.9780034573544696,0.9153986601959782,-0.7704953629287317,high,high,,ISIC_0010807.JPG,10,ISIC_0014171.JPG,218,false,hl,keypress(j),0,false,899824.700000003,899824.6000000089,893405.746,893409.299999997,893422.272,899839.05,4,500,10,
break,html.Screen,10_9_1,2023-11-15T20:39:10.511Z,,,,,,,,,,NaN,,,,,,,,high,high,,,,,,false,,,,false,899825,899825,,899824.799999997,,899839.05,4,500,,
break_continue,html.Screen,10_9_2,2023-11-15T20:39:10.511Z,,,,,,,,,,NaN,,,,,,,,high,high,,,,,,false,,,,false,899825.1000000089,899825,,899825,,899839.05,4,500,,
sequence,flow.Sequence,10_9,2023-11-15T20:39:10.511Z,,,,,,,,,,6402.728000000003,completion,,,,,,,high,high,,,,,,false,,,,false,899825.200000003,899825,893405.746,893409.200000003,893422.272,899839.05,4,500,,
trial,html.Screen,10_10_0,2023-11-15T20:39:13.624Z,,,,1,-0.0737104822171846,0.0725320314728604,,false,lh,3098.550000008894,response,-0.7784583866003763,0.7388484155195999,-0.8227821202772215,0.9641514808986528,0.9153986601959782,-0.7704953629287317,low,high,,ISIC_0002862.JPG,9,ISIC_0011924.JPG,53,false,hh,keypress(i),0,false,902938,902937.6000000089,899822.302,899825.200000003,899839.05,902972.389,4,500,11,
break,html.Screen,10_10_1,2023-11-15T20:39:13.625Z,,,,,,,,,,NaN,,,,,,,,low,high,,,,,,false,,,,false,902938.900000006,902938.6000000089,,902938.299999997,,902972.389,4,500,,
break_continue,html.Screen,10_10_2,2023-11-15T20:39:13.626Z,,,,,,,,,,NaN,,,,,,,,low,high,,,,,,false,,,,false,902939.400000006,902939.1000000089,,902938.900000006,,902972.389,4,500,,
sequence,flow.Sequence,10_10,2023-11-15T20:39:13.626Z,,,,,,,,,,3100.050000008894,completion,,,,,,,low,high,,,,,,false,,,,false,902939.6000000089,902939.1000000089,899822.302,899825.200000003,899839.05,902972.389,4,500,,
trial,html.Screen,10_11_0,2023-11-15T20:39:16.216Z,,,,1,0.0651705891246238,-0.0394586219902573,,false,lh,2557.3110000030138,response,-0.879102500583965,0.7388484155195999,-0.8227821202772215,1.0933081951979773,0.9153986601959782,-0.7704953629287317,low,high,,ISIC_0013491.JPG,9,ISIC_0046223.JPG,53,false,hh,keypress(i),0,false,905529.900000006,905529.700000003,902955.845,902939.799999997,902972.389,905538.882,4,500,12,
break,html.Screen,10_11_1,2023-11-15T20:39:16.217Z,,,,,,,,,,NaN,,,,,,,,low,high,,,,,,false,,,,false,905530.799999997,905530.700000003,,905530.200000003,,905538.882,4,500,,
break_continue,html.Screen,10_11_2,2023-11-15T20:39:16.218Z,,,,,,,,,,NaN,,,,,,,,low,high,,,,,,false,,,,false,905531.400000006,905531.200000003,,905530.900000006,,905538.882,4,500,,
sequence,flow.Sequence,10_11,2023-11-15T20:39:16.218Z,,,,,,,,,,2558.8110000030138,completion,,,,,,,low,high,,,,,,false,,,,false,905531.6000000089,905531.200000003,902955.845,902939.700000003,902972.389,905538.882,4,500,,
trial,html.Screen,10_12_0,2023-11-15T20:39:21.409Z,,,,1,0.007397293189458,0.0174716772037504,,false,ll,5183.518000005977,response,-0.6971800224745449,0.7388484155195999,-0.8227821202772215,-0.8192103548837213,0.9153986601959782,-0.7704953629287317,low,low,,ISIC_0056226.JPG,9,ISIC_3495799.JPG,257,false,hl,keypress(j),0,false,910722.700000003,910722.400000006,905522.412,905531.700000003,905538.882,910739.148,4,500,13,
break,html.Screen,10_12_1,2023-11-15T20:39:21.410Z,,,,,,,,,,NaN,,,,,,,,low,low,,,,,,false,,,,false,910723.5,910723.400000006,,910723,,910739.148,4,500,,
break_continue,html.Screen,10_12_2,2023-11-15T20:39:21.410Z,,,,,,,,,,NaN,,,,,,,,low,low,,,,,,false,,,,false,910724,910723.900000006,,910723.700000003,,910739.148,4,500,,
sequence,flow.Sequence,10_12,2023-11-15T20:39:21.411Z,,,,,,,,,,5185.018000005977,completion,,,,,,,low,low,,,,,,false,,,,false,910724.299999997,910723.900000006,905522.412,905531.700000003,905538.882,910739.148,4,500,,
trial,html.Screen,10_13_0,2023-11-15T20:39:27.553Z,,,,1,0.0111354529246037,-0.0585810480909377,,true,ll,6127.351999999955,response,-0.8069059620392012,0.7388484155195999,-0.8227821202772215,-0.6854677855216875,0.9153986601959782,-0.7704953629287317,low,low,,ISIC_7858034.JPG,10,ISIC_9709101.JPG,257,false,ll,keypress(f),0,false,916866.799999997,916866.5,910722.264,910724.5,910739.148,916872.266,4,500,14,
break,html.Screen,10_13_1,2023-11-15T20:39:27.554Z,,,,,,,,,,NaN,,,,,,,,low,low,,,,,,false,,,,false,916867.700000003,916867.5,,916867.1000000089,,916872.266,4,500,,
break_continue,html.Screen,10_13_2,2023-11-15T20:39:27.555Z,,,,,,,,,,NaN,,,,,,,,low,low,,,,,,false,,,,false,916868.299999997,916868.1000000089,,916867.900000006,,916872.266,4,500,,
sequence,flow.Sequence,10_13,2023-11-15T20:39:27.555Z,,,,,,,,,,6128.952000008896,completion,,,,,,,low,low,,,,,,false,,,,false,916868.6000000089,916868.1000000089,910722.264,910724.400000006,910739.148,916872.266,4,500,,
trial,html.Screen,10_14_0,2023-11-15T20:39:36.042Z,,,,1,0.0116094682222121,-0.0258434522530318,,false,lh,8482.734000000055,response,-0.8979276789594874,0.7388484155195999,-0.8227821202772215,0.925374811016654,0.9153986601959782,-0.7704953629287317,low,high,,ISIC_9239632.JPG,9,ISIC_4208361.JPG,53,false,hh,keypress(i),0,false,925355.299999997,925355,916855.746,916868.799999997,916872.266,925372.451,4,500,15,
break,html.Screen,10_14_1,2023-11-15T20:39:36.043Z,,,,,,,,,,NaN,,,,,,,,low,high,,,,,,false,,,,false,925356.200000003,925356,,925355.6000000089,,925372.451,4,500,,
break_continue,html.Screen,10_14_2,2023-11-15T20:39:36.043Z,,,,,,,,,,NaN,,,,,,,,low,high,,,,,,false,,,,false,925356.900000006,925356.700000003,,925356.5,,925372.451,4,500,,
sequence,flow.Sequence,10_14,2023-11-15T20:39:36.044Z,,,,,,,,,,8484.434000003035,completion,,,,,,,low,high,,,,,,false,,,,false,925357.1000000089,925356.700000003,916855.746,916868.700000003,916872.266,925372.451,4,500,,
trial,html.Screen,10_15_0,2023-11-15T20:39:38.705Z,,,,1,-0.0516762988734011,0.0130195499281172,,false,lh,2645.348999997019,response,-0.6490875596039758,0.7388484155195999,-0.8227821202772215,0.7375950357843459,0.9153986601959782,-0.7704953629287317,low,high,,ISIC_9978498.JPG,9,ISIC_0027277.JPG,53,false,hh,keypress(i),0,false,928018.1000000089,928017.799999997,925355.447,925357.400000006,925372.451,928022.245,4,500,16,
break,html.Screen,10_15_1,2023-11-15T20:39:38.705Z,,,,,,,,,,NaN,,,,,,,,low,high,,,,,,false,,,,false,928019,928018.799999997,,928018.400000006,,928022.245,4,500,,
break_continue,html.Screen,10_15_2,2023-11-15T20:39:38.706Z,,,,,,,,,,NaN,,,,,,,,low,high,,,,,,false,,,,false,928019.6000000089,928019.5,,928019.1000000089,,928022.245,4,500,,
sequence,flow.Sequence,10_15,2023-11-15T20:39:38.706Z,,,,,,,,,,2647.048999999999,completion,,,,,,,low,high,,,,,,false,,,,false,928019.900000006,928019.5,925355.447,925357.200000003,925372.451,928022.245,4,500,,
trial,html.Screen,10_16_0,2023-11-15T20:39:46.079Z,,,,1,-0.0265457942157377,-0.0704357137706731,,true,ll,7369.855000008945,response,-0.7422736922357102,0.7388484155195999,-0.8227821202772215,-0.9021253278345898,0.9153986601959782,-0.7704953629287317,low,low,,ISIC_3123377.JPG,10,ISIC_0031582.JPG,257,false,ll,keypress(f),0,false,935392.200000003,935392.1000000089,928005.713,928020.1000000089,928022.245,935405.723,4,500,17,
break,html.Screen,10_16_1,2023-11-15T20:39:46.079Z,,,,,,,,,,NaN,,,,,,,,low,low,,,,,,false,,,,false,935392.400000006,935392.299999997,,935392.299999997,,935405.723,4,500,,
break_continue,html.Screen,10_16_2,2023-11-15T20:39:46.079Z,,,,,,,,,,NaN,,,,,,,,low,low,,,,,,false,,,,false,935392.6000000089,935392.6000000089,,935392.5,,935405.723,4,500,,
sequence,flow.Sequence,10_16,2023-11-15T20:39:46.079Z,,,,,,,,,,7370.355000008945,completion,,,,,,,low,low,,,,,,false,,,,false,935392.700000003,935392.6000000089,928005.713,928020,928022.245,935405.723,4,500,,
trial,html.Screen,10_17_0,2023-11-15T20:39:49.552Z,,,,1,-0.0149482827359613,0.0661630859332833,,true,ll,3459.777000000002,response,-0.6822049949893362,0.7388484155195999,-0.8227821202772215,-0.7191834407997161,0.9153986601959782,-0.7704953629287317,low,low,,ISIC_6815524.JPG,9,ISIC_7724764.JPG,257,false,ll,keypress(f),0,false,938865.900000006,938865.5,935388.844,935392.799999997,935405.723,938872.148,4,500,18,
break,html.Screen,10_17_1,2023-11-15T20:39:49.553Z,,,,,,,,,,NaN,,,,,,,,low,low,,,,,,false,,,,false,938866.799999997,938866.6000000089,,938866.200000003,,938872.148,4,500,,
break_continue,html.Screen,10_17_2,2023-11-15T20:39:49.554Z,,,,,,,,,,NaN,,,,,,,,low,low,,,,,,false,,,,false,938867.400000006,938867.299999997,,938867.1000000089,,938872.148,4,500,,
sequence,flow.Sequence,10_17,2023-11-15T20:39:49.554Z,,,,,,,,,,3461.5769999970216,completion,,,,,,,low,low,,,,,,false,,,,false,938867.700000003,938867.299999997,935388.844,935392.700000003,935405.723,938872.148,4,500,,
trial,html.Screen,10_18_0,2023-11-15T20:39:54.000Z,,,,1,0.039728379742806,-0.0228701131373768,,false,hl,4441.351999999955,response,0.6635376567153434,0.7388484155195999,-0.8227821202772215,-0.5926691828832076,0.9153986601959782,-0.7704953629287317,high,low,,ISIC_0054073.JPG,9,ISIC_5552066.JPG,81,false,ll,keypress(f),0,false,943313.799999997,943313.5,938855.712,938867.799999997,938872.148,943322.188,4,500,19,
break,html.Screen,10_18_1,2023-11-15T20:39:54.001Z,,,,,,,,,,NaN,,,,,,,,high,low,,,,,,false,,,,false,943314.6000000089,943314.400000006,,943314,,943322.188,4,500,,
break_continue,html.Screen,10_18_2,2023-11-15T20:39:54.002Z,,,,,,,,,,NaN,,,,,,,,high,low,,,,,,false,,,,false,943315.200000003,943315,,943314.700000003,,943322.188,4,500,,
sequence,flow.Sequence,10_18,2023-11-15T20:39:54.002Z,,,,,,,,,,4442.851999999955,completion,,,,,,,high,low,,,,,,false,,,,false,943315.400000006,943315,938855.712,938867.799999997,938872.148,943322.188,4,500,,
trial,html.Screen,10_19_0,2023-11-15T20:39:59.872Z,,,,1,0.0057914759495055,0.0074667911845194,,false,lh,5862.912000008975,response,-0.9433720631499012,0.7388484155195999,-0.8227821202772215,1.0582071940347648,0.9153986601959782,-0.7704953629287317,low,high,,ISIC_0058723.JPG,9,ISIC_4890201.JPG,53,false,ll,keypress(f),0,false,949185.5,949185.1000000089,943305.461,943315.6000000089,943322.188,949188.843,4,500,20,
break,html.Screen,10_19_1,2023-11-15T20:39:59.873Z,,,,,,,,,,NaN,,,,,,,,low,high,,,,,,false,,,,false,949186.299999997,949186.200000003,,949185.799999997,,949188.843,4,500,,
break_continue,html.Screen,10_19_2,2023-11-15T20:39:59.873Z,,,,,,,,,,NaN,,,,,,,,low,high,,,,,,false,,,,false,949187,949186.799999997,,949186.6000000089,,949188.843,4,500,,
sequence,flow.Sequence,10_19,2023-11-15T20:39:59.874Z,,,,,,,,,,5864.611999997054,completion,,,,,,,low,high,,,,,,false,,,,false,949187.200000003,949186.799999997,943305.461,943315.5,943322.188,949188.843,4,500,,
trial,html.Screen,10_20_0,2023-11-15T20:40:06.552Z,,,,1,-0.0565575423757561,-0.0394300226801425,,true,lh,6676.456999997026,response,-0.8179805381029407,0.7388484155195999,-0.8227821202772215,0.8578467162767749,0.9153986601959782,-0.7704953629287317,low,high,,ISIC_0046983.JPG,9,ISIC_0067253.JPG,53,false,lh,keypress(e),0,false,955865.5,955865.299999997,949172.266,949187.400000006,949188.843,955872.114,4,500,21,
break,html.Screen,10_20_1,2023-11-15T20:40:06.553Z,,,,,,,,,,NaN,,,,,,,,low,high,,,,,,false,,,,false,955866.400000006,955866.200000003,,955865.900000006,,955872.114,4,500,,
break_continue,html.Screen,10_20_2,2023-11-15T20:40:06.553Z,,,,,,,,,,NaN,,,,,,,,low,high,,,,,,false,,,,false,955867,955866.799999997,,955866.6000000089,,955872.114,4,500,,
sequence,flow.Sequence,10_20,2023-11-15T20:40:06.554Z,,,,,,,,,,6677.956999997026,completion,,,,,,,low,high,,,,,,false,,,,false,955867.200000003,955866.799999997,949172.266,949187.299999997,949188.843,955872.114,4,500,,
trial,html.Screen,10_21_0,2023-11-15T20:40:13.855Z,,,,1,0.0247880219471745,-0.0687761754603142,,true,hl,7296.4860000089975,response,0.6829931324912223,0.7388484155195999,-0.8227821202772215,-0.6177402066684206,0.9153986601959782,-0.7704953629287317,high,low,,ISIC_0031745.JPG,9,ISIC_0025648.JPG,81,false,hl,keypress(j),0,false,963168.799999997,963168.6000000089,955855.516,955867.400000006,955872.114,963172.066,4,500,22,
break,html.Screen,10_21_1,2023-11-15T20:40:13.855Z,,,,,,,,,,NaN,,,,,,,,high,low,,,,,,false,,,,false,963169,963169,,963168.900000006,,963172.066,4,500,,
break_continue,html.Screen,10_21_2,2023-11-15T20:40:13.856Z,,,,,,,,,,NaN,,,,,,,,high,low,,,,,,false,,,,false,963169.200000003,963169.200000003,,963169.1000000089,,963172.066,4,500,,
sequence,flow.Sequence,10_21,2023-11-15T20:40:13.856Z,,,,,,,,,,7297.086000003037,completion,,,,,,,high,low,,,,,,false,,,,false,963169.299999997,963169.200000003,955855.516,955867.299999997,955872.114,963172.066,4,500,,
trial,html.Screen,10_22_0,2023-11-15T20:40:18.361Z,,,,1,0.0050679133050021,-0.0009714874637896,,false,lh,4501.733999997028,response,-0.6866025217140785,0.7388484155195999,-0.8227821202772215,0.9978764930756644,0.9153986601959782,-0.7704953629287317,low,high,,ISIC_9848743.JPG,8,ISIC_0009100.JPG,53,false,ll,keypress(f),0,false,967674.1000000089,967673.799999997,963155.313,963169.299999997,963172.066,967688.999,4,500,23,
break,html.Screen,10_22_1,2023-11-15T20:40:18.362Z,,,,,,,,,,NaN,,,,,,,,low,high,,,,,,false,,,,false,967675.1000000089,967674.900000006,,967674.400000006,,967688.999,4,500,,
break_continue,html.Screen,10_22_2,2023-11-15T20:40:18.362Z,,,,,,,,,,NaN,,,,,,,,low,high,,,,,,false,,,,false,967675.6000000089,967675.5,,967675.200000003,,967688.999,4,500,,
sequence,flow.Sequence,10_22,2023-11-15T20:40:18.362Z,,,,,,,,,,4503.434000000008,completion,,,,,,,low,high,,,,,,false,,,,false,967675.799999997,967675.5,963155.313,963169.299999997,963172.066,967688.999,4,500,,
trial,html.Screen,10_23_0,2023-11-15T20:40:24.663Z,,,,1,0.0651705891246238,-0.0394586219902573,,true,hh,6287.0010000000475,response,0.7902359375375733,0.7388484155195999,-0.8227821202772215,0.8607451825540537,0.9153986601959782,-0.7704953629287317,high,high,,ISIC_0013491.JPG,8,ISIC_0899961.JPG,218,false,hh,keypress(i),0,false,973976.1000000089,973976,967672.223,967676.1000000089,967688.999,973988.722,4,500,24,
break,html.Screen,10_23_1,2023-11-15T20:40:24.663Z,,,,,,,,,,NaN,,,,,,,,high,high,,,,,,false,,,,false,973976.5,973976.400000006,,973976.200000003,,973988.722,4,500,,
break_continue,html.Screen,10_23_2,2023-11-15T20:40:24.663Z,,,,,,,,,,NaN,,,,,,,,high,high,,,,,,false,,,,false,973976.700000003,973976.700000003,,973976.6000000089,,973988.722,4,500,,
sequence,flow.Sequence,10_23,2023-11-15T20:40:24.663Z,,,,,,,,,,6287.701000003028,completion,,,,,,,high,high,,,,,,false,,,,false,973976.799999997,973976.700000003,967672.223,967676,967688.999,973988.722,4,500,,
trial,html.Screen,10_24_0,2023-11-15T20:40:27.953Z,,,,1,-0.0552031398781121,-0.0652612426529481,,true,hh,3277.67800000601,response,0.5733309368041,0.7388484155195999,-0.8227821202772215,1.068995482830036,0.9153986601959782,-0.7704953629287317,high,high,,ISIC_0024226.JPG,9,ISIC_0046405.JPG,218,false,hh,keypress(i),0,false,977266.700000003,977266.400000006,973972.016,973976.900000006,973988.722,977272.033,4,500,25,
break,html.Screen,10_24_1,2023-11-15T20:40:27.954Z,,,,,,,,,,NaN,,,,,,,,high,high,,,,,,false,,,,false,977267.700000003,977267.400000006,,977267,,977272.033,4,500,,
break_continue,html.Screen,10_24_2,2023-11-15T20:40:27.955Z,,,,,,,,,,NaN,,,,,,,,high,high,,,,,,false,,,,false,977268.200000003,977268,,977267.799999997,,977272.033,4,500,,
sequence,flow.Sequence,10_24,2023-11-15T20:40:27.955Z,,,,,,,,,,3279.2780000000494,completion,,,,,,,high,high,,,,,,false,,,,false,977268.5,977268,973972.016,973976.799999997,973988.722,977272.033,4,500,,
trial,html.Screen,10_25_0,2023-11-15T20:40:34.841Z,,,,1,-0.059471106306043,0.0678292174694111,,false,hl,6881.567000008887,response,0.6070544699939308,0.7388484155195999,-0.8227821202772215,-0.6661714571970561,0.9153986601959782,-0.7704953629287317,high,low,,ISIC_0015631.JPG,9,ISIC_6532137.JPG,81,false,ll,keypress(f),0,false,984153.900000006,984153.6000000089,977255.303,977268.700000003,977272.033,984173.418,4,500,26,
break,html.Screen,10_25_1,2023-11-15T20:40:34.841Z,,,,,,,,,,NaN,,,,,,,,high,low,,,,,,false,,,,false,984154.799999997,984154.5,,984154.200000003,,984173.418,4,500,,
break_continue,html.Screen,10_25_2,2023-11-15T20:40:34.842Z,,,,,,,,,,NaN,,,,,,,,high,low,,,,,,false,,,,false,984155.299999997,984155.1000000089,,984155,,984173.418,4,500,,
sequence,flow.Sequence,10_25,2023-11-15T20:40:34.842Z,,,,,,,,,,6883.067000008887,completion,,,,,,,high,low,,,,,,false,,,,false,984155.5,984155.1000000089,977255.303,977268.6000000089,977272.033,984173.418,4,500,,
trial,html.Screen,10_26_0,2023-11-15T20:40:38.090Z,,,,1,0.0608867680161491,0.0206384042070211,,false,hl,3229.182000008994,response,0.7809949855371787,0.7388484155195999,-0.8227821202772215,-0.8493861117004308,0.9153986601959782,-0.7704953629287317,high,low,,ISIC_0640806.JPG,10,ISIC_7450481.JPG,81,false,hh,keypress(i),0,false,987402.900000006,987402.6000000089,984138.907,984155.700000003,984173.418,987405.39,4,500,27,
break,html.Screen,10_26_1,2023-11-15T20:40:38.091Z,,,,,,,,,,NaN,,,,,,,,high,low,,,,,,false,,,,false,987403.799999997,987403.6000000089,,987403.1000000089,,987405.39,4,500,,
break_continue,html.Screen,10_26_2,2023-11-15T20:40:38.091Z,,,,,,,,,,NaN,,,,,,,,high,low,,,,,,false,,,,false,987404.400000006,987404.200000003,,987404,,987405.39,4,500,,
sequence,flow.Sequence,10_26,2023-11-15T20:40:38.091Z,,,,,,,,,,3230.7820000030333,completion,,,,,,,high,low,,,,,,false,,,,false,987404.700000003,987404.200000003,984138.907,984155.700000003,984173.418,987405.39,4,500,,
trial,html.Screen,10_27_0,2023-11-15T20:40:45.025Z,,,,1,0.0640778296621707,0.0387686079545705,,true,hl,6932.609999999986,response,0.7048361682396862,0.7388484155195999,-0.8227821202772215,-0.7584844879496475,0.9153986601959782,-0.7704953629287317,high,low,,ISIC_0010124.JPG,8,ISIC_3289098.JPG,81,false,hl,keypress(j),0,false,994338.200000003,994338,987388.927,987404.799999997,987405.39,994355.471,4,500,28,
break,html.Screen,10_27_1,2023-11-15T20:40:45.026Z,,,,,,,,,,NaN,,,,,,,,high,low,,,,,,false,,,,false,994339.200000003,994339,,994338.6000000089,,994355.471,4,500,,
break_continue,html.Screen,10_27_2,2023-11-15T20:40:45.026Z,,,,,,,,,,NaN,,,,,,,,high,low,,,,,,false,,,,false,994339.799999997,994339.6000000089,,994339.299999997,,994355.471,4,500,,
sequence,flow.Sequence,10_27,2023-11-15T20:40:45.027Z,,,,,,,,,,6934.210000008927,completion,,,,,,,high,low,,,,,,false,,,,false,994340.1000000089,994339.6000000089,987388.927,987404.799999997,987405.39,994355.471,4,500,,
trial,html.Screen,10_28_0,2023-11-15T20:40:49.272Z,,,,1,0.0509970506474296,0.0744820958440291,,false,hl,4229.929000005941,response,0.8655167308525522,0.7388484155195999,-0.8227821202772215,-0.9298580423306444,0.9153986601959782,-0.7704953629287317,high,low,,ISIC_0009975.JPG,9,ISIC_4603706.JPG,81,false,ll,keypress(f),0,false,998585.700000003,998585.400000006,994338.934,994340.299999997,994355.471,998588.707,4,500,29,
break,html.Screen,10_28_1,2023-11-15T20:40:49.273Z,,,,,,,,,,NaN,,,,,,,,high,low,,,,,,false,,,,false,998586.5,998586.400000006,,998585.900000006,,998588.707,4,500,,
break_continue,html.Screen,10_28_2,2023-11-15T20:40:49.274Z,,,,,,,,,,NaN,,,,,,,,high,low,,,,,,false,,,,false,998587,998586.799999997,,998586.6000000089,,998588.707,4,500,,
sequence,flow.Sequence,10_28,2023-11-15T20:40:49.274Z,,,,,,,,,,4231.328999997,completion,,,,,,,high,low,,,,,,false,,,,false,998587.299999997,998586.799999997,994338.934,994340.200000003,994355.471,998588.707,4,500,,
trial,html.Screen,10_29_0,2023-11-15T20:40:58.592Z,,,,1,-0.0112310719058792,0.0469047359904117,,false,hl,9316.693000005907,response,0.8200962008791046,0.7388484155195999,-0.8227821202772215,-0.7936051642828523,0.9153986601959782,-0.7704953629287317,high,low,,ISIC_0068184.JPG,9,ISIC_0027031.JPG,81,false,lh,keypress(e),0,false,1007905.700000003,1007905.400000006,998571.953,998587.5,998588.707,1007922.19,4,500,30,
break,html.Screen,10_29_1,2023-11-15T20:40:58.593Z,,,,,,,,,,NaN,,,,,,,,high,low,,,,,,false,,,,false,1007906.6000000089,1007906.400000006,,1007906,,1007922.19,4,500,,
break_continue,html.Screen,10_29_2,2023-11-15T20:40:58.594Z,,,,,,,,,,NaN,,,,,,,,high,low,,,,,,false,,,,false,1007907.299999997,1007907.1000000089,,1007906.799999997,,1007922.19,4,500,,
sequence,flow.Sequence,10_29,2023-11-15T20:40:58.594Z,,,,,,,,,,9318.393000008888,completion,,,,,,,high,low,,,,,,false,,,,false,1007907.5,1007907.1000000089,998571.953,998587.299999997,998588.707,1007922.19,4,500,,
trial,html.Screen,10_30_0,2023-11-15T20:41:04.927Z,,,,1,0.0401045651353626,0.053461375824197,,false,hl,6317.910000008997,response,0.8655167308525522,0.7388484155195999,-0.8227821202772215,-0.9298580423306444,0.9153986601959782,-0.7704953629287317,high,low,,ISIC_6483504.JPG,8,ISIC_4603706.JPG,81,false,ll,keypress(f),0,false,1014240.200000003,1014240.1000000089,1007905.319,1007907.6000000089,1007922.19,1014255.29,4,500,31,
break,html.Screen,10_30_1,2023-11-15T20:41:04.927Z,,,,,,,,,,NaN,,,,,,,,high,low,,,,,,false,,,,false,1014240.5,1014240.400000006,,1014240.299999997,,1014255.29,4,500,,
break_continue,html.Screen,10_30_2,2023-11-15T20:41:04.927Z,,,,,,,,,,NaN,,,,,,,,high,low,,,,,,false,,,,false,1014240.6000000089,1014240.5,,1014240.5,,1014255.29,4,500,,
sequence,flow.Sequence,10_30,2023-11-15T20:41:04.927Z,,,,,,,,,,6318.310000000056,completion,,,,,,,high,low,,,,,,false,,,,false,1014240.700000003,1014240.5,1007905.319,1007907.6000000089,1007922.19,1014255.29,4,500,,
trial,html.Screen,10_31_0,2023-11-15T20:41:10.209Z,,,,1,0.0324770283903853,0.0249968632204382,,false,ll,5266.709999999963,response,-0.6766582952301987,0.7388484155195999,-0.8227821202772215,-0.6291899327695487,0.9153986601959782,-0.7704953629287317,low,low,,ISIC_7266462.JPG,9,ISIC_0013204.JPG,257,false,lh,keypress(e),0,false,1019522.200000003,1019522,1014238.612,1014240.799999997,1014255.29,1019538.868,4,500,32,
break,html.Screen,10_31_1,2023-11-15T20:41:10.210Z,,,,,,,,,,NaN,,,,,,,,low,low,,,,,,false,,,,false,1019523.200000003,1019523,,1019522.6000000089,,1019538.868,4,500,,
break_continue,html.Screen,10_31_2,2023-11-15T20:41:10.210Z,,,,,,,,,,NaN,,,,,,,,low,low,,,,,,false,,,,false,1019523.799999997,1019523.6000000089,,1019523.400000006,,1019538.868,4,500,,
sequence,flow.Sequence,10_31,2023-11-15T20:41:10.211Z,,,,,,,,,,5268.310000008903,completion,,,,,,,low,low,,,,,,false,,,,false,1019524,1019523.6000000089,1014238.612,1014240.799999997,1014255.29,1019538.868,4,500,,
trial,html.Screen,10_32_0,2023-11-15T20:41:14.903Z,,,,1,-0.0265457942157377,-0.0704357137706731,,false,hl,4677.732000008924,response,0.610016370823807,0.7388484155195999,-0.8227821202772215,-0.7827488580782844,0.9153986601959782,-0.7704953629287317,high,low,,ISIC_3123377.JPG,9,ISIC_5877211.JPG,81,false,hh,keypress(i),0,false,1024216.6000000089,1024216.6000000089,1019522.142,1019524.200000003,1019538.868,1024238.592,4,500,33,
break,html.Screen,10_32_1,2023-11-15T20:41:14.904Z,,,,,,,,,,NaN,,,,,,,,high,low,,,,,,false,,,,false,1024216.900000006,1024216.900000006,,1024216.700000003,,1024238.592,4,500,,
break_continue,html.Screen,10_32_2,2023-11-15T20:41:14.904Z,,,,,,,,,,NaN,,,,,,,,high,low,,,,,,false,,,,false,1024217,1024217,,1024217,,1024238.592,4,500,,
sequence,flow.Sequence,10_32,2023-11-15T20:41:14.904Z,,,,,,,,,,4678.131999999983,completion,,,,,,,high,low,,,,,,false,,,,false,1024217.1000000089,1024217,1019522.142,1019524.1000000089,1019538.868,1024238.592,4,500,,
trial,html.Screen,10_33_0,2023-11-15T20:41:19.609Z,,,,1,-0.0134764727102299,-0.0033499036460912,,false,hl,4683.707999997074,response,0.6605197847729911,0.7388484155195999,-0.8227821202772215,-0.7679621277850885,0.9153986601959782,-0.7704953629287317,high,low,,ISIC_0009998.JPG,9,ISIC_3448546.JPG,81,false,ll,keypress(f),0,false,1028922.5,1028922.299999997,1024222.086,1024217.200000003,1024238.592,1028938.65,4,500,34,
break,html.Screen,10_33_1,2023-11-15T20:41:19.610Z,,,,,,,,,,NaN,,,,,,,,high,low,,,,,,false,,,,false,1028923.6000000089,1028923.299999997,,1028922.900000006,,1028938.65,4,500,,
break_continue,html.Screen,10_33_2,2023-11-15T20:41:19.611Z,,,,,,,,,,NaN,,,,,,,,high,low,,,,,,false,,,,false,1028924.1000000089,1028923.900000006,,1028923.700000003,,1028938.65,4,500,,
sequence,flow.Sequence,10_33,2023-11-15T20:41:19.611Z,,,,,,,,,,4685.3080000060145,completion,,,,,,,high,low,,,,,,false,,,,false,1028924.400000006,1028923.900000006,1024222.086,1024217.200000003,1024238.592,1028938.65,4,500,,
trial,html.Screen,10_34_0,2023-11-15T20:41:27.393Z,,,,1,-0.0188047466661863,0.0288346930436979,,true,lh,7767.750000005937,response,-0.6603971718247816,0.7388484155195999,-0.8227821202772215,0.7874599008938432,0.9153986601959782,-0.7704953629287317,low,high,,ISIC_0014157.JPG,9,ISIC_2822718.JPG,53,false,lh,keypress(e),0,false,1036706.700000003,1036706.400000006,1028922.043,1028924.6000000089,1028938.65,1036721.949,4,500,35,
break,html.Screen,10_34_1,2023-11-15T20:41:27.394Z,,,,,,,,,,NaN,,,,,,,,low,high,,,,,,false,,,,false,1036707.5,1036707.299999997,,1036707,,1036721.949,4,500,,
break_continue,html.Screen,10_34_2,2023-11-15T20:41:27.395Z,,,,,,,,,,NaN,,,,,,,,low,high,,,,,,false,,,,false,1036708.1000000089,1036707.900000006,,1036707.6000000089,,1036721.949,4,500,,
sequence,flow.Sequence,10_34,2023-11-15T20:41:27.395Z,,,,,,,,,,7769.250000005937,completion,,,,,,,low,high,,,,,,false,,,,false,1036708.299999997,1036707.900000006,1028922.043,1028924.5,1028938.65,1036721.949,4,500,,
trial,html.Screen,10_35_0,2023-11-15T20:41:33.353Z,,,,1,0.0456515796420274,-0.0273567130070961,,false,hh,5943.751000002958,response,0.8524156155750909,0.7388484155195999,-0.8227821202772215,0.7696684673096165,0.9153986601959782,-0.7704953629287317,high,high,,ISIC_0068610.JPG,9,ISIC_0001141.JPG,218,false,hl,keypress(j),0,false,1042666.1000000089,1042665.700000003,1036705.107,1036708.5,1036721.949,1042671.88,4,500,36,
break,html.Screen,10_35_1,2023-11-15T20:41:33.354Z,,,,,,,,,,NaN,,,,,,,,high,high,,,,,,false,,,,false,1042667,1042666.900000006,,1042666.400000006,,1042671.88,4,500,,
break_continue,html.Screen,10_35_2,2023-11-15T20:41:33.354Z,,,,,,,,,,NaN,,,,,,,,high,high,,,,,,false,,,,false,1042667.6000000089,1042667.400000006,,1042667.200000003,,1042671.88,4,500,,
sequence,flow.Sequence,10_35,2023-11-15T20:41:33.355Z,,,,,,,,,,5945.451000005938,completion,,,,,,,high,high,,,,,,false,,,,false,1042667.799999997,1042667.400000006,1036705.107,1036708.400000006,1036721.949,1042671.88,4,500,,
trial,html.Screen,10_36_0,2023-11-15T20:41:37.472Z,,,,1,0.0651705891246238,-0.0394586219902573,,true,hl,4113.020000005956,response,0.5761048106635854,0.7388484155195999,-0.8227821202772215,-0.7500888926875824,0.9153986601959782,-0.7704953629287317,high,low,,ISIC_0013491.JPG,9,ISIC_6666329.JPG,81,false,hl,keypress(j),0,false,1046785.200000003,1046784.900000006,1042655.304,1042668,1042671.88,1046788.577,4,500,37,
break,html.Screen,10_36_1,2023-11-15T20:41:37.473Z,,,,,,,,,,NaN,,,,,,,,high,low,,,,,,false,,,,false,1046785.799999997,1046785.6000000089,,1046785.299999997,,1046788.577,4,500,,
break_continue,html.Screen,10_36_2,2023-11-15T20:41:37.473Z,,,,,,,,,,NaN,,,,,,,,high,low,,,,,,false,,,,false,1046786.200000003,1046786,,1046785.900000006,,1046788.577,4,500,,
sequence,flow.Sequence,10_36,2023-11-15T20:41:37.473Z,,,,,,,,,,4114.119999999995,completion,,,,,,,high,low,,,,,,false,,,,false,1046786.299999997,1046786,1042655.304,1042667.900000006,1042671.88,1046788.577,4,500,,
trial,html.Screen,10_37_0,2023-11-15T20:41:45.129Z,,,,1,-0.040191644178716,0.0622582668671422,,false,hl,7653.422999999952,response,0.5595862418124089,0.7388484155195999,-0.8227821202772215,-0.875112239330555,0.9153986601959782,-0.7704953629287317,high,low,,ISIC_6207688.JPG,9,ISIC_1081051.JPG,81,false,lh,keypress(e),0,false,1054442.299999997,1054442,1046772.105,1046786.400000006,1046788.577,1054455.231,4,500,38,
break,html.Screen,10_37_1,2023-11-15T20:41:45.130Z,,,,,,,,,,NaN,,,,,,,,high,low,,,,,,false,,,,false,1054443.299999997,1054443,,1054442.600000009,,1054455.231,4,500,,
break_continue,html.Screen,10_37_2,2023-11-15T20:41:45.131Z,,,,,,,,,,NaN,,,,,,,,high,low,,,,,,false,,,,false,1054443.900000006,1054443.700000003,,1054443.400000006,,1054455.231,4,500,,
sequence,flow.Sequence,10_37,2023-11-15T20:41:45.131Z,,,,,,,,,,7655.123000002932,completion,,,,,,,high,low,,,,,,false,,,,false,1054444.100000009,1054443.700000003,1046772.105,1046786.400000006,1046788.577,1054455.231,4,500,,
