sender,sender_type,sender_id,timestamp,meta,,age,blockNo,c1,c2,condition,correct,correctResponse,duration,ended_on,f1,f1_high,f1_low,f2,f2_high,f2_low,feature_level1,feature_level2,gender,img_left,img_reveal,img_right,n_target_images,practice,response,response_action,selection_duration,staircase,time_commit,time_end,time_render,time_run,time_show,time_switch,total_blocks,total_trials,trialNo,url
informed_consent,html.Screen,0,2023-11-15T21:31:06.079Z,"{""labjs_version"":""20.2.4"",""labjs_build"":{""flavor"":""development"",""commit"":""f5b4a49f956347addd546a832a3327688c2c0fef""},""location"":""https://labjs.felixhenninger.com/api/labjs_preview/index.html"",""userAgent"":""Mozilla/5.0 (Windows NT 10.0; Win64; x64) AppleWebKit/537.36 (KHTML, like Gecko) Chrome/119.0.0.0 Safari/537.36"",""platform"":""Win32"",""language"":""en-US"",""locale"":""en-US"",""timeZone"":""America/Chicago"",""timezoneOffset"":360,""screen_width"":1920,""screen_height"":1080,""scroll_width"":945,""scroll_height"":918,""window_innerWidth"":945,""window_innerHeight"":966,""devicePixelRatio"":1}",,,,,,,,,30219.75399998808,response,,,,,,,,,,,,,,,consent,click button,,,30764.80000001192,30758.19999998808,521.813,520.5,538.446,30771.959,,,,{}
Demography form,html.Form,1,2023-11-15T21:31:13.887Z,,,18,,,,,,,7800.940999976159,form submission,,,,,,,,,male,,,,,,,,,,38573.09999996424,38572.89999997616,30755.577,30764.899999976158,30771.959,38571.737,,,,
Welcome,html.Screen,2,2023-11-15T21:31:22.473Z,,,,,,,"[""asym"",""col""]",,,8586.762999999999,response,,,,,,,,,,,,,,,continue,click button,,,47159.19999998808,47158.5,38555.338,38573.09999996424,38571.737,47171.827,,,,
demo_instructions,html.Screen,3,2023-11-15T21:32:15.978Z,,,,,,,,,,53490.37299998808,response,,,,,,,,,,,,,,,continue,click button,,,100662.69999998808,100662.19999998808,47155.495,47159.39999997616,47171.827,100688.323,,,,
trial,html.Screen,4_0_0,2023-11-15T21:32:23.441Z,,,,0,1.1547137855907486,-1.0185275168641534,,true,lh,7437.276999964233,response,-1.064425982109969,0.9999999999999998,-0.9999999999999998,0.958564243697126,0.9999999999999998,-0.9999999999999998,low,high,,ISIC_7604870.JPG,,ISIC_3203344.JPG,24,true,lh,keypress(e),100,false,108125.89999997616,108125.59999996424,100671.666,100662.89999997616,100688.323,108154.982,1,16,1,
sequence,flow.Sequence,4_0,2023-11-15T21:32:23.441Z,,,,,,,,,,7437.276999964233,completion,,,,,,,low,high,,,,,,true,,,,false,108126,108125.59999996424,100671.666,100662.89999997616,100688.323,108154.982,1,16,,
trial,html.Screen,4_1_0,2023-11-15T21:32:26.132Z,,,,0,0.8620516892494489,-1.1108509340502866,,true,lh,2661.6179999642336,response,-0.849847885203758,0.9999999999999998,-0.9999999999999998,0.973447384095442,0.9999999999999998,-0.9999999999999998,low,high,,ISIC_5557806.JPG,,ISIC_9612228.JPG,24,true,lh,keypress(e),100,false,110816.69999998808,110816.59999996424,108138.356,108126,108154.982,110838.332,1,16,2,
sequence,flow.Sequence,4_1,2023-11-15T21:32:26.132Z,,,,,,,,,,2661.6179999642336,completion,,,,,,,low,high,,,,,,true,,,,false,110816.89999997616,110816.59999996424,108138.356,108126,108154.982,110838.332,1,16,,
trial,html.Screen,4_2_0,2023-11-15T21:32:28.425Z,,,,0,1.082730232773217,-0.8833175387485132,,true,lh,2271.2679999642423,response,-0.8129823105338526,0.9999999999999998,-0.9999999999999998,0.9655386457143784,0.9999999999999998,-0.9999999999999998,low,high,,ISIC_0011933.JPG,,ISIC_8268025.JPG,24,true,lh,keypress(e),100,false,113110.30000001192,113109.59999996424,110821.66,110817,110838.332,113138.591,1,16,3,
sequence,flow.Sequence,4_2,2023-11-15T21:32:28.426Z,,,,,,,,,,2271.2679999642423,completion,,,,,,,low,high,,,,,,true,,,,false,113110.59999996424,113109.59999996424,110821.66,110816.89999997616,110838.332,113138.591,1,16,,
trial,html.Screen,4_3_0,2023-11-15T21:32:30.797Z,,,,0,1.1547137855907486,-1.0185275168641534,,true,lh,2343.308999976158,response,-0.8069562753553525,0.9999999999999998,-0.9999999999999998,0.9101764190105358,0.9999999999999998,-0.9999999999999998,low,high,,ISIC_7604870.JPG,,ISIC_0046596.JPG,24,true,lh,keypress(e),100,false,115482.09999996424,115481.89999997616,113121.728,113110.69999998808,113138.591,115504.992,1,16,4,
sequence,flow.Sequence,4_3,2023-11-15T21:32:30.797Z,,,,,,,,,,2343.308999976158,completion,,,,,,,low,high,,,,,,true,,,,false,115482.19999998808,115481.89999997616,113121.728,113110.69999998808,113138.591,115504.992,1,16,,
trial,html.Screen,4_4_0,2023-11-15T21:32:34.593Z,,,,0,0.8121377641994781,0.9325200951609898,,true,ll,3772.607999964239,response,-0.8359065169837211,0.9999999999999998,-0.9999999999999998,-0.8817320387395534,0.9999999999999998,-0.9999999999999998,low,low,,ISIC_9363106.JPG,,ISIC_0319928.JPG,111,true,ll,keypress(f),100,false,119277.69999998808,119277.59999996424,115488.334,115482.19999998808,115504.992,119304.968,1,16,5,
sequence,flow.Sequence,4_4,2023-11-15T21:32:34.593Z,,,,,,,,,,3772.607999964239,completion,,,,,,,low,low,,,,,,true,,,,false,119277.89999997616,119277.59999996424,115488.334,115482.19999998808,115504.992,119304.968,1,16,,
trial,html.Screen,4_5_0,2023-11-15T21:32:38.483Z,,,,0,1.143881656046846,0.9998119797725442,,true,ll,3863.3320000119274,response,-0.9204445772182712,0.9999999999999998,-0.9999999999999998,-0.927445785309251,0.9999999999999998,-0.9999999999999998,low,low,,ISIC_8685259.JPG,,ISIC_7839741.JPG,111,true,ll,keypress(f),100,false,123168.5,123168.30000001192,119288.35,119277.89999997616,119304.968,123188.293,1,16,6,
sequence,flow.Sequence,4_5,2023-11-15T21:32:38.484Z,,,,,,,,,,3863.3320000119274,completion,,,,,,,low,low,,,,,,true,,,,false,123168.69999998808,123168.30000001192,119288.35,119277.89999997616,119304.968,123188.293,1,16,,
trial,html.Screen,4_6_0,2023-11-15T21:32:40.679Z,,,,0,1.0353494157291625,0.9833297148698538,,true,ll,2175.406999988074,response,-1.1653123206802332,0.9999999999999998,-0.9999999999999998,-0.8605012383520609,0.9999999999999998,-0.9999999999999998,low,low,,ISIC_5156491.JPG,,ISIC_0071508.JPG,111,true,ll,keypress(f),100,false,125363.80000001192,125363.69999998808,123171.756,123168.69999998808,123188.293,125388.579,1,16,7,
sequence,flow.Sequence,4_6,2023-11-15T21:32:40.679Z,,,,,,,,,,2175.406999988074,completion,,,,,,,low,low,,,,,,true,,,,false,125363.89999997616,125363.69999998808,123171.756,123168.69999998808,123188.293,125388.579,1,16,,
trial,html.Screen,4_7_0,2023-11-15T21:32:45.162Z,,,,0,0.8531968652064474,1.0402692470955777,,true,ll,4458.32099997616,response,-0.831295474746028,0.9999999999999998,-0.9999999999999998,-0.9721089662087676,0.9999999999999998,-0.9999999999999998,low,low,,ISIC_0056201.JPG,,ISIC_0760740.JPG,111,true,ll,keypress(f),100,false,129847.09999996424,129846.89999997616,125371.828,125364,125388.579,129871.636,1,16,8,
sequence,flow.Sequence,4_7,2023-11-15T21:32:45.162Z,,,,,,,,,,4458.32099997616,completion,,,,,,,low,low,,,,,,true,,,,false,129847.30000001192,129846.89999997616,125371.828,125364,125388.579,129871.636,1,16,,
trial,html.Screen,4_8_0,2023-11-15T21:32:49.134Z,,,,0,-1.0003671514840182,0.8992716557663581,,true,hl,3946.8640000000014,response,1.127346631538643,0.9999999999999998,-0.9999999999999998,-0.8080854255453543,0.9999999999999998,-0.9999999999999998,high,low,,ISIC_0061749.JPG,,ISIC_0011045.JPG,24,true,hl,keypress(j),100,false,133818.69999998808,133818.5,129855.006,129847.30000001192,129871.636,133838.33,1,16,9,
sequence,flow.Sequence,4_8,2023-11-15T21:32:49.134Z,,,,,,,,,,3946.8640000000014,completion,,,,,,,high,low,,,,,,true,,,,false,133818.80000001192,133818.5,129855.006,129847.30000001192,129871.636,133838.33,1,16,,
trial,html.Screen,4_9_0,2023-11-15T21:32:51.297Z,,,,0,-1.064425982109969,0.958564243697126,,true,hl,2143.170000000013,response,0.9873794329144926,0.9999999999999998,-0.9999999999999998,-0.9500689037516484,0.9999999999999998,-0.9999999999999998,high,low,,ISIC_3203344.JPG,,ISIC_0013498.JPG,24,true,hl,keypress(j),100,false,135981.69999998808,135981.5,133821.746,133818.89999997616,133838.33,136005.098,1,16,10,
sequence,flow.Sequence,4_9,2023-11-15T21:32:51.297Z,,,,,,,,,,2143.170000000013,completion,,,,,,,high,low,,,,,,true,,,,false,135981.80000001192,135981.5,133821.746,133818.89999997616,133838.33,136005.098,1,16,,
trial,html.Screen,4_10_0,2023-11-15T21:32:53.715Z,,,,0,-0.849847885203758,0.973447384095442,,true,hl,2395.101999988081,response,1.0264463986917702,0.9999999999999998,-0.9999999999999998,-1.171271535505083,0.9999999999999998,-0.9999999999999998,high,low,,ISIC_9612228.JPG,,ISIC_7889838.JPG,24,true,hl,keypress(j),100,false,138400.19999998808,138400.19999998808,135988.522,135981.89999997616,136005.098,138421.622,1,16,11,
sequence,flow.Sequence,4_10,2023-11-15T21:32:53.715Z,,,,,,,,,,2395.101999988081,completion,,,,,,,high,low,,,,,,true,,,,false,138400.39999997616,138400.19999998808,135988.522,135981.89999997616,136005.098,138421.622,1,16,,
trial,html.Screen,4_11_0,2023-11-15T21:32:56.166Z,,,,0,-0.8591294258188253,0.870797302150167,,true,hl,2428.977999964234,response,1.1592423187534993,0.9999999999999998,-0.9999999999999998,-1.067128884093211,0.9999999999999998,-0.9999999999999998,high,low,,ISIC_0055841.JPG,,ISIC_6854940.JPG,24,true,hl,keypress(j),100,false,140850.69999998808,140850.59999996424,138404.949,138400.39999997616,138421.622,140871.652,1,16,12,
sequence,flow.Sequence,4_11,2023-11-15T21:32:56.166Z,,,,,,,,,,2428.977999964234,completion,,,,,,,high,low,,,,,,true,,,,false,140850.89999997616,140850.59999996424,138404.949,138400.39999997616,138421.622,140871.652,1,16,,
trial,html.Screen,4_12_0,2023-11-15T21:32:59.192Z,,,,0,-1.1816316134800355,-0.9439295748587228,,true,hh,3005.4479999642354,response,1.0282189783634048,0.9999999999999998,-0.9999999999999998,0.9341202222313458,0.9999999999999998,-0.9999999999999998,high,high,,ISIC_8002729.JPG,,ISIC_0027238.JPG,154,true,hh,keypress(i),100,false,143877.30000001192,143877.09999996424,140855.137,140850.89999997616,140871.652,143905.192,1,16,13,
sequence,flow.Sequence,4_12,2023-11-15T21:32:59.192Z,,,,,,,,,,3005.4479999642354,completion,,,,,,,high,high,,,,,,true,,,,false,143877.5,143877.09999996424,140855.137,140850.89999997616,140871.652,143905.192,1,16,,
trial,html.Screen,4_13_0,2023-11-15T21:33:01.340Z,,,,0,-1.1990772227054871,-1.1224329926844498,,true,hh,2118.80799999999,response,1.0857873435995111,0.9999999999999998,-0.9999999999999998,0.8502716010726371,0.9999999999999998,-0.9999999999999998,high,high,,ISIC_3425388.JPG,,ISIC_2784664.JPG,154,true,hh,keypress(i),100,false,146024.59999996424,146024,143888.57,143877.5,143905.192,146055.4,1,16,14,
sequence,flow.Sequence,4_13,2023-11-15T21:33:01.340Z,,,,,,,,,,2118.80799999999,completion,,,,,,,high,high,,,,,,true,,,,false,146025.09999996424,146024,143888.57,143877.5,143905.192,146055.4,1,16,,
trial,html.Screen,4_14_0,2023-11-15T21:33:02.783Z,,,,0,-1.1344866365171962,-0.926850270881616,,true,hh,1412.4000000119267,response,0.8531968652064474,0.9999999999999998,-0.9999999999999998,1.0402692470955777,0.9999999999999998,-0.9999999999999998,high,high,,ISIC_7747998.JPG,,ISIC_0056201.JPG,154,true,hh,keypress(i),100,false,147467.89999997616,147467.80000001192,146038.731,146025.30000001192,146055.4,147488.285,1,16,15,
sequence,flow.Sequence,4_14,2023-11-15T21:33:02.783Z,,,,,,,,,,1412.4000000119267,completion,,,,,,,high,high,,,,,,true,,,,false,147468.09999996424,147467.80000001192,146038.731,146025.19999998808,146055.4,147488.285,1,16,,
trial,html.Screen,4_15_0,2023-11-15T21:33:04.209Z,,,,0,-0.8409658634318444,-0.8422553783328103,,true,hh,1405.5150000119174,response,1.0324288349148223,0.9999999999999998,-0.9999999999999998,0.9551989453759216,0.9999999999999998,-0.9999999999999998,high,high,,ISIC_2731621.JPG,,ISIC_0033570.JPG,154,true,hh,keypress(i),100,false,148894,148893.80000001192,147471.724,147468.19999998808,147488.285,148921.608,1,16,16,
sequence,flow.Sequence,4_15,2023-11-15T21:33:04.209Z,,,,,,,,,,1405.5150000119174,completion,,,,,,,high,high,,,,,,true,,,,false,148894.09999996424,148893.80000001192,147471.724,147468.09999996424,147488.285,148921.608,1,16,,
demonstration_loop,flow.Loop,4,2023-11-15T21:33:04.209Z,,,,,,,,,,48205.47700001192,completion,,,,,,,,,,,,,,true,,,,false,148894.19999998808,148893.80000001192,100671.666,100662.80000001192,100688.323,148921.608,1,16,,
practice_instructions,html.Screen,5,2023-11-15T21:33:29.136Z,,,,,,,,,,24892.692000011913,response,,,,,,,,,,,,,,,continue,click button,,,173820.5,173814.30000001192,148905.389,148894.19999998808,148921.608,173821.616,,,,
trial,html.Screen,6_0_0,2023-11-15T21:33:38.795Z,,,,1,0.8407642478899736,-0.9542322753334054,,true,lh,9657.883999999991,response,-0.8779374983479176,0.9999999999999998,-0.9999999999999998,0.9745548032823428,0.9999999999999998,-0.9999999999999998,low,high,,ISIC_9090822.JPG,,ISIC_2991354.JPG,24,true,lh,keypress(e),0,false,183479.69999998808,183479.5,173805.105,173820.59999996424,173821.616,183488.399,1,40,1,
sequence,flow.Sequence,6_0,2023-11-15T21:33:38.795Z,,,,,,,,,,9657.883999999991,completion,,,,,,,low,high,,,,,,true,,,,false,183479.69999998808,183479.5,173805.105,173820.59999996424,173821.616,183488.399,1,40,,
trial,html.Screen,6_1_0,2023-11-15T21:33:45.980Z,,,,1,0.9873794329144926,-0.9500689037516484,,false,lh,7175.500999976153,response,-1.1890109863264902,0.9999999999999998,-0.9999999999999998,0.8867825318561365,0.9999999999999998,-0.9999999999999998,low,high,,ISIC_0013498.JPG,,ISIC_0072576.JPG,24,true,ll,keypress(f),0,false,190664.09999996424,190663.89999997616,183471.5,183479.80000001192,183488.399,190671.66,1,40,2,
sequence,flow.Sequence,6_1,2023-11-15T21:33:45.980Z,,,,,,,,,,7175.500999976153,completion,,,,,,,low,high,,,,,,true,,,,false,190664.09999996424,190663.89999997616,183471.5,183479.80000001192,183488.399,190671.66,1,40,,
trial,html.Screen,6_2_0,2023-11-15T21:33:54.828Z,,,,1,-0.8779374983479176,0.9745548032823428,,true,hl,8840.140000011917,response,1.1547137855907486,0.9999999999999998,-0.9999999999999998,-1.0185275168641534,0.9999999999999998,-0.9999999999999998,high,low,,ISIC_2991354.JPG,,ISIC_7604870.JPG,24,true,hl,keypress(j),0,false,199511.89999997616,199511.80000001192,190654.83,190664.19999998808,190671.66,199521.726,1,40,3,
sequence,flow.Sequence,6_2,2023-11-15T21:33:54.828Z,,,,,,,,,,8840.140000011917,completion,,,,,,,high,low,,,,,,true,,,,false,199512.09999996424,199511.80000001192,190654.83,190664.19999998808,190671.66,199521.726,1,40,,
trial,html.Screen,6_3_0,2023-11-15T21:34:01.452Z,,,,1,-0.849847885203758,0.973447384095442,,false,hl,6614.173999976163,response,0.8407642478899736,0.9999999999999998,-0.9999999999999998,-0.9542322753334054,0.9999999999999998,-0.9999999999999998,high,low,,ISIC_9612228.JPG,,ISIC_9090822.JPG,24,true,ll,keypress(f),0,false,206136,206135.89999997616,199504.82,199512.09999996424,199521.726,206138.178,1,40,4,
sequence,flow.Sequence,6_3,2023-11-15T21:34:01.452Z,,,,,,,,,,6614.173999976163,completion,,,,,,,high,low,,,,,,true,,,,false,206136,206135.89999997616,199504.82,199512.09999996424,199521.726,206138.178,1,40,,
trial,html.Screen,6_4_0,2023-11-15T21:34:07.036Z,,,,1,-0.849847885203758,0.973447384095442,,true,hl,5581.721999976144,response,1.0822170028935367,0.9999999999999998,-0.9999999999999998,-1.1654796154432183,0.9999999999999998,-0.9999999999999998,high,low,,ISIC_9612228.JPG,,ISIC_7288818.JPG,24,true,hl,keypress(j),0,false,211720,211719.89999997616,206121.338,206136.09999996424,206138.178,211721.529,1,40,5,
sequence,flow.Sequence,6_4,2023-11-15T21:34:07.036Z,,,,,,,,,,5581.721999976144,completion,,,,,,,high,low,,,,,,true,,,,false,211720.09999996424,211719.89999997616,206121.338,206136.09999996424,206138.178,211721.529,1,40,,
trial,html.Screen,6_5_0,2023-11-15T21:34:11.883Z,,,,1,1.0700930503975157,-0.923753102263735,,true,lh,4845.97099999999,response,-0.8591294258188253,0.9999999999999998,-0.9999999999999998,0.870797302150167,0.9999999999999998,-0.9999999999999998,low,high,,ISIC_0000022.JPG,,ISIC_0055841.JPG,24,true,lh,keypress(e),0,false,216567.5,216567.5,211704.968,211720.09999996424,211721.529,216571.498,1,40,6,
sequence,flow.Sequence,6_5,2023-11-15T21:34:11.883Z,,,,,,,,,,4845.97099999999,completion,,,,,,,low,high,,,,,,true,,,,false,216567.59999996424,216567.5,211704.968,211720.09999996424,211721.529,216571.498,1,40,,
trial,html.Screen,6_6_0,2023-11-15T21:34:13.163Z,,,,1,-0.8579451262594331,-0.8472659344792351,,true,hh,1275.8020000119286,response,0.9106525024234248,0.9999999999999998,-0.9999999999999998,1.0361692964751965,0.9999999999999998,-0.9999999999999998,high,high,,ISIC_0067172.JPG,,ISIC_0058676.JPG,154,true,hh,keypress(i),0,false,217847.5,217847.30000001192,216554.986,216567.69999998808,216571.498,217854.97,1,40,7,
sequence,flow.Sequence,6_6,2023-11-15T21:34:13.163Z,,,,,,,,,,1275.8020000119286,completion,,,,,,,high,high,,,,,,true,,,,false,217847.5,217847.30000001192,216554.986,216567.69999998808,216571.498,217854.97,1,40,,
trial,html.Screen,6_7_0,2023-11-15T21:34:15.115Z,,,,1,1.0561331896671369,1.026183861508091,,true,ll,1944.8300000119198,response,-0.8507329774847633,0.9999999999999998,-0.9999999999999998,-0.8217011043286423,0.9999999999999998,-0.9999999999999998,low,low,,ISIC_0026595.JPG,,ISIC_0027402.JPG,111,true,ll,keypress(f),0,false,219799.89999997616,219799.80000001192,217838.453,217847.59999996424,217854.97,219804.919,1,40,8,
sequence,flow.Sequence,6_7,2023-11-15T21:34:15.116Z,,,,,,,,,,1944.8300000119198,completion,,,,,,,low,low,,,,,,true,,,,false,219799.89999997616,219799.80000001192,217838.453,217847.5,217854.97,219804.919,1,40,,
trial,html.Screen,6_8_0,2023-11-15T21:34:17.260Z,,,,1,-0.8069690440362255,0.8262727717500657,,true,hl,2139.0810000000056,response,1.127346631538643,0.9999999999999998,-0.9999999999999998,-0.8080854255453543,0.9999999999999998,-0.9999999999999998,high,low,,ISIC_0028469.JPG,,ISIC_0011045.JPG,24,true,hl,keypress(j),0,false,221944.09999996424,221944,219788.436,219800,219804.919,221955.127,1,40,9,
sequence,flow.Sequence,6_8,2023-11-15T21:34:17.260Z,,,,,,,,,,2139.0810000000056,completion,,,,,,,high,low,,,,,,true,,,,false,221944.19999998808,221944,219788.436,219800,219804.919,221955.127,1,40,,
trial,html.Screen,6_9_0,2023-11-15T21:34:19.515Z,,,,1,-0.8069690440362255,0.8262727717500657,,true,hl,2244.1730000119132,response,1.0088376543442317,0.9999999999999998,-0.9999999999999998,-0.8023075994977575,0.9999999999999998,-0.9999999999999998,high,low,,ISIC_0028469.JPG,,ISIC_7619234.JPG,24,true,hl,keypress(j),0,false,224199.30000001192,224199.30000001192,221938.37,221944.19999998808,221955.127,224204.943,1,40,10,
sequence,flow.Sequence,6_9,2023-11-15T21:34:19.515Z,,,,,,,,,,2244.1730000119132,completion,,,,,,,high,low,,,,,,true,,,,false,224199.5,224199.30000001192,221938.37,221944.19999998808,221955.127,224204.943,1,40,,
trial,html.Screen,6_10_0,2023-11-15T21:34:21.179Z,,,,1,-0.849847885203758,0.973447384095442,,true,hl,1658.656999964238,response,1.0088376543442317,0.9999999999999998,-0.9999999999999998,-0.8023075994977575,0.9999999999999998,-0.9999999999999998,high,low,,ISIC_9612228.JPG,,ISIC_7619234.JPG,24,true,hl,keypress(j),0,false,225863.69999998808,225863.59999996424,224188.413,224199.5,224204.943,225871.511,1,40,11,
sequence,flow.Sequence,6_10,2023-11-15T21:34:21.179Z,,,,,,,,,,1658.656999964238,completion,,,,,,,high,low,,,,,,true,,,,false,225863.80000001192,225863.59999996424,224188.413,224199.5,224204.943,225871.511,1,40,,
trial,html.Screen,6_11_0,2023-11-15T21:34:22.316Z,,,,1,1.0088376543442317,-0.8023075994977575,,true,lh,1128.4890000000014,response,-1.1224745971429997,0.9999999999999998,-0.9999999999999998,0.8423270217438888,0.9999999999999998,-0.9999999999999998,low,high,,ISIC_7619234.JPG,,ISIC_0057032.JPG,24,true,lh,keypress(e),0,false,227000.09999996424,227000,225854.855,225863.89999997616,225871.511,227004.915,1,40,12,
sequence,flow.Sequence,6_11,2023-11-15T21:34:22.316Z,,,,,,,,,,1128.4890000000014,completion,,,,,,,low,high,,,,,,true,,,,false,227000.19999998808,227000,225854.855,225863.89999997616,225871.511,227004.915,1,40,,
trial,html.Screen,6_12_0,2023-11-15T21:34:23.596Z,,,,1,0.9448560599810628,-0.9099421612683488,,true,lh,1274.8850000119128,response,-0.9039158082670506,0.9999999999999998,-0.9999999999999998,1.0517562064343149,0.9999999999999998,-0.9999999999999998,low,high,,ISIC_9684318.JPG,,ISIC_0015411.JPG,24,true,lh,keypress(e),0,false,228279.89999997616,228279.80000001192,226988.413,227000.19999998808,227004.915,228288.364,1,40,13,
sequence,flow.Sequence,6_12,2023-11-15T21:34:23.596Z,,,,,,,,,,1274.8850000119128,completion,,,,,,,low,high,,,,,,true,,,,false,228280,228279.80000001192,226988.413,227000.19999998808,227004.915,228288.364,1,40,,
trial,html.Screen,6_13_0,2023-11-15T21:34:25.371Z,,,,1,-0.8093178584833343,-1.0139833925057518,,true,hh,1767.4360000119195,response,0.8189159620098805,0.9999999999999998,-0.9999999999999998,0.8194695407784734,0.9999999999999998,-0.9999999999999998,high,high,,ISIC_6171084.JPG,,ISIC_0034101.JPG,154,true,hh,keypress(i),0,false,230055.89999997616,230055.80000001192,228271.784,228280,228288.364,230071.698,1,40,14,
sequence,flow.Sequence,6_13,2023-11-15T21:34:25.372Z,,,,,,,,,,1767.4360000119195,completion,,,,,,,high,high,,,,,,true,,,,false,230056,230055.80000001192,228271.784,228280,228288.364,230071.698,1,40,,
trial,html.Screen,6_14_0,2023-11-15T21:34:27.468Z,,,,1,-1.1235224875125256,0.8641223012137988,,true,hl,2080.201999976154,response,0.8015753713975186,0.9999999999999998,-0.9999999999999998,-1.0067065355978264,0.9999999999999998,-0.9999999999999998,high,low,,ISIC_0033901.JPG,,ISIC_0002119.JPG,24,true,hl,keypress(j),0,false,232152,232151.89999997616,230055.091,230056.09999996424,230071.698,232154.853,1,40,15,
sequence,flow.Sequence,6_14,2023-11-15T21:34:27.468Z,,,,,,,,,,2080.201999976154,completion,,,,,,,high,low,,,,,,true,,,,false,232152.09999996424,232151.89999997616,230055.091,230056.09999996424,230071.698,232154.853,1,40,,
trial,html.Screen,6_15_0,2023-11-15T21:34:29.228Z,,,,1,-1.00615481805876,0.8428903771195875,,true,hl,1756.5469999761553,response,0.8561946552009824,0.9999999999999998,-0.9999999999999998,-0.9282171889213044,0.9999999999999998,-0.9999999999999998,high,low,,ISIC_0069970.JPG,,ISIC_3065032.JPG,24,true,hl,keypress(j),0,false,233911.5,233911.39999997616,232138.261,232152.09999996424,232154.853,233921.561,1,40,16,
sequence,flow.Sequence,6_15,2023-11-15T21:34:29.228Z,,,,,,,,,,1756.5469999761553,completion,,,,,,,high,low,,,,,,true,,,,false,233911.59999996424,233911.39999997616,232138.261,232152.09999996424,232154.853,233921.561,1,40,,
trial,html.Screen,6_16_0,2023-11-15T21:34:30.764Z,,,,1,-0.9445114955578736,1.0054210059625863,,true,hl,1526.3389999761712,response,0.9046170303418553,0.9999999999999998,-0.9999999999999998,-1.0063426986460375,0.9999999999999998,-0.9999999999999998,high,low,,ISIC_0033807.JPG,,ISIC_0055759.JPG,24,true,hl,keypress(j),0,false,235448,235447.89999997616,233904.826,233911.59999996424,233921.561,235454.889,1,40,17,
sequence,flow.Sequence,6_16,2023-11-15T21:34:30.764Z,,,,,,,,,,1526.3389999761712,completion,,,,,,,high,low,,,,,,true,,,,false,235448.09999996424,235447.89999997616,233904.826,233911.59999996424,233921.561,235454.889,1,40,,
trial,html.Screen,6_17_0,2023-11-15T21:34:32.348Z,,,,1,0.892888705264033,1.1616901486941038,,true,ll,1576.8109999880835,response,-0.831295474746028,0.9999999999999998,-0.9999999999999998,-0.9721089662087676,0.9999999999999998,-0.9999999999999998,low,low,,ISIC_0066101.JPG,,ISIC_0760740.JPG,111,true,ll,keypress(f),0,false,237031.80000001192,237031.69999998808,235438.613,235448.19999998808,235454.889,237038.297,1,40,18,
sequence,flow.Sequence,6_17,2023-11-15T21:34:32.348Z,,,,,,,,,,1576.8109999880835,completion,,,,,,,low,low,,,,,,true,,,,false,237031.89999997616,237031.69999998808,235438.613,235448.19999998808,235454.889,237038.297,1,40,,
trial,html.Screen,6_18_0,2023-11-15T21:34:33.884Z,,,,1,-1.0998890116382043,-0.8184581417483975,,true,hh,1529.5030000119295,response,0.9464457672695302,0.9999999999999998,-0.9999999999999998,0.8245045690591577,0.9999999999999998,-0.9999999999999998,high,high,,ISIC_0002118.JPG,,ISIC_0027021.JPG,154,true,hh,keypress(i),0,false,238567.89999997616,238567.80000001192,237021.763,237031.89999997616,237038.297,238571.57,1,40,19,
sequence,flow.Sequence,6_18,2023-11-15T21:34:33.884Z,,,,,,,,,,1529.5030000119295,completion,,,,,,,high,high,,,,,,true,,,,false,238568,238567.80000001192,237021.763,237031.89999997616,237038.297,238571.57,1,40,,
trial,html.Screen,6_19_0,2023-11-15T21:34:35.164Z,,,,1,0.9858885614273278,1.050716657084935,,true,ll,1276.230000011914,response,-0.9597587651037712,0.9999999999999998,-0.9999999999999998,-0.8860066980618031,0.9999999999999998,-0.9999999999999998,low,low,,ISIC_0055498.JPG,,ISIC_7534592.JPG,111,true,ll,keypress(f),0,false,239848,239847.80000001192,238555.093,238568.09999996424,238571.57,239854.814,1,40,20,
sequence,flow.Sequence,6_19,2023-11-15T21:34:35.164Z,,,,,,,,,,1276.230000011914,completion,,,,,,,low,low,,,,,,true,,,,false,239848,239847.80000001192,238555.093,238568.09999996424,238571.57,239854.814,1,40,,
trial,html.Screen,6_20_0,2023-11-15T21:34:36.428Z,,,,1,0.9654682925870932,0.82001873969981,,true,ll,1256.986000011908,response,-1.1642596483638106,0.9999999999999998,-0.9999999999999998,-1.091507924157762,0.9999999999999998,-0.9999999999999998,low,low,,ISIC_5737704.JPG,,ISIC_0765584.JPG,111,true,ll,keypress(f),0,false,241112,241111.80000001192,239838.393,239848.09999996424,239854.814,241121.575,1,40,21,
sequence,flow.Sequence,6_20,2023-11-15T21:34:36.428Z,,,,,,,,,,1256.986000011908,completion,,,,,,,low,low,,,,,,true,,,,false,241112.09999996424,241111.80000001192,239838.393,239848,239854.814,241121.575,1,40,,
trial,html.Screen,6_21_0,2023-11-15T21:34:40.524Z,,,,1,0.8299064093289698,0.8788083232111502,,true,ll,4085.9249999999884,response,-0.913084438298574,0.9999999999999998,-0.9999999999999998,-0.8279199409322678,0.9999999999999998,-0.9999999999999998,low,low,,ISIC_0000398.JPG,,ISIC_8637134.JPG,111,true,ll,keypress(f),0,false,245207.69999998808,245207.5,241105.096,241112.19999998808,241121.575,245221.492,1,40,22,
sequence,flow.Sequence,6_21,2023-11-15T21:34:40.524Z,,,,,,,,,,4085.9249999999884,completion,,,,,,,low,low,,,,,,true,,,,false,245207.69999998808,245207.5,241105.096,241112.09999996424,241121.575,245221.492,1,40,,
trial,html.Screen,6_22_0,2023-11-15T21:34:49.772Z,,,,1,1.078286816527963,1.1255116193013075,,true,ll,9234.308000011923,response,-0.8683575372693808,0.9999999999999998,-0.9999999999999998,-1.1767706219911918,0.9999999999999998,-0.9999999999999998,low,low,,ISIC_0066213.JPG,,ISIC_0006332.JPG,111,true,ll,keypress(f),0,false,254455.89999997616,254455.80000001192,245204.725,245207.89999997616,245221.492,254471.754,1,40,23,
sequence,flow.Sequence,6_22,2023-11-15T21:34:49.772Z,,,,,,,,,,9234.308000011923,completion,,,,,,,low,low,,,,,,true,,,,false,254456,254455.80000001192,245204.725,245207.80000001192,245221.492,254471.754,1,40,,
trial,html.Screen,6_23_0,2023-11-15T21:34:56.204Z,,,,1,-1.1727618800748076,-1.0636787813411093,,true,hh,6415.845999964251,response,0.8627799752848101,0.9999999999999998,-0.9999999999999998,0.9479141048747124,0.9999999999999998,-0.9999999999999998,high,high,,ISIC_9690371.JPG,,ISIC_9615486.JPG,154,true,hh,keypress(i),0,false,260887.69999998808,260887.59999996424,254454.555,254456,254471.754,260905.278,1,40,24,
sequence,flow.Sequence,6_23,2023-11-15T21:34:56.204Z,,,,,,,,,,6415.845999964251,completion,,,,,,,high,high,,,,,,true,,,,false,260887.80000001192,260887.59999996424,254454.555,254456,254471.754,260905.278,1,40,,
trial,html.Screen,6_24_0,2023-11-15T21:35:00.332Z,,,,1,-0.9696118525781644,-0.9712966348713286,,true,hh,4110.321999964246,response,1.0570280672376675,0.9999999999999998,-0.9999999999999998,1.0932046580095067,0.9999999999999998,-0.9999999999999998,high,high,,ISIC_7927525.JPG,,ISIC_0061320.JPG,154,true,hh,keypress(i),0,false,265015.6999999881,265015.59999996424,260887.89,260887.89999997616,260905.278,265021.492,1,40,25,
sequence,flow.Sequence,6_24,2023-11-15T21:35:00.332Z,,,,,,,,,,4110.321999964246,completion,,,,,,,high,high,,,,,,true,,,,false,265015.8000000119,265015.59999996424,260887.89,260887.80000001192,260905.278,265021.492,1,40,,
trial,html.Screen,6_25_0,2023-11-15T21:35:06.667Z,,,,1,0.8087127179888679,-0.8480635840272462,,true,lh,6329.0079999999725,response,-1.1224745971429997,0.9999999999999998,-0.9999999999999998,0.8423270217438888,0.9999999999999998,-0.9999999999999998,low,high,,ISIC_3941147.JPG,,ISIC_0057032.JPG,24,true,lh,keypress(e),0,false,271350.59999996424,271350.5,265004.945,265015.8000000119,265021.492,271354.764,1,40,26,
sequence,flow.Sequence,6_25,2023-11-15T21:35:06.667Z,,,,,,,,,,6329.0079999999725,completion,,,,,,,low,high,,,,,,true,,,,false,271350.6999999881,271350.5,265004.945,265015.8000000119,265021.492,271354.764,1,40,,
trial,html.Screen,6_26_0,2023-11-15T21:35:14.300Z,,,,1,1.0193735734252425,0.9365358249762208,,true,ll,7629.036000011896,response,-0.8285454085852607,0.9999999999999998,-0.9999999999999998,-0.8539676082936701,0.9999999999999998,-0.9999999999999998,low,low,,ISIC_0071951.JPG,,ISIC_2131707.JPG,111,true,ll,keypress(f),0,false,278983.89999997616,278983.8000000119,271338.374,271350.8000000119,271354.764,278988.095,1,40,27,
sequence,flow.Sequence,6_26,2023-11-15T21:35:14.300Z,,,,,,,,,,7629.036000011896,completion,,,,,,,low,low,,,,,,true,,,,false,278984.09999996424,278983.8000000119,271338.374,271350.6999999881,271354.764,278988.095,1,40,,
trial,html.Screen,6_27_0,2023-11-15T21:35:16.460Z,,,,1,0.9046170303418553,-1.0063426986460375,,true,lh,2155.604999988107,response,-0.9445114955578736,0.9999999999999998,-0.9999999999999998,1.0054210059625863,0.9999999999999998,-0.9999999999999998,low,high,,ISIC_0055759.JPG,,ISIC_0033807.JPG,24,true,lh,keypress(e),0,false,281143.8000000119,281143.6999999881,278971.469,278984.09999996424,278988.095,281155.009,1,40,28,
sequence,flow.Sequence,6_27,2023-11-15T21:35:16.460Z,,,,,,,,,,2155.604999988107,completion,,,,,,,low,high,,,,,,true,,,,false,281144,281143.6999999881,278971.469,278984.09999996424,278988.095,281155.009,1,40,,
trial,html.Screen,6_28_0,2023-11-15T21:35:24.124Z,,,,1,-1.0998890116382043,-0.8184581417483975,,true,hh,7652.690999988059,response,1.1711612520017805,0.9999999999999998,-0.9999999999999998,1.191169949562454,0.9999999999999998,-0.9999999999999998,high,high,,ISIC_0002118.JPG,,ISIC_0061936.JPG,154,true,hh,keypress(i),0,false,288807.8000000119,288807.6999999881,281138.267,281144,281155.009,288821.718,1,40,29,
sequence,flow.Sequence,6_28,2023-11-15T21:35:24.124Z,,,,,,,,,,7652.690999988059,completion,,,,,,,high,high,,,,,,true,,,,false,288807.89999997616,288807.6999999881,281138.267,281144,281155.009,288821.718,1,40,,
trial,html.Screen,6_29_0,2023-11-15T21:35:30.572Z,,,,1,1.042408629210669,0.868184396474685,,true,ll,6434.082000011927,response,-1.071052731807262,0.9999999999999998,-0.9999999999999998,-0.8412787617064144,0.9999999999999998,-0.9999999999999998,low,low,,ISIC_0026738.JPG,,ISIC_4269227.JPG,111,true,ll,keypress(f),0,false,295255.89999997616,295255.8000000119,288804.684,288807.89999997616,288821.718,295271.615,1,40,30,
sequence,flow.Sequence,6_29,2023-11-15T21:35:30.573Z,,,,,,,,,,6434.082000011927,completion,,,,,,,low,low,,,,,,true,,,,false,295256,295255.8000000119,288804.684,288807.89999997616,288821.718,295271.615,1,40,,
trial,html.Screen,6_30_0,2023-11-15T21:35:33.292Z,,,,1,0.8620516892494489,-1.1108509340502866,,true,lh,2703.9849999642465,response,-0.9445114955578736,0.9999999999999998,-0.9999999999999998,1.0054210059625863,0.9999999999999998,-0.9999999999999998,low,high,,ISIC_5557806.JPG,,ISIC_0033807.JPG,24,true,lh,keypress(e),0,false,297975.6999999881,297975.59999996424,295254.862,295256.09999996424,295271.615,297988.54,1,40,31,
sequence,flow.Sequence,6_30,2023-11-15T21:35:33.292Z,,,,,,,,,,2703.9849999642465,completion,,,,,,,low,high,,,,,,true,,,,false,297975.8000000119,297975.59999996424,295254.862,295256.09999996424,295271.615,297988.54,1,40,,
trial,html.Screen,6_31_0,2023-11-15T21:35:34.652Z,,,,1,0.9566823908868002,-0.9602125665128364,,true,lh,1347.2600000119419,response,-0.8591294258188253,0.9999999999999998,-0.9999999999999998,0.870797302150167,0.9999999999999998,-0.9999999999999998,low,high,,ISIC_0056784.JPG,,ISIC_0055841.JPG,24,true,lh,keypress(e),0,false,299336,299335.8000000119,297971.815,297975.89999997616,297988.54,299338.091,1,40,32,
sequence,flow.Sequence,6_31,2023-11-15T21:35:34.653Z,,,,,,,,,,1347.2600000119419,completion,,,,,,,low,high,,,,,,true,,,,false,299336,299335.8000000119,297971.815,297975.89999997616,297988.54,299338.091,1,40,,
trial,html.Screen,6_32_0,2023-11-15T21:35:36.044Z,,,,1,1.082730232773217,-0.8833175387485132,,true,lh,1389.6089999880642,response,-0.8479396253253069,0.9999999999999998,-0.9999999999999998,1.011054319516718,0.9999999999999998,-0.9999999999999998,low,high,,ISIC_0011933.JPG,,ISIC_0063521.JPG,24,true,lh,keypress(e),0,false,300727.8000000119,300727.6999999881,299321.6,299336,299338.091,300738.369,1,40,33,
sequence,flow.Sequence,6_32,2023-11-15T21:35:36.044Z,,,,,,,,,,1389.6089999880642,completion,,,,,,,low,high,,,,,,true,,,,false,300727.89999997616,300727.6999999881,299321.6,299336,299338.091,300738.369,1,40,,
trial,html.Screen,6_33_0,2023-11-15T21:35:37.068Z,,,,1,-0.926039388599084,-0.8602997106237449,,true,hh,1013.330999988073,response,1.084683602025889,0.9999999999999998,-0.9999999999999998,1.0111744161375118,0.9999999999999998,-0.9999999999999998,high,high,,ISIC_5563553.JPG,,ISIC_0069946.JPG,154,true,hh,keypress(i),0,false,301751.8000000119,301751.6999999881,300721.426,300728,300738.369,301771.42,1,40,34,
sequence,flow.Sequence,6_33,2023-11-15T21:35:37.068Z,,,,,,,,,,1013.330999988073,completion,,,,,,,high,high,,,,,,true,,,,false,301751.89999997616,301751.6999999881,300721.426,300728,300738.369,301771.42,1,40,,
trial,html.Screen,6_34_0,2023-11-15T21:35:39.996Z,,,,1,-1.1727618800748076,-1.0636787813411093,,true,hh,2908.380000011937,response,1.0048859018073242,0.9999999999999998,-0.9999999999999998,1.0825120442937108,0.9999999999999998,-0.9999999999999998,high,high,,ISIC_9690371.JPG,,ISIC_0068080.JPG,154,true,hh,keypress(i),0,false,304679.8000000119,304679.8000000119,301754.77,301751.89999997616,301771.42,304688.211,1,40,35,
sequence,flow.Sequence,6_34,2023-11-15T21:35:39.997Z,,,,,,,,,,2908.380000011937,completion,,,,,,,high,high,,,,,,true,,,,false,304680,304679.8000000119,301754.77,301751.89999997616,301771.42,304688.211,1,40,,
trial,html.Screen,6_35_0,2023-11-15T21:35:42.141Z,,,,1,0.8161955089001555,0.8163157349016503,,true,ll,2135.5890000119107,response,-0.8682521581029131,0.9999999999999998,-0.9999999999999998,-1.187434999088787,0.9999999999999998,-0.9999999999999998,low,low,,ISIC_0030139.JPG,,ISIC_5772144.JPG,111,true,ll,keypress(f),0,false,306824,306823.8000000119,304671.831,304680.09999996424,304688.211,306838.361,1,40,36,
sequence,flow.Sequence,6_35,2023-11-15T21:35:42.141Z,,,,,,,,,,2135.5890000119107,completion,,,,,,,low,low,,,,,,true,,,,false,306824.09999996424,306823.8000000119,304671.831,304680.09999996424,304688.211,306838.361,1,40,,
trial,html.Screen,6_36_0,2023-11-15T21:35:45.308Z,,,,1,-0.8492821768888116,-1.1667020643738155,,true,hh,3153.1390000000247,response,1.1399925754091549,0.9999999999999998,-0.9999999999999998,0.92577667404992,0.9999999999999998,-0.9999999999999998,high,high,,ISIC_0011256.JPG,,ISIC_7331345.JPG,154,true,hh,keypress(i),0,false,309991.6999999881,309991.5,306821.568,306824.09999996424,306838.361,310004.977,1,40,37,
sequence,flow.Sequence,6_36,2023-11-15T21:35:45.308Z,,,,,,,,,,3153.1390000000247,completion,,,,,,,high,high,,,,,,true,,,,false,309991.6999999881,309991.5,306821.568,306824.09999996424,306838.361,310004.977,1,40,,
trial,html.Screen,6_37_0,2023-11-15T21:35:48.636Z,,,,1,1.084683602025889,1.0111744161375118,,true,ll,3314.3230000119074,response,-0.9949679201447648,0.9999999999999998,-0.9999999999999998,-1.0468574143792184,0.9999999999999998,-0.9999999999999998,low,low,,ISIC_0069946.JPG,,ISIC_6640753.JPG,111,true,ll,keypress(f),0,false,313319.39999997616,313319.3000000119,309988.275,309991.6999999881,310004.977,313321.41,1,40,38,
sequence,flow.Sequence,6_37,2023-11-15T21:35:48.636Z,,,,,,,,,,3314.3230000119074,completion,,,,,,,low,low,,,,,,true,,,,false,313319.5,313319.3000000119,309988.275,309991.6999999881,310004.977,313321.41,1,40,,
trial,html.Screen,6_38_0,2023-11-15T21:35:53.132Z,,,,1,-0.8229443006010407,-1.0222744279054352,,true,hh,4494.189999964263,response,0.8628696237203484,0.9999999999999998,-0.9999999999999998,0.9684635118197058,0.9999999999999998,-0.9999999999999998,high,high,,ISIC_0059257.JPG,,ISIC_0015132.JPG,154,true,hh,keypress(i),0,false,317815.8000000119,317815.59999996424,313304.929,313319.5,313321.41,317821.539,1,40,39,
sequence,flow.Sequence,6_38,2023-11-15T21:35:53.132Z,,,,,,,,,,4494.189999964263,completion,,,,,,,high,high,,,,,,true,,,,false,317815.8000000119,317815.59999996424,313304.929,313319.5,313321.41,317821.539,1,40,,
trial,html.Screen,6_39_0,2023-11-15T21:35:56.236Z,,,,1,-0.8129823105338526,0.9655386457143784,,true,hl,3098.261000011931,response,0.8561946552009824,0.9999999999999998,-0.9999999999999998,-0.9282171889213044,0.9999999999999998,-0.9999999999999998,high,low,,ISIC_8268025.JPG,,ISIC_3065032.JPG,24,true,hl,keypress(j),0,false,320919.89999997616,320919.8000000119,317804.798,317815.89999997616,317821.539,320938.61,1,40,40,
sequence,flow.Sequence,6_39,2023-11-15T21:35:56.237Z,,,,,,,,,,3098.261000011931,completion,,,,,,,high,low,,,,,,true,,,,false,320920,320919.8000000119,317804.798,317815.89999997616,317821.539,320938.61,1,40,,
practice_loop,flow.Loop,6,2023-11-15T21:35:56.237Z,,,,,,,,,,147098.1840000119,completion,,,,,,,,,,,,,,true,,,,false,320920,320919.8000000119,173805.105,173820.59999996424,173821.616,320938.61,1,40,,
stair_instructions,html.Screen,7,2023-11-15T21:36:01.227Z,,,,,,,,,,4971.390000000014,response,,,,,,,,,,,,,,,continue,click button,,,325910.6999999881,325910,320904.871,320920.09999996424,320938.61,325921.503,,,,
trial,html.Screen,8_0_0,2023-11-15T21:36:10.748Z,,,,2,-0.0191999585302269,0.0745789212985316,,false,ll,9510.196999988053,response,-1.1653123206802332,0.9999999999999998,-0.9999999999999998,-0.8605012383520609,0.9999999999999998,-0.9999999999999998,low,low,,ISIC_4024062.JPG,,ISIC_0071508.JPG,111,false,lh,keypress(e),0,true,335431.8000000119,335431.6999999881,325905.001,325910.8000000119,325921.503,335438.081,1,40,1,
sequence,flow.Sequence,8_0,2023-11-15T21:36:10.749Z,,,,,,,,,,9510.196999988053,completion,,,,,,,low,low,,,,,,false,,,,true,335432,335431.6999999881,325905.001,325910.8000000119,325921.503,335438.081,1,40,,
trial,html.Screen,8_1_0,2023-11-15T21:36:19.085Z,,,,2,-0.0514357258480358,-0.006520984995476,,true,ll,8329.818999976153,response,-0.8053027919115658,0.9999999999999998,-0.9999999999999998,-0.9001595056108199,0.9999999999999998,-1.0499999999999998,low,low,,ISIC_0031386.JPG,,ISIC_2867416.JPG,100,false,ll,keypress(f),0,true,343768,343767.89999997616,335421.504,335432,335438.081,343771.408,1,40,2,
sequence,flow.Sequence,8_1,2023-11-15T21:36:19.085Z,,,,,,,,,,8329.818999976153,completion,,,,,,,low,low,,,,,,false,,,,true,343768,343767.89999997616,335421.504,335432,335438.081,343771.408,1,40,,
trial,html.Screen,8_2_0,2023-11-15T21:36:25.500Z,,,,2,0.0539169177295974,-0.039571352787207,,true,hh,6412.392000011925,response,0.8057040901302144,0.9999999999999998,-0.8027311487611928,0.8481278654022556,0.9999999999999998,-1.0499999999999998,high,high,,ISIC_1076091.JPG,,ISIC_0014366.JPG,154,false,hh,keypress(i),0,true,350183.89999997616,350183.8000000119,343754.609,343768.09999996424,343771.408,350188.064,1,40,3,
sequence,flow.Sequence,8_2,2023-11-15T21:36:25.501Z,,,,,,,,,,6412.392000011925,completion,,,,,,,high,high,,,,,,false,,,,true,350184,350183.8000000119,343754.609,343768.09999996424,343771.408,350188.064,1,40,,
trial,html.Screen,8_3_0,2023-11-15T21:36:30.716Z,,,,2,-0.0597592587797575,,,false,hh,5210.736000011908,response,0.8543323078107433,0.9999999999999998,-0.8027311487611928,0.9163054072963652,0.9999999999999998,-1.0499999999999998,high,high,,ISIC_0071367.JPG,,ISIC_0012070.JPG,154,false,hl,keypress(j),0,true,355399,355398.8000000119,350171.411,350184.09999996424,350188.064,355404.676,1,40,4,
sequence,flow.Sequence,8_3,2023-11-15T21:36:30.716Z,,,,,,,,,,5210.736000011908,completion,,,,,,,high,high,,,,,,false,,,,true,355399,355398.8000000119,350171.411,350184.09999996424,350188.064,355404.676,1,40,,
trial,html.Screen,8_4_0,2023-11-15T21:36:38.669Z,,,,2,-0.010035581303589,0.0100711721396864,,false,hl,7947.2239999761805,response,0.9212323139676136,0.8012300866064994,-0.8027311487611928,-0.9882196642247332,1.0499999999999998,-1.0499999999999998,high,low,,ISIC_0030592.JPG,,ISIC_0014255.JPG,51,false,hh,keypress(i),0,true,363351.89999997616,363351.89999997616,355388.144,355399.09999996424,355404.676,363354.694,1,40,5,
sequence,flow.Sequence,8_4,2023-11-15T21:36:38.669Z,,,,,,,,,,7947.2239999761805,completion,,,,,,,high,low,,,,,,false,,,,true,363352,363351.89999997616,355388.144,355399.09999996424,355404.676,363354.694,1,40,,
trial,html.Screen,8_5_0,2023-11-15T21:36:49.656Z,,,,2,-0.0050319651598106,0.047524453347389,,,,11016.777999999991,timeout,-0.7033146667213788,0.8012300866064994,-0.8027311487611928,-0.9825823454317724,1.0499999999999998,-1.0999999999999999,low,low,,ISIC_0027081.JPG,,ISIC_9820910.JPG,129,false,,,0,true,374338.89999997616,374338.8000000119,363337.706,363352.09999996424,363354.694,374371.472,1,40,6,
sequence,flow.Sequence,8_5,2023-11-15T21:36:49.656Z,,,,,,,,,,10984.106000011903,completion,,,,,,,low,low,,,,,,false,,,,true,374339,374338.8000000119,363337.706,363352,363354.694,374371.472,1,40,,
trial,html.Screen,8_6_0,2023-11-15T21:36:56.413Z,,,,2,0.021811393859175,-0.0534678805668419,,true,lh,6724.22799998807,response,-0.9385447468573198,0.8012300866064994,-0.8027311487611928,1.2289860846064424,1.0499999999999998,-1.0999999999999999,low,high,,ISIC_0058054.JPG,,ISIC_0032780.JPG,37,false,lh,keypress(e),0,true,381095.6999999881,381095.6999999881,374354.943,374339.09999996424,374371.472,381104.804,1,40,7,
sequence,flow.Sequence,8_6,2023-11-15T21:36:56.413Z,,,,,,,,,,6724.22799998807,completion,,,,,,,low,high,,,,,,false,,,,true,381095.89999997616,381095.6999999881,374354.943,374339.09999996424,374371.472,381104.804,1,40,,
trial,html.Screen,8_7_0,2023-11-15T21:36:59.228Z,,,,2,-0.0514357258480358,-0.006520984995476,,true,lh,2806.3959999880753,response,-0.8150886811691144,0.8012300866064994,-0.8027311487611928,0.862416038462147,1.0499999999999998,-1.0999999999999999,low,high,,ISIC_0031386.JPG,,ISIC_0058079.JPG,37,false,lh,keypress(e),0,true,383911.3000000119,383911.1999999881,381087.949,381095.89999997616,381104.804,383921.426,1,40,8,
sequence,flow.Sequence,8_7,2023-11-15T21:36:59.228Z,,,,,,,,,,2806.3959999880753,completion,,,,,,,low,high,,,,,,false,,,,true,383911.39999997616,383911.1999999881,381087.949,381095.89999997616,381104.804,383921.426,1,40,,
trial,html.Screen,8_8_0,2023-11-15T21:37:06.604Z,,,,2,0.0377791839943904,-0.0227626648172468,,false,ll,7365.874000011943,response,-0.7234655130222643,0.8012300866064994,-0.7527311487611927,-0.9373246328148852,0.9957010615342947,-1.0999999999999999,low,low,,ISIC_7167479.JPG,,ISIC_0004848.JPG,133,false,hl,keypress(j),0,true,391287.39999997616,391287.3000000119,383904.652,383911.5,383921.426,391304.851,1,40,9,
sequence,flow.Sequence,8_8,2023-11-15T21:37:06.604Z,,,,,,,,,,7365.874000011943,completion,,,,,,,low,low,,,,,,false,,,,true,391287.5,391287.3000000119,383904.652,383911.5,383921.426,391304.851,1,40,,
trial,html.Screen,8_9_0,2023-11-15T21:37:14.333Z,,,,2,0.0085520978188085,-0.0535296539628673,,false,ll,7710.848999988055,response,-0.6766582952301987,0.8012300866064994,-0.8027311487611928,-1.1401563746843522,0.9957010615342947,-1.0999999999999999,low,low,,ISIC_0758797.JPG,,ISIC_0013204.JPG,129,false,lh,keypress(e),0,true,399015.8000000119,399015.6999999881,391287.859,391287.59999996424,391304.851,399021.343,1,40,10,
sequence,flow.Sequence,8_9,2023-11-15T21:37:14.333Z,,,,,,,,,,7710.848999988055,completion,,,,,,,low,low,,,,,,false,,,,true,399015.89999997616,399015.6999999881,391287.859,391287.59999996424,391304.851,399021.343,1,40,,
trial,html.Screen,8_10_0,2023-11-15T21:37:20.093Z,,,,2,0.0118555311043871,0.0087774532070196,,false,ll,5754.356999988086,response,-0.6586402203174089,0.8012300866064994,-0.8027311487611928,-1.1308235482231723,0.9957010615342947,-1.15,low,low,,ISIC_6488658.JPG,,ISIC_4138377.JPG,111,false,hh,keypress(i),0,true,404775.6999999881,404775.6999999881,399004.559,399015.89999997616,399021.343,404788.191,1,40,11,
sequence,flow.Sequence,8_10,2023-11-15T21:37:20.093Z,,,,,,,,,,5754.356999988086,completion,,,,,,,low,low,,,,,,false,,,,true,404775.89999997616,404775.6999999881,399004.559,399015.89999997616,399021.343,404788.191,1,40,,
trial,html.Screen,8_11_0,2023-11-15T21:37:25.580Z,,,,2,0.0742149355137113,0.0423516069066019,,true,hl,5475.309000000008,response,0.7011709745663137,0.8012300866064994,-0.8527311487611928,-0.9901017340796716,0.9957010615342947,-1.15,high,low,,ISIC_0011483.JPG,,ISIC_8679617.JPG,37,false,hl,keypress(j),0,true,410263.59999996424,410263.5,404771.357,404775.89999997616,404788.191,410271.412,1,40,12,
sequence,flow.Sequence,8_11,2023-11-15T21:37:25.581Z,,,,,,,,,,5475.309000000008,completion,,,,,,,high,low,,,,,,false,,,,true,410263.6999999881,410263.5,404771.357,404775.89999997616,404788.191,410271.412,1,40,,
trial,html.Screen,8_12_0,2023-11-15T21:37:32.013Z,,,,2,0.0700745968706567,0.013891147856594,,false,ll,6424.187999964226,response,-0.8719826114571525,0.7512300866064994,-0.8527311487611928,-1.2016542336356246,0.9957010615342947,-1.15,low,low,,ISIC_0054663.JPG,,ISIC_0002622.JPG,103,false,hl,keypress(j),0,true,416695.6999999881,416695.59999996424,410254.646,410263.8000000119,410271.412,416704.793,1,40,13,
sequence,flow.Sequence,8_12,2023-11-15T21:37:32.013Z,,,,,,,,,,6424.187999964226,completion,,,,,,,low,low,,,,,,false,,,,true,416695.8000000119,416695.59999996424,410254.646,410263.8000000119,410271.412,416704.793,1,40,,
trial,html.Screen,8_13_0,2023-11-15T21:37:37.917Z,,,,2,-0.0683185670328473,-0.0092332028949561,,true,hl,5894.706999999995,response,0.8588347582642082,0.7512300866064994,-0.9027311487611929,-0.8899503828496784,0.9957010615342947,-1.045877983857648,high,low,,ISIC_3652847.JPG,,ISIC_0174983.JPG,56,false,hl,keypress(j),0,true,422599.6999999881,422599.5,416688.068,416695.89999997616,416704.793,422604.629,1,40,14,
sequence,flow.Sequence,8_13,2023-11-15T21:37:37.917Z,,,,,,,,,,5894.706999999995,completion,,,,,,,high,low,,,,,,false,,,,true,422599.8000000119,422599.5,416688.068,416695.8000000119,416704.793,422604.629,1,40,,
trial,html.Screen,8_14_0,2023-11-15T21:37:44.461Z,,,,2,0.0203374006918297,-0.0594475300019112,,false,lh,6539.171000011906,response,-0.7898684912324617,0.7512300866064994,-0.9027311487611929,0.8342581908806269,0.9957010615342947,-1.045877983857648,low,high,,ISIC_0028579.JPG,,ISIC_0046537.JPG,33,false,ll,keypress(f),0,true,429143.89999997616,429143.8000000119,422588.032,422599.89999997616,422604.629,429154.714,1,40,15,
sequence,flow.Sequence,8_14,2023-11-15T21:37:44.461Z,,,,,,,,,,6539.171000011906,completion,,,,,,,low,high,,,,,,false,,,,true,429144,429143.8000000119,422588.032,422599.8000000119,422604.629,429154.714,1,40,,
trial,html.Screen,8_15_0,2023-11-15T21:37:50.621Z,,,,2,0.0060918352854008,-0.029032683404407,,false,hl,6148.68599997618,response,0.8015753713975186,0.7512300866064994,-0.9027311487611929,-1.0067065355978264,1.0457010615342948,-1.045877983857648,high,low,,ISIC_8436194.JPG,,ISIC_0002119.JPG,56,false,hh,keypress(i),0,true,435303.59999996424,435303.39999997616,429137.996,429144,429154.714,435322.033,1,40,16,
sequence,flow.Sequence,8_15,2023-11-15T21:37:50.621Z,,,,,,,,,,6148.68599997618,completion,,,,,,,high,low,,,,,,false,,,,true,435303.59999996424,435303.39999997616,429137.996,429144,429154.714,435322.033,1,40,,
trial,html.Screen,8_16_0,2023-11-15T21:37:57.197Z,,,,2,-0.0729466326865927,0.0055109446314237,,false,hh,6557.566999964241,response,0.5791732386268582,0.7012300866064993,-0.9027311487611929,0.9874585599447032,1.0457010615342948,-1.095877983857648,high,high,,ISIC_0032597.JPG,,ISIC_0066338.JPG,168,false,ll,keypress(f),0,true,441879.8000000119,441879.59999996424,435288.011,435303.6999999881,435322.033,441888.037,1,40,17,
sequence,flow.Sequence,8_16,2023-11-15T21:37:57.197Z,,,,,,,,,,6557.566999964241,completion,,,,,,,high,high,,,,,,false,,,,true,441879.89999997616,441879.59999996424,435288.011,435303.6999999881,435322.033,441888.037,1,40,,
trial,html.Screen,8_17_0,2023-11-15T21:38:04.781Z,,,,2,0.0702697127166421,0.0314752704888287,,true,ll,7575.462999999989,response,-0.9036177845601896,0.7512300866064994,-0.9027311487611929,-1.1504406797855629,1.0957010615342948,-1.095877983857648,low,low,,ISIC_0033881.JPG,,ISIC_3947876.JPG,112,false,ll,keypress(f),0,true,449463.6999999881,449463.5,441871.295,441880,441888.037,449471.315,1,40,18,
sequence,flow.Sequence,8_17,2023-11-15T21:38:04.781Z,,,,,,,,,,7575.462999999989,completion,,,,,,,low,low,,,,,,false,,,,true,449463.8000000119,449463.5,441871.295,441879.89999997616,441888.037,449471.315,1,40,,
trial,html.Screen,8_18_0,2023-11-15T21:38:14.237Z,,,,2,0.0071892445601978,-0.0246015408628738,,true,hh,9448.485000011919,response,0.6243137808170693,0.7512300866064994,-0.9770292321728762,1.1671981588578069,1.0957010615342948,-1.095877983857648,high,high,,ISIC_0014133.JPG,,ISIC_0026089.JPG,150,false,hh,keypress(i),0,true,458919.89999997616,458919.8000000119,449454.52,449463.8000000119,449471.315,458939.265,1,40,19,
sequence,flow.Sequence,8_18,2023-11-15T21:38:14.237Z,,,,,,,,,,9448.485000011919,completion,,,,,,,high,high,,,,,,false,,,,true,458920,458919.8000000119,449454.52,449463.8000000119,449471.315,458939.265,1,40,,
trial,html.Screen,8_19_0,2023-11-15T21:38:19.853Z,,,,2,-0.0187970165493076,-0.0417726918052949,,true,hl,5596.334999964223,response,0.6286548029530173,0.7512300866064994,-0.9770292321728762,-0.9025935080849524,1.0957010615342948,-1.095877983857648,high,low,,ISIC_9312164.JPG,,ISIC_5545874.JPG,51,false,hl,keypress(j),0,true,464535.59999996424,464535.59999996424,458904.488,458920,458939.265,464537.927,1,40,20,
sequence,flow.Sequence,8_19,2023-11-15T21:38:19.853Z,,,,,,,,,,5596.334999964223,completion,,,,,,,high,low,,,,,,false,,,,true,464535.8000000119,464535.59999996424,458904.488,458920,458939.265,464537.927,1,40,,
trial,html.Screen,8_20_0,2023-11-15T21:38:24.653Z,,,,2,-0.0189295602385628,-0.0128812415435153,,true,hh,4797.672999964212,response,0.8543323078107433,0.7012300866064993,-0.9770292321728762,0.9163054072963652,1.0957010615342948,-1.045877983857648,high,high,,ISIC_0010372.JPG,,ISIC_0012070.JPG,149,false,hh,keypress(i),0,true,469335.6999999881,469335.59999996424,464521.325,464535.8000000119,464537.927,469337.889,1,40,21,
sequence,flow.Sequence,8_20,2023-11-15T21:38:24.653Z,,,,,,,,,,4797.672999964212,completion,,,,,,,high,high,,,,,,false,,,,true,469335.89999997616,469335.59999996424,464521.325,464535.8000000119,464537.927,469337.889,1,40,,
trial,html.Screen,8_21_0,2023-11-15T21:38:34.237Z,,,,2,-0.0001106800768269,0.0404747734408496,,true,hh,9581.610999999975,response,0.6814113317576093,0.7012300866064993,-0.9770292321728762,0.6710109938252534,0.8353188575535542,-1.045877983857648,high,high,,ISIC_5706192.JPG,,ISIC_0072215.JPG,252,false,hh,keypress(i),0,true,478919.59999996424,478919.5,469321.114,469335.89999997616,469337.889,478921.2,1,40,22,
sequence,flow.Sequence,8_21,2023-11-15T21:38:34.237Z,,,,,,,,,,9581.610999999975,completion,,,,,,,high,high,,,,,,false,,,,true,478919.6999999881,478919.5,469321.114,469335.89999997616,469337.889,478921.2,1,40,,
trial,html.Screen,8_22_0,2023-11-15T21:38:40.461Z,,,,2,-0.0127320821962457,0.0315308940184827,,true,lh,6222.299999999988,response,-1.1224745971429997,0.6262111627914313,-0.9770292321728762,0.8423270217438888,0.8353188575535542,-1.045877983857648,low,high,,ISIC_8156101.JPG,,ISIC_0057032.JPG,45,false,lh,keypress(e),0,true,485143.6999999881,485143.5,478904.416,478919.8000000119,478921.2,485154.719,1,40,23,
sequence,flow.Sequence,8_22,2023-11-15T21:38:40.461Z,,,,,,,,,,6222.299999999988,completion,,,,,,,low,high,,,,,,false,,,,true,485143.6999999881,485143.5,478904.416,478919.8000000119,478921.2,485154.719,1,40,,
trial,html.Screen,8_23_0,2023-11-15T21:38:44.893Z,,,,2,-0.004212480280886,-0.0518491070608022,,false,lh,4420.680999976175,response,-1.1598623261077452,0.6262111627914313,-0.9770292321728762,0.6961047103031557,0.7853188575535541,-1.045877983857648,low,high,,ISIC_2945324.JPG,,ISIC_0002639.JPG,51,false,hl,keypress(j),0,true,489575.5,489575.39999997616,485137.698,485143.6999999881,485154.719,489588.309,1,40,24,
sequence,flow.Sequence,8_23,2023-11-15T21:38:44.893Z,,,,,,,,,,4420.680999976175,completion,,,,,,,low,high,,,,,,false,,,,true,489575.59999996424,489575.39999997616,485137.698,485143.6999999881,485154.719,489588.309,1,40,,
trial,html.Screen,8_24_0,2023-11-15T21:38:49.437Z,,,,2,0.0480684603309257,-0.0620119776873313,,true,hh,4530.991000011913,response,0.5354770690673951,0.6262111627914313,-1.0270292321728762,0.7301267067400513,0.8353188575535542,-1.045877983857648,high,high,,ISIC_0645834.JPG,,ISIC_0010319.JPG,258,false,hh,keypress(i),0,true,494119.5,494119.3000000119,489571.532,489575.59999996424,489588.309,494121.195,1,40,25,
sequence,flow.Sequence,8_24,2023-11-15T21:38:49.437Z,,,,,,,,,,4530.991000011913,completion,,,,,,,high,high,,,,,,false,,,,true,494119.59999996424,494119.3000000119,489571.532,489575.59999996424,489588.309,494121.195,1,40,,
trial,html.Screen,8_25_0,2023-11-15T21:38:55.612Z,,,,2,-0.0646883165340005,-0.0250974824557198,,false,hl,6173.605000011914,response,0.6286548029530173,0.6262111627914313,-1.0270292321728762,-0.9025935080849524,0.8353188575535542,-1.045877983857648,high,low,,ISIC_0069515.JPG,,ISIC_5545874.JPG,71,false,ll,keypress(f),0,true,500294.89999997616,500294.8000000119,494104.573,494119.59999996424,494121.195,500304.669,1,40,26,
sequence,flow.Sequence,8_25,2023-11-15T21:38:55.612Z,,,,,,,,,,6173.605000011914,completion,,,,,,,high,low,,,,,,false,,,,true,500295,500294.8000000119,494104.573,494119.59999996424,494121.195,500304.669,1,40,,
trial,html.Screen,8_26_0,2023-11-15T21:39:05.277Z,,,,2,-0.0744767864787991,0.0482768027208112,,true,lh,9654.831000000006,response,-1.0280476560198826,0.6762111627914313,-1.0270292321728762,0.6974827878634468,0.8353188575535542,-1.045877983857648,low,high,,ISIC_0011482.JPG,,ISIC_0060033.JPG,40,false,lh,keypress(e),0,true,509959.59999996424,509959.5,500287.7,500295.09999996424,500304.669,509971.278,1,40,27,
sequence,flow.Sequence,8_26,2023-11-15T21:39:05.277Z,,,,,,,,,,9654.831000000006,completion,,,,,,,low,high,,,,,,false,,,,true,509959.6999999881,509959.5,500287.7,500295.09999996424,500304.669,509971.278,1,40,,
trial,html.Screen,8_27_0,2023-11-15T21:39:12.813Z,,,,2,0.0310298232022856,0.0697438859399019,,true,ll,7524.321999964246,response,-1.1569583426015195,0.6762111627914313,-1.0270292321728762,-1.02258614327008,0.7853188575535541,-1.045877983857648,low,low,,ISIC_0027669.JPG,,ISIC_5705973.JPG,98,false,ll,keypress(f),0,true,517495.6999999881,517495.59999996424,509954.403,509959.8000000119,509971.278,517504.663,1,40,28,
sequence,flow.Sequence,8_27,2023-11-15T21:39:12.813Z,,,,,,,,,,7524.321999964246,completion,,,,,,,low,low,,,,,,false,,,,true,517495.8000000119,517495.59999996424,509954.403,509959.8000000119,509971.278,517504.663,1,40,,
trial,html.Screen,8_28_0,2023-11-15T21:39:19.389Z,,,,2,-0.0311884318403233,0.0697810882761999,,true,ll,6566.736999976158,response,-0.881950258866775,0.6762111627914313,-0.9753168996449813,-1.1045276933275867,0.7853188575535541,-0.9753168996449813,low,low,,ISIC_4870676.JPG,,ISIC_4718237.JPG,124,false,ll,keypress(f),0,true,524071.5,524071.39999997616,517488.035,517495.8000000119,517504.663,524088.09,1,40,29,
sequence,flow.Sequence,8_28,2023-11-15T21:39:19.389Z,,,,,,,,,,6566.736999976158,completion,,,,,,,low,low,,,,,,false,,,,true,524071.59999996424,524071.39999997616,517488.035,517495.8000000119,517504.663,524088.09,1,40,,
trial,html.Screen,8_29_0,2023-11-15T21:39:30.389Z,,,,2,0.021811393859175,-0.0534678805668419,,,,11016.40499999997,timeout,0.8588347582642082,0.6762111627914313,-0.9753168996449813,-0.8899503828496784,0.7853188575535541,-0.9753168996449813,high,low,,ISIC_0058054.JPG,,ISIC_0174983.JPG,86,false,,,0,true,535071.5999999642,535071.5999999642,524071.009,524071.59999996424,524088.09,535104.495,1,40,30,
sequence,flow.Sequence,8_29,2023-11-15T21:39:30.390Z,,,,,,,,,,10983.509999964212,completion,,,,,,,high,low,,,,,,false,,,,true,535071.6999999881,535071.5999999642,524071.009,524071.59999996424,524088.09,535104.495,1,40,,
trial,html.Screen,8_30_0,2023-11-15T21:39:36.845Z,,,,2,-0.0086413421586899,-0.0360184993500958,,false,hl,6423.005000000005,response,0.8620516892494489,0.6762111627914313,-0.9753168996449813,-1.1108509340502866,0.7853188575535541,-0.9753168996449813,high,low,,ISIC_0010767.JPG,,ISIC_5557806.JPG,86,false,hh,keypress(i),0,true,541527.5,541527.5,535088.262,535071.8000000119,535104.495,541537.898,1,40,31,
sequence,flow.Sequence,8_30,2023-11-15T21:39:36.845Z,,,,,,,,,,6423.005000000005,completion,,,,,,,high,low,,,,,,false,,,,true,541527.6999999881,541527.5,535088.262,535071.6999999881,535104.495,541537.898,1,40,,
trial,html.Screen,8_31_0,2023-11-15T21:39:42.189Z,,,,2,0.0050679133050021,0.0174815595031679,,false,hh,5333.2019999641925,response,0.5152617083672414,0.6762111627914313,-0.9753168996449813,0.9489312938873696,0.7853188575535541,-1.0253168996449813,high,high,,ISIC_9848743.JPG,,ISIC_7936755.JPG,266,false,lh,keypress(e),0,true,546871.3000000119,546871.0999999642,541521.071,541527.6999999881,541537.898,546888.064,1,40,32,
sequence,flow.Sequence,8_31,2023-11-15T21:39:42.189Z,,,,,,,,,,5333.2019999641925,completion,,,,,,,high,high,,,,,,false,,,,true,546871.3000000119,546871.0999999642,541521.071,541527.6999999881,541537.898,546888.064,1,40,,
trial,html.Screen,8_32_0,2023-11-15T21:39:47.053Z,,,,2,0.0496743860812164,0.0010487105450318,,true,lh,4847.335999976145,response,-0.8782218708012578,0.7262111627914314,-0.9753168996449813,0.6143247269189396,0.7853188575535541,-1.0253168996449813,low,high,,ISIC_9312264.JPG,,ISIC_3578186.JPG,51,false,lh,keypress(e),0,true,551735.5,551735.3999999762,546871.151,546871.3999999762,546888.064,551737.792,1,40,33,
sequence,flow.Sequence,8_32,2023-11-15T21:39:47.053Z,,,,,,,,,,4847.335999976145,completion,,,,,,,low,high,,,,,,false,,,,true,551735.6999999881,551735.3999999762,546871.151,546871.3999999762,546888.064,551737.792,1,40,,
trial,html.Screen,8_33_0,2023-11-15T21:39:51.341Z,,,,2,0.0310298232022856,0.0697438859399019,,true,lh,4285.707999999984,response,-0.8150886811691144,0.7262111627914314,-0.9253168996449812,0.862416038462147,0.7316280104031545,-1.0253168996449813,low,high,,ISIC_0027669.JPG,,ISIC_0058079.JPG,63,false,lh,keypress(e),0,true,556023.5999999642,556023.5,551721.188,551735.6999999881,551737.792,556037.985,1,40,34,
sequence,flow.Sequence,8_33,2023-11-15T21:39:51.341Z,,,,,,,,,,4285.707999999984,completion,,,,,,,low,high,,,,,,false,,,,true,556023.5999999642,556023.5,551721.188,551735.6999999881,551737.792,556037.985,1,40,,
trial,html.Screen,8_34_0,2023-11-15T21:39:56.541Z,,,,2,-0.0488365673064833,0.0229344142397166,,false,lh,5185.515000000014,response,-0.9674279172871372,0.7262111627914314,-0.9253168996449812,0.7134300562904723,0.7316280104031545,-1.0253168996449813,low,high,,ISIC_0056915.JPG,,ISIC_9130157.JPG,63,false,ll,keypress(f),0,true,561223.5999999642,561223.5,556021.186,556023.6999999881,556037.985,561237.982,1,40,35,
sequence,flow.Sequence,8_34,2023-11-15T21:39:56.542Z,,,,,,,,,,5185.515000000014,completion,,,,,,,low,high,,,,,,false,,,,true,561223.6999999881,561223.5,556021.186,556023.6999999881,556037.985,561237.982,1,40,,
trial,html.Screen,8_35_0,2023-11-15T21:40:00.877Z,,,,2,0.0658785165472318,0.0638000940494709,,true,hl,4321.417999976198,response,0.6170070168523604,0.7262111627914314,-0.8753168996449812,-1.033442916947398,0.7816280104031545,-1.0253168996449813,high,low,,ISIC_0626501.JPG,,ISIC_0031389.JPG,62,false,hl,keypress(j),0,true,565559.5999999642,565559.3999999762,561221.154,561223.8000000119,561237.982,565571.215,1,40,36,
sequence,flow.Sequence,8_35,2023-11-15T21:40:00.877Z,,,,,,,,,,4321.417999976198,completion,,,,,,,high,low,,,,,,false,,,,true,565559.5999999642,565559.3999999762,561221.154,561223.8000000119,561237.982,565571.215,1,40,,
trial,html.Screen,8_36_0,2023-11-15T21:40:04.973Z,,,,2,0.0085520978188085,-0.0535296539628673,,true,lh,4083.9849999881117,response,-0.8591294258188253,0.7262111627914314,-0.8753168996449812,0.870797302150167,0.7816280104031545,-1.0253168996449813,low,high,,ISIC_0758797.JPG,,ISIC_0055841.JPG,68,false,lh,keypress(e),0,true,569655.3999999762,569655.1999999881,565554.598,565559.5999999642,565571.215,569671.29,1,40,37,
sequence,flow.Sequence,8_36,2023-11-15T21:40:04.973Z,,,,,,,,,,4083.9849999881117,completion,,,,,,,low,high,,,,,,false,,,,true,569655.5,569655.1999999881,565554.598,565559.5999999642,565571.215,569671.29,1,40,,
trial,html.Screen,8_37_0,2023-11-15T21:40:11.325Z,,,,2,0.0399381815506136,0.0177751789152893,,true,hh,6336.209999999963,response,0.5291390178654743,0.7262111627914314,-0.8753168996449812,0.8376415796403436,0.7816280104031545,-1.0253168996449813,high,high,,ISIC_3981425.JPG,,ISIC_0025603.JPG,253,false,hh,keypress(i),0,true,576007.5999999642,576007.5,569654.512,569655.5,569671.29,576021.373,1,40,38,
sequence,flow.Sequence,8_37,2023-11-15T21:40:11.325Z,,,,,,,,,,6336.209999999963,completion,,,,,,,high,high,,,,,,false,,,,true,576007.5999999642,576007.5,569654.512,569655.5,569671.29,576021.373,1,40,,
trial,html.Screen,8_38_0,2023-11-15T21:40:15.805Z,,,,2,0.0085520978188085,-0.0535296539628673,,true,hl,4466.026999976137,response,0.7468996036626098,0.8042194408952552,-0.8753168996449812,-1.0079605779898853,0.8042194408952552,-1.0253168996449813,high,low,,ISIC_0758797.JPG,,ISIC_5335139.JPG,54,false,hl,keypress(j),0,true,580487.5999999642,580487.3999999762,576004.673,576007.6999999881,576021.373,580521.142,1,40,39,
sequence,flow.Sequence,8_38,2023-11-15T21:40:15.805Z,,,,,,,,,,4466.026999976137,completion,,,,,,,high,low,,,,,,false,,,,true,580487.6999999881,580487.3999999762,576004.673,576007.6999999881,576021.373,580521.142,1,40,,
trial,html.Screen,8_39_0,2023-11-15T21:40:19.293Z,,,,2,-0.0127320821962457,0.0315308940184827,,false,hh,3454.3580000000075,response,0.9678275430522372,0.8042194408952552,-0.8753168996449812,0.6244645529238094,0.8042194408952552,-0.9753168996449813,high,high,,ISIC_8156101.JPG,,ISIC_0034090.JPG,235,false,hl,keypress(j),0,true,583975.5999999642,583975.5,580504.87,580487.6999999881,580521.142,583988.037,1,40,40,
sequence,flow.Sequence,8_39,2023-11-15T21:40:19.294Z,,,,,,,,,,3454.3580000000075,completion,,,,,,,high,high,,,,,,false,,,,true,583975.6999999881,583975.5,580504.87,580487.6999999881,580521.142,583988.037,1,40,,
stair_loop,flow.Loop,8,2023-11-15T21:40:19.294Z,,,,,,,,,,258053.99699999997,completion,,,,,,,,,,,,,,false,,,,true,583975.8000000119,583975.5,325905.001,325910.8000000119,325921.503,583988.037,1,40,,
exp_instructions,html.Screen,9,2023-11-15T21:40:37.693Z,,,,,,,,,,18387.062999964226,response,,,,,,,,,,,,,,,continue,keypress(Space),,,602375.5999999642,602375.0999999642,583971.025,583975.8000000119,583988.037,602387.704,,,,
trial,html.Screen,10_0_0,2023-11-15T21:40:43.789Z,,,,1,-0.0050319651598106,0.047524453347389,,false,ll,6083.39599996421,response,-1.0437497612294713,0.6965138829833206,-0.9560018326561396,-0.93059645456522,0.8093053142991614,-1.0235413333300478,low,low,,ISIC_0027081.JPG,8,ISIC_0032357.JPG,111,false,hl,keypress(j),0,false,608471.0999999642,608471.0999999642,602370.432,602375.6999999881,602387.704,608487.946,4,500,1,
break,html.Screen,10_0_1,2023-11-15T21:40:43.789Z,,,,,,,,,,NaN,,,,,,,,low,low,,,,,,false,,,,false,608471.5,608471.3999999762,,608471.1999999881,,608487.946,4,500,,
break_continue,html.Screen,10_0_2,2023-11-15T21:40:43.789Z,,,,,,,,,,NaN,,,,,,,,low,low,,,,,,false,,,,false,608471.8000000119,608471.6999999881,,608471.5999999642,,608487.946,4,500,,
sequence,flow.Sequence,10_0,2023-11-15T21:40:43.789Z,,,,,,,,,,6083.995999988052,completion,,,,,,,low,low,,,,,,false,,,,false,608471.8999999762,608471.6999999881,602370.432,602375.6999999881,602387.704,608487.946,4,500,,
trial,html.Screen,10_1_0,2023-11-15T21:40:47.421Z,,,,1,-0.0051046740562181,0.0178832721027728,,true,lh,3615.253999988083,response,-0.9394943755829636,0.6965138829833206,-0.9560018326561396,0.7928025019302636,0.8093053142991614,-1.0235413333300478,low,high,,ISIC_9545819.JPG,9,ISIC_0071550.JPG,50,false,lh,keypress(e),0,false,612103.3000000119,612103.1999999881,608471.071,608471.8999999762,608487.946,612121.811,4,500,2,
break,html.Screen,10_1_1,2023-11-15T21:40:47.421Z,,,,,,,,,,NaN,,,,,,,,low,high,,,,,,false,,,,false,612103.5999999642,612103.5999999642,,612103.5,,612121.811,4,500,,
break_continue,html.Screen,10_1_2,2023-11-15T21:40:47.421Z,,,,,,,,,,NaN,,,,,,,,low,high,,,,,,false,,,,false,612103.8999999762,612103.8000000119,,612103.5999999642,,612121.811,4,500,,
sequence,flow.Sequence,10_1,2023-11-15T21:40:47.421Z,,,,,,,,,,3615.8540000119247,completion,,,,,,,low,high,,,,,,false,,,,false,612103.8999999762,612103.8000000119,608471.071,608471.8999999762,608487.946,612121.811,4,500,,
trial,html.Screen,10_2_0,2023-11-15T21:40:52.349Z,,,,1,-0.0514357258480358,-0.006520984995476,,true,hl,4909.588999976171,response,0.6613851830392706,0.6965138829833206,-0.9560018326561396,-0.9184534914196774,0.8093053142991614,-1.0235413333300478,high,low,,ISIC_0031386.JPG,9,ISIC_0030829.JPG,65,false,hl,keypress(j),0,false,617031.5,617031.3999999762,612087.749,612104,612121.811,617037.762,4,500,3,
break,html.Screen,10_2_1,2023-11-15T21:40:52.349Z,,,,,,,,,,NaN,,,,,,,,high,low,,,,,,false,,,,false,617031.8000000119,617031.6999999881,,617031.5,,617037.762,4,500,,
break_continue,html.Screen,10_2_2,2023-11-15T21:40:52.349Z,,,,,,,,,,NaN,,,,,,,,high,low,,,,,,false,,,,false,617032,617031.8999999762,,617031.8999999762,,617037.762,4,500,,
sequence,flow.Sequence,10_2,2023-11-15T21:40:52.349Z,,,,,,,,,,4910.088999976171,completion,,,,,,,high,low,,,,,,false,,,,false,617032,617031.8999999762,612087.749,612103.8999999762,612121.811,617037.762,4,500,,
trial,html.Screen,10_3_0,2023-11-15T21:40:56.301Z,,,,1,-0.019361072276763,-0.0523902345755568,,false,ll,3945.538000011933,response,-0.926039388599084,0.6965138829833206,-0.9560018326561396,-0.8602997106237449,0.8093053142991614,-1.0235413333300478,low,low,,ISIC_4066726.JPG,9,ISIC_5563553.JPG,111,false,hl,keypress(j),0,false,620983.3000000119,620983.3000000119,617021.343,617032,617037.762,620987.737,4,500,4,
break,html.Screen,10_3_1,2023-11-15T21:40:56.301Z,,,,,,,,,,NaN,,,,,,,,low,low,,,,,,false,,,,false,620983.5999999642,620983.5999999642,,620983.3999999762,,620987.737,4,500,,
break_continue,html.Screen,10_3_2,2023-11-15T21:40:56.301Z,,,,,,,,,,NaN,,,,,,,,low,low,,,,,,false,,,,false,620983.8000000119,620983.8000000119,,620983.5999999642,,620987.737,4,500,,
sequence,flow.Sequence,10_3,2023-11-15T21:40:56.301Z,,,,,,,,,,3946.038000011933,completion,,,,,,,low,low,,,,,,false,,,,false,620983.8999999762,620983.8000000119,617021.343,617032,617037.762,620987.737,4,500,,
trial,html.Screen,10_4_0,2023-11-15T21:41:01.293Z,,,,1,0.0420795830016583,-0.0226772711905177,,false,hh,4987.563000011956,response,0.8387460443597405,0.6965138829833206,-0.9560018326561396,0.8583167463787408,0.8093053142991614,-1.0235413333300478,high,high,,ISIC_0638857.JPG,8,ISIC_0014189.JPG,263,false,hl,keypress(j),0,false,625975.3999999762,625975.3000000119,620971.218,620983.8999999762,620987.737,625987.886,4,500,5,
break,html.Screen,10_4_1,2023-11-15T21:41:01.293Z,,,,,,,,,,NaN,,,,,,,,high,high,,,,,,false,,,,false,625975.5999999642,625975.5999999642,,625975.5,,625987.886,4,500,,
break_continue,html.Screen,10_4_2,2023-11-15T21:41:01.293Z,,,,,,,,,,NaN,,,,,,,,high,high,,,,,,false,,,,false,625975.8999999762,625975.8000000119,,625975.8000000119,,625987.886,4,500,,
sequence,flow.Sequence,10_4,2023-11-15T21:41:01.293Z,,,,,,,,,,4988.063000011956,completion,,,,,,,high,high,,,,,,false,,,,false,625975.8999999762,625975.8000000119,620971.218,620983.8999999762,620987.737,625987.886,4,500,,
trial,html.Screen,10_5_0,2023-11-15T21:41:04.621Z,,,,1,0.040352316356354,0.0039626669358928,,false,ll,3315.5139999761013,response,-1.0581281450494728,0.6965138829833206,-0.9560018326561396,-1.133169116569424,0.8093053142991614,-1.0235413333300478,low,low,,ISIC_3018550.JPG,9,ISIC_5490352.JPG,111,false,lh,keypress(e),0,false,629303.5999999642,629303.3999999762,625971.102,625976,625987.886,629322.101,4,500,6,
break,html.Screen,10_5_1,2023-11-15T21:41:04.621Z,,,,,,,,,,NaN,,,,,,,,low,low,,,,,,false,,,,false,629303.8999999762,629303.8000000119,,629303.5999999642,,629322.101,4,500,,
break_continue,html.Screen,10_5_2,2023-11-15T21:41:04.621Z,,,,,,,,,,NaN,,,,,,,,low,low,,,,,,false,,,,false,629304,629303.8999999762,,629303.8999999762,,629322.101,4,500,,
sequence,flow.Sequence,10_5,2023-11-15T21:41:04.621Z,,,,,,,,,,3316.0139999761013,completion,,,,,,,low,low,,,,,,false,,,,false,629304.0999999642,629303.8999999762,625971.102,625975.8999999762,625987.886,629322.101,4,500,,
trial,html.Screen,10_6_0,2023-11-15T21:41:10.653Z,,,,1,0.0310298232022856,0.0697438859399019,,true,ll,6013.298999976134,response,-0.8382616284209584,0.6965138829833206,-0.9560018326561396,-0.9132548085712324,0.8093053142991614,-1.0235413333300478,low,low,,ISIC_0027669.JPG,10,ISIC_0007740.JPG,111,false,ll,keypress(f),0,false,635335.5999999642,635335.3999999762,629288.057,629304.0999999642,629322.101,635337.689,4,500,7,
break,html.Screen,10_6_1,2023-11-15T21:41:10.653Z,,,,,,,,,,NaN,,,,,,,,low,low,,,,,,false,,,,false,635335.8000000119,635335.8000000119,,635335.6999999881,,635337.689,4,500,,
break_continue,html.Screen,10_6_2,2023-11-15T21:41:10.653Z,,,,,,,,,,NaN,,,,,,,,low,low,,,,,,false,,,,false,635336,635335.8999999762,,635335.8999999762,,635337.689,4,500,,
sequence,flow.Sequence,10_6,2023-11-15T21:41:10.653Z,,,,,,,,,,6013.798999976134,completion,,,,,,,low,low,,,,,,false,,,,false,635336,635335.8999999762,629288.057,629304.0999999642,629322.101,635337.689,4,500,,
trial,html.Screen,10_7_0,2023-11-15T21:41:15.885Z,,,,1,-0.004212480280886,-0.0518491070608022,,true,hl,5229.810999999987,response,0.7011709745663137,0.6965138829833206,-0.9560018326561396,-0.9901017340796716,0.8093053142991614,-1.0235413333300478,high,low,,ISIC_2945324.JPG,8,ISIC_8679617.JPG,65,false,hl,keypress(j),0,false,640567.5999999642,640567.5,635321.076,635336,635337.689,640571.035,4,500,8,
break,html.Screen,10_7_1,2023-11-15T21:41:15.885Z,,,,,,,,,,NaN,,,,,,,,high,low,,,,,,false,,,,false,640567.8999999762,640567.8000000119,,640567.5999999642,,640571.035,4,500,,
break_continue,html.Screen,10_7_2,2023-11-15T21:41:15.885Z,,,,,,,,,,NaN,,,,,,,,high,low,,,,,,false,,,,false,640568,640568,,640567.8999999762,,640571.035,4,500,,
sequence,flow.Sequence,10_7,2023-11-15T21:41:15.886Z,,,,,,,,,,5230.310999999987,completion,,,,,,,high,low,,,,,,false,,,,false,640568.0999999642,640568,635321.076,635336,635337.689,640571.035,4,500,,
trial,html.Screen,10_8_0,2023-11-15T21:41:21.277Z,,,,1,-0.0311884318403233,0.0697810882761999,,true,lh,5388.464999999967,response,-0.9445114955578736,0.6965138829833206,-0.9560018326561396,1.0054210059625863,0.8093053142991614,-1.0235413333300478,low,high,,ISIC_4870676.JPG,9,ISIC_0033807.JPG,50,false,lh,keypress(e),0,false,645959.5,645959.5,640554.452,640568.0999999642,640571.035,645971.287,4,500,9,
break,html.Screen,10_8_1,2023-11-15T21:41:21.277Z,,,,,,,,,,NaN,,,,,,,,low,high,,,,,,false,,,,false,645959.8000000119,645959.8000000119,,645959.5999999642,,645971.287,4,500,,
break_continue,html.Screen,10_8_2,2023-11-15T21:41:21.277Z,,,,,,,,,,NaN,,,,,,,,low,high,,,,,,false,,,,false,645960,645959.8999999762,,645959.8999999762,,645971.287,4,500,,
sequence,flow.Sequence,10_8,2023-11-15T21:41:21.278Z,,,,,,,,,,5388.864999976126,completion,,,,,,,low,high,,,,,,false,,,,false,645960.0999999642,645959.8999999762,640554.452,640568.0999999642,640571.035,645971.287,4,500,,
trial,html.Screen,10_9_0,2023-11-15T21:41:24.573Z,,,,1,0.0560021488981517,-0.0058131881595011,,true,lh,3284.0130000119098,response,-1.1235224875125256,0.6965138829833206,-0.9560018326561396,0.8641223012137988,0.8093053142991614,-1.0235413333300478,low,high,,ISIC_0000077.JPG,10,ISIC_0033901.JPG,50,false,lh,keypress(e),0,false,649255.5,649255.3000000119,645954.496,645960.1999999881,645971.287,649271.275,4,500,10,
break,html.Screen,10_9_1,2023-11-15T21:41:24.573Z,,,,,,,,,,NaN,,,,,,,,low,high,,,,,,false,,,,false,649255.8000000119,649255.6999999881,,649255.5999999642,,649271.275,4,500,,
break_continue,html.Screen,10_9_2,2023-11-15T21:41:24.573Z,,,,,,,,,,NaN,,,,,,,,low,high,,,,,,false,,,,false,649256,649255.8999999762,,649255.8000000119,,649271.275,4,500,,
sequence,flow.Sequence,10_9,2023-11-15T21:41:24.573Z,,,,,,,,,,3284.612999976147,completion,,,,,,,low,high,,,,,,false,,,,false,649256,649255.8999999762,645954.496,645960.1999999881,645971.287,649271.275,4,500,,
trial,html.Screen,10_10_0,2023-11-15T21:41:28.605Z,,,,1,-0.0514357258480358,-0.006520984995476,,false,ll,4016.124999976135,response,-1.1344866365171962,0.6965138829833206,-0.9560018326561396,-0.926850270881616,0.8093053142991614,-1.0235413333300478,low,low,,ISIC_0031386.JPG,9,ISIC_7747998.JPG,111,false,lh,keypress(e),0,false,653287.5,653287.3999999762,649254.714,649256,649271.275,653304.785,4,500,11,
break,html.Screen,10_10_1,2023-11-15T21:41:28.605Z,,,,,,,,,,NaN,,,,,,,,low,low,,,,,,false,,,,false,653287.8999999762,653287.8000000119,,653287.5999999642,,653304.785,4,500,,
break_continue,html.Screen,10_10_2,2023-11-15T21:41:28.605Z,,,,,,,,,,NaN,,,,,,,,low,low,,,,,,false,,,,false,653288,653287.8999999762,,653287.8999999762,,653304.785,4,500,,
sequence,flow.Sequence,10_10,2023-11-15T21:41:28.605Z,,,,,,,,,,4016.624999976135,completion,,,,,,,low,low,,,,,,false,,,,false,653288,653287.8999999762,649254.714,649256,649271.275,653304.785,4,500,,
trial,html.Screen,10_11_0,2023-11-15T21:41:34.605Z,,,,1,0.0742149355137113,0.0423516069066019,,true,hl,5982.714999999967,response,0.7761549898346118,0.6965138829833206,-0.9560018326561396,-1.0995228188562456,0.8093053142991614,-1.0235413333300478,high,low,,ISIC_0011483.JPG,9,ISIC_1835041.JPG,65,false,hl,keypress(j),0,false,659287.5,659287.5,653287.716,653288.0999999642,653304.785,659287.685,4,500,12,
break,html.Screen,10_11_1,2023-11-15T21:41:34.605Z,,,,,,,,,,NaN,,,,,,,,high,low,,,,,,false,,,,false,659287.8999999762,659287.6999999881,,659287.5999999642,,659287.685,4,500,,
break_continue,html.Screen,10_11_2,2023-11-15T21:41:34.605Z,,,,,,,,,,NaN,,,,,,,,high,low,,,,,,false,,,,false,659288,659287.8999999762,,659287.8999999762,,659287.685,4,500,,
sequence,flow.Sequence,10_11,2023-11-15T21:41:34.605Z,,,,,,,,,,5983.114999976126,completion,,,,,,,high,low,,,,,,false,,,,false,659288,659287.8999999762,653287.716,653288.0999999642,653304.785,659287.685,4,500,,
trial,html.Screen,10_12_0,2023-11-15T21:41:41.693Z,,,,1,0.0377791839943904,-0.0227626648172468,,false,hl,7086.814999999944,response,0.5784451312589746,0.6965138829833206,-0.9560018326561396,-0.8473448803939776,0.8093053142991614,-1.0235413333300478,high,low,,ISIC_7167479.JPG,8,ISIC_1308081.JPG,65,false,hh,keypress(i),0,false,666374.6999999881,666374.5,659271.184,659288.0999999642,659287.685,666387.644,4,500,13,
break,html.Screen,10_12_1,2023-11-15T21:41:41.693Z,,,,,,,,,,NaN,,,,,,,,high,low,,,,,,false,,,,false,666375,666374.8999999762,,666374.8000000119,,666387.644,4,500,,
break_continue,html.Screen,10_12_2,2023-11-15T21:41:41.694Z,,,,,,,,,,NaN,,,,,,,,high,low,,,,,,false,,,,false,666375.1999999881,666375.1999999881,,666375,,666387.644,4,500,,
sequence,flow.Sequence,10_12,2023-11-15T21:41:41.694Z,,,,,,,,,,7087.514999988023,completion,,,,,,,high,low,,,,,,false,,,,false,666375.3999999762,666375.1999999881,659271.184,659288.0999999642,659287.685,666387.644,4,500,,
trial,html.Screen,10_13_0,2023-11-15T21:41:45.486Z,,,,1,-0.004212480280886,-0.0518491070608022,,true,hl,3779.755999976187,response,0.6795011676675823,0.6965138829833206,-0.9560018326561396,-0.9453006131304652,0.8093053142991614,-1.0235413333300478,high,low,,ISIC_2945324.JPG,8,ISIC_4229473.JPG,65,false,hl,keypress(j),0,false,670167.5,670167.3999999762,666370.98,666375.3999999762,666387.644,670171.02,4,500,14,
break,html.Screen,10_13_1,2023-11-15T21:41:45.486Z,,,,,,,,,,NaN,,,,,,,,high,low,,,,,,false,,,,false,670167.6999999881,670167.6999999881,,670167.5,,670171.02,4,500,,
break_continue,html.Screen,10_13_2,2023-11-15T21:41:45.486Z,,,,,,,,,,NaN,,,,,,,,high,low,,,,,,false,,,,false,670168,670167.8999999762,,670167.8999999762,,670171.02,4,500,,
sequence,flow.Sequence,10_13,2023-11-15T21:41:45.486Z,,,,,,,,,,3780.255999976187,completion,,,,,,,high,low,,,,,,false,,,,false,670168,670167.8999999762,666370.98,666375.3999999762,666387.644,670171.02,4,500,,
trial,html.Screen,10_14_0,2023-11-15T21:41:48.574Z,,,,1,-0.0191999585302269,0.0745789212985316,,false,ll,3084.2800000119023,response,-0.7653650751148957,0.6965138829833206,-0.9560018326561396,-0.8379908068878916,0.8093053142991614,-1.0235413333300478,low,low,,ISIC_4024062.JPG,9,ISIC_0627979.JPG,111,false,hl,keypress(j),0,false,673255.3999999762,673255.3000000119,670154.319,670168.0999999642,670171.02,673271.105,4,500,15,
break,html.Screen,10_14_1,2023-11-15T21:41:48.574Z,,,,,,,,,,NaN,,,,,,,,low,low,,,,,,false,,,,false,673255.5999999642,673255.5999999642,,673255.5,,673271.105,4,500,,
break_continue,html.Screen,10_14_2,2023-11-15T21:41:48.574Z,,,,,,,,,,NaN,,,,,,,,low,low,,,,,,false,,,,false,673255.8999999762,673255.8000000119,,673255.6999999881,,673271.105,4,500,,
sequence,flow.Sequence,10_14,2023-11-15T21:41:48.574Z,,,,,,,,,,3084.7800000119023,completion,,,,,,,low,low,,,,,,false,,,,false,673255.8999999762,673255.8000000119,670154.319,670168.0999999642,670171.02,673271.105,4,500,,
trial,html.Screen,10_15_0,2023-11-15T21:41:52.110Z,,,,1,-0.004212480280886,-0.0518491070608022,,true,lh,3520.3950000000186,response,-0.8129823105338526,0.6965138829833206,-0.9560018326561396,0.9655386457143784,0.8093053142991614,-1.0235413333300478,low,high,,ISIC_2945324.JPG,9,ISIC_8268025.JPG,50,false,lh,keypress(e),0,false,676791.5999999642,676791.5,673254.437,673255.8999999762,673271.105,676804.761,4,500,16,
break,html.Screen,10_15_1,2023-11-15T21:41:52.110Z,,,,,,,,,,NaN,,,,,,,,low,high,,,,,,false,,,,false,676792,676791.8000000119,,676791.6999999881,,676804.761,4,500,,
break_continue,html.Screen,10_15_2,2023-11-15T21:41:52.111Z,,,,,,,,,,NaN,,,,,,,,low,high,,,,,,false,,,,false,676792.0999999642,676792,,676792,,676804.761,4,500,,
sequence,flow.Sequence,10_15,2023-11-15T21:41:52.111Z,,,,,,,,,,3520.8950000000186,completion,,,,,,,low,high,,,,,,false,,,,false,676792.1999999881,676792,673254.437,673255.8999999762,673271.105,676804.761,4,500,,
trial,html.Screen,10_16_0,2023-11-15T21:41:57.102Z,,,,1,-0.0127364719403411,-0.0549103570808099,,false,hl,4978.539000011864,response,0.5621064629493115,0.6965138829833206,-0.9560018326561396,-0.8579750196406819,0.8093053142991614,-1.0235413333300478,high,low,,ISIC_0054705.JPG,9,ISIC_7670304.JPG,65,false,hh,keypress(i),0,false,681783.3999999762,681783.3000000119,676787.895,676792.1999999881,676804.761,681787.694,4,500,17,
break,html.Screen,10_16_1,2023-11-15T21:41:57.102Z,,,,,,,,,,NaN,,,,,,,,high,low,,,,,,false,,,,false,681783.6999999881,681783.6999999881,,681783.5,,681787.694,4,500,,
break_continue,html.Screen,10_16_2,2023-11-15T21:41:57.102Z,,,,,,,,,,NaN,,,,,,,,high,low,,,,,,false,,,,false,681783.8000000119,681783.8000000119,,681783.8000000119,,681787.694,4,500,,
sequence,flow.Sequence,10_16,2023-11-15T21:41:57.102Z,,,,,,,,,,4979.039000011864,completion,,,,,,,high,low,,,,,,false,,,,false,681783.8999999762,681783.8000000119,676787.895,676792.1999999881,676804.761,681787.694,4,500,,
trial,html.Screen,10_17_0,2023-11-15T21:42:04.478Z,,,,1,0.0077673378094614,0.0021810768579373,,true,hl,7371.805999999982,response,0.6170070168523604,0.6965138829833206,-0.9560018326561396,-1.033442916947398,0.8093053142991614,-1.0235413333300478,high,low,,ISIC_0067621.JPG,9,ISIC_0031389.JPG,65,false,hl,keypress(j),0,false,689159.5999999642,689159.5,681771.106,681784,681787.694,689171.155,4,500,18,
break,html.Screen,10_17_1,2023-11-15T21:42:04.478Z,,,,,,,,,,NaN,,,,,,,,high,low,,,,,,false,,,,false,689160,689159.8000000119,,689159.6999999881,,689171.155,4,500,,
break_continue,html.Screen,10_17_2,2023-11-15T21:42:04.479Z,,,,,,,,,,NaN,,,,,,,,high,low,,,,,,false,,,,false,689160.0999999642,689160.0999999642,,689160,,689171.155,4,500,,
sequence,flow.Sequence,10_17,2023-11-15T21:42:04.479Z,,,,,,,,,,7372.4059999642195,completion,,,,,,,high,low,,,,,,false,,,,false,689160.1999999881,689160.0999999642,681771.106,681784,681787.694,689171.155,4,500,,
trial,html.Screen,10_18_0,2023-11-15T21:42:08.494Z,,,,1,-0.0191999585302269,0.0745789212985316,,true,hh,4004.145000011893,response,0.4990191513899682,0.6965138829833206,-0.9560018326561396,1.008327664656014,0.8093053142991614,-1.0235413333300478,high,high,,ISIC_4024062.JPG,9,ISIC_0033759.JPG,263,false,hh,keypress(i),0,false,693175.3999999762,693175.3000000119,689154.363,689160.3000000119,689171.155,693187.897,4,500,19,
break,html.Screen,10_18_1,2023-11-15T21:42:08.494Z,,,,,,,,,,NaN,,,,,,,,high,high,,,,,,false,,,,false,693175.6999999881,693175.5999999642,,693175.5,,693187.897,4,500,,
break_continue,html.Screen,10_18_2,2023-11-15T21:42:08.494Z,,,,,,,,,,NaN,,,,,,,,high,high,,,,,,false,,,,false,693175.8000000119,693175.8000000119,,693175.6999999881,,693187.897,4,500,,
sequence,flow.Sequence,10_18,2023-11-15T21:42:08.494Z,,,,,,,,,,4004.645000011893,completion,,,,,,,high,high,,,,,,false,,,,false,693175.8999999762,693175.8000000119,689154.363,689160.1999999881,689171.155,693187.897,4,500,,
trial,html.Screen,10_19_0,2023-11-15T21:42:14.526Z,,,,1,-0.0683185670328473,-0.0092332028949561,,true,ll,6019.502999976161,response,-0.8789245418555859,0.6965138829833206,-0.9560018326561396,-1.207575413157872,0.8093053142991614,-1.0235413333300478,low,low,,ISIC_3652847.JPG,9,ISIC_0001602.JPG,111,false,ll,keypress(f),0,false,699207.3999999762,699207.3999999762,693171.399,693175.8999999762,693187.897,699221,4,500,20,
break,html.Screen,10_19_1,2023-11-15T21:42:14.526Z,,,,,,,,,,NaN,,,,,,,,low,low,,,,,,false,,,,false,699207.8000000119,699207.8000000119,,699207.5,,699221,4,500,,
break_continue,html.Screen,10_19_2,2023-11-15T21:42:14.526Z,,,,,,,,,,NaN,,,,,,,,low,low,,,,,,false,,,,false,699208,699207.8999999762,,699207.8000000119,,699221,4,500,,
sequence,flow.Sequence,10_19,2023-11-15T21:42:14.526Z,,,,,,,,,,6020.002999976161,completion,,,,,,,low,low,,,,,,false,,,,false,699208.0999999642,699207.8999999762,693171.399,693175.8999999762,693187.897,699221,4,500,,
trial,html.Screen,10_20_0,2023-11-15T21:42:19.182Z,,,,1,0.0629926578251803,-0.0626296407938785,,true,lh,4642.099999964237,response,-0.8069562753553525,0.6965138829833206,-0.9560018326561396,0.9101764190105358,0.8093053142991614,-1.0235413333300478,low,high,,ISIC_0027043.JPG,9,ISIC_0046596.JPG,50,false,lh,keypress(e),0,false,703863.3000000119,703863.0999999642,699204.452,699208.0999999642,699221,703871.12,4,500,21,
break,html.Screen,10_20_1,2023-11-15T21:42:19.182Z,,,,,,,,,,NaN,,,,,,,,low,high,,,,,,false,,,,false,703863.5,703863.5,,703863.3000000119,,703871.12,4,500,,
break_continue,html.Screen,10_20_2,2023-11-15T21:42:19.182Z,,,,,,,,,,NaN,,,,,,,,low,high,,,,,,false,,,,false,703863.8000000119,703863.6999999881,,703863.5999999642,,703871.12,4,500,,
sequence,flow.Sequence,10_20,2023-11-15T21:42:19.182Z,,,,,,,,,,4642.699999988079,completion,,,,,,,low,high,,,,,,false,,,,false,703863.8000000119,703863.6999999881,699204.452,699208.0999999642,699221,703871.12,4,500,,
trial,html.Screen,10_21_0,2023-11-15T21:42:22.702Z,,,,1,-0.019361072276763,-0.0523902345755568,,false,hl,3512.1800000119256,response,0.6416699984222508,0.6965138829833206,-0.9560018326561396,-1.1702231398575993,0.8093053142991614,-1.0235413333300478,high,low,,ISIC_4066726.JPG,9,ISIC_0064784.JPG,65,false,lh,keypress(e),0,false,707383.3000000119,707383.3000000119,703854.451,703863.8000000119,703871.12,707387.625,4,500,22,
break,html.Screen,10_21_1,2023-11-15T21:42:22.702Z,,,,,,,,,,NaN,,,,,,,,high,low,,,,,,false,,,,false,707383.6999999881,707383.5,,707383.3000000119,,707387.625,4,500,,
break_continue,html.Screen,10_21_2,2023-11-15T21:42:22.702Z,,,,,,,,,,NaN,,,,,,,,high,low,,,,,,false,,,,false,707383.8000000119,707383.8000000119,,707383.6999999881,,707387.625,4,500,,
sequence,flow.Sequence,10_21,2023-11-15T21:42:22.702Z,,,,,,,,,,3512.6800000119256,completion,,,,,,,high,low,,,,,,false,,,,false,707383.8999999762,707383.8000000119,703854.451,703863.8000000119,703871.12,707387.625,4,500,,
trial,html.Screen,10_22_0,2023-11-15T21:42:28.270Z,,,,1,-0.0729466326865927,0.0055109446314237,,false,ll,5563.875,response,-1.0581281450494728,0.6965138829833206,-0.9560018326561396,-1.133169116569424,0.8093053142991614,-1.0235413333300478,low,low,,ISIC_0032597.JPG,9,ISIC_5490352.JPG,111,false,lh,keypress(e),0,false,712951.5999999642,712951.5,707371.297,707383.8999999762,707387.625,712954.268,4,500,23,
break,html.Screen,10_22_1,2023-11-15T21:42:28.270Z,,,,,,,,,,NaN,,,,,,,,low,low,,,,,,false,,,,false,712951.8999999762,712951.8999999762,,712951.6999999881,,712954.268,4,500,,
break_continue,html.Screen,10_22_2,2023-11-15T21:42:28.271Z,,,,,,,,,,NaN,,,,,,,,low,low,,,,,,false,,,,false,712952.1999999881,712952.0999999642,,712952,,712954.268,4,500,,
sequence,flow.Sequence,10_22,2023-11-15T21:42:28.271Z,,,,,,,,,,5564.474999964237,completion,,,,,,,low,low,,,,,,false,,,,false,712952.1999999881,712952.0999999642,707371.297,707383.8999999762,707387.625,712954.268,4,500,,
trial,html.Screen,10_23_0,2023-11-15T21:42:32.622Z,,,,1,0.0060918352854008,-0.029032683404407,,true,lh,4349.032000011881,response,-0.8069562753553525,0.6965138829833206,-0.9560018326561396,0.9101764190105358,0.8093053142991614,-1.0235413333300478,low,high,,ISIC_8436194.JPG,8,ISIC_0046596.JPG,50,false,lh,keypress(e),0,false,717303.3999999762,717303.3000000119,712937.901,712952.1999999881,712954.268,717320.999,4,500,24,
break,html.Screen,10_23_1,2023-11-15T21:42:32.622Z,,,,,,,,,,NaN,,,,,,,,low,high,,,,,,false,,,,false,717303.6999999881,717303.5999999642,,717303.5,,717320.999,4,500,,
break_continue,html.Screen,10_23_2,2023-11-15T21:42:32.622Z,,,,,,,,,,NaN,,,,,,,,low,high,,,,,,false,,,,false,717303.8000000119,717303.6999999881,,717303.6999999881,,717320.999,4,500,,
sequence,flow.Sequence,10_23,2023-11-15T21:42:32.622Z,,,,,,,,,,4349.431999988039,completion,,,,,,,low,high,,,,,,false,,,,false,717303.8000000119,717303.6999999881,712937.901,712952.1999999881,712954.268,717320.999,4,500,,
trial,html.Screen,10_24_0,2023-11-15T21:42:37.934Z,,,,1,0.0572318562475973,0.0328299593216012,,true,ll,5294.200999988127,response,-0.8329154010765664,0.6965138829833206,-0.9560018326561396,-1.086658647698992,0.8093053142991614,-1.0235413333300478,low,low,,ISIC_0397464.JPG,9,ISIC_7407847.JPG,111,false,ll,keypress(f),0,false,722615.3000000119,722615.1999999881,717304.277,717303.8999999762,717320.999,722620.93,4,500,25,
break,html.Screen,10_24_1,2023-11-15T21:42:37.934Z,,,,,,,,,,NaN,,,,,,,,low,low,,,,,,false,,,,false,722615.5,722615.5,,722615.3999999762,,722620.93,4,500,,
break_continue,html.Screen,10_24_2,2023-11-15T21:42:37.934Z,,,,,,,,,,NaN,,,,,,,,low,low,,,,,,false,,,,false,722615.6999999881,722615.6999999881,,722615.5,,722620.93,4,500,,
sequence,flow.Sequence,10_24,2023-11-15T21:42:37.934Z,,,,,,,,,,5294.700999988127,completion,,,,,,,low,low,,,,,,false,,,,false,722615.8000000119,722615.6999999881,717304.277,717303.8000000119,717320.999,722620.93,4,500,,
trial,html.Screen,10_25_0,2023-11-15T21:42:41.726Z,,,,1,0.0077673378094614,0.0021810768579373,,true,ll,3786.469999976107,response,-1.1510001454240106,0.6965138829833206,-0.9560018326561396,-1.132540312667795,0.8093053142991614,-1.0235413333300478,low,low,,ISIC_0067621.JPG,9,ISIC_0009959.JPG,111,false,ll,keypress(f),0,false,726407.5,726407.3999999762,722604.246,722615.8000000119,722620.93,726420.986,4,500,26,
break,html.Screen,10_25_1,2023-11-15T21:42:41.726Z,,,,,,,,,,NaN,,,,,,,,low,low,,,,,,false,,,,false,726407.8000000119,726407.6999999881,,726407.5999999642,,726420.986,4,500,,
break_continue,html.Screen,10_25_2,2023-11-15T21:42:41.727Z,,,,,,,,,,NaN,,,,,,,,low,low,,,,,,false,,,,false,726407.8999999762,726407.8999999762,,726407.8000000119,,726420.986,4,500,,
sequence,flow.Sequence,10_25,2023-11-15T21:42:41.727Z,,,,,,,,,,3786.969999976107,completion,,,,,,,low,low,,,,,,false,,,,false,726408,726407.8999999762,722604.246,722615.8000000119,722620.93,726420.986,4,500,,
trial,html.Screen,10_26_0,2023-11-15T21:42:45.918Z,,,,1,0.0668201703083464,-0.0222223530621927,,true,ll,4178.413999976125,response,-0.9416900312335138,0.6965138829833206,-0.9560018326561396,-0.9485840589720004,0.8093053142991614,-1.0235413333300478,low,low,,ISIC_8321148.JPG,8,ISIC_2784686.JPG,111,false,ll,keypress(f),0,false,730599.5,730599.3999999762,726404.598,726408,726420.986,730604.336,4,500,27,
break,html.Screen,10_26_1,2023-11-15T21:42:45.919Z,,,,,,,,,,NaN,,,,,,,,low,low,,,,,,false,,,,false,730599.8000000119,730599.8000000119,,730599.5999999642,,730604.336,4,500,,
break_continue,html.Screen,10_26_2,2023-11-15T21:42:45.919Z,,,,,,,,,,NaN,,,,,,,,low,low,,,,,,false,,,,false,730600,730599.8999999762,,730599.8999999762,,730604.336,4,500,,
sequence,flow.Sequence,10_26,2023-11-15T21:42:45.919Z,,,,,,,,,,4178.913999976125,completion,,,,,,,low,low,,,,,,false,,,,false,730600,730599.8999999762,726404.598,726408,726420.986,730604.336,4,500,,
trial,html.Screen,10_27_0,2023-11-15T21:42:52.270Z,,,,1,0.021811393859175,-0.0534678805668419,,false,ll,6347.063999976148,response,-0.9487751044258608,0.6965138829833206,-0.9560018326561396,-0.9230722071334148,0.8093053142991614,-1.0235413333300478,low,low,,ISIC_0058054.JPG,9,ISIC_4568084.JPG,111,false,hl,keypress(j),0,false,736951.5999999642,736951.3999999762,730587.812,730600,730604.336,736954.264,4,500,28,
break,html.Screen,10_27_1,2023-11-15T21:42:52.271Z,,,,,,,,,,NaN,,,,,,,,low,low,,,,,,false,,,,false,736951.8999999762,736951.8000000119,,736951.5999999642,,736954.264,4,500,,
break_continue,html.Screen,10_27_2,2023-11-15T21:42:52.271Z,,,,,,,,,,NaN,,,,,,,,low,low,,,,,,false,,,,false,736952,736952,,736952,,736954.264,4,500,,
sequence,flow.Sequence,10_27,2023-11-15T21:42:52.271Z,,,,,,,,,,6347.66399999999,completion,,,,,,,low,low,,,,,,false,,,,false,736952.0999999642,736952,730587.812,730600,730604.336,736954.264,4,500,,
trial,html.Screen,10_28_0,2023-11-15T21:42:57.934Z,,,,1,0.0572318562475973,0.0328299593216012,,true,hh,5661.2360000000335,response,0.5122549314685032,0.6965138829833206,-0.9560018326561396,0.7459209087059311,0.8093053142991614,-1.0235413333300478,high,high,,ISIC_0397464.JPG,9,ISIC_0033708.JPG,263,false,hh,keypress(i),0,false,742615.5999999642,742615.5,736937.85,736952.1999999881,736954.264,742620.902,4,500,29,
break,html.Screen,10_28_1,2023-11-15T21:42:57.935Z,,,,,,,,,,NaN,,,,,,,,high,high,,,,,,false,,,,false,742616.0999999642,742616,,742615.8000000119,,742620.902,4,500,,
break_continue,html.Screen,10_28_2,2023-11-15T21:42:57.935Z,,,,,,,,,,NaN,,,,,,,,high,high,,,,,,false,,,,false,742616.3000000119,742616.1999999881,,742616.0999999642,,742620.902,4,500,,
sequence,flow.Sequence,10_28,2023-11-15T21:42:57.935Z,,,,,,,,,,5661.935999988113,completion,,,,,,,high,high,,,,,,false,,,,false,742616.3999999762,742616.1999999881,736937.85,736952.0999999642,736954.264,742620.902,4,500,,
trial,html.Screen,10_29_0,2023-11-15T21:43:04.990Z,,,,1,-0.019361072276763,-0.0523902345755568,,false,hl,7050.097999999998,response,0.6950368296080096,0.6965138829833206,-0.9560018326561396,-0.8845542489673555,0.8093053142991614,-1.0235413333300478,high,low,,ISIC_4066726.JPG,9,ISIC_0975874.JPG,65,false,lh,keypress(e),0,false,749671,749671,742604.164,742616.5,742620.902,749688.001,4,500,30,
break,html.Screen,10_29_1,2023-11-15T21:43:04.990Z,,,,,,,,,,NaN,,,,,,,,high,low,,,,,,false,,,,false,749671.3999999762,749671.3000000119,,749671.0999999642,,749688.001,4,500,,
break_continue,html.Screen,10_29_2,2023-11-15T21:43:04.990Z,,,,,,,,,,NaN,,,,,,,,high,low,,,,,,false,,,,false,749671.5999999642,749671.3999999762,,749671.3999999762,,749688.001,4,500,,
sequence,flow.Sequence,10_29,2023-11-15T21:43:04.990Z,,,,,,,,,,7050.497999976156,completion,,,,,,,high,low,,,,,,false,,,,false,749671.5999999642,749671.3999999762,742604.164,742616.3999999762,742620.902,749688.001,4,500,,
trial,html.Screen,10_30_0,2023-11-15T21:43:09.582Z,,,,1,-0.0380440426394326,-0.0685633753763444,,false,hl,4575.198999988032,response,0.5768024581337869,0.6965138829833206,-0.9560018326561396,-1.1118423775740045,0.8093053142991614,-1.0235413333300478,high,low,,ISIC_0032680.JPG,9,ISIC_2861793.JPG,65,false,ll,keypress(f),0,false,754263.3999999762,754263.1999999881,749670.969,749671.6999999881,749688.001,754271.104,4,500,31,
break,html.Screen,10_30_1,2023-11-15T21:43:09.582Z,,,,,,,,,,NaN,,,,,,,,high,low,,,,,,false,,,,false,754263.6999999881,754263.5999999642,,754263.3999999762,,754271.104,4,500,,
break_continue,html.Screen,10_30_2,2023-11-15T21:43:09.583Z,,,,,,,,,,NaN,,,,,,,,high,low,,,,,,false,,,,false,754263.8999999762,754263.8000000119,,754263.6999999881,,754271.104,4,500,,
sequence,flow.Sequence,10_30,2023-11-15T21:43:09.583Z,,,,,,,,,,4575.799000011873,completion,,,,,,,high,low,,,,,,false,,,,false,754263.8999999762,754263.8000000119,749670.969,749671.6999999881,749688.001,754271.104,4,500,,
trial,html.Screen,10_31_0,2023-11-15T21:43:15.406Z,,,,1,-0.0686816131231518,0.0045217849100701,,true,hh,5816.196000011871,response,0.7902359375375733,0.6965138829833206,-0.9560018326561396,0.6112049873602644,0.8093053142991614,-1.0235413333300478,high,high,,ISIC_5707761.JPG,9,ISIC_0899961.JPG,263,false,hh,keypress(i),0,false,760087.3999999762,760087.3000000119,754254.396,754263.8999999762,754271.104,760104.412,4,500,32,
break,html.Screen,10_31_1,2023-11-15T21:43:15.406Z,,,,,,,,,,NaN,,,,,,,,high,high,,,,,,false,,,,false,760087.8000000119,760087.6999999881,,760087.5,,760104.412,4,500,,
break_continue,html.Screen,10_31_2,2023-11-15T21:43:15.407Z,,,,,,,,,,NaN,,,,,,,,high,high,,,,,,false,,,,false,760087.8999999762,760087.8999999762,,760087.8000000119,,760104.412,4,500,,
sequence,flow.Sequence,10_31,2023-11-15T21:43:15.407Z,,,,,,,,,,5816.795999976108,completion,,,,,,,high,high,,,,,,false,,,,false,760087.8999999762,760087.8999999762,754254.396,754263.8999999762,754271.104,760104.412,4,500,,
trial,html.Screen,10_32_0,2023-11-15T21:43:19.966Z,,,,1,0.0402606077562393,-0.0233871780024155,,false,ll,4542.787999988068,response,-1.1063796153389187,0.6965138829833206,-0.9560018326561396,-0.8605921333200546,0.8093053142991614,-1.0235413333300478,low,low,,ISIC_0024401.JPG,9,ISIC_0064071.JPG,111,false,lh,keypress(e),0,false,764647.1999999881,764647.1999999881,760087.773,760088,760104.412,764654.39,4,500,33,
break,html.Screen,10_32_1,2023-11-15T21:43:19.966Z,,,,,,,,,,NaN,,,,,,,,low,low,,,,,,false,,,,false,764647.5,764647.5,,764647.3999999762,,764654.39,4,500,,
break_continue,html.Screen,10_32_2,2023-11-15T21:43:19.966Z,,,,,,,,,,NaN,,,,,,,,low,low,,,,,,false,,,,false,764647.6999999881,764647.5999999642,,764647.5999999642,,764654.39,4,500,,
sequence,flow.Sequence,10_32,2023-11-15T21:43:19.966Z,,,,,,,,,,4543.187999964226,completion,,,,,,,low,low,,,,,,false,,,,false,764647.8000000119,764647.5999999642,760087.773,760087.8999999762,760104.412,764654.39,4,500,,
trial,html.Screen,10_33_0,2023-11-15T21:43:25.038Z,,,,1,-0.0744767864787991,0.0482768027208112,,false,ll,5064.809999988065,response,-0.7668300064246735,0.6965138829833206,-0.9560018326561396,-0.9053957126199562,0.8093053142991614,-1.0235413333300478,low,low,,ISIC_0011482.JPG,8,ISIC_0058863.JPG,111,false,hl,keypress(j),0,false,769719.3000000119,769719.1999999881,764637.808,764647.8000000119,764654.39,769720.871,4,500,34,
break,html.Screen,10_33_1,2023-11-15T21:43:25.038Z,,,,,,,,,,NaN,,,,,,,,low,low,,,,,,false,,,,false,769719.5999999642,769719.5,,769719.5,,769720.871,4,500,,
break_continue,html.Screen,10_33_2,2023-11-15T21:43:25.039Z,,,,,,,,,,NaN,,,,,,,,low,low,,,,,,false,,,,false,769719.8999999762,769719.8000000119,,769719.6999999881,,769720.871,4,500,,
sequence,flow.Sequence,10_33,2023-11-15T21:43:25.039Z,,,,,,,,,,5065.410000011907,completion,,,,,,,low,low,,,,,,false,,,,false,769719.8999999762,769719.8000000119,764637.808,764647.8000000119,764654.39,769720.871,4,500,,
trial,html.Screen,10_34_0,2023-11-15T21:43:34.494Z,,,,1,-0.0086413421586899,-0.0360184993500958,,false,hl,9454.528999976115,response,0.6599850607985306,0.6965138829833206,-0.9560018326561396,-0.85290800081388,0.8093053142991614,-1.0235413333300478,high,low,,ISIC_0010767.JPG,9,ISIC_9125409.JPG,65,false,ll,keypress(f),0,false,779175.5,779175.3999999762,769704.317,769720,769720.871,779187.794,4,500,35,
break,html.Screen,10_34_1,2023-11-15T21:43:34.494Z,,,,,,,,,,NaN,,,,,,,,high,low,,,,,,false,,,,false,779175.6999999881,779175.6999999881,,779175.5,,779187.794,4,500,,
break_continue,html.Screen,10_34_2,2023-11-15T21:43:34.495Z,,,,,,,,,,NaN,,,,,,,,high,low,,,,,,false,,,,false,779176,779175.8000000119,,779175.8000000119,,779187.794,4,500,,
sequence,flow.Sequence,10_34,2023-11-15T21:43:34.495Z,,,,,,,,,,9454.929000011878,completion,,,,,,,high,low,,,,,,false,,,,false,779176,779175.8000000119,769704.317,769720,769720.871,779187.794,4,500,,
trial,html.Screen,10_35_0,2023-11-15T21:43:42.030Z,,,,1,0.0060918352854008,-0.029032683404407,,true,ll,7523.5060000119265,response,-0.7808813078434221,0.6965138829833206,-0.9560018326561396,-1.0657303317575737,0.8093053142991614,-1.0235413333300478,low,low,,ISIC_8436194.JPG,9,ISIC_5357288.JPG,111,false,ll,keypress(f),0,false,786711.5,786711.3000000119,779170.756,779176.0999999642,779187.794,786720.995,4,500,36,
break,html.Screen,10_35_1,2023-11-15T21:43:42.031Z,,,,,,,,,,NaN,,,,,,,,low,low,,,,,,false,,,,false,786711.6999999881,786711.5999999642,,786711.5,,786720.995,4,500,,
break_continue,html.Screen,10_35_2,2023-11-15T21:43:42.031Z,,,,,,,,,,NaN,,,,,,,,low,low,,,,,,false,,,,false,786711.8999999762,786711.8000000119,,786711.8000000119,,786720.995,4,500,,
sequence,flow.Sequence,10_35,2023-11-15T21:43:42.031Z,,,,,,,,,,7524.0060000119265,completion,,,,,,,low,low,,,,,,false,,,,false,786711.8999999762,786711.8000000119,779170.756,779176,779187.794,786720.995,4,500,,
trial,html.Screen,10_36_0,2023-11-15T21:43:48.015Z,,,,1,-0.0565575423757561,0.0536115913979284,,true,hh,5974.404999976163,response,0.510834303353584,0.6965138829833206,-0.9560018326561396,0.990072838603998,0.8093053142991614,-1.0235413333300478,high,high,,ISIC_0046983.JPG,9,ISIC_0065735.JPG,263,false,hh,keypress(i),0,false,792695.5999999642,792695.3999999762,786704.206,786712,786720.995,792704.295,4,500,37,
break,html.Screen,10_36_1,2023-11-15T21:43:48.015Z,,,,,,,,,,NaN,,,,,,,,high,high,,,,,,false,,,,false,792695.8000000119,792695.8000000119,,792695.6999999881,,792704.295,4,500,,
break_continue,html.Screen,10_36_2,2023-11-15T21:43:48.015Z,,,,,,,,,,NaN,,,,,,,,high,high,,,,,,false,,,,false,792696,792695.8999999762,,792695.8999999762,,792704.295,4,500,,
sequence,flow.Sequence,10_36,2023-11-15T21:43:48.015Z,,,,,,,,,,5974.904999976163,completion,,,,,,,high,high,,,,,,false,,,,false,792696.0999999642,792695.8999999762,786704.206,786711.8999999762,786720.995,792704.295,4,500,,
trial,html.Screen,10_37_0,2023-11-15T21:43:52.654Z,,,,1,-0.0733425953790377,0.0558194585272655,,true,lh,4630.904999988037,response,-0.9445114955578736,0.6965138829833206,-0.9560018326561396,1.0054210059625863,0.8093053142991614,-1.0235413333300478,low,high,,ISIC_0026756.JPG,8,ISIC_0033807.JPG,50,false,lh,keypress(e),0,false,797335.3000000119,797335.1999999881,792687.802,792696.1999999881,792704.295,797337.5,4,500,38,
break,html.Screen,10_37_1,2023-11-15T21:43:52.655Z,,,,,,,,,,NaN,,,,,,,,low,high,,,,,,false,,,,false,797335.5999999642,797335.5,,797335.3999999762,,797337.5,4,500,,
