sender,sender_type,sender_id,timestamp,meta,,age,blockNo,c1,c2,condition,correct,correctResponse,duration,ended_on,f1,f1_high,f1_low,f2,f2_high,f2_low,feature_level1,feature_level2,gender,img_left,img_reveal,img_right,n_target_images,practice,response,response_action,selection_duration,staircase,time_commit,time_end,time_render,time_run,time_show,time_switch,total_blocks,total_trials,trialNo,url
informed_consent,html.Screen,0,2023-11-15T19:43:38.734Z,"{""labjs_version"":""20.2.4"",""labjs_build"":{""flavor"":""development"",""commit"":""f5b4a49f956347addd546a832a3327688c2c0fef""},""location"":""https://labjs.felixhenninger.com/api/labjs_preview/index.html"",""userAgent"":""Mozilla/5.0 (Windows NT 10.0; Win64; x64) AppleWebKit/537.36 (KHTML, like Gecko) Chrome/119.0.0.0 Safari/537.36"",""platform"":""Win32"",""language"":""en-US"",""locale"":""en-US"",""timeZone"":""America/Chicago"",""timezoneOffset"":360,""screen_width"":1920,""screen_height"":1080,""scroll_width"":945,""scroll_height"":918,""window_innerWidth"":945,""window_innerHeight"":966,""devicePixelRatio"":1}",,,,,,,,,169129.18100000595,response,,,,,,,,,,,,,,,consent,click button,,,169720.40000000596,169710.90000000596,564.993,552.5,581.719,169734.494,,,,{}
Demography form,html.Form,1,2023-11-15T19:43:47.956Z,,,18,,,,,,,9208.505999999994,form submission,,,,,,,,,female,,,,,,,,,,178943.20000000298,178943,169717.567,169720.60000000894,169734.494,178960.316,,,,
Welcome,html.Screen,2,2023-11-15T19:43:51.141Z,,,,,,,"[""asym"",""bor""]",,,3166.584000005969,response,,,,,,,,,,,,,,,continue,click button,,,182127.5,182126.90000000596,178943.44,178943.29999999702,178960.316,182129.975,,,,
demo_instructions,html.Screen,3,2023-11-15T19:43:59.300Z,,,,,,,,,,8156.925000005955,response,,,,,,,,,,,,,,,continue,click button,,,190287.29999999702,190286.90000000596,182113.31,182127.60000000894,182129.975,190305.692,,,,
trial,html.Screen,4_0_0,2023-11-15T19:44:09.190Z,,,,0,0.8947611078712571,-0.8960964505004638,,true,lh,9871.00800000297,response,-1.011737552725394,1.0499999999999998,-1.0499999999999998,0.8500530224490773,1.0499999999999998,-1.0499999999999998,low,high,,ISIC_6441128.JPG,,ISIC_2998367.JPG,21,true,lh,keypress(e),100,false,200176.90000000596,200176.70000000298,190271.702,190287.5,190305.692,200198.083,1,16,1,
sequence,flow.Sequence,4_0,2023-11-15T19:44:09.197Z,,,,,,,,,,9871.00800000297,completion,,,,,,,low,high,,,,,,true,,,,false,200184.29999999702,200176.70000000298,190271.702,190287.5,190305.692,200198.083,1,16,,
trial,html.Screen,4_1_0,2023-11-15T19:44:18.114Z,,,,0,1.0213365328004047,-1.088524359911891,,true,lh,8902.416999999987,response,-1.2331439637486756,1.0499999999999998,-1.0499999999999998,0.9691143900156988,1.0499999999999998,-1.0499999999999998,low,high,,ISIC_5434229.JPG,,ISIC_7877488.JPG,21,true,lh,keypress(e),100,false,209100.79999999702,209100.5,200181.379,200184.40000000596,200198.083,209123.633,1,16,2,
sequence,flow.Sequence,4_1,2023-11-15T19:44:18.114Z,,,,,,,,,,8902.416999999987,completion,,,,,,,low,high,,,,,,true,,,,false,209101,209100.5,200181.379,200184.40000000596,200198.083,209123.633,1,16,,
trial,html.Screen,4_2_0,2023-11-15T19:44:27.767Z,,,,0,0.948927472020595,-1.0660437155921598,,true,lh,9630.166999997018,response,-1.2075172235545184,1.0499999999999998,-1.0499999999999998,0.9116724966267612,1.0499999999999998,-1.0499999999999998,low,high,,ISIC_5808758.JPG,,ISIC_0024235.JPG,21,true,lh,keypress(e),100,false,218754.10000000894,218753.79999999702,209107.103,209101.20000000298,209123.633,218783.344,1,16,3,
sequence,flow.Sequence,4_2,2023-11-15T19:44:27.768Z,,,,,,,,,,9630.166999997018,completion,,,,,,,low,high,,,,,,true,,,,false,218754.60000000894,218753.79999999702,209107.103,209101.10000000894,209123.633,218783.344,1,16,,
trial,html.Screen,4_3_0,2023-11-15T19:44:37.278Z,,,,0,0.948927472020595,-1.0660437155921598,,true,lh,9480.955999997008,response,-1.2364994561934892,1.0499999999999998,-1.0499999999999998,0.9174173651516624,1.0499999999999998,-1.0499999999999998,low,high,,ISIC_5808758.JPG,,ISIC_3481133.JPG,21,true,lh,keypress(e),100,false,228264.5,228264.29999999702,218766.809,218754.70000000298,218783.344,228293.098,1,16,4,
sequence,flow.Sequence,4_3,2023-11-15T19:44:37.278Z,,,,,,,,,,9480.955999997008,completion,,,,,,,low,high,,,,,,true,,,,false,228264.70000000298,228264.29999999702,218766.809,218754.70000000298,218783.344,228293.098,1,16,,
trial,html.Screen,4_4_0,2023-11-15T19:44:41.171Z,,,,0,1.0387488172228707,1.186629690487006,,false,ll,3863.602000002982,response,-1.072671714258808,1.0499999999999998,-1.0499999999999998,-1.0208498389771272,1.0499999999999998,-1.0499999999999998,low,low,,ISIC_0015390.JPG,,ISIC_5218773.JPG,111,true,lh,keypress(e),100,false,232157,232156.70000000298,228276.144,228264.70000000298,228293.098,232180.082,1,16,5,
sequence,flow.Sequence,4_4,2023-11-15T19:44:41.171Z,,,,,,,,,,3863.602000002982,completion,,,,,,,low,low,,,,,,true,,,,false,232157.29999999702,232156.70000000298,228276.144,228264.70000000298,228293.098,232180.082,1,16,,
trial,html.Screen,4_5_0,2023-11-15T19:44:51.032Z,,,,0,1.1694564451910658,0.9864553897205228,,false,ll,9837.217999997025,response,-1.057008495826831,1.0499999999999998,-1.0499999999999998,-1.1278122585028287,1.0499999999999998,-1.0499999999999998,low,low,,ISIC_0054334.JPG,,ISIC_2819798.JPG,111,true,lh,keypress(e),100,false,242017.5,242017.29999999702,232163.576,232157.40000000596,232180.082,242039.961,1,16,6,
sequence,flow.Sequence,4_5,2023-11-15T19:44:51.032Z,,,,,,,,,,9837.217999997025,completion,,,,,,,low,low,,,,,,true,,,,false,242017.79999999702,242017.29999999702,232163.576,232157.29999999702,232180.082,242039.961,1,16,,
trial,html.Screen,4_6_0,2023-11-15T19:45:01.021Z,,,,0,0.9209488961172596,0.9916011869447884,,true,ll,9966.73900000297,response,-0.8842396282744274,1.0499999999999998,-1.0499999999999998,-1.0676592823752966,1.0499999999999998,-1.0499999999999998,low,low,,ISIC_3338629.JPG,,ISIC_0029182.JPG,111,true,ll,keypress(f),100,false,252006.79999999702,252006.70000000298,242023.351,242017.90000000596,242039.961,252033.507,1,16,7,
sequence,flow.Sequence,4_6,2023-11-15T19:45:01.021Z,,,,,,,,,,9966.73900000297,completion,,,,,,,low,low,,,,,,true,,,,false,252007,252006.70000000298,242023.351,242017.90000000596,242039.961,252033.507,1,16,,
trial,html.Screen,4_7_0,2023-11-15T19:45:10.914Z,,,,0,0.8835058339726064,1.035612893059322,,true,ll,9866.292999997007,response,-0.8689515664606163,1.0499999999999998,-1.0499999999999998,-1.0538817435713148,1.0499999999999998,-1.0499999999999998,low,low,,ISIC_0069595.JPG,,ISIC_7333928.JPG,111,true,ll,keypress(f),100,false,261900,261899.79999999702,252016.756,252007.10000000894,252033.507,261926.535,1,16,8,
sequence,flow.Sequence,4_7,2023-11-15T19:45:10.914Z,,,,,,,,,,9866.292999997007,completion,,,,,,,low,low,,,,,,true,,,,false,261900.20000000298,261899.79999999702,252016.756,252007.10000000894,252033.507,261926.535,1,16,,
trial,html.Screen,4_8_0,2023-11-15T19:45:19.401Z,,,,0,-0.8860551570327019,0.8067116931297591,,true,hl,8460.264999997016,response,0.796241477082623,0.9499999999999997,-0.9499999999999997,-0.9017449335975743,0.9499999999999997,-0.9499999999999997,high,low,,ISIC_1457687.JPG,,ISIC_8588033.JPG,26,true,hl,keypress(j),100,false,270386.90000000596,270386.799999997,261910.084,261900.20000000298,261926.535,270418.609,1,16,9,
sequence,flow.Sequence,4_8,2023-11-15T19:45:19.401Z,,,,,,,,,,8460.264999997016,completion,,,,,,,high,low,,,,,,true,,,,false,270387.299999997,270386.799999997,261910.084,261900.20000000298,261926.535,270418.609,1,16,,
trial,html.Screen,4_9_0,2023-11-15T19:45:27.006Z,,,,0,-0.869932994914832,0.8880533324432531,,true,hl,7573.291000005964,response,0.8816288864119318,0.9499999999999997,-0.9499999999999997,-0.801867301188093,0.9499999999999997,-0.9499999999999997,high,low,,ISIC_8617084.JPG,,ISIC_9196783.JPG,26,true,hl,keypress(j),100,false,277992.200000003,277991.90000000596,270401.927,270387.40000000596,270418.609,278009.418,1,16,10,
sequence,flow.Sequence,4_9,2023-11-15T19:45:27.006Z,,,,,,,,,,7573.291000005964,completion,,,,,,,high,low,,,,,,true,,,,false,277992.299999997,277991.90000000596,270401.927,270387.40000000596,270418.609,278009.418,1,16,,
trial,html.Screen,4_10_0,2023-11-15T19:45:29.171Z,,,,0,-0.7877939497981142,0.8415032780288271,,true,hl,2147.081999999995,response,0.8947611078712571,0.9499999999999997,-0.9499999999999997,-0.8960964505004638,0.9499999999999997,-0.9499999999999997,high,low,,ISIC_0067308.JPG,,ISIC_6441128.JPG,26,true,hl,keypress(j),100,false,280156.700000003,280156.5,277992.622,277992.40000000596,278009.418,280178.124,1,16,11,
sequence,flow.Sequence,4_10,2023-11-15T19:45:29.171Z,,,,,,,,,,2147.081999999995,completion,,,,,,,high,low,,,,,,true,,,,false,280157,280156.5,277992.622,277992.40000000596,278009.418,280178.124,1,16,,
trial,html.Screen,4_11_0,2023-11-15T19:45:31.417Z,,,,0,-0.7933921755497018,0.7692916291112835,,true,hl,2224.5760000029695,response,0.887838744955182,0.9499999999999997,-0.9499999999999997,-0.7545096650863988,0.9499999999999997,-0.9499999999999997,high,low,,ISIC_7844825.JPG,,ISIC_1488727.JPG,26,true,hl,keypress(j),100,false,282402.90000000596,282402.700000003,280161.56,280157,280178.124,282430.385,1,16,12,
sequence,flow.Sequence,4_11,2023-11-15T19:45:31.417Z,,,,,,,,,,2224.5760000029695,completion,,,,,,,high,low,,,,,,true,,,,false,282403.10000000894,282402.700000003,280161.56,280157,280178.124,282430.385,1,16,,
trial,html.Screen,4_12_0,2023-11-15T19:45:33.821Z,,,,0,-0.9607077625123552,-1.0682608339754711,,true,hh,2376.9149999970105,response,1.0437232404340642,0.9499999999999997,-0.9499999999999997,0.7530783329910251,0.9499999999999997,-0.9499999999999997,high,high,,ISIC_0064763.JPG,,ISIC_0000549.JPG,167,true,hh,keypress(i),100,false,284807.40000000596,284807.299999997,282413.717,282403.10000000894,282430.385,284832.962,1,16,13,
sequence,flow.Sequence,4_12,2023-11-15T19:45:33.822Z,,,,,,,,,,2376.9149999970105,completion,,,,,,,high,high,,,,,,true,,,,false,284807.700000003,284807.299999997,282413.717,282403.10000000894,282430.385,284832.962,1,16,,
trial,html.Screen,4_13_0,2023-11-15T19:45:35.761Z,,,,0,-0.913084438298574,-1.135180301076722,,true,hh,1914.3379999970202,response,1.0351900568634125,0.9499999999999997,-0.9499999999999997,1.060448537312289,0.9499999999999997,-0.9499999999999997,high,high,,ISIC_8637134.JPG,,ISIC_4377208.JPG,167,true,hh,keypress(i),100,false,286747.40000000596,286747.299999997,284816.264,284807.700000003,284832.962,286768.052,1,16,14,
sequence,flow.Sequence,4_13,2023-11-15T19:45:35.762Z,,,,,,,,,,1914.3379999970202,completion,,,,,,,high,high,,,,,,true,,,,false,286747.700000003,286747.299999997,284816.264,284807.700000003,284832.962,286768.052,1,16,,
trial,html.Screen,4_14_0,2023-11-15T19:45:38.069Z,,,,0,-0.8318514901182542,-0.9538458994523976,,true,hh,2287.148000002955,response,0.832159339500865,0.9499999999999997,-0.9499999999999997,1.0220452236621858,0.9499999999999997,-0.9499999999999997,high,high,,ISIC_3161477.JPG,,ISIC_0011848.JPG,167,true,hh,keypress(i),100,false,289055.40000000596,289055.200000003,286751.398,286747.700000003,286768.052,289087.044,1,16,15,
sequence,flow.Sequence,4_14,2023-11-15T19:45:38.070Z,,,,,,,,,,2287.148000002955,completion,,,,,,,high,high,,,,,,true,,,,false,289055.60000000894,289055.200000003,286751.398,286747.700000003,286768.052,289087.044,1,16,,
trial,html.Screen,4_15_0,2023-11-15T19:45:40.123Z,,,,0,-0.9991910338212396,-0.9242629064104082,,true,hh,2021.7559999970254,response,0.8926778502294954,0.9499999999999997,-0.9499999999999997,0.9164454040166848,0.9499999999999997,-0.9499999999999997,high,high,,ISIC_7795549.JPG,,ISIC_0011460.JPG,167,true,hh,keypress(i),100,false,291109,291108.799999997,289070.371,289055.90000000596,289087.044,291139.335,1,16,16,
sequence,flow.Sequence,4_15,2023-11-15T19:45:40.123Z,,,,,,,,,,2021.7559999970254,completion,,,,,,,high,high,,,,,,true,,,,false,291109.10000000894,291108.799999997,289070.371,289055.799999997,289087.044,291139.335,1,16,,
demonstration_loop,flow.Loop,4,2023-11-15T19:45:40.123Z,,,,,,,,,,100803.10799999701,completion,,,,,,,,,,,,,,true,,,,false,291109.200000003,291108.799999997,190271.702,190287.40000000596,190305.692,291139.335,1,16,,
practice_instructions,html.Screen,5,2023-11-15T19:46:51.509Z,,,,,,,,,,71347.66499999998,response,,,,,,,,,,,,,,,continue,click button,,,362495.5,362487,291122.521,291109.299999997,291139.335,362493.848,,,,
trial,html.Screen,6_0_0,2023-11-15T19:47:02.475Z,,,,1,1.1383813631375823,1.1319312220332556,,true,ll,10967.451999997022,response,-1.005193232444736,0.9499999999999997,-0.9499999999999997,-0.7724571054561582,0.9499999999999997,-0.9499999999999997,low,low,,ISIC_6227397.JPG,,ISIC_0026943.JPG,142,true,ll,keypress(f),0,false,373461.299999997,373461.299999997,362477.311,362495.700000003,362493.848,373488.408,1,40,1,
sequence,flow.Sequence,6_0,2023-11-15T19:47:02.475Z,,,,,,,,,,10967.451999997022,completion,,,,,,,low,low,,,,,,true,,,,false,373461.5,373461.299999997,362477.311,362495.700000003,362493.848,373488.408,1,40,,
trial,html.Screen,6_1_0,2023-11-15T19:47:13.490Z,,,,1,-0.858338058340649,0.9540612223480284,,,,11010.814000000013,timeout,0.7723849213858904,0.9499999999999997,-0.9499999999999997,-0.888372424147899,0.9499999999999997,-0.9499999999999997,high,low,,ISIC_8922893.JPG,,ISIC_3884221.JPG,26,true,,,0,false,384476.10000000894,384476,373471.741,373461.60000000894,373488.408,384499.222,1,40,2,
sequence,flow.Sequence,6_1,2023-11-15T19:47:13.490Z,,,,,,,,,,10987.592000000004,completion,,,,,,,high,low,,,,,,true,,,,false,384476.200000003,384476,373471.741,373461.5,373488.408,384499.222,1,40,,
trial,html.Screen,6_2_0,2023-11-15T19:47:20.829Z,,,,1,-0.8179805381029407,0.8578467162767749,,true,hl,7316.478000002971,response,0.991146183030456,0.9499999999999997,-0.9499999999999997,-0.9949639823722534,0.9499999999999997,-0.9499999999999997,high,low,,ISIC_0067253.JPG,,ISIC_6342224.JPG,26,true,hl,keypress(j),0,false,391815.90000000596,391815.700000003,384482.518,384476.299999997,384499.222,391823.211,1,40,3,
sequence,flow.Sequence,6_2,2023-11-15T19:47:20.830Z,,,,,,,,,,7316.478000002971,completion,,,,,,,high,low,,,,,,true,,,,false,391816.10000000894,391815.700000003,384482.518,384476.299999997,384499.222,391823.211,1,40,,
trial,html.Screen,6_3_0,2023-11-15T19:47:26.437Z,,,,1,-1.0270718265914571,-0.9536353804316964,,true,hh,5600.28899999999,response,1.0917349644156236,0.9499999999999997,-0.9499999999999997,0.9715963767506804,0.9499999999999997,-0.9499999999999997,high,high,,ISIC_3431915.JPG,,ISIC_0034059.JPG,167,true,hh,keypress(i),0,false,397423.700000003,397423.5,391806.529,391816.200000003,391823.211,397428.812,1,40,4,
sequence,flow.Sequence,6_3,2023-11-15T19:47:26.437Z,,,,,,,,,,5600.28899999999,completion,,,,,,,high,high,,,,,,true,,,,false,397423.90000000596,397423.5,391806.529,391816.200000003,391823.211,397428.812,1,40,,
trial,html.Screen,6_4_0,2023-11-15T19:47:31.470Z,,,,1,-0.7784583866003763,0.9641514808986528,,true,hl,5027.288000008964,response,1.0213365328004047,0.9499999999999997,-0.9499999999999997,-1.088524359911891,0.9499999999999997,-0.9499999999999997,high,low,,ISIC_0011924.JPG,,ISIC_5434229.JPG,26,true,hl,keypress(j),0,false,402456.200000003,402456.10000000894,397412.061,397423.90000000596,397428.812,402467.219,1,40,5,
sequence,flow.Sequence,6_4,2023-11-15T19:47:31.470Z,,,,,,,,,,5027.288000008964,completion,,,,,,,high,low,,,,,,true,,,,false,402456.5,402456.10000000894,397412.061,397423.90000000596,397428.812,402467.219,1,40,,
trial,html.Screen,6_5_0,2023-11-15T19:47:38.821Z,,,,1,-0.8005752697082944,-0.8062281749376046,,true,hh,7340.4810000029975,response,0.8068224817535752,0.9499999999999997,-0.9499999999999997,0.8996141262602615,0.9499999999999997,-0.9499999999999997,high,high,,ISIC_0031104.JPG,,ISIC_0059601.JPG,167,true,hh,keypress(i),0,false,409807.799999997,409807.700000003,402450.662,402456.5,402467.219,409824.817,1,40,6,
sequence,flow.Sequence,6_5,2023-11-15T19:47:38.822Z,,,,,,,,,,7340.4810000029975,completion,,,,,,,high,high,,,,,,true,,,,false,409808,409807.700000003,402450.662,402456.5,402467.219,409824.817,1,40,,
trial,html.Screen,6_6_0,2023-11-15T19:47:43.870Z,,,,1,1.0931477426281198,1.0028306951898116,,true,ll,5031.383000002999,response,-1.037577073517966,0.9499999999999997,-0.9499999999999997,-1.027048110709042,0.9499999999999997,-0.9499999999999997,low,low,,ISIC_0026531.JPG,,ISIC_0004932.JPG,142,true,ll,keypress(f),0,false,414856.299999997,414856.200000003,409807.781,409808.10000000894,409824.817,414862.911,1,40,7,
sequence,flow.Sequence,6_6,2023-11-15T19:47:43.870Z,,,,,,,,,,5031.383000002999,completion,,,,,,,low,low,,,,,,true,,,,false,414856.60000000894,414856.200000003,409807.781,409808.10000000894,409824.817,414862.911,1,40,,
trial,html.Screen,6_7_0,2023-11-15T19:47:48.366Z,,,,1,-0.8005752697082944,-0.8062281749376046,,false,hh,4488.989000005939,response,0.8658216082775305,0.9499999999999997,-0.9499999999999997,0.9788979939580964,0.9499999999999997,-0.9499999999999997,high,high,,ISIC_0031104.JPG,,ISIC_0331389.JPG,167,true,hl,keypress(j),0,false,419352.10000000894,419351.90000000596,414846.211,414856.799999997,414862.911,419367.634,1,40,8,
sequence,flow.Sequence,6_7,2023-11-15T19:47:48.366Z,,,,,,,,,,4488.989000005939,completion,,,,,,,high,high,,,,,,true,,,,false,419352.40000000596,419351.90000000596,414846.211,414856.700000003,414862.911,419367.634,1,40,,
trial,html.Screen,6_8_0,2023-11-15T19:47:53.551Z,,,,1,0.9735583105865782,0.9340146106918494,,true,ll,5168.466000008921,response,-0.8854665385930431,0.9499999999999997,-0.9499999999999997,-1.0235331176078744,0.9499999999999997,-0.9499999999999997,low,low,,ISIC_0065204.JPG,,ISIC_0026889.JPG,142,true,ll,keypress(f),0,false,424536.299999997,424536.10000000894,419350.832,419352.5,419367.634,424539.302,1,40,9,
sequence,flow.Sequence,6_8,2023-11-15T19:47:53.551Z,,,,,,,,,,5168.466000008921,completion,,,,,,,low,low,,,,,,true,,,,false,424536.40000000596,424536.10000000894,419350.832,419352.5,419367.634,424539.302,1,40,,
trial,html.Screen,6_9_0,2023-11-15T19:47:58.167Z,,,,1,-0.7877939497981142,0.8415032780288271,,true,hl,4612.997999996995,response,1.0022829373011404,0.9499999999999997,-0.9499999999999997,-0.8311726972863814,0.9499999999999997,-0.9499999999999997,high,low,,ISIC_0067308.JPG,,ISIC_0033287.JPG,26,true,hl,keypress(j),0,false,429152.5,429152.299999997,424522.763,424536.5,424539.302,429160.61,1,40,10,
sequence,flow.Sequence,6_9,2023-11-15T19:47:58.167Z,,,,,,,,,,4612.997999996995,completion,,,,,,,high,low,,,,,,true,,,,false,429152.700000003,429152.299999997,424522.763,424536.5,424539.302,429160.61,1,40,,
trial,html.Screen,6_10_0,2023-11-15T19:48:03.486Z,,,,1,0.948927472020595,-1.0660437155921598,,true,lh,5311.290000005974,response,-0.858338058340649,0.9499999999999997,-0.9499999999999997,0.9540612223480284,0.9499999999999997,-0.9499999999999997,low,high,,ISIC_5808758.JPG,,ISIC_8922893.JPG,28,true,lh,keypress(e),0,false,434472.10000000894,434471.90000000596,429143.885,429152.799999997,429160.61,434482.574,1,40,11,
sequence,flow.Sequence,6_10,2023-11-15T19:48:03.487Z,,,,,,,,,,5311.290000005974,completion,,,,,,,low,high,,,,,,true,,,,false,434472.40000000596,434471.90000000596,429143.885,429152.799999997,429160.61,434482.574,1,40,,
trial,html.Screen,6_11_0,2023-11-15T19:48:08.398Z,,,,1,-1.0270718265914571,-0.9536353804316964,,true,hh,4901.126000002958,response,0.781420271893034,0.9499999999999997,-0.9499999999999997,0.8475699534335533,0.9499999999999997,-0.9499999999999997,high,high,,ISIC_3431915.JPG,,ISIC_0066429.JPG,167,true,hh,keypress(i),0,false,439383.799999997,439383.700000003,434465.934,434472.5,434482.574,439387.472,1,40,12,
sequence,flow.Sequence,6_11,2023-11-15T19:48:08.398Z,,,,,,,,,,4901.126000002958,completion,,,,,,,high,high,,,,,,true,,,,false,439384,439383.700000003,434465.934,434472.5,434482.574,439387.472,1,40,,
trial,html.Screen,6_12_0,2023-11-15T19:48:13.463Z,,,,1,1.0376573622140812,1.0000402707486682,,true,ll,5060.527999999991,response,-0.9102336581208296,0.9499999999999997,-0.9499999999999997,-1.0305113346799688,0.9499999999999997,-0.9499999999999997,low,low,,ISIC_0068798.JPG,,ISIC_0068530.JPG,142,true,ll,keypress(f),0,false,444448.10000000894,444448,439370.839,439384,439387.472,444459.271,1,40,13,
sequence,flow.Sequence,6_12,2023-11-15T19:48:13.463Z,,,,,,,,,,5060.527999999991,completion,,,,,,,low,low,,,,,,true,,,,false,444448.40000000596,444448,439370.839,439384,439387.472,444459.271,1,40,,
trial,html.Screen,6_13_0,2023-11-15T19:48:17.950Z,,,,1,-0.879102500583965,1.0933081951979773,,true,hl,4476.329000008933,response,0.7638895244791114,0.9499999999999997,-0.9499999999999997,-0.7780412100090998,0.9499999999999997,-0.9499999999999997,high,low,,ISIC_0046223.JPG,,ISIC_0026516.JPG,26,true,hl,keypress(j),0,false,448935.700000003,448935.60000000894,444442.453,444448.5,444459.271,448947.224,1,40,14,
sequence,flow.Sequence,6_13,2023-11-15T19:48:17.950Z,,,,,,,,,,4476.329000008933,completion,,,,,,,high,low,,,,,,true,,,,false,448935.90000000596,448935.60000000894,444442.453,444448.5,444459.271,448947.224,1,40,,
trial,html.Screen,6_14_0,2023-11-15T19:48:23.198Z,,,,1,0.796241477082623,-0.9017449335975743,,true,lh,5236.575999997032,response,-1.0751036484083878,0.9499999999999997,-0.9499999999999997,1.143906455483852,0.9499999999999997,-0.9499999999999997,low,high,,ISIC_8588033.JPG,,ISIC_0064406.JPG,28,true,lh,keypress(e),0,false,454183.90000000596,454183.799999997,448930.544,448936,448947.224,454185.633,1,40,15,
sequence,flow.Sequence,6_14,2023-11-15T19:48:23.199Z,,,,,,,,,,5236.575999997032,completion,,,,,,,low,high,,,,,,true,,,,false,454184.200000003,454183.799999997,448930.544,448936,448947.224,454185.633,1,40,,
trial,html.Screen,6_15_0,2023-11-15T19:48:28.006Z,,,,1,0.7870237732709365,-0.9172955251119376,,true,lh,4805.967000008968,response,-1.0751036484083878,0.9499999999999997,-0.9499999999999997,1.143906455483852,0.9499999999999997,-0.9499999999999997,low,high,,ISIC_0057716.JPG,,ISIC_0064406.JPG,28,true,lh,keypress(e),0,false,458991.60000000894,458991.60000000894,454169.101,454184.299999997,454185.633,459007.273,1,40,16,
sequence,flow.Sequence,6_15,2023-11-15T19:48:28.006Z,,,,,,,,,,4805.967000008968,completion,,,,,,,low,high,,,,,,true,,,,false,458991.799999997,458991.60000000894,454169.101,454184.299999997,454185.633,459007.273,1,40,,
trial,html.Screen,6_16_0,2023-11-15T19:48:32.319Z,,,,1,0.7597421372185947,0.8314283330495001,,true,ll,4297.127000005974,response,-0.8093178584833343,0.9499999999999997,-0.9499999999999997,-1.0777929856705222,0.9499999999999997,-0.9499999999999997,low,low,,ISIC_0009894.JPG,,ISIC_6171084.JPG,142,true,ll,keypress(f),0,false,463304.60000000894,463304.40000000596,458990.433,458991.799999997,459007.273,463311.44,1,40,17,
sequence,flow.Sequence,6_16,2023-11-15T19:48:32.319Z,,,,,,,,,,4297.127000005974,completion,,,,,,,low,low,,,,,,true,,,,false,463304.90000000596,463304.40000000596,458990.433,458991.799999997,459007.273,463311.44,1,40,,
trial,html.Screen,6_17_0,2023-11-15T19:48:37.303Z,,,,1,1.0376573622140812,1.0000402707486682,,true,ll,4976.559999999998,response,-1.0113132640329443,0.9499999999999997,-0.9499999999999997,-0.7686728458591023,0.9499999999999997,-0.9499999999999997,low,low,,ISIC_0068798.JPG,,ISIC_9675304.JPG,142,true,ll,keypress(f),0,false,468288.200000003,468288,463294.747,463305.10000000894,463311.44,468299.826,1,40,18,
sequence,flow.Sequence,6_17,2023-11-15T19:48:37.303Z,,,,,,,,,,4976.559999999998,completion,,,,,,,low,low,,,,,,true,,,,false,468288.40000000596,468288,463294.747,463305.10000000894,463311.44,468299.826,1,40,,
trial,html.Screen,6_18_0,2023-11-15T19:48:42.471Z,,,,1,-0.990489579313564,0.7747897983133127,,true,hl,5156.473999997019,response,1.0213365328004047,0.9499999999999997,-0.9499999999999997,-1.088524359911891,0.9499999999999997,-0.9499999999999997,high,low,,ISIC_7030404.JPG,,ISIC_5434229.JPG,26,true,hl,keypress(j),0,false,473456.5,473456.299999997,468283.105,468288.40000000596,468299.826,473471.655,1,40,19,
sequence,flow.Sequence,6_18,2023-11-15T19:48:42.471Z,,,,,,,,,,5156.473999997019,completion,,,,,,,high,low,,,,,,true,,,,false,473456.700000003,473456.299999997,468283.105,468288.40000000596,468299.826,473471.655,1,40,,
trial,html.Screen,6_19_0,2023-11-15T19:48:46.087Z,,,,1,1.0213365328004047,-1.088524359911891,,false,lh,3600.344999999972,response,-0.9454713230140772,0.9499999999999997,-0.9499999999999997,0.9245167441969216,0.9499999999999997,-0.9499999999999997,low,high,,ISIC_5434229.JPG,,ISIC_9101055.JPG,28,true,hh,keypress(i),0,false,477072.200000003,477072,473454.903,473456.90000000596,473471.655,477075.225,1,40,20,
sequence,flow.Sequence,6_19,2023-11-15T19:48:46.087Z,,,,,,,,,,3600.344999999972,completion,,,,,,,low,high,,,,,,true,,,,false,477072.40000000596,477072,473454.903,473456.799999997,473471.655,477075.225,1,40,,
trial,html.Screen,6_20_0,2023-11-15T19:48:50.999Z,,,,1,1.0122398223568725,-0.7505228537454216,,true,lh,4908.9750000030035,response,-0.869932994914832,0.9499999999999997,-0.9499999999999997,0.8880533324432531,0.9499999999999997,-0.9499999999999997,low,high,,ISIC_0033802.JPG,,ISIC_8617084.JPG,28,true,lh,keypress(e),0,false,481984.299999997,481984.200000003,477058.475,477072.60000000894,477075.225,481996.897,1,40,21,
sequence,flow.Sequence,6_20,2023-11-15T19:48:50.999Z,,,,,,,,,,4908.9750000030035,completion,,,,,,,low,high,,,,,,true,,,,false,481984.60000000894,481984.200000003,477058.475,477072.5,477075.225,481996.897,1,40,,
trial,html.Screen,6_21_0,2023-11-15T19:48:57.935Z,,,,1,1.0377676235641546,1.0836906473836847,,true,ll,6923.003000005963,response,-0.8003549678836777,0.9499999999999997,-0.9499999999999997,-0.7922238790731763,0.9499999999999997,-0.9499999999999997,low,low,,ISIC_0010540.JPG,,ISIC_0028780.JPG,142,true,ll,keypress(f),0,false,488920.10000000894,488919.90000000596,481980.202,481984.60000000894,481996.897,488937.165,1,40,22,
sequence,flow.Sequence,6_21,2023-11-15T19:48:57.935Z,,,,,,,,,,6923.003000005963,completion,,,,,,,low,low,,,,,,true,,,,false,488920.299999997,488919.90000000596,481980.202,481984.60000000894,481996.897,488937.165,1,40,,
trial,html.Screen,6_22_0,2023-11-15T19:49:02.015Z,,,,1,-0.991282840649944,0.9397921099839784,,true,hl,4063.035000003001,response,1.0213365328004047,0.9499999999999997,-0.9499999999999997,-1.088524359911891,0.9499999999999997,-0.9499999999999997,high,low,,ISIC_0000463.JPG,,ISIC_5434229.JPG,26,true,hl,keypress(j),0,false,493000.299999997,493000.200000003,488920.444,488920.40000000596,488937.165,493007.834,1,40,23,
sequence,flow.Sequence,6_22,2023-11-15T19:49:02.015Z,,,,,,,,,,4063.035000003001,completion,,,,,,,high,low,,,,,,true,,,,false,493000.5,493000.200000003,488920.444,488920.40000000596,488937.165,493007.834,1,40,,
trial,html.Screen,6_23_0,2023-11-15T19:49:08.271Z,,,,1,0.9209488961172596,0.9916011869447884,,true,ll,6248.465999997046,response,-0.8463538475082831,0.9499999999999997,-0.9499999999999997,-0.8806175558408877,0.9499999999999997,-0.9499999999999997,low,low,,ISIC_3338629.JPG,,ISIC_8916136.JPG,142,true,ll,keypress(f),0,false,499256.40000000596,499256.299999997,492991.221,493000.60000000894,493007.834,499264.076,1,40,24,
sequence,flow.Sequence,6_23,2023-11-15T19:49:08.271Z,,,,,,,,,,6248.465999997046,completion,,,,,,,low,low,,,,,,true,,,,false,499256.700000003,499256.299999997,492991.221,493000.60000000894,493007.834,499264.076,1,40,,
trial,html.Screen,6_24_0,2023-11-15T19:49:14.079Z,,,,1,0.7871162143493278,-0.8429329800778957,,true,lh,5800.124000002979,response,-1.011737552725394,0.9499999999999997,-0.9499999999999997,0.8500530224490773,0.9499999999999997,-0.9499999999999997,low,high,,ISIC_3439215.JPG,,ISIC_2998367.JPG,28,true,lh,keypress(e),0,false,505064.40000000596,505064.200000003,499247.253,499256.90000000596,499264.076,505069.891,1,40,25,
sequence,flow.Sequence,6_24,2023-11-15T19:49:14.079Z,,,,,,,,,,5800.124000002979,completion,,,,,,,low,high,,,,,,true,,,,false,505064.60000000894,505064.200000003,499247.253,499256.90000000596,499264.076,505069.891,1,40,,
trial,html.Screen,6_25_0,2023-11-15T19:49:17.230Z,,,,1,0.9421421842960384,0.798219062641572,,true,ll,3145.509000005957,response,-0.8859748279606405,0.9499999999999997,-0.9499999999999997,-0.8351560316519383,0.9499999999999997,-0.9499999999999997,low,low,,ISIC_9439034.JPG,,ISIC_5795486.JPG,142,true,ll,keypress(f),0,false,508215.40000000596,508215.40000000596,505053.291,505064.799999997,505069.891,508223.021,1,40,26,
sequence,flow.Sequence,6_25,2023-11-15T19:49:17.230Z,,,,,,,,,,3145.509000005957,completion,,,,,,,low,low,,,,,,true,,,,false,508215.5,508215.40000000596,505053.291,505064.799999997,505069.891,508223.021,1,40,,
trial,html.Screen,6_26_0,2023-11-15T19:49:20.007Z,,,,1,0.9090432487160188,1.033319341099857,,true,ll,2769.1790000029723,response,-1.0769490291795207,0.9499999999999997,-0.9499999999999997,-1.0174515954885954,0.9499999999999997,-0.9499999999999997,low,low,,ISIC_4119029.JPG,,ISIC_0028135.JPG,142,true,ll,keypress(f),0,false,510992.40000000596,510992.200000003,508206.563,508215.60000000894,508223.021,511009.229,1,40,27,
sequence,flow.Sequence,6_26,2023-11-15T19:49:20.007Z,,,,,,,,,,2769.1790000029723,completion,,,,,,,low,low,,,,,,true,,,,false,510992.700000003,510992.200000003,508206.563,508215.5,508223.021,511009.229,1,40,,
trial,html.Screen,6_27_0,2023-11-15T19:49:24.702Z,,,,1,0.8200962008791046,-0.7936051642828523,,false,lh,4678.371000008949,response,-0.990489579313564,0.9499999999999997,-0.9499999999999997,0.7747897983133127,0.9499999999999997,-0.9499999999999997,low,high,,ISIC_0027031.JPG,,ISIC_7030404.JPG,28,true,ll,keypress(f),0,false,515687.700000003,515687.60000000894,510992.441,510992.799999997,511009.229,515697.146,1,40,28,
sequence,flow.Sequence,6_27,2023-11-15T19:49:24.702Z,,,,,,,,,,4678.371000008949,completion,,,,,,,low,high,,,,,,true,,,,false,515687.90000000596,515687.60000000894,510992.441,510992.799999997,511009.229,515697.146,1,40,,
trial,html.Screen,6_28_0,2023-11-15T19:49:31.543Z,,,,1,1.0213365328004047,-1.088524359911891,,true,lh,6830.954000008933,response,-0.8541581294181414,0.9499999999999997,-0.9499999999999997,0.7637475587255248,0.9499999999999997,-0.9499999999999997,low,high,,ISIC_5434229.JPG,,ISIC_0014782.JPG,28,true,lh,keypress(e),0,false,522528.200000003,522528.10000000894,515680.599,515687.90000000596,515697.146,522537.37,1,40,29,
sequence,flow.Sequence,6_28,2023-11-15T19:49:31.543Z,,,,,,,,,,6830.954000008933,completion,,,,,,,low,high,,,,,,true,,,,false,522528.5,522528.10000000894,515680.599,515687.90000000596,515697.146,522537.37,1,40,,
trial,html.Screen,6_29_0,2023-11-15T19:49:34.847Z,,,,1,1.0022829373011404,-0.8311726972863814,,false,lh,3295.030000005965,response,-1.0751036484083878,0.9499999999999997,-0.9499999999999997,1.143906455483852,0.9499999999999997,-0.9499999999999997,low,high,,ISIC_0033287.JPG,,ISIC_0064406.JPG,28,true,hh,keypress(i),0,false,525832.5,525832.400000006,522520.576,522528.60000000894,522537.37,525840.691,1,40,30,
sequence,flow.Sequence,6_29,2023-11-15T19:49:34.847Z,,,,,,,,,,3295.030000005965,completion,,,,,,,low,high,,,,,,true,,,,false,525832.799999997,525832.400000006,522520.576,522528.60000000894,522537.37,525840.691,1,40,,
trial,html.Screen,6_30_0,2023-11-15T19:49:42.222Z,,,,1,-0.8809306963311293,0.8614910030038974,,true,hl,7367.009000002989,response,1.0022829373011404,0.9499999999999997,-0.9499999999999997,-0.8311726972863814,0.9499999999999997,-0.9499999999999997,high,low,,ISIC_0013731.JPG,,ISIC_0033287.JPG,26,true,hl,keypress(j),0,false,533207.900000006,533207.700000003,525824.086,525832.900000006,525840.691,533214.725,1,40,31,
sequence,flow.Sequence,6_30,2023-11-15T19:49:42.222Z,,,,,,,,,,7367.009000002989,completion,,,,,,,high,low,,,,,,true,,,,false,533208,533207.700000003,525824.086,525832.900000006,525840.691,533214.725,1,40,,
trial,html.Screen,6_31_0,2023-11-15T19:49:47.391Z,,,,1,-1.1181734135756094,0.944560381774994,,true,hl,5161.175000005984,response,0.9873794329144926,0.9499999999999997,-0.9499999999999997,-0.7991077882008257,0.9499999999999997,-0.9499999999999997,high,low,,ISIC_9688534.JPG,,ISIC_0013498.JPG,26,true,hl,keypress(j),0,false,538376,538375.900000006,533197.923,533208,533214.725,538386.709,1,40,32,
sequence,flow.Sequence,6_31,2023-11-15T19:49:47.391Z,,,,,,,,,,5161.175000005984,completion,,,,,,,high,low,,,,,,true,,,,false,538376.1000000089,538375.900000006,533197.923,533208,533214.725,538386.709,1,40,,
trial,html.Screen,6_32_0,2023-11-15T19:49:52.255Z,,,,1,0.796241477082623,-0.9017449335975743,,true,lh,4853.491000002949,response,-0.7784583866003763,0.9499999999999997,-0.9499999999999997,0.9641514808986528,0.9499999999999997,-0.9499999999999997,low,high,,ISIC_8588033.JPG,,ISIC_0011924.JPG,28,true,lh,keypress(e),0,false,543240.400000006,543240.200000003,538369.914,538376.200000003,538386.709,543259.325,1,40,33,
sequence,flow.Sequence,6_32,2023-11-15T19:49:52.255Z,,,,,,,,,,4853.491000002949,completion,,,,,,,low,high,,,,,,true,,,,false,543240.700000003,543240.200000003,538369.914,538376.200000003,538386.709,543259.325,1,40,,
trial,html.Screen,6_33_0,2023-11-15T19:49:55.935Z,,,,1,-0.8842396282744274,-1.0676592823752966,,true,hh,3660.7750000089873,response,0.8888187899385174,0.9499999999999997,-0.9499999999999997,0.8162579333127866,0.9499999999999997,-0.9499999999999997,high,high,,ISIC_0029182.JPG,,ISIC_0070285.JPG,167,true,hh,keypress(i),0,false,546920.200000003,546920.1000000089,543224.739,543240.900000006,543259.325,546928.451,1,40,34,
sequence,flow.Sequence,6_33,2023-11-15T19:49:55.935Z,,,,,,,,,,3660.7750000089873,completion,,,,,,,high,high,,,,,,true,,,,false,546920.5,546920.1000000089,543224.739,543240.700000003,543259.325,546928.451,1,40,,
trial,html.Screen,6_34_0,2023-11-15T19:49:58.079Z,,,,1,-0.9487751044258608,-0.875032819970805,,true,hh,2135.848999997019,response,0.781420271893034,0.9499999999999997,-0.9499999999999997,0.8475699534335533,0.9499999999999997,-0.9499999999999997,high,high,,ISIC_4568084.JPG,,ISIC_0066429.JPG,167,true,hh,keypress(i),0,false,549064.5,549064.299999997,546911.769,546920.6000000089,546928.451,549080.851,1,40,35,
sequence,flow.Sequence,6_34,2023-11-15T19:49:58.079Z,,,,,,,,,,2135.848999997019,completion,,,,,,,high,high,,,,,,true,,,,false,549064.900000006,549064.299999997,546911.769,546920.6000000089,546928.451,549080.851,1,40,,
trial,html.Screen,6_35_0,2023-11-15T19:50:00.623Z,,,,1,-0.7784583866003763,0.9641514808986528,,true,hl,2527.2490000089165,response,1.0115965332688306,0.9499999999999997,-0.9499999999999997,-0.8282633603842442,0.9499999999999997,-0.9499999999999997,high,low,,ISIC_0011924.JPG,,ISIC_1069587.JPG,26,true,hl,keypress(j),0,false,551608.299999997,551608.1000000089,549064.07,549064.900000006,549080.851,551616.505,1,40,36,
sequence,flow.Sequence,6_35,2023-11-15T19:50:00.623Z,,,,,,,,,,2527.2490000089165,completion,,,,,,,high,low,,,,,,true,,,,false,551608.5,551608.1000000089,549064.07,549064.900000006,549080.851,551616.505,1,40,,
trial,html.Screen,6_36_0,2023-11-15T19:50:04.439Z,,,,1,-0.7798182602765784,-0.8643036808931337,,true,hh,3807.294999997015,response,0.8826164980777871,0.9499999999999997,-0.9499999999999997,1.0773466327271526,0.9499999999999997,-0.9499999999999997,high,high,,ISIC_6703027.JPG,,ISIC_0055169.JPG,167,true,hh,keypress(i),0,false,555424,555423.799999997,551599.788,551608.700000003,551616.505,555437.046,1,40,37,
sequence,flow.Sequence,6_36,2023-11-15T19:50:04.439Z,,,,,,,,,,3807.294999997015,completion,,,,,,,high,high,,,,,,true,,,,false,555424.200000003,555423.799999997,551599.788,551608.6000000089,551616.505,555437.046,1,40,,
trial,html.Screen,6_37_0,2023-11-15T19:50:08.263Z,,,,1,-0.8859261802814055,-0.9191342361964594,,true,hh,3810.954000000027,response,0.850984647884985,0.9499999999999997,-0.9499999999999997,0.7509882656706086,0.9499999999999997,-0.9499999999999997,high,high,,ISIC_0029395.JPG,,ISIC_0062005.JPG,167,true,hh,keypress(i),0,false,559248.200000003,559248,555420.465,555424.299999997,555437.046,559257.531,1,40,38,
sequence,flow.Sequence,6_37,2023-11-15T19:50:08.263Z,,,,,,,,,,3810.954000000027,completion,,,,,,,high,high,,,,,,true,,,,false,559248.400000006,559248,555420.465,555424.299999997,555437.046,559257.531,1,40,,
trial,html.Screen,6_38_0,2023-11-15T19:50:12.198Z,,,,1,-0.9872117590837104,-0.8387342204487216,,true,hh,3926.2689999970607,response,0.8524156155750909,0.9499999999999997,-0.9499999999999997,0.7696684673096165,0.9499999999999997,-0.9499999999999997,high,high,,ISIC_4539674.JPG,,ISIC_0001141.JPG,167,true,hh,keypress(i),0,false,563183.900000006,563183.799999997,559240.904,559248.6000000089,559257.531,563194.892,1,40,39,
sequence,flow.Sequence,6_38,2023-11-15T19:50:12.199Z,,,,,,,,,,3926.2689999970607,completion,,,,,,,high,high,,,,,,true,,,,false,563184,563183.799999997,559240.904,559248.5,559257.531,563194.892,1,40,,
trial,html.Screen,6_39_0,2023-11-15T19:50:15.687Z,,,,1,-1.0393236111814752,-0.850194793725365,,true,hh,3477.3080000029877,response,0.850984647884985,0.9499999999999997,-0.9499999999999997,0.7509882656706086,0.9499999999999997,-0.9499999999999997,high,high,,ISIC_8427534.JPG,,ISIC_0062005.JPG,167,true,hh,keypress(i),0,false,566672.400000006,566672.200000003,563178.18,563184.1000000089,563194.892,566681.549,1,40,40,
sequence,flow.Sequence,6_39,2023-11-15T19:50:15.687Z,,,,,,,,,,3477.3080000029877,completion,,,,,,,high,high,,,,,,true,,,,false,566672.700000003,566672.200000003,563178.18,563184.1000000089,563194.892,566681.549,1,40,,
practice_loop,flow.Loop,6,2023-11-15T19:50:15.688Z,,,,,,,,,,204178.35200000298,completion,,,,,,,,,,,,,,true,,,,false,566672.900000006,566672.200000003,362477.311,362495.60000000894,362493.848,566681.549,1,40,,
stair_instructions,html.Screen,7,2023-11-15T19:51:37.494Z,,,,,,,,,,81797.75099999702,response,,,,,,,,,,,,,,,continue,click button,,,648479.700000003,648479.299999997,566664.989,566673,566681.549,648496.949,,,,
trial,html.Screen,8_0_0,2023-11-15T19:51:41.311Z,,,,2,-0.0134764727102299,-0.0033499036460912,,true,hh,3799.951000005938,response,1.042408629210669,0.9499999999999997,-0.9499999999999997,0.7942237284714229,0.9499999999999997,-0.9499999999999997,high,high,,ISIC_0009998.JPG,,ISIC_0026738.JPG,167,false,hh,keypress(i),0,true,652297,652296.900000006,648480.112,648479.900000006,648496.949,652317.3,1,40,1,
sequence,flow.Sequence,8_0,2023-11-15T19:51:41.312Z,,,,,,,,,,3799.951000005938,completion,,,,,,,high,high,,,,,,false,,,,true,652297.200000003,652296.900000006,648480.112,648479.799999997,648496.949,652317.3,1,40,,
trial,html.Screen,8_1_0,2023-11-15T19:51:48.895Z,,,,2,-0.013431314305098,0.0140597582944232,,false,hl,7562.999999996973,response,1.0164576835546473,0.9499999999999997,-0.9499999999999997,-0.8120626538423016,0.9499999999999997,-0.9499999999999997,high,low,,ISIC_0069617.JPG,,ISIC_6002694.JPG,26,false,lh,keypress(e),0,true,659880.5,659880.299999997,652300.618,652297.299999997,652317.3,659891.522,1,40,2,
sequence,flow.Sequence,8_1,2023-11-15T19:51:48.895Z,,,,,,,,,,7562.999999996973,completion,,,,,,,high,low,,,,,,false,,,,true,659880.900000006,659880.299999997,652300.618,652297.299999997,652317.3,659891.522,1,40,,
trial,html.Screen,8_2_0,2023-11-15T19:51:58.484Z,,,,2,0.039728379742806,-0.0228701131373768,,true,lh,9578.078000008943,response,-0.9579209317488,0.9999999999999998,-0.9499999999999997,1.0147487101263497,0.9499999999999997,-0.9999999999999998,low,high,,ISIC_0054073.JPG,,ISIC_8124482.JPG,28,false,lh,keypress(e),0,true,669469.799999997,669469.6000000089,659874.923,659880.900000006,659891.522,669484.707,1,40,3,
sequence,flow.Sequence,8_2,2023-11-15T19:51:58.484Z,,,,,,,,,,9578.078000008943,completion,,,,,,,low,high,,,,,,false,,,,true,669470.1000000089,669469.6000000089,659874.923,659880.900000006,659891.522,669484.707,1,40,,
trial,html.Screen,8_3_0,2023-11-15T19:52:04.414Z,,,,2,-0.0021038737988857,0.0570427519488725,,false,lh,5915.292999999947,response,-0.869932994914832,0.9999999999999998,-0.9499999999999997,0.8880533324432531,0.8999999999999997,-0.9999999999999998,low,high,,ISIC_3596927.JPG,,ISIC_8617084.JPG,35,false,ll,keypress(f),0,true,675400.1000000089,675400,669467.722,669470.1000000089,669484.707,675407.118,1,40,4,
sequence,flow.Sequence,8_3,2023-11-15T19:52:04.415Z,,,,,,,,,,5915.292999999947,completion,,,,,,,low,high,,,,,,false,,,,true,675400.299999997,675400,669467.722,669470.1000000089,669484.707,675407.118,1,40,,
trial,html.Screen,8_4_0,2023-11-15T19:52:11.454Z,,,,2,0.0608867680161491,0.0206384042070211,,false,hh,7032.881999999983,response,0.8946880006769797,0.9999999999999998,-0.863926963331816,0.9198276163642348,0.9499999999999997,-0.9999999999999998,high,high,,ISIC_0640806.JPG,,ISIC_7840728.JPG,155,false,lh,keypress(e),0,true,682440.200000003,682440,675390.308,675400.299999997,675407.118,682447.41,1,40,5,
sequence,flow.Sequence,8_4,2023-11-15T19:52:11.455Z,,,,,,,,,,7032.881999999983,completion,,,,,,,high,high,,,,,,false,,,,true,682440.299999997,682440,675390.308,675400.299999997,675407.118,682447.41,1,40,,
trial,html.Screen,8_5_0,2023-11-15T19:52:16.655Z,,,,2,0.0057914759495055,0.0074667911845194,,false,hl,5193.190000008908,response,1.0115965332688306,0.9499999999999997,-0.7639269633318159,-0.8282633603842442,0.8499999999999996,-0.8999999999999997,high,low,,ISIC_0058723.JPG,,ISIC_1069587.JPG,30,false,hh,keypress(i),0,true,687640.799999997,687640.6000000089,682430.863,682440.400000006,682447.41,687652.753,1,40,6,
sequence,flow.Sequence,8_5,2023-11-15T19:52:16.655Z,,,,,,,,,,5193.190000008908,completion,,,,,,,high,low,,,,,,false,,,,true,687641.1000000089,687640.6000000089,682430.863,682440.299999997,682447.41,687652.753,1,40,,
trial,html.Screen,8_6_0,2023-11-15T19:52:25.175Z,,,,2,0.0511770300585718,0.029030243555971,,true,hh,8507.647000005934,response,0.9249963751334934,0.9499999999999997,-0.7639269633318159,0.8954921660911329,0.8499999999999996,-0.9499999999999997,high,high,,ISIC_6652978.JPG,,ISIC_6404049.JPG,193,false,hh,keypress(i),0,true,696160.6000000089,696160.400000006,687636.132,687641.200000003,687652.753,696178.068,1,40,7,
sequence,flow.Sequence,8_6,2023-11-15T19:52:25.175Z,,,,,,,,,,8507.647000005934,completion,,,,,,,high,high,,,,,,false,,,,true,696160.900000006,696160.400000006,687636.132,687641.200000003,687652.753,696178.068,1,40,,
trial,html.Screen,8_7_0,2023-11-15T19:52:35.263Z,,,,2,-0.0245585387483123,0.053462758614929,,true,ll,10070.53200000897,response,-0.5672442941370177,0.9035443496799818,-0.7639269633318159,-0.770044591308835,0.9035443496799818,-0.9499999999999997,low,low,,ISIC_3389704.JPG,,ISIC_0651114.JPG,192,false,ll,keypress(f),0,true,706248.700000003,706248.6000000089,696161.008,696161,696178.068,706254.604,1,40,8,
sequence,flow.Sequence,8_7,2023-11-15T19:52:35.263Z,,,,,,,,,,10070.53200000897,completion,,,,,,,low,low,,,,,,false,,,,true,706249,706248.6000000089,696161.008,696160.900000006,696178.068,706254.604,1,40,,
trial,html.Screen,8_8_0,2023-11-15T19:52:42.448Z,,,,2,-0.0546386976779619,0.0448724759283131,,false,ll,7177.79600000591,response,-0.8938250806816868,0.9035443496799818,-0.7639269633318159,-0.8120302962631756,0.9035443496799818,-0.9499999999999997,low,low,,ISIC_6722934.JPG,,ISIC_9268141.JPG,192,false,hh,keypress(i),0,true,713432.5,713432.400000006,706237.832,706249.1000000089,706254.604,713445.141,1,40,9,
sequence,flow.Sequence,8_8,2023-11-15T19:52:42.448Z,,,,,,,,,,7177.79600000591,completion,,,,,,,low,low,,,,,,false,,,,true,713432.900000006,713432.400000006,706237.832,706249.1000000089,706254.604,713445.141,1,40,,
trial,html.Screen,8_9_0,2023-11-15T19:52:45.464Z,,,,2,0.0111354529246037,-0.0585810480909377,,true,ll,3003.6589999970747,response,-0.8995154199215303,0.9035443496799818,-0.8139269633318159,-0.8258046477520162,0.9035443496799818,-0.9999999999999998,low,low,,ISIC_7858034.JPG,,ISIC_6345354.JPG,162,false,ll,keypress(f),0,true,716449,716448.799999997,713428.325,713433,713445.141,716464.832,1,40,10,
sequence,flow.Sequence,8_9,2023-11-15T19:52:45.464Z,,,,,,,,,,3003.6589999970747,completion,,,,,,,low,low,,,,,,false,,,,true,716449.200000003,716448.799999997,713428.325,713433,713445.141,716464.832,1,40,,
trial,html.Screen,8_10_0,2023-11-15T19:52:51.376Z,,,,2,0.0593670819812057,-0.0718390543903236,,true,hl,5895.667999999947,response,0.9235571765207048,0.9035443496799818,-0.8139269633318159,-1.0008081653938232,0.9035443496799818,-0.9999999999999998,high,low,,ISIC_0062367.JPG,,ISIC_8796632.JPG,25,false,hl,keypress(j),0,true,722360.6000000089,722360.5,716448.235,716449.400000006,716464.832,722370.706,1,40,11,
sequence,flow.Sequence,8_10,2023-11-15T19:52:51.376Z,,,,,,,,,,5895.667999999947,completion,,,,,,,high,low,,,,,,false,,,,true,722360.900000006,722360.5,716448.235,716449.400000006,716464.832,722370.706,1,40,,
trial,html.Screen,8_11_0,2023-11-15T19:52:54.280Z,,,,2,-0.0277178575053843,0.0395587463147856,,false,lh,2893.894000008935,response,-0.8534691366511764,0.9035443496799818,-0.8139269633318159,1.03975580494588,0.9035443496799818,-0.9499999999999997,low,high,,ISIC_0010807.JPG,,ISIC_0056788.JPG,55,false,hh,keypress(i),0,true,725264.799999997,725264.6000000089,722354.197,722361.1000000089,722370.706,725273.647,1,40,12,
sequence,flow.Sequence,8_11,2023-11-15T19:52:54.280Z,,,,,,,,,,2893.894000008935,completion,,,,,,,low,high,,,,,,false,,,,true,725265.1000000089,725264.6000000089,722354.197,722361,722370.706,725273.647,1,40,,
trial,html.Screen,8_12_0,2023-11-15T19:52:57.279Z,,,,2,-0.0693466529227737,-0.044703434393184,,true,hh,2990.553000002983,response,0.8800173162815772,0.9035443496799818,-0.863926963331816,0.7770513300237836,0.9035443496799818,-0.9499999999999997,high,high,,ISIC_0004217.JPG,,ISIC_0030852.JPG,195,false,hh,keypress(i),0,true,728264.299999997,728264.200000003,725257.07,725265.200000003,725273.647,728276.781,1,40,13,
sequence,flow.Sequence,8_12,2023-11-15T19:52:57.280Z,,,,,,,,,,2990.553000002983,completion,,,,,,,high,high,,,,,,false,,,,true,728264.5,728264.200000003,725257.07,725265.1000000089,725273.647,728276.781,1,40,,
trial,html.Screen,8_13_0,2023-11-15T19:53:04.872Z,,,,2,0.0511770300585718,0.029030243555971,,false,lh,7580.018999997061,response,-0.9644643328174062,0.8584035674848317,-0.863926963331816,0.745333984830218,0.8584035674848317,-0.9499999999999997,low,high,,ISIC_6652978.JPG,,ISIC_0058046.JPG,50,false,hl,keypress(j),0,true,735857,735856.799999997,728260.069,728264.6000000089,728276.781,735867.583,1,40,14,
sequence,flow.Sequence,8_13,2023-11-15T19:53:04.872Z,,,,,,,,,,7580.018999997061,completion,,,,,,,low,high,,,,,,false,,,,true,735857.400000006,735856.799999997,728260.069,728264.6000000089,728276.781,735867.583,1,40,,
trial,html.Screen,8_14_0,2023-11-15T19:53:09.799Z,,,,2,-0.0531672914703651,0.0074883925434357,,true,ll,4916.216999997036,response,-0.8671772321064484,0.8584035674848317,-0.913926963331816,-1.0212529379514277,0.9084035674848318,-0.9499999999999997,low,low,,ISIC_4177043.JPG,,ISIC_0004352.JPG,151,false,ll,keypress(f),0,true,740783.799999997,740783.799999997,735850.922,735857.6000000089,735867.583,740789.138,1,40,15,
sequence,flow.Sequence,8_14,2023-11-15T19:53:09.799Z,,,,,,,,,,4916.216999997036,completion,,,,,,,low,low,,,,,,false,,,,true,740783.900000006,740783.799999997,735850.922,735857.5,735867.583,740789.138,1,40,,
trial,html.Screen,8_15_0,2023-11-15T19:53:14.047Z,,,,2,0.063045324701596,-0.0064789751878758,,false,lh,4242.661999996984,response,-0.7784583866003763,0.8584035674848317,-0.913926963331816,0.9641514808986528,0.9084035674848318,-0.9499999999999997,low,high,,ISIC_5805349.JPG,,ISIC_0011924.JPG,36,false,hh,keypress(i),0,true,745031.799999997,745031.799999997,740772.609,740784,740789.138,745043.431,1,40,16,
sequence,flow.Sequence,8_15,2023-11-15T19:53:14.047Z,,,,,,,,,,4242.661999996984,completion,,,,,,,low,high,,,,,,false,,,,true,745031.900000006,745031.799999997,740772.609,740784,740789.138,745043.431,1,40,,
trial,html.Screen,8_16_0,2023-11-15T19:53:17.672Z,,,,2,-0.040191644178716,0.0622582668671422,,true,hl,3613.469000005978,response,0.8947611078712571,0.8584035674848317,-0.963926963331816,-0.8960964505004638,0.9084035674848318,-0.9499999999999997,high,low,,ISIC_6207688.JPG,,ISIC_6441128.JPG,40,false,hl,keypress(j),0,true,748657,748656.900000006,745026.684,745032,745043.431,748663.726,1,40,17,
sequence,flow.Sequence,8_16,2023-11-15T19:53:17.672Z,,,,,,,,,,3613.469000005978,completion,,,,,,,high,low,,,,,,false,,,,true,748657.299999997,748656.900000006,745026.684,745032,745043.431,748663.726,1,40,,
trial,html.Screen,8_17_0,2023-11-15T19:53:22.559Z,,,,2,-0.0688801591312476,-0.0185462113313342,,false,hh,4880.174000005936,response,0.8946880006769797,0.8584035674848317,-0.963926963331816,0.9198276163642348,0.9084035674848318,-0.8999999999999997,high,high,,ISIC_0067723.JPG,,ISIC_7840728.JPG,201,false,ll,keypress(f),0,true,753544,753543.900000006,748647.144,748657.400000006,748663.726,753551.986,1,40,18,
sequence,flow.Sequence,8_17,2023-11-15T19:53:22.559Z,,,,,,,,,,4880.174000005936,completion,,,,,,,high,high,,,,,,false,,,,true,753544.1000000089,753543.900000006,748647.144,748657.400000006,748663.726,753551.986,1,40,,
trial,html.Screen,8_18_0,2023-11-15T19:53:25.327Z,,,,2,-0.0531672914703651,0.0074883925434357,,false,lh,2759.7140000029467,response,-0.7836356408583546,0.9084035674848318,-0.963926963331816,1.1197925594706428,0.9584035674848318,-0.8999999999999997,low,high,,ISIC_4177043.JPG,,ISIC_0024961.JPG,28,false,hh,keypress(i),0,true,756311.799999997,756311.700000003,753535.417,753544.299999997,753551.986,756321.544,1,40,19,
sequence,flow.Sequence,8_18,2023-11-15T19:53:25.327Z,,,,,,,,,,2759.7140000029467,completion,,,,,,,low,high,,,,,,false,,,,true,756312,756311.700000003,753535.417,753544.200000003,753551.986,756321.544,1,40,,
trial,html.Screen,8_19_0,2023-11-15T19:53:28.943Z,,,,2,0.0538169356437535,-0.0113486191005169,,true,hl,3606.7559999970254,response,1.0022829373011404,0.9084035674848318,-1.013926963331816,-0.8311726972863814,0.9584035674848318,-0.8999999999999997,high,low,,ISIC_0009939.JPG,,ISIC_0033287.JPG,34,false,hl,keypress(j),0,true,759928.5,759928.299999997,756304.787,756312,756321.544,759941.726,1,40,20,
sequence,flow.Sequence,8_19,2023-11-15T19:53:28.944Z,,,,,,,,,,3606.7559999970254,completion,,,,,,,high,low,,,,,,false,,,,true,759928.700000003,759928.299999997,756304.787,756312,756321.544,759941.726,1,40,,
trial,html.Screen,8_20_0,2023-11-15T19:53:32.831Z,,,,2,-0.0552031398781121,-0.0652612426529481,,false,hl,3874.474000002956,response,1.0213365328004047,0.9084035674848318,-1.013926963331816,-1.088524359911891,0.9584035674848318,-0.8999999999999997,high,low,,ISIC_0024226.JPG,,ISIC_5434229.JPG,34,false,hh,keypress(i),0,true,763816.299999997,763816.200000003,759925.051,759928.799999997,759941.726,763829.109,1,40,21,
sequence,flow.Sequence,8_20,2023-11-15T19:53:32.832Z,,,,,,,,,,3874.474000002956,completion,,,,,,,high,low,,,,,,false,,,,true,763816.5,763816.200000003,759925.051,759928.799999997,759941.726,763829.109,1,40,,
trial,html.Screen,8_21_0,2023-11-15T19:53:35.136Z,,,,2,0.0329095507339554,-0.0382899749693245,,true,hh,2291.4910000088857,response,0.8331144817673659,0.8584035674848317,-1.013926963331816,0.9687545919760946,0.9584035674848318,-0.9499999999999997,high,high,,ISIC_8812781.JPG,,ISIC_0028075.JPG,184,false,hh,keypress(i),0,true,766120.799999997,766120.6000000089,763812.165,763816.6000000089,763829.109,766131.412,1,40,22,
sequence,flow.Sequence,8_21,2023-11-15T19:53:35.136Z,,,,,,,,,,2291.4910000088857,completion,,,,,,,high,high,,,,,,false,,,,true,766121,766120.6000000089,763812.165,763816.5,763829.109,766131.412,1,40,,
trial,html.Screen,8_22_0,2023-11-15T19:53:38.768Z,,,,2,-0.0691769743257167,0.0638501824668941,,false,lh,3621.087999999989,response,-0.8579451262594331,0.8584035674848317,-1.013926963331816,0.9633172970727744,0.8509345368717303,-0.9499999999999997,low,high,,ISIC_0031914.JPG,,ISIC_0067172.JPG,36,false,ll,keypress(f),0,true,769752.700000003,769752.5,766114.738,766121.200000003,766131.412,769768.167,1,40,23,
sequence,flow.Sequence,8_22,2023-11-15T19:53:38.768Z,,,,,,,,,,3621.087999999989,completion,,,,,,,low,high,,,,,,false,,,,true,769752.900000006,769752.5,766114.738,766121.200000003,766131.412,769768.167,1,40,,
trial,html.Screen,8_23_0,2023-11-15T19:53:43.648Z,,,,2,-0.0149482827359613,0.0661630859332833,,true,ll,4864.332999999984,response,-0.8985413691921805,0.8584035674848317,-1.013926963331816,-1.1177351920180405,0.9009345368717303,-0.9499999999999997,low,low,,ISIC_6815524.JPG,,ISIC_2805573.JPG,136,false,ll,keypress(f),0,true,774632.700000003,774632.5,769751.407,769753.1000000089,769768.167,774639.714,1,40,24,
sequence,flow.Sequence,8_23,2023-11-15T19:53:43.648Z,,,,,,,,,,4864.332999999984,completion,,,,,,,low,low,,,,,,false,,,,true,774632.900000006,774632.5,769751.407,769753,769768.167,774639.714,1,40,,
trial,html.Screen,8_24_0,2023-11-15T19:53:52.048Z,,,,2,-0.0552031398781121,-0.0652612426529481,,false,hh,8392.386000008904,response,0.9306454722820696,0.8584035674848317,-0.9581382806051104,0.9812399591657396,0.9009345368717303,-0.9499999999999997,high,high,,ISIC_0024226.JPG,,ISIC_0009940.JPG,202,false,lh,keypress(e),0,true,783032.299999997,783032.1000000089,774622.971,774633,774639.714,783048.241,1,40,25,
sequence,flow.Sequence,8_24,2023-11-15T19:53:52.048Z,,,,,,,,,,8392.386000008904,completion,,,,,,,high,high,,,,,,false,,,,true,783032.5,783032.1000000089,774622.971,774633,774639.714,783048.241,1,40,,
trial,html.Screen,8_25_0,2023-11-15T19:53:56.272Z,,,,2,0.0544808612748248,-0.0240487075377862,,true,ll,4208.3590000089025,response,-1.1210325063849345,0.9084035674848318,-0.9581382806051104,-1.1498648320956202,0.9009345368717303,-0.9499999999999997,low,low,,ISIC_4606646.JPG,,ISIC_0032162.JPG,139,false,ll,keypress(f),0,true,787256.700000003,787256.6000000089,783031.422,783032.6000000089,783048.241,787269.282,1,40,26,
sequence,flow.Sequence,8_25,2023-11-15T19:53:56.272Z,,,,,,,,,,4208.3590000089025,completion,,,,,,,low,low,,,,,,false,,,,true,787257,787256.6000000089,783031.422,783032.6000000089,783048.241,787269.282,1,40,,
trial,html.Screen,8_26_0,2023-11-15T19:53:58.375Z,,,,2,0.063045324701596,-0.0064789751878758,,true,ll,2090.7179999999935,response,-0.8093178584833343,0.9084035674848318,-0.9581382806051104,-1.0777929856705222,0.9009345368717303,-1.0854486692402772,low,low,,ISIC_5805349.JPG,,ISIC_6171084.JPG,112,false,ll,keypress(f),0,true,789360.200000003,789360,787252.265,787257.1000000089,787269.282,789371.188,1,40,27,
sequence,flow.Sequence,8_26,2023-11-15T19:53:58.376Z,,,,,,,,,,2090.7179999999935,completion,,,,,,,low,low,,,,,,false,,,,true,789360.299999997,789360,787252.265,787257.1000000089,787269.282,789371.188,1,40,,
trial,html.Screen,8_27_0,2023-11-15T19:54:06.120Z,,,,2,0.0450282431170921,,,false,lh,7733.111999997054,response,-0.9696118525781644,0.9084035674848318,-0.8935554220769282,0.9244148283103414,0.9009345368717303,-1.0854486692402772,low,high,,ISIC_1805163.JPG,,ISIC_7927525.JPG,40,false,ll,keypress(f),0,true,797104.400000006,797104.299999997,789354.593,789360.400000006,789371.188,797112.267,1,40,28,
sequence,flow.Sequence,8_27,2023-11-15T19:54:06.120Z,,,,,,,,,,7733.111999997054,completion,,,,,,,low,high,,,,,,false,,,,true,797104.700000003,797104.299999997,789354.593,789360.400000006,789371.188,797112.267,1,40,,
trial,html.Screen,8_28_0,2023-11-15T19:54:09.248Z,,,,2,-0.0149482827359613,0.0661630859332833,,false,hl,3120.133000005968,response,0.6864497754928831,0.8584035674848317,-0.8435554220769281,-1.0456580051873738,0.9009345368717303,-1.0354486692402771,high,low,,ISIC_6815524.JPG,,ISIC_0055388.JPG,24,false,ll,keypress(f),0,true,800232.5,800232.400000006,797095.535,797104.799999997,797112.267,800248.921,1,40,29,
sequence,flow.Sequence,8_28,2023-11-15T19:54:09.248Z,,,,,,,,,,3120.133000005968,completion,,,,,,,high,low,,,,,,false,,,,true,800232.700000003,800232.400000006,797095.535,797104.700000003,797112.267,800248.921,1,40,,
trial,html.Screen,8_29_0,2023-11-15T19:54:15.631Z,,,,2,-0.0220322185490382,-0.0740918837949419,,false,lh,6366.9790000059875,response,-0.8136669413088868,0.9084035674848318,-0.8435554220769281,0.725304760326023,0.9009345368717303,-0.957634928882769,low,high,,ISIC_8105020.JPG,,ISIC_0962121.JPG,47,false,hh,keypress(i),0,true,806616,806615.900000006,800231.961,800232.900000006,800248.921,806621.722,1,40,30,
sequence,flow.Sequence,8_29,2023-11-15T19:54:15.631Z,,,,,,,,,,6366.9790000059875,completion,,,,,,,low,high,,,,,,false,,,,true,806616.1000000089,806615.900000006,800231.961,800232.799999997,800248.921,806621.722,1,40,,
trial,html.Screen,8_30_0,2023-11-15T19:54:18.776Z,,,,2,-0.0362376068089956,-0.047825070846155,,true,ll,3138.67800000601,response,-0.7488189907128915,0.9084035674848318,-0.8935554220769282,-0.9002829757503055,0.9009345368717303,-0.957634928882769,low,low,,ISIC_6985114.JPG,,ISIC_8586909.JPG,161,false,ll,keypress(f),0,true,809760.6000000089,809760.400000006,806604.938,806616.1000000089,806621.722,809775.14,1,40,31,
sequence,flow.Sequence,8_30,2023-11-15T19:54:18.776Z,,,,,,,,,,3138.67800000601,completion,,,,,,,low,low,,,,,,false,,,,true,809760.900000006,809760.400000006,806604.938,806616.1000000089,806621.722,809775.14,1,40,,
trial,html.Screen,8_31_0,2023-11-15T19:54:21.543Z,,,,2,0.0640778296621707,0.0387686079545705,,false,hl,2752.7600000059465,response,0.7197989269080959,0.9084035674848318,-0.8935554220769282,-0.9410141415297968,0.9009345368717303,-0.957634928882769,high,low,,ISIC_0010124.JPG,,ISIC_2635051.JPG,28,false,hh,keypress(i),0,true,812528.1000000089,812527.900000006,809758.355,809760.900000006,809775.14,812544.349,1,40,32,
sequence,flow.Sequence,8_31,2023-11-15T19:54:21.544Z,,,,,,,,,,2752.7600000059465,completion,,,,,,,high,low,,,,,,false,,,,true,812528.299999997,812527.900000006,809758.355,809760.900000006,809775.14,812544.349,1,40,,
trial,html.Screen,8_32_0,2023-11-15T19:54:23.239Z,,,,2,-0.040191644178716,0.0622582668671422,,true,hh,1679.5510000059148,response,0.9293545888449,0.9084035674848318,-0.8935554220769282,0.8047295996345292,0.9009345368717303,-1.007634928882769,high,high,,ISIC_6207688.JPG,,ISIC_7717907.JPG,193,false,hh,keypress(i),0,true,814224,814223.900000006,812527.759,812528.400000006,812544.349,814229.306,1,40,33,
sequence,flow.Sequence,8_32,2023-11-15T19:54:23.239Z,,,,,,,,,,1679.5510000059148,completion,,,,,,,high,high,,,,,,false,,,,true,814224.299999997,814223.900000006,812527.759,812528.299999997,812544.349,814229.306,1,40,,
trial,html.Screen,8_33_0,2023-11-15T19:54:31.063Z,,,,2,-0.0102460616775615,0.0309670599545429,,false,hl,7818.694000000018,response,0.8655167308525522,0.7122642632713125,-0.8935554220769282,-0.9298580423306444,0.7122642632713125,-1.007634928882769,high,low,,ISIC_0072041.JPG,,ISIC_4603706.JPG,36,false,ll,keypress(f),0,true,822048.200000003,822048,814212.629,814224.5,814229.306,822053.845,1,40,34,
sequence,flow.Sequence,8_33,2023-11-15T19:54:31.064Z,,,,,,,,,,7818.694000000018,completion,,,,,,,high,low,,,,,,false,,,,true,822048.400000006,822048,814212.629,814224.400000006,814229.306,822053.845,1,40,,
trial,html.Screen,8_34_0,2023-11-15T19:54:34.295Z,,,,2,0.0450282431170921,,,true,ll,3226.155000000028,response,-0.8919560546669082,0.7622642632713126,-0.8935554220769282,-0.809906745076789,0.7122642632713125,-1.007634928882769,low,low,,ISIC_1805163.JPG,,ISIC_8086526.JPG,151,false,ll,keypress(f),0,true,825280.1000000089,825280,822037.11,822048.400000006,822053.845,825290.49,1,40,35,
sequence,flow.Sequence,8_34,2023-11-15T19:54:34.296Z,,,,,,,,,,3226.155000000028,completion,,,,,,,low,low,,,,,,false,,,,true,825280.299999997,825280,822037.11,822048.400000006,822053.845,825290.49,1,40,,
trial,html.Screen,8_35_0,2023-11-15T19:54:37.080Z,,,,2,-0.0693466529227737,-0.044703434393184,,false,hl,2774.2100000029895,response,0.8623414234919863,0.7622642632713126,-0.8198823937037166,-0.782830143980698,0.7122642632713125,-0.8198823937037166,high,low,,ISIC_0004217.JPG,,ISIC_2727016.JPG,61,false,hh,keypress(i),0,true,828064.799999997,828064.700000003,825273.69,825280.400000006,825290.49,828076.681,1,40,36,
sequence,flow.Sequence,8_35,2023-11-15T19:54:37.080Z,,,,,,,,,,2774.2100000029895,completion,,,,,,,high,low,,,,,,false,,,,true,828065.200000003,828064.700000003,825273.69,825280.400000006,825290.49,828076.681,1,40,,
trial,html.Screen,8_36_0,2023-11-15T19:54:39.432Z,,,,2,0.0593670819812057,-0.0718390543903236,,false,ll,2339.719000005978,response,-0.8849616197102024,0.7622642632713126,-0.8198823937037166,-0.8708774591990956,0.7122642632713125,-0.8698823937037167,low,low,,ISIC_0062367.JPG,,ISIC_2872107.JPG,213,false,hh,keypress(i),0,true,830416.400000006,830416.400000006,828059.955,828065.299999997,828076.681,830429.054,1,40,37,
sequence,flow.Sequence,8_36,2023-11-15T19:54:39.432Z,,,,,,,,,,2339.719000005978,completion,,,,,,,low,low,,,,,,false,,,,true,830416.700000003,830416.400000006,828059.955,828065.299999997,828076.681,830429.054,1,40,,
trial,html.Screen,8_37_0,2023-11-15T19:54:41.416Z,,,,2,0.0116094682222121,-0.0258434522530318,,true,hh,1971.3460000059567,response,0.8888187899385174,0.7622642632713126,-0.8698823937037167,0.8162579333127866,0.7122642632713125,-0.9198823937037167,high,high,,ISIC_9239632.JPG,,ISIC_0070285.JPG,281,false,hh,keypress(i),0,true,832400.6000000089,832400.400000006,830412.257,830416.900000006,830429.054,832414.351,1,40,38,
sequence,flow.Sequence,8_37,2023-11-15T19:54:41.416Z,,,,,,,,,,1971.3460000059567,completion,,,,,,,high,high,,,,,,false,,,,true,832400.900000006,832400.400000006,830412.257,830416.799999997,830429.054,832414.351,1,40,,
trial,html.Screen,8_38_0,2023-11-15T19:54:46.088Z,,,,2,-0.0688801591312476,-0.0185462113313342,,true,hh,4658.549000005936,response,0.6077323209803579,0.802538361625652,-0.8698823937037167,0.7033897940828756,0.7122642632713125,-0.9198823937037167,high,high,,ISIC_0067723.JPG,,ISIC_7528996.JPG,273,false,hh,keypress(i),0,true,837073.1000000089,837072.900000006,832397.676,832401,832414.351,837085.604,1,40,39,
sequence,flow.Sequence,8_38,2023-11-15T19:54:46.089Z,,,,,,,,,,4658.549000005936,completion,,,,,,,high,high,,,,,,false,,,,true,837073.400000006,837072.900000006,832397.676,832401,832414.351,837085.604,1,40,,
trial,html.Screen,8_39_0,2023-11-15T19:54:55.824Z,,,,2,-0.0348234368746005,0.0236866303880924,,false,lh,9722.99600000889,response,-0.7390046254300784,0.802538361625652,-0.8698823937037167,0.4902725717696148,0.6055610575316167,-0.9198823937037167,low,high,,ISIC_0011099.JPG,,ISIC_6199335.JPG,95,false,hl,keypress(j),0,true,846808.799999997,846808.6000000089,837068.979,837073.5,837085.604,846811.988,1,40,40,
sequence,flow.Sequence,8_39,2023-11-15T19:54:55.824Z,,,,,,,,,,9722.99600000889,completion,,,,,,,low,high,,,,,,false,,,,true,846809.1000000089,846808.6000000089,837068.979,837073.5,837085.604,846811.988,1,40,,
stair_loop,flow.Loop,8,2023-11-15T19:54:55.825Z,,,,,,,,,,198311.65100000892,completion,,,,,,,,,,,,,,false,,,,true,846809.299999997,846808.6000000089,648480.112,648479.799999997,648496.949,846811.988,1,40,,
exp_instructions,html.Screen,9,2023-11-15T19:55:21.632Z,,,,,,,,,,25804.011999999988,response,,,,,,,,,,,,,,,continue,keypress(Space),,,872616.5,872616,846795.229,846809.299999997,846811.988,872621.146,,,,
trial,html.Screen,10_0_0,2023-11-15T19:55:28.373Z,,,,1,0.0608867680161491,0.0206384042070211,,true,lh,6736.65399999707,response,-0.9696118525781644,0.8462822208455337,-0.9113989020138302,0.9244148283103414,0.8328116838859094,-0.9600783774768014,low,high,,ISIC_0640806.JPG,9,ISIC_7927525.JPG,50,false,lh,keypress(e),0,false,879357.900000006,879357.799999997,872603.887,872616.700000003,872621.146,879361.181,4,500,1,
break,html.Screen,10_0_1,2023-11-15T19:55:28.374Z,,,,,,,,,,NaN,,,,,,,,low,high,,,,,,false,,,,false,879358.299999997,879358.299999997,,879358.1000000089,,879361.181,4,500,,
break_continue,html.Screen,10_0_2,2023-11-15T19:55:28.374Z,,,,,,,,,,NaN,,,,,,,,low,high,,,,,,false,,,,false,879358.6000000089,879358.6000000089,,879358.400000006,,879361.181,4,500,,
sequence,flow.Sequence,10_0,2023-11-15T19:55:28.374Z,,,,,,,,,,6737.454000008991,completion,,,,,,,low,high,,,,,,false,,,,false,879358.700000003,879358.6000000089,872603.887,872616.6000000089,872621.146,879361.181,4,500,,
trial,html.Screen,10_1_0,2023-11-15T19:55:35.712Z,,,,1,0.0069555338059566,-0.0310100918136373,,false,hh,7335.6189999970375,response,0.7085857540614006,0.8462822208455337,-0.9113989020138302,1.0057095383451151,0.8328116838859094,-0.9600783774768014,high,high,,ISIC_0011177.JPG,9,ISIC_0053485.JPG,215,false,lh,keypress(e),0,false,886697.1000000089,886696.799999997,879344.555,879358.700000003,879361.181,886701.879,4,500,2,
break,html.Screen,10_1_1,2023-11-15T19:55:35.713Z,,,,,,,,,,NaN,,,,,,,,high,high,,,,,,false,,,,false,886697.799999997,886697.6000000089,,886697.299999997,,886701.879,4,500,,
break_continue,html.Screen,10_1_2,2023-11-15T19:55:35.714Z,,,,,,,,,,NaN,,,,,,,,high,high,,,,,,false,,,,false,886698.200000003,886698.1000000089,,886697.900000006,,886701.879,4,500,,
sequence,flow.Sequence,10_1,2023-11-15T19:55:35.714Z,,,,,,,,,,7336.919000008958,completion,,,,,,,high,high,,,,,,false,,,,false,886698.400000006,886698.1000000089,879344.555,879358.700000003,879361.181,886701.879,4,500,,
trial,html.Screen,10_2_0,2023-11-15T19:55:45.168Z,,,,1,-0.0188047466661863,0.0288346930436979,,false,hh,9450.721000008984,response,0.8173539546789442,0.8462822208455337,-0.9113989020138302,0.6985094844253766,0.8328116838859094,-0.9600783774768014,high,high,,ISIC_0014157.JPG,10,ISIC_7633960.JPG,215,false,lh,keypress(e),0,false,896152.799999997,896152.6000000089,886685.164,886698.5,886701.879,896161.399,4,500,3,
break,html.Screen,10_2_1,2023-11-15T19:55:45.169Z,,,,,,,,,,NaN,,,,,,,,high,high,,,,,,false,,,,false,896153.6000000089,896153.299999997,,896153.1000000089,,896161.399,4,500,,
break_continue,html.Screen,10_2_2,2023-11-15T19:55:45.169Z,,,,,,,,,,NaN,,,,,,,,high,high,,,,,,false,,,,false,896154,896153.799999997,,896153.700000003,,896161.399,4,500,,
sequence,flow.Sequence,10_2,2023-11-15T19:55:45.170Z,,,,,,,,,,9451.920999997063,completion,,,,,,,high,high,,,,,,false,,,,false,896154.1000000089,896153.799999997,886685.164,886698.5,886701.879,896161.399,4,500,,
trial,html.Screen,10_3_0,2023-11-15T19:55:53.240Z,,,,1,0.063045324701596,-0.0064789751878758,,true,hh,8063.101000000024,response,0.9012711689442632,0.8462822208455337,-0.9113989020138302,0.8639942067158306,0.8328116838859094,-0.9600783774768014,high,high,,ISIC_5805349.JPG,9,ISIC_0032718.JPG,215,false,hh,keypress(i),0,false,904224.6000000089,904224.5,896144.681,896154.299999997,896161.399,904236.114,4,500,4,
break,html.Screen,10_3_1,2023-11-15T19:55:53.240Z,,,,,,,,,,NaN,,,,,,,,high,high,,,,,,false,,,,false,904225,904224.900000006,,904224.700000003,,904236.114,4,500,,
break_continue,html.Screen,10_3_2,2023-11-15T19:55:53.241Z,,,,,,,,,,NaN,,,,,,,,high,high,,,,,,false,,,,false,904225.200000003,904225.200000003,,904225.1000000089,,904236.114,4,500,,
sequence,flow.Sequence,10_3,2023-11-15T19:55:53.241Z,,,,,,,,,,8063.801000003004,completion,,,,,,,high,high,,,,,,false,,,,false,904225.400000006,904225.200000003,896144.681,896154.299999997,896161.399,904236.114,4,500,,
trial,html.Screen,10_4_0,2023-11-15T19:55:57.648Z,,,,1,0.0111354529246037,-0.0585810480909377,,false,lh,4396.086000003037,response,-0.8487429103619056,0.8462822208455337,-0.9113989020138302,0.9778257804233036,0.8328116838859094,-0.9600783774768014,low,high,,ISIC_7858034.JPG,9,ISIC_4554863.JPG,50,false,ll,keypress(f),0,false,908632.400000006,908632.200000003,904219.345,904225.400000006,904236.114,908640.6,4,500,5,
break,html.Screen,10_4_1,2023-11-15T19:55:57.648Z,,,,,,,,,,NaN,,,,,,,,low,high,,,,,,false,,,,false,908632.700000003,908632.700000003,,908632.5,,908640.6,4,500,,
break_continue,html.Screen,10_4_2,2023-11-15T19:55:57.648Z,,,,,,,,,,NaN,,,,,,,,low,high,,,,,,false,,,,false,908632.900000006,908632.900000006,,908632.700000003,,908640.6,4,500,,
sequence,flow.Sequence,10_4,2023-11-15T19:55:57.648Z,,,,,,,,,,4396.786000006017,completion,,,,,,,low,high,,,,,,false,,,,false,908632.900000006,908632.900000006,904219.345,904225.400000006,904236.114,908640.6,4,500,,
trial,html.Screen,10_5_0,2023-11-15T19:56:01.264Z,,,,1,-0.0691769743257167,0.0638501824668941,,false,hl,3607.8000000059837,response,0.658450997652008,0.8462822208455337,-0.9113989020138302,-0.8660404645096786,0.8328116838859094,-0.9600783774768014,high,low,,ISIC_0031914.JPG,10,ISIC_6515546.JPG,39,false,hh,keypress(i),0,false,912248.5,912248.400000006,908623.813,908633,908640.6,912260.854,4,500,6,
break,html.Screen,10_5_1,2023-11-15T19:56:01.265Z,,,,,,,,,,NaN,,,,,,,,high,low,,,,,,false,,,,false,912249.1000000089,912249,,912248.700000003,,912260.854,4,500,,
break_continue,html.Screen,10_5_2,2023-11-15T19:56:01.265Z,,,,,,,,,,NaN,,,,,,,,high,low,,,,,,false,,,,false,912249.5,912249.400000006,,912249.299999997,,912260.854,4,500,,
sequence,flow.Sequence,10_5,2023-11-15T19:56:01.265Z,,,,,,,,,,3608.8000000059837,completion,,,,,,,high,low,,,,,,false,,,,false,912249.700000003,912249.400000006,908623.813,908633,908640.6,912260.854,4,500,,
trial,html.Screen,10_6_0,2023-11-15T19:56:06.592Z,,,,1,0.0217698886732706,-0.0410870915161425,,true,ll,5315.84600000293,response,-0.8985413691921805,0.8462822208455337,-0.9113989020138302,-1.1177351920180405,0.8328116838859094,-0.9600783774768014,low,low,,ISIC_0072173.JPG,9,ISIC_2805573.JPG,152,false,ll,keypress(f),0,false,917576.799999997,917576.700000003,912244.139,912249.799999997,912260.854,917582.801,4,500,7,
break,html.Screen,10_6_1,2023-11-15T19:56:06.593Z,,,,,,,,,,NaN,,,,,,,,low,low,,,,,,false,,,,false,917577.5,917577.400000006,,917577.1000000089,,917582.801,4,500,,
break_continue,html.Screen,10_6_2,2023-11-15T19:56:06.593Z,,,,,,,,,,NaN,,,,,,,,low,low,,,,,,false,,,,false,917578,917577.900000006,,917577.700000003,,917582.801,4,500,,
sequence,flow.Sequence,10_6,2023-11-15T19:56:06.594Z,,,,,,,,,,5317.04600000591,completion,,,,,,,low,low,,,,,,false,,,,false,917578.200000003,917577.900000006,912244.139,912249.799999997,912260.854,917582.801,4,500,,
trial,html.Screen,10_7_0,2023-11-15T19:56:12.952Z,,,,1,0.0217698886732706,-0.0410870915161425,,false,ll,6353.799000008963,response,-0.878837306607763,0.8462822208455337,-0.9113989020138302,-0.9806817794837708,0.8328116838859094,-0.9600783774768014,low,low,,ISIC_0072173.JPG,9,ISIC_6250970.JPG,152,false,hl,keypress(j),0,false,923936.900000006,923936.6000000089,917566.109,917578.400000006,917582.801,923939.168,4,500,8,
break,html.Screen,10_7_1,2023-11-15T19:56:12.953Z,,,,,,,,,,NaN,,,,,,,,low,low,,,,,,false,,,,false,923937.5,923937.400000006,,923937.1000000089,,923939.168,4,500,,
break_continue,html.Screen,10_7_2,2023-11-15T19:56:12.953Z,,,,,,,,,,NaN,,,,,,,,low,low,,,,,,false,,,,false,923937.900000006,923937.900000006,,923937.700000003,,923939.168,4,500,,
sequence,flow.Sequence,10_7,2023-11-15T19:56:12.954Z,,,,,,,,,,6355.099000005983,completion,,,,,,,low,low,,,,,,false,,,,false,923938.200000003,923937.900000006,917566.109,917578.299999997,917582.801,923939.168,4,500,,
trial,html.Screen,10_8_0,2023-11-15T19:56:17.888Z,,,,1,-0.0134764727102299,-0.0033499036460912,,false,lh,4932.932000008994,response,-0.869932994914832,0.8462822208455337,-0.9113989020138302,0.8880533324432531,0.8328116838859094,-0.9600783774768014,low,high,,ISIC_0009998.JPG,9,ISIC_8617084.JPG,50,false,hl,keypress(j),0,false,928872.1000000089,928872.1000000089,923922.502,923938.299999997,923939.168,928877.446,4,500,9,
break,html.Screen,10_8_1,2023-11-15T19:56:17.888Z,,,,,,,,,,NaN,,,,,,,,low,high,,,,,,false,,,,false,928872.5,928872.400000006,,928872.200000003,,928877.446,4,500,,
break_continue,html.Screen,10_8_2,2023-11-15T19:56:17.888Z,,,,,,,,,,NaN,,,,,,,,low,high,,,,,,false,,,,false,928872.799999997,928872.700000003,,928872.6000000089,,928877.446,4,500,,
sequence,flow.Sequence,10_8,2023-11-15T19:56:17.888Z,,,,,,,,,,4933.532000003033,completion,,,,,,,low,high,,,,,,false,,,,false,928872.799999997,928872.700000003,923922.502,923938.299999997,923939.168,928877.446,4,500,,
trial,html.Screen,10_9_0,2023-11-15T19:56:21.871Z,,,,1,-0.0688801591312476,-0.0185462113313342,,false,lh,3978.3539999970235,response,-0.8413574218540547,0.8462822208455337,-0.9113989020138302,0.6876240243121418,0.8328116838859094,-0.9600783774768014,low,high,,ISIC_0067723.JPG,8,ISIC_6878417.JPG,50,false,hh,keypress(i),0,false,932856,932855.799999997,928860.868,928872.799999997,928877.446,932864.973,4,500,10,
break,html.Screen,10_9_1,2023-11-15T19:56:21.872Z,,,,,,,,,,NaN,,,,,,,,low,high,,,,,,false,,,,false,932856.299999997,932856.200000003,,932856,,932864.973,4,500,,
break_continue,html.Screen,10_9_2,2023-11-15T19:56:21.872Z,,,,,,,,,,NaN,,,,,,,,low,high,,,,,,false,,,,false,932856.5,932856.400000006,,932856.299999997,,932864.973,4,500,,
sequence,flow.Sequence,10_9,2023-11-15T19:56:21.872Z,,,,,,,,,,3978.954000005964,completion,,,,,,,low,high,,,,,,false,,,,false,932856.5,932856.400000006,928860.868,928872.799999997,928877.446,932864.973,4,500,,
trial,html.Screen,10_10_0,2023-11-15T19:56:28.352Z,,,,1,0.063045324701596,-0.0064789751878758,,false,hl,6471.727000002982,response,0.6971413872676647,0.8462822208455337,-0.9113989020138302,-0.9786113496628154,0.8328116838859094,-0.9600783774768014,high,low,,ISIC_5805349.JPG,8,ISIC_8195528.JPG,39,false,lh,keypress(e),0,false,939336.900000006,939336.700000003,932848.063,932856.5,932864.973,939355.462,4,500,11,
break,html.Screen,10_10_1,2023-11-15T19:56:28.353Z,,,,,,,,,,NaN,,,,,,,,high,low,,,,,,false,,,,false,939337.5,939337.299999997,,939337.1000000089,,939355.462,4,500,,
break_continue,html.Screen,10_10_2,2023-11-15T19:56:28.353Z,,,,,,,,,,NaN,,,,,,,,high,low,,,,,,false,,,,false,939337.900000006,939337.799999997,,939337.6000000089,,939355.462,4,500,,
sequence,flow.Sequence,10_10,2023-11-15T19:56:28.353Z,,,,,,,,,,6472.826999997022,completion,,,,,,,high,low,,,,,,false,,,,false,939338,939337.799999997,932848.063,932856.5,932864.973,939355.462,4,500,,
trial,html.Screen,10_11_0,2023-11-15T19:56:35.720Z,,,,1,-0.0533723079251252,-0.0299718727255261,,false,hl,7349.138000008883,response,0.705042352333099,0.8462822208455337,-0.9113989020138302,-0.9127244278050396,0.8328116838859094,-0.9600783774768014,high,low,,ISIC_6562871.JPG,10,ISIC_0787229.JPG,39,false,hh,keypress(i),0,false,946704.700000003,946704.6000000089,939321.359,939338.200000003,939355.462,946711.953,4,500,12,
break,html.Screen,10_11_1,2023-11-15T19:56:35.721Z,,,,,,,,,,NaN,,,,,,,,high,low,,,,,,false,,,,false,946705.299999997,946705.200000003,,946704.900000006,,946711.953,4,500,,
break_continue,html.Screen,10_11_2,2023-11-15T19:56:35.721Z,,,,,,,,,,NaN,,,,,,,,high,low,,,,,,false,,,,false,946705.700000003,946705.5,,946705.299999997,,946711.953,4,500,,
sequence,flow.Sequence,10_11,2023-11-15T19:56:35.721Z,,,,,,,,,,7350.037999999942,completion,,,,,,,high,low,,,,,,false,,,,false,946705.799999997,946705.5,939321.359,939338.1000000089,939355.462,946711.953,4,500,,
trial,html.Screen,10_12_0,2023-11-15T19:56:42.945Z,,,,1,0.0544808612748248,-0.0240487075377862,,false,ll,7217.0470000000205,response,-1.0446431649931565,0.8462822208455337,-0.9113989020138302,-0.7734199165278053,0.8328116838859094,-0.9600783774768014,low,low,,ISIC_4606646.JPG,9,ISIC_1377409.JPG,152,false,hl,keypress(j),0,false,953929.200000003,953929,946695.412,946705.900000006,946711.953,953935.867,4,500,13,
break,html.Screen,10_12_1,2023-11-15T19:56:42.945Z,,,,,,,,,,NaN,,,,,,,,low,low,,,,,,false,,,,false,953929.799999997,953929.700000003,,953929.400000006,,953935.867,4,500,,
break_continue,html.Screen,10_12_2,2023-11-15T19:56:42.946Z,,,,,,,,,,NaN,,,,,,,,low,low,,,,,,false,,,,false,953930.299999997,953930.200000003,,953930,,953935.867,4,500,,
sequence,flow.Sequence,10_12,2023-11-15T19:56:42.946Z,,,,,,,,,,7218.247000003001,completion,,,,,,,low,low,,,,,,false,,,,false,953930.5,953930.200000003,946695.412,946705.799999997,946711.953,953935.867,4,500,,
trial,html.Screen,10_13_0,2023-11-15T19:56:50.976Z,,,,1,-0.0277178575053843,0.0395587463147856,,true,hl,8024.633000000031,response,0.9235571765207048,0.8462822208455337,-0.9113989020138302,-1.0008081653938232,0.8328116838859094,-0.9600783774768014,high,low,,ISIC_0010807.JPG,8,ISIC_8796632.JPG,39,false,hl,keypress(j),0,false,961960.700000003,961960.5,953919.358,953930.6000000089,953935.867,961977.39,4,500,14,
break,html.Screen,10_13_1,2023-11-15T19:56:50.977Z,,,,,,,,,,NaN,,,,,,,,high,low,,,,,,false,,,,false,961961.299999997,961961.200000003,,961960.900000006,,961977.39,4,500,,
break_continue,html.Screen,10_13_2,2023-11-15T19:56:50.977Z,,,,,,,,,,NaN,,,,,,,,high,low,,,,,,false,,,,false,961961.700000003,961961.6000000089,,961961.400000006,,961977.39,4,500,,
sequence,flow.Sequence,10_13,2023-11-15T19:56:50.977Z,,,,,,,,,,8025.733000008971,completion,,,,,,,high,low,,,,,,false,,,,false,961961.900000006,961961.6000000089,953919.358,953930.6000000089,953935.867,961977.39,4,500,,
trial,html.Screen,10_14_0,2023-11-15T19:56:53.505Z,,,,1,-0.0021038737988857,0.0570427519488725,,true,hh,2511.5100000059465,response,0.7411900799632072,0.8462822208455337,-0.9113989020138302,0.6598478563486729,0.8328116838859094,-0.9600783774768014,high,high,,ISIC_3596927.JPG,9,ISIC_0009989.JPG,215,false,hh,keypress(i),0,false,964489,964488.900000006,961960.435,961961.900000006,961977.39,964496.397,4,500,15,
break,html.Screen,10_14_1,2023-11-15T19:56:53.505Z,,,,,,,,,,NaN,,,,,,,,high,high,,,,,,false,,,,false,964489.700000003,964489.5,,964489.299999997,,964496.397,4,500,,
break_continue,html.Screen,10_14_2,2023-11-15T19:56:53.506Z,,,,,,,,,,NaN,,,,,,,,high,high,,,,,,false,,,,false,964490.1000000089,964489.900000006,,964489.799999997,,964496.397,4,500,,
sequence,flow.Sequence,10_14,2023-11-15T19:56:53.506Z,,,,,,,,,,2512.5100000059465,completion,,,,,,,high,high,,,,,,false,,,,false,964490.200000003,964489.900000006,961960.435,961961.900000006,961977.39,964496.397,4,500,,
trial,html.Screen,10_15_0,2023-11-15T19:56:59.968Z,,,,1,0.0651705891246238,-0.0394586219902573,,true,hh,6456.103000000003,response,0.7712007550862314,0.8462822208455337,-0.9113989020138302,0.9604439431322372,0.8328116838859094,-0.9600783774768014,high,high,,ISIC_0013491.JPG,10,ISIC_0062077.JPG,215,false,hh,keypress(i),0,false,970952.700000003,970952.5,964479.854,964490.299999997,964496.397,970969.829,4,500,16,
break,html.Screen,10_15_1,2023-11-15T19:56:59.969Z,,,,,,,,,,NaN,,,,,,,,high,high,,,,,,false,,,,false,970953.299999997,970953.1000000089,,970952.900000006,,970969.829,4,500,,
break_continue,html.Screen,10_15_2,2023-11-15T19:56:59.969Z,,,,,,,,,,NaN,,,,,,,,high,high,,,,,,false,,,,false,970953.700000003,970953.5,,970953.400000006,,970969.829,4,500,,
sequence,flow.Sequence,10_15,2023-11-15T19:56:59.969Z,,,,,,,,,,6457.103000000003,completion,,,,,,,high,high,,,,,,false,,,,false,970953.799999997,970953.5,964479.854,964490.299999997,964496.397,970969.829,4,500,,
trial,html.Screen,10_16_0,2023-11-15T19:57:07.216Z,,,,1,,-0.0264544974620926,,false,lh,7230.470999996993,response,-0.8979276789594874,0.8462822208455337,-0.9113989020138302,0.925374811016654,0.8328116838859094,-0.9600783774768014,low,high,,ISIC_0056991.JPG,9,ISIC_4208361.JPG,50,false,hl,keypress(j),0,false,978200.400000006,978200.299999997,970952.747,970953.900000006,970969.829,978210.125,4,500,17,
break,html.Screen,10_16_1,2023-11-15T19:57:07.216Z,,,,,,,,,,NaN,,,,,,,,low,high,,,,,,false,,,,false,978200.700000003,978200.6000000089,,978200.5,,978210.125,4,500,,
break_continue,html.Screen,10_16_2,2023-11-15T19:57:07.216Z,,,,,,,,,,NaN,,,,,,,,low,high,,,,,,false,,,,false,978200.900000006,978200.799999997,,978200.700000003,,978210.125,4,500,,
sequence,flow.Sequence,10_16,2023-11-15T19:57:07.217Z,,,,,,,,,,7230.970999996993,completion,,,,,,,low,high,,,,,,false,,,,false,978200.900000006,978200.799999997,970952.747,970953.900000006,970969.829,978210.125,4,500,,
trial,html.Screen,10_17_0,2023-11-15T19:57:10.488Z,,,,1,-0.0087912446525382,-0.0619041869188676,,true,hh,3262.2750000059605,response,0.702815065838286,0.8462822208455337,-0.9113989020138302,0.8363670617045607,0.8328116838859094,-0.9600783774768014,high,high,,ISIC_7185913.JPG,9,ISIC_0056710.JPG,215,false,hh,keypress(i),0,false,981472.5,981472.400000006,978193.479,978201.1000000089,978210.125,981480.062,4,500,18,
break,html.Screen,10_17_1,2023-11-15T19:57:10.489Z,,,,,,,,,,NaN,,,,,,,,high,high,,,,,,false,,,,false,981473,981472.900000006,,981472.700000003,,981480.062,4,500,,
break_continue,html.Screen,10_17_2,2023-11-15T19:57:10.489Z,,,,,,,,,,NaN,,,,,,,,high,high,,,,,,false,,,,false,981473.400000006,981473.299999997,,981473.1000000089,,981480.062,4,500,,
sequence,flow.Sequence,10_17,2023-11-15T19:57:10.489Z,,,,,,,,,,3263.1749999970198,completion,,,,,,,high,high,,,,,,false,,,,false,981473.6000000089,981473.299999997,978193.479,978201.1000000089,978210.125,981480.062,4,500,,
trial,html.Screen,10_18_0,2023-11-15T19:57:14.400Z,,,,1,-0.0149482827359613,0.0661630859332833,,true,hh,3904.638000002946,response,0.9789697360622612,0.8462822208455337,-0.9113989020138302,1.0321843200509992,0.8328116838859094,-0.9600783774768014,high,high,,ISIC_6815524.JPG,10,ISIC_0056406.JPG,215,false,hh,keypress(i),0,false,985384.900000006,985384.700000003,981463.555,981473.700000003,981480.062,985400.822,4,500,19,
break,html.Screen,10_18_1,2023-11-15T19:57:14.401Z,,,,,,,,,,NaN,,,,,,,,high,high,,,,,,false,,,,false,985385.400000006,985385.299999997,,985385,,985400.822,4,500,,
break_continue,html.Screen,10_18_2,2023-11-15T19:57:14.401Z,,,,,,,,,,NaN,,,,,,,,high,high,,,,,,false,,,,false,985385.700000003,985385.700000003,,985385.6000000089,,985400.822,4,500,,
sequence,flow.Sequence,10_18,2023-11-15T19:57:14.401Z,,,,,,,,,,3905.638000002946,completion,,,,,,,high,high,,,,,,false,,,,false,985385.900000006,985385.700000003,981463.555,981473.6000000089,981480.062,985400.822,4,500,,
trial,html.Screen,10_19_0,2023-11-15T19:57:20.896Z,,,,1,-0.0565575423757561,-0.0394300226801425,,false,lh,6479.677999999956,response,-0.8277658066009654,0.8462822208455337,-0.9113989020138302,0.7390449930107234,0.8328116838859094,-0.9600783774768014,low,high,,ISIC_0046983.JPG,9,ISIC_0033168.JPG,50,false,ll,keypress(f),0,false,991880.700000003,991880.5,985384.124,985386,985400.822,991890.568,4,500,20,
break,html.Screen,10_19_1,2023-11-15T19:57:20.897Z,,,,,,,,,,NaN,,,,,,,,low,high,,,,,,false,,,,false,991881.200000003,991881,,991880.799999997,,991890.568,4,500,,
break_continue,html.Screen,10_19_2,2023-11-15T19:57:20.897Z,,,,,,,,,,NaN,,,,,,,,low,high,,,,,,false,,,,false,991881.5,991881.400000006,,991881.299999997,,991890.568,4,500,,
sequence,flow.Sequence,10_19,2023-11-15T19:57:20.897Z,,,,,,,,,,6480.578000005917,completion,,,,,,,low,high,,,,,,false,,,,false,991881.700000003,991881.400000006,985384.124,985386,985400.822,991890.568,4,500,,
trial,html.Screen,10_20_0,2023-11-15T19:57:26.696Z,,,,1,-0.0051189696037511,0.0396625911332438,,false,hl,5790.0320000089705,response,0.7037503985239492,0.8462822208455337,-0.9113989020138302,-0.8074292191440532,0.8328116838859094,-0.9600783774768014,high,low,,ISIC_9742891.JPG,8,ISIC_2321671.JPG,39,false,hh,keypress(i),0,false,997680.700000003,997680.6000000089,991873.96,991881.799999997,991890.568,997696.304,4,500,21,
break,html.Screen,10_20_1,2023-11-15T19:57:26.697Z,,,,,,,,,,NaN,,,,,,,,high,low,,,,,,false,,,,false,997681.299999997,997681.200000003,,997680.900000006,,997696.304,4,500,,
break_continue,html.Screen,10_20_2,2023-11-15T19:57:26.697Z,,,,,,,,,,NaN,,,,,,,,high,low,,,,,,false,,,,false,997681.6000000089,997681.5,,997681.400000006,,997696.304,4,500,,
sequence,flow.Sequence,10_20,2023-11-15T19:57:26.697Z,,,,,,,,,,5790.93200000003,completion,,,,,,,high,low,,,,,,false,,,,false,997681.700000003,997681.5,991873.96,991881.799999997,991890.568,997696.304,4,500,,
trial,html.Screen,10_21_0,2023-11-15T19:57:37.690Z,,,,1,-0.009234249673026,-0.0627190878028592,,,,11011.19299999997,timeout,-1.0230514974175424,0.8462822208455337,-0.9113989020138302,-0.9473579617457568,0.8328116838859094,-0.9600783774768014,low,low,,ISIC_0053760.JPG,9,ISIC_0012037.JPG,152,false,,,0,false,1008674.6000000089,1008674.5,997679.846,997681.900000006,997696.304,1008707.497,4,500,22,
break,html.Screen,10_21_1,2023-11-15T19:57:37.691Z,,,,,,,,,,NaN,,,,,,,,low,low,,,,,,false,,,,false,1008675.200000003,1008675,,1008674.799999997,,1008707.497,4,500,,
break_continue,html.Screen,10_21_2,2023-11-15T19:57:37.691Z,,,,,,,,,,NaN,,,,,,,,low,low,,,,,,false,,,,false,1008675.5,1008675.400000006,,1008675.299999997,,1008707.497,4,500,,
sequence,flow.Sequence,10_21,2023-11-15T19:57:37.691Z,,,,,,,,,,10979.096000005957,completion,,,,,,,low,low,,,,,,false,,,,false,1008675.6000000089,1008675.400000006,997679.846,997681.900000006,997696.304,1008707.497,4,500,,
trial,html.Screen,10_22_0,2023-11-15T19:57:41.760Z,,,,1,0.0217698886732706,-0.0410870915161425,,false,lh,4036.9030000059865,response,-0.7668300064246735,0.8462822208455337,-0.9113989020138302,0.7079689798840642,0.8328116838859094,-0.9600783774768014,low,high,,ISIC_0072173.JPG,9,ISIC_0058863.JPG,50,false,ll,keypress(f),0,false,1012744.6000000089,1012744.400000006,1008690.724,1008675.6000000089,1008707.497,1012761.674,4,500,23,
break,html.Screen,10_22_1,2023-11-15T19:57:41.761Z,,,,,,,,,,NaN,,,,,,,,low,high,,,,,,false,,,,false,1012744.900000006,1012744.799999997,,1012744.6000000089,,1012761.674,4,500,,
break_continue,html.Screen,10_22_2,2023-11-15T19:57:41.761Z,,,,,,,,,,NaN,,,,,,,,low,high,,,,,,false,,,,false,1012745,1012745,,1012744.900000006,,1012761.674,4,500,,
sequence,flow.Sequence,10_22,2023-11-15T19:57:41.761Z,,,,,,,,,,4037.503000000026,completion,,,,,,,low,high,,,,,,false,,,,false,1012745.200000003,1012745,1008690.724,1008675.6000000089,1008707.497,1012761.674,4,500,,
trial,html.Screen,10_23_0,2023-11-15T19:57:46.833Z,,,,1,0.0217698886732706,-0.0410870915161425,,true,hh,5055.226000005961,response,0.7659443953145213,0.8462822208455337,-0.9113989020138302,0.8045475801082378,0.8328116838859094,-0.9600783774768014,high,high,,ISIC_0072173.JPG,10,ISIC_0028929.JPG,215,false,hh,keypress(i),0,false,1017817.1000000089,1017816.900000006,1012744.766,1012745.299999997,1012761.674,1017833.241,4,500,24,
break,html.Screen,10_23_1,2023-11-15T19:57:46.834Z,,,,,,,,,,NaN,,,,,,,,high,high,,,,,,false,,,,false,1017817.799999997,1017817.700000003,,1017817.299999997,,1017833.241,4,500,,
break_continue,html.Screen,10_23_2,2023-11-15T19:57:46.834Z,,,,,,,,,,NaN,,,,,,,,high,high,,,,,,false,,,,false,1017818.1000000089,1017818,,1017817.900000006,,1017833.241,4,500,,
sequence,flow.Sequence,10_23,2023-11-15T19:57:46.834Z,,,,,,,,,,5056.326000000001,completion,,,,,,,high,high,,,,,,false,,,,false,1017818.400000006,1017818,1012744.766,1012745.200000003,1012761.674,1017833.241,4,500,,
trial,html.Screen,10_24_0,2023-11-15T19:57:49.632Z,,,,1,-0.0087912446525382,-0.0619041869188676,,false,hl,2783.258999999962,response,0.8200962008791046,0.8462822208455337,-0.9113989020138302,-0.7936051642828523,0.8328116838859094,-0.9600783774768014,high,low,,ISIC_7185913.JPG,8,ISIC_0027031.JPG,39,false,ll,keypress(f),0,false,1020616.700000003,1020616.5,1017816.529,1017818.5,1017833.241,1020619.291,4,500,25,
break,html.Screen,10_24_1,2023-11-15T19:57:49.633Z,,,,,,,,,,NaN,,,,,,,,high,low,,,,,,false,,,,false,1020617.200000003,1020617.1000000089,,1020616.900000006,,1020619.291,4,500,,
break_continue,html.Screen,10_24_2,2023-11-15T19:57:49.633Z,,,,,,,,,,NaN,,,,,,,,high,low,,,,,,false,,,,false,1020617.5,1020617.400000006,,1020617.299999997,,1020619.291,4,500,,
sequence,flow.Sequence,10_24,2023-11-15T19:57:49.633Z,,,,,,,,,,2784.1590000059223,completion,,,,,,,high,low,,,,,,false,,,,false,1020617.6000000089,1020617.400000006,1017816.529,1017818.5,1017833.241,1020619.291,4,500,,
trial,html.Screen,10_25_0,2023-11-15T19:57:53.568Z,,,,1,-0.013431314305098,0.0140597582944232,,false,hl,3933.2090000000317,response,0.7870237732709365,0.8462822208455337,-0.9113989020138302,-0.9172955251119376,0.8328116838859094,-0.9600783774768014,high,low,,ISIC_0069617.JPG,8,ISIC_0057716.JPG,39,false,lh,keypress(e),0,false,1024552.6000000089,1024552.5,1020602.753,1020617.700000003,1020619.291,1024556.525,4,500,26,
break,html.Screen,10_25_1,2023-11-15T19:57:53.569Z,,,,,,,,,,NaN,,,,,,,,high,low,,,,,,false,,,,false,1024553,1024552.900000006,,1024552.700000003,,1024556.525,4,500,,
break_continue,html.Screen,10_25_2,2023-11-15T19:57:53.569Z,,,,,,,,,,NaN,,,,,,,,high,low,,,,,,false,,,,false,1024553.200000003,1024553.1000000089,,1024553,,1024556.525,4,500,,
sequence,flow.Sequence,10_25,2023-11-15T19:57:53.569Z,,,,,,,,,,3933.8090000089724,completion,,,,,,,high,low,,,,,,false,,,,false,1024553.299999997,1024553.1000000089,1020602.753,1020617.700000003,1020619.291,1024556.525,4,500,,
trial,html.Screen,10_26_0,2023-11-15T19:57:59.944Z,,,,1,0.0107854985447517,0.0478010417136109,,true,lh,6371.875000005937,response,-0.9579209317488,0.8462822208455337,-0.9113989020138302,1.0147487101263497,0.8328116838859094,-0.9600783774768014,low,high,,ISIC_0010500.JPG,9,ISIC_8124482.JPG,50,false,lh,keypress(e),0,false,1030928.6000000089,1030928.400000006,1024540.039,1024553.400000006,1024556.525,1030946.797,4,500,27,
break,html.Screen,10_26_1,2023-11-15T19:57:59.945Z,,,,,,,,,,NaN,,,,,,,,low,high,,,,,,false,,,,false,1030929,1030928.900000006,,1030928.700000003,,1030946.797,4,500,,
break_continue,html.Screen,10_26_2,2023-11-15T19:57:59.945Z,,,,,,,,,,NaN,,,,,,,,low,high,,,,,,false,,,,false,1030929.200000003,1030929.1000000089,,1030929.1000000089,,1030946.797,4,500,,
sequence,flow.Sequence,10_26,2023-11-15T19:57:59.945Z,,,,,,,,,,6372.575000008917,completion,,,,,,,low,high,,,,,,false,,,,false,1030929.400000006,1030929.1000000089,1024540.039,1024553.299999997,1024556.525,1030946.797,4,500,,
trial,html.Screen,10_27_0,2023-11-15T19:58:02.617Z,,,,1,0.0217698886732706,-0.0410870915161425,,true,ll,2654.0029999969993,response,-1.0717785279820962,0.8462822208455337,-0.9113989020138302,-1.1267239445830604,0.8328116838859094,-0.9600783774768014,low,low,,ISIC_0072173.JPG,9,ISIC_9948815.JPG,152,false,ll,keypress(f),0,false,1033601,1033600.799999997,1030913.049,1030929.5,1030946.797,1033615.801,4,500,28,
break,html.Screen,10_27_1,2023-11-15T19:58:02.617Z,,,,,,,,,,NaN,,,,,,,,low,low,,,,,,false,,,,false,1033601.6000000089,1033601.6000000089,,1033601.200000003,,1033615.801,4,500,,
break_continue,html.Screen,10_27_2,2023-11-15T19:58:02.618Z,,,,,,,,,,NaN,,,,,,,,low,low,,,,,,false,,,,false,1033602.1000000089,1033602,,1033601.900000006,,1033615.801,4,500,,
sequence,flow.Sequence,10_27,2023-11-15T19:58:02.618Z,,,,,,,,,,2655.2029999999795,completion,,,,,,,low,low,,,,,,false,,,,false,1033602.299999997,1033602,1030913.049,1030929.5,1030946.797,1033615.801,4,500,,
trial,html.Screen,10_28_0,2023-11-15T19:58:06.729Z,,,,1,-0.059471106306043,0.0678292174694111,,false,ll,4096.998999997042,response,-0.8003549678836777,0.8462822208455337,-0.9113989020138302,-0.7922238790731763,0.8328116838859094,-0.9600783774768014,low,low,,ISIC_0015631.JPG,9,ISIC_0028780.JPG,152,false,hh,keypress(i),0,false,1037713.1000000089,1037712.799999997,1033599.134,1033602.5,1033615.801,1037719.75,4,500,29,
break,html.Screen,10_28_1,2023-11-15T19:58:06.730Z,,,,,,,,,,NaN,,,,,,,,low,low,,,,,,false,,,,false,1037713.799999997,1037713.5,,1037713.299999997,,1037719.75,4,500,,
break_continue,html.Screen,10_28_2,2023-11-15T19:58:06.730Z,,,,,,,,,,NaN,,,,,,,,low,low,,,,,,false,,,,false,1037714.200000003,1037714,,1037713.900000006,,1037719.75,4,500,,
sequence,flow.Sequence,10_28,2023-11-15T19:58:06.730Z,,,,,,,,,,4098.199000000022,completion,,,,,,,low,low,,,,,,false,,,,false,1037714.299999997,1037714,1033599.134,1033602.5,1033615.801,1037719.75,4,500,,
trial,html.Screen,10_29_0,2023-11-15T19:58:08.856Z,,,,1,0.0651705891246238,-0.0394586219902573,,true,hh,2120.8500000089407,response,1.007567553886196,0.8462822208455337,-0.9113989020138302,0.9379731610733476,0.8328116838859094,-0.9600783774768014,high,high,,ISIC_0013491.JPG,9,ISIC_0030824.JPG,215,false,hh,keypress(i),0,false,1039840.700000003,1039840.6000000089,1037703.159,1037714.5,1037719.75,1039855.314,4,500,30,
break,html.Screen,10_29_1,2023-11-15T19:58:08.857Z,,,,,,,,,,NaN,,,,,,,,high,high,,,,,,false,,,,false,1039841.299999997,1039841.200000003,,1039840.900000006,,1039855.314,4,500,,
break_continue,html.Screen,10_29_2,2023-11-15T19:58:08.857Z,,,,,,,,,,NaN,,,,,,,,high,high,,,,,,false,,,,false,1039841.6000000089,1039841.6000000089,,1039841.400000006,,1039855.314,4,500,,
sequence,flow.Sequence,10_29,2023-11-15T19:58:08.858Z,,,,,,,,,,2121.8500000089407,completion,,,,,,,high,high,,,,,,false,,,,false,1039841.799999997,1039841.6000000089,1037703.159,1037714.5,1037719.75,1039855.314,4,500,,
trial,html.Screen,10_30_0,2023-11-15T19:58:13.553Z,,,,1,0.0401045651353626,0.053461375824197,,true,hh,4681.485999997007,response,0.9209488961172596,0.8462822208455337,-0.9113989020138302,0.9916011869447884,0.8328116838859094,-0.9600783774768014,high,high,,ISIC_6483504.JPG,8,ISIC_3338629.JPG,215,false,hh,keypress(i),0,false,1044537,1044536.799999997,1039838.491,1039842,1039855.314,1044543.247,4,500,31,
break,html.Screen,10_30_1,2023-11-15T19:58:13.553Z,,,,,,,,,,NaN,,,,,,,,high,high,,,,,,false,,,,false,1044537.5,1044537.400000006,,1044537.200000003,,1044543.247,4,500,,
break_continue,html.Screen,10_30_2,2023-11-15T19:58:13.554Z,,,,,,,,,,NaN,,,,,,,,high,high,,,,,,false,,,,false,1044538,1044537.799999997,,1044537.6000000089,,1044543.247,4,500,,
sequence,flow.Sequence,10_30,2023-11-15T19:58:13.554Z,,,,,,,,,,4682.485999997007,completion,,,,,,,high,high,,,,,,false,,,,false,1044538,1044537.799999997,1039838.491,1039841.900000006,1039855.314,1044543.247,4,500,,
trial,html.Screen,10_31_0,2023-11-15T19:58:17.808Z,,,,1,-0.0087912446525382,-0.0619041869188676,,true,hh,4249.353000008967,response,0.838053327796249,0.8462822208455337,-0.9113989020138302,0.8312425167370745,0.8328116838859094,-0.9600783774768014,high,high,,ISIC_7185913.JPG,9,ISIC_4834687.JPG,215,false,hh,keypress(i),0,false,1048792.700000003,1048792.600000009,1044526.748,1044538.200000003,1044543.247,1048797.421,4,500,32,
break,html.Screen,10_31_1,2023-11-15T19:58:17.809Z,,,,,,,,,,NaN,,,,,,,,high,high,,,,,,false,,,,false,1048793.200000003,1048793.100000009,,1048792.900000006,,1048797.421,4,500,,
break_continue,html.Screen,10_31_2,2023-11-15T19:58:17.809Z,,,,,,,,,,NaN,,,,,,,,high,high,,,,,,false,,,,false,1048793.400000006,1048793.400000006,,1048793.200000003,,1048797.421,4,500,,
sequence,flow.Sequence,10_31,2023-11-15T19:58:17.809Z,,,,,,,,,,4250.1530000059865,completion,,,,,,,high,high,,,,,,false,,,,false,1048793.600000009,1048793.400000006,1044526.748,1044538.200000003,1044543.247,1048797.421,4,500,,
trial,html.Screen,10_32_0,2023-11-15T19:58:23.681Z,,,,1,0.0324770283903853,0.0249968632204382,,true,lh,5867.37899999693,response,-0.7745450008355167,0.8462822208455337,-0.9113989020138302,0.7385127154484312,0.8328116838859094,-0.9600783774768014,low,high,,ISIC_7266462.JPG,8,ISIC_0015401.JPG,50,false,lh,keypress(e),0,false,1054664.900000006,1054664.799999997,1048780.95,1048793.700000003,1048797.421,1054670.012,4,500,33,
break,html.Screen,10_32_1,2023-11-15T19:58:23.681Z,,,,,,,,,,NaN,,,,,,,,low,high,,,,,,false,,,,false,1054665.400000006,1054665.299999997,,1054665.100000009,,1054670.012,4,500,,
break_continue,html.Screen,10_32_2,2023-11-15T19:58:23.682Z,,,,,,,,,,NaN,,,,,,,,low,high,,,,,,false,,,,false,1054665.799999997,1054665.700000003,,1054665.600000009,,1054670.012,4,500,,
sequence,flow.Sequence,10_32,2023-11-15T19:58:23.682Z,,,,,,,,,,5868.279000002891,completion,,,,,,,low,high,,,,,,false,,,,false,1054665.900000006,1054665.700000003,1048780.95,1048793.600000009,1048797.421,1054670.012,4,500,,
trial,html.Screen,10_33_0,2023-11-15T19:58:27.129Z,,,,1,0.0069555338059566,-0.0310100918136373,,true,ll,3442.688000002876,response,-0.8859261802814055,0.8462822208455337,-0.9113989020138302,-0.9191342361964594,0.8328116838859094,-0.9600783774768014,low,low,,ISIC_0011177.JPG,9,ISIC_0029395.JPG,152,false,ll,keypress(f),0,false,1058112.900000006,1058112.700000003,1054653.588,1054666,1054670.012,1058123.467,4,500,34,
break,html.Screen,10_33_1,2023-11-15T19:58:27.129Z,,,,,,,,,,NaN,,,,,,,,low,low,,,,,,false,,,,false,1058113.600000009,1058113.400000006,,1058113.100000009,,1058123.467,4,500,,
break_continue,html.Screen,10_33_2,2023-11-15T19:58:27.130Z,,,,,,,,,,NaN,,,,,,,,low,low,,,,,,false,,,,false,1058114,1058113.900000006,,1058113.700000003,,1058123.467,4,500,,
sequence,flow.Sequence,10_33,2023-11-15T19:58:27.130Z,,,,,,,,,,3443.888000005856,completion,,,,,,,low,low,,,,,,false,,,,false,1058114.100000009,1058113.900000006,1054653.588,1054666,1054670.012,1058123.467,4,500,,
trial,html.Screen,10_34_0,2023-11-15T19:58:30.545Z,,,,1,-0.0362376068089956,-0.047825070846155,,false,lh,3405.6330000089947,response,-0.8541581294181414,0.8462822208455337,-0.9113989020138302,0.7637475587255248,0.8328116838859094,-0.9600783774768014,low,high,,ISIC_6985114.JPG,8,ISIC_0014782.JPG,50,false,ll,keypress(f),0,false,1061529.299999997,1061529.100000009,1058106.876,1058114.299999997,1058123.467,1061543.593,4,500,35,
break,html.Screen,10_34_1,2023-11-15T19:58:30.546Z,,,,,,,,,,NaN,,,,,,,,low,high,,,,,,false,,,,false,1061529.900000006,1061529.700000003,,1061529.5,,1061543.593,4,500,,
break_continue,html.Screen,10_34_2,2023-11-15T19:58:30.546Z,,,,,,,,,,NaN,,,,,,,,low,high,,,,,,false,,,,false,1061530.400000006,1061530.200000003,,1061530.100000009,,1061543.593,4,500,,
sequence,flow.Sequence,10_34,2023-11-15T19:58:30.546Z,,,,,,,,,,3406.7330000030342,completion,,,,,,,low,high,,,,,,false,,,,false,1061530.5,1061530.200000003,1058106.876,1058114.200000003,1058123.467,1061543.593,4,500,,
trial,html.Screen,10_35_0,2023-11-15T19:58:35.424Z,,,,1,-0.0644357632656846,-0.0501167370292348,,false,hh,4864.807000005851,response,0.7379519079139953,0.8462822208455337,-0.9113989020138302,0.953619908523244,0.8328116838859094,-0.9600783774768014,high,high,,ISIC_5207050.JPG,8,ISIC_0011435.JPG,215,false,lh,keypress(e),0,false,1066408.600000009,1066408.400000006,1061526.85,1061530.600000009,1061543.593,1066415.117,4,500,36,
break,html.Screen,10_35_1,2023-11-15T19:58:35.425Z,,,,,,,,,,NaN,,,,,,,,high,high,,,,,,false,,,,false,1066409,1066408.900000006,,1066408.700000003,,1066415.117,4,500,,
break_continue,html.Screen,10_35_2,2023-11-15T19:58:35.425Z,,,,,,,,,,NaN,,,,,,,,high,high,,,,,,false,,,,false,1066409.200000003,1066409.200000003,,1066409,,1066415.117,4,500,,
sequence,flow.Sequence,10_35,2023-11-15T19:58:35.425Z,,,,,,,,,,4865.60700000287,completion,,,,,,,high,high,,,,,,false,,,,false,1066409.299999997,1066409.200000003,1061526.85,1061530.600000009,1061543.593,1066415.117,4,500,,
trial,html.Screen,10_36_0,2023-11-15T19:58:40.512Z,,,,1,0.0593670819812057,-0.0718390543903236,,false,ll,5081.283000005875,response,-0.9449111496440944,0.8462822208455337,-0.9113989020138302,-1.0105459531634893,0.8328116838859094,-0.9600783774768014,low,low,,ISIC_0062367.JPG,9,ISIC_0679494.JPG,152,false,lh,keypress(e),0,false,1071496.5,1071496.400000006,1066398.636,1066409.400000006,1066415.117,1071520.374,4,500,37,
break,html.Screen,10_36_1,2023-11-15T19:58:40.513Z,,,,,,,,,,NaN,,,,,,,,low,low,,,,,,false,,,,false,1071496.799999997,1071496.799999997,,1071496.600000009,,1071520.374,4,500,,
break_continue,html.Screen,10_36_2,2023-11-15T19:58:40.513Z,,,,,,,,,,NaN,,,,,,,,low,low,,,,,,false,,,,false,1071497,1071497,,1071496.900000006,,1071520.374,4,500,,
sequence,flow.Sequence,10_36,2023-11-15T19:58:40.513Z,,,,,,,,,,5081.882999999914,completion,,,,,,,low,low,,,,,,false,,,,false,1071497.100000009,1071497,1066398.636,1066409.400000006,1066415.117,1071520.374,4,500,,
trial,html.Screen,10_37_0,2023-11-15T19:58:47.113Z,,,,1,0.0107854985447517,0.0478010417136109,,false,hh,6576.026000005892,response,0.8194854900264492,0.8462822208455337,-0.9113989020138302,0.6692142775378676,0.8328116838859094,-0.9600783774768014,high,high,,ISIC_0010500.JPG,9,ISIC_0009488.JPG,215,false,hl,keypress(j),0,false,1078096.600000009,1078096.400000006,1071503.555,1071497.200000003,1071520.374,1078110.204,4,500,38,
break,html.Screen,10_37_1,2023-11-15T19:58:47.113Z,,,,,,,,,,NaN,,,,,,,,high,high,,,,,,false,,,,false,1078097,1078096.900000006,,1078096.700000003,,1078110.204,4,500,,
break_continue,html.Screen,10_37_2,2023-11-15T19:58:47.113Z,,,,,,,,,,NaN,,,,,,,,high,high,,,,,,false,,,,false,1078097.200000003,1078097.100000009,,1078097,,1078110.204,4,500,,
