sender,sender_type,sender_id,timestamp,meta,,age,blockNo,c1,c2,condition,correct,correctResponse,duration,ended_on,f1,f1_high,f1_low,f2,f2_high,f2_low,feature_level1,feature_level2,gender,img_left,img_reveal,img_right,n_target_images,practice,response,response_action,selection_duration,staircase,time_commit,time_end,time_render,time_run,time_show,time_switch,total_blocks,total_trials,trialNo,url
informed_consent,html.Screen,0,2023-11-15T19:40:07.946Z,"{""labjs_version"":""20.2.4"",""labjs_build"":{""flavor"":""development"",""commit"":""f5b4a49f956347addd546a832a3327688c2c0fef""},""location"":""https://labjs.felixhenninger.com/api/labjs_preview/index.html"",""userAgent"":""Mozilla/5.0 (Windows NT 10.0; Win64; x64) AppleWebKit/537.36 (KHTML, like Gecko) Chrome/119.0.0.0 Safari/537.36"",""platform"":""Win32"",""language"":""en-US"",""locale"":""en-US"",""timeZone"":""America/Chicago"",""timezoneOffset"":360,""screen_width"":1920,""screen_height"":1080,""scroll_width"":945,""scroll_height"":918,""window_innerWidth"":945,""window_innerHeight"":966,""devicePixelRatio"":1}",,,,,,,,,10482.41500000596,response,,,,,,,,,,,,,,,consent,click button,,,11157.10000000894,11148.40000000596,649.377,634.4000000059605,665.985,11166.058,,,,{}
Demography form,html.Form,1,2023-11-15T19:40:13.115Z,,,18,,,,,,,5159.441999999999,form submission,,,,,,,,,female,,,,,,,,,,16325.70000000298,16325.5,11149.27,11157.29999999702,11166.058,16349.364,,,,
Welcome,html.Screen,2,2023-11-15T19:40:23.074Z,,,,,,,"[""bor"",""col""]",,,9935.136,response,,,,,,,,,,,,,,,continue,click button,,,26285.10000000894,26284.5,16332.716,16325.70000000298,16349.364,26299.413,,,,
demo_instructions,html.Screen,3,2023-11-15T19:40:52.650Z,,,,,,,,,,29560.88699999702,response,,,,,,,,,,,,,,,continue,click button,,,55860.90000000596,55860.29999999702,26282.628,26285.20000000298,26299.413,55865.821,,,,
trial,html.Screen,4_0_0,2023-11-15T19:41:03.285Z,,,,0,0.9752130063130028,-0.7248550908059443,,true,lh,10629.978999997016,response,-0.8830264383952469,0.8999999999999997,-0.8999999999999997,0.8635562538060516,0.8999999999999997,-0.8999999999999997,low,high,,ISIC_5190484.JPG,,ISIC_0032258.JPG,29,true,lh,keypress(e),100,false,66496,66495.79999999702,55849.378,55861,55865.821,66515.969,1,16,1,
sequence,flow.Sequence,4_0,2023-11-15T19:41:03.286Z,,,,,,,,,,10629.978999997016,completion,,,,,,,low,high,,,,,,true,,,,false,66496.29999999702,66495.79999999702,55849.378,55861,55865.821,66515.969,1,16,,
trial,html.Screen,4_1_0,2023-11-15T19:41:16.060Z,,,,0,0.7856143618373893,-1.0273608829432213,,true,lh,12754.731000002983,response,-0.8926515927689261,0.8999999999999997,-0.8999999999999997,0.7935960767768927,0.8999999999999997,-0.8999999999999997,low,high,,ISIC_9303849.JPG,,ISIC_8901371.JPG,29,true,lh,keypress(e),100,false,79271,79270.70000000298,66499.11,66496.40000000596,66515.969,79299.118,1,16,2,
sequence,flow.Sequence,4_1,2023-11-15T19:41:16.061Z,,,,,,,,,,12754.731000002983,completion,,,,,,,low,high,,,,,,true,,,,false,79271.20000000298,79270.70000000298,66499.11,66496.40000000596,66515.969,79299.118,1,16,,
trial,html.Screen,4_2_0,2023-11-15T19:41:41.746Z,,,,0,0.8500530224490773,-1.0893360711742854,,true,lh,25656.881999999998,response,-0.7411887874358276,0.8999999999999997,-0.8999999999999997,0.7869222465141029,0.8999999999999997,-0.8999999999999997,low,high,,ISIC_2998367.JPG,,ISIC_6255113.JPG,29,true,lh,keypress(e),100,false,104956.29999999702,104956,79282.642,79271.40000000596,79299.118,104982.366,1,16,3,
sequence,flow.Sequence,4_2,2023-11-15T19:41:41.747Z,,,,,,,,,,25656.881999999998,completion,,,,,,,low,high,,,,,,true,,,,false,104956.90000000596,104956,79282.642,79271.29999999702,79299.118,104982.366,1,16,,
trial,html.Screen,4_3_0,2023-11-15T19:41:44.269Z,,,,0,0.9198276163642348,-0.7754915110667046,,true,lh,2496.234000008946,response,-0.8034318937720549,0.8999999999999997,-0.8999999999999997,1.0024917298189338,0.8999999999999997,-0.8999999999999997,low,high,,ISIC_7840728.JPG,,ISIC_0032766.JPG,29,true,lh,keypress(e),100,false,107478.90000000596,107478.60000000894,104965.712,104957.10000000894,104982.366,107499.3,1,16,4,
sequence,flow.Sequence,4_3,2023-11-15T19:41:44.270Z,,,,,,,,,,2496.234000008946,completion,,,,,,,low,high,,,,,,true,,,,false,107479.40000000596,107478.60000000894,104965.712,104957,104982.366,107499.3,1,16,,
trial,html.Screen,4_4_0,2023-11-15T19:41:47.925Z,,,,0,0.7770513300237836,0.912069987718464,,false,ll,3635.699999999997,response,-0.8115434332647807,0.8999999999999997,-0.8999999999999997,-0.7797153835685641,0.8999999999999997,-0.8999999999999997,low,low,,ISIC_0030852.JPG,,ISIC_7300631.JPG,169,true,lh,keypress(e),100,false,111135.29999999702,111135,107482.381,107479.60000000894,107499.3,111165.756,1,16,5,
sequence,flow.Sequence,4_4,2023-11-15T19:41:47.926Z,,,,,,,,,,3635.699999999997,completion,,,,,,,low,low,,,,,,true,,,,false,111135.90000000596,111135,107482.381,107479.60000000894,107499.3,111165.756,1,16,,
trial,html.Screen,4_5_0,2023-11-15T19:42:00.449Z,,,,0,0.7163172724844169,0.9833297148698538,,true,ll,12492.344000008947,response,-0.7745726760243283,0.8999999999999997,-0.8999999999999997,-0.7707329634201495,0.8999999999999997,-0.8999999999999997,low,low,,ISIC_5156491.JPG,,ISIC_0027088.JPG,169,true,ll,keypress(f),100,false,123658.5,123658.10000000894,111149.282,111136.10000000894,111165.756,123682.34,1,16,6,
sequence,flow.Sequence,4_5,2023-11-15T19:42:00.449Z,,,,,,,,,,12492.344000008947,completion,,,,,,,low,low,,,,,,true,,,,false,123659,123658.10000000894,111149.282,111136,111165.756,123682.34,1,16,,
trial,html.Screen,4_6_0,2023-11-15T19:42:05.820Z,,,,0,0.7197447395657519,0.7733754114250216,,true,ll,5347.060000005964,response,-0.7219685980249753,0.8999999999999997,-0.8999999999999997,-0.7438741898546176,0.8999999999999997,-0.8999999999999997,low,low,,ISIC_0011529.JPG,,ISIC_4212044.JPG,169,true,ll,keypress(f),100,false,129029.70000000298,129029.40000000596,123665.676,123659.20000000298,123682.34,129049.199,1,16,7,
sequence,flow.Sequence,4_6,2023-11-15T19:42:05.820Z,,,,,,,,,,5347.060000005964,completion,,,,,,,low,low,,,,,,true,,,,false,129030.29999999702,129029.40000000596,123665.676,123659.20000000298,123682.34,129049.199,1,16,,
trial,html.Screen,4_7_0,2023-11-15T19:42:10.232Z,,,,0,0.8351262413411394,0.7640141718413127,,true,ll,4392.301000000007,response,-1.0058354021163274,0.8999999999999997,-0.8999999999999997,-0.8916720716393026,0.8999999999999997,-0.8999999999999997,low,low,,ISIC_0029363.JPG,,ISIC_5581936.JPG,169,true,ll,keypress(f),100,false,133441.90000000596,133441.5,129032.374,129030.5,129049.199,133465.865,1,16,8,
sequence,flow.Sequence,4_7,2023-11-15T19:42:10.233Z,,,,,,,,,,4392.301000000007,completion,,,,,,,low,low,,,,,,true,,,,false,133442.5,133441.5,129032.374,129030.40000000596,129049.199,133465.865,1,16,,
trial,html.Screen,4_8_0,2023-11-15T19:42:16.387Z,,,,0,-0.930804711032185,0.7294067991476295,,true,hl,6130.73500000895,response,1.0685314915436992,0.8999999999999997,-0.8999999999999997,-0.8203833713472237,0.8999999999999997,-0.8999999999999997,high,low,,ISIC_5067317.JPG,,ISIC_0029374.JPG,43,true,hl,keypress(j),100,false,139596.70000000298,139596.60000000894,133448.983,133442.60000000894,133465.865,139615.554,1,16,9,
sequence,flow.Sequence,4_8,2023-11-15T19:42:16.387Z,,,,,,,,,,6130.73500000895,completion,,,,,,,high,low,,,,,,true,,,,false,139596.90000000596,139596.60000000894,133448.983,133442.60000000894,133465.865,139615.554,1,16,,
trial,html.Screen,4_9_0,2023-11-15T19:42:22.409Z,,,,0,-0.8954803463300026,0.7071819047913821,,true,hl,6002.745999997016,response,0.7438008784971919,0.8999999999999997,-0.8999999999999997,-0.7701607600068142,0.8999999999999997,-0.8999999999999997,high,low,,ISIC_0033071.JPG,,ISIC_8493108.JPG,43,true,hl,keypress(j),100,false,145618.60000000894,145618.29999999702,139598.893,139597,139615.554,145649.134,1,16,10,
sequence,flow.Sequence,4_9,2023-11-15T19:42:22.409Z,,,,,,,,,,6002.745999997016,completion,,,,,,,high,low,,,,,,true,,,,false,145619.20000000298,145618.29999999702,139598.893,139596.90000000596,139615.554,145649.134,1,16,,
trial,html.Screen,4_10_0,2023-11-15T19:42:35.570Z,,,,0,-0.7088606387153258,0.948610930521224,,true,hl,13130.26600000597,response,0.7692916291112835,0.8999999999999997,-0.8999999999999997,-0.7818604706992622,0.8999999999999997,-0.8999999999999997,high,low,,ISIC_0026293.JPG,,ISIC_7844825.JPG,43,true,hl,keypress(j),100,false,158779.79999999702,158779.40000000596,145632.47,145619.5,145649.134,158798.975,1,16,11,
sequence,flow.Sequence,4_10,2023-11-15T19:42:35.571Z,,,,,,,,,,13130.26600000597,completion,,,,,,,high,low,,,,,,true,,,,false,158780.40000000596,158779.40000000596,145632.47,145619.40000000596,145649.134,158798.975,1,16,,
trial,html.Screen,4_11_0,2023-11-15T19:42:43.853Z,,,,0,-0.7088606387153258,0.948610930521224,,true,hl,8263.225000002974,response,0.8867328775712738,0.8999999999999997,-0.8999999999999997,-1.0063426986460375,0.8999999999999997,-0.8999999999999997,high,low,,ISIC_0026293.JPG,,ISIC_0055759.JPG,43,true,hl,keypress(j),100,false,167062.60000000894,167062.20000000298,158782.28,158780.70000000298,158798.975,167082.296,1,16,12,
sequence,flow.Sequence,4_11,2023-11-15T19:42:43.854Z,,,,,,,,,,8263.225000002974,completion,,,,,,,high,low,,,,,,true,,,,false,167063.29999999702,167062.20000000298,158782.28,158780.60000000894,158798.975,167082.296,1,16,,
trial,html.Screen,4_12_0,2023-11-15T19:42:47.209Z,,,,0,-0.8571747957352402,-0.9896604996768869,,true,hh,3336.0039999970177,response,0.9712921601561192,0.8999999999999997,-0.8999999999999997,1.08279751862979,0.8999999999999997,-0.8999999999999997,high,high,,ISIC_5363229.JPG,,ISIC_4049598.JPG,184,true,hh,keypress(i),100,false,170418.60000000894,170418.29999999702,167065.554,167063.5,167082.296,170448.807,1,16,13,
sequence,flow.Sequence,4_12,2023-11-15T19:42:47.209Z,,,,,,,,,,3336.0039999970177,completion,,,,,,,high,high,,,,,,true,,,,false,170418.90000000596,170418.29999999702,167065.554,167063.5,167082.296,170448.807,1,16,,
trial,html.Screen,4_13_0,2023-11-15T19:43:07.762Z,,,,0,-0.904926943774141,-0.8630923941752319,,true,hh,20522.49299999702,response,0.8824429342294199,0.8999999999999997,-0.8999999999999997,0.8627090057984027,0.8999999999999997,-0.8999999999999997,high,high,,ISIC_4573624.JPG,,ISIC_0015193.JPG,184,true,hh,keypress(i),100,false,190971.60000000894,190971.29999999702,170432.422,170419.20000000298,170448.807,190999.019,1,16,14,
sequence,flow.Sequence,4_13,2023-11-15T19:43:07.763Z,,,,,,,,,,20522.49299999702,completion,,,,,,,high,high,,,,,,true,,,,false,190972.40000000596,190971.29999999702,170432.422,170419.20000000298,170448.807,190999.019,1,16,,
trial,html.Screen,4_14_0,2023-11-15T19:43:11.934Z,,,,0,-0.7146913032816444,-0.9241960109301964,,false,hh,4144.481,response,0.8179322126045343,0.8999999999999997,-0.8999999999999997,0.9445915945560848,0.8999999999999997,-0.8999999999999997,high,high,,ISIC_0000297.JPG,,ISIC_0056364.JPG,184,true,hl,keypress(j),100,false,195143.79999999702,195143.5,190982.171,190972.60000000894,190999.019,195165.416,1,16,15,
sequence,flow.Sequence,4_14,2023-11-15T19:43:11.935Z,,,,,,,,,,4144.481,completion,,,,,,,high,high,,,,,,true,,,,false,195144.40000000596,195143.5,190982.171,190972.60000000894,190999.019,195165.416,1,16,,
trial,html.Screen,4_15_0,2023-11-15T19:43:14.649Z,,,,0,-0.8379442136072591,-0.8260692529258827,,true,hh,2692.6840000089433,response,0.778047987566092,0.8999999999999997,-0.8999999999999997,0.9219271880931648,0.8999999999999997,-0.8999999999999997,high,high,,ISIC_0013213.JPG,,ISIC_1499915.JPG,184,true,hh,keypress(i),100,false,197858.5,197858.10000000894,195148.795,195144.70000000298,195165.416,197882.099,1,16,16,
sequence,flow.Sequence,4_15,2023-11-15T19:43:14.649Z,,,,,,,,,,2692.6840000089433,completion,,,,,,,high,high,,,,,,true,,,,false,197859.10000000894,197858.10000000894,195148.795,195144.60000000894,195165.416,197882.099,1,16,,
demonstration_loop,flow.Loop,4,2023-11-15T19:43:14.650Z,,,,,,,,,,141992.27900000894,completion,,,,,,,,,,,,,,true,,,,false,197859.40000000596,197858.10000000894,55849.378,55861,55865.821,197882.099,1,16,,
practice_instructions,html.Screen,5,2023-11-15T19:43:18.419Z,,,,,,,,,,3746.0010000089533,response,,,,,,,,,,,,,,,continue,click button,,,201628.60000000894,201628.10000000894,197865.517,197859.60000000894,197882.099,201632.081,,,,
trial,html.Screen,6_0_0,2023-11-15T19:43:28.726Z,,,,1,0.7424405016223469,1.0380243219568084,,false,ll,10303.418999999994,response,-1.0852045470239868,0.8999999999999997,-0.8999999999999997,-0.8198446376049053,0.8999999999999997,-0.8999999999999997,low,low,,ISIC_0068950.JPG,,ISIC_1805921.JPG,169,true,hl,keypress(j),0,false,211935.90000000596,211935.5,201615.672,201628.90000000596,201632.081,211965.655,1,40,1,
sequence,flow.Sequence,6_0,2023-11-15T19:43:28.727Z,,,,,,,,,,10303.418999999994,completion,,,,,,,low,low,,,,,,true,,,,false,211936.29999999702,211935.5,201615.672,201628.79999999702,201632.081,211965.655,1,40,,
trial,html.Screen,6_1_0,2023-11-15T19:43:35.211Z,,,,1,-0.8583713655302294,-0.865522810053245,,true,hh,6455.245000005962,response,0.9665123004833394,0.8999999999999997,-0.8999999999999997,1.0732323917096356,0.8999999999999997,-0.8999999999999997,high,high,,ISIC_4320200.JPG,,ISIC_3684488.JPG,184,true,hh,keypress(i),0,false,218420.90000000596,218420.90000000596,211948.763,211936.60000000894,211965.655,218432.017,1,40,2,
sequence,flow.Sequence,6_1,2023-11-15T19:43:35.211Z,,,,,,,,,,6455.245000005962,completion,,,,,,,high,high,,,,,,true,,,,false,218421,218420.90000000596,211948.763,211936.60000000894,211965.655,218432.017,1,40,,
trial,html.Screen,6_2_0,2023-11-15T19:43:38.813Z,,,,1,-0.7109511223219827,-0.9096646508167132,,false,hh,3590.1830000029877,response,0.8010128234618513,0.8999999999999997,-0.8999999999999997,0.9031251164933652,0.8999999999999997,-0.8999999999999997,high,high,,ISIC_3770380.JPG,,ISIC_0058768.JPG,184,true,hl,keypress(j),0,false,222022.60000000894,222022.20000000298,218415.286,218421.10000000894,218432.017,222031.999,1,40,3,
sequence,flow.Sequence,6_2,2023-11-15T19:43:38.813Z,,,,,,,,,,3590.1830000029877,completion,,,,,,,high,high,,,,,,true,,,,false,222023,222022.20000000298,218415.286,218421.10000000894,218432.017,222031.999,1,40,,
trial,html.Screen,6_3_0,2023-11-15T19:43:44.197Z,,,,1,1.0116417541846066,-1.033442916947398,,false,lh,5374.2010000029695,response,-0.84290786638064,0.8999999999999997,-0.8999999999999997,0.7332521189371746,0.8999999999999997,-0.8999999999999997,low,high,,ISIC_0031389.JPG,,ISIC_4708642.JPG,29,true,hl,keypress(j),0,false,227406.5,227406.20000000298,222015.439,222023.20000000298,222031.999,227415.33,1,40,4,
sequence,flow.Sequence,6_3,2023-11-15T19:43:44.197Z,,,,,,,,,,5374.2010000029695,completion,,,,,,,low,high,,,,,,true,,,,false,227406.79999999702,227406.20000000298,222015.439,222023.10000000894,222031.999,227415.33,1,40,,
trial,html.Screen,6_4_0,2023-11-15T19:43:48.101Z,,,,1,0.7461766562126003,0.9163054072963652,,false,ll,3894.870000002993,response,-0.9402130139680346,0.8999999999999997,-0.8999999999999997,-0.7812904751512695,0.8999999999999997,-0.8999999999999997,low,low,,ISIC_0012070.JPG,,ISIC_8956001.JPG,169,true,hl,keypress(j),0,false,231310.5,231310.20000000298,227398.723,227407.10000000894,227415.33,231315.323,1,40,5,
sequence,flow.Sequence,6_4,2023-11-15T19:43:48.101Z,,,,,,,,,,3894.870000002993,completion,,,,,,,low,low,,,,,,true,,,,false,231310.90000000596,231310.20000000298,227398.723,227407,227415.33,231315.323,1,40,,
trial,html.Screen,6_5_0,2023-11-15T19:43:55.846Z,,,,1,1.0172828675249892,0.7195583354712407,,true,ll,7739.877000002976,response,-0.7146913032816444,0.8999999999999997,-0.8999999999999997,-0.9241960109301964,0.8999999999999997,-0.8999999999999997,low,low,,ISIC_0033696.JPG,,ISIC_0000297.JPG,169,true,ll,keypress(f),0,false,239055.5,239055.20000000298,231298.696,231311,231315.323,239065.284,1,40,6,
sequence,flow.Sequence,6_5,2023-11-15T19:43:55.846Z,,,,,,,,,,7739.877000002976,completion,,,,,,,low,low,,,,,,true,,,,false,239055.90000000596,239055.20000000298,231298.696,231311,231315.323,239065.284,1,40,,
trial,html.Screen,6_6_0,2023-11-15T19:44:00.157Z,,,,1,0.7714570894008278,-0.9113656554657036,,false,lh,4300.715999999986,response,-0.7882758084023446,0.8999999999999997,-0.8999999999999997,0.8296405881378283,0.8999999999999997,-0.8999999999999997,low,high,,ISIC_4529092.JPG,,ISIC_0065882.JPG,29,true,hl,keypress(j),0,false,243366.29999999702,243366,239048.636,239056.10000000894,239065.284,243382.2,1,40,7,
sequence,flow.Sequence,6_6,2023-11-15T19:44:00.157Z,,,,,,,,,,4300.715999999986,completion,,,,,,,low,high,,,,,,true,,,,false,243366.70000000298,243366,239048.636,239056,239065.284,243382.2,1,40,,
trial,html.Screen,6_7_0,2023-11-15T19:44:09.292Z,,,,1,1.0685314915436992,-0.8203833713472237,,false,lh,9118.799999999988,response,-1.058275612142778,0.8999999999999997,-0.8999999999999997,0.7824898568540655,0.8999999999999997,-0.8999999999999997,low,high,,ISIC_0029374.JPG,,ISIC_4906385.JPG,29,true,ll,keypress(f),0,false,252501.10000000894,252501,243365.174,243366.90000000596,243382.2,252515.356,1,40,8,
sequence,flow.Sequence,6_7,2023-11-15T19:44:09.292Z,,,,,,,,,,9118.799999999988,completion,,,,,,,low,high,,,,,,true,,,,false,252501.29999999702,252501,243365.174,243366.90000000596,243382.2,252515.356,1,40,,
trial,html.Screen,6_8_0,2023-11-15T19:44:13.101Z,,,,1,-0.7088606387153258,0.948610930521224,,false,hl,3794.6440000000002,response,1.0116417541846066,0.8999999999999997,-0.8999999999999997,-1.033442916947398,0.8999999999999997,-0.8999999999999997,high,low,,ISIC_0026293.JPG,,ISIC_0031389.JPG,43,true,hh,keypress(i),0,false,256310.29999999702,256310,252498.382,252501.29999999702,252515.356,256315.257,1,40,9,
sequence,flow.Sequence,6_8,2023-11-15T19:44:13.101Z,,,,,,,,,,3794.6440000000002,completion,,,,,,,high,low,,,,,,true,,,,false,256310.79999999702,256310,252498.382,252501.29999999702,252515.356,256315.257,1,40,,
trial,html.Screen,6_9_0,2023-11-15T19:44:16.284Z,,,,1,-0.8816924904060719,-0.7462463164673511,,false,hh,3178.3430000089284,response,1.0028306951898116,0.8999999999999997,-0.8999999999999997,0.8421248340065566,0.8999999999999997,-0.8999999999999997,high,high,,ISIC_8152423.JPG,,ISIC_0026531.JPG,184,true,hl,keypress(j),0,false,259493.70000000298,259493.60000000894,256298.755,256310.90000000596,256315.257,259498.64,1,40,10,
sequence,flow.Sequence,6_9,2023-11-15T19:44:16.284Z,,,,,,,,,,3178.3430000089284,completion,,,,,,,high,high,,,,,,true,,,,false,259493.79999999702,259493.60000000894,256298.755,256310.79999999702,256315.257,259498.64,1,40,,
trial,html.Screen,6_10_0,2023-11-15T19:44:27.274Z,,,,1,-0.8110121381849364,0.7563142141851558,,,,11016.783999999985,timeout,0.7468466922606799,0.8999999999999997,-0.8999999999999997,-0.7486692996330936,0.8999999999999997,-0.8999999999999997,high,low,,ISIC_0033605.JPG,,ISIC_0025508.JPG,43,true,,,0,false,270483,270482.700000003,259482.074,259493.79999999702,259498.64,270515.424,1,40,11,
sequence,flow.Sequence,6_10,2023-11-15T19:44:27.274Z,,,,,,,,,,10984.060000002966,completion,,,,,,,high,low,,,,,,true,,,,false,270483.40000000596,270482.700000003,259482.074,259493.79999999702,259498.64,270515.424,1,40,,
trial,html.Screen,6_11_0,2023-11-15T19:44:29.732Z,,,,1,-0.8513427412482127,0.9295303568095064,,true,hl,2425.576000000001,response,0.9089402323867112,0.8999999999999997,-0.8999999999999997,-0.8034544077281132,0.8999999999999997,-0.8999999999999997,high,low,,ISIC_0034164.JPG,,ISIC_3585381.JPG,43,true,hl,keypress(j),0,false,272941.200000003,272941,270498.585,270483.60000000894,270515.424,272948.56,1,40,12,
sequence,flow.Sequence,6_11,2023-11-15T19:44:29.732Z,,,,,,,,,,2425.576000000001,completion,,,,,,,high,low,,,,,,true,,,,false,272941.200000003,272941,270498.585,270483.5,270515.424,272948.56,1,40,,
trial,html.Screen,6_12_0,2023-11-15T19:44:34.701Z,,,,1,0.8642861042532918,0.7071725768452852,,true,ll,4961.640000002983,response,-0.8086813973201046,0.8999999999999997,-0.8999999999999997,-0.8107888307699666,0.8999999999999997,-0.8999999999999997,low,low,,ISIC_0011315.JPG,,ISIC_3013468.JPG,169,true,ll,keypress(f),0,false,277910.40000000596,277910.200000003,272931.904,272941.299999997,272948.56,277915.279,1,40,13,
sequence,flow.Sequence,6_12,2023-11-15T19:44:34.701Z,,,,,,,,,,4961.640000002983,completion,,,,,,,low,low,,,,,,true,,,,false,277910.799999997,277910.200000003,272931.904,272941.299999997,272948.56,277915.279,1,40,,
trial,html.Screen,6_13_0,2023-11-15T19:44:38.757Z,,,,1,0.7305475296009624,-0.7442779237098178,,false,lh,4050.5209999970393,response,-0.8926515927689261,0.8999999999999997,-0.8999999999999997,0.7935960767768927,0.8999999999999997,-0.8999999999999997,low,high,,ISIC_7266604.JPG,,ISIC_8901371.JPG,29,true,hl,keypress(j),0,false,281966,281965.799999997,277898.618,277911,277915.279,281982.087,1,40,14,
sequence,flow.Sequence,6_13,2023-11-15T19:44:38.757Z,,,,,,,,,,4050.5209999970393,completion,,,,,,,low,high,,,,,,true,,,,false,281966.40000000596,281965.799999997,277898.618,277911,277915.279,281982.087,1,40,,
trial,html.Screen,6_14_0,2023-11-15T19:44:42.708Z,,,,1,-0.7246771568562105,0.9161385080362604,,false,hl,3935.013000008941,response,0.7723423895392068,0.8999999999999997,-0.8999999999999997,-0.7630051745722757,0.8999999999999997,-0.8999999999999997,high,low,,ISIC_0028225.JPG,,ISIC_9694911.JPG,43,true,ll,keypress(f),0,false,285917.200000003,285917.10000000894,281965.381,281966.5,281982.087,285932.061,1,40,15,
sequence,flow.Sequence,6_14,2023-11-15T19:44:42.708Z,,,,,,,,,,3935.013000008941,completion,,,,,,,high,low,,,,,,true,,,,false,285917.299999997,285917.10000000894,281965.381,281966.5,281982.087,285932.061,1,40,,
trial,html.Screen,6_15_0,2023-11-15T19:44:47.764Z,,,,1,-0.9237241143561707,0.7102087839245512,,false,hl,5040.8390000059735,response,0.7438008784971919,0.8999999999999997,-0.8999999999999997,-0.7701607600068142,0.8999999999999997,-0.8999999999999997,high,low,,ISIC_0058661.JPG,,ISIC_8493108.JPG,43,true,hh,keypress(i),0,false,290973,290972.90000000596,285915.073,285917.40000000596,285932.061,290981.906,1,40,16,
sequence,flow.Sequence,6_15,2023-11-15T19:44:47.764Z,,,,,,,,,,5040.8390000059735,completion,,,,,,,high,low,,,,,,true,,,,false,290973.10000000894,290972.90000000596,285915.073,285917.40000000596,285932.061,290981.906,1,40,,
trial,html.Screen,6_16_0,2023-11-15T19:44:52.470Z,,,,1,0.9244148283103414,-0.9712966348713286,,false,lh,4696.994000005943,response,-0.989300717252516,0.8999999999999997,-0.8999999999999997,0.7908280206937478,0.8999999999999997,-0.8999999999999997,low,high,,ISIC_7927525.JPG,,ISIC_6416533.JPG,29,true,hl,keypress(j),0,false,295679.10000000894,295678.90000000596,290965.114,290973.10000000894,290981.906,295681.884,1,40,17,
sequence,flow.Sequence,6_16,2023-11-15T19:44:52.470Z,,,,,,,,,,4696.994000005943,completion,,,,,,,low,high,,,,,,true,,,,false,295679.5,295678.90000000596,290965.114,290973.10000000894,290981.906,295681.884,1,40,,
trial,html.Screen,6_17_0,2023-11-15T19:44:57.485Z,,,,1,0.7856143618373893,-1.0273608829432213,,false,lh,5011.81600000296,response,-0.7088606387153258,0.8999999999999997,-0.8999999999999997,0.948610930521224,0.8999999999999997,-0.8999999999999997,low,high,,ISIC_9303849.JPG,,ISIC_0026293.JPG,29,true,hl,keypress(j),0,false,300694,300693.700000003,295665.04,295679.700000003,295681.884,300698.531,1,40,18,
sequence,flow.Sequence,6_17,2023-11-15T19:44:57.485Z,,,,,,,,,,5011.81600000296,completion,,,,,,,low,high,,,,,,true,,,,false,300694.200000003,300693.700000003,295665.04,295679.60000000894,295681.884,300698.531,1,40,,
trial,html.Screen,6_18_0,2023-11-15T19:45:01.221Z,,,,1,-0.9381357191664412,-0.7568873197636701,,true,hh,3731.3690000059432,response,0.8110369560965408,0.8999999999999997,-0.8999999999999997,0.7091309063434607,0.8999999999999997,-0.8999999999999997,high,high,,ISIC_9808863.JPG,,ISIC_0030901.JPG,184,true,hh,keypress(i),0,false,304430.200000003,304429.90000000596,300681.914,300694.299999997,300698.531,304449.023,1,40,19,
sequence,flow.Sequence,6_18,2023-11-15T19:45:01.221Z,,,,,,,,,,3731.3690000059432,completion,,,,,,,high,high,,,,,,true,,,,false,304430.60000000894,304429.90000000596,300681.914,300694.299999997,300698.531,304449.023,1,40,,
trial,html.Screen,6_19_0,2023-11-15T19:45:03.924Z,,,,1,-0.8034318937720549,1.0024917298189338,,true,hl,2684.077000008954,response,0.9111352818043872,0.8999999999999997,-0.8999999999999997,-0.7517932332411794,0.8999999999999997,-0.8999999999999997,high,low,,ISIC_0032766.JPG,,ISIC_3346045.JPG,43,true,hl,keypress(j),0,false,307133.299999997,307133.10000000894,304414.983,304430.799999997,304449.023,307148.547,1,40,20,
sequence,flow.Sequence,6_19,2023-11-15T19:45:03.924Z,,,,,,,,,,2684.077000008954,completion,,,,,,,high,low,,,,,,true,,,,false,307133.299999997,307133.10000000894,304414.983,304430.799999997,304449.023,307148.547,1,40,,
trial,html.Screen,6_20_0,2023-11-15T19:45:10.332Z,,,,1,1.045301444872812,-1.0872560254441277,,false,lh,6392.252999996999,response,-1.075512775389519,0.8999999999999997,-0.8999999999999997,1.0454702683049502,0.8999999999999997,-0.8999999999999997,low,high,,ISIC_4507700.JPG,,ISIC_0033603.JPG,29,true,hh,keypress(i),0,false,313541,313540.799999997,307131.958,307133.5,307148.547,313548.409,1,40,21,
sequence,flow.Sequence,6_20,2023-11-15T19:45:10.332Z,,,,,,,,,,6392.252999996999,completion,,,,,,,low,high,,,,,,true,,,,false,313541,313540.799999997,307131.958,307133.5,307148.547,313548.409,1,40,,
trial,html.Screen,6_21_0,2023-11-15T19:45:15.318Z,,,,1,0.8165346395107898,-0.7657798385266591,,false,lh,4978.491000005975,response,-0.789083277544982,0.8999999999999997,-0.8999999999999997,0.7172067273002093,0.8999999999999997,-0.8999999999999997,low,high,,ISIC_2283628.JPG,,ISIC_0011030.JPG,29,true,hh,keypress(i),0,false,318527.200000003,318526.90000000596,313531.743,313541.200000003,313548.409,318531.75,1,40,22,
sequence,flow.Sequence,6_21,2023-11-15T19:45:15.318Z,,,,,,,,,,4978.491000005975,completion,,,,,,,low,high,,,,,,true,,,,false,318527.5,318526.90000000596,313531.743,313541.10000000894,313548.409,318531.75,1,40,,
trial,html.Screen,6_22_0,2023-11-15T19:45:19.267Z,,,,1,-0.8075741539776473,0.7326891894107508,,true,hl,3944.8500000089407,response,0.7872534775441857,0.8999999999999997,-0.8999999999999997,-0.8441107693833454,0.8999999999999997,-0.8999999999999997,high,low,,ISIC_3428523.JPG,,ISIC_0028788.JPG,43,true,hl,keypress(j),0,false,322476.60000000894,322476.60000000894,318514.924,318527.700000003,318531.75,322481.692,1,40,23,
sequence,flow.Sequence,6_22,2023-11-15T19:45:19.268Z,,,,,,,,,,3944.8500000089407,completion,,,,,,,high,low,,,,,,true,,,,false,322476.799999997,322476.60000000894,318514.924,318527.700000003,318531.75,322481.692,1,40,,
trial,html.Screen,6_23_0,2023-11-15T19:45:22.980Z,,,,1,0.7262185370068359,0.9153969930664472,,false,ll,3707.607999997039,response,-0.771782427598807,0.8999999999999997,-0.8999999999999997,-1.0831630135341803,0.8999999999999997,-0.8999999999999997,low,low,,ISIC_0063369.JPG,,ISIC_7340247.JPG,169,true,hl,keypress(j),0,false,326189.40000000596,326189.299999997,322464.96,322476.799999997,322481.692,326198.647,1,40,24,
sequence,flow.Sequence,6_23,2023-11-15T19:45:22.980Z,,,,,,,,,,3707.607999997039,completion,,,,,,,low,low,,,,,,true,,,,false,326189.60000000894,326189.299999997,322464.96,322476.799999997,322481.692,326198.647,1,40,,
trial,html.Screen,6_24_0,2023-11-15T19:45:29.014Z,,,,1,1.004142980655507,-0.7749773174967559,,false,lh,6024.053000002983,response,-0.84290786638064,0.8999999999999997,-0.8999999999999997,0.7332521189371746,0.8999999999999997,-0.8999999999999997,low,high,,ISIC_3936223.JPG,,ISIC_4708642.JPG,29,true,hl,keypress(j),0,false,332223,332222.700000003,326181.972,326189.700000003,326198.647,332231.7,1,40,25,
sequence,flow.Sequence,6_24,2023-11-15T19:45:29.014Z,,,,,,,,,,6024.053000002983,completion,,,,,,,low,high,,,,,,true,,,,false,332223.40000000596,332222.700000003,326181.972,326189.60000000894,326198.647,332231.7,1,40,,
trial,html.Screen,6_25_0,2023-11-15T19:45:33.956Z,,,,1,-0.7268043404851218,-0.8184581417483975,,true,hh,4933.599999997008,response,0.8069112035903693,0.8999999999999997,-0.8999999999999997,0.7730616186864473,0.8999999999999997,-0.8999999999999997,high,high,,ISIC_0002118.JPG,,ISIC_7074321.JPG,184,true,hh,keypress(i),0,false,337165.40000000596,337165.299999997,332214.859,332223.700000003,332231.7,337181.857,1,40,26,
sequence,flow.Sequence,6_25,2023-11-15T19:45:33.956Z,,,,,,,,,,4933.599999997008,completion,,,,,,,high,high,,,,,,true,,,,false,337165.40000000596,337165.299999997,332214.859,332223.60000000894,332231.7,337181.857,1,40,,
trial,html.Screen,6_26_0,2023-11-15T19:45:36.965Z,,,,1,-0.7882758084023446,0.8296405881378283,,true,hl,2991.843000002962,response,0.7714570894008278,0.8999999999999997,-0.8999999999999997,-0.9113656554657036,0.8999999999999997,-0.8999999999999997,high,low,,ISIC_0065882.JPG,,ISIC_4529092.JPG,43,true,hl,keypress(j),0,false,340174,340173.700000003,337164.911,337165.5,337181.857,340181.697,1,40,27,
sequence,flow.Sequence,6_26,2023-11-15T19:45:36.965Z,,,,,,,,,,2991.843000002962,completion,,,,,,,high,low,,,,,,true,,,,false,340174.5,340173.700000003,337164.911,337165.40000000596,337181.857,340181.697,1,40,,
trial,html.Screen,6_27_0,2023-11-15T19:45:39.555Z,,,,1,-0.8828738626295417,0.8288177599439582,,true,hl,2582.8030000000144,response,0.8350129142228142,0.8999999999999997,-0.8999999999999997,-0.8172547818270586,0.8999999999999997,-0.8999999999999997,high,low,,ISIC_0056041.JPG,,ISIC_0301568.JPG,43,true,hl,keypress(j),0,false,342764.700000003,342764.5,340165.226,340174.799999997,340181.697,342781.782,1,40,28,
sequence,flow.Sequence,6_27,2023-11-15T19:45:39.556Z,,,,,,,,,,2582.8030000000144,completion,,,,,,,high,low,,,,,,true,,,,false,342764.700000003,342764.5,340165.226,340174.700000003,340181.697,342781.782,1,40,,
trial,html.Screen,6_28_0,2023-11-15T19:45:42.788Z,,,,1,-0.8764429645297487,-0.9319282086996942,,true,hh,3215.0179999970132,response,0.7002237403183771,0.8999999999999997,-0.8999999999999997,0.73725438657936,0.8999999999999997,-0.8999999999999997,high,high,,ISIC_9538004.JPG,,ISIC_0029686.JPG,184,true,hh,keypress(i),0,false,345996.799999997,345996.799999997,342748.484,342764.90000000596,342781.782,345998.309,1,40,29,
sequence,flow.Sequence,6_28,2023-11-15T19:45:42.788Z,,,,,,,,,,3215.0179999970132,completion,,,,,,,high,high,,,,,,true,,,,false,345997,345996.799999997,342748.484,342764.799999997,342781.782,345998.309,1,40,,
trial,html.Screen,6_29_0,2023-11-15T19:45:46.636Z,,,,1,0.8654274202714607,0.943970373243474,,true,ll,3846.391000002972,response,-0.8363634080775226,0.8999999999999997,-0.8999999999999997,-0.899694322339037,0.8999999999999997,-0.8999999999999997,low,low,,ISIC_0011752.JPG,,ISIC_0007257.JPG,169,true,ll,keypress(f),0,false,349844.799999997,349844.700000003,345981.741,345997,345998.309,349848.313,1,40,30,
sequence,flow.Sequence,6_29,2023-11-15T19:45:46.636Z,,,,,,,,,,3846.391000002972,completion,,,,,,,low,low,,,,,,true,,,,false,349845,349844.700000003,345981.741,345997,345998.309,349848.313,1,40,,
trial,html.Screen,6_30_0,2023-11-15T19:45:49.004Z,,,,1,-0.7010101889216934,0.9022783418178474,,true,hl,2363.986999996996,response,0.9617893983965208,0.8999999999999997,-0.8999999999999997,-0.9453006131304652,0.8999999999999997,-0.8999999999999997,high,low,,ISIC_0057858.JPG,,ISIC_4229473.JPG,43,true,hl,keypress(j),0,false,352212.5,352212.299999997,349831.785,349845,349848.313,352214.978,1,40,31,
sequence,flow.Sequence,6_30,2023-11-15T19:45:49.004Z,,,,,,,,,,2363.986999996996,completion,,,,,,,high,low,,,,,,true,,,,false,352212.60000000894,352212.299999997,349831.785,349845,349848.313,352214.978,1,40,,
trial,html.Screen,6_31_0,2023-11-15T19:45:52.004Z,,,,1,-0.7280191393710038,-0.8282491311530128,,true,hh,2997.622000008938,response,1.048482877784125,0.8999999999999997,-0.8999999999999997,1.0716857765902368,0.8999999999999997,-0.8999999999999997,high,high,,ISIC_8374889.JPG,,ISIC_0063961.JPG,184,true,hh,keypress(i),0,false,355212.799999997,355212.60000000894,352198.51,352212.60000000894,352214.978,355214.99,1,40,32,
sequence,flow.Sequence,6_31,2023-11-15T19:45:52.004Z,,,,,,,,,,2997.622000008938,completion,,,,,,,high,high,,,,,,true,,,,false,355212.90000000596,355212.60000000894,352198.51,352212.60000000894,352214.978,355214.99,1,40,,
trial,html.Screen,6_32_0,2023-11-15T19:45:55.109Z,,,,1,0.9740596249572724,0.915332132320829,,true,ll,3102.61000000895,response,-0.9548921292696696,0.8999999999999997,-0.8999999999999997,-0.7396517737529797,0.8999999999999997,-0.8999999999999997,low,low,,ISIC_9053910.JPG,,ISIC_5566396.JPG,169,true,ll,keypress(f),0,false,358317.90000000596,358317.60000000894,355198.474,355212.90000000596,355214.99,358331.734,1,40,33,
sequence,flow.Sequence,6_32,2023-11-15T19:45:55.109Z,,,,,,,,,,3102.61000000895,completion,,,,,,,low,low,,,,,,true,,,,false,358318.299999997,358317.60000000894,355198.474,355212.90000000596,355214.99,358331.734,1,40,,
trial,html.Screen,6_33_0,2023-11-15T19:45:57.861Z,,,,1,-0.8351560316519383,-0.7085394211669206,,false,hh,2737.9660000029835,response,0.7942237284714229,0.8999999999999997,-0.8999999999999997,0.868184396474685,0.8999999999999997,-0.8999999999999997,high,high,,ISIC_5795486.JPG,,ISIC_0026738.JPG,184,true,hl,keypress(j),0,false,361070,361069.700000003,358315.132,358318.40000000596,358331.734,361081.65,1,40,34,
sequence,flow.Sequence,6_33,2023-11-15T19:45:57.861Z,,,,,,,,,,2737.9660000029835,completion,,,,,,,high,high,,,,,,true,,,,false,361070.299999997,361069.700000003,358315.132,358318.40000000596,358331.734,361081.65,1,40,,
trial,html.Screen,6_34_0,2023-11-15T19:46:01.126Z,,,,1,0.8441404886756483,0.8493445183566039,,true,ll,3252.9500000089174,response,-0.9876902672925608,0.8999999999999997,-0.8999999999999997,-0.7493151990739595,0.8999999999999997,-0.8999999999999997,low,low,,ISIC_0055003.JPG,,ISIC_2259190.JPG,169,true,ll,keypress(f),0,false,364334.799999997,364334.60000000894,361064.893,361070.5,361081.65,364348.37,1,40,35,
sequence,flow.Sequence,6_34,2023-11-15T19:46:01.126Z,,,,,,,,,,3252.9500000089174,completion,,,,,,,low,low,,,,,,true,,,,false,364335.299999997,364334.60000000894,361064.893,361070.5,361081.65,364348.37,1,40,,
trial,html.Screen,6_35_0,2023-11-15T19:46:04.411Z,,,,1,-1.0211808747755002,-0.9580728810269548,,true,hh,3271.830000002985,response,0.8721011160837115,0.8999999999999997,-0.8999999999999997,0.9005344308932209,0.8999999999999997,-0.8999999999999997,high,high,,ISIC_1211506.JPG,,ISIC_0025744.JPG,184,true,hh,keypress(i),0,false,367620.299999997,367620.200000003,364331.719,364335.40000000596,364348.37,367631.611,1,40,36,
sequence,flow.Sequence,6_35,2023-11-15T19:46:04.412Z,,,,,,,,,,3271.830000002985,completion,,,,,,,high,high,,,,,,true,,,,false,367620.40000000596,367620.200000003,364331.719,364335.299999997,364348.37,367631.611,1,40,,
trial,html.Screen,6_36_0,2023-11-15T19:46:07.564Z,,,,1,-0.7918012854539199,-1.0631481857644678,,true,hh,3141.4890000089654,response,0.9837331918354912,0.8999999999999997,-0.8999999999999997,0.9130384672883698,0.8999999999999997,-0.8999999999999997,high,high,,ISIC_0033137.JPG,,ISIC_0001108.JPG,184,true,hh,keypress(i),0,false,370773.10000000894,370773.10000000894,367614.925,367620.5,367631.611,370781.674,1,40,37,
sequence,flow.Sequence,6_36,2023-11-15T19:46:07.564Z,,,,,,,,,,3141.4890000089654,completion,,,,,,,high,high,,,,,,true,,,,false,370773.299999997,370773.10000000894,367614.925,367620.5,367631.611,370781.674,1,40,,
trial,html.Screen,6_37_0,2023-11-15T19:46:13.085Z,,,,1,0.9617893983965208,-0.9453006131304652,,true,lh,5512.226000005961,response,-0.7010101889216934,0.8999999999999997,-0.8999999999999997,0.9022783418178474,0.8999999999999997,-0.8999999999999997,low,high,,ISIC_4229473.JPG,,ISIC_0057858.JPG,29,true,lh,keypress(e),0,false,376294.200000003,376293.90000000596,370765.041,370773.299999997,370781.674,376298.242,1,40,38,
sequence,flow.Sequence,6_37,2023-11-15T19:46:13.086Z,,,,,,,,,,5512.226000005961,completion,,,,,,,low,high,,,,,,true,,,,false,376294.700000003,376293.90000000596,370765.041,370773.299999997,370781.674,376298.242,1,40,,
trial,html.Screen,6_38_0,2023-11-15T19:46:15.804Z,,,,1,0.8642861042532918,0.7071725768452852,,true,ll,2714.358000008913,response,-0.905890181856784,0.8999999999999997,-0.8999999999999997,-0.7211537413352586,0.8999999999999997,-0.8999999999999997,low,low,,ISIC_0011315.JPG,,ISIC_6507640.JPG,169,true,ll,keypress(f),0,false,379012.700000003,379012.60000000894,376281.411,376294.90000000596,376298.242,379014.891,1,40,39,
sequence,flow.Sequence,6_38,2023-11-15T19:46:15.804Z,,,,,,,,,,2714.358000008913,completion,,,,,,,low,low,,,,,,true,,,,false,379012.799999997,379012.60000000894,376281.411,376294.799999997,376298.242,379014.891,1,40,,
trial,html.Screen,6_39_0,2023-11-15T19:46:18.108Z,,,,1,0.8548190756840552,0.7777530555793848,,true,ll,2301.7090000089374,response,-0.9961674882214306,0.8999999999999997,-0.8999999999999997,-0.7490338425009774,0.8999999999999997,-0.8999999999999997,low,low,,ISIC_0411688.JPG,,ISIC_0624779.JPG,169,true,ll,keypress(f),0,false,381316.799999997,381316.60000000894,378998.464,379012.799999997,379014.891,381331.569,1,40,40,
sequence,flow.Sequence,6_39,2023-11-15T19:46:18.108Z,,,,,,,,,,2301.7090000089374,completion,,,,,,,low,low,,,,,,true,,,,false,381316.90000000596,381316.60000000894,378998.464,379012.799999997,379014.891,381331.569,1,40,,
practice_loop,flow.Loop,6,2023-11-15T19:46:18.108Z,,,,,,,,,,179684.51900000894,completion,,,,,,,,,,,,,,true,,,,false,381316.90000000596,381316.60000000894,201615.672,201628.79999999702,201632.081,381331.569,1,40,,
stair_instructions,html.Screen,7,2023-11-15T19:46:25.499Z,,,,,,,,,,7376.230999997002,response,,,,,,,,,,,,,,,continue,click button,,,388708.200000003,388707.799999997,381314.887,381317,381331.569,388714.955,,,,
trial,html.Screen,8_0_0,2023-11-15T19:46:30.335Z,,,,2,-0.0085390023861227,-0.051110950799465,,true,hh,4828.544999999984,response,0.9415126659682582,0.8999999999999997,-0.8999999999999997,1.0413549203180965,0.8999999999999997,-0.8999999999999997,high,high,,ISIC_6268546.JPG,,ISIC_4398011.JPG,184,false,hh,keypress(i),0,true,393543.700000003,393543.5,388698.296,388708.40000000596,388714.955,393565.158,1,40,1,
sequence,flow.Sequence,8_0,2023-11-15T19:46:30.335Z,,,,,,,,,,4828.544999999984,completion,,,,,,,high,high,,,,,,false,,,,true,393544.10000000894,393543.5,388698.296,388708.299999997,388714.955,393565.158,1,40,,
trial,html.Screen,8_1_0,2023-11-15T19:46:34.526Z,,,,2,-0.0308384937406319,0.0038396364323947,,true,hh,4169.542000002984,response,1.071312313440387,0.8999999999999997,-0.8999999999999997,1.0935391476164529,0.8999999999999997,-0.8999999999999997,high,high,,ISIC_0029825.JPG,,ISIC_0063680.JPG,184,false,hh,keypress(i),0,true,397735.10000000894,397734.700000003,393548.199,393544.299999997,393565.158,397748.288,1,40,2,
sequence,flow.Sequence,8_1,2023-11-15T19:46:34.527Z,,,,,,,,,,4169.542000002984,completion,,,,,,,high,high,,,,,,false,,,,true,397735.5,397734.700000003,393548.199,393544.299999997,393565.158,397748.288,1,40,,
trial,html.Screen,8_2_0,2023-11-15T19:46:37.038Z,,,,2,-0.0501343550751953,-0.0101991443736165,,true,ll,2498.7119999999995,response,-0.8186357808635779,1.0174470339672748,-0.8999999999999997,-0.8496269540027764,1.0174470339672748,-0.8999999999999997,low,low,,ISIC_4232761.JPG,,ISIC_4535099.JPG,169,false,ll,keypress(f),0,true,400247.200000003,400247,397731.693,397735.700000003,397748.288,400264.878,1,40,3,
sequence,flow.Sequence,8_2,2023-11-15T19:46:37.039Z,,,,,,,,,,2498.7119999999995,completion,,,,,,,low,low,,,,,,false,,,,true,400247.700000003,400247,397731.693,397735.700000003,397748.288,400264.878,1,40,,
trial,html.Screen,8_3_0,2023-11-15T19:46:40.990Z,,,,2,0.0164027439304477,-0.0082910758715273,,true,hh,3933.9219999969937,response,0.8266129150391385,1.0174470339672748,-0.8999999999999997,1.139795447917384,1.0174470339672748,-0.8999999999999997,high,high,,ISIC_7381224.JPG,,ISIC_0069204.JPG,131,false,hh,keypress(i),0,true,404199,404198.799999997,400248.224,400247.90000000596,400264.878,404215.13,1,40,4,
sequence,flow.Sequence,8_3,2023-11-15T19:46:40.991Z,,,,,,,,,,3933.9219999969937,completion,,,,,,,high,high,,,,,,false,,,,true,404199.5,404198.799999997,400248.224,400247.799999997,400264.878,404215.13,1,40,,
trial,html.Screen,8_4_0,2023-11-15T19:46:43.198Z,,,,2,0.0603356922898045,0.0630785445312754,,false,lh,2191.669999997015,response,-1.0369885917487718,0.9674470339672747,-0.8499999999999996,0.8486937878412699,0.9674470339672747,-0.8499999999999996,low,high,,ISIC_9996128.JPG,,ISIC_6917681.JPG,28,false,hh,keypress(i),0,true,406407,406406.799999997,404198.205,404199.799999997,404215.13,406414.909,1,40,5,
sequence,flow.Sequence,8_4,2023-11-15T19:46:43.199Z,,,,,,,,,,2191.669999997015,completion,,,,,,,low,high,,,,,,false,,,,true,406407.40000000596,406406.799999997,404198.205,404199.700000003,404215.13,406414.909,1,40,,
trial,html.Screen,8_5_0,2023-11-15T19:46:49.580Z,,,,2,-0.0283578106329894,0.0088840758711548,,true,hl,6373.791000002995,response,0.9111352818043872,0.9674470339672747,-0.8999999999999997,-0.7517932332411794,0.9442446178793269,-0.8499999999999996,high,low,,ISIC_0060707.JPG,,ISIC_3346045.JPG,36,false,hl,keypress(j),0,true,412788.799999997,412788.700000003,406398.349,406407.60000000894,406414.909,412798.181,1,40,6,
sequence,flow.Sequence,8_5,2023-11-15T19:46:49.580Z,,,,,,,,,,6373.791000002995,completion,,,,,,,high,low,,,,,,false,,,,true,412788.90000000596,412788.700000003,406398.349,406407.5,406414.909,412798.181,1,40,,
trial,html.Screen,8_6_0,2023-11-15T19:46:52.438Z,,,,2,0.0107170641394226,-0.0596294643429623,,true,ll,2847.9190000089584,response,-0.7109511223219827,0.9174470339672747,-0.8999999999999997,-0.9096646508167132,0.9442446178793269,-0.7999999999999996,low,low,,ISIC_0005291.JPG,,ISIC_3770380.JPG,203,false,ll,keypress(f),0,true,415646.299999997,415646.10000000894,412781.28,412788.90000000596,412798.181,415665.457,1,40,7,
sequence,flow.Sequence,8_6,2023-11-15T19:46:52.438Z,,,,,,,,,,2847.9190000089584,completion,,,,,,,low,low,,,,,,false,,,,true,415646.700000003,415646.10000000894,412781.28,412788.90000000596,412798.181,415665.457,1,40,,
trial,html.Screen,8_7_0,2023-11-15T19:46:57.924Z,,,,2,-0.0700576547090477,0.0026956749740767,,true,ll,5467.342999997025,response,-1.0361104193014674,0.9174470339672747,-0.8999999999999997,-0.7632520489027056,0.9442446178793269,-0.7999999999999996,low,low,,ISIC_7212271.JPG,,ISIC_7017387.JPG,203,false,ll,keypress(f),0,true,421133,421132.799999997,415631.607,415646.90000000596,415665.457,421148.234,1,40,8,
sequence,flow.Sequence,8_7,2023-11-15T19:46:57.924Z,,,,,,,,,,5467.342999997025,completion,,,,,,,low,low,,,,,,false,,,,true,421133,421132.799999997,415631.607,415646.90000000596,415665.457,421148.234,1,40,,
trial,html.Screen,8_8_0,2023-11-15T19:47:01.030Z,,,,2,0.0107170641394226,-0.0596294643429623,,true,ll,3090.565999997023,response,-0.8186357808635779,0.9174470339672747,-0.7864583498597093,-0.8496269540027764,0.9442446178793269,-0.7864583498597093,low,low,,ISIC_0005291.JPG,,ISIC_4535099.JPG,254,false,ll,keypress(f),0,true,424239.10000000894,424238.799999997,421131.447,421133.10000000894,421148.234,424248.203,1,40,9,
sequence,flow.Sequence,8_8,2023-11-15T19:47:01.031Z,,,,,,,,,,3090.565999997023,completion,,,,,,,low,low,,,,,,false,,,,true,424239.5,424238.799999997,421131.447,421133.10000000894,421148.234,424248.203,1,40,,
trial,html.Screen,8_9_0,2023-11-15T19:47:07.979Z,,,,2,0.0629648527969799,-0.0694960898867798,,false,lh,6939.897000008961,response,-0.6761556401281956,0.9174470339672747,-0.7864583498597093,0.9655386457143784,0.9442446178793269,-0.7864583498597093,low,high,,ISIC_0025597.JPG,,ISIC_8268025.JPG,33,false,ll,keypress(f),0,true,431188.200000003,431188.10000000894,424231.678,424239.700000003,424248.203,431198.259,1,40,10,
sequence,flow.Sequence,8_9,2023-11-15T19:47:07.980Z,,,,,,,,,,6939.897000008961,completion,,,,,,,low,high,,,,,,false,,,,true,431188.299999997,431188.10000000894,424231.678,424239.60000000894,424248.203,431198.259,1,40,,
trial,html.Screen,8_10_0,2023-11-15T19:47:13.646Z,,,,2,-0.0586798548295751,0.0060040805764433,,false,lh,5655.74099999998,response,-0.6526724457046548,0.9174470339672747,-0.7128912970654859,1.080229511722363,0.9942446178793269,-0.7864583498597093,low,high,,ISIC_1552232.JPG,,ISIC_4876193.JPG,42,false,ll,keypress(f),0,true,436854.299999997,436854,431181.217,431188.40000000596,431198.259,436864.766,1,40,11,
sequence,flow.Sequence,8_10,2023-11-15T19:47:13.646Z,,,,,,,,,,5655.74099999998,completion,,,,,,,low,high,,,,,,false,,,,true,436854.700000003,436854,431181.217,431188.40000000596,431198.259,436864.766,1,40,,
trial,html.Screen,8_11_0,2023-11-15T19:47:17.029Z,,,,2,-0.0076984477620101,-0.0069458408496562,,false,hh,3372.934000002977,response,1.0454436589399478,0.9174470339672747,-0.7128912970654859,1.110086733022912,1.044244617879327,-0.7864583498597093,high,high,,ISIC_0000434.JPG,,ISIC_0053916.JPG,157,false,hl,keypress(j),0,true,440237.90000000596,440237.700000003,436848.086,436854.90000000596,436864.766,440248.145,1,40,12,
sequence,flow.Sequence,8_11,2023-11-15T19:47:17.030Z,,,,,,,,,,3372.934000002977,completion,,,,,,,high,high,,,,,,false,,,,true,440238.299999997,440237.700000003,436848.086,436854.90000000596,436864.766,440248.145,1,40,,
trial,html.Screen,8_12_0,2023-11-15T19:47:22.917Z,,,,2,0.0478761683145946,-0.012927090508672,,true,ll,5877.755000005942,response,-0.673407740791809,0.9174470339672747,-0.7128912970654859,-0.6413224584837697,1.094244617879327,-0.7864583498597093,low,low,,ISIC_9631669.JPG,,ISIC_0422299.JPG,294,false,ll,keypress(f),0,true,446126.200000003,446125.90000000596,440231.649,440238.5,440248.145,446131.403,1,40,13,
sequence,flow.Sequence,8_12,2023-11-15T19:47:22.918Z,,,,,,,,,,5877.755000005942,completion,,,,,,,low,low,,,,,,false,,,,true,446126.60000000894,446125.90000000596,440231.649,440238.40000000596,440248.145,446131.403,1,40,,
trial,html.Screen,8_13_0,2023-11-15T19:47:27.510Z,,,,2,-0.0423567271646023,-0.0380126882576854,,false,lh,4587.597000000009,response,-0.5363706799372485,0.9174470339672747,-0.6628912970654859,0.9963238802662304,1.094244617879327,-0.7364583498597093,low,high,,ISIC_0046932.JPG,,ISIC_0057287.JPG,35,false,hh,keypress(i),0,true,450719.200000003,450719,446114.723,446126.700000003,446131.403,450731.604,1,40,14,
sequence,flow.Sequence,8_13,2023-11-15T19:47:27.511Z,,,,,,,,,,4587.597000000009,completion,,,,,,,low,high,,,,,,false,,,,true,450719.700000003,450719,446114.723,446126.700000003,446131.403,450731.604,1,40,,
trial,html.Screen,8_14_0,2023-11-15T19:47:31.110Z,,,,2,-0.0544036313884697,-0.0564516462775647,,false,hl,3587.1959999970277,response,0.8544507134472948,0.9174470339672747,-0.7128912970654859,-0.9244388608707323,1.094244617879327,-0.7364583498597093,high,low,,ISIC_7441957.JPG,,ISIC_3565564.JPG,60,false,hh,keypress(i),0,true,454319.10000000894,454318.799999997,450714.773,450719.799999997,450731.604,454331.461,1,40,15,
sequence,flow.Sequence,8_14,2023-11-15T19:47:31.111Z,,,,,,,,,,3587.1959999970277,completion,,,,,,,high,low,,,,,,false,,,,true,454319.5,454318.799999997,450714.773,450719.799999997,450731.604,454331.461,1,40,,
trial,html.Screen,8_15_0,2023-11-15T19:47:36.909Z,,,,2,-0.0643519619373155,-0.0340638715725122,,false,hh,5786.3389999970095,response,1.0394767720056428,0.8753872968567626,-0.7128912970654859,0.9642448420571276,1.094244617879327,-0.7864583498597093,high,high,,ISIC_0066401.JPG,,ISIC_0032823.JPG,154,false,ll,keypress(f),0,true,460118.10000000894,460117.799999997,454314.593,454319.60000000894,454331.461,460131.564,1,40,16,
sequence,flow.Sequence,8_15,2023-11-15T19:47:36.910Z,,,,,,,,,,5786.3389999970095,completion,,,,,,,high,high,,,,,,false,,,,true,460118.40000000596,460117.799999997,454314.593,454319.60000000894,454331.461,460131.564,1,40,,
trial,html.Screen,8_16_0,2023-11-15T19:47:44.623Z,,,,2,0.0495531443078245,0.0310660434153916,,false,hl,7699.336000005947,response,0.9561571536029742,0.9253872968567627,-0.7128912970654859,-0.6207868481530261,1.144244617879327,-0.7864583498597093,high,low,,ISIC_0013719.JPG,,ISIC_0025778.JPG,50,false,ll,keypress(f),0,true,467831.10000000894,467830.90000000596,460114.788,460118.60000000894,460131.564,467848.28,1,40,17,
sequence,flow.Sequence,8_16,2023-11-15T19:47:44.623Z,,,,,,,,,,7699.336000005947,completion,,,,,,,high,low,,,,,,false,,,,true,467831.5,467830.90000000596,460114.788,460118.60000000894,460131.564,467848.28,1,40,,
trial,html.Screen,8_17_0,2023-11-15T19:47:48.062Z,,,,2,0.0367060100866019,0.0630207980628495,,false,lh,3422.3200000089128,response,-0.5482042090316842,0.9753872968567627,-0.7128912970654859,0.9950817758087226,1.144244617879327,-0.7864583498597093,low,high,,ISIC_0028396.JPG,,ISIC_0025267.JPG,22,false,ll,keypress(f),0,true,471270.90000000596,471270.60000000894,467831.254,467831.799999997,467848.28,471281.415,1,40,18,
sequence,flow.Sequence,8_17,2023-11-15T19:47:48.063Z,,,,,,,,,,3422.3200000089128,completion,,,,,,,low,high,,,,,,false,,,,true,471271.299999997,471270.60000000894,467831.254,467831.700000003,467848.28,471281.415,1,40,,
trial,html.Screen,8_18_0,2023-11-15T19:47:52.446Z,,,,2,0.0426957918502628,0.044166030546046,,false,ll,4372.785000003001,response,-0.640359493165528,0.9753872968567627,-0.7128912970654859,-0.5938260068076072,1.1942446178793271,-0.7864583498597093,low,low,,ISIC_4649440.JPG,,ISIC_0004667.JPG,294,false,hl,keypress(j),0,true,475654.40000000596,475654.200000003,471264.597,471271.5,471281.415,475664.733,1,40,19,
sequence,flow.Sequence,8_18,2023-11-15T19:47:52.446Z,,,,,,,,,,4372.785000003001,completion,,,,,,,low,low,,,,,,false,,,,true,475654.90000000596,475654.200000003,471264.597,471271.40000000596,471281.415,475664.733,1,40,,
trial,html.Screen,8_19_0,2023-11-15T19:47:57.126Z,,,,2,-0.0462522625051681,-0.0088419594888635,,false,hl,4669.967000002973,response,0.8015524574564398,0.9753872968567627,-0.762891297065486,-0.3943955938041112,1.1942446178793271,-0.5210151079196457,high,low,,ISIC_1945381.JPG,,ISIC_0057164.JPG,79,false,hh,keypress(i),0,true,480335,480334.700000003,475647.87,475655.10000000894,475664.733,480348.178,1,40,20,
sequence,flow.Sequence,8_19,2023-11-15T19:47:57.127Z,,,,,,,,,,4669.967000002973,completion,,,,,,,high,low,,,,,,false,,,,true,480335.40000000596,480334.700000003,475647.87,475655,475664.733,480348.178,1,40,,
trial,html.Screen,8_20_0,2023-11-15T19:48:00.493Z,,,,2,-0.0009714874637896,0.0174815595031679,,false,ll,3353.4220000089263,response,-0.5886145185466116,0.9753872968567627,-0.762891297065486,-0.5707273770189105,1.1942446178793271,-0.5710151079196457,low,low,,ISIC_9848743.JPG,,ISIC_6710082.JPG,360,false,hl,keypress(j),0,true,483701.799999997,483701.60000000894,480331.422,480335.60000000894,480348.178,483714.856,1,40,21,
sequence,flow.Sequence,8_20,2023-11-15T19:48:00.494Z,,,,,,,,,,3353.4220000089263,completion,,,,,,,low,low,,,,,,false,,,,true,483702.200000003,483701.60000000894,480331.422,480335.5,480348.178,483714.856,1,40,,
trial,html.Screen,8_21_0,2023-11-15T19:48:04.750Z,,,,2,-0.0085390023861227,-0.051110950799465,,true,lh,4242.943999996991,response,-0.5355994049587595,0.8753872968567626,-0.7128912970654859,1.194084675079932,1.094244617879327,-0.4710151079196457,low,high,,ISIC_6268546.JPG,,ISIC_0010044.JPG,29,false,lh,keypress(e),0,true,487958.10000000894,487957.799999997,483697.98,483702.5,483714.856,487964.631,1,40,22,
sequence,flow.Sequence,8_21,2023-11-15T19:48:04.750Z,,,,,,,,,,4242.943999996991,completion,,,,,,,low,high,,,,,,false,,,,true,487958.5,487957.799999997,483697.98,483702.5,483714.856,487964.631,1,40,,
trial,html.Screen,8_22_0,2023-11-15T19:48:06.989Z,,,,2,-0.0727065082131878,-0.0601627969482033,,false,lh,2232.869000000006,response,-0.5263191867283452,0.8753872968567626,-0.7128912970654859,0.9387374105086476,1.094244617879327,-0.4710151079196457,low,high,,ISIC_2245069.JPG,,ISIC_9063429.JPG,29,false,hh,keypress(i),0,true,490197.799999997,490197.5,487948.083,487958.700000003,487964.631,490214.912,1,40,23,
sequence,flow.Sequence,8_22,2023-11-15T19:48:06.990Z,,,,,,,,,,2232.869000000006,completion,,,,,,,low,high,,,,,,false,,,,true,490198.200000003,490197.5,487948.083,487958.60000000894,487964.631,490214.912,1,40,,
trial,html.Screen,8_23_0,2023-11-15T19:48:09.765Z,,,,2,0.0199950873045219,0.0172506388509166,,true,hl,2758.788000002969,response,0.9145057080927842,0.8753872968567626,-0.762891297065486,-0.657848806080734,1.0164110427942898,-0.4710151079196457,high,low,,ISIC_0029906.JPG,,ISIC_0014308.JPG,111,false,hl,keypress(j),0,true,492974,492973.700000003,490198.158,490198.299999997,490214.912,492981.279,1,40,24,
sequence,flow.Sequence,8_23,2023-11-15T19:48:09.766Z,,,,,,,,,,2758.788000002969,completion,,,,,,,high,low,,,,,,false,,,,true,492974.299999997,492973.700000003,490198.158,490198.200000003,490214.912,492981.279,1,40,,
trial,html.Screen,8_24_0,2023-11-15T19:48:12.798Z,,,,2,0.0409660561823769,-0.039283578935498,,true,hh,3025.2210000000196,response,0.7262185370068359,0.8253872968567626,-0.762891297065486,0.9153969930664472,1.0164110427942898,-0.4710151079196457,high,high,,ISIC_0479264.JPG,,ISIC_0063369.JPG,177,false,hh,keypress(i),0,true,496006.799999997,496006.5,492964.702,492974.5,492981.279,496014.662,1,40,25,
sequence,flow.Sequence,8_24,2023-11-15T19:48:12.799Z,,,,,,,,,,3025.2210000000196,completion,,,,,,,high,high,,,,,,false,,,,true,496007.200000003,496006.5,492964.702,492974.40000000596,492981.279,496014.662,1,40,,
trial,html.Screen,8_25_0,2023-11-15T19:48:15.902Z,,,,2,0.0644356642124594,-0.0565130492997401,,true,ll,3095.7380000059493,response,-0.7146926864204427,0.8253872968567626,-0.762891297065486,-0.5123402350466647,1.0164110427942898,-0.4710151079196457,low,low,,ISIC_7520843.JPG,,ISIC_0029209.JPG,374,false,ll,keypress(f),0,true,499110.700000003,499110.40000000596,495998.11,496007.40000000596,496014.662,499114.652,1,40,26,
sequence,flow.Sequence,8_25,2023-11-15T19:48:15.903Z,,,,,,,,,,3095.7380000059493,completion,,,,,,,low,low,,,,,,false,,,,true,499111.10000000894,499110.40000000596,495998.11,496007.299999997,496014.662,499114.652,1,40,,
trial,html.Screen,8_26_0,2023-11-15T19:48:18.149Z,,,,2,-0.0267918352484299,-0.0630167830859455,,false,hl,2243.147999997018,response,0.7635393024559287,0.8253872968567626,-0.762891297065486,-0.4107457064570109,1.0164110427942898,-0.4710151079196457,high,low,,ISIC_0064874.JPG,,ISIC_1382271.JPG,130,false,hh,keypress(i),0,true,501358.10000000894,501357.799999997,499098.086,499111.299999997,499114.652,501364.548,1,40,27,
sequence,flow.Sequence,8_26,2023-11-15T19:48:18.150Z,,,,,,,,,,2243.147999997018,completion,,,,,,,high,low,,,,,,false,,,,true,501358.40000000596,501357.799999997,499098.086,499111.200000003,499114.652,501364.548,1,40,,
trial,html.Screen,8_27_0,2023-11-15T19:48:21.093Z,,,,2,-0.0119001144851157,0.0063430114540141,,true,hh,2936.552000008931,response,0.714417678806898,0.7753872968567626,-0.762891297065486,0.8846902997868215,1.0164110427942898,-0.5210151079196457,high,high,,ISIC_0003822.JPG,,ISIC_0031401.JPG,197,false,hh,keypress(i),0,true,504301.200000003,504301.10000000894,501348.11,501358.60000000894,501364.548,504314.849,1,40,28,
sequence,flow.Sequence,8_27,2023-11-15T19:48:21.093Z,,,,,,,,,,2936.552000008931,completion,,,,,,,high,high,,,,,,false,,,,true,504301.40000000596,504301.10000000894,501348.11,501358.60000000894,501364.548,504314.849,1,40,,
trial,html.Screen,8_28_0,2023-11-15T19:48:25.300Z,,,,2,-0.0633291412406864,0.0446580444004686,,true,ll,4193.651000000013,response,-0.8838016633248763,0.7753872968567626,-0.762891297065486,-0.5640781215464749,0.7495539892968597,-0.5210151079196457,low,low,,ISIC_0010718.JPG,,ISIC_3609379.JPG,374,false,ll,keypress(f),0,true,508508.60000000894,508508.5,504298.032,504301.40000000596,504314.849,508514.572,1,40,29,
sequence,flow.Sequence,8_28,2023-11-15T19:48:25.300Z,,,,,,,,,,4193.651000000013,completion,,,,,,,low,low,,,,,,false,,,,true,508508.60000000894,508508.5,504298.032,504301.40000000596,504314.849,508514.572,1,40,,
trial,html.Screen,8_29_0,2023-11-15T19:48:29.685Z,,,,2,0.0367060100866019,0.0630207980628495,,true,hh,4378.428000000014,response,0.726088143883226,0.7753872968567626,-0.6739398924356755,0.9195149254716736,0.7495539892968597,-0.5210151079196457,high,high,,ISIC_0028396.JPG,,ISIC_3445468.JPG,274,false,hh,keypress(i),0,true,512893.200000003,512893,508498.021,508508.700000003,508514.572,512897.866,1,40,30,
sequence,flow.Sequence,8_29,2023-11-15T19:48:29.685Z,,,,,,,,,,4378.428000000014,completion,,,,,,,high,high,,,,,,false,,,,true,512893.60000000894,512893,508498.021,508508.700000003,508514.572,512897.866,1,40,,
trial,html.Screen,8_30_0,2023-11-15T19:48:34.542Z,,,,2,-0.0572065166118795,0.0247840126545907,,false,hl,4851.93399999704,response,0.7904706581476241,0.7728015346774497,-0.6739398924356755,-0.3778688596631561,0.7495539892968597,-0.5210151079196457,high,low,,ISIC_0024565.JPG,,ISIC_0010034.JPG,132,false,ll,keypress(f),0,true,517750.10000000894,517749.799999997,512881.08,512893.799999997,512897.866,517764.739,1,40,31,
sequence,flow.Sequence,8_30,2023-11-15T19:48:34.542Z,,,,,,,,,,4851.93399999704,completion,,,,,,,high,low,,,,,,false,,,,true,517750.40000000596,517749.799999997,512881.08,512893.799999997,512897.866,517764.739,1,40,,
trial,html.Screen,8_31_0,2023-11-15T19:48:37.997Z,,,,2,-0.0423567271646023,-0.0380126882576854,,true,hh,3440.461000002979,response,0.8912693823433375,0.8228015346774498,-0.6739398924356755,0.6221565402654299,0.7495539892968597,-0.4710151079196457,high,high,,ISIC_0046932.JPG,,ISIC_0033258.JPG,251,false,hh,keypress(i),0,true,521205.40000000596,521205.200000003,517747.725,517750.700000003,517764.739,521214.619,1,40,32,
sequence,flow.Sequence,8_31,2023-11-15T19:48:37.997Z,,,,,,,,,,3440.461000002979,completion,,,,,,,high,high,,,,,,false,,,,true,521205.799999997,521205.200000003,517747.725,517750.5,517764.739,521214.619,1,40,,
trial,html.Screen,8_32_0,2023-11-15T19:48:41.165Z,,,,2,-0.0118382036798625,-0.0300588245877227,,true,ll,3158.7810000059544,response,-0.6580252852730891,0.8228015346774498,-0.6739398924356755,-0.6424143115546261,0.7067129613043837,-0.4710151079196457,low,low,,ISIC_4748605.JPG,,ISIC_4936610.JPG,397,false,ll,keypress(f),0,true,524373.700000003,524373.400000006,521198.016,521206,521214.619,524381.194,1,40,33,
sequence,flow.Sequence,8_32,2023-11-15T19:48:41.166Z,,,,,,,,,,3158.7810000059544,completion,,,,,,,low,low,,,,,,false,,,,true,524374,524373.400000006,521198.016,521206,521214.619,524381.194,1,40,,
trial,html.Screen,8_33_0,2023-11-15T19:48:46.070Z,,,,2,0.0010920693448107,0.0492408806128631,,false,lh,4896.605999997002,response,-0.6045952254527632,0.8228015346774498,-0.6739398924356755,0.5087911048959001,0.7067129613043837,-0.4710151079196457,low,high,,ISIC_6155981.JPG,,ISIC_7888517.JPG,112,false,ll,keypress(f),0,true,529278.200000003,529277.799999997,524364.714,524374.200000003,524381.194,529281.252,1,40,34,
sequence,flow.Sequence,8_33,2023-11-15T19:48:46.070Z,,,,,,,,,,4896.605999997002,completion,,,,,,,low,high,,,,,,false,,,,true,529278.6000000089,529277.799999997,524364.714,524374.1000000089,524381.194,529281.252,1,40,,
trial,html.Screen,8_34_0,2023-11-15T19:48:48.909Z,,,,2,-0.066631540328269,-0.005292120470259,,false,hl,2836.148000005982,response,0.9033129923949872,0.8228015346774498,-0.5735047685036947,-0.3633453790226117,0.7567129613043837,-0.4710151079196457,high,low,,ISIC_8041550.JPG,,ISIC_0034012.JPG,133,false,hh,keypress(i),0,true,532117.700000003,532117.400000006,529264.575,529278.799999997,529281.252,532131.378,1,40,35,
sequence,flow.Sequence,8_34,2023-11-15T19:48:48.910Z,,,,,,,,,,2836.148000005982,completion,,,,,,,high,low,,,,,,false,,,,true,532118.1000000089,532117.400000006,529264.575,529278.799999997,529281.252,532131.378,1,40,,
trial,html.Screen,8_35_0,2023-11-15T19:48:52.190Z,,,,2,0.0074667911845194,-0.018500200317654,,false,hh,3266.322000002954,response,0.8082541692781954,0.7728015346774497,-0.5735047685036947,0.5930690778521454,0.7567129613043837,-0.5210151079196457,high,high,,ISIC_0058723.JPG,,ISIC_0033985.JPG,268,false,ll,keypress(f),0,true,535398,535397.700000003,532114.635,532118.299999997,532131.378,535414.662,1,40,36,
sequence,flow.Sequence,8_35,2023-11-15T19:48:52.190Z,,,,,,,,,,3266.322000002954,completion,,,,,,,high,high,,,,,,false,,,,true,535398.400000006,535397.700000003,532114.635,532118.299999997,532131.378,535414.662,1,40,,
trial,html.Screen,8_36_0,2023-11-15T19:48:55.045Z,,,,2,0.0145962222125655,0.0525495878509009,,false,hl,2838.6379999970086,response,0.7710431764671228,0.8228015346774498,-0.5735047685036947,-0.6053964042677181,0.8067129613043837,-0.5210151079196457,high,low,,ISIC_4248013.JPG,,ISIC_0175530.JPG,120,false,hh,keypress(i),0,true,538253.5,538253.299999997,535397.913,535398.700000003,535414.662,538264.544,1,40,37,
sequence,flow.Sequence,8_36,2023-11-15T19:48:55.046Z,,,,,,,,,,2838.6379999970086,completion,,,,,,,high,low,,,,,,false,,,,true,538254,538253.299999997,535397.913,535398.6000000089,535414.662,538264.544,1,40,,
trial,html.Screen,8_37_0,2023-11-15T19:49:01.510Z,,,,2,0.0146597765042814,0.06222227493177,,false,hl,6453.856000005966,response,0.8067627078956657,0.8228015346774498,-0.5735047685036947,-0.7115865750196155,0.8067129613043837,-0.5710151079196457,high,low,,ISIC_5982769.JPG,,ISIC_0010014.JPG,110,false,ll,keypress(f),0,true,544718.700000003,544718.400000006,538248.012,538254.200000003,538264.544,544731.209,1,40,38,
sequence,flow.Sequence,8_37,2023-11-15T19:49:01.511Z,,,,,,,,,,6453.856000005966,completion,,,,,,,high,low,,,,,,false,,,,true,544719,544718.400000006,538248.012,538254.200000003,538264.544,544731.209,1,40,,
trial,html.Screen,8_38_0,2023-11-15T19:49:05.022Z,,,,2,0.0448994009031783,-0.0708723658092544,,false,lh,3498.691000005929,response,-0.6360398095473613,0.8728015346774498,-0.5735047685036947,0.8410554198353576,0.8067129613043837,-0.5710151079196457,low,high,,ISIC_0025238.JPG,,ISIC_6032520.JPG,103,false,ll,keypress(f),0,true,548230.200000003,548229.900000006,544714.515,544719.299999997,544731.209,548248.065,1,40,39,
sequence,flow.Sequence,8_38,2023-11-15T19:49:05.022Z,,,,,,,,,,3498.691000005929,completion,,,,,,,low,high,,,,,,false,,,,true,548230.5,548229.900000006,544714.515,544719.200000003,544731.209,548248.065,1,40,,
trial,html.Screen,8_39_0,2023-11-15T19:49:11.428Z,,,,2,0.0123274848503577,-0.0516828290734233,,false,lh,6388.535000008997,response,-0.6960508345579705,0.8728015346774498,-0.5735047685036947,0.8641223012137988,0.8567129613043838,-0.5710151079196457,low,high,,ISIC_0056790.JPG,,ISIC_0033901.JPG,93,false,hh,keypress(i),0,true,554636.700000003,554636.6000000089,548214.622,548230.700000003,548248.065,554647.852,1,40,40,
sequence,flow.Sequence,8_39,2023-11-15T19:49:11.429Z,,,,,,,,,,6388.535000008997,completion,,,,,,,low,high,,,,,,false,,,,true,554636.900000006,554636.6000000089,548214.622,548230.6000000089,548248.065,554647.852,1,40,,
stair_loop,flow.Loop,8,2023-11-15T19:49:11.429Z,,,,,,,,,,165921.64500000892,completion,,,,,,,,,,,,,,false,,,,true,554637,554636.6000000089,388698.296,388708.299999997,388714.955,554647.852,1,40,,
exp_instructions,html.Screen,9,2023-11-15T19:49:28.989Z,,,,,,,,,,17548.648000000045,response,,,,,,,,,,,,,,,continue,keypress(Space),,,572197.200000003,572196.5,554631.036,554637,554647.852,572214.465,,,,
trial,html.Screen,10_0_0,2023-11-15T19:49:33.021Z,,,,1,-0.0633291412406864,0.0446580444004686,,false,hl,4014.935000005993,response,0.6381095186506558,0.831594415767106,-0.6788374873394959,-0.4380798005209143,0.8833354357615972,-0.5060151079196458,high,low,,ISIC_0010718.JPG,9,ISIC_9174306.JPG,117,false,lh,keypress(e),0,false,576229.700000003,576229.400000006,572197.199,572197.5,572214.465,576248.263,4,500,1,
break,html.Screen,10_0_1,2023-11-15T19:49:33.023Z,,,,,,,,,,NaN,,,,,,,,high,low,,,,,,false,,,,false,576230.900000006,576230.400000006,,576230,,576248.263,4,500,,
break_continue,html.Screen,10_0_2,2023-11-15T19:49:33.023Z,,,,,,,,,,NaN,,,,,,,,high,low,,,,,,false,,,,false,576231.799999997,576231.400000006,,576231.1000000089,,576248.263,4,500,,
sequence,flow.Sequence,10_0,2023-11-15T19:49:33.024Z,,,,,,,,,,4016.935000005993,completion,,,,,,,high,low,,,,,,false,,,,false,576232,576231.400000006,572197.199,572197.5,572214.465,576248.263,4,500,,
trial,html.Screen,10_1_0,2023-11-15T19:49:40.381Z,,,,1,0.0145962222125655,0.0525495878509009,,false,hl,7341.236999999965,response,0.917228184807006,0.831594415767106,-0.6788374873394959,-0.5040499458436042,0.8833354357615972,-0.5060151079196458,high,low,,ISIC_4248013.JPG,9,ISIC_8986997.JPG,117,false,lh,keypress(e),0,false,583589.6000000089,583589.5,576214.43,576232.200000003,576248.263,583597.758,4,500,2,
break,html.Screen,10_1_1,2023-11-15T19:49:40.382Z,,,,,,,,,,NaN,,,,,,,,high,low,,,,,,false,,,,false,583589.900000006,583589.799999997,,583589.700000003,,583597.758,4,500,,
break_continue,html.Screen,10_1_2,2023-11-15T19:49:40.382Z,,,,,,,,,,NaN,,,,,,,,high,low,,,,,,false,,,,false,583590.1000000089,583590.1000000089,,583589.900000006,,583597.758,4,500,,
sequence,flow.Sequence,10_1,2023-11-15T19:49:40.382Z,,,,,,,,,,7341.837000008905,completion,,,,,,,high,low,,,,,,false,,,,false,583590.200000003,583590.1000000089,576214.43,576232.200000003,576248.263,583597.758,4,500,,
trial,html.Screen,10_2_0,2023-11-15T19:49:46.110Z,,,,1,-0.024731486864197,-0.0504232274546553,,false,lh,5719.4420000029495,response,-0.6116142998577564,0.831594415767106,-0.6788374873394959,0.958564243697126,0.8833354357615972,-0.5060151079196458,low,high,,ISIC_4782878.JPG,10,ISIC_3203344.JPG,64,false,ll,keypress(f),0,false,589317.6000000089,589317.200000003,583580.944,583590.200000003,583597.758,589331.074,4,500,3,
break,html.Screen,10_2_1,2023-11-15T19:49:46.111Z,,,,,,,,,,NaN,,,,,,,,low,high,,,,,,false,,,,false,589318.6000000089,589318.299999997,,589317.900000006,,589331.074,4,500,,
break_continue,html.Screen,10_2_2,2023-11-15T19:49:46.111Z,,,,,,,,,,NaN,,,,,,,,low,high,,,,,,false,,,,false,589319.200000003,589318.900000006,,589318.700000003,,589331.074,4,500,,
sequence,flow.Sequence,10_2,2023-11-15T19:49:46.111Z,,,,,,,,,,5721.14200000593,completion,,,,,,,low,high,,,,,,false,,,,false,589319.5,589318.900000006,583580.944,583590.200000003,583597.758,589331.074,4,500,,
trial,html.Screen,10_3_0,2023-11-15T19:49:49.589Z,,,,1,0.0074667911845194,-0.018500200317654,,true,hh,3465.9259999999776,response,0.9500911450995304,0.831594415767106,-0.6788374873394959,0.8685004638027202,0.8833354357615972,-0.5060151079196458,high,high,,ISIC_0058723.JPG,9,ISIC_0011094.JPG,205,false,hh,keypress(i),0,false,592797.299999997,592797,589314.493,589319.700000003,589331.074,592814.611,4,500,4,
break,html.Screen,10_3_1,2023-11-15T19:49:49.590Z,,,,,,,,,,NaN,,,,,,,,high,high,,,,,,false,,,,false,592798.1000000089,592798,,592797.5,,592814.611,4,500,,
break_continue,html.Screen,10_3_2,2023-11-15T19:49:49.591Z,,,,,,,,,,NaN,,,,,,,,high,high,,,,,,false,,,,false,592798.799999997,592798.5,,592798.299999997,,592814.611,4,500,,
sequence,flow.Sequence,10_3,2023-11-15T19:49:49.591Z,,,,,,,,,,3467.4259999999776,completion,,,,,,,high,high,,,,,,false,,,,false,592799,592798.5,589314.493,589319.6000000089,589331.074,592814.611,4,500,,
trial,html.Screen,10_4_0,2023-11-15T19:49:53.326Z,,,,1,-0.0105349256029223,0.0723574625425557,,false,lh,3718.6889999969862,response,-0.7088606387153258,0.831594415767106,-0.6788374873394959,0.948610930521224,0.8833354357615972,-0.5060151079196458,low,high,,ISIC_0058998.JPG,8,ISIC_0026293.JPG,64,false,ll,keypress(f),0,false,596533.5,596533.299999997,592797.722,592799.200000003,592814.611,596547.916,4,500,5,
break,html.Screen,10_4_1,2023-11-15T19:49:53.327Z,,,,,,,,,,NaN,,,,,,,,low,high,,,,,,false,,,,false,596534.5,596534.200000003,,596533.900000006,,596547.916,4,500,,
break_continue,html.Screen,10_4_2,2023-11-15T19:49:53.327Z,,,,,,,,,,NaN,,,,,,,,low,high,,,,,,false,,,,false,596535.200000003,596534.900000006,,596534.700000003,,596547.916,4,500,,
sequence,flow.Sequence,10_4,2023-11-15T19:49:53.327Z,,,,,,,,,,3720.289000005927,completion,,,,,,,low,high,,,,,,false,,,,false,596535.5,596534.900000006,592797.722,592799.200000003,592814.611,596547.916,4,500,,
trial,html.Screen,10_5_0,2023-11-15T19:49:56.517Z,,,,1,-0.0423567271646023,-0.0380126882576854,,false,ll,3176.484000005992,response,-0.8462156971915008,0.831594415767106,-0.6788374873394959,-0.3953141411031076,0.8833354357615972,-0.5060151079196458,low,low,,ISIC_0046932.JPG,9,ISIC_0599047.JPG,386,false,hl,keypress(j),0,false,599724.700000003,599724.400000006,596531.16,596535.6000000089,596547.916,599730.986,4,500,6,
break,html.Screen,10_5_1,2023-11-15T19:49:56.517Z,,,,,,,,,,NaN,,,,,,,,low,low,,,,,,false,,,,false,599725.400000006,599725.299999997,,599724.900000006,,599730.986,4,500,,
break_continue,html.Screen,10_5_2,2023-11-15T19:49:56.518Z,,,,,,,,,,NaN,,,,,,,,low,low,,,,,,false,,,,false,599726,599725.700000003,,599725.5,,599730.986,4,500,,
sequence,flow.Sequence,10_5,2023-11-15T19:49:56.518Z,,,,,,,,,,3177.784000003012,completion,,,,,,,low,low,,,,,,false,,,,false,599726.200000003,599725.700000003,596531.16,596535.6000000089,596547.916,599730.986,4,500,,
trial,html.Screen,10_6_0,2023-11-15T19:49:58.541Z,,,,1,-0.0286056110007553,-0.036125199756515,,true,hl,2018.1140000089072,response,0.6689188192377725,0.831594415767106,-0.6788374873394959,-0.5968828280129066,0.8833354357615972,-0.5060151079196458,high,low,,ISIC_6535558.JPG,9,ISIC_9126343.JPG,117,false,hl,keypress(j),0,false,601749.400000006,601749.1000000089,599714.325,599726.299999997,599730.986,601764.424,4,500,7,
break,html.Screen,10_6_1,2023-11-15T19:49:58.542Z,,,,,,,,,,NaN,,,,,,,,high,low,,,,,,false,,,,false,601750.400000006,601750.1000000089,,601749.700000003,,601764.424,4,500,,
break_continue,html.Screen,10_6_2,2023-11-15T19:49:58.543Z,,,,,,,,,,NaN,,,,,,,,high,low,,,,,,false,,,,false,601751.1000000089,601750.700000003,,601750.6000000089,,601764.424,4,500,,
sequence,flow.Sequence,10_6,2023-11-15T19:49:58.543Z,,,,,,,,,,2019.7140000029467,completion,,,,,,,high,low,,,,,,false,,,,false,601751.299999997,601750.700000003,599714.325,599726.299999997,599730.986,601764.424,4,500,,
trial,html.Screen,10_7_0,2023-11-15T19:50:02.389Z,,,,1,-0.0085390023861227,-0.051110950799465,,true,hh,3832.6760000089416,response,0.6837731958699687,0.831594415767106,-0.6788374873394959,0.9897645979422992,0.8833354357615972,-0.5060151079196458,high,high,,ISIC_6268546.JPG,8,ISIC_0280912.JPG,205,false,hh,keypress(i),0,false,605597.400000006,605597.1000000089,601747.78,601751.5,601764.424,605614.559,4,500,8,
break,html.Screen,10_7_1,2023-11-15T19:50:02.390Z,,,,,,,,,,NaN,,,,,,,,high,high,,,,,,false,,,,false,605598.299999997,605598.1000000089,,605597.700000003,,605614.559,4,500,,
break_continue,html.Screen,10_7_2,2023-11-15T19:50:02.391Z,,,,,,,,,,NaN,,,,,,,,high,high,,,,,,false,,,,false,605599,605598.700000003,,605598.5,,605614.559,4,500,,
sequence,flow.Sequence,10_7,2023-11-15T19:50:02.391Z,,,,,,,,,,3834.276000002981,completion,,,,,,,high,high,,,,,,false,,,,false,605599.200000003,605598.700000003,601747.78,601751.400000006,601764.424,605614.559,4,500,,
trial,html.Screen,10_8_0,2023-11-15T19:50:06.566Z,,,,1,-0.0204987932325723,0.0619049476763945,,true,hl,4158.740999997011,response,0.7396693240528495,0.831594415767106,-0.6788374873394959,-0.3680329187852548,0.8833354357615972,-0.5060151079196458,high,low,,ISIC_0887792.JPG,8,ISIC_0027170.JPG,117,false,hl,keypress(j),0,false,609773.5,609773.299999997,605597.597,605599.400000006,605614.559,609781.027,4,500,9,
break,html.Screen,10_8_1,2023-11-15T19:50:06.567Z,,,,,,,,,,NaN,,,,,,,,high,low,,,,,,false,,,,false,609774.5,609774.299999997,,609773.900000006,,609781.027,4,500,,
break_continue,html.Screen,10_8_2,2023-11-15T19:50:06.567Z,,,,,,,,,,NaN,,,,,,,,high,low,,,,,,false,,,,false,609775.1000000089,609774.799999997,,609774.6000000089,,609781.027,4,500,,
sequence,flow.Sequence,10_8,2023-11-15T19:50:06.567Z,,,,,,,,,,4160.240999997011,completion,,,,,,,high,low,,,,,,false,,,,false,609775.400000006,609774.799999997,605597.597,605599.299999997,605614.559,609781.027,4,500,,
trial,html.Screen,10_9_0,2023-11-15T19:50:10.084Z,,,,1,0.0273175221875807,0.0515126441328492,,true,hh,3510.772999997018,response,0.6453720605754978,0.831594415767106,-0.6788374873394959,0.9840522164888148,0.8833354357615972,-0.5060151079196458,high,high,,ISIC_0064034.JPG,9,ISIC_0011158.JPG,205,false,hh,keypress(i),0,false,613291.900000006,613291.799999997,609764.365,609775.6000000089,609781.027,613297.672,4,500,10,
break,html.Screen,10_9_1,2023-11-15T19:50:10.084Z,,,,,,,,,,NaN,,,,,,,,high,high,,,,,,false,,,,false,613292.200000003,613292.1000000089,,613292,,613297.672,4,500,,
break_continue,html.Screen,10_9_2,2023-11-15T19:50:10.084Z,,,,,,,,,,NaN,,,,,,,,high,high,,,,,,false,,,,false,613292.400000006,613292.200000003,,613292.200000003,,613297.672,4,500,,
sequence,flow.Sequence,10_9,2023-11-15T19:50:10.084Z,,,,,,,,,,3511.1730000029784,completion,,,,,,,high,high,,,,,,false,,,,false,613292.400000006,613292.200000003,609764.365,609775.5,609781.027,613297.672,4,500,,
trial,html.Screen,10_10_0,2023-11-15T19:50:14.204Z,,,,1,-0.0204987932325723,0.0619049476763945,,false,hl,4114.3279999999795,response,0.7823313912451958,0.831594415767106,-0.6788374873394959,-0.322313903295906,0.8833354357615972,-0.5060151079196458,high,low,,ISIC_0887792.JPG,9,ISIC_0025145.JPG,117,false,hh,keypress(i),0,false,617412.1000000089,617412,613281.092,613292.400000006,613297.672,617414.257,4,500,11,
break,html.Screen,10_10_1,2023-11-15T19:50:14.205Z,,,,,,,,,,NaN,,,,,,,,high,low,,,,,,false,,,,false,617412.6000000089,617412.5,,617412.299999997,,617414.257,4,500,,
break_continue,html.Screen,10_10_2,2023-11-15T19:50:14.205Z,,,,,,,,,,NaN,,,,,,,,high,low,,,,,,false,,,,false,617412.799999997,617412.700000003,,617412.6000000089,,617414.257,4,500,,
sequence,flow.Sequence,10_10,2023-11-15T19:50:14.205Z,,,,,,,,,,4115.02800000296,completion,,,,,,,high,low,,,,,,false,,,,false,617412.900000006,617412.700000003,613281.092,613292.400000006,613297.672,617414.257,4,500,,
trial,html.Screen,10_11_0,2023-11-15T19:50:18.500Z,,,,1,-0.0447960916594447,-0.0451557856659748,,false,lh,4293.443000002997,response,-0.498109375296929,0.831594415767106,-0.6788374873394959,0.6948014630920168,0.8833354357615972,-0.5060151079196458,low,high,,ISIC_1379405.JPG,9,ISIC_0055013.JPG,64,false,hl,keypress(j),0,false,621707.900000006,621707.700000003,617397.684,617413,617414.257,621714.328,4,500,12,
break,html.Screen,10_11_1,2023-11-15T19:50:18.500Z,,,,,,,,,,NaN,,,,,,,,low,high,,,,,,false,,,,false,621708.200000003,621708.1000000089,,621708,,621714.328,4,500,,
break_continue,html.Screen,10_11_2,2023-11-15T19:50:18.500Z,,,,,,,,,,NaN,,,,,,,,low,high,,,,,,false,,,,false,621708.400000006,621708.299999997,,621708.299999997,,621714.328,4,500,,
sequence,flow.Sequence,10_11,2023-11-15T19:50:18.501Z,,,,,,,,,,4294.0429999970365,completion,,,,,,,low,high,,,,,,false,,,,false,621708.5,621708.299999997,617397.684,617413,617414.257,621714.328,4,500,,
trial,html.Screen,10_12_0,2023-11-15T19:50:21.135Z,,,,1,0.0273175221875807,0.0515126441328492,,false,lh,2628.272000008961,response,-0.5689096808758702,0.831594415767106,-0.6788374873394959,0.7853599960465988,0.8833354357615972,-0.5060151079196458,low,high,,ISIC_0064034.JPG,9,ISIC_0014325.JPG,64,false,hl,keypress(j),0,false,624343.1000000089,624342.6000000089,621697.531,621708.5,621714.328,624347.582,4,500,13,
break,html.Screen,10_12_1,2023-11-15T19:50:21.136Z,,,,,,,,,,NaN,,,,,,,,low,high,,,,,,false,,,,false,624344.1000000089,624343.799999997,,624343.400000006,,624347.582,4,500,,
break_continue,html.Screen,10_12_2,2023-11-15T19:50:21.137Z,,,,,,,,,,NaN,,,,,,,,low,high,,,,,,false,,,,false,624344.700000003,624344.5,,624344.200000003,,624347.582,4,500,,
sequence,flow.Sequence,10_12,2023-11-15T19:50:21.137Z,,,,,,,,,,2630.1720000000205,completion,,,,,,,low,high,,,,,,false,,,,false,624345,624344.5,621697.531,621708.5,621714.328,624347.582,4,500,,
trial,html.Screen,10_13_0,2023-11-15T19:50:26.269Z,,,,1,-0.0204987932325723,0.0619049476763945,,true,hh,5129.018000008888,response,0.8110369560965408,0.831594415767106,-0.6788374873394959,0.7091309063434607,0.8833354357615972,-0.5060151079196458,high,high,,ISIC_0887792.JPG,10,ISIC_0030901.JPG,205,false,hh,keypress(i),0,false,629476.6000000089,629476.6000000089,624331.126,624345.200000003,624347.582,629480.868,4,500,14,
break,html.Screen,10_13_1,2023-11-15T19:50:26.269Z,,,,,,,,,,NaN,,,,,,,,high,high,,,,,,false,,,,false,629476.900000006,629476.799999997,,629476.700000003,,629480.868,4,500,,
break_continue,html.Screen,10_13_2,2023-11-15T19:50:26.269Z,,,,,,,,,,NaN,,,,,,,,high,high,,,,,,false,,,,false,629477.1000000089,629477,,629476.900000006,,629480.868,4,500,,
sequence,flow.Sequence,10_13,2023-11-15T19:50:26.269Z,,,,,,,,,,5129.417999999947,completion,,,,,,,high,high,,,,,,false,,,,false,629477.200000003,629477,624331.126,624345.200000003,624347.582,629480.868,4,500,,
trial,html.Screen,10_14_0,2023-11-15T19:50:31.014Z,,,,1,0.0426957918502628,0.044166030546046,,false,hh,4740.732000008924,response,0.7217466853250509,0.831594415767106,-0.6788374873394959,0.8448637774265015,0.8833354357615972,-0.5060151079196458,high,high,,ISIC_4649440.JPG,9,ISIC_0030780.JPG,205,false,hl,keypress(j),0,false,634221.900000006,634221.6000000089,629464.306,629477.200000003,629480.868,634247.589,4,500,15,
break,html.Screen,10_14_1,2023-11-15T19:50:31.015Z,,,,,,,,,,NaN,,,,,,,,high,high,,,,,,false,,,,false,634223,634222.700000003,,634222.200000003,,634247.589,4,500,,
break_continue,html.Screen,10_14_2,2023-11-15T19:50:31.016Z,,,,,,,,,,NaN,,,,,,,,high,high,,,,,,false,,,,false,634223.700000003,634223.400000006,,634223.200000003,,634247.589,4,500,,
sequence,flow.Sequence,10_14,2023-11-15T19:50:31.016Z,,,,,,,,,,4742.532000005944,completion,,,,,,,high,high,,,,,,false,,,,false,634224,634223.400000006,629464.306,629477.200000003,629480.868,634247.589,4,500,,
trial,html.Screen,10_15_0,2023-11-15T19:50:34.270Z,,,,1,0.0473541545202326,-0.0294076954053606,,false,lh,3229.811000005924,response,-0.6820087657417985,0.831594415767106,-0.6788374873394959,0.6990995805340022,0.8833354357615972,-0.5060151079196458,low,high,,ISIC_0034065.JPG,10,ISIC_4728968.JPG,64,false,hl,keypress(j),0,false,637477.6000000089,637477.400000006,634230.943,634224.200000003,634247.589,637480.949,4,500,16,
break,html.Screen,10_15_1,2023-11-15T19:50:34.271Z,,,,,,,,,,NaN,,,,,,,,low,high,,,,,,false,,,,false,637478.700000003,637478.5,,637478,,637480.949,4,500,,
break_continue,html.Screen,10_15_2,2023-11-15T19:50:34.271Z,,,,,,,,,,NaN,,,,,,,,low,high,,,,,,false,,,,false,637479.299999997,637479,,637478.799999997,,637480.949,4,500,,
sequence,flow.Sequence,10_15,2023-11-15T19:50:34.272Z,,,,,,,,,,3231.4109999999637,completion,,,,,,,low,high,,,,,,false,,,,false,637479.6000000089,637479,634230.943,634224.1000000089,634247.589,637480.949,4,500,,
trial,html.Screen,10_16_0,2023-11-15T19:50:38.574Z,,,,1,0.0367060100866019,0.0630207980628495,,false,lh,4300.850999996997,response,-0.7882758084023446,0.831594415767106,-0.6788374873394959,0.8296405881378283,0.8833354357615972,-0.5060151079196458,low,high,,ISIC_0028396.JPG,9,ISIC_0065882.JPG,64,false,hl,keypress(j),0,false,641782.1000000089,641781.799999997,637464.14,637479.799999997,637480.949,641797.838,4,500,17,
break,html.Screen,10_16_1,2023-11-15T19:50:38.575Z,,,,,,,,,,NaN,,,,,,,,low,high,,,,,,false,,,,false,641783,641782.799999997,,641782.400000006,,641797.838,4,500,,
break_continue,html.Screen,10_16_2,2023-11-15T19:50:38.576Z,,,,,,,,,,NaN,,,,,,,,low,high,,,,,,false,,,,false,641783.700000003,641783.400000006,,641783.200000003,,641797.838,4,500,,
sequence,flow.Sequence,10_16,2023-11-15T19:50:38.576Z,,,,,,,,,,4302.451000005938,completion,,,,,,,low,high,,,,,,false,,,,false,641784,641783.400000006,637464.14,637479.799999997,637480.949,641797.838,4,500,,
trial,html.Screen,10_17_0,2023-11-15T19:50:40.732Z,,,,1,-0.0634150092059303,0.0177502973253611,,false,ll,2142.0620000059716,response,-0.665573680242306,0.831594415767106,-0.6788374873394959,-0.6561739011569537,0.8833354357615972,-0.5060151079196458,low,low,,ISIC_0032433.JPG,9,ISIC_1545544.JPG,386,false,hl,keypress(j),0,false,643939.900000006,643939.900000006,641780.982,641784.1000000089,641797.838,643947.536,4,500,18,
break,html.Screen,10_17_1,2023-11-15T19:50:40.732Z,,,,,,,,,,NaN,,,,,,,,low,low,,,,,,false,,,,false,643940.200000003,643940.200000003,,643940,,643947.536,4,500,,
break_continue,html.Screen,10_17_2,2023-11-15T19:50:40.733Z,,,,,,,,,,NaN,,,,,,,,low,low,,,,,,false,,,,false,643940.400000006,643940.299999997,,643940.200000003,,643947.536,4,500,,
sequence,flow.Sequence,10_17,2023-11-15T19:50:40.733Z,,,,,,,,,,2142.461999997031,completion,,,,,,,low,low,,,,,,false,,,,false,643940.5,643940.299999997,641780.982,641784.1000000089,641797.838,643947.536,4,500,,
trial,html.Screen,10_18_0,2023-11-15T19:50:43.191Z,,,,1,0.0074667911845194,-0.018500200317654,,true,hh,2450.864000005997,response,0.8628989580970786,0.831594415767106,-0.6788374873394959,0.7092745497229191,0.8833354357615972,-0.5060151079196458,high,high,,ISIC_0058723.JPG,9,ISIC_0000030.JPG,205,false,hh,keypress(i),0,false,646398.700000003,646398.400000006,643930.954,643940.6000000089,643947.536,646414.384,4,500,19,
break,html.Screen,10_18_1,2023-11-15T19:50:43.192Z,,,,,,,,,,NaN,,,,,,,,high,high,,,,,,false,,,,false,646399.6000000089,646399.400000006,,646399,,646414.384,4,500,,
break_continue,html.Screen,10_18_2,2023-11-15T19:50:43.193Z,,,,,,,,,,NaN,,,,,,,,high,high,,,,,,false,,,,false,646400.400000006,646400,,646399.799999997,,646414.384,4,500,,
sequence,flow.Sequence,10_18,2023-11-15T19:50:43.193Z,,,,,,,,,,2452.4640000000363,completion,,,,,,,high,high,,,,,,false,,,,false,646400.6000000089,646400,643930.954,643940.6000000089,643947.536,646414.384,4,500,,
trial,html.Screen,10_19_0,2023-11-15T19:50:47.774Z,,,,1,0.0473541545202326,-0.0294076954053606,,true,lh,4567.016000005999,response,-0.6997714992625871,0.831594415767106,-0.6788374873394959,0.6895291420000788,0.8833354357615972,-0.5060151079196458,low,high,,ISIC_0034065.JPG,8,ISIC_0032637.JPG,64,false,lh,keypress(e),0,false,650981.700000003,650981.400000006,646397.646,646400.799999997,646414.384,650997.704,4,500,20,
break,html.Screen,10_19_1,2023-11-15T19:50:47.775Z,,,,,,,,,,NaN,,,,,,,,low,high,,,,,,false,,,,false,650982.700000003,650982.400000006,,650982,,650997.704,4,500,,
break_continue,html.Screen,10_19_2,2023-11-15T19:50:47.776Z,,,,,,,,,,NaN,,,,,,,,low,high,,,,,,false,,,,false,650983.6000000089,650983.200000003,,650983.1000000089,,650997.704,4,500,,
sequence,flow.Sequence,10_19,2023-11-15T19:50:47.776Z,,,,,,,,,,4568.816000003018,completion,,,,,,,low,high,,,,,,false,,,,false,650983.799999997,650983.200000003,646397.646,646400.700000003,646414.384,650997.704,4,500,,
trial,html.Screen,10_20_0,2023-11-15T19:50:51.982Z,,,,1,0.055893254685579,0.0187125006410995,,false,lh,4191.396000008914,response,-0.5191598021557546,0.831594415767106,-0.6788374873394959,0.7934334138309633,0.8833354357615972,-0.5060151079196458,low,high,,ISIC_0011779.JPG,9,ISIC_5993530.JPG,64,false,ll,keypress(f),0,false,655189.400000006,655189.1000000089,650980.982,650984,650997.704,655197.48,4,500,21,
break,html.Screen,10_20_1,2023-11-15T19:50:51.982Z,,,,,,,,,,NaN,,,,,,,,low,high,,,,,,false,,,,false,655190.200000003,655190,,655189.6000000089,,655197.48,4,500,,
break_continue,html.Screen,10_20_2,2023-11-15T19:50:51.983Z,,,,,,,,,,NaN,,,,,,,,low,high,,,,,,false,,,,false,655190.900000006,655190.5,,655190.299999997,,655197.48,4,500,,
sequence,flow.Sequence,10_20,2023-11-15T19:50:51.983Z,,,,,,,,,,4192.795999999973,completion,,,,,,,low,high,,,,,,false,,,,false,655191,655190.5,650980.982,650983.900000006,650997.704,655197.48,4,500,,
trial,html.Screen,10_21_0,2023-11-15T19:50:55.645Z,,,,1,0.0388181790775959,-0.0049623405709465,,false,lh,3654.920000005979,response,-0.5429733104574821,0.831594415767106,-0.6788374873394959,0.8275386155875368,0.8833354357615972,-0.5060151079196458,low,high,,ISIC_0061880.JPG,8,ISIC_7233368.JPG,64,false,hh,keypress(i),0,false,658852.5,658852.400000006,655180.854,655191.200000003,655197.48,658864.411,4,500,22,
break,html.Screen,10_21_1,2023-11-15T19:50:55.645Z,,,,,,,,,,NaN,,,,,,,,low,high,,,,,,false,,,,false,658852.799999997,658852.700000003,,658852.6000000089,,658864.411,4,500,,
break_continue,html.Screen,10_21_2,2023-11-15T19:50:55.645Z,,,,,,,,,,NaN,,,,,,,,low,high,,,,,,false,,,,false,658853.1000000089,658852.900000006,,658852.799999997,,658864.411,4,500,,
sequence,flow.Sequence,10_21,2023-11-15T19:50:55.645Z,,,,,,,,,,3655.420000005979,completion,,,,,,,low,high,,,,,,false,,,,false,658853.1000000089,658852.900000006,655180.854,655191.200000003,655197.48,658864.411,4,500,,
trial,html.Screen,10_22_0,2023-11-15T19:51:00.972Z,,,,1,0.045779466401051,0.0137769797231127,,true,hh,5315.589000000036,response,0.7167356289126139,0.831594415767106,-0.6788374873394959,0.9599274916161776,0.8833354357615972,-0.5060151079196458,high,high,,ISIC_0000504.JPG,9,ISIC_0010810.JPG,205,false,hh,keypress(i),0,false,664180.1000000089,664180,658847.594,658853.200000003,658864.411,664197.985,4,500,23,
break,html.Screen,10_22_1,2023-11-15T19:51:00.973Z,,,,,,,,,,NaN,,,,,,,,high,high,,,,,,false,,,,false,664180.5,664180.5,,664180.299999997,,664197.985,4,500,,
break_continue,html.Screen,10_22_2,2023-11-15T19:51:00.973Z,,,,,,,,,,NaN,,,,,,,,high,high,,,,,,false,,,,false,664180.799999997,664180.6000000089,,664180.5,,664197.985,4,500,,
sequence,flow.Sequence,10_22,2023-11-15T19:51:00.973Z,,,,,,,,,,5316.189000008977,completion,,,,,,,high,high,,,,,,false,,,,false,664180.900000006,664180.6000000089,658847.594,658853.200000003,658864.411,664197.985,4,500,,
trial,html.Screen,10_23_0,2023-11-15T19:51:04.023Z,,,,1,0.0065172941585523,-0.0118857043117315,,true,hh,3032.215000002994,response,0.6941362816263195,0.831594415767106,-0.6788374873394959,0.8847340651948885,0.8833354357615972,-0.5060151079196458,high,high,,ISIC_6119202.JPG,8,ISIC_0046664.JPG,205,false,hh,keypress(i),0,false,667230.5,667230.200000003,664164.144,664180.900000006,664197.985,667247.749,4,500,24,
break,html.Screen,10_23_1,2023-11-15T19:51:04.024Z,,,,,,,,,,NaN,,,,,,,,high,high,,,,,,false,,,,false,667231.400000006,667231.200000003,,667230.799999997,,667247.749,4,500,,
break_continue,html.Screen,10_23_2,2023-11-15T19:51:04.024Z,,,,,,,,,,NaN,,,,,,,,high,high,,,,,,false,,,,false,667232.1000000089,667231.799999997,,667231.6000000089,,667247.749,4,500,,
sequence,flow.Sequence,10_23,2023-11-15T19:51:04.025Z,,,,,,,,,,3033.8149999970337,completion,,,,,,,high,high,,,,,,false,,,,false,667232.299999997,667231.799999997,664164.144,664180.900000006,664197.985,667247.749,4,500,,
trial,html.Screen,10_24_0,2023-11-15T19:51:06.342Z,,,,1,0.0065172941585523,-0.0118857043117315,,false,lh,2301.5509999970673,response,-0.5181875072479262,0.831594415767106,-0.6788374873394959,0.7867208196397615,0.8833354357615972,-0.5060151079196458,low,high,,ISIC_6119202.JPG,9,ISIC_1597566.JPG,64,false,hl,keypress(j),0,false,669549.400000006,669549.299999997,667230.883,667232.5,667247.749,669564.398,4,500,25,
break,html.Screen,10_24_1,2023-11-15T19:51:06.342Z,,,,,,,,,,NaN,,,,,,,,low,high,,,,,,false,,,,false,669549.700000003,669549.700000003,,669549.5,,669564.398,4,500,,
break_continue,html.Screen,10_24_2,2023-11-15T19:51:06.342Z,,,,,,,,,,NaN,,,,,,,,low,high,,,,,,false,,,,false,669549.900000006,669549.799999997,,669549.700000003,,669564.398,4,500,,
sequence,flow.Sequence,10_24,2023-11-15T19:51:06.342Z,,,,,,,,,,2302.0509999970673,completion,,,,,,,low,high,,,,,,false,,,,false,669549.900000006,669549.799999997,667230.883,667232.5,667247.749,669564.398,4,500,,
trial,html.Screen,10_25_0,2023-11-15T19:51:12.534Z,,,,1,-0.0423567271646023,-0.0380126882576854,,false,ll,6176.702000008896,response,-0.5364133428869915,0.831594415767106,-0.6788374873394959,-0.5988181594821401,0.8833354357615972,-0.5060151079196458,low,low,,ISIC_0046932.JPG,10,ISIC_7803163.JPG,386,false,hl,keypress(j),0,false,675741.400000006,675741.1000000089,669547.424,669550,669564.398,675747.419,4,500,26,
break,html.Screen,10_25_1,2023-11-15T19:51:12.535Z,,,,,,,,,,NaN,,,,,,,,low,low,,,,,,false,,,,false,675742.400000006,675742.200000003,,675741.799999997,,675747.419,4,500,,
break_continue,html.Screen,10_25_2,2023-11-15T19:51:12.535Z,,,,,,,,,,NaN,,,,,,,,low,low,,,,,,false,,,,false,675743.200000003,675742.799999997,,675742.6000000089,,675747.419,4,500,,
sequence,flow.Sequence,10_25,2023-11-15T19:51:12.536Z,,,,,,,,,,6178.401999996975,completion,,,,,,,low,low,,,,,,false,,,,false,675743.400000006,675742.799999997,669547.424,669550,669564.398,675747.419,4,500,,
trial,html.Screen,10_26_0,2023-11-15T19:51:16.860Z,,,,1,-0.0119001144851157,0.0063430114540141,,false,hh,4320.380999997025,response,0.9340146106918494,0.831594415767106,-0.6788374873394959,0.8683758859171238,0.8833354357615972,-0.5060151079196458,high,high,,ISIC_0003822.JPG,8,ISIC_0065204.JPG,205,false,hl,keypress(j),0,false,680067.900000006,680067.799999997,675730.905,675743.6000000089,675747.419,680080.899,4,500,27,
break,html.Screen,10_26_1,2023-11-15T19:51:16.860Z,,,,,,,,,,NaN,,,,,,,,high,high,,,,,,false,,,,false,680068.200000003,680068.1000000089,,680067.900000006,,680080.899,4,500,,
break_continue,html.Screen,10_26_2,2023-11-15T19:51:16.861Z,,,,,,,,,,NaN,,,,,,,,high,high,,,,,,false,,,,false,680068.400000006,680068.299999997,,680068.200000003,,680080.899,4,500,,
sequence,flow.Sequence,10_26,2023-11-15T19:51:16.861Z,,,,,,,,,,4320.880999997025,completion,,,,,,,high,high,,,,,,false,,,,false,680068.5,680068.299999997,675730.905,675743.5,675747.419,680080.899,4,500,,
trial,html.Screen,10_27_0,2023-11-15T19:51:20.351Z,,,,1,-0.0480293506029756,-0.0744454320613987,,false,ll,3477.5010000059847,response,-0.6293126607625124,0.831594415767106,-0.6788374873394959,-0.395041992585132,0.8833354357615972,-0.5060151079196458,low,low,,ISIC_1798471.JPG,8,ISIC_0034079.JPG,386,false,hh,keypress(i),0,false,683558.6000000089,683558.400000006,680064.214,680068.5,680080.899,683564.062,4,500,28,
break,html.Screen,10_27_1,2023-11-15T19:51:20.352Z,,,,,,,,,,NaN,,,,,,,,low,low,,,,,,false,,,,false,683559.6000000089,683559.299999997,,683559,,683564.062,4,500,,
break_continue,html.Screen,10_27_2,2023-11-15T19:51:20.353Z,,,,,,,,,,NaN,,,,,,,,low,low,,,,,,false,,,,false,683560.299999997,683559.900000006,,683559.799999997,,683564.062,4,500,,
sequence,flow.Sequence,10_27,2023-11-15T19:51:20.353Z,,,,,,,,,,3479.0010000059847,completion,,,,,,,low,low,,,,,,false,,,,false,683560.5,683559.900000006,680064.214,680068.5,680080.899,683564.062,4,500,,
trial,html.Screen,10_28_0,2023-11-15T19:51:26.150Z,,,,1,0.0107170641394226,-0.0596294643429623,,false,hh,5793.138000002946,response,0.7100921215252844,0.831594415767106,-0.6788374873394959,0.9367637732363708,0.8833354357615972,-0.5060151079196458,high,high,,ISIC_0005291.JPG,9,ISIC_4407580.JPG,205,false,hl,keypress(j),0,false,689357.400000006,689357.200000003,683547.521,683560.700000003,683564.062,689364.06,4,500,29,
break,html.Screen,10_28_1,2023-11-15T19:51:26.151Z,,,,,,,,,,NaN,,,,,,,,high,high,,,,,,false,,,,false,689358.299999997,689358.1000000089,,689357.700000003,,689364.06,4,500,,
break_continue,html.Screen,10_28_2,2023-11-15T19:51:26.151Z,,,,,,,,,,NaN,,,,,,,,high,high,,,,,,false,,,,false,689359,689358.700000003,,689358.5,,689364.06,4,500,,
sequence,flow.Sequence,10_28,2023-11-15T19:51:26.151Z,,,,,,,,,,5794.638000002946,completion,,,,,,,high,high,,,,,,false,,,,false,689359.200000003,689358.700000003,683547.521,683560.700000003,683564.062,689364.06,4,500,,
trial,html.Screen,10_29_0,2023-11-15T19:51:35.926Z,,,,1,0.0632965338582772,0.0107588824722911,,false,ll,9769.939999999944,response,-0.6511236647537911,0.831594415767106,-0.6788374873394959,-0.683272164119457,0.8833354357615972,-0.5060151079196458,low,low,,ISIC_1265755.JPG,9,ISIC_0030911.JPG,386,false,lh,keypress(e),0,false,699134.200000003,699134,689347.522,689359.400000006,689364.06,699147.442,4,500,30,
break,html.Screen,10_29_1,2023-11-15T19:51:35.927Z,,,,,,,,,,NaN,,,,,,,,low,low,,,,,,false,,,,false,699135.1000000089,699134.900000006,,699134.5,,699147.442,4,500,,
break_continue,html.Screen,10_29_2,2023-11-15T19:51:35.928Z,,,,,,,,,,NaN,,,,,,,,low,low,,,,,,false,,,,false,699135.900000006,699135.6000000089,,699135.400000006,,699147.442,4,500,,
sequence,flow.Sequence,10_29,2023-11-15T19:51:35.928Z,,,,,,,,,,9771.540000008885,completion,,,,,,,low,low,,,,,,false,,,,false,699136.1000000089,699135.6000000089,689347.522,689359.299999997,689364.06,699147.442,4,500,,
trial,html.Screen,10_30_0,2023-11-15T19:51:38.252Z,,,,1,-0.0572065166118795,0.0247840126545907,,true,lh,2312.557999999961,response,-0.5058748596179912,0.831594415767106,-0.6788374873394959,0.8317665096852012,0.8833354357615972,-0.5060151079196458,low,high,,ISIC_0024565.JPG,9,ISIC_5988539.JPG,64,false,lh,keypress(e),0,false,701460.200000003,701460,699130.63,699136.299999997,699147.442,701464.032,4,500,31,
break,html.Screen,10_30_1,2023-11-15T19:51:38.253Z,,,,,,,,,,NaN,,,,,,,,low,high,,,,,,false,,,,false,701460.5,701460.400000006,,701460.299999997,,701464.032,4,500,,
break_continue,html.Screen,10_30_2,2023-11-15T19:51:38.253Z,,,,,,,,,,NaN,,,,,,,,low,high,,,,,,false,,,,false,701460.700000003,701460.6000000089,,701460.6000000089,,701464.032,4,500,,
sequence,flow.Sequence,10_30,2023-11-15T19:51:38.253Z,,,,,,,,,,2313.1580000089016,completion,,,,,,,low,high,,,,,,false,,,,false,701460.700000003,701460.6000000089,699130.63,699136.299999997,699147.442,701464.032,4,500,,
trial,html.Screen,10_31_0,2023-11-15T19:51:40.286Z,,,,1,0.0080817964357627,-0.0444435264307931,,true,lh,2029.0680000089342,response,-0.6960508345579705,0.831594415767106,-0.6788374873394959,0.8641223012137988,0.8833354357615972,-0.5060151079196458,low,high,,ISIC_0013165.JPG,9,ISIC_0033901.JPG,64,false,lh,keypress(e),0,false,703493.400000006,703493.1000000089,701447.445,701460.799999997,701464.032,703497.37,4,500,32,
break,html.Screen,10_31_1,2023-11-15T19:51:40.287Z,,,,,,,,,,NaN,,,,,,,,low,high,,,,,,false,,,,false,703494.400000006,703494.1000000089,,703493.700000003,,703497.37,4,500,,
break_continue,html.Screen,10_31_2,2023-11-15T19:51:40.287Z,,,,,,,,,,NaN,,,,,,,,low,high,,,,,,false,,,,false,703495.200000003,703494.799999997,,703494.700000003,,703497.37,4,500,,
sequence,flow.Sequence,10_31,2023-11-15T19:51:40.288Z,,,,,,,,,,2030.7679999970132,completion,,,,,,,low,high,,,,,,false,,,,false,703495.5,703494.799999997,701447.445,701460.700000003,701464.032,703497.37,4,500,,
trial,html.Screen,10_32_0,2023-11-15T19:51:42.902Z,,,,1,-0.0367706518941078,0.0161069838272154,,true,hh,2611.7300000089454,response,0.7908195179596742,0.831594415767106,-0.6788374873394959,0.846286768918253,0.8833354357615972,-0.5060151079196458,high,high,,ISIC_0033419.JPG,10,ISIC_0033843.JPG,205,false,hh,keypress(i),0,false,706109.400000006,706109.1000000089,703480.947,703495.700000003,703497.37,706114.004,4,500,33,
break,html.Screen,10_32_1,2023-11-15T19:51:42.903Z,,,,,,,,,,NaN,,,,,,,,high,high,,,,,,false,,,,false,706110.299999997,706110.1000000089,,706109.799999997,,706114.004,4,500,,
break_continue,html.Screen,10_32_2,2023-11-15T19:51:42.904Z,,,,,,,,,,NaN,,,,,,,,high,high,,,,,,false,,,,false,706111,706110.799999997,,706110.6000000089,,706114.004,4,500,,
sequence,flow.Sequence,10_32,2023-11-15T19:51:42.904Z,,,,,,,,,,2613.4299999970244,completion,,,,,,,high,high,,,,,,false,,,,false,706111.299999997,706110.799999997,703480.947,703495.6000000089,703497.37,706114.004,4,500,,
trial,html.Screen,10_33_0,2023-11-15T19:51:50.684Z,,,,1,0.0065172941585523,-0.0118857043117315,,false,hl,7777.896000006003,response,0.917228184807006,0.831594415767106,-0.6788374873394959,-0.5040499458436042,0.8833354357615972,-0.5060151079196458,high,low,,ISIC_6119202.JPG,9,ISIC_8986997.JPG,117,false,hh,keypress(i),0,false,713892,713891.900000006,706097.534,706111.5,706114.004,713897.315,4,500,34,
break,html.Screen,10_33_1,2023-11-15T19:51:50.685Z,,,,,,,,,,NaN,,,,,,,,high,low,,,,,,false,,,,false,713892.299999997,713892.200000003,,713892,,713897.315,4,500,,
break_continue,html.Screen,10_33_2,2023-11-15T19:51:50.685Z,,,,,,,,,,NaN,,,,,,,,high,low,,,,,,false,,,,false,713892.400000006,713892.299999997,,713892.299999997,,713897.315,4,500,,
sequence,flow.Sequence,10_33,2023-11-15T19:51:50.685Z,,,,,,,,,,7778.295999997063,completion,,,,,,,high,low,,,,,,false,,,,false,713892.5,713892.299999997,706097.534,706111.400000006,706114.004,713897.315,4,500,,
trial,html.Screen,10_34_0,2023-11-15T19:51:54.213Z,,,,1,0.0497314815986203,-0.0303374618795786,,true,hh,3522.9849999970756,response,0.9506660770270554,0.831594415767106,-0.6788374873394959,0.8543483016673109,0.8833354357615972,-0.5060151079196458,high,high,,ISIC_6023504.JPG,8,ISIC_0053469.JPG,205,false,hh,keypress(i),0,false,717420.400000006,717420.299999997,713880.86,713892.5,713897.315,717430.805,4,500,35,
break,html.Screen,10_34_1,2023-11-15T19:51:54.213Z,,,,,,,,,,NaN,,,,,,,,high,high,,,,,,false,,,,false,717420.6000000089,717420.6000000089,,717420.5,,717430.805,4,500,,
break_continue,html.Screen,10_34_2,2023-11-15T19:51:54.213Z,,,,,,,,,,NaN,,,,,,,,high,high,,,,,,false,,,,false,717420.900000006,717420.799999997,,717420.700000003,,717430.805,4,500,,
sequence,flow.Sequence,10_34,2023-11-15T19:51:54.213Z,,,,,,,,,,3523.4849999970756,completion,,,,,,,high,high,,,,,,false,,,,false,717420.900000006,717420.799999997,713880.86,713892.5,713897.315,717430.805,4,500,,
trial,html.Screen,10_35_0,2023-11-15T19:52:00.382Z,,,,1,0.0448994009031783,-0.0708723658092544,,true,hh,6158.4949999969685,response,0.8063996897274507,0.831594415767106,-0.6788374873394959,0.9872236201212492,0.8833354357615972,-0.5060151079196458,high,high,,ISIC_0025238.JPG,9,ISIC_0015046.JPG,205,false,hh,keypress(i),0,false,723589.6000000089,723589.299999997,717414.098,717421,717430.805,723597.294,4,500,36,
break,html.Screen,10_35_1,2023-11-15T19:52:00.383Z,,,,,,,,,,NaN,,,,,,,,high,high,,,,,,false,,,,false,723590.5,723590.299999997,,723589.900000006,,723597.294,4,500,,
break_continue,html.Screen,10_35_2,2023-11-15T19:52:00.384Z,,,,,,,,,,NaN,,,,,,,,high,high,,,,,,false,,,,false,723591.299999997,723590.900000006,,723590.799999997,,723597.294,4,500,,
sequence,flow.Sequence,10_35,2023-11-15T19:52:00.384Z,,,,,,,,,,6160.095000005909,completion,,,,,,,high,high,,,,,,false,,,,false,723591.5,723590.900000006,717414.098,717421,717430.805,723597.294,4,500,,
trial,html.Screen,10_36_0,2023-11-15T19:52:03.838Z,,,,1,-0.068830656047477,0.0471494209282208,,true,hl,3447.7060000000056,response,0.921882823923467,0.831594415767106,-0.6788374873394959,-0.377909630500096,0.8833354357615972,-0.5060151079196458,high,low,,ISIC_0029982.JPG,8,ISIC_0065740.JPG,117,false,hl,keypress(j),0,false,727045.299999997,727045,723580.603,723591.6000000089,723597.294,727047.36,4,500,37,
break,html.Screen,10_36_1,2023-11-15T19:52:03.839Z,,,,,,,,,,NaN,,,,,,,,high,low,,,,,,false,,,,false,727046.200000003,727045.900000006,,727045.6000000089,,727047.36,4,500,,
break_continue,html.Screen,10_36_2,2023-11-15T19:52:03.839Z,,,,,,,,,,NaN,,,,,,,,high,low,,,,,,false,,,,false,727046.799999997,727046.5,,727046.400000006,,727047.36,4,500,,
sequence,flow.Sequence,10_36,2023-11-15T19:52:03.840Z,,,,,,,,,,3449.2060000000056,completion,,,,,,,high,low,,,,,,false,,,,false,727047,727046.5,723580.603,723591.6000000089,723597.294,727047.36,4,500,,
trial,html.Screen,10_37_0,2023-11-15T19:52:07.398Z,,,,1,-0.0447960916594447,-0.0451557856659748,,false,hl,3557.7400000089547,response,0.9978764930756644,0.831594415767106,-0.6788374873394959,-0.3106321436944663,0.8833354357615972,-0.5060151079196458,high,low,,ISIC_1379405.JPG,8,ISIC_0009100.JPG,117,false,ll,keypress(f),0,false,730605.299999997,730605.1000000089,727030.815,727047.299999997,727047.36,730614.015,4,500,38,
break,html.Screen,10_37_1,2023-11-15T19:52:07.399Z,,,,,,,,,,NaN,,,,,,,,high,low,,,,,,false,,,,false,730606.200000003,730605.900000006,,730605.6000000089,,730614.015,4,500,,
break_continue,html.Screen,10_37_2,2023-11-15T19:52:07.399Z,,,,,,,,,,NaN,,,,,,,,high,low,,,,,,false,,,,false,730606.900000006,730606.6000000089,,730606.400000006,,730614.015,4,500,,
sequence,flow.Sequence,10_37,2023-11-15T19:52:07.400Z,,,,,,,,,,3559.2400000089547,completion,,,,,,,high,low,,,,,,false,,,,false,730607.1000000089,730606.6000000089,727030.815,727047.200000003,727047.36,730614.015,4,500,,
