sender,sender_type,sender_id,timestamp,meta,,age,blockNo,c1,c2,condition,correct,correctResponse,duration,ended_on,f1,f1_high,f1_low,f2,f2_high,f2_low,feature_level1,feature_level2,gender,img_left,img_reveal,img_right,n_target_images,practice,response,response_action,selection_duration,staircase,time_commit,time_end,time_render,time_run,time_show,time_switch,total_blocks,total_trials,trialNo,url
informed_consent,html.Screen,0,2023-11-15T18:41:15.102Z,"{""labjs_version"":""20.2.4"",""labjs_build"":{""flavor"":""development"",""commit"":""f5b4a49f956347addd546a832a3327688c2c0fef""},""location"":""https://labjs.felixhenninger.com/api/labjs_preview/index.html"",""userAgent"":""Mozilla/5.0 (Windows NT 10.0; Win64; x64) AppleWebKit/537.36 (KHTML, like Gecko) Chrome/119.0.0.0 Safari/537.36"",""platform"":""Win32"",""language"":""en-US"",""locale"":""en-US"",""timeZone"":""America/Chicago"",""timezoneOffset"":360,""screen_width"":1920,""screen_height"":1080,""scroll_width"":945,""scroll_height"":918,""window_innerWidth"":945,""window_innerHeight"":966,""devicePixelRatio"":1}",,,,,,,,,96518.69299998808,response,,,,,,,,,,,,,,,consent,click button,,,97037.40000003576,97031.19999998808,495.827,483.19999998807907,512.507,97045.737,,,,{}
Demography form,html.Form,1,2023-11-15T18:41:25.102Z,,,18,,,,,,,9991.663000035769,form submission,,,,,,,,,transgender,,,,,,,,,,107037.40000003576,107037.40000003576,97029.196,97037.60000002384,97045.737,107045.877,,,,
Welcome,html.Screen,2,2023-11-15T18:41:54.569Z,,,,,,,"[""bor"",""col""]",,,29457.22300002385,response,,,,,,,,,,,,,,,continue,click button,,,136503.80000001192,136503.10000002384,107029.203,107037.5,107045.877,136512.522,,,,
demo_instructions,html.Screen,3,2023-11-15T18:42:11.609Z,,,,,,,,,,17030.578000023845,response,,,,,,,,,,,,,,,continue,click button,,,153543.80000001192,153543.10000002384,136495.966,136504,136512.522,153545.644,,,,
trial,html.Screen,4_0_0,2023-11-15T18:42:18.792Z,,,,0,0.9752130063130028,-0.7248550908059443,,false,lh,7181.356,response,-1.075512775389519,0.8999999999999997,-0.8999999999999997,1.0454702683049502,0.8999999999999997,-0.8999999999999997,low,high,,ISIC_5190484.JPG,,ISIC_0033603.JPG,29,true,hh,keypress(i),100,false,160727.19999998808,160727,153529.237,153544,153545.644,160745.873,1,16,1,
sequence,flow.Sequence,4_0,2023-11-15T18:42:18.798Z,,,,,,,,,,7181.356,completion,,,,,,,low,high,,,,,,true,,,,false,160732.69999998808,160727,153529.237,153543.90000003576,153545.644,160745.873,1,16,,
trial,html.Screen,4_1_0,2023-11-15T18:42:26.513Z,,,,0,0.7016609136175869,-0.8694041951927121,,true,lh,7701.427000011929,response,-0.8472024037189965,0.8999999999999997,-0.8999999999999997,0.986370061404882,0.8999999999999997,-0.8999999999999997,low,high,,ISIC_0897876.JPG,,ISIC_0054355.JPG,29,true,lh,keypress(e),100,false,168447.60000002384,168447.30000001192,160728.985,160732.69999998808,160745.873,168478.999,1,16,2,
sequence,flow.Sequence,4_1,2023-11-15T18:42:26.513Z,,,,,,,,,,7701.427000011929,completion,,,,,,,low,high,,,,,,true,,,,false,168447.80000001192,168447.30000001192,160728.985,160732.69999998808,160745.873,168478.999,1,16,,
trial,html.Screen,4_2_0,2023-11-15T18:42:40.069Z,,,,0,0.7079689798840642,-0.9053957126199562,,true,lh,13524.700999988068,response,-0.9653573371180936,0.8999999999999997,-0.8999999999999997,0.854766800381037,0.8999999999999997,-0.8999999999999997,low,high,,ISIC_0058863.JPG,,ISIC_9640145.JPG,29,true,lh,keypress(e),100,false,182003.90000003576,182003.69999998808,168462.497,168447.90000003576,168478.999,182029.221,1,16,3,
sequence,flow.Sequence,4_2,2023-11-15T18:42:40.069Z,,,,,,,,,,13524.700999988068,completion,,,,,,,low,high,,,,,,true,,,,false,182004.19999998808,182003.69999998808,168462.497,168447.80000001192,168478.999,182029.221,1,16,,
trial,html.Screen,4_3_0,2023-11-15T18:42:47.960Z,,,,0,1.0926414044454305,-0.7741624649032207,,true,lh,7865.0790000119305,response,-0.930804711032185,0.8999999999999997,-0.8999999999999997,0.7294067991476295,0.8999999999999997,-0.8999999999999997,low,high,,ISIC_2355513.JPG,,ISIC_5067317.JPG,29,true,lh,keypress(e),100,false,189894.60000002384,189894.30000001192,182012.555,182004.19999998808,182029.221,189912.4,1,16,4,
sequence,flow.Sequence,4_3,2023-11-15T18:42:47.960Z,,,,,,,,,,7865.0790000119305,completion,,,,,,,low,high,,,,,,true,,,,false,189894.69999998808,189894.30000001192,182012.555,182004.19999998808,182029.221,189912.4,1,16,,
trial,html.Screen,4_4_0,2023-11-15T18:43:00.635Z,,,,0,0.8380649167521746,0.7135701709445428,,true,ll,12657.299999988085,response,-1.006091591942289,0.8999999999999997,-0.8999999999999997,-0.8039345947564286,0.8999999999999997,-0.8999999999999997,low,low,,ISIC_0010061.JPG,,ISIC_6993129.JPG,169,true,ll,keypress(f),100,false,202569.80000001192,202569.69999998808,189895.585,189894.80000001192,189912.4,202595.776,1,16,5,
sequence,flow.Sequence,4_4,2023-11-15T18:43:00.635Z,,,,,,,,,,12657.299999988085,completion,,,,,,,low,low,,,,,,true,,,,false,202570,202569.69999998808,189895.585,189894.80000001192,189912.4,202595.776,1,16,,
trial,html.Screen,4_5_0,2023-11-15T18:43:07.502Z,,,,0,0.7509882656706086,0.8368364447246962,,true,ll,6840.723999999987,response,-0.710846172611277,0.8999999999999997,-0.8999999999999997,-1.086313423336944,0.8999999999999997,-0.8999999999999997,low,low,,ISIC_0062005.JPG,,ISIC_0946923.JPG,169,true,ll,keypress(f),100,false,209436.69999998808,209436.5,202579.117,202570.10000002384,202595.776,209462.343,1,16,6,
sequence,flow.Sequence,4_5,2023-11-15T18:43:07.502Z,,,,,,,,,,6840.723999999987,completion,,,,,,,low,low,,,,,,true,,,,false,209436.90000003576,209436.5,202579.117,202570.10000002384,202595.776,209462.343,1,16,,
trial,html.Screen,4_6_0,2023-11-15T18:43:18.096Z,,,,0,0.9766645409582418,1.086167902767275,,true,ll,10568.657000000007,response,-1.0257168197307909,0.8999999999999997,-0.8999999999999997,-1.0403166496930305,0.8999999999999997,-0.8999999999999997,low,low,,ISIC_0011526.JPG,,ISIC_1690909.JPG,169,true,ll,keypress(f),100,false,220031.10000002384,220031,209445.844,209436.90000003576,209462.343,220062.516,1,16,7,
sequence,flow.Sequence,4_6,2023-11-15T18:43:18.097Z,,,,,,,,,,10568.657000000007,completion,,,,,,,low,low,,,,,,true,,,,false,220031.40000003576,220031,209445.844,209436.90000003576,209462.343,220062.516,1,16,,
trial,html.Screen,4_7_0,2023-11-15T18:43:25.621Z,,,,0,0.9179483069507334,0.8157414137646586,,true,ll,7492.983999999997,response,-1.0235331176078744,0.8999999999999997,-0.8999999999999997,-0.9330258572707198,0.8999999999999997,-0.8999999999999997,low,low,,ISIC_0032892.JPG,,ISIC_0026889.JPG,169,true,ll,keypress(f),100,false,227555.69999998808,227555.5,220045.589,220031.5,220062.516,227579.345,1,16,8,
sequence,flow.Sequence,4_7,2023-11-15T18:43:25.621Z,,,,,,,,,,7492.983999999997,completion,,,,,,,low,low,,,,,,true,,,,false,227555.90000003576,227555.5,220045.589,220031.5,220062.516,227579.345,1,16,,
trial,html.Screen,4_8_0,2023-11-15T18:43:33.017Z,,,,0,-0.9237241143561707,0.7102087839245512,,true,hl,7371.854999988078,response,0.8350129142228142,0.8999999999999997,-0.8999999999999997,-0.8172547818270586,0.8999999999999997,-0.8999999999999997,high,low,,ISIC_0058661.JPG,,ISIC_0301568.JPG,43,true,hl,keypress(j),100,false,234951.40000003576,234951.19999998808,227562.41,227555.90000003576,227579.345,234979.152,1,16,9,
sequence,flow.Sequence,4_8,2023-11-15T18:43:33.017Z,,,,,,,,,,7371.854999988078,completion,,,,,,,high,low,,,,,,true,,,,false,234951.60000002384,234951.19999998808,227562.41,227555.90000003576,227579.345,234979.152,1,16,,
trial,html.Screen,4_9_0,2023-11-15T18:43:36.843Z,,,,0,-0.7308116448711435,0.908713834988551,,true,hl,3798.847999999998,response,0.7872534775441857,0.8999999999999997,-0.8999999999999997,-0.8441107693833454,0.8999999999999997,-0.8999999999999997,high,low,,ISIC_7811951.JPG,,ISIC_0028788.JPG,43,true,hl,keypress(j),100,false,238778.19999998808,238778,234962.301,234951.60000002384,234979.152,238795.835,1,16,10,
sequence,flow.Sequence,4_9,2023-11-15T18:43:36.843Z,,,,,,,,,,3798.847999999998,completion,,,,,,,high,low,,,,,,true,,,,false,238778.30000001192,238778,234962.301,234951.60000002384,234979.152,238795.835,1,16,,
trial,html.Screen,4_10_0,2023-11-15T18:43:41.838Z,,,,0,-0.8830264383952469,0.8635562538060516,,true,hl,4977.165000000008,response,0.8165346395107898,0.8999999999999997,-0.8999999999999997,-0.7657798385266591,0.8999999999999997,-0.8999999999999997,high,low,,ISIC_0032258.JPG,,ISIC_2283628.JPG,43,true,hl,keypress(j),100,false,243773.10000002384,243773,238778.943,238778.40000003576,238795.835,243795.555,1,16,11,
sequence,flow.Sequence,4_10,2023-11-15T18:43:41.839Z,,,,,,,,,,4977.165000000008,completion,,,,,,,high,low,,,,,,true,,,,false,243773.30000001192,243773,238778.943,238778.40000003576,238795.835,243795.555,1,16,,
trial,html.Screen,4_11_0,2023-11-15T18:43:47.682Z,,,,0,-0.8075741539776473,0.7326891894107508,,true,hl,5820.84500003577,response,0.8067627078956657,0.8999999999999997,-0.8999999999999997,-0.7115865750196155,0.8999999999999997,-0.8999999999999997,high,low,,ISIC_3428523.JPG,,ISIC_0010014.JPG,43,true,hl,keypress(j),100,false,249616.69999998808,249616.40000003576,243779.062,243773.40000003576,243795.555,249645.981,1,16,12,
sequence,flow.Sequence,4_11,2023-11-15T18:43:47.682Z,,,,,,,,,,5820.84500003577,completion,,,,,,,high,low,,,,,,true,,,,false,249616.80000001192,249616.40000003576,243779.062,243773.30000001192,243795.555,249645.981,1,16,,
trial,html.Screen,4_12_0,2023-11-15T18:43:57.269Z,,,,0,-0.8664556873113695,-0.9753511680199736,,true,hh,9557.819000011921,response,0.7648337515968654,0.8999999999999997,-0.8999999999999997,1.0074582761138169,0.8999999999999997,-0.8999999999999997,high,high,,ISIC_0340453.JPG,,ISIC_0011422.JPG,184,true,hh,keypress(i),100,false,259204,259203.80000001192,249629.134,249616.90000003576,249645.981,259229.145,1,16,13,
sequence,flow.Sequence,4_12,2023-11-15T18:43:57.269Z,,,,,,,,,,9557.819000011921,completion,,,,,,,high,high,,,,,,true,,,,false,259204.10000002384,259203.80000001192,249629.134,249616.90000003576,249645.981,259229.145,1,16,,
trial,html.Screen,4_13_0,2023-11-15T18:44:04.216Z,,,,0,-0.8379442136072591,-0.8260692529258827,,true,hh,6921.655000011931,response,0.7509882656706086,0.8999999999999997,-0.8999999999999997,0.8368364447246962,0.8999999999999997,-0.8999999999999997,high,high,,ISIC_0013213.JPG,,ISIC_0062005.JPG,184,true,hh,keypress(i),100,false,266151,266150.8000000119,259212.387,259204.19999998808,259229.145,266178.848,1,16,14,
sequence,flow.Sequence,4_13,2023-11-15T18:44:04.216Z,,,,,,,,,,6921.655000011931,completion,,,,,,,high,high,,,,,,true,,,,false,266151.10000002384,266150.8000000119,259212.387,259204.10000002384,259229.145,266178.848,1,16,,
trial,html.Screen,4_14_0,2023-11-15T18:44:09.549Z,,,,0,-0.8071149391753215,-0.9485840589720004,,true,hh,5304.252000023844,response,0.8689339070965472,0.8999999999999997,-0.8999999999999997,0.9278851723466304,0.8999999999999997,-0.8999999999999997,high,high,,ISIC_2784686.JPG,,ISIC_2221217.JPG,184,true,hh,keypress(i),100,false,271483.40000003576,271483.10000002384,266162.18,266151.1999999881,266178.848,271512.35,1,16,15,
sequence,flow.Sequence,4_14,2023-11-15T18:44:09.549Z,,,,,,,,,,5304.252000023844,completion,,,,,,,high,high,,,,,,true,,,,false,271483.5,271483.10000002384,266162.18,266151.1999999881,266178.848,271512.35,1,16,,
trial,html.Screen,4_15_0,2023-11-15T18:44:15.728Z,,,,0,-0.9253985598518948,-0.8253785649083512,,true,hh,6149.650000000023,response,1.0712988318327483,0.8999999999999997,-0.8999999999999997,0.813758249035235,0.8999999999999997,-0.8999999999999997,high,high,,ISIC_7509837.JPG,,ISIC_5762714.JPG,184,true,hh,keypress(i),100,false,277662.3000000119,277662,271495.778,271483.60000002384,271512.35,277678.989,1,16,16,
sequence,flow.Sequence,4_15,2023-11-15T18:44:15.728Z,,,,,,,,,,6149.650000000023,completion,,,,,,,high,high,,,,,,true,,,,false,277662.5,277662,271495.778,271483.60000002384,271512.35,277678.989,1,16,,
demonstration_loop,flow.Loop,4,2023-11-15T18:44:15.728Z,,,,,,,,,,124116.356,completion,,,,,,,,,,,,,,true,,,,false,277662.6999999881,277662,153529.237,153543.90000003576,153545.644,277678.989,1,16,,
practice_instructions,html.Screen,5,2023-11-15T18:44:38.831Z,,,,,,,,,,23079.91100003576,response,,,,,,,,,,,,,,,continue,click button,,,300765.40000003576,300758.90000003576,277662.21,277662.6999999881,277678.989,300762.13,,,,
trial,html.Screen,6_0_0,2023-11-15T18:44:49.814Z,,,,1,0.7271544837339796,-0.9127368834814228,,,,11016.81699999998,timeout,-0.7246771568562105,0.8999999999999997,-0.8999999999999997,0.9161385080362604,0.8999999999999997,-0.8999999999999997,low,high,,ISIC_4129321.JPG,,ISIC_0028225.JPG,29,true,,,0,false,311748.40000003576,311748.3000000119,300745.62,300765.60000002384,300762.13,311778.947,1,40,1,
sequence,flow.Sequence,6_0,2023-11-15T18:44:49.814Z,,,,,,,,,,10986.170000011916,completion,,,,,,,low,high,,,,,,true,,,,false,311748.5,311748.3000000119,300745.62,300765.60000002384,300762.13,311778.947,1,40,,
trial,html.Screen,6_1_0,2023-11-15T18:45:00.828Z,,,,1,0.7398963495705471,0.7880820832288019,,,,11016.50800000003,timeout,-0.9966799416482932,0.8999999999999997,-0.8999999999999997,-0.7513707283535042,0.8999999999999997,-0.8999999999999997,low,low,,ISIC_0011778.JPG,,ISIC_7489895.JPG,169,true,,,0,false,322762.6999999881,322762.60000002384,311762.398,311748.5,311778.947,322795.455,1,40,2,
sequence,flow.Sequence,6_1,2023-11-15T18:45:00.828Z,,,,,,,,,,10983.653000023856,completion,,,,,,,low,low,,,,,,true,,,,false,322762.90000003576,322762.60000002384,311762.398,311748.5,311778.947,322795.455,1,40,,
trial,html.Screen,6_2_0,2023-11-15T18:45:02.882Z,,,,1,-0.9653573371180936,0.854766800381037,,false,hl,2020.8450000119046,response,0.9662688541319592,0.8999999999999997,-0.8999999999999997,-0.929746784178986,0.8999999999999997,-0.8999999999999997,high,low,,ISIC_9640145.JPG,,ISIC_0011077.JPG,43,true,lh,keypress(e),0,false,324816.5,324816.3000000119,322778.793,322762.90000003576,322795.455,324829.214,1,40,3,
sequence,flow.Sequence,6_2,2023-11-15T18:45:02.882Z,,,,,,,,,,2020.8450000119046,completion,,,,,,,high,low,,,,,,true,,,,false,324816.60000002384,324816.3000000119,322778.793,322762.90000003576,322795.455,324829.214,1,40,,
trial,html.Screen,6_3_0,2023-11-15T18:45:04.786Z,,,,1,1.0789425085962503,0.7554447571704619,,false,ll,1891.2860000000219,response,-0.764893988285809,0.8999999999999997,-0.8999999999999997,-1.055978100098093,0.8999999999999997,-0.8999999999999997,low,low,,ISIC_9797578.JPG,,ISIC_2077116.JPG,169,true,hh,keypress(i),0,false,326720.60000002384,326720.5,324812.292,324816.60000002384,324829.214,326728.854,1,40,4,
sequence,flow.Sequence,6_3,2023-11-15T18:45:04.786Z,,,,,,,,,,1891.2860000000219,completion,,,,,,,low,low,,,,,,true,,,,false,326720.6999999881,326720.5,324812.292,324816.60000002384,324829.214,326728.854,1,40,,
trial,html.Screen,6_4_0,2023-11-15T18:45:07.890Z,,,,1,0.7396001261916139,-0.9901017340796716,,false,lh,3095.74600002385,response,-0.8472024037189965,0.8999999999999997,-0.8999999999999997,0.986370061404882,0.8999999999999997,-0.8999999999999997,low,high,,ISIC_8679617.JPG,,ISIC_0054355.JPG,29,true,hl,keypress(j),0,false,329824.60000002384,329824.60000002384,326712.201,326720.6999999881,326728.854,329828.765,1,40,5,
sequence,flow.Sequence,6_4,2023-11-15T18:45:07.890Z,,,,,,,,,,3095.74600002385,completion,,,,,,,low,high,,,,,,true,,,,false,329824.8000000119,329824.60000002384,326712.201,326720.6999999881,326728.854,329828.765,1,40,,
trial,html.Screen,6_5_0,2023-11-15T18:45:11.233Z,,,,1,0.7863202439789435,1.0644234101027583,,false,ll,3339.335000023828,response,-0.7629009971296202,0.8999999999999997,-0.8999999999999997,-0.961622576439298,0.8999999999999997,-0.8999999999999997,low,low,,ISIC_0071576.JPG,,ISIC_4237064.JPG,169,true,lh,keypress(e),0,false,333168.1999999881,333168.10000002384,329812.018,329824.8000000119,329828.765,333179.033,1,40,6,
sequence,flow.Sequence,6_5,2023-11-15T18:45:11.233Z,,,,,,,,,,3339.335000023828,completion,,,,,,,low,low,,,,,,true,,,,false,333168.1999999881,333168.10000002384,329812.018,329824.8000000119,329828.765,333179.033,1,40,,
trial,html.Screen,6_6_0,2023-11-15T18:45:16.050Z,,,,1,1.0000402707486682,0.7041144799770903,,false,ll,4805.567000023846,response,-0.8351560316519383,0.8999999999999997,-0.8999999999999997,-0.7085394211669206,0.8999999999999997,-0.8999999999999997,low,low,,ISIC_0068798.JPG,,ISIC_5795486.JPG,169,true,lh,keypress(e),0,false,337984.6999999881,337984.60000002384,333162.189,333168.3000000119,333179.033,337995.619,1,40,7,
sequence,flow.Sequence,6_6,2023-11-15T18:45:16.050Z,,,,,,,,,,4805.567000023846,completion,,,,,,,low,low,,,,,,true,,,,false,337984.8000000119,337984.60000002384,333162.189,333168.1999999881,333179.033,337995.619,1,40,,
trial,html.Screen,6_7_0,2023-11-15T18:45:18.977Z,,,,1,-0.9691635021928308,-1.0761216763182415,,false,hh,2916.481000023836,response,0.726088143883226,0.8999999999999997,-0.8999999999999997,0.9195149254716736,0.8999999999999997,-0.8999999999999997,high,high,,ISIC_8169564.JPG,,ISIC_3445468.JPG,184,true,hl,keypress(j),0,false,340912.1999999881,340912.10000002384,337978.815,337984.8000000119,337995.619,340929.014,1,40,8,
sequence,flow.Sequence,6_7,2023-11-15T18:45:18.977Z,,,,,,,,,,2916.481000023836,completion,,,,,,,high,high,,,,,,true,,,,false,340912.3000000119,340912.10000002384,337978.815,337984.8000000119,337995.619,340929.014,1,40,,
trial,html.Screen,6_8_0,2023-11-15T18:45:21.954Z,,,,1,-1.0348000491894005,-0.7770667763745356,,true,hh,2959.4859999999753,response,0.8706540396413559,0.8999999999999997,-0.8999999999999997,0.8221719983776423,0.8999999999999997,-0.8999999999999997,high,high,,ISIC_2565154.JPG,,ISIC_0067953.JPG,184,true,hh,keypress(i),0,false,343888.60000002384,343888.5,340912.28,340912.40000003576,340929.014,343895.593,1,40,9,
sequence,flow.Sequence,6_8,2023-11-15T18:45:21.954Z,,,,,,,,,,2959.4859999999753,completion,,,,,,,high,high,,,,,,true,,,,false,343888.6999999881,343888.5,340912.28,340912.3000000119,340929.014,343895.593,1,40,,
trial,html.Screen,6_9_0,2023-11-15T18:45:25.490Z,,,,1,0.7236002097394486,-0.7895205994309619,,false,lh,3528.6069999880856,response,-0.8926515927689261,0.8999999999999997,-0.8999999999999997,0.7935960767768927,0.8999999999999997,-0.8999999999999997,low,high,,ISIC_0413563.JPG,,ISIC_8901371.JPG,29,true,hl,keypress(j),0,false,347424.3000000119,347424.1999999881,343878.976,343888.6999999881,343895.593,347428.79,1,40,10,
sequence,flow.Sequence,6_9,2023-11-15T18:45:25.490Z,,,,,,,,,,3528.6069999880856,completion,,,,,,,low,high,,,,,,true,,,,false,347424.5,347424.1999999881,343878.976,343888.6999999881,343895.593,347428.79,1,40,,
trial,html.Screen,6_10_0,2023-11-15T18:45:29.266Z,,,,1,-1.0667712753225895,-0.7415337434376102,,false,hh,3771.810000023863,response,0.9522933323146734,0.8999999999999997,-0.8999999999999997,0.7143840288172854,0.8999999999999997,-0.8999999999999997,high,high,,ISIC_8626941.JPG,,ISIC_0011349.JPG,184,true,hl,keypress(j),0,false,351200.6999999881,351200.60000002384,347412.153,347424.5,347428.79,351212.351,1,40,11,
sequence,flow.Sequence,6_10,2023-11-15T18:45:29.266Z,,,,,,,,,,3771.810000023863,completion,,,,,,,high,high,,,,,,true,,,,false,351200.8000000119,351200.60000002384,347412.153,347424.5,347428.79,351212.351,1,40,,
trial,html.Screen,6_11_0,2023-11-15T18:45:34.690Z,,,,1,-0.8538847735848973,-0.979053170316694,,true,hh,5412.049000035739,response,0.9984751310732674,0.8999999999999997,-0.8999999999999997,0.7993808609040723,0.8999999999999997,-0.8999999999999997,high,high,,ISIC_1269461.JPG,,ISIC_0032510.JPG,184,true,hh,keypress(i),0,false,356624.5,356624.40000003576,351195.484,351200.8000000119,351212.351,356628.763,1,40,12,
sequence,flow.Sequence,6_11,2023-11-15T18:45:34.690Z,,,,,,,,,,5412.049000035739,completion,,,,,,,high,high,,,,,,true,,,,false,356624.5,356624.40000003576,351195.484,351200.8000000119,351212.351,356628.763,1,40,,
trial,html.Screen,6_12_0,2023-11-15T18:45:37.394Z,,,,1,-0.8372379817368715,-0.8148867547702584,,true,hh,2699.6370000357856,response,0.7398963495705471,0.8999999999999997,-0.8999999999999997,0.7880820832288019,0.8999999999999997,-0.8999999999999997,high,high,,ISIC_0024277.JPG,,ISIC_0011778.JPG,184,true,hh,keypress(i),0,false,359328.5,359328.40000003576,356612.103,356624.60000002384,356628.763,359345.661,1,40,13,
sequence,flow.Sequence,6_12,2023-11-15T18:45:37.394Z,,,,,,,,,,2699.6370000357856,completion,,,,,,,high,high,,,,,,true,,,,false,359328.5,359328.40000003576,356612.103,356624.60000002384,356628.763,359345.661,1,40,,
trial,html.Screen,6_13_0,2023-11-15T18:45:40.738Z,,,,1,1.0063353542987443,0.9468739614220908,,false,ll,3326.838999999978,response,-0.785584495352475,0.8999999999999997,-0.8999999999999997,-1.042144559030568,0.8999999999999997,-0.8999999999999997,low,low,,ISIC_0072382.JPG,,ISIC_0004099.JPG,169,true,hl,keypress(j),0,false,362672.5,362672.5,359328.718,359328.60000002384,359345.661,362678.82,1,40,14,
sequence,flow.Sequence,6_13,2023-11-15T18:45:40.738Z,,,,,,,,,,3326.838999999978,completion,,,,,,,low,low,,,,,,true,,,,false,362672.6999999881,362672.5,359328.718,359328.60000002384,359345.661,362678.82,1,40,,
trial,html.Screen,6_14_0,2023-11-15T18:45:43.026Z,,,,1,0.9662688541319592,-0.929746784178986,,false,lh,2281.580000035756,response,-1.0369885917487718,0.8999999999999997,-0.8999999999999997,0.8486937878412699,0.8999999999999997,-0.8999999999999997,low,high,,ISIC_0011077.JPG,,ISIC_6917681.JPG,29,true,hh,keypress(i),0,false,364960.5,364960.40000003576,362662.148,362672.8000000119,362678.82,364962.055,1,40,15,
sequence,flow.Sequence,6_14,2023-11-15T18:45:43.026Z,,,,,,,,,,2281.580000035756,completion,,,,,,,low,high,,,,,,true,,,,false,364960.6999999881,364960.40000003576,362662.148,362672.8000000119,362678.82,364962.055,1,40,,
trial,html.Screen,6_15_0,2023-11-15T18:45:46.305Z,,,,1,-0.8719231363109603,0.7704280220140033,,false,hl,3277.545000023849,response,0.7629099401226335,0.8999999999999997,-0.8999999999999997,-0.8515956627075536,0.8999999999999997,-0.8999999999999997,high,low,,ISIC_0029453.JPG,,ISIC_0028718.JPG,43,true,hh,keypress(i),0,false,368239.6999999881,368239.60000002384,364945.449,364960.6999999881,364962.055,368245.414,1,40,16,
sequence,flow.Sequence,6_15,2023-11-15T18:45:46.305Z,,,,,,,,,,3277.545000023849,completion,,,,,,,high,low,,,,,,true,,,,false,368239.8000000119,368239.60000002384,364945.449,364960.6999999881,364962.055,368245.414,1,40,,
trial,html.Screen,6_16_0,2023-11-15T18:45:51.010Z,,,,1,-1.0211808747755002,-0.9580728810269548,,false,hh,4698.886000011931,response,0.7208227349054466,0.8999999999999997,-0.8999999999999997,0.8473281312318933,0.8999999999999997,-0.8999999999999997,high,high,,ISIC_1211506.JPG,,ISIC_0032181.JPG,184,true,hl,keypress(j),0,false,372944.40000003576,372944.3000000119,368228.873,368239.8000000119,368245.414,372962.585,1,40,17,
sequence,flow.Sequence,6_16,2023-11-15T18:45:51.010Z,,,,,,,,,,4698.886000011931,completion,,,,,,,high,high,,,,,,true,,,,false,372944.5,372944.3000000119,368228.873,368239.8000000119,368245.414,372962.585,1,40,,
trial,html.Screen,6_17_0,2023-11-15T18:45:53.170Z,,,,1,0.9737567085091248,0.9013996680304692,,false,ll,2141.614999988058,response,-0.7936051642828523,0.8999999999999997,-0.8999999999999997,-0.7963514435349658,0.8999999999999997,-0.8999999999999997,low,low,,ISIC_2483825.JPG,,ISIC_0027031.JPG,169,true,hh,keypress(i),0,false,375104.40000003576,375104.1999999881,372929.053,372944.5,372962.585,375112.06,1,40,18,
sequence,flow.Sequence,6_17,2023-11-15T18:45:53.170Z,,,,,,,,,,2141.614999988058,completion,,,,,,,low,low,,,,,,true,,,,false,375104.5,375104.1999999881,372929.053,372944.5,372962.585,375112.06,1,40,,
trial,html.Screen,6_18_0,2023-11-15T18:45:55.186Z,,,,1,-0.7411887874358276,0.7869222465141029,,true,hl,2008.2400000119233,response,0.7612472458680769,0.8999999999999997,-0.8999999999999997,-0.729960233427452,0.8999999999999997,-0.8999999999999997,high,low,,ISIC_6255113.JPG,,ISIC_5307210.JPG,43,true,hl,keypress(j),0,false,377120.40000003576,377120.3000000119,375095.601,375104.5,375112.06,377128.819,1,40,19,
sequence,flow.Sequence,6_18,2023-11-15T18:45:55.186Z,,,,,,,,,,2008.2400000119233,completion,,,,,,,high,low,,,,,,true,,,,false,377120.5,377120.3000000119,375095.601,375104.5,375112.06,377128.819,1,40,,
trial,html.Screen,6_19_0,2023-11-15T18:45:57.266Z,,,,1,0.8724853443422199,0.9014790323337478,,false,ll,2071.3809999880614,response,-0.7276136672767647,0.8999999999999997,-0.8999999999999997,-0.9132548085712324,0.8999999999999997,-0.8999999999999997,low,low,,ISIC_6278273.JPG,,ISIC_0007740.JPG,169,true,lh,keypress(e),0,false,379200.40000003576,379200.1999999881,377112.236,377120.60000002384,377128.819,379212.235,1,40,20,
sequence,flow.Sequence,6_19,2023-11-15T18:45:57.266Z,,,,,,,,,,2071.3809999880614,completion,,,,,,,low,low,,,,,,true,,,,false,379200.5,379200.1999999881,377112.236,377120.60000002384,377128.819,379212.235,1,40,,
trial,html.Screen,6_20_0,2023-11-15T18:45:59.810Z,,,,1,0.8067627078956657,-0.7115865750196155,,true,lh,2532.265000000014,response,-0.8110121381849364,0.8999999999999997,-0.8999999999999997,0.7563142141851558,0.8999999999999997,-0.8999999999999997,low,high,,ISIC_0010014.JPG,,ISIC_0033605.JPG,29,true,lh,keypress(e),0,false,381744.60000002384,381744.5,379195.486,379200.5,379212.235,381762.595,1,40,21,
sequence,flow.Sequence,6_20,2023-11-15T18:45:59.810Z,,,,,,,,,,2532.265000000014,completion,,,,,,,low,high,,,,,,true,,,,false,381744.6999999881,381744.5,379195.486,379200.5,379212.235,381762.595,1,40,,
trial,html.Screen,6_21_0,2023-11-15T18:46:02.754Z,,,,1,1.0788024398087033,-0.9911875460374616,,false,lh,2925.8050000357907,response,-0.7010101889216934,0.8999999999999997,-0.8999999999999997,0.9022783418178474,0.8999999999999997,-0.8999999999999997,low,high,,ISIC_5951430.JPG,,ISIC_0057858.JPG,29,true,hl,keypress(j),0,false,384688.60000002384,384688.40000003576,381728.925,381744.6999999881,381762.595,384695.547,1,40,22,
sequence,flow.Sequence,6_21,2023-11-15T18:46:02.754Z,,,,,,,,,,2925.8050000357907,completion,,,,,,,low,high,,,,,,true,,,,false,384688.60000002384,384688.40000003576,381728.925,381744.6999999881,381762.595,384695.547,1,40,,
trial,html.Screen,6_22_0,2023-11-15T18:46:05.426Z,,,,1,-0.7280191393710038,-0.8282491311530128,,false,hh,2664.8530000357423,response,0.9740596249572724,0.8999999999999997,-0.8999999999999997,0.915332132320829,0.8999999999999997,-0.8999999999999997,high,high,,ISIC_8374889.JPG,,ISIC_9053910.JPG,184,true,hl,keypress(j),0,false,387360.40000003576,387360.40000003576,384678.748,384688.60000002384,384695.547,387362.027,1,40,23,
sequence,flow.Sequence,6_22,2023-11-15T18:46:05.426Z,,,,,,,,,,2664.8530000357423,completion,,,,,,,high,high,,,,,,true,,,,false,387360.60000002384,387360.40000003576,384678.748,384688.60000002384,384695.547,387362.027,1,40,,
trial,html.Screen,6_23_0,2023-11-15T18:46:07.874Z,,,,1,-0.7883321712536753,1.0011430756825364,,false,hl,2446.373000035761,response,0.7396001261916139,0.8999999999999997,-0.8999999999999997,-0.9901017340796716,0.8999999999999997,-0.8999999999999997,high,low,,ISIC_9828853.JPG,,ISIC_8679617.JPG,43,true,hh,keypress(i),0,false,389808.5,389808.40000003576,387345.316,387360.60000002384,387362.027,389812.033,1,40,24,
sequence,flow.Sequence,6_23,2023-11-15T18:46:07.874Z,,,,,,,,,,2446.373000035761,completion,,,,,,,high,low,,,,,,true,,,,false,389808.60000002384,389808.40000003576,387345.316,387360.60000002384,387362.027,389812.033,1,40,,
trial,html.Screen,6_24_0,2023-11-15T18:46:10.898Z,,,,1,0.8443403196524287,-0.8858525429102605,,true,lh,3020.367000035767,response,-0.7088606387153258,0.8999999999999997,-0.8999999999999997,0.948610930521224,0.8999999999999997,-0.8999999999999997,low,high,,ISIC_8777813.JPG,,ISIC_0026293.JPG,29,true,lh,keypress(e),0,false,392832.5,392832.40000003576,389795.513,389808.6999999881,389812.033,392845.383,1,40,25,
sequence,flow.Sequence,6_24,2023-11-15T18:46:10.898Z,,,,,,,,,,3020.367000035767,completion,,,,,,,low,high,,,,,,true,,,,false,392832.60000002384,392832.40000003576,389795.513,389808.6999999881,389812.033,392845.383,1,40,,
trial,html.Screen,6_25_0,2023-11-15T18:46:14.882Z,,,,1,-0.8402120256990608,-0.8954736909537534,,false,hh,3971.1170000000275,response,0.8735012360137532,0.8999999999999997,-0.8999999999999997,1.0448182576694087,0.8999999999999997,-0.8999999999999997,high,high,,ISIC_0580054.JPG,,ISIC_0010267.JPG,184,true,hl,keypress(j),0,false,396816.60000002384,396816.5,392828.765,392832.6999999881,392845.383,396828.9,1,40,26,
sequence,flow.Sequence,6_25,2023-11-15T18:46:14.882Z,,,,,,,,,,3971.1170000000275,completion,,,,,,,high,high,,,,,,true,,,,false,396816.6999999881,396816.5,392828.765,392832.6999999881,392845.383,396828.9,1,40,,
trial,html.Screen,6_26_0,2023-11-15T18:46:19.202Z,,,,1,0.75996191963944,0.892224452814347,,false,ll,4307.400000011898,response,-0.8153135636447707,0.8999999999999997,-0.8999999999999997,-0.9269022323245946,0.8999999999999997,-0.8999999999999997,low,low,,ISIC_0064997.JPG,,ISIC_5239607.JPG,169,true,lh,keypress(e),0,false,401136.40000003576,401136.3000000119,396812.354,396816.8000000119,396828.9,401145.791,1,40,27,
sequence,flow.Sequence,6_26,2023-11-15T18:46:19.202Z,,,,,,,,,,4307.400000011898,completion,,,,,,,low,low,,,,,,true,,,,false,401136.60000002384,401136.3000000119,396812.354,396816.8000000119,396828.9,401145.791,1,40,,
trial,html.Screen,6_27_0,2023-11-15T18:46:24.994Z,,,,1,0.8110369560965408,0.7091309063434607,,true,ll,5782.609000035736,response,-0.7193286557553458,0.8999999999999997,-0.8999999999999997,-1.0636787813411093,0.8999999999999997,-0.8999999999999997,low,low,,ISIC_0030901.JPG,,ISIC_9690371.JPG,169,true,ll,keypress(f),0,false,406928.5,406928.40000003576,401128.543,401136.60000002384,401145.791,406945.54,1,40,28,
sequence,flow.Sequence,6_27,2023-11-15T18:46:24.994Z,,,,,,,,,,5782.609000035736,completion,,,,,,,low,low,,,,,,true,,,,false,406928.60000002384,406928.40000003576,401128.543,401136.60000002384,401145.791,406945.54,1,40,,
trial,html.Screen,6_28_0,2023-11-15T18:46:29.474Z,,,,1,0.7305475296009624,-0.7442779237098178,,true,lh,4462.560000023863,response,-0.8954803463300026,0.8999999999999997,-0.8999999999999997,0.7071819047913821,0.8999999999999997,-0.8999999999999997,low,high,,ISIC_7266604.JPG,,ISIC_0033071.JPG,29,true,lh,keypress(e),0,false,411408.3000000119,411408.10000002384,406928.606,406928.60000002384,406945.54,411411.975,1,40,29,
sequence,flow.Sequence,6_28,2023-11-15T18:46:29.474Z,,,,,,,,,,4462.560000023863,completion,,,,,,,low,high,,,,,,true,,,,false,411408.40000003576,411408.10000002384,406928.606,406928.60000002384,406945.54,411411.975,1,40,,
trial,html.Screen,6_29_0,2023-11-15T18:46:31.106Z,,,,1,-0.7010101889216934,0.9022783418178474,,true,hl,1628.2249999881024,response,1.0685314915436992,0.8999999999999997,-0.8999999999999997,-0.8203833713472237,0.8999999999999997,-0.8999999999999997,high,low,,ISIC_0057858.JPG,,ISIC_0029374.JPG,43,true,hl,keypress(j),0,false,413040.3000000119,413040.1999999881,411395.441,411408.5,411411.975,413045.507,1,40,30,
sequence,flow.Sequence,6_29,2023-11-15T18:46:31.106Z,,,,,,,,,,1628.2249999881024,completion,,,,,,,high,low,,,,,,true,,,,false,413040.40000003576,413040.1999999881,411395.441,411408.5,411411.975,413045.507,1,40,,
trial,html.Screen,6_30_0,2023-11-15T18:46:32.434Z,,,,1,0.9633172970727744,-0.8472659344792351,,true,lh,1322.7930000119377,response,-0.84290786638064,0.8999999999999997,-0.8999999999999997,0.7332521189371746,0.8999999999999997,-0.8999999999999997,low,high,,ISIC_0067172.JPG,,ISIC_4708642.JPG,29,true,lh,keypress(e),0,false,414368.40000003576,414368.3000000119,413029.093,413040.40000003576,413045.507,414378.832,1,40,31,
sequence,flow.Sequence,6_30,2023-11-15T18:46:32.434Z,,,,,,,,,,1322.7930000119377,completion,,,,,,,low,high,,,,,,true,,,,false,414368.5,414368.3000000119,413029.093,413040.40000003576,413045.507,414378.832,1,40,,
trial,html.Screen,6_31_0,2023-11-15T18:46:34.225Z,,,,1,-1.0257168197307909,-1.0403166496930305,,true,hh,1780.568000035768,response,0.8064929303349243,0.8999999999999997,-0.8999999999999997,0.9193468294804482,0.8999999999999997,-0.8999999999999997,high,high,,ISIC_1690909.JPG,,ISIC_0060968.JPG,184,true,hh,keypress(i),0,false,416159.5,416159.40000003576,414361.984,414368.5,414378.832,416162.015,1,40,32,
sequence,flow.Sequence,6_31,2023-11-15T18:46:34.225Z,,,,,,,,,,1780.568000035768,completion,,,,,,,high,high,,,,,,true,,,,false,416159.60000002384,416159.40000003576,414361.984,414368.5,414378.832,416162.015,1,40,,
trial,html.Screen,6_32_0,2023-11-15T18:46:35.762Z,,,,1,-0.8472024037189965,0.986370061404882,,false,hl,1534.3850000357488,response,0.7236002097394486,0.8999999999999997,-0.8999999999999997,-0.7895205994309619,0.8999999999999997,-0.8999999999999997,high,low,,ISIC_0054355.JPG,,ISIC_0413563.JPG,43,true,ll,keypress(f),0,false,417696.5,417696.40000003576,416145.411,416159.6999999881,416162.015,417712.265,1,40,33,
sequence,flow.Sequence,6_32,2023-11-15T18:46:35.762Z,,,,,,,,,,1534.3850000357488,completion,,,,,,,high,low,,,,,,true,,,,false,417696.60000002384,417696.40000003576,416145.411,416159.6999999881,416162.015,417712.265,1,40,,
trial,html.Screen,6_33_0,2023-11-15T18:46:38.145Z,,,,1,-1.0329549150636406,1.01584100839286,,true,hl,2367.135000035749,response,0.7305475296009624,0.8999999999999997,-0.8999999999999997,-0.7442779237098178,0.8999999999999997,-0.8999999999999997,high,low,,ISIC_0054670.JPG,,ISIC_7266604.JPG,43,true,hl,keypress(j),0,false,420079.40000003576,420079.40000003576,417695.337,417696.60000002384,417712.265,420095.554,1,40,34,
sequence,flow.Sequence,6_33,2023-11-15T18:46:38.145Z,,,,,,,,,,2367.135000035749,completion,,,,,,,high,low,,,,,,true,,,,false,420079.60000002384,420079.40000003576,417695.337,417696.60000002384,417712.265,420095.554,1,40,,
trial,html.Screen,6_34_0,2023-11-15T18:46:39.698Z,,,,1,-0.8828738626295417,0.8288177599439582,,true,hl,1536.5460000238381,response,0.7396001261916139,0.8999999999999997,-0.8999999999999997,-0.9901017340796716,0.8999999999999997,-0.8999999999999997,high,low,,ISIC_0056041.JPG,,ISIC_8679617.JPG,43,true,hl,keypress(j),0,false,421632.1999999881,421632.10000002384,420078.668,420079.60000002384,420095.554,421645.554,1,40,35,
sequence,flow.Sequence,6_34,2023-11-15T18:46:39.698Z,,,,,,,,,,1536.5460000238381,completion,,,,,,,high,low,,,,,,true,,,,false,421632.40000003576,421632.10000002384,420078.668,420079.60000002384,420095.554,421645.554,1,40,,
trial,html.Screen,6_35_0,2023-11-15T18:46:41.282Z,,,,1,0.7100921215252844,0.9367637732363708,,true,ll,1570.7460000119172,response,-0.7667753928027862,0.8999999999999997,-0.8999999999999997,-0.7242189504165079,0.8999999999999997,-0.8999999999999997,low,low,,ISIC_4407580.JPG,,ISIC_4298624.JPG,169,true,ll,keypress(f),0,false,423216.40000003576,423216.3000000119,421628.91,421632.5,421645.554,423228.833,1,40,36,
sequence,flow.Sequence,6_35,2023-11-15T18:46:41.282Z,,,,,,,,,,1570.7460000119172,completion,,,,,,,low,low,,,,,,true,,,,false,423216.5,423216.3000000119,421628.91,421632.5,421645.554,423228.833,1,40,,
trial,html.Screen,6_36_0,2023-11-15T18:46:44.466Z,,,,1,-1.0122348575830964,-1.007833368115011,,true,hh,3171.0670000357786,response,0.9665123004833394,0.8999999999999997,-0.8999999999999997,1.0732323917096356,0.8999999999999997,-0.8999999999999997,high,high,,ISIC_8145260.JPG,,ISIC_3684488.JPG,184,true,hh,keypress(i),0,false,426400,426399.90000003576,423212.115,423216.5,423228.833,426411.991,1,40,37,
sequence,flow.Sequence,6_36,2023-11-15T18:46:44.466Z,,,,,,,,,,3171.0670000357786,completion,,,,,,,high,high,,,,,,true,,,,false,426400.10000002384,426399.90000003576,423212.115,423216.5,423228.833,426411.991,1,40,,
trial,html.Screen,6_37_0,2023-11-15T18:46:45.794Z,,,,1,-0.8110121381849364,0.7563142141851558,,true,hl,1316.208999988099,response,0.8067627078956657,0.8999999999999997,-0.8999999999999997,-0.7115865750196155,0.8999999999999997,-0.8999999999999997,high,low,,ISIC_0033605.JPG,,ISIC_0010014.JPG,43,true,hl,keypress(j),0,false,427728.40000003576,427728.1999999881,426395.513,426400.10000002384,426411.991,427745.58,1,40,38,
sequence,flow.Sequence,6_37,2023-11-15T18:46:45.794Z,,,,,,,,,,1316.208999988099,completion,,,,,,,high,low,,,,,,true,,,,false,427728.40000003576,427728.1999999881,426395.513,426400.10000002384,426411.991,427745.58,1,40,,
trial,html.Screen,6_38_0,2023-11-15T18:46:47.106Z,,,,1,-0.930804711032185,0.7294067991476295,,true,hl,1294.8200000357465,response,0.7271544837339796,0.8999999999999997,-0.8999999999999997,-0.9127368834814228,0.8999999999999997,-0.8999999999999997,high,low,,ISIC_5067317.JPG,,ISIC_4129321.JPG,43,true,hl,keypress(j),0,false,429040.40000003576,429040.40000003576,427728.637,427728.5,427745.58,429045.407,1,40,39,
sequence,flow.Sequence,6_38,2023-11-15T18:46:47.106Z,,,,,,,,,,1294.8200000357465,completion,,,,,,,high,low,,,,,,true,,,,false,429040.5,429040.40000003576,427728.637,427728.5,427745.58,429045.407,1,40,,
trial,html.Screen,6_39_0,2023-11-15T18:46:48.514Z,,,,1,0.7723423895392068,-0.7630051745722757,,true,lh,1403.0929999999935,response,-0.789083277544982,0.8999999999999997,-0.8999999999999997,0.7172067273002093,0.8999999999999997,-0.8999999999999997,low,high,,ISIC_9694911.JPG,,ISIC_0011030.JPG,29,true,lh,keypress(e),0,false,430448.60000002384,430448.5,429028.914,429040.60000002384,429045.407,430462.159,1,40,40,
sequence,flow.Sequence,6_39,2023-11-15T18:46:48.514Z,,,,,,,,,,1403.0929999999935,completion,,,,,,,low,high,,,,,,true,,,,false,430448.6999999881,430448.5,429028.914,429040.5,429045.407,430462.159,1,40,,
practice_loop,flow.Loop,6,2023-11-15T18:46:48.514Z,,,,,,,,,,129686.37,completion,,,,,,,,,,,,,,true,,,,false,430448.8000000119,430448.5,300745.62,300765.5,300762.13,430462.159,1,40,,
stair_instructions,html.Screen,7,2023-11-15T18:46:51.929Z,,,,,,,,,,3400.641000011936,response,,,,,,,,,,,,,,,continue,click button,,,433863.40000003576,433862.8000000119,430445.413,430448.8000000119,430462.159,433878.665,,,,
trial,html.Screen,8_0_0,2023-11-15T18:47:00.037Z,,,,2,-0.0524649813000588,0.0155452034299028,,false,hl,8092.235000035784,response,0.8987343013179191,0.8999999999999997,-0.8999999999999997,-0.8149073454566363,0.8999999999999997,-0.8999999999999997,high,low,,ISIC_0030087.JPG,,ISIC_0472513.JPG,43,false,hh,keypress(i),0,true,441971,441970.90000003576,433861.953,433863.60000002384,433878.665,441995.311,1,40,1,
sequence,flow.Sequence,8_0,2023-11-15T18:47:00.037Z,,,,,,,,,,8092.235000035784,completion,,,,,,,high,low,,,,,,false,,,,true,441971,441970.90000003576,433861.953,433863.60000002384,433878.665,441995.311,1,40,,
trial,html.Screen,8_1_0,2023-11-15T18:47:10.036Z,,,,2,-0.0367706518941078,0.0161069838272154,,true,hh,9974.989000011934,response,0.7175484898254125,0.8999999999999997,-0.8999999999999997,0.9475215296190668,0.8999999999999997,-0.9499999999999997,high,high,,ISIC_0033419.JPG,,ISIC_0062536.JPG,184,false,hh,keypress(i),0,true,451970.40000003576,451970.3000000119,441978.635,441971.10000002384,441995.311,451978.792,1,40,2,
sequence,flow.Sequence,8_1,2023-11-15T18:47:10.036Z,,,,,,,,,,9974.989000011934,completion,,,,,,,high,high,,,,,,false,,,,true,451970.5,451970.3000000119,441978.635,441971.10000002384,441995.311,451978.792,1,40,,
trial,html.Screen,8_2_0,2023-11-15T18:47:15.026Z,,,,2,-0.066631540328269,-0.005292120470259,,false,ll,4981.508000011905,response,-1.0122348575830964,0.7825350097222397,-0.8999999999999997,-1.007833368115011,0.8999999999999997,-0.9499999999999997,low,low,,ISIC_8041550.JPG,,ISIC_8145260.JPG,156,false,hh,keypress(i),0,true,456960.5,456960.3000000119,451961.784,451970.60000002384,451978.792,456979.099,1,40,3,
sequence,flow.Sequence,8_2,2023-11-15T18:47:15.026Z,,,,,,,,,,4981.508000011905,completion,,,,,,,low,low,,,,,,false,,,,true,456960.60000002384,456960.3000000119,451961.784,451970.60000002384,451978.792,456979.099,1,40,,
trial,html.Screen,8_3_0,2023-11-15T18:47:21.426Z,,,,2,-0.0524649813000588,0.0155452034299028,,false,hl,6381.2010000119335,response,0.6284406742939498,0.7825350097222397,-0.9499999999999997,-0.9882196642247332,0.8999999999999997,-0.9999999999999998,high,low,,ISIC_0030087.JPG,,ISIC_0014255.JPG,42,false,ll,keypress(f),0,true,463360.40000003576,463360.3000000119,456945.41,456960.60000002384,456979.099,463361.941,1,40,4,
sequence,flow.Sequence,8_3,2023-11-15T18:47:21.426Z,,,,,,,,,,6381.2010000119335,completion,,,,,,,high,low,,,,,,false,,,,true,463360.60000002384,463360.3000000119,456945.41,456960.60000002384,456979.099,463361.941,1,40,,
trial,html.Screen,8_4_0,2023-11-15T18:47:24.418Z,,,,2,0.0374659946425444,0.0086043094957617,,false,hl,2990.3590000119293,response,0.9244148283103414,0.8325350097222397,-0.9499999999999997,-0.9712966348713286,0.8999999999999997,-0.9999999999999998,high,low,,ISIC_0033051.JPG,,ISIC_7927525.JPG,36,false,lh,keypress(e),0,true,466352.40000003576,466352.3000000119,463345.335,463360.6999999881,463361.941,466362.03,1,40,5,
sequence,flow.Sequence,8_4,2023-11-15T18:47:24.418Z,,,,,,,,,,2990.3590000119293,completion,,,,,,,high,low,,,,,,false,,,,true,466352.60000002384,466352.3000000119,463345.335,463360.6999999881,463361.941,466362.03,1,40,,
trial,html.Screen,8_5_0,2023-11-15T18:47:26.402Z,,,,2,-0.0009714874637896,0.0174815595031679,,true,hh,1974.270000011893,response,0.8856883166390501,0.8825350097222397,-0.9499999999999997,0.86246873871669,0.8999999999999997,-1.0499999999999998,high,high,,ISIC_9848743.JPG,,ISIC_0010938.JPG,190,false,hh,keypress(i),0,true,468336.40000003576,468336.3000000119,466345.425,466352.60000002384,466362.03,468345.707,1,40,6,
sequence,flow.Sequence,8_5,2023-11-15T18:47:26.402Z,,,,,,,,,,1974.270000011893,completion,,,,,,,high,high,,,,,,false,,,,true,468336.5,468336.3000000119,466345.425,466352.60000002384,466362.03,468345.707,1,40,,
trial,html.Screen,8_6_0,2023-11-15T18:47:31.090Z,,,,2,0.0448994009031783,-0.0708723658092544,,false,hh,4678.593000011926,response,0.7200546926039536,0.8825350097222397,-0.9499999999999997,0.7206544552694351,0.82407852767787,-1.0499999999999998,high,high,,ISIC_0025238.JPG,,ISIC_7334117.JPG,194,false,lh,keypress(e),0,true,473024.5,473024.3000000119,468328.751,468336.5,468345.707,473028.607,1,40,7,
sequence,flow.Sequence,8_6,2023-11-15T18:47:31.090Z,,,,,,,,,,4678.593000011926,completion,,,,,,,high,high,,,,,,false,,,,true,473024.60000002384,473024.3000000119,468328.751,468336.5,468345.707,473028.607,1,40,,
trial,html.Screen,8_7_0,2023-11-15T18:47:34.226Z,,,,2,0.0409660561823769,-0.039283578935498,,false,hh,3131.6930000119028,response,0.8110369560965408,0.9325350097222398,-0.9499999999999997,0.7091309063434607,0.82407852767787,-1.0499999999999998,high,high,,ISIC_0479264.JPG,,ISIC_0030901.JPG,183,false,hl,keypress(j),0,true,476160.3000000119,476160.3000000119,473011.806,473024.60000002384,473028.607,476161.946,1,40,8,
sequence,flow.Sequence,8_7,2023-11-15T18:47:34.226Z,,,,,,,,,,3131.6930000119028,completion,,,,,,,high,high,,,,,,false,,,,true,476160.40000003576,476160.3000000119,473011.806,473024.60000002384,473028.607,476161.946,1,40,,
trial,html.Screen,8_8_0,2023-11-15T18:47:39.250Z,,,,2,0.0426957918502628,0.044166030546046,,false,ll,5022.354000011925,response,-0.7584844879496475,0.9325350097222398,-0.9499999999999997,-0.8641578922650276,0.8740785276778701,-1.0499999999999998,low,low,,ISIC_4649440.JPG,,ISIC_3289098.JPG,111,false,lh,keypress(e),0,true,481184.5,481184.3000000119,476145.465,476160.40000003576,476161.946,481195.697,1,40,9,
sequence,flow.Sequence,8_8,2023-11-15T18:47:39.250Z,,,,,,,,,,5022.354000011925,completion,,,,,,,low,low,,,,,,false,,,,true,481184.60000002384,481184.3000000119,476145.465,476160.40000003576,476161.946,481195.697,1,40,,
trial,html.Screen,8_9_0,2023-11-15T18:47:45.858Z,,,,2,-0.0464691161264081,-0.0535296539628673,,true,lh,6596.203000035777,response,-1.058275612142778,0.9325350097222398,-0.9499999999999997,0.7824898568540655,0.8740785276778701,-1.0999999999999999,low,high,,ISIC_0758797.JPG,,ISIC_4906385.JPG,24,false,lh,keypress(e),0,true,487791.90000003576,487791.90000003576,481178.634,481184.60000002384,481195.697,487795.241,1,40,10,
sequence,flow.Sequence,8_9,2023-11-15T18:47:45.858Z,,,,,,,,,,6596.203000035777,completion,,,,,,,low,high,,,,,,false,,,,true,487792.10000002384,487791.90000003576,481178.634,481184.60000002384,481195.697,487795.241,1,40,,
trial,html.Screen,8_10_0,2023-11-15T18:47:52.258Z,,,,2,-0.0423567271646023,-0.0380126882576854,,true,hh,6397.159000035783,response,0.8735012360137532,0.9325350097222398,-0.8999999999999997,1.0448182576694087,0.8740785276778701,-1.0999999999999999,high,high,,ISIC_0046932.JPG,,ISIC_0010267.JPG,176,false,hh,keypress(i),0,true,494192.60000002384,494192.40000003576,487778.812,487792.10000002384,487795.241,494195.261,1,40,11,
sequence,flow.Sequence,8_10,2023-11-15T18:47:52.258Z,,,,,,,,,,6397.159000035783,completion,,,,,,,high,high,,,,,,false,,,,true,494192.6999999881,494192.40000003576,487778.812,487792.10000002384,487795.241,494195.261,1,40,,
trial,html.Screen,8_11_0,2023-11-15T18:48:00.242Z,,,,2,0.0388181790775959,-0.0049623405709465,,false,lh,7981.039000011922,response,-0.8719231363109603,0.863654057261737,-0.8999999999999997,0.7704280220140033,0.863654057261737,-1.0999999999999999,low,high,,ISIC_0061880.JPG,,ISIC_0029453.JPG,34,false,hh,keypress(i),0,true,502176.40000003576,502176.3000000119,494178.835,494192.8000000119,494195.261,502178.556,1,40,12,
sequence,flow.Sequence,8_11,2023-11-15T18:48:00.242Z,,,,,,,,,,7981.039000011922,completion,,,,,,,low,high,,,,,,false,,,,true,502176.5,502176.3000000119,494178.835,494192.8000000119,494195.261,502178.556,1,40,,
trial,html.Screen,8_12_0,2023-11-15T18:48:04.146Z,,,,2,0.0010920693448107,0.0492408806128631,,true,hl,3901.9440000000177,response,0.9617893983965208,0.863654057261737,-0.9499999999999997,-0.9453006131304652,0.863654057261737,-1.0999999999999999,high,low,,ISIC_6155981.JPG,,ISIC_4229473.JPG,24,false,hl,keypress(j),0,true,506080.60000002384,506080.5,502161.89,502176.60000002384,502178.556,506095.485,1,40,13,
sequence,flow.Sequence,8_12,2023-11-15T18:48:04.146Z,,,,,,,,,,3901.9440000000177,completion,,,,,,,high,low,,,,,,false,,,,true,506080.6999999881,506080.5,502161.89,502176.5,502178.556,506095.485,1,40,,
trial,html.Screen,8_13_0,2023-11-15T18:48:08.354Z,,,,2,-0.0715931084231032,0.011427878877272,,true,lh,4192.915000035777,response,-0.8513427412482127,0.863654057261737,-0.9499999999999997,0.9295303568095064,0.863654057261737,-1.0999999999999999,low,high,,ISIC_1470250.JPG,,ISIC_0034164.JPG,27,false,lh,keypress(e),0,true,510288.5,510288.40000003576,506078.725,506080.6999999881,506095.485,510295.37,1,40,14,
sequence,flow.Sequence,8_13,2023-11-15T18:48:08.354Z,,,,,,,,,,4192.915000035777,completion,,,,,,,low,high,,,,,,false,,,,true,510288.60000002384,510288.40000003576,506078.725,506080.6999999881,506095.485,510295.37,1,40,,
trial,html.Screen,8_14_0,2023-11-15T18:48:12.290Z,,,,2,0.0418938536494534,-0.0678614270583654,,false,lh,3928.8299999880837,response,-1.0770264364718942,0.863654057261737,-0.9499999999999997,0.6713089190292955,0.813654057261737,-1.0999999999999999,low,high,,ISIC_0027573.JPG,,ISIC_6093728.JPG,32,false,hl,keypress(j),0,true,514224.40000003576,514224.1999999881,510278.632,510288.60000002384,510295.37,514228.613,1,40,15,
sequence,flow.Sequence,8_14,2023-11-15T18:48:12.290Z,,,,,,,,,,3928.8299999880837,completion,,,,,,,low,high,,,,,,false,,,,true,514224.40000003576,514224.1999999881,510278.632,510288.60000002384,510295.37,514228.613,1,40,,
trial,html.Screen,8_15_0,2023-11-15T18:48:15.378Z,,,,2,-0.068830656047477,0.0471494209282208,,true,hl,3083.7870000357507,response,0.6866466162921743,0.863654057261737,-0.9999999999999998,-0.9993010401520164,0.863654057261737,-1.0999999999999999,high,low,,ISIC_0029982.JPG,,ISIC_6155782.JPG,24,false,hl,keypress(j),0,true,517312.60000002384,517312.40000003576,514212.218,514224.5,514228.613,517328.806,1,40,16,
sequence,flow.Sequence,8_15,2023-11-15T18:48:15.378Z,,,,,,,,,,3083.7870000357507,completion,,,,,,,high,low,,,,,,false,,,,true,517312.6999999881,517312.40000003576,514212.218,514224.5,514228.613,517328.806,1,40,,
trial,html.Screen,8_16_0,2023-11-15T18:48:21.042Z,,,,2,-0.0700576547090477,0.0026956749740767,,false,lh,5647.393999988097,response,-1.1711869602302662,0.813654057261737,-0.9999999999999998,0.7434626355969514,0.863654057261737,-0.8753218907001146,low,high,,ISIC_7212271.JPG,,ISIC_0059052.JPG,25,false,hh,keypress(i),0,true,522976.3000000119,522976.1999999881,517312.075,517312.6999999881,517328.806,522978.543,1,40,17,
sequence,flow.Sequence,8_16,2023-11-15T18:48:21.042Z,,,,,,,,,,5647.393999988097,completion,,,,,,,low,high,,,,,,false,,,,true,522976.40000003576,522976.1999999881,517312.075,517312.6999999881,517328.806,522978.543,1,40,,
trial,html.Screen,8_17_0,2023-11-15T18:48:23.858Z,,,,2,-0.0586798548295751,0.0060040805764433,,false,hl,2813.3570000357577,response,0.7468466922606799,0.813654057261737,-1.0499999999999998,-0.7486692996330936,0.863654057261737,-0.8753218907001146,high,low,,ISIC_1552232.JPG,,ISIC_0025508.JPG,59,false,lh,keypress(e),0,true,525792,525791.9000000358,522961.959,522976.5,522978.543,525795.186,1,40,18,
sequence,flow.Sequence,8_17,2023-11-15T18:48:23.858Z,,,,,,,,,,2813.3570000357577,completion,,,,,,,high,low,,,,,,false,,,,true,525792.1000000238,525791.9000000358,522961.959,522976.5,522978.543,525795.186,1,40,,
trial,html.Screen,8_18_0,2023-11-15T18:48:27.154Z,,,,2,-0.0462522625051681,-0.0088419594888635,,false,ll,3293.214000035776,response,-0.9253985598518948,0.863654057261737,-1.0499999999999998,-0.8253785649083512,0.863654057261737,-0.9253218907001146,low,low,,ISIC_1945381.JPG,,ISIC_7509837.JPG,110,false,lh,keypress(e),0,true,529088.4000000358,529088.4000000358,525778.737,525792.1999999881,525795.186,529095.369,1,40,19,
sequence,flow.Sequence,8_18,2023-11-15T18:48:27.154Z,,,,,,,,,,3293.214000035776,completion,,,,,,,low,low,,,,,,false,,,,true,529088.6000000238,529088.4000000358,525778.737,525792.1999999881,525795.186,529095.369,1,40,,
trial,html.Screen,8_19_0,2023-11-15T18:48:29.730Z,,,,2,-0.024731486864197,-0.0504232274546553,,true,lh,2568.731000023894,response,-0.8513427412482127,0.863654057261737,-1.0499999999999998,0.9295303568095064,0.863654057261737,-0.9753218907001147,low,high,,ISIC_4782878.JPG,,ISIC_0034164.JPG,23,false,lh,keypress(e),0,true,531664.1000000238,531664.1000000238,529078.708,529088.6000000238,529095.369,531678.795,1,40,20,
sequence,flow.Sequence,8_19,2023-11-15T18:48:29.730Z,,,,,,,,,,2568.731000023894,completion,,,,,,,low,high,,,,,,false,,,,true,531664.3000000119,531664.1000000238,529078.708,529088.6000000238,529095.369,531678.795,1,40,,
trial,html.Screen,8_20_0,2023-11-15T18:48:37.794Z,,,,2,0.0603356922898045,0.0630785445312754,,false,hl,8049.505000011879,response,0.8350129142228142,0.863654057261737,-0.9999999999999998,-0.8172547818270586,0.813654057261737,-0.9753218907001147,high,low,,ISIC_9996128.JPG,,ISIC_0301568.JPG,35,false,lh,keypress(e),0,true,539728.4000000358,539728.3000000119,531662.062,531664.4000000358,531678.795,539745.278,1,40,21,
sequence,flow.Sequence,8_20,2023-11-15T18:48:37.794Z,,,,,,,,,,8049.505000011879,completion,,,,,,,high,low,,,,,,false,,,,true,539728.5,539728.3000000119,531662.062,531664.4000000358,531678.795,539745.278,1,40,,
trial,html.Screen,8_21_0,2023-11-15T18:48:40.674Z,,,,2,0.0326050223870869,0.0579165897319751,,true,hl,2863.0220000118716,response,0.9617893983965208,0.9136540572617371,-0.9999999999999998,-0.9453006131304652,0.813654057261737,-1.0253218907001147,high,low,,ISIC_4570724.JPG,,ISIC_4229473.JPG,22,false,hl,keypress(j),0,true,542608.5,542608.3000000119,539728.368,539728.6000000238,539745.278,542611.862,1,40,22,
sequence,flow.Sequence,8_21,2023-11-15T18:48:40.674Z,,,,,,,,,,2863.0220000118716,completion,,,,,,,high,low,,,,,,false,,,,true,542608.5,542608.3000000119,539728.368,539728.5,539745.278,542611.862,1,40,,
trial,html.Screen,8_22_0,2023-11-15T18:48:46.866Z,,,,2,-0.0118382036798625,-0.0300588245877227,,true,hh,6188.3379999881145,response,0.9420387258741144,0.9136540572617371,-0.9999999999999998,0.6240271644042338,0.813654057261737,-1.0253218907001147,high,high,,ISIC_4748605.JPG,,ISIC_0011642.JPG,191,false,hh,keypress(i),0,true,548800.3000000119,548800.1999999881,542595.216,542608.6000000238,542611.862,548812.019,1,40,23,
sequence,flow.Sequence,8_22,2023-11-15T18:48:46.866Z,,,,,,,,,,6188.3379999881145,completion,,,,,,,high,high,,,,,,false,,,,true,548800.4000000358,548800.1999999881,542595.216,542608.6000000238,542611.862,548812.019,1,40,,
trial,html.Screen,8_23_0,2023-11-15T18:48:52.370Z,,,,2,-0.0308384937406319,0.0038396364323947,,false,hl,5492.180999988108,response,0.7271544837339796,0.733032945139174,-0.9999999999999998,-0.9127368834814228,0.813654057261737,-1.0253218907001147,high,low,,ISIC_0029825.JPG,,ISIC_4129321.JPG,36,false,ll,keypress(f),0,true,554304.3000000119,554304.1999999881,548795.088,548800.4000000358,548812.019,554311.968,1,40,24,
sequence,flow.Sequence,8_23,2023-11-15T18:48:52.370Z,,,,,,,,,,5492.180999988108,completion,,,,,,,high,low,,,,,,false,,,,true,554304.3000000119,554304.1999999881,548795.088,548800.4000000358,548812.019,554311.968,1,40,,
trial,html.Screen,8_24_0,2023-11-15T18:48:55.858Z,,,,2,0.0497314815986203,-0.0303374618795786,,true,hh,3480.2319999880856,response,0.5973013792558843,0.7830329451391741,-0.9999999999999998,0.6206104289086962,0.813654057261737,-0.9753218907001147,high,high,,ISIC_6023504.JPG,,ISIC_0528044.JPG,245,false,hh,keypress(i),0,true,557792.3000000119,557792.1999999881,554295.262,554304.4000000358,554311.968,557795.173,1,40,25,
sequence,flow.Sequence,8_24,2023-11-15T18:48:55.858Z,,,,,,,,,,3480.2319999880856,completion,,,,,,,high,high,,,,,,false,,,,true,557792.4000000358,557792.1999999881,554295.262,554304.4000000358,554311.968,557795.173,1,40,,
trial,html.Screen,8_25_0,2023-11-15T18:49:01.969Z,,,,2,-0.0283578106329894,0.0088840758711548,,true,lh,6108.327000000048,response,-0.9292144567580788,0.7830329451391741,-0.9999999999999998,0.6431072529043046,0.5589559040822902,-0.9753218907001147,low,high,,ISIC_0060707.JPG,,ISIC_4108397.JPG,65,false,lh,keypress(e),0,true,563903.6999999881,563903.5,557778.678,557792.5,557795.173,563911.906,1,40,26,
sequence,flow.Sequence,8_25,2023-11-15T18:49:01.969Z,,,,,,,,,,6108.327000000048,completion,,,,,,,low,high,,,,,,false,,,,true,563903.6999999881,563903.5,557778.678,557792.5,557795.173,563911.906,1,40,,
trial,html.Screen,8_26_0,2023-11-15T18:49:09.026Z,,,,2,-0.0572065166118795,0.0247840126545907,,false,ll,7047.894000011962,response,-0.8171109532905281,0.7830329451391741,-0.9999999999999998,-0.8757752877102069,0.5589559040822902,-0.9753218907001147,low,low,,ISIC_0024565.JPG,,ISIC_0283506.JPG,115,false,lh,keypress(e),0,true,570959.9000000358,570959.8000000119,563895.039,563903.8000000119,563911.906,570961.813,1,40,27,
sequence,flow.Sequence,8_26,2023-11-15T18:49:09.026Z,,,,,,,,,,7047.894000011962,completion,,,,,,,low,low,,,,,,false,,,,true,570960,570959.8000000119,563895.039,563903.8000000119,563911.906,570961.813,1,40,,
trial,html.Screen,8_27_0,2023-11-15T18:49:11.186Z,,,,2,-0.0076984477620101,-0.0069458408496562,,false,ll,2158.3869999881135,response,-0.8153135636447707,0.7830329451391741,-0.9499999999999997,-0.9269022323245946,0.5589559040822902,-1.0253218907001147,low,low,,ISIC_0000434.JPG,,ISIC_5239607.JPG,116,false,lh,keypress(e),0,true,573120.4000000358,573120.1999999881,570945.185,570960.1000000238,570961.813,573128.604,1,40,28,
sequence,flow.Sequence,8_27,2023-11-15T18:49:11.186Z,,,,,,,,,,2158.3869999881135,completion,,,,,,,low,low,,,,,,false,,,,true,573120.4000000358,573120.1999999881,570945.185,570960.1000000238,570961.813,573128.604,1,40,,
trial,html.Screen,8_28_0,2023-11-15T18:49:14.178Z,,,,2,0.0478761683145946,-0.012927090508672,,true,hh,2983.4960000237916,response,0.7383968032541655,0.7830329451391741,-0.9499999999999997,0.4841918617475574,0.5589559040822902,-1.0753218907001147,high,high,,ISIC_9631669.JPG,,ISIC_0058164.JPG,301,false,hh,keypress(i),0,true,576112.3000000119,576112.1000000238,573111.815,573120.5,573128.604,576128.736,1,40,29,
sequence,flow.Sequence,8_28,2023-11-15T18:49:14.178Z,,,,,,,,,,2983.4960000237916,completion,,,,,,,high,high,,,,,,false,,,,true,576112.4000000358,576112.1000000238,573111.815,573120.5,573128.604,576128.736,1,40,,
trial,html.Screen,8_29_0,2023-11-15T18:49:16.338Z,,,,2,-0.0367744112927588,-0.0324865661712824,,false,ll,2143.4639999880455,response,-1.0122348575830964,0.733032945139174,-0.9499999999999997,-1.007833368115011,0.5089559040822902,-1.0753218907001147,low,low,,ISIC_4523565.JPG,,ISIC_8145260.JPG,107,false,hl,keypress(j),0,true,578272.3000000119,578272.1999999881,576111.76,576112.4000000358,576128.736,578278.676,1,40,30,
sequence,flow.Sequence,8_29,2023-11-15T18:49:16.338Z,,,,,,,,,,2143.4639999880455,completion,,,,,,,low,low,,,,,,false,,,,true,578272.4000000358,578272.1999999881,576111.76,576112.4000000358,576128.736,578278.676,1,40,,
trial,html.Screen,8_30_0,2023-11-15T18:49:18.498Z,,,,2,-0.0444523556175667,-0.066384682611553,,false,ll,2153.3240000000224,response,-0.9345244335403022,0.733032945139174,-0.9999999999999998,-0.9139577511829252,0.5089559040822902,-1.0753218907001147,low,low,,ISIC_0029409.JPG,,ISIC_5783440.JPG,94,false,hl,keypress(j),0,true,580432.1999999881,580432,578261.809,578272.5,578278.676,580445.584,1,40,31,
sequence,flow.Sequence,8_30,2023-11-15T18:49:18.498Z,,,,,,,,,,2153.3240000000224,completion,,,,,,,low,low,,,,,,false,,,,true,580432.3000000119,580432,578261.809,578272.5,578278.676,580445.584,1,40,,
trial,html.Screen,8_31_0,2023-11-15T18:49:21.234Z,,,,2,-0.0586798548295751,0.0060040805764433,,false,ll,2722.7160000118893,response,-1.1100289789666156,0.733032945139174,-1.0499999999999998,-0.9747349048723576,0.5089559040822902,-0.9108955596489681,low,low,,ISIC_1552232.JPG,,ISIC_0026552.JPG,111,false,lh,keypress(e),0,true,583168.3000000119,583168.3000000119,580428.608,580432.3000000119,580445.584,583178.907,1,40,32,
sequence,flow.Sequence,8_31,2023-11-15T18:49:21.234Z,,,,,,,,,,2722.7160000118893,completion,,,,,,,low,low,,,,,,false,,,,true,583168.5,583168.3000000119,580428.608,580432.3000000119,580445.584,583178.907,1,40,,
trial,html.Screen,8_32_0,2023-11-15T18:49:23.154Z,,,,2,-0.0634150092059303,0.0177502973253611,,false,hh,1909.2929999880726,response,0.7591012084956917,0.733032945139174,-1.0499999999999998,0.5077745631290093,0.5089559040822902,-0.9608955596489681,high,high,,ISIC_0032433.JPG,,ISIC_7539727.JPG,329,false,lh,keypress(e),0,true,585088.3000000119,585088.1999999881,583161.763,583168.5,583178.907,585095.197,1,40,33,
sequence,flow.Sequence,8_32,2023-11-15T18:49:23.154Z,,,,,,,,,,1909.2929999880726,completion,,,,,,,high,high,,,,,,false,,,,true,585088.3000000119,585088.1999999881,583161.763,583168.5,583178.907,585095.197,1,40,,
trial,html.Screen,8_33_0,2023-11-15T18:49:28.258Z,,,,2,-0.0283578106329894,0.0088840758711548,,false,lh,5097.103000011877,response,-0.940631650270699,0.7830329451391741,-1.0499999999999998,0.4629916925260957,0.5089559040822902,-0.9608955596489681,low,high,,ISIC_0060707.JPG,,ISIC_6906476.JPG,63,false,hh,keypress(i),0,true,590192.4000000358,590192.3000000119,585078.507,585088.4000000358,585095.197,590195.147,1,40,34,
sequence,flow.Sequence,8_33,2023-11-15T18:49:28.258Z,,,,,,,,,,5097.103000011877,completion,,,,,,,low,high,,,,,,false,,,,true,590192.5,590192.3000000119,585078.507,585088.4000000358,585095.197,590195.147,1,40,,
trial,html.Screen,8_34_0,2023-11-15T18:49:32.850Z,,,,2,0.0388334549081915,-0.0303399972963369,,false,lh,4589.153000011924,response,-1.0321350332513155,0.7830329451391741,-1.0999999999999999,0.4403991857280807,0.4589559040822902,-0.9608955596489681,low,high,,ISIC_4961708.JPG,,ISIC_6430210.JPG,61,false,hh,keypress(i),0,true,594784.4000000358,594784.3000000119,590178.757,590192.5,590195.147,594795.383,1,40,35,
sequence,flow.Sequence,8_34,2023-11-15T18:49:32.850Z,,,,,,,,,,4589.153000011924,completion,,,,,,,low,high,,,,,,false,,,,true,594784.5,594784.3000000119,590178.757,590192.5,590195.147,594795.383,1,40,,
trial,html.Screen,8_35_0,2023-11-15T18:49:35.250Z,,,,2,-0.0367706518941078,0.0161069838272154,,true,hl,2388.8169999880483,response,0.6114190059484325,0.7830329451391741,-1.15,-0.8138757632514736,0.4589559040822902,-0.9608955596489681,high,low,,ISIC_0033419.JPG,,ISIC_5100319.JPG,51,false,hl,keypress(j),0,true,597184.4000000358,597184.1999999881,594778.616,594784.5,594795.383,597195.338,1,40,36,
sequence,flow.Sequence,8_35,2023-11-15T18:49:35.250Z,,,,,,,,,,2388.8169999880483,completion,,,,,,,high,low,,,,,,false,,,,true,597184.4000000358,597184.1999999881,594778.616,594784.5,594795.383,597195.338,1,40,,
trial,html.Screen,8_36_0,2023-11-15T18:49:39.378Z,,,,2,0.045779466401051,0.0137769797231127,,true,ll,4116.962000011932,response,-1.0348000491894005,0.7830329451391741,-1.15,-0.7770667763745356,0.4589559040822902,-0.9608955596489681,low,low,,ISIC_0000504.JPG,,ISIC_2565154.JPG,75,false,ll,keypress(f),0,true,601312.3000000119,601312.3000000119,597178.557,597184.5,597195.338,601328.708,1,40,37,
sequence,flow.Sequence,8_36,2023-11-15T18:49:39.378Z,,,,,,,,,,4116.962000011932,completion,,,,,,,low,low,,,,,,false,,,,true,601312.5,601312.3000000119,597178.557,597184.5,597195.338,601328.708,1,40,,
trial,html.Screen,8_37_0,2023-11-15T18:49:44.722Z,,,,2,-0.0118382036798625,-0.0300588245877227,,true,lh,5327.491999988095,response,-1.1092909604035308,0.7830329451391741,-1.15,0.3185379320935436,0.4589559040822902,-0.855933412781968,low,high,,ISIC_4748605.JPG,,ISIC_7988794.JPG,46,false,lh,keypress(e),0,true,606656.1999999881,606656.1999999881,601311.855,601312.5,601328.708,606661.778,1,40,38,
sequence,flow.Sequence,8_37,2023-11-15T18:49:44.722Z,,,,,,,,,,5327.491999988095,completion,,,,,,,low,high,,,,,,false,,,,true,606656.4000000358,606656.1999999881,601311.855,601312.5,601328.708,606661.778,1,40,,
trial,html.Screen,8_38_0,2023-11-15T18:49:46.690Z,,,,2,0.0080817964357627,-0.0444435264307931,,false,ll,1962.4219999880297,response,-1.085906502329253,0.7830329451391741,-1.0999999999999999,-0.8769314895018409,0.4589559040822902,-0.855933412781968,low,low,,ISIC_0013165.JPG,,ISIC_2693412.JPG,111,false,hl,keypress(j),0,true,608624.1999999881,608624.1999999881,606645.118,606656.4000000358,606661.778,608628.561,1,40,39,
sequence,flow.Sequence,8_38,2023-11-15T18:49:46.690Z,,,,,,,,,,1962.4219999880297,completion,,,,,,,low,low,,,,,,false,,,,true,608624.3000000119,608624.1999999881,606645.118,606656.4000000358,606661.778,608628.561,1,40,,
trial,html.Screen,8_39_0,2023-11-15T18:49:52.578Z,,,,2,0.0080817964357627,-0.0444435264307931,,true,hh,5883.339000035776,response,0.7578886612761585,0.7830329451391741,-1.15,0.3969772547916466,0.4589559040822902,-0.855933412781968,high,high,,ISIC_0013165.JPG,,ISIC_8428097.JPG,329,false,hh,keypress(i),0,true,614512,614511.9000000358,608612.2,608624.3000000119,608628.561,614528.678,1,40,40,
sequence,flow.Sequence,8_39,2023-11-15T18:49:52.578Z,,,,,,,,,,5883.339000035776,completion,,,,,,,high,high,,,,,,false,,,,true,614512.1000000238,614511.9000000358,608612.2,608624.3000000119,608628.561,614528.678,1,40,,
stair_loop,flow.Loop,8,2023-11-15T18:49:52.578Z,,,,,,,,,,180633.23500003578,completion,,,,,,,,,,,,,,false,,,,true,614512.1999999881,614511.9000000358,433861.953,433863.5,433878.665,614528.678,1,40,,
exp_instructions,html.Screen,9,2023-11-15T18:50:05.138Z,,,,,,,,,,12543.122000011965,response,,,,,,,,,,,,,,,continue,keypress(Space),,,627072.1999999881,627071.8000000119,614511.84,614512.1999999881,614528.678,627078.407,,,,
trial,html.Screen,10_0_0,2023-11-15T18:50:12.612Z,,,,1,0.0065172941585523,-0.0118857043117315,,true,hh,7467.792999988073,response,0.9089083807314456,0.7876261119575587,-1.0399999999999998,0.635410285078461,0.5801304423771516,-0.9755857196970489,high,high,,ISIC_6119202.JPG,8,ISIC_0032671.JPG,307,false,hh,keypress(i),0,false,634546.3000000119,634546.1999999881,627061.264,627072.3000000119,627078.407,634562.016,4,500,1,
break,html.Screen,10_0_1,2023-11-15T18:50:12.613Z,,,,,,,,,,NaN,,,,,,,,high,high,,,,,,false,,,,false,634546.6999999881,634546.6000000238,,634546.4000000358,,634562.016,4,500,,
break_continue,html.Screen,10_0_2,2023-11-15T18:50:12.613Z,,,,,,,,,,NaN,,,,,,,,high,high,,,,,,false,,,,false,634547,634546.9000000358,,634546.9000000358,,634562.016,4,500,,
sequence,flow.Sequence,10_0,2023-11-15T18:50:12.613Z,,,,,,,,,,7468.493000035756,completion,,,,,,,high,high,,,,,,false,,,,false,634547,634546.9000000358,627061.264,627072.3000000119,627078.407,634562.016,4,500,,
trial,html.Screen,10_1_0,2023-11-15T18:50:15.490Z,,,,1,-0.0009714874637896,0.0174815595031679,,true,lh,2861.8840000358177,response,-0.864159288143104,0.7876261119575587,-1.0399999999999998,0.6456269226301533,0.5801304423771516,-0.9755857196970489,low,high,,ISIC_9848743.JPG,8,ISIC_0238570.JPG,51,false,lh,keypress(e),0,false,637424.1000000238,637423.9000000358,634544.858,634547.1000000238,634562.016,637428.511,4,500,2,
break,html.Screen,10_1_1,2023-11-15T18:50:15.490Z,,,,,,,,,,NaN,,,,,,,,low,high,,,,,,false,,,,false,637424.4000000358,637424.3000000119,,637424.1000000238,,637428.511,4,500,,
break_continue,html.Screen,10_1_2,2023-11-15T18:50:15.490Z,,,,,,,,,,NaN,,,,,,,,low,high,,,,,,false,,,,false,637424.5,637424.5,,637424.4000000358,,637428.511,4,500,,
sequence,flow.Sequence,10_1,2023-11-15T18:50:15.490Z,,,,,,,,,,2862.484000000055,completion,,,,,,,low,high,,,,,,false,,,,false,637424.6999999881,637424.5,634544.858,634547.1000000238,634562.016,637428.511,4,500,,
trial,html.Screen,10_2_0,2023-11-15T18:50:17.282Z,,,,1,-0.0480293506029756,-0.0744454320613987,,false,hl,1787.4889999999432,response,0.6760317317140794,0.7876261119575587,-1.0399999999999998,-0.7770980830178764,0.5801304423771516,-0.9755857196970489,high,low,,ISIC_1798471.JPG,8,ISIC_0025316.JPG,48,false,lh,keypress(e),0,false,639216.1000000238,639216,637411.74,637424.6999999881,637428.511,639228.661,4,500,3,
break,html.Screen,10_2_1,2023-11-15T18:50:17.282Z,,,,,,,,,,NaN,,,,,,,,high,low,,,,,,false,,,,false,639216.4000000358,639216.3000000119,,639216.1999999881,,639228.661,4,500,,
break_continue,html.Screen,10_2_2,2023-11-15T18:50:17.282Z,,,,,,,,,,NaN,,,,,,,,high,low,,,,,,false,,,,false,639216.6000000238,639216.5,,639216.4000000358,,639228.661,4,500,,
sequence,flow.Sequence,10_2,2023-11-15T18:50:17.283Z,,,,,,,,,,1787.9889999999432,completion,,,,,,,high,low,,,,,,false,,,,false,639216.6999999881,639216.5,637411.74,637424.6999999881,637428.511,639228.661,4,500,,
trial,html.Screen,10_3_0,2023-11-15T18:50:19.090Z,,,,1,-0.0423567271646023,-0.0380126882576854,,false,lh,1795.5389999881154,response,-0.84290786638064,0.7876261119575587,-1.0399999999999998,0.7332521189371746,0.5801304423771516,-0.9755857196970489,low,high,,ISIC_0046932.JPG,9,ISIC_4708642.JPG,51,false,hl,keypress(j),0,false,641024.3000000119,641024.1999999881,639211.783,639216.8000000119,639228.661,641028.42,4,500,4,
break,html.Screen,10_3_1,2023-11-15T18:50:19.090Z,,,,,,,,,,NaN,,,,,,,,low,high,,,,,,false,,,,false,641024.6000000238,641024.5,,641024.3000000119,,641028.42,4,500,,
break_continue,html.Screen,10_3_2,2023-11-15T18:50:19.091Z,,,,,,,,,,NaN,,,,,,,,low,high,,,,,,false,,,,false,641024.8000000119,641024.6999999881,,641024.6999999881,,641028.42,4,500,,
sequence,flow.Sequence,10_3,2023-11-15T18:50:19.091Z,,,,,,,,,,1796.0389999881154,completion,,,,,,,low,high,,,,,,false,,,,false,641024.8000000119,641024.6999999881,639211.783,639216.8000000119,639228.661,641028.42,4,500,,
trial,html.Screen,10_4_0,2023-11-15T18:50:20.978Z,,,,1,0.044991036470624,-0.0185124638005965,,true,hl,1883.6800000238,response,0.678931451947854,0.7876261119575587,-1.0399999999999998,-0.9976887721741746,0.5801304423771516,-0.9755857196970489,high,low,,ISIC_2457859.JPG,9,ISIC_1137915.JPG,48,false,hl,keypress(j),0,false,642912.1999999881,642912.1000000238,641011.892,641024.9000000358,641028.42,642928.766,4,500,5,
break,html.Screen,10_4_1,2023-11-15T18:50:20.978Z,,,,,,,,,,NaN,,,,,,,,high,low,,,,,,false,,,,false,642912.5,642912.4000000358,,642912.3000000119,,642928.766,4,500,,
break_continue,html.Screen,10_4_2,2023-11-15T18:50:20.979Z,,,,,,,,,,NaN,,,,,,,,high,low,,,,,,false,,,,false,642912.6999999881,642912.6000000238,,642912.6000000238,,642928.766,4,500,,
sequence,flow.Sequence,10_4,2023-11-15T18:50:20.979Z,,,,,,,,,,1884.1800000238,completion,,,,,,,high,low,,,,,,false,,,,false,642912.8000000119,642912.6000000238,641011.892,641024.9000000358,641028.42,642928.766,4,500,,
trial,html.Screen,10_5_0,2023-11-15T18:50:23.410Z,,,,1,-0.0283578106329894,0.0088840758711548,,true,hl,2415.334000023897,response,0.598447767053731,0.7876261119575587,-1.0399999999999998,-1.0185275168641534,0.5801304423771516,-0.9755857196970489,high,low,,ISIC_0060707.JPG,8,ISIC_7604870.JPG,48,false,hl,keypress(j),0,false,645344.1999999881,645344.1000000238,642911.886,642912.8000000119,642928.766,645362.261,4,500,6,
break,html.Screen,10_5_1,2023-11-15T18:50:23.410Z,,,,,,,,,,NaN,,,,,,,,high,low,,,,,,false,,,,false,645344.5,645344.5,,645344.3000000119,,645362.261,4,500,,
break_continue,html.Screen,10_5_2,2023-11-15T18:50:23.411Z,,,,,,,,,,NaN,,,,,,,,high,low,,,,,,false,,,,false,645344.8000000119,645344.6999999881,,645344.6000000238,,645362.261,4,500,,
sequence,flow.Sequence,10_5,2023-11-15T18:50:23.411Z,,,,,,,,,,2415.933999988134,completion,,,,,,,high,low,,,,,,false,,,,false,645344.9000000358,645344.6999999881,642911.886,642912.8000000119,642928.766,645362.261,4,500,,
trial,html.Screen,10_6_0,2023-11-15T18:50:27.234Z,,,,1,0.0107170641394226,-0.0596294643429623,,false,ll,3805.339000023785,response,-0.9832288967264424,0.7876261119575587,-1.0399999999999998,-1.0898586098590013,0.5801304423771516,-0.9755857196970489,low,low,,ISIC_0005291.JPG,8,ISIC_2724529.JPG,100,false,hh,keypress(i),0,false,649167.6999999881,649167.6000000238,645328.542,645344.9000000358,645362.261,649195.498,4,500,7,
break,html.Screen,10_6_1,2023-11-15T18:50:27.234Z,,,,,,,,,,NaN,,,,,,,,low,low,,,,,,false,,,,false,649168,649168,,649167.8000000119,,649195.498,4,500,,
break_continue,html.Screen,10_6_2,2023-11-15T18:50:27.234Z,,,,,,,,,,NaN,,,,,,,,low,low,,,,,,false,,,,false,649168.1000000238,649168,,649168,,649195.498,4,500,,
sequence,flow.Sequence,10_6,2023-11-15T18:50:27.234Z,,,,,,,,,,3805.738999999943,completion,,,,,,,low,low,,,,,,false,,,,false,649168.1999999881,649168,645328.542,645344.9000000358,645362.261,649195.498,4,500,,
trial,html.Screen,10_7_0,2023-11-15T18:50:29.986Z,,,,1,0.0497314815986203,-0.0303374618795786,,false,ll,2724.7019999880577,response,-1.033832433609739,0.7876261119575587,-1.0399999999999998,-1.139863018685685,0.5801304423771516,-0.9755857196970489,low,low,,ISIC_6023504.JPG,8,ISIC_0008510.JPG,100,false,hl,keypress(j),0,false,651920.3000000119,651920.1999999881,649178.406,649168.1999999881,649195.498,651928.561,4,500,8,
break,html.Screen,10_7_1,2023-11-15T18:50:29.986Z,,,,,,,,,,NaN,,,,,,,,low,low,,,,,,false,,,,false,651920.6999999881,651920.5,,651920.4000000358,,651928.561,4,500,,
break_continue,html.Screen,10_7_2,2023-11-15T18:50:29.987Z,,,,,,,,,,NaN,,,,,,,,low,low,,,,,,false,,,,false,651920.9000000358,651920.8000000119,,651920.6999999881,,651928.561,4,500,,
sequence,flow.Sequence,10_7,2023-11-15T18:50:29.987Z,,,,,,,,,,2725.3020000118995,completion,,,,,,,low,low,,,,,,false,,,,false,651920.9000000358,651920.8000000119,649178.406,649168.1999999881,649195.498,651928.561,4,500,,
trial,html.Screen,10_8_0,2023-11-15T18:50:33.394Z,,,,1,,0.0102871556606504,,false,hl,3399.439000000013,response,0.6429087699367377,0.7876261119575587,-1.0399999999999998,-0.7850400535113949,0.5801304423771516,-0.9755857196970489,high,low,,ISIC_1805163.JPG,10,ISIC_0007749.JPG,48,false,lh,keypress(e),0,false,655328.1999999881,655328,651911.888,651921,651928.561,655345.324,4,500,9,
break,html.Screen,10_8_1,2023-11-15T18:50:33.394Z,,,,,,,,,,NaN,,,,,,,,high,low,,,,,,false,,,,false,655328.5,655328.4000000358,,655328.1999999881,,655345.324,4,500,,
break_continue,html.Screen,10_8_2,2023-11-15T18:50:33.395Z,,,,,,,,,,NaN,,,,,,,,high,low,,,,,,false,,,,false,655328.6999999881,655328.6999999881,,655328.5,,655345.324,4,500,,
sequence,flow.Sequence,10_8,2023-11-15T18:50:33.395Z,,,,,,,,,,3400.138999988092,completion,,,,,,,high,low,,,,,,false,,,,false,655328.8000000119,655328.6999999881,651911.888,651920.9000000358,651928.561,655345.324,4,500,,
trial,html.Screen,10_9_0,2023-11-15T18:50:36.770Z,,,,1,0.0123274848503577,-0.0516828290734233,,true,lh,3358.7760000238195,response,-1.0787653648415352,0.7876261119575587,-1.0399999999999998,0.4623631957542844,0.5801304423771516,-0.9755857196970489,low,high,,ISIC_0056790.JPG,9,ISIC_0061077.JPG,51,false,lh,keypress(e),0,false,658704.1000000238,658704.1000000238,655328.396,655328.8000000119,655345.324,658711.894,4,500,10,
break,html.Screen,10_9_1,2023-11-15T18:50:36.770Z,,,,,,,,,,NaN,,,,,,,,low,high,,,,,,false,,,,false,658704.5,658704.4000000358,,658704.3000000119,,658711.894,4,500,,
break_continue,html.Screen,10_9_2,2023-11-15T18:50:36.771Z,,,,,,,,,,NaN,,,,,,,,low,high,,,,,,false,,,,false,658704.6999999881,658704.6000000238,,658704.5,,658711.894,4,500,,
sequence,flow.Sequence,10_9,2023-11-15T18:50:36.771Z,,,,,,,,,,3359.2760000238195,completion,,,,,,,low,high,,,,,,false,,,,false,658704.6999999881,658704.6000000238,655328.396,655328.8000000119,655345.324,658711.894,4,500,,
trial,html.Screen,10_10_0,2023-11-15T18:50:41.842Z,,,,1,-0.0643519619373155,-0.0340638715725122,,true,hl,5064.206000023871,response,0.9633172970727744,0.7876261119575587,-1.0399999999999998,-0.8472659344792351,0.5801304423771516,-0.9755857196970489,high,low,,ISIC_0066401.JPG,8,ISIC_0067172.JPG,48,false,hl,keypress(j),0,false,663776.1999999881,663776.1000000238,658695.112,658704.6999999881,658711.894,663778.373,4,500,11,
break,html.Screen,10_10_1,2023-11-15T18:50:41.842Z,,,,,,,,,,NaN,,,,,,,,high,low,,,,,,false,,,,false,663776.6000000238,663776.5,,663776.3000000119,,663778.373,4,500,,
break_continue,html.Screen,10_10_2,2023-11-15T18:50:41.843Z,,,,,,,,,,NaN,,,,,,,,high,low,,,,,,false,,,,false,663776.8000000119,663776.6999999881,,663776.6000000238,,663778.373,4,500,,
sequence,flow.Sequence,10_10,2023-11-15T18:50:41.843Z,,,,,,,,,,5064.805999988108,completion,,,,,,,high,low,,,,,,false,,,,false,663776.9000000358,663776.6999999881,658695.112,658704.6999999881,658711.894,663778.373,4,500,,
trial,html.Screen,10_11_0,2023-11-15T18:50:44.210Z,,,,1,0.0473541545202326,-0.0294076954053606,,true,lh,2365.8269999880577,response,-0.9171150708284428,0.7876261119575587,-1.0399999999999998,0.527727648656369,0.5801304423771516,-0.9755857196970489,low,high,,ISIC_0034065.JPG,9,ISIC_3933658.JPG,51,false,lh,keypress(e),0,false,666144.3000000119,666144.1999999881,663761.837,663776.9000000358,663778.373,666162.494,4,500,12,
break,html.Screen,10_11_1,2023-11-15T18:50:44.210Z,,,,,,,,,,NaN,,,,,,,,low,high,,,,,,false,,,,false,666144.6000000238,666144.5,,666144.3000000119,,666162.494,4,500,,
break_continue,html.Screen,10_11_2,2023-11-15T18:50:44.211Z,,,,,,,,,,NaN,,,,,,,,low,high,,,,,,false,,,,false,666144.8000000119,666144.6999999881,,666144.6000000238,,666162.494,4,500,,
sequence,flow.Sequence,10_11,2023-11-15T18:50:44.211Z,,,,,,,,,,2366.3269999880577,completion,,,,,,,low,high,,,,,,false,,,,false,666144.8000000119,666144.6999999881,663761.837,663776.9000000358,663778.373,666162.494,4,500,,
trial,html.Screen,10_12_0,2023-11-15T18:50:48.146Z,,,,1,0.0145962222125655,0.0525495878509009,,true,hh,3917.606000023894,response,0.8145814609211571,0.7876261119575587,-1.0399999999999998,0.7591292272911163,0.5801304423771516,-0.9755857196970489,high,high,,ISIC_4248013.JPG,9,ISIC_0011434.JPG,307,false,hh,keypress(i),0,false,670080.1999999881,670080.1000000238,666128.604,666144.8000000119,666162.494,670095.053,4,500,13,
break,html.Screen,10_12_1,2023-11-15T18:50:48.146Z,,,,,,,,,,NaN,,,,,,,,high,high,,,,,,false,,,,false,670080.5,670080.4000000358,,670080.1999999881,,670095.053,4,500,,
break_continue,html.Screen,10_12_2,2023-11-15T18:50:48.147Z,,,,,,,,,,NaN,,,,,,,,high,high,,,,,,false,,,,false,670080.6999999881,670080.6000000238,,670080.6000000238,,670095.053,4,500,,
sequence,flow.Sequence,10_12,2023-11-15T18:50:48.147Z,,,,,,,,,,3918.106000023894,completion,,,,,,,high,high,,,,,,false,,,,false,670080.6999999881,670080.6000000238,666128.604,666144.8000000119,666162.494,670095.053,4,500,,
trial,html.Screen,10_13_0,2023-11-15T18:50:50.370Z,,,,1,-0.0700576547090477,0.0026956749740767,,false,ll,2208.8470000358066,response,-1.008831959223626,0.7876261119575587,-1.0399999999999998,-0.9823409524664072,0.5801304423771516,-0.9755857196970489,low,low,,ISIC_7212271.JPG,8,ISIC_1579745.JPG,100,false,hl,keypress(j),0,false,672303.9000000358,672303.9000000358,670078.469,670080.9000000358,670095.053,672311.719,4,500,14,
break,html.Screen,10_13_1,2023-11-15T18:50:50.370Z,,,,,,,,,,NaN,,,,,,,,low,low,,,,,,false,,,,false,672304.3000000119,672304.1999999881,,672304.1000000238,,672311.719,4,500,,
break_continue,html.Screen,10_13_2,2023-11-15T18:50:50.370Z,,,,,,,,,,NaN,,,,,,,,low,low,,,,,,false,,,,false,672304.5,672304.5,,672304.4000000358,,672311.719,4,500,,
sequence,flow.Sequence,10_13,2023-11-15T18:50:50.370Z,,,,,,,,,,2209.4470000000438,completion,,,,,,,low,low,,,,,,false,,,,false,672304.6000000238,672304.5,670078.469,670080.8000000119,670095.053,672311.719,4,500,,
trial,html.Screen,10_14_0,2023-11-15T18:50:52.386Z,,,,1,-0.0586798548295751,0.0060040805764433,,false,hh,2008.280999999959,response,0.6522645599841925,0.7876261119575587,-1.0399999999999998,0.6799668378078466,0.5801304423771516,-0.9755857196970489,high,high,,ISIC_1552232.JPG,10,ISIC_2843983.JPG,307,false,hl,keypress(j),0,false,674320.1000000238,674320,672295.247,672304.6999999881,672311.719,674328.547,4,500,15,
break,html.Screen,10_14_1,2023-11-15T18:50:52.386Z,,,,,,,,,,NaN,,,,,,,,high,high,,,,,,false,,,,false,674320.4000000358,674320.4000000358,,674320.1000000238,,674328.547,4,500,,
break_continue,html.Screen,10_14_2,2023-11-15T18:50:52.387Z,,,,,,,,,,NaN,,,,,,,,high,high,,,,,,false,,,,false,674320.6999999881,674320.6000000238,,674320.5,,674328.547,4,500,,
sequence,flow.Sequence,10_14,2023-11-15T18:50:52.387Z,,,,,,,,,,2008.8810000238009,completion,,,,,,,high,high,,,,,,false,,,,false,674320.6999999881,674320.6000000238,672295.247,672304.6000000238,672311.719,674328.547,4,500,,
trial,html.Screen,10_15_0,2023-11-15T18:50:56.417Z,,,,1,0.0586587895724749,0.0220047273041276,,true,hh,4022.5530000238214,response,0.8996141262602615,0.7876261119575587,-1.0399999999999998,0.3863901816681758,0.5801304423771516,-0.9755857196970489,high,high,,ISIC_0028320.JPG,10,ISIC_0059601.JPG,307,false,hh,keypress(i),0,false,678351.3000000119,678351.1000000238,674311.775,674320.6999999881,674328.547,678361.703,4,500,16,
break,html.Screen,10_15_1,2023-11-15T18:50:56.418Z,,,,,,,,,,NaN,,,,,,,,high,high,,,,,,false,,,,false,678351.6999999881,678351.5,,678351.4000000358,,678361.703,4,500,,
break_continue,html.Screen,10_15_2,2023-11-15T18:50:56.418Z,,,,,,,,,,NaN,,,,,,,,high,high,,,,,,false,,,,false,678351.9000000358,678351.8000000119,,678351.6999999881,,678361.703,4,500,,
sequence,flow.Sequence,10_15,2023-11-15T18:50:56.418Z,,,,,,,,,,4023.2530000119004,completion,,,,,,,high,high,,,,,,false,,,,false,678352,678351.8000000119,674311.775,674320.6999999881,674328.547,678361.703,4,500,,
trial,html.Screen,10_16_0,2023-11-15T18:50:58.738Z,,,,1,0.0107170641394226,-0.0596294643429623,,false,hh,2310.3970000238623,response,0.6149115289860932,0.7876261119575587,-1.0399999999999998,0.5755517694872845,0.5801304423771516,-0.9755857196970489,high,high,,ISIC_0005291.JPG,9,ISIC_0034242.JPG,307,false,lh,keypress(e),0,false,680672.1999999881,680672.1000000238,678345.227,678352,678361.703,680678.53,4,500,17,
break,html.Screen,10_16_1,2023-11-15T18:50:58.738Z,,,,,,,,,,NaN,,,,,,,,high,high,,,,,,false,,,,false,680672.5,680672.4000000358,,680672.3000000119,,680678.53,4,500,,
break_continue,html.Screen,10_16_2,2023-11-15T18:50:58.739Z,,,,,,,,,,NaN,,,,,,,,high,high,,,,,,false,,,,false,680672.6999999881,680672.6999999881,,680672.6000000238,,680678.53,4,500,,
sequence,flow.Sequence,10_16,2023-11-15T18:50:58.739Z,,,,,,,,,,2310.9969999880996,completion,,,,,,,high,high,,,,,,false,,,,false,680672.8000000119,680672.6999999881,678345.227,678352,678361.703,680678.53,4,500,,
trial,html.Screen,10_17_0,2023-11-15T18:51:04.306Z,,,,1,0.0374659946425444,0.0086043094957617,,false,hl,5561.870000035735,response,0.7692916291112835,0.7876261119575587,-1.0399999999999998,-0.7818604706992622,0.5801304423771516,-0.9755857196970489,high,low,,ISIC_0033051.JPG,9,ISIC_7844825.JPG,48,false,ll,keypress(f),0,false,686240.5,686240.4000000358,680661.839,680672.9000000358,680678.53,686245.03,4,500,18,
break,html.Screen,10_17_1,2023-11-15T18:51:04.307Z,,,,,,,,,,NaN,,,,,,,,high,low,,,,,,false,,,,false,686240.9000000358,686240.8000000119,,686240.6000000238,,686245.03,4,500,,
break_continue,html.Screen,10_17_2,2023-11-15T18:51:04.307Z,,,,,,,,,,NaN,,,,,,,,high,low,,,,,,false,,,,false,686241.1000000238,686240.9000000358,,686240.9000000358,,686245.03,4,500,,
sequence,flow.Sequence,10_17,2023-11-15T18:51:04.307Z,,,,,,,,,,5562.370000035735,completion,,,,,,,high,low,,,,,,false,,,,false,686241.1000000238,686240.9000000358,680661.839,680672.9000000358,680678.53,686245.03,4,500,,
trial,html.Screen,10_18_0,2023-11-15T18:51:06.657Z,,,,1,0.0199950873045219,0.0172506388509166,,false,ll,2346.270000011893,response,-0.8465917022244419,0.7876261119575587,-1.0399999999999998,-1.0121558062445464,0.5801304423771516,-0.9755857196970489,low,low,,ISIC_0029906.JPG,9,ISIC_6914698.JPG,100,false,hl,keypress(j),0,false,688591.4000000358,688591.3000000119,686228.279,686241.1999999881,686245.03,688595.023,4,500,19,
break,html.Screen,10_18_1,2023-11-15T18:51:06.658Z,,,,,,,,,,NaN,,,,,,,,low,low,,,,,,false,,,,false,688591.8000000119,688591.6999999881,,688591.5,,688595.023,4,500,,
break_continue,html.Screen,10_18_2,2023-11-15T18:51:06.658Z,,,,,,,,,,NaN,,,,,,,,low,low,,,,,,false,,,,false,688592,688591.9000000358,,688591.8000000119,,688595.023,4,500,,
sequence,flow.Sequence,10_18,2023-11-15T18:51:06.658Z,,,,,,,,,,2346.870000035735,completion,,,,,,,low,low,,,,,,false,,,,false,688592,688591.9000000358,686228.279,686241.1999999881,686245.03,688595.023,4,500,,
trial,html.Screen,10_19_0,2023-11-15T18:51:09.426Z,,,,1,0.0478761683145946,-0.012927090508672,,false,hl,2765.077000023797,response,0.6546079444168281,0.7876261119575587,-1.0399999999999998,-1.1750459687878738,0.5801304423771516,-0.9755857196970489,high,low,,ISIC_9631669.JPG,9,ISIC_4352700.JPG,48,false,lh,keypress(e),0,false,691360.3000000119,691360.1000000238,688578.599,688592.1000000238,688595.023,691361.672,4,500,20,
break,html.Screen,10_19_1,2023-11-15T18:51:09.426Z,,,,,,,,,,NaN,,,,,,,,high,low,,,,,,false,,,,false,691360.6000000238,691360.5,,691360.3000000119,,691361.672,4,500,,
break_continue,html.Screen,10_19_2,2023-11-15T18:51:09.427Z,,,,,,,,,,NaN,,,,,,,,high,low,,,,,,false,,,,false,691360.8000000119,691360.6999999881,,691360.6000000238,,691361.672,4,500,,
sequence,flow.Sequence,10_19,2023-11-15T18:51:09.427Z,,,,,,,,,,2765.6769999880344,completion,,,,,,,high,low,,,,,,false,,,,false,691360.9000000358,691360.6999999881,688578.599,688592.1000000238,688595.023,691361.672,4,500,,
trial,html.Screen,10_20_0,2023-11-15T18:51:14.898Z,,,,1,-0.0606387586319451,-0.0283716809868572,,false,lh,5470.3279999999795,response,-1.1898494014853933,0.7876261119575587,-1.0399999999999998,0.7016654052924971,0.5801304423771516,-0.9755857196970489,low,high,,ISIC_0061158.JPG,9,ISIC_6324832.JPG,51,false,hh,keypress(i),0,false,696832.1999999881,696832,691345.193,691360.9000000358,691361.672,696845.183,4,500,21,
break,html.Screen,10_20_1,2023-11-15T18:51:14.898Z,,,,,,,,,,NaN,,,,,,,,low,high,,,,,,false,,,,false,696832.5,696832.4000000358,,696832.3000000119,,696845.183,4,500,,
break_continue,html.Screen,10_20_2,2023-11-15T18:51:14.899Z,,,,,,,,,,NaN,,,,,,,,low,high,,,,,,false,,,,false,696832.6000000238,696832.5,,696832.5,,696845.183,4,500,,
sequence,flow.Sequence,10_20,2023-11-15T18:51:14.899Z,,,,,,,,,,5470.8279999999795,completion,,,,,,,low,high,,,,,,false,,,,false,696832.6999999881,696832.5,691345.193,691360.9000000358,691361.672,696845.183,4,500,,
trial,html.Screen,10_21_0,2023-11-15T18:51:16.802Z,,,,1,0.0426957918502628,0.044166030546046,,false,ll,1890.417000023881,response,-1.0058354021163274,0.7876261119575587,-1.0399999999999998,-0.8916720716393026,0.5801304423771516,-0.9755857196970489,low,low,,ISIC_4649440.JPG,9,ISIC_5581936.JPG,100,false,hl,keypress(j),0,false,698735.6999999881,698735.6000000238,696828.577,696832.6999999881,696845.183,698745.209,4,500,22,
break,html.Screen,10_21_1,2023-11-15T18:51:16.802Z,,,,,,,,,,NaN,,,,,,,,low,low,,,,,,false,,,,false,698736,698735.9000000358,,698735.9000000358,,698745.209,4,500,,
break_continue,html.Screen,10_21_2,2023-11-15T18:51:16.802Z,,,,,,,,,,NaN,,,,,,,,low,low,,,,,,false,,,,false,698736.3000000119,698736.1999999881,,698736,,698745.209,4,500,,
sequence,flow.Sequence,10_21,2023-11-15T18:51:16.802Z,,,,,,,,,,1891.0169999881182,completion,,,,,,,low,low,,,,,,false,,,,false,698736.3000000119,698736.1999999881,696828.577,696832.6999999881,696845.183,698745.209,4,500,,
trial,html.Screen,10_22_0,2023-11-15T18:51:18.610Z,,,,1,0.049790040126711,-0.0195291725171472,,true,hl,1798.6910000357311,response,0.6588697713356909,0.7876261119575587,-1.0399999999999998,-0.903230705453214,0.5801304423771516,-0.9755857196970489,high,low,,ISIC_0372902.JPG,9,ISIC_0061454.JPG,48,false,hl,keypress(j),0,false,700544,700543.9000000358,698728.346,698736.3000000119,698745.209,700563.002,4,500,23,
break,html.Screen,10_22_1,2023-11-15T18:51:18.610Z,,,,,,,,,,NaN,,,,,,,,high,low,,,,,,false,,,,false,700544.1999999881,700544.1999999881,,700544,,700563.002,4,500,,
break_continue,html.Screen,10_22_2,2023-11-15T18:51:18.610Z,,,,,,,,,,NaN,,,,,,,,high,low,,,,,,false,,,,false,700544.4000000358,700544.3000000119,,700544.3000000119,,700563.002,4,500,,
sequence,flow.Sequence,10_22,2023-11-15T18:51:18.610Z,,,,,,,,,,1799.0910000118893,completion,,,,,,,high,low,,,,,,false,,,,false,700544.5,700544.3000000119,698728.346,698736.3000000119,698745.209,700563.002,4,500,,
trial,html.Screen,10_23_0,2023-11-15T18:51:23.602Z,,,,1,-0.068830656047477,0.0471494209282208,,false,lh,4972.798000011942,response,-0.9375710028613438,0.7876261119575587,-1.0399999999999998,0.646533075914549,0.5801304423771516,-0.9755857196970489,low,high,,ISIC_0029982.JPG,9,ISIC_0024507.JPG,51,false,ll,keypress(f),0,false,705536,705535.8000000119,700528.349,700544.5,700563.002,705544.985,4,500,24,
break,html.Screen,10_23_1,2023-11-15T18:51:23.602Z,,,,,,,,,,NaN,,,,,,,,low,high,,,,,,false,,,,false,705536.1999999881,705536.1999999881,,705536.1000000238,,705544.985,4,500,,
break_continue,html.Screen,10_23_2,2023-11-15T18:51:23.602Z,,,,,,,,,,NaN,,,,,,,,low,high,,,,,,false,,,,false,705536.5,705536.4000000358,,705536.3000000119,,705544.985,4,500,,
sequence,flow.Sequence,10_23,2023-11-15T18:51:23.602Z,,,,,,,,,,4973.398000035784,completion,,,,,,,low,high,,,,,,false,,,,false,705536.6000000238,705536.4000000358,700528.349,700544.5,700563.002,705544.985,4,500,,
trial,html.Screen,10_24_0,2023-11-15T18:51:28.322Z,,,,1,-0.0257631352671967,-0.0202837002774028,,true,hh,4710.815000011935,response,0.7752642441272716,0.7876261119575587,-1.0399999999999998,0.4432591734247733,0.5801304423771516,-0.9755857196970489,high,high,,ISIC_0032797.JPG,9,ISIC_0025127.JPG,307,false,hh,keypress(i),0,false,710255.9000000358,710255.8000000119,705528.639,705536.6000000238,705544.985,710261.654,4,500,25,
break,html.Screen,10_24_1,2023-11-15T18:51:28.322Z,,,,,,,,,,NaN,,,,,,,,high,high,,,,,,false,,,,false,710256.1999999881,710256.1000000238,,710256,,710261.654,4,500,,
break_continue,html.Screen,10_24_2,2023-11-15T18:51:28.322Z,,,,,,,,,,NaN,,,,,,,,high,high,,,,,,false,,,,false,710256.4000000358,710256.3000000119,,710256.1999999881,,710261.654,4,500,,
sequence,flow.Sequence,10_24,2023-11-15T18:51:28.322Z,,,,,,,,,,4711.315000011935,completion,,,,,,,high,high,,,,,,false,,,,false,710256.5,710256.3000000119,705528.639,705536.6000000238,705544.985,710261.654,4,500,,
trial,html.Screen,10_25_0,2023-11-15T18:51:31.202Z,,,,1,-0.024731486864197,-0.0504232274546553,,true,hl,2874.1460000119405,response,0.7236002097394486,0.7876261119575587,-1.0399999999999998,-0.7895205994309619,0.5801304423771516,-0.9755857196970489,high,low,,ISIC_4782878.JPG,9,ISIC_0413563.JPG,48,false,hl,keypress(j),0,false,713135.9000000358,713135.8000000119,710244.908,710256.5,710261.654,713145.004,4,500,26,
break,html.Screen,10_25_1,2023-11-15T18:51:31.202Z,,,,,,,,,,NaN,,,,,,,,high,low,,,,,,false,,,,false,713136.1999999881,713136.1000000238,,713136,,713145.004,4,500,,
break_continue,html.Screen,10_25_2,2023-11-15T18:51:31.202Z,,,,,,,,,,NaN,,,,,,,,high,low,,,,,,false,,,,false,713136.5,713136.4000000358,,713136.3000000119,,713145.004,4,500,,
sequence,flow.Sequence,10_25,2023-11-15T18:51:31.202Z,,,,,,,,,,2874.7460000357823,completion,,,,,,,high,low,,,,,,false,,,,false,713136.5,713136.4000000358,710244.908,710256.5,710261.654,713145.004,4,500,,
trial,html.Screen,10_26_0,2023-11-15T18:51:33.778Z,,,,1,0.0388334549081915,-0.0303399972963369,,false,hh,2566.996000000043,response,0.9448299365501612,0.7876261119575587,-1.0399999999999998,0.657479477259629,0.5801304423771516,-0.9755857196970489,high,high,,ISIC_4961708.JPG,8,ISIC_7788318.JPG,307,false,lh,keypress(e),0,false,715712.1000000238,715712,713128.506,713136.5,713145.004,715728.566,4,500,27,
break,html.Screen,10_26_1,2023-11-15T18:51:33.778Z,,,,,,,,,,NaN,,,,,,,,high,high,,,,,,false,,,,false,715712.5,715712.3000000119,,715712.1999999881,,715728.566,4,500,,
break_continue,html.Screen,10_26_2,2023-11-15T18:51:33.779Z,,,,,,,,,,NaN,,,,,,,,high,high,,,,,,false,,,,false,715712.6999999881,715712.6000000238,,715712.5,,715728.566,4,500,,
sequence,flow.Sequence,10_26,2023-11-15T18:51:33.779Z,,,,,,,,,,2567.5960000238847,completion,,,,,,,high,high,,,,,,false,,,,false,715712.6999999881,715712.6000000238,713128.506,713136.5,713145.004,715728.566,4,500,,
trial,html.Screen,10_27_0,2023-11-15T18:51:39.122Z,,,,1,-0.0715931084231032,0.011427878877272,,false,lh,5327.633999988087,response,-1.1898494014853933,0.7876261119575587,-1.0399999999999998,0.7016654052924971,0.5801304423771516,-0.9755857196970489,low,high,,ISIC_1470250.JPG,9,ISIC_6324832.JPG,51,false,ll,keypress(f),0,false,721056.3000000119,721056.1999999881,715711.643,715712.8000000119,715728.566,721061.64,4,500,28,
break,html.Screen,10_27_1,2023-11-15T18:51:39.123Z,,,,,,,,,,NaN,,,,,,,,low,high,,,,,,false,,,,false,721056.5,721056.5,,721056.4000000358,,721061.64,4,500,,
break_continue,html.Screen,10_27_2,2023-11-15T18:51:39.123Z,,,,,,,,,,NaN,,,,,,,,low,high,,,,,,false,,,,false,721056.8000000119,721056.6999999881,,721056.6000000238,,721061.64,4,500,,
sequence,flow.Sequence,10_27,2023-11-15T18:51:39.123Z,,,,,,,,,,5328.133999988087,completion,,,,,,,low,high,,,,,,false,,,,false,721056.8000000119,721056.6999999881,715711.643,715712.6999999881,715728.566,721061.64,4,500,,
trial,html.Screen,10_28_0,2023-11-15T18:51:41.650Z,,,,1,-0.0394300226801425,0.0536115913979284,,true,lh,2522.260000035749,response,-0.864159288143104,0.7876261119575587,-1.0399999999999998,0.6456269226301533,0.5801304423771516,-0.9755857196970489,low,high,,ISIC_0046983.JPG,9,ISIC_0238570.JPG,51,false,lh,keypress(e),0,false,723584,723583.9000000358,721045.204,721056.9000000358,721061.64,723595.231,4,500,29,
break,html.Screen,10_28_1,2023-11-15T18:51:41.650Z,,,,,,,,,,NaN,,,,,,,,low,high,,,,,,false,,,,false,723584.4000000358,723584.1999999881,,723584.1000000238,,723595.231,4,500,,
break_continue,html.Screen,10_28_2,2023-11-15T18:51:41.651Z,,,,,,,,,,NaN,,,,,,,,low,high,,,,,,false,,,,false,723584.6000000238,723584.5,,723584.4000000358,,723595.231,4,500,,
sequence,flow.Sequence,10_28,2023-11-15T18:51:41.651Z,,,,,,,,,,2522.859999999986,completion,,,,,,,low,high,,,,,,false,,,,false,723584.6000000238,723584.5,721045.204,721056.9000000358,721061.64,723595.231,4,500,,
trial,html.Screen,10_29_0,2023-11-15T18:51:44.514Z,,,,1,0.0478761683145946,-0.012927090508672,,false,ll,2852.869000023813,response,-1.0777929856705222,0.7876261119575587,-1.0399999999999998,-1.0139833925057518,0.5801304423771516,-0.9755857196970489,low,low,,ISIC_9631669.JPG,8,ISIC_6171084.JPG,100,false,lh,keypress(e),0,false,726448.1999999881,726448.1000000238,723578.296,723584.6999999881,723595.231,726461.896,4,500,30,
break,html.Screen,10_29_1,2023-11-15T18:51:44.515Z,,,,,,,,,,NaN,,,,,,,,low,low,,,,,,false,,,,false,726448.5,726448.5,,726448.4000000358,,726461.896,4,500,,
break_continue,html.Screen,10_29_2,2023-11-15T18:51:44.515Z,,,,,,,,,,NaN,,,,,,,,low,low,,,,,,false,,,,false,726448.8000000119,726448.6999999881,,726448.6000000238,,726461.896,4,500,,
sequence,flow.Sequence,10_29,2023-11-15T18:51:44.515Z,,,,,,,,,,2853.46899998805,completion,,,,,,,low,low,,,,,,false,,,,false,726448.8000000119,726448.6999999881,723578.296,723584.6999999881,723595.231,726461.896,4,500,,
trial,html.Screen,10_30_0,2023-11-15T18:51:46.658Z,,,,1,-0.0085390023861227,-0.051110950799465,,true,lh,2130.3039999881294,response,-0.9472092168153812,0.7876261119575587,-1.0399999999999998,0.5623187922463141,0.5801304423771516,-0.9755857196970489,low,high,,ISIC_6268546.JPG,9,ISIC_0010103.JPG,51,false,lh,keypress(e),0,false,728592.1999999881,728592.1999999881,726445.375,726448.9000000358,726461.896,728594.939,4,500,31,
break,html.Screen,10_30_1,2023-11-15T18:51:46.659Z,,,,,,,,,,NaN,,,,,,,,low,high,,,,,,false,,,,false,728592.5,728592.4000000358,,728592.3000000119,,728594.939,4,500,,
break_continue,html.Screen,10_30_2,2023-11-15T18:51:46.659Z,,,,,,,,,,NaN,,,,,,,,low,high,,,,,,false,,,,false,728592.8000000119,728592.6999999881,,728592.6999999881,,728594.939,4,500,,
sequence,flow.Sequence,10_30,2023-11-15T18:51:46.659Z,,,,,,,,,,2130.8039999881294,completion,,,,,,,low,high,,,,,,false,,,,false,728592.8000000119,728592.6999999881,726445.375,726448.9000000358,726461.896,728594.939,4,500,,
trial,html.Screen,10_31_0,2023-11-15T18:51:48.913Z,,,,1,0.045779466401051,0.0137769797231127,,false,ll,2252.260999988066,response,-1.0257168197307909,0.7876261119575587,-1.0399999999999998,-1.0403166496930305,0.5801304423771516,-0.9755857196970489,low,low,,ISIC_0000504.JPG,10,ISIC_1690909.JPG,100,false,hl,keypress(j),0,false,730847.3000000119,730847.1999999881,728578.266,728592.9000000358,728594.939,730861.62,4,500,32,
break,html.Screen,10_31_1,2023-11-15T18:51:48.914Z,,,,,,,,,,NaN,,,,,,,,low,low,,,,,,false,,,,false,730847.6999999881,730847.6000000238,,730847.4000000358,,730861.62,4,500,,
break_continue,html.Screen,10_31_2,2023-11-15T18:51:48.914Z,,,,,,,,,,NaN,,,,,,,,low,low,,,,,,false,,,,false,730847.9000000358,730847.9000000358,,730847.6999999881,,730861.62,4,500,,
sequence,flow.Sequence,10_31,2023-11-15T18:51:48.914Z,,,,,,,,,,2252.9610000357497,completion,,,,,,,low,low,,,,,,false,,,,false,730848,730847.9000000358,728578.266,728592.8000000119,728594.939,730861.62,4,500,,
trial,html.Screen,10_32_0,2023-11-15T18:51:52.146Z,,,,1,0.0223011224608011,-0.0466190802905965,,false,hl,3218.3800000000047,response,0.9633172970727744,0.7876261119575587,-1.0399999999999998,-0.8472659344792351,0.5801304423771516,-0.9755857196970489,high,low,,ISIC_0028041.JPG,9,ISIC_0067172.JPG,48,false,lh,keypress(e),0,false,734080.1000000238,734080,730844.936,730848,730861.62,734095.215,4,500,33,
break,html.Screen,10_32_1,2023-11-15T18:51:52.146Z,,,,,,,,,,NaN,,,,,,,,high,low,,,,,,false,,,,false,734080.4000000358,734080.4000000358,,734080.1999999881,,734095.215,4,500,,
break_continue,html.Screen,10_32_2,2023-11-15T18:51:52.147Z,,,,,,,,,,NaN,,,,,,,,high,low,,,,,,false,,,,false,734080.6999999881,734080.5,,734080.5,,734095.215,4,500,,
sequence,flow.Sequence,10_32,2023-11-15T18:51:52.147Z,,,,,,,,,,3218.8800000000047,completion,,,,,,,high,low,,,,,,false,,,,false,734080.8000000119,734080.5,730844.936,730848,730861.62,734095.215,4,500,,
trial,html.Screen,10_33_0,2023-11-15T18:51:54.130Z,,,,1,0.0495531443078245,0.0310660434153916,,false,ll,1968.9849999881117,response,-1.2101243893950622,0.7876261119575587,-1.0399999999999998,-0.9721089662087676,0.5801304423771516,-0.9755857196970489,low,low,,ISIC_0013719.JPG,9,ISIC_0760740.JPG,100,false,hl,keypress(j),0,false,736064.3000000119,736064.1999999881,734078.268,734080.8000000119,734095.215,736078.547,4,500,34,
break,html.Screen,10_33_1,2023-11-15T18:51:54.130Z,,,,,,,,,,NaN,,,,,,,,low,low,,,,,,false,,,,false,736064.5,736064.4000000358,,736064.3000000119,,736078.547,4,500,,
break_continue,html.Screen,10_33_2,2023-11-15T18:51:54.131Z,,,,,,,,,,NaN,,,,,,,,low,low,,,,,,false,,,,false,736064.6999999881,736064.6000000238,,736064.5,,736078.547,4,500,,
sequence,flow.Sequence,10_33,2023-11-15T18:51:54.131Z,,,,,,,,,,1969.3850000238745,completion,,,,,,,low,low,,,,,,false,,,,false,736064.6999999881,736064.6000000238,734078.268,734080.8000000119,734095.215,736078.547,4,500,,
trial,html.Screen,10_34_0,2023-11-15T18:51:57.954Z,,,,1,-0.0606387586319451,-0.0283716809868572,,false,lh,3809.3530000357423,response,-1.0321350332513155,0.7876261119575587,-1.0399999999999998,0.4403991857280807,0.5801304423771516,-0.9755857196970489,low,high,,ISIC_0061158.JPG,9,ISIC_6430210.JPG,51,false,hh,keypress(i),0,false,739888,739887.9000000358,736061.847,736064.8000000119,736078.547,739895.146,4,500,35,
break,html.Screen,10_34_1,2023-11-15T18:51:57.954Z,,,,,,,,,,NaN,,,,,,,,low,high,,,,,,false,,,,false,739888.3000000119,739888.1999999881,,739888.1000000238,,739895.146,4,500,,
break_continue,html.Screen,10_34_2,2023-11-15T18:51:57.955Z,,,,,,,,,,NaN,,,,,,,,low,high,,,,,,false,,,,false,739888.6000000238,739888.4000000358,,739888.4000000358,,739895.146,4,500,,
sequence,flow.Sequence,10_34,2023-11-15T18:51:57.955Z,,,,,,,,,,3809.8530000357423,completion,,,,,,,low,high,,,,,,false,,,,false,739888.6000000238,739888.4000000358,736061.847,736064.8000000119,736078.547,739895.146,4,500,,
trial,html.Screen,10_35_0,2023-11-15T18:52:01.682Z,,,,1,0.0010920693448107,0.0492408806128631,,false,hh,3720.954000023892,response,0.9837484615880512,0.7876261119575587,-1.0399999999999998,0.4851809000839542,0.5801304423771516,-0.9755857196970489,high,high,,ISIC_6155981.JPG,9,ISIC_0030784.JPG,307,false,hl,keypress(j),0,false,743616.1000000238,743616.1000000238,739878.434,739888.6000000238,739895.146,743628.533,4,500,36,
break,html.Screen,10_35_1,2023-11-15T18:52:01.682Z,,,,,,,,,,NaN,,,,,,,,high,high,,,,,,false,,,,false,743616.4000000358,743616.3000000119,,743616.1999999881,,743628.533,4,500,,
break_continue,html.Screen,10_35_2,2023-11-15T18:52:01.683Z,,,,,,,,,,NaN,,,,,,,,high,high,,,,,,false,,,,false,743616.6999999881,743616.5,,743616.5,,743628.533,4,500,,
sequence,flow.Sequence,10_35,2023-11-15T18:52:01.683Z,,,,,,,,,,3721.3540000000503,completion,,,,,,,high,high,,,,,,false,,,,false,743616.6999999881,743616.5,739878.434,739888.6000000238,739895.146,743628.533,4,500,,
trial,html.Screen,10_36_0,2023-11-15T18:52:04.082Z,,,,1,-0.0308384937406319,0.0038396364323947,,false,ll,2387.466999999946,response,-0.9345244335403022,0.7876261119575587,-1.0399999999999998,-0.9139577511829252,0.5801304423771516,-0.9755857196970489,low,low,,ISIC_0029825.JPG,9,ISIC_5783440.JPG,100,false,hl,keypress(j),0,false,746016.1000000238,746016,743611.784,743616.6999999881,743628.533,746045.169,4,500,37,
break,html.Screen,10_36_1,2023-11-15T18:52:04.082Z,,,,,,,,,,NaN,,,,,,,,low,low,,,,,,false,,,,false,746016.4000000358,746016.4000000358,,746016.1000000238,,746045.169,4,500,,
break_continue,html.Screen,10_36_2,2023-11-15T18:52:04.082Z,,,,,,,,,,NaN,,,,,,,,low,low,,,,,,false,,,,false,746016.6000000238,746016.4000000358,,746016.4000000358,,746045.169,4,500,,
sequence,flow.Sequence,10_36,2023-11-15T18:52:04.083Z,,,,,,,,,,2387.8670000357088,completion,,,,,,,low,low,,,,,,false,,,,false,746016.6000000238,746016.4000000358,743611.784,743616.6999999881,743628.533,746045.169,4,500,,
trial,html.Screen,10_37_0,2023-11-15T18:52:08.610Z,,,,1,0.0629648527969799,-0.0694960898867798,,false,lh,4498.831000000006,response,-1.2054195059663604,0.7876261119575587,-1.0399999999999998,0.7760611240296147,0.5801304423771516,-0.9755857196970489,low,high,,ISIC_0025597.JPG,8,ISIC_8712559.JPG,51,false,ll,keypress(f),0,false,750544.1000000238,750544,746028.421,746016.6000000238,746045.169,750562.138,4,500,38,
