sender,sender_type,sender_id,timestamp,meta,,age,blockNo,c1,c2,condition,correct,correctResponse,duration,ended_on,f1,f1_high,f1_low,f2,f2_high,f2_low,feature_level1,feature_level2,gender,img_left,img_reveal,img_right,n_target_images,practice,response,response_action,selection_duration,staircase,time_commit,time_end,time_render,time_run,time_show,time_switch,total_blocks,total_trials,trialNo,url
informed_consent,html.Screen,0,2023-11-15T18:31:45.969Z,"{""labjs_version"":""20.2.4"",""labjs_build"":{""flavor"":""development"",""commit"":""f5b4a49f956347addd546a832a3327688c2c0fef""},""location"":""https://labjs.felixhenninger.com/api/labjs_preview/index.html"",""userAgent"":""Mozilla/5.0 (Windows NT 10.0; Win64; x64) AppleWebKit/537.36 (KHTML, like Gecko) Chrome/119.0.0.0 Safari/537.36"",""platform"":""Win32"",""language"":""en-US"",""locale"":""en-US"",""timeZone"":""America/Chicago"",""timezoneOffset"":360,""screen_width"":1920,""screen_height"":1080,""scroll_width"":945,""scroll_height"":918,""window_innerWidth"":945,""window_innerHeight"":966,""devicePixelRatio"":1}",,,,,,,,,71699.37200002384,response,,,,,,,,,,,,,,,consent,click button,,,72241.90000003576,72235.60000002384,519.532,631.1999999880791,536.228,72152.801,,,,{}
Demography form,html.Form,1,2023-11-15T18:31:54.033Z,,,18,,,,,,,8153.198999999993,form submission,,,,,,,,,female,,,,,,,,,,80306.19999998808,80306,72136.389,72242.10000002384,72152.801,80220.342,,,,
Welcome,html.Screen,2,2023-11-15T18:32:12.908Z,,,,,,,"[""asym"",""bor""]",,,18959.458000011917,response,,,,,,,,,,,,,,,continue,click button,,,99180.60000002384,99179.80000001192,80186.61,80306.19999998808,80220.342,99086.155,,,,
demo_instructions,html.Screen,3,2023-11-15T18:32:48.715Z,,,,,,,,,,35901.64500001192,response,,,,,,,,,,,,,,,continue,click button,,,134988.60000002384,134987.80000001192,99069.626,99180.69999998808,99086.155,134902.853,,,,
trial,html.Screen,4_0_0,2023-11-15T18:33:06.009Z,,,,0,1.0213365328004047,-1.088524359911891,,true,lh,17379.346999988076,response,-0.8579451262594331,1.0499999999999998,-1.0499999999999998,0.9633172970727744,1.0499999999999998,-1.0499999999999998,low,high,,ISIC_5434229.JPG,,ISIC_0067172.JPG,21,true,lh,keypress(e),100,false,152282.30000001192,152282.19999998808,134886.14,134988.69999998808,134902.853,152203.262,1,16,1,
sequence,flow.Sequence,4_0,2023-11-15T18:33:06.009Z,,,,,,,,,,17379.346999988076,completion,,,,,,,low,high,,,,,,true,,,,false,152282.5,152282.19999998808,134886.14,134988.69999998808,134902.853,152203.262,1,16,,
trial,html.Screen,4_1_0,2023-11-15T18:33:17.581Z,,,,0,0.9235571765207048,-1.0008081653938232,,true,lh,11650.338000023854,response,-0.8809306963311293,1.0499999999999998,-1.0499999999999998,0.8614910030038974,1.0499999999999998,-1.0499999999999998,low,high,,ISIC_8796632.JPG,,ISIC_0013731.JPG,21,true,lh,keypress(e),100,false,163853.90000003576,163853.60000002384,152186.138,152282.60000002384,152203.262,163786.322,1,16,2,
sequence,flow.Sequence,4_1,2023-11-15T18:33:17.581Z,,,,,,,,,,11650.338000023854,completion,,,,,,,low,high,,,,,,true,,,,false,163854.10000002384,163853.60000002384,152186.138,152282.60000002384,152203.262,163786.322,1,16,,
trial,html.Screen,4_2_0,2023-11-15T18:33:47.042Z,,,,0,0.9235571765207048,-1.0008081653938232,,true,lh,29528.778000023856,response,-1.0865333402803938,1.0499999999999998,-1.0499999999999998,1.0542635307358266,1.0499999999999998,-1.0499999999999998,low,high,,ISIC_8796632.JPG,,ISIC_0034006.JPG,21,true,lh,keypress(e),100,false,193315.30000001192,193315.10000002384,163769.913,163854.19999998808,163786.322,193236.113,1,16,3,
sequence,flow.Sequence,4_2,2023-11-15T18:33:47.042Z,,,,,,,,,,29528.778000023856,completion,,,,,,,low,high,,,,,,true,,,,false,193315.60000002384,193315.10000002384,163769.913,163854.19999998808,163786.322,193236.113,1,16,,
trial,html.Screen,4_3_0,2023-11-15T18:34:00.824Z,,,,0,1.0213365328004047,-1.088524359911891,,true,lh,13860.386999999988,response,-0.991282840649944,1.0499999999999998,-1.0499999999999998,0.9397921099839784,1.0499999999999998,-1.0499999999999998,low,high,,ISIC_5434229.JPG,,ISIC_0000463.JPG,21,true,lh,keypress(e),100,false,207096.69999998808,207096.5,193219.429,193315.60000002384,193236.113,207019.439,1,16,4,
sequence,flow.Sequence,4_3,2023-11-15T18:34:00.824Z,,,,,,,,,,13860.386999999988,completion,,,,,,,low,high,,,,,,true,,,,false,207096.90000003576,207096.5,193219.429,193315.60000002384,193236.113,207019.439,1,16,,
trial,html.Screen,4_4_0,2023-11-15T18:34:22.459Z,,,,0,0.9225524349657857,0.9662688541319592,,true,ll,21712.260999988066,response,-1.09666761087476,1.0499999999999998,-1.0499999999999998,-1.1072126870290426,1.0499999999999998,-1.0499999999999998,low,low,,ISIC_0011077.JPG,,ISIC_0071754.JPG,111,true,ll,keypress(f),100,false,228732,228731.69999998808,207002.958,207096.90000003576,207019.439,228652.726,1,16,5,
sequence,flow.Sequence,4_4,2023-11-15T18:34:22.460Z,,,,,,,,,,21712.260999988066,completion,,,,,,,low,low,,,,,,true,,,,false,228732.10000002384,228731.69999998808,207002.958,207096.90000003576,207019.439,228652.726,1,16,,
trial,html.Screen,4_5_0,2023-11-15T18:34:32.031Z,,,,0,1.0917349644156236,0.9715963767506804,,true,ll,9650.574000011926,response,-0.936668460603038,1.0499999999999998,-1.0499999999999998,-1.058142123525081,1.0499999999999998,-1.0499999999999998,low,low,,ISIC_0034059.JPG,,ISIC_5046340.JPG,111,true,ll,keypress(f),100,false,238303.60000002384,238303.30000001192,228636.068,228732.19999998808,228652.726,238236.296,1,16,6,
sequence,flow.Sequence,4_5,2023-11-15T18:34:32.031Z,,,,,,,,,,9650.574000011926,completion,,,,,,,low,low,,,,,,true,,,,false,238303.69999998808,238303.30000001192,228636.068,228732.10000002384,228652.726,238236.296,1,16,,
trial,html.Screen,4_6_0,2023-11-15T18:34:38.788Z,,,,0,1.2055236989581275,0.9077872390456172,,true,ll,6824.104000035761,response,-0.8689515664606163,1.0499999999999998,-1.0499999999999998,-1.0538817435713148,1.0499999999999998,-1.0499999999999998,low,low,,ISIC_0072393.JPG,,ISIC_7333928.JPG,111,true,ll,keypress(f),100,false,245060.60000002384,245060.40000003576,238219.692,238303.80000001192,238236.296,244986.157,1,16,7,
sequence,flow.Sequence,4_6,2023-11-15T18:34:38.788Z,,,,,,,,,,6824.104000035761,completion,,,,,,,low,low,,,,,,true,,,,false,245060.80000001192,245060.40000003576,238219.692,238303.80000001192,238236.296,244986.157,1,16,,
trial,html.Screen,4_7_0,2023-11-15T18:34:42.791Z,,,,0,1.1233838977156558,0.8600511147636151,,true,ll,4077.6430000119144,response,-0.8755959065262388,1.0499999999999998,-1.0499999999999998,-1.093284184366194,1.0499999999999998,-1.0499999999999998,low,low,,ISIC_0031965.JPG,,ISIC_8096177.JPG,111,true,ll,keypress(f),100,false,249064,249063.80000001192,244969.632,245060.90000003576,244986.157,248986.081,1,16,8,
sequence,flow.Sequence,4_7,2023-11-15T18:34:42.791Z,,,,,,,,,,4077.6430000119144,completion,,,,,,,low,low,,,,,,true,,,,false,249064.10000002384,249063.80000001192,244969.632,245060.90000003576,244986.157,248986.081,1,16,,
trial,html.Screen,4_8_0,2023-11-15T18:34:58.268Z,,,,0,-1.1181734135756094,0.944560381774994,,true,hl,15554.618999988073,response,0.8947611078712571,0.9499999999999997,-0.9499999999999997,-0.8960964505004638,0.9499999999999997,-0.9499999999999997,high,low,,ISIC_9688534.JPG,,ISIC_6441128.JPG,26,true,hl,keypress(j),100,false,264541,264540.6999999881,248969.379,249064.10000002384,248986.081,264469.651,1,16,9,
sequence,flow.Sequence,4_8,2023-11-15T18:34:58.268Z,,,,,,,,,,15554.618999988073,completion,,,,,,,high,low,,,,,,true,,,,false,264541.10000002384,264540.6999999881,248969.379,249064.10000002384,248986.081,264469.651,1,16,,
trial,html.Screen,4_9_0,2023-11-15T18:35:11.823Z,,,,0,-1.011737552725394,0.8500530224490773,,true,hl,13626.44900002383,response,0.8035152873995188,0.9499999999999997,-0.9499999999999997,-0.82868450251632,0.9499999999999997,-0.9499999999999997,high,low,,ISIC_2998367.JPG,,ISIC_0010671.JPG,26,true,hl,keypress(j),100,false,278096.1999999881,278096.10000002384,264452.992,264541.1999999881,264469.651,278019.376,1,16,10,
sequence,flow.Sequence,4_9,2023-11-15T18:35:11.823Z,,,,,,,,,,13626.44900002383,completion,,,,,,,high,low,,,,,,true,,,,false,278096.3000000119,278096.10000002384,264452.992,264541.1999999881,264469.651,278019.376,1,16,,
trial,html.Screen,4_10_0,2023-11-15T18:35:22.451Z,,,,0,-0.7784583866003763,0.9641514808986528,,true,hl,10704.424000011932,response,0.8035152873995188,0.9499999999999997,-0.9499999999999997,-0.82868450251632,0.9499999999999997,-0.9499999999999997,high,low,,ISIC_0011924.JPG,,ISIC_0010671.JPG,26,true,hl,keypress(j),100,false,288723.90000003576,288723.8000000119,278003.176,278096.40000003576,278019.376,288653.166,1,16,11,
sequence,flow.Sequence,4_10,2023-11-15T18:35:22.451Z,,,,,,,,,,10704.424000011932,completion,,,,,,,high,low,,,,,,true,,,,false,288724.1999999881,288723.8000000119,278003.176,278096.40000003576,278019.376,288653.166,1,16,,
trial,html.Screen,4_11_0,2023-11-15T18:35:36.839Z,,,,0,-0.7836356408583546,1.1197925594706428,,true,hl,14458.734000035736,response,0.991146183030456,0.9499999999999997,-0.9499999999999997,-0.9949639823722534,0.9499999999999997,-0.9499999999999997,high,low,,ISIC_0024961.JPG,,ISIC_6342224.JPG,26,true,hl,keypress(j),100,false,303112,303111.90000003576,288636.513,288724.1999999881,288653.166,303035.98,1,16,12,
sequence,flow.Sequence,4_11,2023-11-15T18:35:36.839Z,,,,,,,,,,14458.734000035736,completion,,,,,,,high,low,,,,,,true,,,,false,303112.1999999881,303111.90000003576,288636.513,288724.1999999881,288653.166,303035.98,1,16,,
trial,html.Screen,4_12_0,2023-11-15T18:35:46.171Z,,,,0,-1.0859458972647518,-0.9241823104580792,,true,hh,9408.020000000019,response,1.0377676235641546,0.9499999999999997,-0.9499999999999997,1.0836906473836847,0.9499999999999997,-0.9499999999999997,high,high,,ISIC_0011721.JPG,,ISIC_0010540.JPG,167,true,hh,keypress(i),100,false,312444.10000002384,312444,303019.365,303112.1999999881,303035.98,312369.385,1,16,13,
sequence,flow.Sequence,4_12,2023-11-15T18:35:46.171Z,,,,,,,,,,9408.020000000019,completion,,,,,,,high,high,,,,,,true,,,,false,312444.3000000119,312444,303019.365,303112.1999999881,303035.98,312369.385,1,16,,
trial,html.Screen,4_13_0,2023-11-15T18:35:49.887Z,,,,0,-0.8689515664606163,-1.0538817435713148,,true,hh,3790.9150000119116,response,0.8800173162815772,0.9499999999999997,-0.9499999999999997,0.7770513300237836,0.9499999999999997,-0.9499999999999997,high,high,,ISIC_7333928.JPG,,ISIC_0030852.JPG,167,true,hh,keypress(i),100,false,316160.40000003576,316160.3000000119,312352.892,312444.40000003576,312369.385,316086.122,1,16,14,
sequence,flow.Sequence,4_13,2023-11-15T18:35:49.887Z,,,,,,,,,,3790.9150000119116,completion,,,,,,,high,high,,,,,,true,,,,false,316160.60000002384,316160.3000000119,312352.892,312444.40000003576,312369.385,316086.122,1,16,,
trial,html.Screen,4_14_0,2023-11-15T18:35:53.123Z,,,,0,-0.9612329482175124,-0.8723650867900061,,true,hh,3309.878000000026,response,0.8691120116185356,0.9499999999999997,-0.9499999999999997,0.7932562349979263,0.9499999999999997,-0.9499999999999997,high,high,,ISIC_4563766.JPG,,ISIC_0031350.JPG,167,true,hh,keypress(i),100,false,319396.10000002384,319396,316069.776,316160.6999999881,316086.122,319319.455,1,16,15,
sequence,flow.Sequence,4_14,2023-11-15T18:35:53.123Z,,,,,,,,,,3309.878000000026,completion,,,,,,,high,high,,,,,,true,,,,false,319396.3000000119,319396,316069.776,316160.60000002384,316086.122,319319.455,1,16,,
trial,html.Screen,4_15_0,2023-11-15T18:35:57.366Z,,,,0,-1.0717785279820962,-1.1267239445830604,,true,hh,4319.645000023826,response,0.8909652099281345,0.9499999999999997,-0.9499999999999997,0.7550834643357679,0.9499999999999997,-0.9499999999999997,high,high,,ISIC_9948815.JPG,,ISIC_7501061.JPG,167,true,hh,keypress(i),100,false,323639.3000000119,323639.10000002384,319302.921,319396.40000003576,319319.455,323569.597,1,16,16,
sequence,flow.Sequence,4_15,2023-11-15T18:35:57.366Z,,,,,,,,,,4319.645000023826,completion,,,,,,,high,high,,,,,,true,,,,false,323639.40000003576,323639.10000002384,319302.921,319396.3000000119,319319.455,323569.597,1,16,,
demonstration_loop,flow.Loop,4,2023-11-15T18:35:57.366Z,,,,,,,,,,188736.24700002384,completion,,,,,,,,,,,,,,true,,,,false,323639.5,323639.10000002384,134886.14,134988.69999998808,134902.853,323569.597,1,16,,
practice_instructions,html.Screen,5,2023-11-15T18:36:45.608Z,,,,,,,,,,48305.60299998807,response,,,,,,,,,,,,,,,continue,click button,,,371881.40000003576,371875.1999999881,323552.72,323639.5,323569.597,371786.005,,,,
trial,html.Screen,6_0_0,2023-11-15T18:36:51.579Z,,,,1,-1.0270718265914571,-0.9536353804316964,,false,hh,6060.994999999995,response,0.9808380646997692,0.9499999999999997,-0.9499999999999997,0.7749885350260185,0.9499999999999997,-0.9499999999999997,high,high,,ISIC_3431915.JPG,,ISIC_0032190.JPG,167,true,hl,keypress(j),0,false,377851.90000003576,377847,371769.504,371881.60000002384,371786.005,377769.777,1,40,1,
sequence,flow.Sequence,6_0,2023-11-15T18:36:51.579Z,,,,,,,,,,6060.994999999995,completion,,,,,,,high,high,,,,,,true,,,,false,377852,377847,371769.504,371881.5,371786.005,377769.777,1,40,,
trial,html.Screen,6_1_0,2023-11-15T18:36:57.924Z,,,,1,-0.8487429103619056,0.9778257804233036,,true,hl,6427.32300002384,response,0.8623414234919863,0.9499999999999997,-0.9499999999999997,-0.782830143980698,0.9499999999999997,-0.9499999999999997,high,low,,ISIC_4554863.JPG,,ISIC_2727016.JPG,26,true,hl,keypress(j),0,false,384197.1999999881,384197.10000002384,377752.662,377852.10000002384,377769.777,384102.674,1,40,2,
sequence,flow.Sequence,6_1,2023-11-15T18:36:57.924Z,,,,,,,,,,6427.32300002384,completion,,,,,,,high,low,,,,,,true,,,,false,384197.3000000119,384197.10000002384,377752.662,377852.10000002384,377769.777,384102.674,1,40,,
trial,html.Screen,6_2_0,2023-11-15T18:37:08.913Z,,,,1,0.8655167308525522,-0.9298580423306444,,,,11017.104999999981,timeout,-1.0656673213158945,0.9499999999999997,-0.9499999999999997,0.8082541692781954,0.9499999999999997,-0.9499999999999997,low,high,,ISIC_4603706.JPG,,ISIC_0033985.JPG,28,true,,,0,false,395185.6999999881,395185.60000002384,384086.23,384197.3000000119,384102.674,395119.779,1,40,3,
sequence,flow.Sequence,6_2,2023-11-15T18:37:08.913Z,,,,,,,,,,11082.926000023843,completion,,,,,,,low,high,,,,,,true,,,,false,395185.8000000119,395185.60000002384,384086.23,384197.3000000119,384102.674,395119.779,1,40,,
trial,html.Screen,6_3_0,2023-11-15T18:37:15.108Z,,,,1,-0.858338058340649,0.9540612223480284,,true,hl,6261.0210000119405,response,0.7638895244791114,0.9499999999999997,-0.9499999999999997,-0.7780412100090998,0.9499999999999997,-0.9499999999999997,high,low,,ISIC_8922893.JPG,,ISIC_0026516.JPG,26,true,hl,keypress(j),0,false,401380.90000003576,401380.8000000119,395103.096,395185.8000000119,395119.779,401285.988,1,40,4,
sequence,flow.Sequence,6_3,2023-11-15T18:37:15.108Z,,,,,,,,,,6261.0210000119405,completion,,,,,,,high,low,,,,,,true,,,,false,401381,401380.8000000119,395103.096,395185.8000000119,395119.779,401285.988,1,40,,
trial,html.Screen,6_4_0,2023-11-15T18:37:20.242Z,,,,1,0.9873794329144926,-0.7991077882008257,,true,lh,5229.511999999988,response,-1.020990671779317,0.9499999999999997,-0.9499999999999997,1.0116513850520903,0.9499999999999997,-0.9499999999999997,low,high,,ISIC_0013498.JPG,,ISIC_0011995.JPG,28,true,lh,keypress(e),0,false,406515.5,406515.5,401269.29,401381,401285.988,406419.25,1,40,5,
sequence,flow.Sequence,6_4,2023-11-15T18:37:20.243Z,,,,,,,,,,5229.511999999988,completion,,,,,,,low,high,,,,,,true,,,,false,406515.6999999881,406515.5,401269.29,401381,401285.988,406419.25,1,40,,
trial,html.Screen,6_5_0,2023-11-15T18:37:31.229Z,,,,1,0.7858981101622865,1.098700382725708,,,,11016.879000000015,timeout,-1.0525847190618245,0.9499999999999997,-0.9499999999999997,-0.934080360486692,0.9499999999999997,-0.9499999999999997,low,low,,ISIC_0059733.JPG,,ISIC_0010684.JPG,142,true,,,0,false,417502.3000000119,417502.10000002384,406402.743,406515.8000000119,406419.25,417436.129,1,40,6,
sequence,flow.Sequence,6_5,2023-11-15T18:37:31.229Z,,,,,,,,,,11082.850000023842,completion,,,,,,,low,low,,,,,,true,,,,false,417502.3000000119,417502.10000002384,406402.743,406515.8000000119,406419.25,417436.129,1,40,,
trial,html.Screen,6_6_0,2023-11-15T18:37:35.636Z,,,,1,-0.9071602543711612,-1.073798502866343,,true,hh,4472.870999999985,response,1.0678895386758027,0.9499999999999997,-0.9499999999999997,1.0279759018569252,0.9499999999999997,-0.9499999999999997,high,high,,ISIC_6676776.JPG,,ISIC_0069933.JPG,167,true,hh,keypress(i),0,false,421909.1999999881,421909,417419.757,417502.40000003576,417436.129,421819.39,1,40,7,
sequence,flow.Sequence,6_6,2023-11-15T18:37:35.636Z,,,,,,,,,,4472.870999999985,completion,,,,,,,high,high,,,,,,true,,,,false,421909.3000000119,421909,417419.757,417502.3000000119,417436.129,421819.39,1,40,,
trial,html.Screen,6_7_0,2023-11-15T18:37:44.180Z,,,,1,-0.9962130178668478,-1.0198919808587756,,true,hh,8633.710000023828,response,0.7667223565323059,0.9499999999999997,-0.9499999999999997,0.7525280650246937,0.9499999999999997,-0.9499999999999997,high,high,,ISIC_0595080.JPG,,ISIC_0031397.JPG,167,true,hh,keypress(i),0,false,430453.1999999881,430453.10000002384,421802.686,421909.3000000119,421819.39,430369.392,1,40,8,
sequence,flow.Sequence,6_7,2023-11-15T18:37:44.180Z,,,,,,,,,,8633.710000023828,completion,,,,,,,high,high,,,,,,true,,,,false,430453.3000000119,430453.10000002384,421802.686,421909.3000000119,421819.39,430369.392,1,40,,
trial,html.Screen,6_8_0,2023-11-15T18:37:50.004Z,,,,1,1.1345705036261835,0.8852009725300015,,true,ll,5907.608000000007,response,-0.8005752697082944,0.9499999999999997,-0.9499999999999997,-0.8062281749376046,0.9499999999999997,-0.9499999999999997,low,low,,ISIC_0027149.JPG,,ISIC_0031104.JPG,142,true,ll,keypress(f),0,false,436277.10000002384,436277,430352.762,430453.40000003576,430369.392,436185.949,1,40,9,
sequence,flow.Sequence,6_8,2023-11-15T18:37:50.004Z,,,,,,,,,,5907.608000000007,completion,,,,,,,low,low,,,,,,true,,,,false,436277.3000000119,436277,430352.762,430453.40000003576,430369.392,436185.949,1,40,,
trial,html.Screen,6_9_0,2023-11-15T18:37:57.556Z,,,,1,-1.0865333402803938,1.0542635307358266,,true,hl,7643.351000011899,response,0.8623414234919863,0.9499999999999997,-0.9499999999999997,-0.782830143980698,0.9499999999999997,-0.9499999999999997,high,low,,ISIC_0034006.JPG,,ISIC_2727016.JPG,26,true,hl,keypress(j),0,false,443829.5,443829.3000000119,436169.257,436277.3000000119,436185.949,443735.994,1,40,10,
sequence,flow.Sequence,6_9,2023-11-15T18:37:57.556Z,,,,,,,,,,7643.351000011899,completion,,,,,,,high,low,,,,,,true,,,,false,443829.60000002384,443829.3000000119,436169.257,436277.3000000119,436185.949,443735.994,1,40,,
trial,html.Screen,6_10_0,2023-11-15T18:38:04.900Z,,,,1,-0.990489579313564,0.7747897983133127,,true,hl,7437.106000023836,response,0.7809949855371787,0.9499999999999997,-0.9499999999999997,-0.8493861117004308,0.9499999999999997,-0.9499999999999997,high,low,,ISIC_7030404.JPG,,ISIC_7450481.JPG,26,true,hl,keypress(j),0,false,451173.1999999881,451173.10000002384,443719.281,443829.60000002384,443735.994,451086.405,1,40,11,
sequence,flow.Sequence,6_10,2023-11-15T18:38:04.900Z,,,,,,,,,,7437.106000023836,completion,,,,,,,high,low,,,,,,true,,,,false,451173.3000000119,451173.10000002384,443719.281,443829.60000002384,443735.994,451086.405,1,40,,
trial,html.Screen,6_11_0,2023-11-15T18:38:14.100Z,,,,1,0.9235571765207048,-1.0008081653938232,,true,lh,9286.794999988051,response,-0.9696118525781644,0.9499999999999997,-0.9499999999999997,0.9244148283103414,0.9499999999999997,-0.9499999999999997,low,high,,ISIC_8796632.JPG,,ISIC_7927525.JPG,28,true,lh,keypress(e),0,false,460373.3000000119,460373.1999999881,451069.28,451173.40000003576,451086.405,460286.011,1,40,12,
sequence,flow.Sequence,6_11,2023-11-15T18:38:14.100Z,,,,,,,,,,9286.794999988051,completion,,,,,,,low,high,,,,,,true,,,,false,460373.5,460373.1999999881,451069.28,451173.40000003576,451086.405,460286.011,1,40,,
trial,html.Screen,6_12_0,2023-11-15T18:38:21.172Z,,,,1,0.8947611078712571,-0.8960964505004638,,false,lh,7158.789000011922,response,-0.7877939497981142,0.9499999999999997,-0.9499999999999997,0.8415032780288271,0.9499999999999997,-0.9499999999999997,low,high,,ISIC_6441128.JPG,,ISIC_0067308.JPG,28,true,ll,keypress(f),0,false,467444.90000003576,467444.8000000119,460269.414,460373.5,460286.011,467352.666,1,40,13,
sequence,flow.Sequence,6_12,2023-11-15T18:38:21.172Z,,,,,,,,,,7158.789000011922,completion,,,,,,,low,high,,,,,,true,,,,false,467445,467444.8000000119,460269.414,460373.5,460286.011,467352.666,1,40,,
trial,html.Screen,6_13_0,2023-11-15T18:38:29.860Z,,,,1,0.7871162143493278,-0.8429329800778957,,true,lh,8780.434000023815,response,-0.869932994914832,0.9499999999999997,-0.9499999999999997,0.8880533324432531,0.9499999999999997,-0.9499999999999997,low,high,,ISIC_3439215.JPG,,ISIC_8617084.JPG,28,true,lh,keypress(e),0,false,476133.1999999881,476133.10000002384,467336.165,467445,467352.666,476053.87,1,40,14,
sequence,flow.Sequence,6_13,2023-11-15T18:38:29.860Z,,,,,,,,,,8780.434000023815,completion,,,,,,,low,high,,,,,,true,,,,false,476133.3000000119,476133.10000002384,467336.165,467445,467352.666,476053.87,1,40,,
trial,html.Screen,6_14_0,2023-11-15T18:38:38.836Z,,,,1,1.0213365328004047,-1.088524359911891,,true,lh,9055.430000011926,response,-0.8487429103619056,0.9499999999999997,-0.9499999999999997,0.9778257804233036,0.9499999999999997,-0.9499999999999997,low,high,,ISIC_5434229.JPG,,ISIC_4554863.JPG,28,true,lh,keypress(e),0,false,485109.40000003576,485109.3000000119,476019.231,476133.3000000119,476053.87,485019.483,1,40,15,
sequence,flow.Sequence,6_14,2023-11-15T18:38:38.836Z,,,,,,,,,,9055.430000011926,completion,,,,,,,low,high,,,,,,true,,,,false,485109.40000003576,485109.3000000119,476019.231,476133.3000000119,476053.87,485019.483,1,40,,
trial,html.Screen,6_15_0,2023-11-15T18:38:47.891Z,,,,1,0.991146183030456,-0.9949639823722534,,true,lh,9144.817000011913,response,-1.011737552725394,0.9499999999999997,-0.9499999999999997,0.8500530224490773,0.9499999999999997,-0.9499999999999997,low,high,,ISIC_6342224.JPG,,ISIC_2998367.JPG,28,true,lh,keypress(e),0,false,494164.40000003576,494164.3000000119,485002.501,485109.5,485019.483,494069.201,1,40,16,
sequence,flow.Sequence,6_15,2023-11-15T18:38:47.891Z,,,,,,,,,,9144.817000011913,completion,,,,,,,low,high,,,,,,true,,,,false,494164.5,494164.3000000119,485002.501,485109.5,485019.483,494069.201,1,40,,
trial,html.Screen,6_16_0,2023-11-15T18:38:57.316Z,,,,1,-0.8809306963311293,0.8614910030038974,,true,hl,9519.899000023841,response,0.8623414234919863,0.9499999999999997,-0.9499999999999997,-0.782830143980698,0.9499999999999997,-0.9499999999999997,high,low,,ISIC_0013731.JPG,,ISIC_2727016.JPG,26,true,hl,keypress(j),0,false,503589.1999999881,503589.10000002384,494052.538,494164.5,494069.201,503502.58,1,40,17,
sequence,flow.Sequence,6_16,2023-11-15T18:38:57.316Z,,,,,,,,,,9519.899000023841,completion,,,,,,,high,low,,,,,,true,,,,false,503589.3000000119,503589.10000002384,494052.538,494164.5,494069.201,503502.58,1,40,,
trial,html.Screen,6_17_0,2023-11-15T18:39:04.963Z,,,,1,-0.991282840649944,0.9397921099839784,,true,hl,7734.119999988063,response,0.8035152873995188,0.9499999999999997,-0.9499999999999997,-0.82868450251632,0.9499999999999997,-0.9499999999999997,high,low,,ISIC_0000463.JPG,,ISIC_0010671.JPG,26,true,hl,keypress(j),0,false,511236.8000000119,511236.6999999881,503485.831,503589.40000003576,503502.58,511152.735,1,40,18,
sequence,flow.Sequence,6_17,2023-11-15T18:39:04.963Z,,,,,,,,,,7734.119999988063,completion,,,,,,,high,low,,,,,,true,,,,false,511237,511236.6999999881,503485.831,503589.40000003576,503502.58,511152.735,1,40,,
trial,html.Screen,6_18_0,2023-11-15T18:39:12.403Z,,,,1,-0.8979276789594874,0.925374811016654,,true,hl,7523.865000023856,response,0.796241477082623,0.9499999999999997,-0.9499999999999997,-0.9017449335975743,0.9499999999999997,-0.9499999999999997,high,low,,ISIC_4208361.JPG,,ISIC_8588033.JPG,26,true,hl,keypress(j),0,false,518676.8000000119,518676.60000002384,511136.106,511237.10000002384,511152.735,518585.923,1,40,19,
sequence,flow.Sequence,6_18,2023-11-15T18:39:12.403Z,,,,,,,,,,7523.865000023856,completion,,,,,,,high,low,,,,,,true,,,,false,518676.90000003576,518676.60000002384,511136.106,511237.10000002384,511152.735,518585.923,1,40,,
trial,html.Screen,6_19_0,2023-11-15T18:39:20.675Z,,,,1,-1.079549480496248,-0.9336079040538864,,true,hh,8362.07699999999,response,0.758207007584394,0.9499999999999997,-0.9499999999999997,1.0437879361189135,0.9499999999999997,-0.9499999999999997,high,high,,ISIC_6913045.JPG,,ISIC_0011626.JPG,167,true,hh,keypress(i),0,false,526948.1000000238,526948,518569.176,518676.90000003576,518585.923,526852.533,1,40,20,
sequence,flow.Sequence,6_19,2023-11-15T18:39:20.675Z,,,,,,,,,,8362.07699999999,completion,,,,,,,high,high,,,,,,true,,,,false,526948.1999999881,526948,518569.176,518676.90000003576,518585.923,526852.533,1,40,,
trial,html.Screen,6_20_0,2023-11-15T18:39:30.980Z,,,,1,0.9235571765207048,-1.0008081653938232,,true,lh,10400.666999988025,response,-1.1181734135756094,0.9499999999999997,-0.9499999999999997,0.944560381774994,0.9499999999999997,-0.9499999999999997,low,high,,ISIC_8796632.JPG,,ISIC_9688534.JPG,28,true,lh,keypress(e),0,false,537253.3000000119,537253.1999999881,526835.865,526948.1999999881,526852.533,537169.686,1,40,21,
sequence,flow.Sequence,6_20,2023-11-15T18:39:30.980Z,,,,,,,,,,10400.666999988025,completion,,,,,,,low,high,,,,,,true,,,,false,537253.4000000358,537253.1999999881,526835.865,526948.1999999881,526852.533,537169.686,1,40,,
trial,html.Screen,6_21_0,2023-11-15T18:39:41.731Z,,,,1,0.7916641003387539,0.8795523971208432,,true,ll,10834.513999988092,response,-0.8307811717009963,0.9499999999999997,-0.9499999999999997,-1.098625259321624,0.9499999999999997,-0.9499999999999997,low,low,,ISIC_0069635.JPG,,ISIC_8257549.JPG,142,true,ll,keypress(f),0,false,548004.4000000358,548004.1999999881,537152.48,537253.4000000358,537169.686,547919.448,1,40,22,
sequence,flow.Sequence,6_21,2023-11-15T18:39:41.731Z,,,,,,,,,,10834.513999988092,completion,,,,,,,low,low,,,,,,true,,,,false,548004.5,548004.1999999881,537152.48,537253.4000000358,537169.686,547919.448,1,40,,
trial,html.Screen,6_22_0,2023-11-15T18:39:52.691Z,,,,1,1.0022829373011404,-0.8311726972863814,,false,lh,11045.152000023867,response,-1.0026266089287914,0.9499999999999997,-0.9499999999999997,1.0913275913920335,0.9499999999999997,-0.9499999999999997,low,high,,ISIC_0033287.JPG,,ISIC_0033520.JPG,28,true,ll,keypress(f),0,false,558964.6000000238,558964.6000000238,547902.55,548004.6000000238,547919.448,558885.918,1,40,23,
sequence,flow.Sequence,6_22,2023-11-15T18:39:52.691Z,,,,,,,,,,11045.152000023867,completion,,,,,,,low,high,,,,,,true,,,,false,558964.8000000119,558964.6000000238,547902.55,548004.6000000238,547919.448,558885.918,1,40,,
trial,html.Screen,6_23_0,2023-11-15T18:39:57.588Z,,,,1,-0.8849616197102024,-0.8708774591990956,,true,hh,4975.281999988132,response,0.8665886246441876,0.9499999999999997,-0.9499999999999997,0.8507210279123499,0.9499999999999997,-0.9499999999999997,high,high,,ISIC_2872107.JPG,,ISIC_1071355.JPG,167,true,hh,keypress(i),0,false,563861.3000000119,563861.1999999881,558869.288,558964.8000000119,558885.918,563769.175,1,40,24,
sequence,flow.Sequence,6_23,2023-11-15T18:39:57.588Z,,,,,,,,,,4975.281999988132,completion,,,,,,,high,high,,,,,,true,,,,false,563861.5,563861.1999999881,558869.288,558964.8000000119,558885.918,563769.175,1,40,,
trial,html.Screen,6_24_0,2023-11-15T18:40:02.547Z,,,,1,1.0865311574527308,0.8498834948129796,,true,ll,5051.824999999953,response,-0.7504722488504932,0.9499999999999997,-0.9499999999999997,-1.117673118196769,0.9499999999999997,-0.9499999999999997,low,low,,ISIC_0000296.JPG,,ISIC_0028027.JPG,142,true,ll,keypress(f),0,false,568821.1999999881,568821,563752.817,563861.6000000238,563769.175,568736.333,1,40,25,
sequence,flow.Sequence,6_24,2023-11-15T18:40:02.548Z,,,,,,,,,,5051.824999999953,completion,,,,,,,low,low,,,,,,true,,,,false,568821.1999999881,568821,563752.817,563861.6000000238,563769.175,568736.333,1,40,,
trial,html.Screen,6_25_0,2023-11-15T18:40:10.931Z,,,,1,-1.0446431649931565,-0.7734199165278053,,true,hh,8468.366999988095,response,0.9303508808523768,0.9499999999999997,-0.9499999999999997,0.8525034055687026,0.9499999999999997,-0.9499999999999997,high,high,,ISIC_1377409.JPG,,ISIC_0029909.JPG,167,true,hh,keypress(i),0,false,577204.8000000119,577204.6999999881,568719.485,568821.3000000119,568736.333,577119.657,1,40,26,
sequence,flow.Sequence,6_25,2023-11-15T18:40:10.931Z,,,,,,,,,,8468.366999988095,completion,,,,,,,high,high,,,,,,true,,,,false,577204.9000000358,577204.6999999881,568719.485,568821.3000000119,568736.333,577119.657,1,40,,
trial,html.Screen,6_26_0,2023-11-15T18:40:16.788Z,,,,1,1.00170887975541,0.8949188450526304,,true,ll,5941.3429999999935,response,-0.8399678098416189,0.9499999999999997,-0.9499999999999997,-0.7546375633653641,0.9499999999999997,-0.9499999999999997,low,low,,ISIC_0057067.JPG,,ISIC_3994250.JPG,142,true,ll,keypress(f),0,false,583061.1999999881,583061,577102.444,577205,577119.657,582969.252,1,40,27,
sequence,flow.Sequence,6_26,2023-11-15T18:40:16.788Z,,,,,,,,,,5941.3429999999935,completion,,,,,,,low,low,,,,,,true,,,,false,583061.3000000119,583061,577102.444,577204.9000000358,577119.657,582969.252,1,40,,
trial,html.Screen,6_27_0,2023-11-15T18:40:20.051Z,,,,1,0.781420271893034,0.8475699534335533,,true,ll,3354.9479999881005,response,-0.8463538475082831,0.9499999999999997,-0.9499999999999997,-0.8806175558408877,0.9499999999999997,-0.9499999999999997,low,low,,ISIC_0066429.JPG,,ISIC_8916136.JPG,142,true,ll,keypress(f),0,false,586324.4000000358,586324.1999999881,582952.802,583061.3000000119,582969.252,586236.333,1,40,28,
sequence,flow.Sequence,6_27,2023-11-15T18:40:20.051Z,,,,,,,,,,3354.9479999881005,completion,,,,,,,low,low,,,,,,true,,,,false,586324.5,586324.1999999881,582952.802,583061.3000000119,582969.252,586236.333,1,40,,
trial,html.Screen,6_28_0,2023-11-15T18:40:23.491Z,,,,1,0.9079289924001074,0.7922971602123134,,true,ll,3528.366999988095,response,-0.8626849314423831,0.9499999999999997,-0.9499999999999997,-0.8919402924145458,0.9499999999999997,-0.9499999999999997,low,low,,ISIC_6644659.JPG,,ISIC_0026371.JPG,142,true,ll,keypress(f),0,false,589764.8000000119,589764.6999999881,586219.607,586324.5,586236.333,589669.188,1,40,29,
sequence,flow.Sequence,6_28,2023-11-15T18:40:23.491Z,,,,,,,,,,3528.366999988095,completion,,,,,,,low,low,,,,,,true,,,,false,589765,589764.6999999881,586219.607,586324.5,586236.333,589669.188,1,40,,
trial,html.Screen,6_29_0,2023-11-15T18:40:25.651Z,,,,1,0.8042584193544507,1.1325589611397748,,true,ll,2254.9120000238763,response,-0.9191486333136276,0.9499999999999997,-0.9499999999999997,-1.001866590114321,0.9499999999999997,-0.9499999999999997,low,low,,ISIC_0026188.JPG,,ISIC_0663941.JPG,142,true,ll,keypress(f),0,false,591924.1999999881,591924.1000000238,589652.665,589765,589669.188,591835.837,1,40,30,
sequence,flow.Sequence,6_29,2023-11-15T18:40:25.651Z,,,,,,,,,,2254.9120000238763,completion,,,,,,,low,low,,,,,,true,,,,false,591924.3000000119,591924.1000000238,589652.665,589765,589669.188,591835.837,1,40,,
trial,html.Screen,6_30_0,2023-11-15T18:40:28.643Z,,,,1,0.9053396132028096,0.7935069588038893,,true,ll,3080.563000035705,response,-0.9859190680307316,0.9499999999999997,-0.9499999999999997,-1.0904756837966545,0.9499999999999997,-0.9499999999999997,low,low,,ISIC_0010729.JPG,,ISIC_0063151.JPG,142,true,ll,keypress(f),0,false,594916.5,594916.4000000358,591819.586,591924.4000000358,591835.837,594837.064,1,40,31,
sequence,flow.Sequence,6_30,2023-11-15T18:40:28.643Z,,,,,,,,,,3080.563000035705,completion,,,,,,,low,low,,,,,,true,,,,false,594916.6000000238,594916.4000000358,591819.586,591924.3000000119,591835.837,594837.064,1,40,,
trial,html.Screen,6_31_0,2023-11-15T18:40:34.388Z,,,,1,-1.1363600109870835,-0.7799430990551102,,true,hh,5824.036000023829,response,0.9779950356676737,0.9499999999999997,-0.9499999999999997,0.8379472703169347,0.9499999999999997,-0.9499999999999997,high,high,,ISIC_0026141.JPG,,ISIC_1979534.JPG,167,true,hh,keypress(i),0,false,600661.1999999881,600661.1000000238,594802.932,594916.6999999881,594837.064,600569.268,1,40,32,
sequence,flow.Sequence,6_31,2023-11-15T18:40:34.388Z,,,,,,,,,,5824.036000023829,completion,,,,,,,high,high,,,,,,true,,,,false,600661.4000000358,600661.1000000238,594802.932,594916.6999999881,594837.064,600569.268,1,40,,
trial,html.Screen,6_32_0,2023-11-15T18:40:38.995Z,,,,1,0.9307420457704906,1.0040662939937806,,false,ll,4699.73199999996,response,-1.0717785279820962,0.9499999999999997,-0.9499999999999997,-1.1267239445830604,0.9499999999999997,-0.9499999999999997,low,low,,ISIC_4508878.JPG,,ISIC_9948815.JPG,142,true,lh,keypress(e),0,false,605269.1000000238,605269,600552.738,600661.4000000358,600569.268,605186.068,1,40,33,
sequence,flow.Sequence,6_32,2023-11-15T18:40:38.996Z,,,,,,,,,,4699.73199999996,completion,,,,,,,low,low,,,,,,true,,,,false,605269.1999999881,605269,600552.738,600661.4000000358,600569.268,605186.068,1,40,,
trial,html.Screen,6_33_0,2023-11-15T18:40:49.139Z,,,,1,-0.7870373375006504,-1.0385104284303668,,true,hh,10226.631999988109,response,0.7597421372185947,0.9499999999999997,-0.9499999999999997,0.8314283330495001,0.9499999999999997,-0.9499999999999997,high,high,,ISIC_0002162.JPG,,ISIC_0009894.JPG,167,true,hh,keypress(i),0,false,615412.8000000119,615412.6999999881,605169.497,605269.3000000119,605186.068,615319.189,1,40,34,
sequence,flow.Sequence,6_33,2023-11-15T18:40:49.139Z,,,,,,,,,,10226.631999988109,completion,,,,,,,high,high,,,,,,true,,,,false,615412.9000000358,615412.6999999881,605169.497,605269.3000000119,605186.068,615319.189,1,40,,
trial,html.Screen,6_34_0,2023-11-15T18:40:55.891Z,,,,1,-0.9684792294535484,-0.9741930282015964,,true,hh,6845.810999999987,response,0.9735583105865782,0.9499999999999997,-0.9499999999999997,0.9340146106918494,0.9499999999999997,-0.9499999999999997,high,high,,ISIC_3372750.JPG,,ISIC_0065204.JPG,167,true,hh,keypress(i),0,false,622165,622165,615302.13,615413,615319.189,622069.171,1,40,35,
sequence,flow.Sequence,6_34,2023-11-15T18:40:55.891Z,,,,,,,,,,6845.810999999987,completion,,,,,,,high,high,,,,,,true,,,,false,622165.1000000238,622165,615302.13,615413,615319.189,622069.171,1,40,,
trial,html.Screen,6_35_0,2023-11-15T18:41:06.051Z,,,,1,0.7809949855371787,-0.8493861117004308,,true,lh,10255.429000023869,response,-0.8534691366511764,0.9499999999999997,-0.9499999999999997,1.03975580494588,0.9499999999999997,-0.9499999999999997,low,high,,ISIC_7450481.JPG,,ISIC_0056788.JPG,28,true,lh,keypress(e),0,false,632324.9000000358,632324.6000000238,622052.709,622165.1999999881,622069.171,632235.846,1,40,36,
sequence,flow.Sequence,6_35,2023-11-15T18:41:06.051Z,,,,,,,,,,10255.429000023869,completion,,,,,,,low,high,,,,,,true,,,,false,632324.9000000358,632324.6000000238,622052.709,622165.1999999881,622069.171,632235.846,1,40,,
trial,html.Screen,6_36_0,2023-11-15T18:41:17.045Z,,,,1,-0.7877939497981142,0.8415032780288271,,,,11016.800999999978,timeout,1.0022829373011404,0.9499999999999997,-0.9499999999999997,-0.8311726972863814,0.9499999999999997,-0.9499999999999997,high,low,,ISIC_0067308.JPG,,ISIC_0033287.JPG,26,true,,,0,false,643318.8000000119,643318.6000000238,632219.068,632325,632235.846,643252.647,1,40,37,
sequence,flow.Sequence,6_36,2023-11-15T18:41:17.045Z,,,,,,,,,,11082.754000023822,completion,,,,,,,high,low,,,,,,true,,,,false,643318.8000000119,643318.6000000238,632219.068,632324.9000000358,632235.846,643252.647,1,40,,
trial,html.Screen,6_37_0,2023-11-15T18:41:23.699Z,,,,1,-0.7969140985091036,-0.9215855883749826,,true,hh,6719.853000000003,response,0.7858981101622865,0.9499999999999997,-0.9499999999999997,1.098700382725708,0.9499999999999997,-0.9499999999999997,high,high,,ISIC_0027431.JPG,,ISIC_0059733.JPG,167,true,hh,keypress(i),0,false,649972.6999999881,649972.5,643236.048,643318.9000000358,643252.647,649885.834,1,40,38,
sequence,flow.Sequence,6_37,2023-11-15T18:41:23.699Z,,,,,,,,,,6719.853000000003,completion,,,,,,,high,high,,,,,,true,,,,false,649972.6999999881,649972.5,643236.048,643318.9000000358,643252.647,649885.834,1,40,,
trial,html.Screen,6_38_0,2023-11-15T18:41:32.131Z,,,,1,-1.0751036484083878,1.143906455483852,,true,hl,8518.566000035731,response,0.991146183030456,0.9499999999999997,-0.9499999999999997,-0.9949639823722534,0.9499999999999997,-0.9499999999999997,high,low,,ISIC_0064406.JPG,,ISIC_6342224.JPG,26,true,hl,keypress(j),0,false,658404.4000000358,658404.4000000358,649869.397,649972.8000000119,649885.834,658319.37,1,40,39,
sequence,flow.Sequence,6_38,2023-11-15T18:41:32.131Z,,,,,,,,,,8518.566000035731,completion,,,,,,,high,low,,,,,,true,,,,false,658404.5,658404.4000000358,649869.397,649972.8000000119,649885.834,658319.37,1,40,,
trial,html.Screen,6_39_0,2023-11-15T18:41:39.251Z,,,,1,-0.9696118525781644,0.9244148283103414,,true,hl,7205.530000035767,response,0.7871162143493278,0.9499999999999997,-0.9499999999999997,-0.8429329800778957,0.9499999999999997,-0.9499999999999997,high,low,,ISIC_7927525.JPG,,ISIC_3439215.JPG,26,true,hl,keypress(j),0,false,665524.9000000358,665524.9000000358,658302.654,658404.6000000238,658319.37,665436.018,1,40,40,
sequence,flow.Sequence,6_39,2023-11-15T18:41:39.251Z,,,,,,,,,,7205.530000035767,completion,,,,,,,high,low,,,,,,true,,,,false,665525.1000000238,665524.9000000358,658302.654,658404.6000000238,658319.37,665436.018,1,40,,
practice_loop,flow.Loop,6,2023-11-15T18:41:39.251Z,,,,,,,,,,293738.89500003576,completion,,,,,,,,,,,,,,true,,,,false,665525.1000000238,665524.9000000358,371769.504,371881.40000003576,371786.005,665436.018,1,40,,
stair_instructions,html.Screen,7,2023-11-15T18:42:10.169Z,,,,,,,,,,31006.68199998804,response,,,,,,,,,,,,,,,continue,click button,,,696443.4000000358,696442.6999999881,665419.154,665525.1000000238,665436.018,696352.469,,,,
trial,html.Screen,8_0_0,2023-11-15T18:42:18.485Z,,,,2,-0.0552031398781121,-0.0652612426529481,,false,ll,8406.730999988038,response,-1.0375203228848855,0.9499999999999997,-0.9499999999999997,-0.9394358755892184,0.9499999999999997,-0.9499999999999997,low,low,,ISIC_0024226.JPG,,ISIC_4264600.JPG,142,false,lh,keypress(e),0,true,704759.3000000119,704759.1999999881,696335.983,696443.6000000238,696352.469,704686.251,1,40,1,
sequence,flow.Sequence,8_0,2023-11-15T18:42:18.485Z,,,,,,,,,,8406.730999988038,completion,,,,,,,low,low,,,,,,false,,,,true,704759.4000000358,704759.1999999881,696335.983,696443.6000000238,696352.469,704686.251,1,40,,
trial,html.Screen,8_1_0,2023-11-15T18:42:26.467Z,,,,2,-0.0097091270150747,0.0417921315885292,,false,hl,8054.849000023794,response,1.0115965332688306,0.9499999999999997,-0.9499999999999997,-0.8282633603842442,0.9499999999999997,-0.9999999999999998,high,low,,ISIC_3967213.JPG,,ISIC_1069587.JPG,20,false,hh,keypress(i),0,true,712741.1999999881,712741.1000000238,704669.565,704759.5,704686.251,712652.657,1,40,2,
sequence,flow.Sequence,8_1,2023-11-15T18:42:26.467Z,,,,,,,,,,8054.849000023794,completion,,,,,,,high,low,,,,,,false,,,,true,712741.3000000119,712741.1000000238,704669.565,704759.5,704686.251,712652.657,1,40,,
trial,html.Screen,8_2_0,2023-11-15T18:42:31.076Z,,,,2,0.039728379742806,-0.0228701131373768,,true,hh,4697.743000035756,response,0.8227212137652337,0.9499999999999997,-0.9499999999999997,1.0019180628441589,0.9499999999999997,-1.0499999999999998,high,high,,ISIC_0054073.JPG,,ISIC_0013411.JPG,167,false,hh,keypress(i),0,true,717350.6000000238,717350.4000000358,712635.976,712741.4000000358,712652.657,717269.549,1,40,3,
sequence,flow.Sequence,8_2,2023-11-15T18:42:31.076Z,,,,,,,,,,4697.743000035756,completion,,,,,,,high,high,,,,,,false,,,,true,717350.6999999881,717350.4000000358,712635.976,712741.3000000119,712652.657,717269.549,1,40,,
trial,html.Screen,8_3_0,2023-11-15T18:42:36.675Z,,,,2,0.0027483411352856,0.0100996915276271,,true,ll,5679.65099998808,response,-0.913084438298574,0.8623196383046963,-0.9499999999999997,-1.135180301076722,0.9499999999999997,-1.0499999999999998,low,low,,ISIC_7364041.JPG,,ISIC_8637134.JPG,122,false,ll,keypress(f),0,true,722949.4000000358,722949.1999999881,717235.83,717350.6999999881,717269.549,722852.432,1,40,4,
sequence,flow.Sequence,8_3,2023-11-15T18:42:36.675Z,,,,,,,,,,5679.65099998808,completion,,,,,,,low,low,,,,,,false,,,,true,722949.4000000358,722949.1999999881,717235.83,717350.6999999881,717269.549,722852.432,1,40,,
trial,html.Screen,8_4_0,2023-11-15T18:42:47.661Z,,,,2,0.0247880219471745,-0.0687761754603142,,,,11016.876999999979,timeout,0.8947611078712571,0.8623196383046963,-0.974132369687648,-0.8960964505004638,0.9499999999999997,-1.0499999999999998,high,low,,ISIC_0031745.JPG,,ISIC_6441128.JPG,20,false,,,0,true,733935.4000000358,733935.3000000119,722835.758,722949.4000000358,722852.432,733869.309,1,40,5,
sequence,flow.Sequence,8_4,2023-11-15T18:42:47.661Z,,,,,,,,,,11082.868000011891,completion,,,,,,,high,low,,,,,,false,,,,true,733935.5,733935.3000000119,722835.758,722949.4000000358,722852.432,733869.309,1,40,,
trial,html.Screen,8_5_0,2023-11-15T18:42:53.730Z,,,,2,-0.0245585387483123,0.053462758614929,,false,lh,6134.690999999992,response,-0.858338058340649,0.8623196383046963,-0.974132369687648,0.9540612223480284,0.9499999999999997,-1.0499999999999998,low,high,,ISIC_3389704.JPG,,ISIC_8922893.JPG,28,false,ll,keypress(f),0,true,740004.1000000238,740004,733852.895,733935.5,733869.309,739919.552,1,40,6,
sequence,flow.Sequence,8_5,2023-11-15T18:42:53.730Z,,,,,,,,,,6134.690999999992,completion,,,,,,,low,high,,,,,,false,,,,true,740004.1999999881,740004,733852.895,733935.5,733869.309,739919.552,1,40,,
trial,html.Screen,8_6_0,2023-11-15T18:42:56.146Z,,,,2,0.0450282431170921,,,true,hh,2500.647999988054,response,1.0470490803707713,0.8623196383046963,-0.974132369687648,0.9267385554195492,0.9999999999999998,-1.0499999999999998,high,high,,ISIC_1805163.JPG,,ISIC_0058649.JPG,169,false,hh,keypress(i),0,true,742420.3000000119,742420.1999999881,739902.701,740004.3000000119,739919.552,742335.743,1,40,7,
sequence,flow.Sequence,8_6,2023-11-15T18:42:56.146Z,,,,,,,,,,2500.647999988054,completion,,,,,,,high,high,,,,,,false,,,,true,742420.4000000358,742420.1999999881,739902.701,740004.1999999881,739919.552,742335.743,1,40,,
trial,html.Screen,8_7_0,2023-11-15T18:42:59.970Z,,,,2,-0.0552031398781121,-0.0652612426529481,,false,lh,3908.7569999999832,response,-0.8979276789594874,0.8623196383046963,-0.974132369687648,0.925374811016654,0.9999999999999998,-1.0499999999999998,low,high,,ISIC_0024226.JPG,,ISIC_4208361.JPG,26,false,ll,keypress(f),0,true,746244.6000000238,746244.5,742319.542,742420.5,742335.743,746152.5,1,40,8,
sequence,flow.Sequence,8_7,2023-11-15T18:42:59.970Z,,,,,,,,,,3908.7569999999832,completion,,,,,,,low,high,,,,,,false,,,,true,746244.6999999881,746244.5,742319.542,742420.5,742335.743,746152.5,1,40,,
trial,html.Screen,8_8_0,2023-11-15T18:43:05.667Z,,,,2,-0.0051189696037511,0.0396625911332438,,false,hl,5788.800000011921,response,0.7118141631588264,0.8623196383046963,-0.924132369687648,-1.0369885917487718,1.0499999999999998,-1.0499999999999998,high,low,,ISIC_9742891.JPG,,ISIC_6917681.JPG,20,false,lh,keypress(e),0,true,751941.4000000358,751941.3000000119,746135.898,746244.8000000119,746152.5,751852.443,1,40,9,
sequence,flow.Sequence,8_8,2023-11-15T18:43:05.667Z,,,,,,,,,,5788.800000011921,completion,,,,,,,high,low,,,,,,false,,,,true,751941.5,751941.3000000119,746135.898,746244.8000000119,746152.5,751852.443,1,40,,
trial,html.Screen,8_9_0,2023-11-15T18:43:08.962Z,,,,2,-0.0552031398781121,-0.0652612426529481,,true,ll,3383.9570000357926,response,-1.0909285203537074,0.9123196383046963,-0.924132369687648,-1.013890238726642,1.0499999999999998,-1.0999999999999999,low,low,,ISIC_0024226.JPG,,ISIC_0033799.JPG,116,false,ll,keypress(f),0,true,755236.5,755236.4000000358,751836.004,751941.5,751852.443,755152.628,1,40,10,
sequence,flow.Sequence,8_9,2023-11-15T18:43:08.962Z,,,,,,,,,,3383.9570000357926,completion,,,,,,,low,low,,,,,,false,,,,true,755236.6000000238,755236.4000000358,751836.004,751941.5,751852.443,755152.628,1,40,,
trial,html.Screen,8_10_0,2023-11-15T18:43:16.467Z,,,,2,-0.0220322185490382,-0.0740918837949419,,false,hl,7588.571999988053,response,0.7833710010171356,0.8623196383046963,-0.874132369687648,-0.9315588090336896,0.9999999999999998,-1.0499999999999998,high,low,,ISIC_8105020.JPG,,ISIC_3826102.JPG,20,false,lh,keypress(e),0,true,762741.4000000358,762741.1999999881,755135.686,755236.6000000238,755152.628,762652.516,1,40,11,
sequence,flow.Sequence,8_10,2023-11-15T18:43:16.467Z,,,,,,,,,,7588.571999988053,completion,,,,,,,high,low,,,,,,false,,,,true,762741.4000000358,762741.1999999881,755135.686,755236.6000000238,755152.628,762652.516,1,40,,
trial,html.Screen,8_11_0,2023-11-15T18:43:23.267Z,,,,2,-0.0516762988734011,0.0130195499281172,,true,lh,6888.484000000055,response,-1.011737552725394,0.9123196383046963,-0.874132369687648,0.8500530224490773,0.9999999999999998,-1.0999999999999999,low,high,,ISIC_9978498.JPG,,ISIC_2998367.JPG,34,false,lh,keypress(e),0,true,769541.1999999881,769541,762635.998,762741.5,762652.516,769452.522,1,40,12,
sequence,flow.Sequence,8_11,2023-11-15T18:43:23.267Z,,,,,,,,,,6888.484000000055,completion,,,,,,,low,high,,,,,,false,,,,true,769541.3000000119,769541,762635.998,762741.5,762652.516,769452.522,1,40,,
trial,html.Screen,8_12_0,2023-11-15T18:43:30.562Z,,,,2,0.0324770283903853,0.0249968632204382,,false,ll,7383.778000011924,response,-0.6937605548587606,0.9123196383046963,-0.8241323696876479,-0.9854871691490024,0.9999999999999998,-1.0999999999999999,low,low,,ISIC_7266462.JPG,,ISIC_6828892.JPG,126,false,lh,keypress(e),0,true,776836.4000000358,776836.3000000119,769435.725,769541.3000000119,769452.522,776752.572,1,40,13,
sequence,flow.Sequence,8_12,2023-11-15T18:43:30.562Z,,,,,,,,,,7383.778000011924,completion,,,,,,,low,low,,,,,,false,,,,true,776836.5,776836.3000000119,769435.725,769541.3000000119,769452.522,776752.572,1,40,,
trial,html.Screen,8_13_0,2023-11-15T18:43:34.547Z,,,,2,0.0651705891246238,-0.0394586219902573,,true,ll,4068.328000035719,response,-0.834297666009029,0.9123196383046963,-0.8241323696876479,-1.2756860930467395,0.9999999999999998,-1.15,low,low,,ISIC_0013491.JPG,,ISIC_8769415.JPG,111,false,ll,keypress(f),0,true,780821,780820.9000000358,776735.532,776836.5,776752.572,780736.193,1,40,14,
sequence,flow.Sequence,8_13,2023-11-15T18:43:34.547Z,,,,,,,,,,4068.328000035719,completion,,,,,,,low,low,,,,,,false,,,,true,780821.1999999881,780820.9000000358,776735.532,776836.5,776752.572,780736.193,1,40,,
trial,html.Screen,8_14_0,2023-11-15T18:43:36.578Z,,,,2,0.0640778296621707,0.0387686079545705,,true,ll,2115.7070000357926,response,-0.9840050049609405,0.9123196383046963,-1.0049918795278843,-1.160746324899676,0.9999999999999998,-1.15,low,low,,ISIC_0010124.JPG,,ISIC_8651053.JPG,90,false,ll,keypress(f),0,true,782852,782851.9000000358,780719.443,780821.1999999881,780736.193,782769.052,1,40,15,
sequence,flow.Sequence,8_14,2023-11-15T18:43:36.578Z,,,,,,,,,,2115.7070000357926,completion,,,,,,,low,low,,,,,,false,,,,true,782852.1999999881,782851.9000000358,780719.443,780821.1999999881,780736.193,782769.052,1,40,,
trial,html.Screen,8_15_0,2023-11-15T18:43:44.610Z,,,,2,0.0050679133050021,-0.0009714874637896,,true,hl,8115.447999999975,response,0.948927472020595,0.8623196383046963,-0.9549918795278842,-1.0660437155921598,0.9499999999999997,-0.9723756649303081,high,low,,ISIC_9848743.JPG,,ISIC_5808758.JPG,33,false,hl,keypress(j),0,true,790884.6999999881,790884.5,782752.828,782852.3000000119,782769.052,790802.595,1,40,16,
sequence,flow.Sequence,8_15,2023-11-15T18:43:44.611Z,,,,,,,,,,8115.447999999975,completion,,,,,,,high,low,,,,,,false,,,,true,790884.8000000119,790884.5,782752.828,782852.3000000119,782769.052,790802.595,1,40,,
trial,html.Screen,8_16_0,2023-11-15T18:43:47.667Z,,,,2,0.0389988030702649,0.0143212271490256,,true,hh,3138.3050000357907,response,0.7992421775390677,0.8623196383046963,-0.9549918795278842,1.063036912656269,0.9499999999999997,-0.9723756649303081,high,high,,ISIC_0064669.JPG,,ISIC_0010772.JPG,192,false,hh,keypress(i),0,true,793941,793940.9000000358,790785.711,790884.8000000119,790802.595,793852.584,1,40,17,
sequence,flow.Sequence,8_16,2023-11-15T18:43:47.667Z,,,,,,,,,,3138.3050000357907,completion,,,,,,,high,high,,,,,,false,,,,true,793941.1000000238,793940.9000000358,790785.711,790884.8000000119,790802.595,793852.584,1,40,,
trial,html.Screen,8_17_0,2023-11-15T18:43:55.330Z,,,,2,0.0538169356437535,-0.0113486191005169,,false,hl,7751.716000011889,response,0.6507198070497014,0.8123196383046962,-0.9549918795278842,-0.8917645531587611,0.8999999999999997,-0.9723756649303081,high,low,,ISIC_0009939.JPG,,ISIC_8781751.JPG,40,false,ll,keypress(f),0,true,801604.4000000358,801604.3000000119,793836.073,793941.1999999881,793852.584,801519.302,1,40,18,
sequence,flow.Sequence,8_17,2023-11-15T18:43:55.330Z,,,,,,,,,,7751.716000011889,completion,,,,,,,high,low,,,,,,false,,,,true,801604.4000000358,801604.3000000119,793836.073,793941.1999999881,793852.584,801519.302,1,40,,
trial,html.Screen,8_18_0,2023-11-15T18:44:03.203Z,,,,2,-0.0087912446525382,-0.0619041869188676,,false,lh,7957.697999999975,response,-0.8979276789594874,0.8623196383046963,-0.9549918795278842,0.925374811016654,0.8999999999999997,-0.9289041343754605,low,high,,ISIC_7185913.JPG,,ISIC_4208361.JPG,35,false,hl,keypress(j),0,true,809477.1000000238,809477,801502.296,801604.5,801519.302,809385.784,1,40,19,
sequence,flow.Sequence,8_18,2023-11-15T18:44:03.203Z,,,,,,,,,,7957.697999999975,completion,,,,,,,low,high,,,,,,false,,,,true,809477.1000000238,809477,801502.296,801604.5,801519.302,809385.784,1,40,,
trial,html.Screen,8_19_0,2023-11-15T18:44:07.699Z,,,,2,-0.0693466529227737,-0.044703434393184,,true,hh,4587.116000035778,response,0.8881798219454458,0.8623196383046963,-1.0049918795278843,0.7540442234866285,0.9499999999999997,-0.9289041343754605,high,high,,ISIC_0004217.JPG,,ISIC_0055675.JPG,192,false,hh,keypress(i),0,true,813972.9000000358,813972.9000000358,809368.997,809477.1999999881,809385.784,813886.176,1,40,20,
sequence,flow.Sequence,8_19,2023-11-15T18:44:07.699Z,,,,,,,,,,4587.116000035778,completion,,,,,,,high,high,,,,,,false,,,,true,813973.1000000238,813972.9000000358,809368.997,809477.1999999881,809385.784,813886.176,1,40,,
trial,html.Screen,8_20_0,2023-11-15T18:44:10.322Z,,,,2,0.0116094682222121,-0.0258434522530318,,true,hh,2710.0239999881014,response,0.8888187899385174,0.8623196383046963,-1.0049918795278843,0.8162579333127866,0.9499999999999997,-0.9289041343754605,high,high,,ISIC_9239632.JPG,,ISIC_0070285.JPG,192,false,hh,keypress(i),0,true,816596.4000000358,816596.1999999881,813869.396,813973.1999999881,813886.176,816502.468,1,40,21,
sequence,flow.Sequence,8_20,2023-11-15T18:44:10.322Z,,,,,,,,,,2710.0239999881014,completion,,,,,,,high,high,,,,,,false,,,,true,816596.5,816596.1999999881,813869.396,813973.1999999881,813886.176,816502.468,1,40,,
trial,html.Screen,8_21_0,2023-11-15T18:44:16.579Z,,,,2,0.0027483411352856,0.0100996915276271,,true,hh,6350.5320000000065,response,0.7617656301653202,0.7351510783997075,-1.0049918795278843,0.615326706835289,0.7351510783997075,-0.9289041343754605,high,high,,ISIC_7364041.JPG,,ISIC_8145348.JPG,267,false,hh,keypress(i),0,true,822853.1000000238,822853,816485.936,816596.5,816502.468,822769.257,1,40,22,
sequence,flow.Sequence,8_21,2023-11-15T18:44:16.579Z,,,,,,,,,,6350.5320000000065,completion,,,,,,,high,high,,,,,,false,,,,true,822853.1999999881,822853,816485.936,816596.5,816502.468,822769.257,1,40,,
trial,html.Screen,8_22_0,2023-11-15T18:44:21.090Z,,,,2,-0.0516762988734011,0.0130195499281172,,false,hl,4595.14300003578,response,0.8816288864119318,0.7351510783997075,-1.0049918795278843,-0.801867301188093,0.7351510783997075,-0.9289041343754605,high,low,,ISIC_9978498.JPG,,ISIC_9196783.JPG,52,false,hh,keypress(i),0,true,827364.6000000238,827364.4000000358,822752.186,822853.1999999881,822769.257,827269.035,1,40,23,
sequence,flow.Sequence,8_22,2023-11-15T18:44:21.090Z,,,,,,,,,,4595.14300003578,completion,,,,,,,high,low,,,,,,false,,,,true,827364.6999999881,827364.4000000358,822752.186,822853.1999999881,822769.257,827269.035,1,40,,
trial,html.Screen,8_23_0,2023-11-15T18:44:27.778Z,,,,2,0.0324770283903853,0.0249968632204382,,false,ll,6783.765000011888,response,-0.913084438298574,0.6984777966236104,-1.0049918795278843,-1.135180301076722,0.7351510783997075,-0.9789041343754605,low,low,,ISIC_7266462.JPG,,ISIC_8637134.JPG,136,false,hl,keypress(j),0,true,834052.9000000358,834052.8000000119,827252.241,827364.6999999881,827269.035,833969.494,1,40,24,
sequence,flow.Sequence,8_23,2023-11-15T18:44:27.779Z,,,,,,,,,,6783.765000011888,completion,,,,,,,low,low,,,,,,false,,,,true,834053,834052.8000000119,827252.241,827364.6999999881,827269.035,833969.494,1,40,,
trial,html.Screen,8_24_0,2023-11-15T18:44:35.955Z,,,,2,0.0217698886732706,-0.0410870915161425,,false,hh,8259.705999988131,response,0.5973065439751417,0.6984777966236104,-1.0549918795278843,0.65017924396646,0.7351510783997075,-0.9789041343754605,high,high,,ISIC_0072173.JPG,,ISIC_9134566.JPG,276,false,lh,keypress(e),0,true,842229.4000000358,842229.1999999881,833952.646,834053.1000000238,833969.494,842135.679,1,40,25,
sequence,flow.Sequence,8_24,2023-11-15T18:44:35.955Z,,,,,,,,,,8259.705999988131,completion,,,,,,,high,high,,,,,,false,,,,true,842229.5,842229.1999999881,833952.646,834053.1000000238,833969.494,842135.679,1,40,,
trial,html.Screen,8_25_0,2023-11-15T18:44:39.442Z,,,,2,0.0194167651857046,0.0726253809408601,,true,ll,3581.0209999880753,response,-0.9840050049609405,0.7484777966236105,-1.0549918795278843,-1.160746324899676,0.6851510783997075,-0.9789041343754605,low,low,,ISIC_0056692.JPG,,ISIC_8651053.JPG,133,false,ll,keypress(f),0,true,845716.9000000358,845716.6999999881,842119.204,842229.5,842135.679,845636.147,1,40,26,
sequence,flow.Sequence,8_25,2023-11-15T18:44:39.443Z,,,,,,,,,,3581.0209999880753,completion,,,,,,,low,low,,,,,,false,,,,true,845717,845716.6999999881,842119.204,842229.5,842135.679,845636.147,1,40,,
trial,html.Screen,8_26_0,2023-11-15T18:44:47.875Z,,,,2,0.0509970506474296,0.0744820958440291,,false,lh,8512.853000000003,response,-1.1681441049453836,0.7484777966236105,-1.0549918795278843,0.5303580879228982,0.6851510783997075,-1.0223756649303082,low,high,,ISIC_0009975.JPG,,ISIC_0009947.JPG,42,false,ll,keypress(f),0,true,854149.1999999881,854149,845602.701,845717,845636.147,854052.348,1,40,27,
sequence,flow.Sequence,8_26,2023-11-15T18:44:47.875Z,,,,,,,,,,8512.853000000003,completion,,,,,,,low,high,,,,,,false,,,,true,854149.1999999881,854149,845602.701,845717,845636.147,854052.348,1,40,,
trial,html.Screen,8_27_0,2023-11-15T18:44:53.250Z,,,,2,-0.0533723079251252,-0.0299718727255261,,false,lh,5471.652000000002,response,-1.0359890726035268,0.7484777966236105,-1.026074554953162,0.5373232654388217,0.7351510783997075,-1.0223756649303082,low,high,,ISIC_6562871.JPG,,ISIC_2847555.JPG,44,false,ll,keypress(f),0,true,859524.1999999881,859524,854035.863,854149.1999999881,854052.348,859435.743,1,40,28,
sequence,flow.Sequence,8_27,2023-11-15T18:44:53.250Z,,,,,,,,,,5471.652000000002,completion,,,,,,,low,high,,,,,,false,,,,true,859524.3000000119,859524,854035.863,854149.1999999881,854052.348,859435.743,1,40,,
trial,html.Screen,8_28_0,2023-11-15T18:45:02.243Z,,,,2,-0.0113873532168551,-0.0054999201556291,,true,hh,9081.357000023825,response,0.7120137688707584,0.7484777966236105,-1.026074554953162,0.5934094611600786,0.7851510783997075,-1.0223756649303082,high,high,,ISIC_8812621.JPG,,ISIC_4524488.JPG,263,false,hh,keypress(i),0,true,868517.1999999881,868517.1000000238,859419.325,859524.4000000358,859435.743,868436.137,1,40,29,
sequence,flow.Sequence,8_28,2023-11-15T18:45:02.243Z,,,,,,,,,,9081.357000023825,completion,,,,,,,high,high,,,,,,false,,,,true,868517.4000000358,868517.1000000238,859419.325,859524.3000000119,859435.743,868436.137,1,40,,
trial,html.Screen,8_29_0,2023-11-15T18:45:05.282Z,,,,2,0.0608867680161491,0.0206384042070211,,false,lh,3120.562999988091,response,-0.9454713230140772,0.7484777966236105,-1.026074554953162,0.9245167441969216,0.7851510783997075,-1.0223756649303082,low,high,,ISIC_0640806.JPG,,ISIC_9101055.JPG,41,false,hh,keypress(i),0,true,871556.6999999881,871556.6999999881,868418.751,868517.4000000358,868436.137,871469.212,1,40,30,
sequence,flow.Sequence,8_29,2023-11-15T18:45:05.282Z,,,,,,,,,,3120.562999988091,completion,,,,,,,low,high,,,,,,false,,,,true,871556.9000000358,871556.6999999881,868418.751,868517.4000000358,868436.137,871469.212,1,40,,
trial,html.Screen,8_30_0,2023-11-15T18:45:10.930Z,,,,2,0.0324770283903853,0.0249968632204382,,false,lh,5735.388000023784,response,-0.9013888878932071,0.7484777966236105,-1.076074554953162,0.597946429593811,0.7089631026785002,-1.0223756649303082,low,high,,ISIC_7266462.JPG,,ISIC_0068259.JPG,34,false,ll,keypress(f),0,true,877204.6999999881,877204.6000000238,871452.551,871556.9000000358,871469.212,877119.161,1,40,31,
sequence,flow.Sequence,8_30,2023-11-15T18:45:10.930Z,,,,,,,,,,5735.388000023784,completion,,,,,,,low,high,,,,,,false,,,,true,877204.6999999881,877204.6000000238,871452.551,871556.9000000358,871469.212,877119.161,1,40,,
trial,html.Screen,8_31_0,2023-11-15T18:45:13.586Z,,,,2,-0.0552031398781121,-0.0652612426529481,,true,ll,2741.8390000000363,response,-1.1920465299859582,0.7484777966236105,-1.076074554953162,-0.9548921292696696,0.7589631026785002,-1.0223756649303082,low,low,,ISIC_0024226.JPG,,ISIC_5566396.JPG,121,false,ll,keypress(f),0,true,879861,879861,877102.62,877204.8000000119,877119.161,879769.198,1,40,32,
sequence,flow.Sequence,8_31,2023-11-15T18:45:13.587Z,,,,,,,,,,2741.8390000000363,completion,,,,,,,low,low,,,,,,false,,,,true,879861.1999999881,879861,877102.62,877204.8000000119,877119.161,879769.198,1,40,,
trial,html.Screen,8_32_0,2023-11-15T18:45:21.826Z,,,,2,0.0085520978188085,-0.0464691161264081,,true,hh,8330.802000000025,response,0.6414565107493193,0.7484777966236105,-1.023469329627814,0.7473386199328566,0.7589631026785002,-1.0223756649303082,high,high,,ISIC_0758797.JPG,,ISIC_7809510.JPG,258,false,hh,keypress(i),0,true,888100.1999999881,888100,879752.742,879861.1999999881,879769.198,888020.014,1,40,33,
sequence,flow.Sequence,8_32,2023-11-15T18:45:21.826Z,,,,,,,,,,8330.802000000025,completion,,,,,,,high,high,,,,,,false,,,,true,888100.4000000358,888100,879752.742,879861.1999999881,879769.198,888020.014,1,40,,
trial,html.Screen,8_33_0,2023-11-15T18:45:28.946Z,,,,2,0.0069555338059566,-0.0310100918136373,,false,lh,7200.886000035796,response,-1.10953285327247,0.6443975653410878,-1.023469329627814,0.7377773112414787,0.7589631026785002,-1.0223756649303082,low,high,,ISIC_0011177.JPG,,ISIC_1720840.JPG,43,false,hl,keypress(j),0,true,895221.1000000238,895220.9000000358,887985.853,888100.4000000358,888020.014,895135.775,1,40,34,
sequence,flow.Sequence,8_33,2023-11-15T18:45:28.947Z,,,,,,,,,,7200.886000035796,completion,,,,,,,low,high,,,,,,false,,,,true,895221.1999999881,895220.9000000358,887985.853,888100.4000000358,888020.014,895135.775,1,40,,
trial,html.Screen,8_34_0,2023-11-15T18:45:33.074Z,,,,2,0.0247880219471745,-0.0687761754603142,,false,lh,4213.025000011898,response,-0.9652856136432328,0.6443975653410878,-1.073469329627814,0.6471031362916833,0.8089631026785002,-1.0223756649303082,low,high,,ISIC_0031745.JPG,,ISIC_0008636.JPG,30,false,ll,keypress(f),0,true,899348.9000000358,899348.8000000119,895119.053,895221.1999999881,895135.775,899252.328,1,40,35,
sequence,flow.Sequence,8_34,2023-11-15T18:45:33.074Z,,,,,,,,,,4213.025000011898,completion,,,,,,,low,high,,,,,,false,,,,true,899349,899348.8000000119,895119.053,895221.1999999881,895135.775,899252.328,1,40,,
trial,html.Screen,8_35_0,2023-11-15T18:45:37.954Z,,,,2,-0.0552031398781121,-0.0652612426529481,,false,hl,4976.472000011941,response,0.6714344890480403,0.6443975653410878,-1.073469329627814,-0.9362962536620838,0.8589631026785003,-1.0223756649303082,high,low,,ISIC_0024226.JPG,,ISIC_3691320.JPG,52,false,ll,keypress(f),0,true,904228.8000000119,904228.8000000119,899235.974,899349.1000000238,899252.328,904135.66,1,40,36,
sequence,flow.Sequence,8_35,2023-11-15T18:45:37.954Z,,,,,,,,,,4976.472000011941,completion,,,,,,,high,low,,,,,,false,,,,true,904229,904228.8000000119,899235.974,899349.1000000238,899252.328,904135.66,1,40,,
trial,html.Screen,8_36_0,2023-11-15T18:45:41.315Z,,,,2,0.0363437082783146,0.0333332186217051,,false,hl,3453.3399999999674,response,0.6231695572160023,0.6943975653410879,-1.073469329627814,-0.9598176954765794,0.8589631026785003,-0.9007909336526583,high,low,,ISIC_3314555.JPG,,ISIC_0024297.JPG,63,false,hh,keypress(i),0,true,907589.1000000238,907589,904119.283,904229,904135.66,907502.78,1,40,37,
sequence,flow.Sequence,8_36,2023-11-15T18:45:41.315Z,,,,,,,,,,3453.3399999999674,completion,,,,,,,high,low,,,,,,false,,,,true,907589.1999999881,907589,904119.283,904229,904135.66,907502.78,1,40,,
trial,html.Screen,8_37_0,2023-11-15T18:45:45.554Z,,,,2,0.0511770300585718,0.029030243555971,,true,ll,4325.820000023814,response,-1.0987112847206,0.6943975653410879,-1.073469329627814,-0.8004269994538202,0.8589631026785003,-0.9507909336526583,low,low,,ISIC_6652978.JPG,,ISIC_0027804.JPG,128,false,ll,keypress(f),0,true,911828.8000000119,911828.6000000238,907485.495,907589.1999999881,907502.78,911735.671,1,40,38,
sequence,flow.Sequence,8_37,2023-11-15T18:45:45.554Z,,,,,,,,,,4325.820000023814,completion,,,,,,,low,low,,,,,,false,,,,true,911828.8000000119,911828.6000000238,907485.495,907589.1999999881,907502.78,911735.671,1,40,,
trial,html.Screen,8_38_0,2023-11-15T18:45:49.282Z,,,,2,0.0329095507339554,-0.0382899749693245,,false,hl,3821.22900003579,response,0.5428946919705198,0.6943975653410879,-0.8995691420872101,-0.7709129042055036,0.8589631026785003,-0.9507909336526583,high,low,,ISIC_8812781.JPG,,ISIC_0029777.JPG,57,false,ll,keypress(f),0,true,915557,915556.9000000358,911719.328,911828.9000000358,911735.671,915469.443,1,40,39,
sequence,flow.Sequence,8_38,2023-11-15T18:45:49.283Z,,,,,,,,,,3821.22900003579,completion,,,,,,,high,low,,,,,,false,,,,true,915557.1000000238,915556.9000000358,911719.328,911828.8000000119,911735.671,915469.443,1,40,,
trial,html.Screen,8_39_0,2023-11-15T18:45:55.090Z,,,,2,0.0217698886732706,-0.0410870915161425,,true,hh,5894.55700000003,response,0.7066810904552011,0.7443975653410879,-0.8995691420872101,0.8605119967213153,0.8589631026785003,-0.7356699518296619,high,high,,ISIC_0072173.JPG,,ISIC_0026699.JPG,235,false,hh,keypress(i),0,true,921364.1999999881,921364,915452.65,915557.1999999881,915469.443,921268.983,1,40,40,
sequence,flow.Sequence,8_39,2023-11-15T18:45:55.090Z,,,,,,,,,,5894.55700000003,completion,,,,,,,high,high,,,,,,false,,,,true,921364.1999999881,921364,915452.65,915557.1999999881,915469.443,921268.983,1,40,,
stair_loop,flow.Loop,8,2023-11-15T18:45:55.090Z,,,,,,,,,,225011.53099999996,completion,,,,,,,,,,,,,,false,,,,true,921364.3000000119,921364,696335.983,696443.5,696352.469,921268.983,1,40,,
exp_instructions,html.Screen,9,2023-11-15T18:46:24.882Z,,,,,,,,,,29887.516999999993,response,,,,,,,,,,,,,,,continue,keypress(Space),,,951157,951156.5,921252.204,921364.3000000119,921268.983,951068.998,,,,
trial,html.Screen,10_0_0,2023-11-15T18:46:28.980Z,,,,1,0.0324770283903853,0.0249968632204382,,false,lh,4185.60200002382,response,-0.9652856136432328,0.7239091359363916,-1.027763509670115,0.6471031362916833,0.7827995366191183,-0.9742612104171744,low,high,,ISIC_7266462.JPG,8,ISIC_0008636.JPG,41,false,ll,keypress(f),0,false,955254.8000000119,955254.6000000238,951051.128,951157.1000000238,951068.998,955169.421,4,500,1,
break,html.Screen,10_0_1,2023-11-15T18:46:28.980Z,,,,,,,,,,NaN,,,,,,,,low,high,,,,,,false,,,,false,955255.1000000238,955255,,955254.8000000119,,955169.421,4,500,,
break_continue,html.Screen,10_0_2,2023-11-15T18:46:28.980Z,,,,,,,,,,NaN,,,,,,,,low,high,,,,,,false,,,,false,955255.4000000358,955255.3000000119,,955255.3000000119,,955169.421,4,500,,
sequence,flow.Sequence,10_0,2023-11-15T18:46:28.980Z,,,,,,,,,,4186.3020000118995,completion,,,,,,,low,high,,,,,,false,,,,false,955255.4000000358,955255.3000000119,951051.128,951157,951068.998,955169.421,4,500,,
trial,html.Screen,10_1_0,2023-11-15T18:46:34.754Z,,,,1,0.0329095507339554,-0.0382899749693245,,false,hh,5859.278999988106,response,0.6433940610840138,0.7239091359363916,-1.027763509670115,0.7848271350784322,0.7827995366191183,-0.9742612104171744,high,high,,ISIC_8812781.JPG,8,ISIC_0010240.JPG,259,false,hl,keypress(j),0,false,961028.9000000358,961028.6999999881,955152.685,955255.5,955169.421,960935.727,4,500,2,
break,html.Screen,10_1_1,2023-11-15T18:46:34.754Z,,,,,,,,,,NaN,,,,,,,,high,high,,,,,,false,,,,false,961029.1999999881,961029.1000000238,,961029,,960935.727,4,500,,
break_continue,html.Screen,10_1_2,2023-11-15T18:46:34.754Z,,,,,,,,,,NaN,,,,,,,,high,high,,,,,,false,,,,false,961029.5,961029.4000000358,,961029.3000000119,,960935.727,4,500,,
sequence,flow.Sequence,10_1,2023-11-15T18:46:34.754Z,,,,,,,,,,5859.97900003579,completion,,,,,,,high,high,,,,,,false,,,,false,961029.5,961029.4000000358,955152.685,955255.5,955169.421,960935.727,4,500,,
trial,html.Screen,10_2_0,2023-11-15T18:46:39.506Z,,,,1,0.0336891949856763,0.060314732178219,,true,ll,4845.472999988124,response,-1.2024083555600384,0.7239091359363916,-1.027763509670115,-1.149077673153018,0.7827995366191183,-0.9742612104171744,low,low,,ISIC_6192289.JPG,9,ISIC_3566243.JPG,135,false,ll,keypress(f),0,false,965781.1999999881,965781.1999999881,960919.242,961029.5,960935.727,965685.619,4,500,3,
break,html.Screen,10_2_1,2023-11-15T18:46:39.507Z,,,,,,,,,,NaN,,,,,,,,low,low,,,,,,false,,,,false,965781.6000000238,965781.5,,965781.4000000358,,965685.619,4,500,,
break_continue,html.Screen,10_2_2,2023-11-15T18:46:39.507Z,,,,,,,,,,NaN,,,,,,,,low,low,,,,,,false,,,,false,965781.8000000119,965781.6999999881,,965781.6000000238,,965685.619,4,500,,
sequence,flow.Sequence,10_2,2023-11-15T18:46:39.507Z,,,,,,,,,,4845.972999988124,completion,,,,,,,low,low,,,,,,false,,,,false,965781.9000000358,965781.6999999881,960919.242,961029.5,960935.727,965685.619,4,500,,
trial,html.Screen,10_3_0,2023-11-15T18:46:45.330Z,,,,1,0.0593670819812057,-0.0718390543903236,,false,hl,5919.080999988131,response,0.7118141631588264,0.7239091359363916,-1.027763509670115,-1.0369885917487718,0.7827995366191183,-0.9742612104171744,high,low,,ISIC_0062367.JPG,9,ISIC_6917681.JPG,43,false,lh,keypress(e),0,false,971604.8000000119,971604.6999999881,965669.375,965781.9000000358,965685.619,971519.144,4,500,4,
break,html.Screen,10_3_1,2023-11-15T18:46:45.330Z,,,,,,,,,,NaN,,,,,,,,high,low,,,,,,false,,,,false,971605.1000000238,971605,,971604.9000000358,,971519.144,4,500,,
break_continue,html.Screen,10_3_2,2023-11-15T18:46:45.330Z,,,,,,,,,,NaN,,,,,,,,high,low,,,,,,false,,,,false,971605.3000000119,971605.1000000238,,971605.1000000238,,971519.144,4,500,,
sequence,flow.Sequence,10_3,2023-11-15T18:46:45.330Z,,,,,,,,,,5919.481000023894,completion,,,,,,,high,low,,,,,,false,,,,false,971605.3000000119,971605.1000000238,965669.375,965781.9000000358,965685.619,971519.144,4,500,,
trial,html.Screen,10_4_0,2023-11-15T18:46:51.794Z,,,,1,-0.0134764727102299,-0.0033499036460912,,false,ll,6549.356000000029,response,-0.8513702094329779,0.7239091359363916,-1.027763509670115,-0.8646686295881743,0.7827995366191183,-0.9742612104171744,low,low,,ISIC_0009998.JPG,9,ISIC_1881133.JPG,135,false,hh,keypress(i),0,false,978068.6000000238,978068.5,971502.708,971605.4000000358,971519.144,977985.873,4,500,5,
break,html.Screen,10_4_1,2023-11-15T18:46:51.794Z,,,,,,,,,,NaN,,,,,,,,low,low,,,,,,false,,,,false,978068.9000000358,978068.8000000119,,978068.6999999881,,977985.873,4,500,,
break_continue,html.Screen,10_4_2,2023-11-15T18:46:51.794Z,,,,,,,,,,NaN,,,,,,,,low,low,,,,,,false,,,,false,978069.1000000238,978069.1000000238,,978068.9000000358,,977985.873,4,500,,
sequence,flow.Sequence,10_4,2023-11-15T18:46:51.794Z,,,,,,,,,,6549.956000023871,completion,,,,,,,low,low,,,,,,false,,,,false,978069.1999999881,978069.1000000238,971502.708,971605.4000000358,971519.144,977985.873,4,500,,
trial,html.Screen,10_5_0,2023-11-15T18:47:01.361Z,,,,1,0.063045324701596,-0.0064789751878758,,true,hl,9650.527000035741,response,0.6132586392346531,0.7239091359363916,-1.027763509670115,-0.9190152836889912,0.7827995366191183,-0.9742612104171744,high,low,,ISIC_5805349.JPG,9,ISIC_5833422.JPG,43,false,hl,keypress(j),0,false,987636.4000000358,987636.4000000358,977968.987,978069.1999999881,977985.873,987552.483,4,500,6,
break,html.Screen,10_5_1,2023-11-15T18:47:01.362Z,,,,,,,,,,NaN,,,,,,,,high,low,,,,,,false,,,,false,987636.6999999881,987636.6999999881,,987636.5,,987552.483,4,500,,
break_continue,html.Screen,10_5_2,2023-11-15T18:47:01.362Z,,,,,,,,,,NaN,,,,,,,,high,low,,,,,,false,,,,false,987637,987636.9000000358,,987636.9000000358,,987552.483,4,500,,
sequence,flow.Sequence,10_5,2023-11-15T18:47:01.362Z,,,,,,,,,,9651.027000035741,completion,,,,,,,high,low,,,,,,false,,,,false,987637.1000000238,987636.9000000358,977968.987,978069.1999999881,977985.873,987552.483,4,500,,
trial,html.Screen,10_6_0,2023-11-15T18:47:06.738Z,,,,1,0.0640778296621707,0.0387686079545705,,false,ll,5460.216999988072,response,-1.2023251949137908,0.7239091359363916,-1.027763509670115,-0.883329474530484,0.7827995366191183,-0.9742612104171744,low,low,,ISIC_0010124.JPG,9,ISIC_2620357.JPG,135,false,lh,keypress(e),0,false,993012.9000000358,993012.6999999881,987535.436,987637.1000000238,987552.483,992918.934,4,500,7,
break,html.Screen,10_6_1,2023-11-15T18:47:06.738Z,,,,,,,,,,NaN,,,,,,,,low,low,,,,,,false,,,,false,993013.1000000238,993013,,993013,,992918.934,4,500,,
break_continue,html.Screen,10_6_2,2023-11-15T18:47:06.738Z,,,,,,,,,,NaN,,,,,,,,low,low,,,,,,false,,,,false,993013.3000000119,993013.3000000119,,993013.1999999881,,992918.934,4,500,,
sequence,flow.Sequence,10_6,2023-11-15T18:47:06.738Z,,,,,,,,,,5460.8170000119135,completion,,,,,,,low,low,,,,,,false,,,,false,993013.3000000119,993013.3000000119,987535.436,987637.1000000238,987552.483,992918.934,4,500,,
trial,html.Screen,10_7_0,2023-11-15T18:47:10.594Z,,,,1,0.0640778296621707,0.0387686079545705,,true,hh,3949.8660000119125,response,0.8738633868130323,0.7239091359363916,-1.027763509670115,0.7115106986751311,0.7827995366191183,-0.9742612104171744,high,high,,ISIC_0010124.JPG,9,ISIC_0028764.JPG,259,false,hh,keypress(i),0,false,996868.9000000358,996868.8000000119,992902.587,993013.4000000358,992918.934,996785.81,4,500,8,
break,html.Screen,10_7_1,2023-11-15T18:47:10.594Z,,,,,,,,,,NaN,,,,,,,,high,high,,,,,,false,,,,false,996869.1999999881,996869.1000000238,,996869,,996785.81,4,500,,
break_continue,html.Screen,10_7_2,2023-11-15T18:47:10.594Z,,,,,,,,,,NaN,,,,,,,,high,high,,,,,,false,,,,false,996869.4000000358,996869.3000000119,,996869.3000000119,,996785.81,4,500,,
sequence,flow.Sequence,10_7,2023-11-15T18:47:10.594Z,,,,,,,,,,3950.3660000119125,completion,,,,,,,high,high,,,,,,false,,,,false,996869.4000000358,996869.3000000119,992902.587,993013.3000000119,992918.934,996785.81,4,500,,
trial,html.Screen,10_8_0,2023-11-15T18:47:17.554Z,,,,1,-0.0159061451859594,-0.0296598845560212,,false,hl,7043.090000035707,response,0.6714344890480403,0.7239091359363916,-1.027763509670115,-0.9362962536620838,0.7827995366191183,-0.9742612104171744,high,low,,ISIC_0072564.JPG,9,ISIC_3691320.JPG,43,false,ll,keypress(f),0,false,1003829.1000000238,1003828.9000000358,996769.276,996869.4000000358,996785.81,1003735.602,4,500,9,
break,html.Screen,10_8_1,2023-11-15T18:47:17.554Z,,,,,,,,,,NaN,,,,,,,,high,low,,,,,,false,,,,false,1003829.4000000358,1003829.3000000119,,1003829.1999999881,,1003735.602,4,500,,
break_continue,html.Screen,10_8_2,2023-11-15T18:47:17.555Z,,,,,,,,,,NaN,,,,,,,,high,low,,,,,,false,,,,false,1003829.6000000238,1003829.5,,1003829.5,,1003735.602,4,500,,
sequence,flow.Sequence,10_8,2023-11-15T18:47:17.555Z,,,,,,,,,,7043.689999999944,completion,,,,,,,high,low,,,,,,false,,,,false,1003829.6999999881,1003829.5,996769.276,996869.4000000358,996785.81,1003735.602,4,500,,
trial,html.Screen,10_9_0,2023-11-15T18:47:23.089Z,,,,1,0.039728379742806,-0.0228701131373768,,true,hh,5628.698000011966,response,0.7916641003387539,0.7239091359363916,-1.027763509670115,0.8795523971208432,0.7827995366191183,-0.9742612104171744,high,high,,ISIC_0054073.JPG,9,ISIC_0069635.JPG,259,false,hh,keypress(i),0,false,1009364.3000000119,1009364.3000000119,1003719.355,1003829.8000000119,1003735.602,1009268.929,4,500,10,
break,html.Screen,10_9_1,2023-11-15T18:47:23.090Z,,,,,,,,,,NaN,,,,,,,,high,high,,,,,,false,,,,false,1009364.8000000119,1009364.6000000238,,1009364.5,,1009268.929,4,500,,
break_continue,html.Screen,10_9_2,2023-11-15T18:47:23.090Z,,,,,,,,,,NaN,,,,,,,,high,high,,,,,,false,,,,false,1009364.9000000358,1009364.9000000358,,1009364.8000000119,,1009268.929,4,500,,
sequence,flow.Sequence,10_9,2023-11-15T18:47:23.090Z,,,,,,,,,,5629.2980000358075,completion,,,,,,,high,high,,,,,,false,,,,false,1009365,1009364.9000000358,1003719.355,1003829.6999999881,1003735.602,1009268.929,4,500,,
trial,html.Screen,10_10_0,2023-11-15T18:47:32.642Z,,,,1,-0.0265457942157377,-0.0704357137706731,,false,hl,9647.971000035759,response,0.5595862418124089,0.7239091359363916,-1.027763509670115,-0.875112239330555,0.7827995366191183,-0.9742612104171744,high,low,,ISIC_3123377.JPG,8,ISIC_1081051.JPG,43,false,hh,keypress(i),0,false,1018917,1018916.9000000358,1009252.607,1009365,1009268.929,1018836.138,4,500,11,
break,html.Screen,10_10_1,2023-11-15T18:47:32.642Z,,,,,,,,,,NaN,,,,,,,,high,low,,,,,,false,,,,false,1018917.3000000119,1018917.1999999881,,1018917,,1018836.138,4,500,,
break_continue,html.Screen,10_10_2,2023-11-15T18:47:32.643Z,,,,,,,,,,NaN,,,,,,,,high,low,,,,,,false,,,,false,1018917.5,1018917.5,,1018917.5,,1018836.138,4,500,,
sequence,flow.Sequence,10_10,2023-11-15T18:47:32.643Z,,,,,,,,,,9648.570999999996,completion,,,,,,,high,low,,,,,,false,,,,false,1018917.6000000238,1018917.5,1009252.607,1009365,1009268.929,1018836.138,4,500,,
trial,html.Screen,10_11_0,2023-11-15T18:47:41.042Z,,,,1,0.0069555338059566,-0.0310100918136373,,true,hl,8480.662000011886,response,0.6386144741600837,0.7239091359363916,-1.027763509670115,-0.9535552759852256,0.7827995366191183,-0.9742612104171744,high,low,,ISIC_0011177.JPG,9,ISIC_1744817.JPG,43,false,hl,keypress(j),0,false,1027316.9000000358,1027316.8000000119,1018802.26,1018917.6999999881,1018836.138,1027235.988,4,500,12,
break,html.Screen,10_11_1,2023-11-15T18:47:41.042Z,,,,,,,,,,NaN,,,,,,,,high,low,,,,,,false,,,,false,1027317.3000000119,1027317.1999999881,,1027317,,1027235.988,4,500,,
break_continue,html.Screen,10_11_2,2023-11-15T18:47:41.042Z,,,,,,,,,,NaN,,,,,,,,high,low,,,,,,false,,,,false,1027317.4000000358,1027317.4000000358,,1027317.3000000119,,1027235.988,4,500,,
sequence,flow.Sequence,10_11,2023-11-15T18:47:41.042Z,,,,,,,,,,8481.262000035727,completion,,,,,,,high,low,,,,,,false,,,,false,1027317.5,1027317.4000000358,1018802.26,1018917.6999999881,1018836.138,1027235.988,4,500,,
trial,html.Screen,10_12_0,2023-11-15T18:47:45.906Z,,,,1,-0.0531672914703651,0.0074883925434357,,true,hl,4944.711999988067,response,0.7870237732709365,0.7239091359363916,-1.027763509670115,-0.9172955251119376,0.7827995366191183,-0.9742612104171744,high,low,,ISIC_4177043.JPG,9,ISIC_0057716.JPG,43,false,hl,keypress(j),0,false,1032180.9000000358,1032180.6999999881,1027202.427,1027317.5,1027235.988,1032085.622,4,500,13,
break,html.Screen,10_12_1,2023-11-15T18:47:45.906Z,,,,,,,,,,NaN,,,,,,,,high,low,,,,,,false,,,,false,1032181.1999999881,1032181.1999999881,,1032181,,1032085.622,4,500,,
break_continue,html.Screen,10_12_2,2023-11-15T18:47:45.906Z,,,,,,,,,,NaN,,,,,,,,high,low,,,,,,false,,,,false,1032181.4000000358,1032181.3000000119,,1032181.1999999881,,1032085.622,4,500,,
sequence,flow.Sequence,10_12,2023-11-15T18:47:45.906Z,,,,,,,,,,4945.312000011909,completion,,,,,,,high,low,,,,,,false,,,,false,1032181.5,1032181.3000000119,1027202.427,1027317.5,1027235.988,1032085.622,4,500,,
trial,html.Screen,10_13_0,2023-11-15T18:47:51.745Z,,,,1,-0.0737104822171846,0.0725320314728604,,false,lh,5934.678000011947,response,-0.9696118525781644,0.7239091359363916,-1.027763509670115,0.9244148283103414,0.7827995366191183,-0.9742612104171744,low,high,,ISIC_0002862.JPG,9,ISIC_7927525.JPG,41,false,hl,keypress(j),0,false,1038020.4000000358,1038020.3000000119,1032069.231,1032181.5,1032085.622,1037935.597,4,500,14,
break,html.Screen,10_13_1,2023-11-15T18:47:51.746Z,,,,,,,,,,NaN,,,,,,,,low,high,,,,,,false,,,,false,1038020.6999999881,1038020.6000000238,,1038020.5,,1037935.597,4,500,,
break_continue,html.Screen,10_13_2,2023-11-15T18:47:51.746Z,,,,,,,,,,NaN,,,,,,,,low,high,,,,,,false,,,,false,1038020.9000000358,1038020.8000000119,,1038020.8000000119,,1037935.597,4,500,,
sequence,flow.Sequence,10_13,2023-11-15T18:47:51.746Z,,,,,,,,,,5935.178000011947,completion,,,,,,,low,high,,,,,,false,,,,false,1038021,1038020.8000000119,1032069.231,1032181.5,1032085.622,1037935.597,4,500,,
trial,html.Screen,10_14_0,2023-11-15T18:47:59.618Z,,,,1,-0.0292059717970335,-0.0718256867525069,,false,lh,7957.20300001197,response,-1.1181734135756094,0.7239091359363916,-1.027763509670115,0.944560381774994,0.7827995366191183,-0.9742612104171744,low,high,,ISIC_1114966.JPG,8,ISIC_9688534.JPG,41,false,hl,keypress(j),0,false,1045892.9000000358,1045892.8000000119,1037919.342,1038021,1037935.597,1045802.424,4,500,15,
break,html.Screen,10_14_1,2023-11-15T18:47:59.618Z,,,,,,,,,,NaN,,,,,,,,low,high,,,,,,false,,,,false,1045893.3000000119,1045893.1999999881,,1045893.1000000238,,1045802.424,4,500,,
break_continue,html.Screen,10_14_2,2023-11-15T18:47:59.618Z,,,,,,,,,,NaN,,,,,,,,low,high,,,,,,false,,,,false,1045893.5,1045893.5,,1045893.3000000119,,1045802.424,4,500,,
sequence,flow.Sequence,10_14,2023-11-15T18:47:59.618Z,,,,,,,,,,7957.903000000049,completion,,,,,,,low,high,,,,,,false,,,,false,1045893.5,1045893.5,1037919.342,1038021,1037935.597,1045802.424,4,500,,
trial,html.Screen,10_15_0,2023-11-15T18:48:05.794Z,,,,1,-0.013431314305098,0.0140597582944232,,false,lh,6266.576000000001,response,-0.9696118525781644,0.7239091359363916,-1.027763509670115,0.9244148283103414,0.7827995366191183,-0.9742612104171744,low,high,,ISIC_0069617.JPG,9,ISIC_7927525.JPG,41,false,ll,keypress(f),0,false,1052069.1000000238,1052069,1045785.662,1045893.5,1045802.424,1051986.017,4,500,16,
break,html.Screen,10_15_1,2023-11-15T18:48:05.794Z,,,,,,,,,,NaN,,,,,,,,low,high,,,,,,false,,,,false,1052069.4000000358,1052069.300000012,,1052069.199999988,,1051986.017,4,500,,
break_continue,html.Screen,10_15_2,2023-11-15T18:48:05.795Z,,,,,,,,,,NaN,,,,,,,,low,high,,,,,,false,,,,false,1052069.5,1052069.5,,1052069.4000000358,,1051986.017,4,500,,
sequence,flow.Sequence,10_15,2023-11-15T18:48:05.795Z,,,,,,,,,,6267.076000000001,completion,,,,,,,low,high,,,,,,false,,,,false,1052069.6000000238,1052069.5,1045785.662,1045893.5,1045802.424,1051986.017,4,500,,
trial,html.Screen,10_16_0,2023-11-15T18:48:16.793Z,,,,1,-0.0292059717970335,-0.0718256867525069,,,,11016.255000000121,timeout,-0.9702972792581116,0.7239091359363916,-1.027763509670115,0.6881089997215682,0.7827995366191183,-0.9742612104171744,low,high,,ISIC_1114966.JPG,9,ISIC_0942056.JPG,41,false,,,0,false,1063068.5,1063068.300000012,1051969.204,1052069.699999988,1051986.017,1063002.272,4,500,17,
break,html.Screen,10_16_1,2023-11-15T18:48:16.794Z,,,,,,,,,,NaN,,,,,,,,low,high,,,,,,false,,,,false,1063068.699999988,1063068.699999988,,1063068.5,,1063002.272,4,500,,
break_continue,html.Screen,10_16_2,2023-11-15T18:48:16.794Z,,,,,,,,,,NaN,,,,,,,,low,high,,,,,,false,,,,false,1063068.9000000358,1063068.9000000358,,1063068.699999988,,1063002.272,4,500,,
sequence,flow.Sequence,10_16,2023-11-15T18:48:16.794Z,,,,,,,,,,11082.88300003577,completion,,,,,,,low,high,,,,,,false,,,,false,1063069,1063068.9000000358,1051969.204,1052069.699999988,1051986.017,1063002.272,4,500,,
trial,html.Screen,10_17_0,2023-11-15T18:48:19.201Z,,,,1,0.0593670819812057,-0.0718390543903236,,true,hh,2473.8280000237282,response,0.9125678790631364,0.7239091359363916,-1.027763509670115,0.9430679164922772,0.7827995366191183,-0.9742612104171744,high,high,,ISIC_0062367.JPG,9,ISIC_0062111.JPG,259,false,hh,keypress(i),0,false,1065476.199999988,1065476.1000000238,1062986.023,1063069,1063002.272,1065385.553,4,500,18,
break,html.Screen,10_17_1,2023-11-15T18:48:19.201Z,,,,,,,,,,NaN,,,,,,,,high,high,,,,,,false,,,,false,1065476.5,1065476.5,,1065476.300000012,,1065385.553,4,500,,
break_continue,html.Screen,10_17_2,2023-11-15T18:48:19.202Z,,,,,,,,,,NaN,,,,,,,,high,high,,,,,,false,,,,false,1065476.6000000238,1065476.6000000238,,1065476.5,,1065385.553,4,500,,
sequence,flow.Sequence,10_17,2023-11-15T18:48:19.202Z,,,,,,,,,,2474.3280000237282,completion,,,,,,,high,high,,,,,,false,,,,false,1065476.699999988,1065476.6000000238,1062986.023,1063069,1063002.272,1065385.553,4,500,,
trial,html.Screen,10_18_0,2023-11-15T18:48:24.609Z,,,,1,0.039728379742806,-0.0228701131373768,,true,lh,5498.646999988006,response,-1.0363634319020814,0.7239091359363916,-1.027763509670115,0.6512793949410997,0.7827995366191183,-0.9742612104171744,low,high,,ISIC_0054073.JPG,9,ISIC_0064979.JPG,41,false,lh,keypress(e),0,false,1070884.4000000358,1070884.199999988,1065368.993,1065476.800000012,1065385.553,1070802.565,4,500,19,
break,html.Screen,10_18_1,2023-11-15T18:48:24.610Z,,,,,,,,,,NaN,,,,,,,,low,high,,,,,,false,,,,false,1070884.6000000238,1070884.5,,1070884.4000000358,,1070802.565,4,500,,
break_continue,html.Screen,10_18_2,2023-11-15T18:48:24.610Z,,,,,,,,,,NaN,,,,,,,,low,high,,,,,,false,,,,false,1070884.800000012,1070884.699999988,,1070884.6000000238,,1070802.565,4,500,,
sequence,flow.Sequence,10_18,2023-11-15T18:48:24.610Z,,,,,,,,,,5499.146999988006,completion,,,,,,,low,high,,,,,,false,,,,false,1070884.800000012,1070884.699999988,1065368.993,1065476.800000012,1065385.553,1070802.565,4,500,,
trial,html.Screen,10_19_0,2023-11-15T18:48:31.889Z,,,,1,0.0450282431170921,,,false,ll,7361.535000023898,response,-1.1769240543102173,0.7239091359363916,-1.027763509670115,-0.8561928086854821,0.7827995366191183,-0.9742612104171744,low,low,,ISIC_1805163.JPG,8,ISIC_0919467.JPG,135,false,hh,keypress(i),0,false,1078164.300000012,1078164.1000000238,1070785.558,1070884.9000000358,1070802.565,1078068.87,4,500,20,
break,html.Screen,10_19_1,2023-11-15T18:48:31.889Z,,,,,,,,,,NaN,,,,,,,,low,low,,,,,,false,,,,false,1078164.6000000238,1078164.5,,1078164.4000000358,,1078068.87,4,500,,
break_continue,html.Screen,10_19_2,2023-11-15T18:48:31.890Z,,,,,,,,,,NaN,,,,,,,,low,low,,,,,,false,,,,false,1078164.800000012,1078164.699999988,,1078164.6000000238,,1078068.87,4,500,,
sequence,flow.Sequence,10_19,2023-11-15T18:48:31.890Z,,,,,,,,,,7362.134999988135,completion,,,,,,,low,low,,,,,,false,,,,false,1078164.800000012,1078164.699999988,1070785.558,1070884.800000012,1070802.565,1078068.87,4,500,,
trial,html.Screen,10_20_0,2023-11-15T18:48:38.418Z,,,,1,-0.0546386976779619,0.0448724759283131,,true,hh,6624.129999999888,response,0.7951907368136324,0.7239091359363916,-1.027763509670115,0.8943547811786065,0.7827995366191183,-0.9742612104171744,high,high,,ISIC_6722934.JPG,9,ISIC_0071771.JPG,259,false,hh,keypress(i),0,false,1084693.1000000238,1084693,1078052.595,1078164.800000012,1078068.87,1084602.366,4,500,21,
break,html.Screen,10_20_1,2023-11-15T18:48:38.418Z,,,,,,,,,,NaN,,,,,,,,high,high,,,,,,false,,,,false,1084693.4000000358,1084693.300000012,,1084693.199999988,,1084602.366,4,500,,
break_continue,html.Screen,10_20_2,2023-11-15T18:48:38.418Z,,,,,,,,,,NaN,,,,,,,,high,high,,,,,,false,,,,false,1084693.6000000238,1084693.6000000238,,1084693.4000000358,,1084602.366,4,500,,
sequence,flow.Sequence,10_20,2023-11-15T18:48:38.419Z,,,,,,,,,,6624.73000002373,completion,,,,,,,high,high,,,,,,false,,,,false,1084693.699999988,1084693.6000000238,1078052.595,1078164.800000012,1078068.87,1084602.366,4,500,,
trial,html.Screen,10_21_0,2023-11-15T18:48:45.810Z,,,,1,0.0363437082783146,0.0333332186217051,,true,hl,7482.434000011999,response,0.7197989269080959,0.7239091359363916,-1.027763509670115,-0.9410141415297968,0.7827995366191183,-0.9742612104171744,high,low,,ISIC_3314555.JPG,9,ISIC_2635051.JPG,43,false,hl,keypress(j),0,false,1092084.9000000358,1092084.800000012,1084585.445,1084693.800000012,1084602.366,1092002.665,4,500,22,
break,html.Screen,10_21_1,2023-11-15T18:48:45.810Z,,,,,,,,,,NaN,,,,,,,,high,low,,,,,,false,,,,false,1092085.199999988,1092085.1000000238,,1092085,,1092002.665,4,500,,
break_continue,html.Screen,10_21_2,2023-11-15T18:48:45.810Z,,,,,,,,,,NaN,,,,,,,,high,low,,,,,,false,,,,false,1092085.5,1092085.4000000358,,1092085.199999988,,1092002.665,4,500,,
sequence,flow.Sequence,10_21,2023-11-15T18:48:45.810Z,,,,,,,,,,7483.034000035841,completion,,,,,,,high,low,,,,,,false,,,,false,1092085.5,1092085.4000000358,1084585.445,1084693.800000012,1084602.366,1092002.665,4,500,,
trial,html.Screen,10_22_0,2023-11-15T18:48:52.737Z,,,,1,0.0324770283903853,0.0249968632204382,,true,ll,7009.834999999963,response,-0.9872117590837104,0.7239091359363916,-1.027763509670115,-0.8387342204487216,0.7827995366191183,-0.9742612104171744,low,low,,ISIC_7266462.JPG,9,ISIC_4539674.JPG,135,false,ll,keypress(f),0,false,1099012.6000000238,1099012.5,1091985.395,1092085.6000000238,1092002.665,1098918.871,4,500,23,
break,html.Screen,10_22_1,2023-11-15T18:48:52.738Z,,,,,,,,,,NaN,,,,,,,,low,low,,,,,,false,,,,false,1099012.9000000358,1099012.9000000358,,1099012.699999988,,1098918.871,4,500,,
break_continue,html.Screen,10_22_2,2023-11-15T18:48:52.738Z,,,,,,,,,,NaN,,,,,,,,low,low,,,,,,false,,,,false,1099013.1000000238,1099013,,1099012.9000000358,,1098918.871,4,500,,
sequence,flow.Sequence,10_22,2023-11-15T18:48:52.738Z,,,,,,,,,,7010.334999999963,completion,,,,,,,low,low,,,,,,false,,,,false,1099013.1000000238,1099013,1091985.395,1092085.5,1092002.665,1098918.871,4,500,,
trial,html.Screen,10_23_0,2023-11-15T18:48:55.186Z,,,,1,0.0027483411352856,0.0100996915276271,,true,ll,2541.929000011878,response,-1.1217390688497193,0.7239091359363916,-1.027763509670115,-0.8482399573167824,0.7827995366191183,-0.9742612104171744,low,low,,ISIC_7364041.JPG,9,ISIC_0026344.JPG,135,false,ll,keypress(f),0,false,1101460.9000000358,1101460.800000012,1098902.251,1099013.199999988,1098918.871,1101369.08,4,500,24,
break,html.Screen,10_23_1,2023-11-15T18:48:55.186Z,,,,,,,,,,NaN,,,,,,,,low,low,,,,,,false,,,,false,1101461.199999988,1101461.1000000238,,1101461,,1101369.08,4,500,,
break_continue,html.Screen,10_23_2,2023-11-15T18:48:55.186Z,,,,,,,,,,NaN,,,,,,,,low,low,,,,,,false,,,,false,1101461.300000012,1101461.300000012,,1101461.300000012,,1101369.08,4,500,,
sequence,flow.Sequence,10_23,2023-11-15T18:48:55.186Z,,,,,,,,,,2542.429000011878,completion,,,,,,,low,low,,,,,,false,,,,false,1101461.4000000358,1101461.300000012,1098902.251,1099013.199999988,1098918.871,1101369.08,4,500,,
trial,html.Screen,10_24_0,2023-11-15T18:48:58.610Z,,,,1,0.0401045651353626,0.053461375824197,,true,lh,3516.0200000237674,response,-1.011737552725394,0.7239091359363916,-1.027763509670115,0.8500530224490773,0.7827995366191183,-0.9742612104171744,low,high,,ISIC_6483504.JPG,8,ISIC_2998367.JPG,41,false,lh,keypress(e),0,false,1104885.199999988,1104885.1000000238,1101352.351,1101461.5,1101369.08,1104802.416,4,500,25,
break,html.Screen,10_24_1,2023-11-15T18:48:58.610Z,,,,,,,,,,NaN,,,,,,,,low,high,,,,,,false,,,,false,1104885.4000000358,1104885.300000012,,1104885.300000012,,1104802.416,4,500,,
break_continue,html.Screen,10_24_2,2023-11-15T18:48:58.610Z,,,,,,,,,,NaN,,,,,,,,low,high,,,,,,false,,,,false,1104885.6000000238,1104885.5,,1104885.4000000358,,1104802.416,4,500,,
sequence,flow.Sequence,10_24,2023-11-15T18:48:58.610Z,,,,,,,,,,3516.4199999999255,completion,,,,,,,low,high,,,,,,false,,,,false,1104885.6000000238,1104885.5,1101352.351,1101461.5,1101369.08,1104802.416,4,500,,
trial,html.Screen,10_25_0,2023-11-15T18:49:01.314Z,,,,1,0.0389988030702649,0.0143212271490256,,true,hh,2786.2839999881107,response,0.6867208511502763,0.7239091359363916,-1.027763509670115,0.9657289110900686,0.7827995366191183,-0.9742612104171744,high,high,,ISIC_0064669.JPG,9,ISIC_0063447.JPG,259,false,hh,keypress(i),0,false,1107588.800000012,1107588.699999988,1104785.917,1104885.699999988,1104802.416,1107502.654,4,500,26,
break,html.Screen,10_25_1,2023-11-15T18:49:01.314Z,,,,,,,,,,NaN,,,,,,,,high,high,,,,,,false,,,,false,1107589.199999988,1107589.1000000238,,1107588.9000000358,,1107502.654,4,500,,
break_continue,html.Screen,10_25_2,2023-11-15T18:49:01.314Z,,,,,,,,,,NaN,,,,,,,,high,high,,,,,,false,,,,false,1107589.4000000358,1107589.300000012,,1107589.300000012,,1107502.654,4,500,,
sequence,flow.Sequence,10_25,2023-11-15T18:49:01.314Z,,,,,,,,,,2786.8840000119526,completion,,,,,,,high,high,,,,,,false,,,,false,1107589.4000000358,1107589.300000012,1104785.917,1104885.699999988,1104802.416,1107502.654,4,500,,
trial,html.Screen,10_26_0,2023-11-15T18:49:03.906Z,,,,1,0.0217698886732706,-0.0410870915161425,,true,hh,2677.946000023745,response,0.7667223565323059,0.7239091359363916,-1.027763509670115,0.7525280650246937,0.7827995366191183,-0.9742612104171744,high,high,,ISIC_0072173.JPG,8,ISIC_0031397.JPG,259,false,hh,keypress(i),0,false,1110180.800000012,1110180.6000000238,1107485.66,1107589.5,1107502.654,1110085.54,4,500,27,
break,html.Screen,10_26_1,2023-11-15T18:49:03.906Z,,,,,,,,,,NaN,,,,,,,,high,high,,,,,,false,,,,false,1110181.1000000238,1110181,,1110180.800000012,,1110085.54,4,500,,
break_continue,html.Screen,10_26_2,2023-11-15T18:49:03.906Z,,,,,,,,,,NaN,,,,,,,,high,high,,,,,,false,,,,false,1110181.300000012,1110181.199999988,,1110181.199999988,,1110085.54,4,500,,
sequence,flow.Sequence,10_26,2023-11-15T18:49:03.906Z,,,,,,,,,,2678.545999987982,completion,,,,,,,high,high,,,,,,false,,,,false,1110181.4000000358,1110181.199999988,1107485.66,1107589.4000000358,1107502.654,1110085.54,4,500,,
trial,html.Screen,10_27_0,2023-11-15T18:49:07.970Z,,,,1,-0.0277178575053843,0.0395587463147856,,false,lh,4159.3600000357255,response,-0.8701680819250541,0.7239091359363916,-1.027763509670115,0.701391706020652,0.7827995366191183,-0.9742612104171744,low,high,,ISIC_0010807.JPG,8,ISIC_5736979.JPG,41,false,ll,keypress(f),0,false,1114245,1114244.9000000358,1110068.791,1110181.4000000358,1110085.54,1114152.166,4,500,28,
break,html.Screen,10_27_1,2023-11-15T18:49:07.970Z,,,,,,,,,,NaN,,,,,,,,low,high,,,,,,false,,,,false,1114245.300000012,1114245.199999988,,1114245.1000000238,,1114152.166,4,500,,
break_continue,html.Screen,10_27_2,2023-11-15T18:49:07.970Z,,,,,,,,,,NaN,,,,,,,,low,high,,,,,,false,,,,false,1114245.5,1114245.4000000358,,1114245.300000012,,1114152.166,4,500,,
sequence,flow.Sequence,10_27,2023-11-15T18:49:07.970Z,,,,,,,,,,4159.8600000357255,completion,,,,,,,low,high,,,,,,false,,,,false,1114245.6000000238,1114245.4000000358,1110068.791,1110181.4000000358,1110085.54,1114152.166,4,500,,
trial,html.Screen,10_28_0,2023-11-15T18:49:11.729Z,,,,1,-0.0409338693593207,0.0072462710499874,,false,hl,3852.0339999881107,response,0.5492447498028207,0.7239091359363916,-1.027763509670115,-0.7745726760243283,0.7827995366191183,-0.9742612104171744,high,low,,ISIC_3608788.JPG,9,ISIC_0027088.JPG,43,false,ll,keypress(f),0,false,1118004.4000000358,1118004.199999988,1114135.868,1114245.6000000238,1114152.166,1117919.097,4,500,29,
break,html.Screen,10_28_1,2023-11-15T18:49:11.729Z,,,,,,,,,,NaN,,,,,,,,high,low,,,,,,false,,,,false,1118004.699999988,1118004.6000000238,,1118004.4000000358,,1117919.097,4,500,,
break_continue,html.Screen,10_28_2,2023-11-15T18:49:11.730Z,,,,,,,,,,NaN,,,,,,,,high,low,,,,,,false,,,,false,1118004.800000012,1118004.800000012,,1118004.800000012,,1117919.097,4,500,,
sequence,flow.Sequence,10_28,2023-11-15T18:49:11.730Z,,,,,,,,,,3852.6340000119526,completion,,,,,,,high,low,,,,,,false,,,,false,1118005,1118004.800000012,1114135.868,1114245.6000000238,1114152.166,1117919.097,4,500,,
trial,html.Screen,10_29_0,2023-11-15T18:49:14.081Z,,,,1,-0.059471106306043,0.0678292174694111,,false,lh,2437.203000011854,response,-1.1097716037944447,0.7239091359363916,-1.027763509670115,0.726994437314983,0.7827995366191183,-0.9742612104171744,low,high,,ISIC_0015631.JPG,8,ISIC_0000139.JPG,41,false,ll,keypress(f),0,false,1120356.4000000358,1120356.300000012,1117902.272,1118005,1117919.097,1120269.143,4,500,30,
break,html.Screen,10_29_1,2023-11-15T18:49:14.082Z,,,,,,,,,,NaN,,,,,,,,low,high,,,,,,false,,,,false,1120356.699999988,1120356.6000000238,,1120356.5,,1120269.143,4,500,,
break_continue,html.Screen,10_29_2,2023-11-15T18:49:14.082Z,,,,,,,,,,NaN,,,,,,,,low,high,,,,,,false,,,,false,1120356.9000000358,1120356.9000000358,,1120356.800000012,,1120269.143,4,500,,
sequence,flow.Sequence,10_29,2023-11-15T18:49:14.082Z,,,,,,,,,,2437.8030000356957,completion,,,,,,,low,high,,,,,,false,,,,false,1120357,1120356.9000000358,1117902.272,1118005,1117919.097,1120269.143,4,500,,
trial,html.Screen,10_30_0,2023-11-15T18:49:18.689Z,,,,1,0.0608867680161491,0.0206384042070211,,false,hl,4694.857000000076,response,0.8816288864119318,0.7239091359363916,-1.027763509670115,-0.801867301188093,0.7827995366191183,-0.9742612104171744,high,low,,ISIC_0640806.JPG,8,ISIC_9196783.JPG,43,false,hh,keypress(i),0,false,1124964.199999988,1124964,1120252.162,1120357,1120269.143,1124868.833,4,500,31,
break,html.Screen,10_30_1,2023-11-15T18:49:18.689Z,,,,,,,,,,NaN,,,,,,,,high,low,,,,,,false,,,,false,1124964.4000000358,1124964.4000000358,,1124964.300000012,,1124868.833,4,500,,
break_continue,html.Screen,10_30_2,2023-11-15T18:49:18.689Z,,,,,,,,,,NaN,,,,,,,,high,low,,,,,,false,,,,false,1124964.699999988,1124964.6000000238,,1124964.6000000238,,1124868.833,4,500,,
sequence,flow.Sequence,10_30,2023-11-15T18:49:18.690Z,,,,,,,,,,4695.457000023918,completion,,,,,,,high,low,,,,,,false,,,,false,1124964.800000012,1124964.6000000238,1120252.162,1120357,1120269.143,1124868.833,4,500,,
trial,html.Screen,10_31_0,2023-11-15T18:49:26.466Z,,,,1,0.007397293189458,0.0174716772037504,,false,lh,7871.96700001182,response,-1.0463961939234825,0.7239091359363916,-1.027763509670115,0.6271792384365534,0.7827995366191183,-0.9742612104171744,low,high,,ISIC_0056226.JPG,9,ISIC_5501183.JPG,41,false,hh,keypress(i),0,false,1132741,1132740.800000012,1124852.604,1124964.800000012,1124868.833,1132652.25,4,500,32,
break,html.Screen,10_31_1,2023-11-15T18:49:26.466Z,,,,,,,,,,NaN,,,,,,,,low,high,,,,,,false,,,,false,1132741.300000012,1132741.1000000238,,1132741.1000000238,,1132652.25,4,500,,
break_continue,html.Screen,10_31_2,2023-11-15T18:49:26.466Z,,,,,,,,,,NaN,,,,,,,,low,high,,,,,,false,,,,false,1132741.5,1132741.4000000358,,1132741.300000012,,1132652.25,4,500,,
sequence,flow.Sequence,10_31,2023-11-15T18:49:26.466Z,,,,,,,,,,7872.567000035662,completion,,,,,,,low,high,,,,,,false,,,,false,1132741.5,1132741.4000000358,1124852.604,1124964.800000012,1124868.833,1132652.25,4,500,,
trial,html.Screen,10_32_0,2023-11-15T18:49:36.241Z,,,,1,-0.0533723079251252,-0.0299718727255261,,true,lh,9864.150000035763,response,-0.858338058340649,0.7239091359363916,-1.027763509670115,0.9540612223480284,0.7827995366191183,-0.9742612104171744,low,high,,ISIC_6562871.JPG,8,ISIC_8922893.JPG,41,false,lh,keypress(e),0,false,1142516.5,1142516.4000000358,1132635.868,1132741.5,1132652.25,1142435.97,4,500,33,
break,html.Screen,10_32_1,2023-11-15T18:49:36.241Z,,,,,,,,,,NaN,,,,,,,,low,high,,,,,,false,,,,false,1142516.800000012,1142516.699999988,,1142516.6000000238,,1142435.97,4,500,,
break_continue,html.Screen,10_32_2,2023-11-15T18:49:36.242Z,,,,,,,,,,NaN,,,,,,,,low,high,,,,,,false,,,,false,1142517,1142517,,1142516.800000012,,1142435.97,4,500,,
sequence,flow.Sequence,10_32,2023-11-15T18:49:36.242Z,,,,,,,,,,9864.75,completion,,,,,,,low,high,,,,,,false,,,,false,1142517,1142517,1132635.868,1132741.5,1132652.25,1142435.97,4,500,,
trial,html.Screen,10_33_0,2023-11-15T18:49:41.009Z,,,,1,0.0456515796420274,-0.0273567130070961,,true,hh,4848.430000035791,response,0.8033384447110221,0.7239091359363916,-1.027763509670115,0.712923171281094,0.7827995366191183,-0.9742612104171744,high,high,,ISIC_0068610.JPG,9,ISIC_0033238.JPG,259,false,hh,keypress(i),0,false,1147284.5,1147284.4000000358,1142418.845,1142517.1000000238,1142435.97,1147202.445,4,500,34,
break,html.Screen,10_33_1,2023-11-15T18:49:41.009Z,,,,,,,,,,NaN,,,,,,,,high,high,,,,,,false,,,,false,1147284.699999988,1147284.699999988,,1147284.6000000238,,1147202.445,4,500,,
break_continue,html.Screen,10_33_2,2023-11-15T18:49:41.010Z,,,,,,,,,,NaN,,,,,,,,high,high,,,,,,false,,,,false,1147285,1147284.9000000358,,1147284.9000000358,,1147202.445,4,500,,
sequence,flow.Sequence,10_33,2023-11-15T18:49:41.010Z,,,,,,,,,,4848.930000035791,completion,,,,,,,high,high,,,,,,false,,,,false,1147285.1000000238,1147284.9000000358,1142418.845,1142517.1000000238,1142435.97,1147202.445,4,500,,
trial,html.Screen,10_34_0,2023-11-15T18:49:43.986Z,,,,1,-0.0113873532168551,-0.0054999201556291,,true,hh,3058.4550000356976,response,0.6867208511502763,0.7239091359363916,-1.027763509670115,0.9657289110900686,0.7827995366191183,-0.9742612104171744,high,high,,ISIC_8812621.JPG,9,ISIC_0063447.JPG,259,false,hh,keypress(i),0,false,1150260.9000000358,1150260.9000000358,1147185.797,1147285.1000000238,1147202.445,1150169.014,4,500,35,
break,html.Screen,10_34_1,2023-11-15T18:49:43.986Z,,,,,,,,,,NaN,,,,,,,,high,high,,,,,,false,,,,false,1150261.199999988,1150261.199999988,,1150261.1000000238,,1150169.014,4,500,,
break_continue,html.Screen,10_34_2,2023-11-15T18:49:43.986Z,,,,,,,,,,NaN,,,,,,,,high,high,,,,,,false,,,,false,1150261.5,1150261.5,,1150261.300000012,,1150169.014,4,500,,
sequence,flow.Sequence,10_34,2023-11-15T18:49:43.986Z,,,,,,,,,,3059.054999999935,completion,,,,,,,high,high,,,,,,false,,,,false,1150261.5,1150261.5,1147185.797,1147285.1000000238,1147202.445,1150169.014,4,500,,
trial,html.Screen,10_35_0,2023-11-15T18:49:50.928Z,,,,1,0.0111354529246037,-0.0585810480909377,,true,lh,7034.386000035796,response,-0.8809306963311293,0.7239091359363916,-1.027763509670115,0.8614910030038974,0.7827995366191183,-0.9742612104171744,low,high,,ISIC_7858034.JPG,8,ISIC_0013731.JPG,41,false,lh,keypress(e),0,false,1157203.4000000358,1157203.4000000358,1150152.565,1150261.6000000238,1150169.014,1157135.476,4,500,36,
break,html.Screen,10_35_1,2023-11-15T18:49:50.928Z,,,,,,,,,,NaN,,,,,,,,low,high,,,,,,false,,,,false,1157203.800000012,1157203.800000012,,1157203.6000000238,,1157135.476,4,500,,
break_continue,html.Screen,10_35_2,2023-11-15T18:49:50.929Z,,,,,,,,,,NaN,,,,,,,,low,high,,,,,,false,,,,false,1157204,1157203.9000000358,,1157203.9000000358,,1157135.476,4,500,,
sequence,flow.Sequence,10_35,2023-11-15T18:49:50.929Z,,,,,,,,,,7034.886000035796,completion,,,,,,,low,high,,,,,,false,,,,false,1157204.1000000238,1157203.9000000358,1150152.565,1150261.6000000238,1150169.014,1157135.476,4,500,,
trial,html.Screen,10_36_0,2023-11-15T18:49:56.209Z,,,,1,0.0450282431170921,,,false,hh,5349.324000011897,response,0.6414565107493193,0.7239091359363916,-1.027763509670115,0.7473386199328566,0.7827995366191183,-0.9742612104171744,high,high,,ISIC_1805163.JPG,9,ISIC_7809510.JPG,259,false,hl,keypress(j),0,false,1162484.9000000358,1162484.800000012,1157118.811,1157204.1000000238,1157135.476,1162402.621,4,500,37,
break,html.Screen,10_36_1,2023-11-15T18:49:56.210Z,,,,,,,,,,NaN,,,,,,,,high,high,,,,,,false,,,,false,1162485.199999988,1162485.1000000238,,1162484.9000000358,,1162402.621,4,500,,
break_continue,html.Screen,10_36_2,2023-11-15T18:49:56.210Z,,,,,,,,,,NaN,,,,,,,,high,high,,,,,,false,,,,false,1162485.300000012,1162485.300000012,,1162485.199999988,,1162402.621,4,500,,
sequence,flow.Sequence,10_36,2023-11-15T18:49:56.210Z,,,,,,,,,,5349.824000011897,completion,,,,,,,high,high,,,,,,false,,,,false,1162485.4000000358,1162485.300000012,1157118.811,1157204.1000000238,1157135.476,1162402.621,4,500,,
trial,html.Screen,10_37_0,2023-11-15T18:50:01.841Z,,,,1,0.0217698886732706,-0.0410870915161425,,true,hh,5714.078999988036,response,0.781123788799864,0.7239091359363916,-1.027763509670115,0.6497314485459311,0.7827995366191183,-0.9742612104171744,high,high,,ISIC_0072173.JPG,9,ISIC_0027694.JPG,259,false,hh,keypress(i),0,false,1168116.9000000358,1168116.699999988,1162385.594,1162485.5,1162402.621,1168035.972,4,500,38,
