sender,sender_type,sender_id,timestamp,meta,,age,blockNo,c1,c2,condition,correct,correctResponse,duration,ended_on,f1,f1_high,f1_low,f2,f2_high,f2_low,feature_level1,feature_level2,gender,img_left,img_reveal,img_right,n_target_images,practice,response,response_action,selection_duration,staircase,time_commit,time_end,time_render,time_run,time_show,time_switch,total_blocks,total_trials,trialNo,url
informed_consent,html.Screen,0,2023-11-15T19:38:53.271Z,"{""labjs_version"":""20.2.4"",""labjs_build"":{""flavor"":""development"",""commit"":""f5b4a49f956347addd546a832a3327688c2c0fef""},""location"":""https://labjs.felixhenninger.com/api/labjs_preview/index.html"",""userAgent"":""Mozilla/5.0 (Windows NT 10.0; Win64; x64) AppleWebKit/537.36 (KHTML, like Gecko) Chrome/119.0.0.0 Safari/537.36"",""platform"":""Win32"",""language"":""en-US"",""locale"":""en-US"",""timeZone"":""America/Chicago"",""timezoneOffset"":360,""screen_width"":1920,""screen_height"":1080,""scroll_width"":945,""scroll_height"":918,""window_innerWidth"":945,""window_innerHeight"":966,""devicePixelRatio"":1}",,,,,,,,,29973.71800000596,response,,,,,,,,,,,,,,,consent,click button,,,30656.20000000298,30647.40000000596,657.057,645.5999999940395,673.682,30657.091,,,,{}
Demography form,html.Form,1,2023-11-15T19:39:00.551Z,,,18,,,,,,,7279.008999994039,form submission,,,,,,,,,female,,,,,,,,,,37936.29999999702,37936.09999999404,30640.63,30656.5,30657.091,37940.41,,,,
Welcome,html.Screen,2,2023-11-15T19:39:24.703Z,,,,,,,"[""bor"",""col""]",,,24147.189999994036,response,,,,,,,,,,,,,,,continue,click button,,,62088.09999999404,62087.59999999404,37923.834,37936.40000000596,37940.41,62090.46,,,,
demo_instructions,html.Screen,3,2023-11-15T19:39:46.143Z,,,,,,,,,,21437.04,response,,,,,,,,,,,,,,,continue,click button,,,83528,83527.5,62074.024,62088.29999999702,62090.46,83540.466,,,,
trial,html.Screen,4_0_0,2023-11-15T19:39:54.803Z,,,,0,0.7468466922606799,-0.7486692996330936,,true,lh,8647.43400000596,response,-0.9653573371180936,0.8999999999999997,-0.8999999999999997,0.854766800381037,0.8999999999999997,-0.8999999999999997,low,high,,ISIC_0025508.JPG,,ISIC_9640145.JPG,29,true,lh,keypress(e),100,false,92188.09999999404,92187.90000000596,83524.049,83528.20000000298,83540.466,92207.212,1,16,1,
sequence,flow.Sequence,4_0,2023-11-15T19:39:54.815Z,,,,,,,,,,8647.43400000596,completion,,,,,,,low,high,,,,,,true,,,,false,92200.09999999404,92187.90000000596,83524.049,83528.20000000298,83540.466,92207.212,1,16,,
trial,html.Screen,4_1_0,2023-11-15T19:40:04.436Z,,,,0,0.7872534775441857,-0.8441107693833454,,true,lh,9613.38799999404,response,-0.7882758084023446,0.8999999999999997,-0.8999999999999997,0.8296405881378283,0.8999999999999997,-0.8999999999999997,low,high,,ISIC_0028788.JPG,,ISIC_0065882.JPG,29,true,lh,keypress(e),100,false,101820.90000000596,101820.59999999404,92190.538,92200.29999999702,92207.212,101840.742,1,16,2,
sequence,flow.Sequence,4_1,2023-11-15T19:40:04.436Z,,,,,,,,,,9613.38799999404,completion,,,,,,,low,high,,,,,,true,,,,false,101821.29999999702,101820.59999999404,92190.538,92200.29999999702,92207.212,101840.742,1,16,,
trial,html.Screen,4_2_0,2023-11-15T19:40:19.434Z,,,,0,1.0153439398566937,-0.93001438372942,,true,lh,14977.958000002982,response,-0.8830264383952469,0.8999999999999997,-0.8999999999999997,0.8635562538060516,0.8999999999999997,-0.8999999999999997,low,high,,ISIC_8211214.JPG,,ISIC_0032258.JPG,29,true,lh,keypress(e),100,false,116819,116818.70000000298,101823.861,101821.5,101840.742,116840.518,1,16,3,
sequence,flow.Sequence,4_2,2023-11-15T19:40:19.434Z,,,,,,,,,,14977.958000002982,completion,,,,,,,low,high,,,,,,true,,,,false,116819.09999999404,116818.70000000298,101823.861,101821.40000000596,101840.742,116840.518,1,16,,
trial,html.Screen,4_3_0,2023-11-15T19:40:24.302Z,,,,0,0.8987343013179191,-0.8149073454566363,,true,lh,4846.281999997023,response,-0.9653573371180936,0.8999999999999997,-0.8999999999999997,0.854766800381037,0.8999999999999997,-0.8999999999999997,low,high,,ISIC_0472513.JPG,,ISIC_9640145.JPG,29,true,lh,keypress(e),100,false,121687,121686.79999999702,116824.054,116819.29999999702,116840.518,121707.222,1,16,4,
sequence,flow.Sequence,4_3,2023-11-15T19:40:24.302Z,,,,,,,,,,4846.281999997023,completion,,,,,,,low,high,,,,,,true,,,,false,121687.29999999702,121686.79999999702,116824.054,116819.20000000298,116840.518,121707.222,1,16,,
trial,html.Screen,4_4_0,2023-11-15T19:40:48.643Z,,,,0,0.8179322126045343,0.9445915945560848,,true,ll,24320.778000000006,response,-0.7056033055793339,0.8999999999999997,-0.8999999999999997,-0.9454619685729876,0.8999999999999997,-0.8999999999999997,low,low,,ISIC_0056364.JPG,,ISIC_1410408.JPG,169,true,ll,keypress(f),100,false,146028.09999999404,146028,121690.566,121687.29999999702,121707.222,146057.209,1,16,5,
sequence,flow.Sequence,4_4,2023-11-15T19:40:48.643Z,,,,,,,,,,24320.778000000006,completion,,,,,,,low,low,,,,,,true,,,,false,146028.29999999702,146028,121690.566,121687.29999999702,121707.222,146057.209,1,16,,
trial,html.Screen,4_5_0,2023-11-15T19:41:10.039Z,,,,0,0.9575090175925351,1.0307816252475666,,true,ll,21366.590999997017,response,-0.8614312505426347,0.8999999999999997,-0.8999999999999997,-1.0055649935805588,0.8999999999999997,-0.8999999999999997,low,low,,ISIC_1369273.JPG,,ISIC_6946260.JPG,169,true,ll,keypress(f),100,false,167424,167423.79999999702,146040.562,146028.40000000596,146057.209,167440.797,1,16,6,
sequence,flow.Sequence,4_5,2023-11-15T19:41:10.039Z,,,,,,,,,,21366.590999997017,completion,,,,,,,low,low,,,,,,true,,,,false,167424.20000000298,167423.79999999702,146040.562,146028.40000000596,146057.209,167440.797,1,16,,
trial,html.Screen,4_6_0,2023-11-15T19:41:13.163Z,,,,0,0.8679614460736003,0.9273061036826674,,true,ll,3108.0029999970284,response,-1.000073518730644,0.8999999999999997,-0.8999999999999997,-0.7557291255005921,0.8999999999999997,-0.8999999999999997,low,low,,ISIC_9955163.JPG,,ISIC_0028462.JPG,169,true,ll,keypress(f),100,false,170548.79999999702,170548.79999999702,167423.986,167424.29999999702,167440.797,170574.076,1,16,7,
sequence,flow.Sequence,4_6,2023-11-15T19:41:13.164Z,,,,,,,,,,3108.0029999970284,completion,,,,,,,low,low,,,,,,true,,,,false,170549.09999999404,170548.79999999702,167423.986,167424.29999999702,167440.797,170574.076,1,16,,
trial,html.Screen,4_7_0,2023-11-15T19:41:18.864Z,,,,0,1.0349570401423522,1.0363323665817852,,true,ll,5675.023999994039,response,-0.7918012854539199,0.8999999999999997,-0.8999999999999997,-1.0631481857644678,0.8999999999999997,-0.8999999999999997,low,low,,ISIC_0030107.JPG,,ISIC_0033137.JPG,169,true,ll,keypress(f),100,false,176249.20000000298,176249.09999999404,170557.435,170549.20000000298,170574.076,176273.925,1,16,8,
sequence,flow.Sequence,4_7,2023-11-15T19:41:18.864Z,,,,,,,,,,5675.023999994039,completion,,,,,,,low,low,,,,,,true,,,,false,176249.5,176249.09999999404,170557.435,170549.09999999404,170574.076,176273.925,1,16,,
trial,html.Screen,4_8_0,2023-11-15T19:41:32.998Z,,,,0,-0.7246771568562105,0.9161385080362604,,true,hl,14108.475000005972,response,0.7079689798840642,0.8999999999999997,-0.8999999999999997,-0.9053957126199562,0.8999999999999997,-0.8999999999999997,high,low,,ISIC_0028225.JPG,,ISIC_0058863.JPG,43,true,hl,keypress(j),100,false,190382.59999999404,190382.40000000596,176257.485,176249.5,176273.925,190407.368,1,16,9,
sequence,flow.Sequence,4_8,2023-11-15T19:41:32.998Z,,,,,,,,,,14108.475000005972,completion,,,,,,,high,low,,,,,,true,,,,false,190382.79999999702,190382.40000000596,176257.485,176249.5,176273.925,190407.368,1,16,,
trial,html.Screen,4_9_0,2023-11-15T19:41:41.610Z,,,,0,-0.930804711032185,0.7294067991476295,,true,hl,8587.431999997032,response,0.7629099401226335,0.8999999999999997,-0.8999999999999997,-0.8515956627075536,0.8999999999999997,-0.8999999999999997,high,low,,ISIC_5067317.JPG,,ISIC_0028718.JPG,43,true,hl,keypress(j),100,false,198994.90000000596,198994.79999999702,190390.626,190382.90000000596,190407.368,199024.008,1,16,10,
sequence,flow.Sequence,4_9,2023-11-15T19:41:41.611Z,,,,,,,,,,8587.431999997032,completion,,,,,,,high,low,,,,,,true,,,,false,198995.20000000298,198994.79999999702,190390.626,190382.90000000596,190407.368,199024.008,1,16,,
trial,html.Screen,4_10_0,2023-11-15T19:41:46.142Z,,,,0,-1.075512775389519,1.0454702683049502,,true,hl,4502.491999999998,response,0.9138670886161264,0.8999999999999997,-0.8999999999999997,-0.8414121478342018,0.8999999999999997,-0.8999999999999997,high,low,,ISIC_0033603.JPG,,ISIC_6709052.JPG,43,true,hl,keypress(j),100,false,203526.59999999404,203526.5,199007.321,198995.20000000298,199024.008,203557.354,1,16,11,
sequence,flow.Sequence,4_10,2023-11-15T19:41:46.142Z,,,,,,,,,,4502.491999999998,completion,,,,,,,high,low,,,,,,true,,,,false,203526.70000000298,203526.5,199007.321,198995.20000000298,199024.008,203557.354,1,16,,
trial,html.Screen,4_11_0,2023-11-15T19:41:49.778Z,,,,0,-0.8472024037189965,0.986370061404882,,true,hl,3605.2459999940475,response,0.7016609136175869,0.8999999999999997,-0.8999999999999997,-0.8694041951927121,0.8999999999999997,-0.8999999999999997,high,low,,ISIC_0054355.JPG,,ISIC_0897876.JPG,43,true,hl,keypress(j),100,false,207162.79999999702,207162.59999999404,203540.886,203526.70000000298,203557.354,207190.63,1,16,12,
sequence,flow.Sequence,4_11,2023-11-15T19:41:49.778Z,,,,,,,,,,3605.2459999940475,completion,,,,,,,high,low,,,,,,true,,,,false,207162.90000000596,207162.59999999404,203540.886,203526.70000000298,203557.354,207190.63,1,16,,
trial,html.Screen,4_12_0,2023-11-15T19:41:58.215Z,,,,0,-0.8666323445825409,-0.9101747326852082,,true,hh,8408.570000002976,response,0.9914647862586572,0.8999999999999997,-0.8999999999999997,0.8837963869804757,0.8999999999999997,-0.8999999999999997,high,high,,ISIC_9155028.JPG,,ISIC_0068895.JPG,184,true,hh,keypress(i),100,false,215599.5,215599.20000000298,207174.009,207162.90000000596,207190.63,215623.998,1,16,13,
sequence,flow.Sequence,4_12,2023-11-15T19:41:58.215Z,,,,,,,,,,8408.570000002976,completion,,,,,,,high,high,,,,,,true,,,,false,215599.79999999702,215599.20000000298,207174.009,207162.90000000596,207190.63,215623.998,1,16,,
trial,html.Screen,4_13_0,2023-11-15T19:42:04.653Z,,,,0,-0.8153135636447707,-0.9269022323245946,,true,hh,6413.902000005968,response,1.0804044917288194,0.8999999999999997,-0.8999999999999997,0.7737732725477637,0.8999999999999997,-0.8999999999999997,high,high,,ISIC_5239607.JPG,,ISIC_0011691.JPG,184,true,hh,keypress(i),100,false,222038.09999999404,222037.90000000596,215607.327,215599.90000000596,215623.998,222057.597,1,16,14,
sequence,flow.Sequence,4_13,2023-11-15T19:42:04.654Z,,,,,,,,,,6413.902000005968,completion,,,,,,,high,high,,,,,,true,,,,false,222038.40000000596,222037.90000000596,215607.327,215599.90000000596,215623.998,222057.597,1,16,,
trial,html.Screen,4_14_0,2023-11-15T19:42:08.627Z,,,,0,-1.0979463718010185,-0.7365909200455387,,true,hh,3954.3030000059516,response,1.0679712388489528,0.8999999999999997,-0.8999999999999997,1.0509600192807842,0.8999999999999997,-0.8999999999999997,high,high,,ISIC_3909443.JPG,,ISIC_0015180.JPG,184,true,hh,keypress(i),100,false,226012.09999999404,226011.90000000596,222040.688,222038.59999999404,222057.597,226040.727,1,16,15,
sequence,flow.Sequence,4_14,2023-11-15T19:42:08.628Z,,,,,,,,,,3954.3030000059516,completion,,,,,,,high,high,,,,,,true,,,,false,226012.40000000596,226011.90000000596,222040.688,222038.5,222057.597,226040.727,1,16,,
trial,html.Screen,4_15_0,2023-11-15T19:42:48.699Z,,,,0,-1.050296713894645,-0.7298062539603102,,true,hh,40042.77299999999,response,0.9715963767506804,0.8999999999999997,-0.8999999999999997,0.9202593988538142,0.8999999999999997,-0.8999999999999997,high,high,,ISIC_5409902.JPG,,ISIC_0034059.JPG,184,true,hh,keypress(i),100,false,266083.700000003,266083.5,226024.254,226012.59999999404,226040.727,266107.412,1,16,16,
sequence,flow.Sequence,4_15,2023-11-15T19:42:48.699Z,,,,,,,,,,40042.77299999999,completion,,,,,,,high,high,,,,,,true,,,,false,266083.90000000596,266083.5,226024.254,226012.59999999404,226040.727,266107.412,1,16,,
demonstration_loop,flow.Loop,4,2023-11-15T19:42:48.699Z,,,,,,,,,,182543.03399999999,completion,,,,,,,,,,,,,,true,,,,false,266084.09999999404,266083.5,83524.049,83528.20000000298,83540.466,266107.412,1,16,,
practice_instructions,html.Screen,5,2023-11-15T19:44:56.024Z,,,,,,,,,,127292.08799999999,response,,,,,,,,,,,,,,,continue,click button,,,393408.09999999404,393399.5,266090.768,266084.09999999404,266107.412,393407.568,,,,
trial,html.Screen,6_0_0,2023-11-15T19:45:07.014Z,,,,1,-1.00975234958099,-0.958677033057289,,,,11016.651999999944,timeout,0.748653735375434,0.8999999999999997,-0.8999999999999997,0.7576628337091327,0.8999999999999997,-0.8999999999999997,high,high,,ISIC_0976232.JPG,,ISIC_0069558.JPG,184,true,,,0,false,404398.700000003,404398.40000000596,393391.057,393408.299999997,393407.568,404424.22,1,40,1,
sequence,flow.Sequence,6_0,2023-11-15T19:45:07.015Z,,,,,,,,,,10990.832000005932,completion,,,,,,,high,high,,,,,,true,,,,false,404399.09999999404,404398.40000000596,393391.057,393408.200000003,393407.568,404424.22,1,40,,
trial,html.Screen,6_1_0,2023-11-15T19:45:12.179Z,,,,1,0.9617893983965208,-0.9453006131304652,,false,lh,5139.180000005988,response,-0.7991459998473059,0.8999999999999997,-0.8999999999999997,1.0280788723474688,0.8999999999999997,-0.8999999999999997,low,high,,ISIC_4229473.JPG,,ISIC_7951202.JPG,29,true,hh,keypress(i),0,false,409563.5,409563.40000000596,404407.6,404399.299999997,404424.22,409591.105,1,40,2,
sequence,flow.Sequence,6_1,2023-11-15T19:45:12.179Z,,,,,,,,,,5139.180000005988,completion,,,,,,,low,high,,,,,,true,,,,false,409563.700000003,409563.40000000596,404407.6,404399.200000003,404424.22,409591.105,1,40,,
trial,html.Screen,6_2_0,2023-11-15T19:45:20.176Z,,,,1,-0.9786113496628154,-1.040122402473425,,true,hh,7969.194999997038,response,0.871661188387271,0.8999999999999997,-0.8999999999999997,0.9067170027344016,0.8999999999999997,-0.8999999999999997,high,high,,ISIC_8195528.JPG,,ISIC_0026586.JPG,184,true,hh,keypress(i),0,false,417560.40000000596,417560.299999997,409574.379,409563.700000003,409591.105,417574.226,1,40,3,
sequence,flow.Sequence,6_2,2023-11-15T19:45:20.176Z,,,,,,,,,,7969.194999997038,completion,,,,,,,high,high,,,,,,true,,,,false,417560.799999997,417560.299999997,409574.379,409563.700000003,409591.105,417574.226,1,40,,
trial,html.Screen,6_3_0,2023-11-15T19:45:27.264Z,,,,1,-0.84290786638064,0.7332521189371746,,false,hl,7073.773999999976,response,0.7688509750532941,0.8999999999999997,-0.8999999999999997,-0.7699842387811451,0.8999999999999997,-0.8999999999999997,high,low,,ISIC_4708642.JPG,,ISIC_0014527.JPG,43,true,ll,keypress(f),0,false,424648.09999999404,424648,417557.375,417560.799999997,417574.226,424657.617,1,40,4,
sequence,flow.Sequence,6_3,2023-11-15T19:45:27.264Z,,,,,,,,,,7073.773999999976,completion,,,,,,,high,low,,,,,,true,,,,false,424648.299999997,424648,417557.375,417560.799999997,417574.226,424657.617,1,40,,
trial,html.Screen,6_4_0,2023-11-15T19:45:35.104Z,,,,1,-0.7109511223219827,-0.9096646508167132,,true,hh,7830.482999994012,response,0.7200546926039536,0.8999999999999997,-0.8999999999999997,0.7206544552694351,0.8999999999999997,-0.8999999999999997,high,high,,ISIC_3770380.JPG,,ISIC_7334117.JPG,184,true,hh,keypress(i),0,false,432488.200000003,432488.09999999404,424640.759,424648.40000000596,424657.617,432490.947,1,40,5,
sequence,flow.Sequence,6_4,2023-11-15T19:45:35.104Z,,,,,,,,,,7830.482999994012,completion,,,,,,,high,high,,,,,,true,,,,false,432488.299999997,432488.09999999404,424640.759,424648.40000000596,424657.617,432490.947,1,40,,
trial,html.Screen,6_5_0,2023-11-15T19:45:39.656Z,,,,1,-0.8472024037189965,0.986370061404882,,false,hl,4549.253000002995,response,0.9662688541319592,0.8999999999999997,-0.8999999999999997,-0.929746784178986,0.8999999999999997,-0.8999999999999997,high,low,,ISIC_0054355.JPG,,ISIC_0011077.JPG,43,true,hh,keypress(i),0,false,437040.40000000596,437040.200000003,432474.132,432488.40000000596,432490.947,437057.804,1,40,6,
sequence,flow.Sequence,6_5,2023-11-15T19:45:39.657Z,,,,,,,,,,4549.253000002995,completion,,,,,,,high,low,,,,,,true,,,,false,437040.700000003,437040.200000003,432474.132,432488.40000000596,432490.947,437057.804,1,40,,
trial,html.Screen,6_6_0,2023-11-15T19:45:45.905Z,,,,1,0.8067627078956657,-0.7115865750196155,,true,lh,6230.8960000029765,response,-1.0329549150636406,0.8999999999999997,-0.8999999999999997,1.01584100839286,0.8999999999999997,-0.8999999999999997,low,high,,ISIC_0010014.JPG,,ISIC_0054670.JPG,29,true,lh,keypress(e),0,false,443289,443288.700000003,437040.821,437040.799999997,437057.804,443290.998,1,40,7,
sequence,flow.Sequence,6_6,2023-11-15T19:45:45.905Z,,,,,,,,,,6230.8960000029765,completion,,,,,,,low,high,,,,,,true,,,,false,443289.299999997,443288.700000003,437040.821,437040.700000003,437057.804,443290.998,1,40,,
trial,html.Screen,6_7_0,2023-11-15T19:45:56.891Z,,,,1,-0.989300717252516,0.7908280206937478,,,,11016.725999999966,timeout,0.9138670886161264,0.8999999999999997,-0.8999999999999997,-0.8414121478342018,0.8999999999999997,-0.8999999999999997,high,low,,ISIC_6416533.JPG,,ISIC_6709052.JPG,43,true,,,0,false,454275.200000003,454274.90000000596,443274.074,443289.40000000596,443290.998,454307.724,1,40,8,
sequence,flow.Sequence,6_7,2023-11-15T19:45:56.892Z,,,,,,,,,,10983.902000005939,completion,,,,,,,high,low,,,,,,true,,,,false,454275.59999999404,454274.90000000596,443274.074,443289.40000000596,443290.998,454307.724,1,40,,
trial,html.Screen,6_8_0,2023-11-15T19:46:03.945Z,,,,1,0.7197447395657519,0.7733754114250216,,false,ll,7021.276000000013,response,-0.9833548049624848,0.8999999999999997,-0.8999999999999997,-0.9129629471000654,0.8999999999999997,-0.8999999999999997,low,low,,ISIC_0011529.JPG,,ISIC_0000848.JPG,169,true,lh,keypress(e),0,false,461329.299999997,461329,454291.042,454275.700000003,454307.724,461341.046,1,40,9,
sequence,flow.Sequence,6_8,2023-11-15T19:46:03.946Z,,,,,,,,,,7021.276000000013,completion,,,,,,,low,low,,,,,,true,,,,false,461329.59999999404,461329,454291.042,454275.700000003,454307.724,461341.046,1,40,,
trial,html.Screen,6_9_0,2023-11-15T19:46:08.224Z,,,,1,0.9244148283103414,-0.9712966348713286,,true,lh,4267.0539999940665,response,-0.8513427412482127,0.8999999999999997,-0.8999999999999997,0.9295303568095064,0.8999999999999997,-0.8999999999999997,low,high,,ISIC_7927525.JPG,,ISIC_0034164.JPG,29,true,lh,keypress(e),0,false,465608.200000003,465608.09999999404,461324.198,461329.799999997,461341.046,465624.602,1,40,10,
sequence,flow.Sequence,6_9,2023-11-15T19:46:08.224Z,,,,,,,,,,4267.0539999940665,completion,,,,,,,low,high,,,,,,true,,,,false,465608.299999997,465608.09999999404,461324.198,461329.799999997,461341.046,465624.602,1,40,,
trial,html.Screen,6_10_0,2023-11-15T19:46:14.264Z,,,,1,0.7878258396152632,0.8828399683080101,,false,ll,6023.3979999999865,response,-1.0002918079433898,0.8999999999999997,-0.8999999999999997,-0.7125870798722836,0.8999999999999997,-0.8999999999999997,low,low,,ISIC_0053541.JPG,,ISIC_0678758.JPG,169,true,hh,keypress(i),0,false,471648,471648,465607.684,465608.40000000596,465624.602,471657.669,1,40,11,
sequence,flow.Sequence,6_10,2023-11-15T19:46:14.264Z,,,,,,,,,,6023.3979999999865,completion,,,,,,,low,low,,,,,,true,,,,false,471648.09999999404,471648,465607.684,465608.40000000596,465624.602,471657.669,1,40,,
trial,html.Screen,6_11_0,2023-11-15T19:46:22.864Z,,,,1,0.8165346395107898,-0.7657798385266591,,false,lh,8590.531000002986,response,-0.7883321712536753,0.8999999999999997,-0.8999999999999997,1.0011430756825364,0.8999999999999997,-0.8999999999999997,low,high,,ISIC_2283628.JPG,,ISIC_9828853.JPG,29,true,ll,keypress(f),0,false,480248.299999997,480248.200000003,471641.049,471648.200000003,471657.669,480257.664,1,40,12,
sequence,flow.Sequence,6_11,2023-11-15T19:46:22.864Z,,,,,,,,,,8590.531000002986,completion,,,,,,,low,high,,,,,,true,,,,false,480248.40000000596,480248.200000003,471641.049,471648.09999999404,471657.669,480257.664,1,40,,
trial,html.Screen,6_12_0,2023-11-15T19:46:31.217Z,,,,1,0.7612472458680769,-0.729960233427452,,false,lh,8343.43599999405,response,-0.7308116448711435,0.8999999999999997,-0.8999999999999997,0.908713834988551,0.8999999999999997,-0.8999999999999997,low,high,,ISIC_5307210.JPG,,ISIC_7811951.JPG,29,true,hh,keypress(i),0,false,488601.299999997,488601.09999999404,480240.846,480248.5,480257.664,488607.748,1,40,13,
sequence,flow.Sequence,6_12,2023-11-15T19:46:31.218Z,,,,,,,,,,8343.43599999405,completion,,,,,,,low,high,,,,,,true,,,,false,488601.700000003,488601.09999999404,480240.846,480248.5,480257.664,488607.748,1,40,,
trial,html.Screen,6_13_0,2023-11-15T19:46:37.736Z,,,,1,0.8067627078956657,-0.7115865750196155,,true,lh,6512.051999996998,response,-0.8075741539776473,0.8999999999999997,-0.8999999999999997,0.7326891894107508,0.8999999999999997,-0.8999999999999997,low,high,,ISIC_0010014.JPG,,ISIC_3428523.JPG,29,true,lh,keypress(e),0,false,495119.799999997,495119.799999997,488590.727,488601.799999997,488607.748,495124.335,1,40,14,
sequence,flow.Sequence,6_13,2023-11-15T19:46:37.736Z,,,,,,,,,,6512.051999996998,completion,,,,,,,low,high,,,,,,true,,,,false,495119.90000000596,495119.799999997,488590.727,488601.799999997,488607.748,495124.335,1,40,,
trial,html.Screen,6_14_0,2023-11-15T19:46:44.497Z,,,,1,-0.7146913032816444,-0.9241960109301964,,true,hh,6756.5650000059395,response,0.8137027730168936,0.8999999999999997,-0.8999999999999997,0.7771609347349258,0.8999999999999997,-0.8999999999999997,high,high,,ISIC_0000297.JPG,,ISIC_7899041.JPG,184,true,hh,keypress(i),0,false,501881.200000003,501880.90000000596,495107.536,495120.09999999404,495124.335,501891.04,1,40,15,
sequence,flow.Sequence,6_14,2023-11-15T19:46:44.498Z,,,,,,,,,,6756.5650000059395,completion,,,,,,,high,high,,,,,,true,,,,false,501881.5,501880.90000000596,495107.536,495120,495124.335,501891.04,1,40,,
trial,html.Screen,6_15_0,2023-11-15T19:46:55.081Z,,,,1,1.0116417541846066,-1.033442916947398,,false,lh,10573.25999999704,response,-0.7010101889216934,0.8999999999999997,-0.8999999999999997,0.9022783418178474,0.8999999999999997,-0.8999999999999997,low,high,,ISIC_0031389.JPG,,ISIC_0057858.JPG,29,true,hl,keypress(j),0,false,512464.5,512464.299999997,501874.156,501881.700000003,501891.04,512474.423,1,40,16,
sequence,flow.Sequence,6_15,2023-11-15T19:46:55.081Z,,,,,,,,,,10573.25999999704,completion,,,,,,,low,high,,,,,,true,,,,false,512464.59999999404,512464.299999997,501874.156,501881.700000003,501891.04,512474.423,1,40,,
trial,html.Screen,6_16_0,2023-11-15T19:47:03.297Z,,,,1,0.900981242677363,0.8834104283484265,,false,ll,8205.77700000297,response,-0.7437478502701496,0.8999999999999997,-0.8999999999999997,-0.7199001727136436,0.8999999999999997,-0.8999999999999997,low,low,,ISIC_7236365.JPG,,ISIC_1226882.JPG,169,true,hl,keypress(j),0,false,520680.40000000596,520680.200000003,512457.565,512464.700000003,512474.423,520691.107,1,40,17,
sequence,flow.Sequence,6_16,2023-11-15T19:47:03.297Z,,,,,,,,,,8205.77700000297,completion,,,,,,,low,low,,,,,,true,,,,false,520680.5,520680.200000003,512457.565,512464.700000003,512474.423,520691.107,1,40,,
trial,html.Screen,6_17_0,2023-11-15T19:47:09.585Z,,,,1,-0.8443539935286377,-0.8083712509772605,,true,hh,6277.593000002962,response,0.8271218144663375,0.8999999999999997,-0.8999999999999997,0.8321547684171402,0.8999999999999997,-0.8999999999999997,high,high,,ISIC_1072321.JPG,,ISIC_0046224.JPG,184,true,hh,keypress(i),0,false,526968.900000006,526968.700000003,520674.205,520680.700000003,520691.107,526974.433,1,40,18,
sequence,flow.Sequence,6_17,2023-11-15T19:47:09.585Z,,,,,,,,,,6277.593000002962,completion,,,,,,,high,high,,,,,,true,,,,false,526969.200000003,526968.700000003,520674.205,520680.700000003,520691.107,526974.433,1,40,,
trial,html.Screen,6_18_0,2023-11-15T19:47:18.105Z,,,,1,-0.7010101889216934,0.9022783418178474,,true,hl,8513.76700000302,response,0.9617893983965208,0.8999999999999997,-0.8999999999999997,-0.9453006131304652,0.8999999999999997,-0.8999999999999997,high,low,,ISIC_0057858.JPG,,ISIC_4229473.JPG,43,true,hl,keypress(j),0,false,535488.299999997,535488.200000003,526957.744,526969.400000006,526974.433,535491.098,1,40,19,
sequence,flow.Sequence,6_18,2023-11-15T19:47:18.105Z,,,,,,,,,,8513.76700000302,completion,,,,,,,high,low,,,,,,true,,,,false,535488.5,535488.200000003,526957.744,526969.299999997,526974.433,535491.098,1,40,,
trial,html.Screen,6_19_0,2023-11-15T19:47:25.041Z,,,,1,-0.7411887874358276,0.7869222465141029,,false,hl,6933.302000005962,response,0.9111352818043872,0.8999999999999997,-0.8999999999999997,-0.7517932332411794,0.8999999999999997,-0.8999999999999997,high,low,,ISIC_6255113.JPG,,ISIC_3346045.JPG,43,true,lh,keypress(e),0,false,542424.5,542424.400000006,535474.343,535488.599999994,535491.098,542441.149,1,40,20,
sequence,flow.Sequence,6_19,2023-11-15T19:47:25.041Z,,,,,,,,,,6933.302000005962,completion,,,,,,,high,low,,,,,,true,,,,false,542424.700000003,542424.400000006,535474.343,535488.599999994,535491.098,542441.149,1,40,,
trial,html.Screen,6_20_0,2023-11-15T19:47:32.192Z,,,,1,0.8932499910364976,1.0367498890350624,,false,ll,7134.851000000024,response,-0.7363318058631337,0.8999999999999997,-0.8999999999999997,-0.8050194498162477,0.8999999999999997,-0.8999999999999997,low,low,,ISIC_0030106.JPG,,ISIC_3394080.JPG,169,true,hl,keypress(j),0,false,549576.200000003,549576,542424.307,542424.799999997,542441.149,549591.076,1,40,21,
sequence,flow.Sequence,6_20,2023-11-15T19:47:32.193Z,,,,,,,,,,7134.851000000024,completion,,,,,,,low,low,,,,,,true,,,,false,549576.400000006,549576,542424.307,542424.700000003,542441.149,549591.076,1,40,,
trial,html.Screen,6_21_0,2023-11-15T19:47:38.712Z,,,,1,-1.0190532895055715,-0.7834576930584719,,false,hh,6504.923999999999,response,0.7991796180405828,0.8999999999999997,-0.8999999999999997,0.8257025902625775,0.8999999999999997,-0.8999999999999997,high,high,,ISIC_5798015.JPG,,ISIC_0010478.JPG,184,true,hl,keypress(j),0,false,556096.099999994,556096,549574.176,549576.5,549591.076,556107.756,1,40,22,
sequence,flow.Sequence,6_21,2023-11-15T19:47:38.712Z,,,,,,,,,,6504.923999999999,completion,,,,,,,high,high,,,,,,true,,,,false,556096.200000003,556096,549574.176,549576.5,549591.076,556107.756,1,40,,
trial,html.Screen,6_22_0,2023-11-15T19:47:43.753Z,,,,1,-0.905890181856784,-0.7211537413352586,,false,hh,5028.343999993987,response,1.0172828675249892,0.8999999999999997,-0.8999999999999997,0.7195583354712407,0.8999999999999997,-0.8999999999999997,high,high,,ISIC_6507640.JPG,,ISIC_0033696.JPG,184,true,lh,keypress(e),0,false,561136.200000003,561136.099999994,556090.902,556096.299999997,556107.756,561141.111,1,40,23,
sequence,flow.Sequence,6_22,2023-11-15T19:47:43.753Z,,,,,,,,,,5028.343999993987,completion,,,,,,,high,high,,,,,,true,,,,false,561136.400000006,561136.099999994,556090.902,556096.200000003,556107.756,561141.111,1,40,,
trial,html.Screen,6_23_0,2023-11-15T19:47:49.768Z,,,,1,-1.058275612142778,0.7824898568540655,,false,hl,6010.688999996986,response,1.004142980655507,0.8999999999999997,-0.8999999999999997,-0.7749773174967559,0.8999999999999997,-0.8999999999999997,high,low,,ISIC_4906385.JPG,,ISIC_3936223.JPG,43,true,hh,keypress(i),0,false,567151.799999997,567151.799999997,561124.28,561136.400000006,561141.111,567157.753,1,40,24,
sequence,flow.Sequence,6_23,2023-11-15T19:47:49.768Z,,,,,,,,,,6010.688999996986,completion,,,,,,,high,low,,,,,,true,,,,false,567152,567151.799999997,561124.28,561136.400000006,561141.111,567157.753,1,40,,
trial,html.Screen,6_24_0,2023-11-15T19:47:55.224Z,,,,1,0.7331902152638365,0.9466874538814276,,true,ll,5450.246999999974,response,-1.004723718805983,0.8999999999999997,-0.8999999999999997,-0.746205213256203,0.8999999999999997,-0.8999999999999997,low,low,,ISIC_0012107.JPG,,ISIC_6717322.JPG,169,true,ll,keypress(f),0,false,572608.099999994,572608,567140.868,567152.099999994,567157.753,572624.486,1,40,25,
sequence,flow.Sequence,6_24,2023-11-15T19:47:55.225Z,,,,,,,,,,5450.246999999974,completion,,,,,,,low,low,,,,,,true,,,,false,572608.299999997,572608,567140.868,567152.099999994,567157.753,572624.486,1,40,,
trial,html.Screen,6_25_0,2023-11-15T19:48:02.416Z,,,,1,-0.8231760770331785,-0.8700511901947987,,true,hh,7175.414000005927,response,0.7544107015739535,0.8999999999999997,-0.8999999999999997,0.781438724006539,0.8999999999999997,-0.8999999999999997,high,high,,ISIC_1254469.JPG,,ISIC_0021271.JPG,184,true,hh,keypress(i),0,false,579800.099999994,579799.900000006,572607.615,572608.400000006,572624.486,579807.888,1,40,26,
sequence,flow.Sequence,6_25,2023-11-15T19:48:02.416Z,,,,,,,,,,7175.414000005927,completion,,,,,,,high,high,,,,,,true,,,,false,579800.200000003,579799.900000006,572607.615,572608.400000006,572624.486,579807.888,1,40,,
trial,html.Screen,6_26_0,2023-11-15T19:48:08.081Z,,,,1,-0.8778738400881212,-0.8629033386879579,,true,hh,5656.211999994004,response,0.7908195179596742,0.8999999999999997,-0.8999999999999997,0.846286768918253,0.8999999999999997,-0.8999999999999997,high,high,,ISIC_5607702.JPG,,ISIC_0033843.JPG,184,true,hh,keypress(i),0,false,585464.200000003,585464.099999994,579790.884,579800.200000003,579807.888,585474.693,1,40,27,
sequence,flow.Sequence,6_26,2023-11-15T19:48:08.081Z,,,,,,,,,,5656.211999994004,completion,,,,,,,high,high,,,,,,true,,,,false,585464.400000006,585464.099999994,579790.884,579800.200000003,579807.888,585474.693,1,40,,
trial,html.Screen,6_27_0,2023-11-15T19:48:16.313Z,,,,1,-0.8075741539776473,0.7326891894107508,,true,hl,8221.80700000003,response,0.7688509750532941,0.8999999999999997,-0.8999999999999997,-0.7699842387811451,0.8999999999999997,-0.8999999999999997,high,low,,ISIC_3428523.JPG,,ISIC_0014527.JPG,43,true,hl,keypress(j),0,false,593696.599999994,593696.5,585457.613,585464.400000006,585474.693,593707.849,1,40,28,
sequence,flow.Sequence,6_27,2023-11-15T19:48:16.313Z,,,,,,,,,,8221.80700000003,completion,,,,,,,high,low,,,,,,true,,,,false,593696.799999997,593696.5,585457.613,585464.400000006,585474.693,593707.849,1,40,,
trial,html.Screen,6_28_0,2023-11-15T19:48:22.985Z,,,,1,-0.7882758084023446,0.8296405881378283,,true,hl,6660.250999993994,response,0.8165346395107898,0.8999999999999997,-0.8999999999999997,-0.7657798385266591,0.8999999999999997,-0.8999999999999997,high,low,,ISIC_0065882.JPG,,ISIC_2283628.JPG,43,true,hl,keypress(j),0,false,600368.299999997,600368.099999994,593690.955,593697,593707.849,600374.57,1,40,29,
sequence,flow.Sequence,6_28,2023-11-15T19:48:22.985Z,,,,,,,,,,6660.250999993994,completion,,,,,,,high,low,,,,,,true,,,,false,600368.400000006,600368.099999994,593690.955,593696.900000006,593707.849,600374.57,1,40,,
trial,html.Screen,6_29_0,2023-11-15T19:48:29.329Z,,,,1,0.7100921215252844,0.9367637732363708,,false,ll,6337.930000000051,response,-0.715586294160793,0.8999999999999997,-0.8999999999999997,-0.7728125370921421,0.8999999999999997,-0.8999999999999997,low,low,,ISIC_4407580.JPG,,ISIC_9965754.JPG,169,true,hl,keypress(j),0,false,606712.799999997,606712.5,600357.681,600368.400000006,600374.57,606724.609,1,40,30,
sequence,flow.Sequence,6_29,2023-11-15T19:48:29.329Z,,,,,,,,,,6337.930000000051,completion,,,,,,,low,low,,,,,,true,,,,false,606713.099999994,606712.5,600357.681,600368.400000006,600374.57,606724.609,1,40,,
trial,html.Screen,6_30_0,2023-11-15T19:48:33.801Z,,,,1,1.0652791679295452,0.8969509576221346,,false,ll,4459.591000002925,response,-1.00975234958099,0.8999999999999997,-0.8999999999999997,-0.958677033057289,0.8999999999999997,-0.8999999999999997,low,low,,ISIC_0057655.JPG,,ISIC_0976232.JPG,169,true,hl,keypress(j),0,false,611184.400000006,611184.200000003,606707.914,606713.200000003,606724.609,611191.202,1,40,31,
sequence,flow.Sequence,6_30,2023-11-15T19:48:33.801Z,,,,,,,,,,4459.591000002925,completion,,,,,,,low,low,,,,,,true,,,,false,611184.599999994,611184.200000003,606707.914,606713.200000003,606724.609,611191.202,1,40,,
trial,html.Screen,6_31_0,2023-11-15T19:48:40.513Z,,,,1,0.8642861042532918,0.7071725768452852,,false,ll,6705.297999999952,response,-1.0428588955519669,0.8999999999999997,-0.8999999999999997,-0.7027377550195569,0.8999999999999997,-0.8999999999999997,low,low,,ISIC_0011315.JPG,,ISIC_2412888.JPG,169,true,lh,keypress(e),0,false,617896.599999994,617896.5,611174.455,611184.799999997,611191.202,617907.913,1,40,32,
sequence,flow.Sequence,6_31,2023-11-15T19:48:40.513Z,,,,,,,,,,6705.297999999952,completion,,,,,,,low,low,,,,,,true,,,,false,617896.799999997,617896.5,611174.455,611184.799999997,611191.202,617907.913,1,40,,
trial,html.Screen,6_32_0,2023-11-15T19:48:45.841Z,,,,1,-0.7991459998473059,1.0280788723474688,,true,hl,5316.087000000058,response,0.8350129142228142,0.8999999999999997,-0.8999999999999997,-0.8172547818270586,0.8999999999999997,-0.8999999999999997,high,low,,ISIC_7951202.JPG,,ISIC_0301568.JPG,43,true,hl,keypress(j),0,false,623224.099999994,623224,617891.024,617896.900000006,617907.913,623241.345,1,40,33,
sequence,flow.Sequence,6_32,2023-11-15T19:48:45.841Z,,,,,,,,,,5316.087000000058,completion,,,,,,,high,low,,,,,,true,,,,false,623224.299999997,623224,617891.024,617896.900000006,617907.913,623241.345,1,40,,
trial,html.Screen,6_33_0,2023-11-15T19:48:51.353Z,,,,1,1.0982421670957354,0.7005520556499593,,false,ll,5495.155000000028,response,-0.875928844868032,0.8999999999999997,-0.8999999999999997,-1.0147952958458766,0.8999999999999997,-0.8999999999999997,low,low,,ISIC_0061848.JPG,,ISIC_7492682.JPG,169,true,hl,keypress(j),0,false,628736.599999994,628736.5,623224.589,623224.400000006,623241.345,628741.189,1,40,34,
sequence,flow.Sequence,6_33,2023-11-15T19:48:51.353Z,,,,,,,,,,5495.155000000028,completion,,,,,,,low,low,,,,,,true,,,,false,628736.700000003,628736.5,623224.589,623224.400000006,623241.345,628741.189,1,40,,
trial,html.Screen,6_34_0,2023-11-15T19:48:56.976Z,,,,1,1.0116417541846066,-1.033442916947398,,false,lh,5618.711000005947,response,-0.989300717252516,0.8999999999999997,-0.8999999999999997,0.7908280206937478,0.8999999999999997,-0.8999999999999997,low,high,,ISIC_0031389.JPG,,ISIC_6416533.JPG,29,true,ll,keypress(f),0,false,634360,634359.900000006,628724.498,628736.900000006,628741.189,634374.8,1,40,35,
sequence,flow.Sequence,6_34,2023-11-15T19:48:56.977Z,,,,,,,,,,5618.711000005947,completion,,,,,,,low,high,,,,,,true,,,,false,634360.200000003,634359.900000006,628724.498,628736.900000006,628741.189,634374.8,1,40,,
trial,html.Screen,6_35_0,2023-11-15T19:49:04.705Z,,,,1,1.0116417541846066,-1.033442916947398,,false,lh,7713.499999996973,response,-1.0453124399868816,0.8999999999999997,-0.8999999999999997,0.8986747280184286,0.8999999999999997,-0.8999999999999997,low,high,,ISIC_0031389.JPG,,ISIC_0013967.JPG,29,true,hl,keypress(j),0,false,642088.400000006,642088.299999997,634357.686,634360.200000003,634374.8,642091.22,1,40,36,
sequence,flow.Sequence,6_35,2023-11-15T19:49:04.705Z,,,,,,,,,,7713.499999996973,completion,,,,,,,low,high,,,,,,true,,,,false,642088.5,642088.299999997,634357.686,634360.200000003,634374.8,642091.22,1,40,,
trial,html.Screen,6_36_0,2023-11-15T19:49:12.169Z,,,,1,0.7863202439789435,1.0644234101027583,,false,ll,7460.8799999940675,response,-0.8372379817368715,0.8999999999999997,-0.8999999999999997,-0.8148867547702584,0.8999999999999997,-0.8999999999999997,low,low,,ISIC_0071576.JPG,,ISIC_0024277.JPG,169,true,lh,keypress(e),0,false,649552.200000003,649552.099999994,642074.523,642088.700000003,642091.22,649557.886,1,40,37,
sequence,flow.Sequence,6_36,2023-11-15T19:49:12.169Z,,,,,,,,,,7460.8799999940675,completion,,,,,,,low,low,,,,,,true,,,,false,649552.400000006,649552.099999994,642074.523,642088.700000003,642091.22,649557.886,1,40,,
trial,html.Screen,6_37_0,2023-11-15T19:49:20.305Z,,,,1,-0.7329112094844119,-1.0828420308854412,,true,hh,8130.413999996963,response,0.8654274202714607,0.8999999999999997,-0.8999999999999997,0.943970373243474,0.8999999999999997,-0.8999999999999997,high,high,,ISIC_5778927.JPG,,ISIC_0011752.JPG,184,true,hh,keypress(i),0,false,657688.599999994,657688.299999997,649541.006,649552.5,649557.886,657691.244,1,40,38,
sequence,flow.Sequence,6_37,2023-11-15T19:49:20.305Z,,,,,,,,,,8130.413999996963,completion,,,,,,,high,high,,,,,,true,,,,false,657689,657688.299999997,649541.006,649552.5,649557.886,657691.244,1,40,,
trial,html.Screen,6_38_0,2023-11-15T19:49:29.209Z,,,,1,-0.7010101889216934,0.9022783418178474,,false,hl,8900.956000003032,response,0.8165346395107898,0.8999999999999997,-0.8999999999999997,-0.7657798385266591,0.8999999999999997,-0.8999999999999997,high,low,,ISIC_0057858.JPG,,ISIC_2283628.JPG,43,true,ll,keypress(f),0,false,666592.5,666592.200000003,657674.514,657689.099999994,657691.244,666608.099,1,40,39,
sequence,flow.Sequence,6_38,2023-11-15T19:49:29.209Z,,,,,,,,,,8900.956000003032,completion,,,,,,,high,low,,,,,,true,,,,false,666592.700000003,666592.200000003,657674.514,657689.099999994,657691.244,666608.099,1,40,,
trial,html.Screen,6_39_0,2023-11-15T19:49:36.073Z,,,,1,0.7692916291112835,-0.7818604706992622,,false,lh,6848.200999996974,response,-0.8828738626295417,0.8999999999999997,-0.8999999999999997,0.8288177599439582,0.8999999999999997,-0.8999999999999997,low,high,,ISIC_7844825.JPG,,ISIC_0056041.JPG,29,true,hh,keypress(i),0,false,673456.5,673456.299999997,666590.976,666592.799999997,666608.099,673475.464,1,40,40,
sequence,flow.Sequence,6_39,2023-11-15T19:49:36.073Z,,,,,,,,,,6848.200999996974,completion,,,,,,,low,high,,,,,,true,,,,false,673456.700000003,673456.299999997,666590.976,666592.700000003,666608.099,673475.464,1,40,,
practice_loop,flow.Loop,6,2023-11-15T19:49:36.073Z,,,,,,,,,,280048.731999997,completion,,,,,,,,,,,,,,true,,,,false,673456.799999997,673456.299999997,393391.057,393408.200000003,393407.568,673475.464,1,40,,
stair_instructions,html.Screen,7,2023-11-15T19:49:43.241Z,,,,,,,,,,7148.236000002944,response,,,,,,,,,,,,,,,continue,click button,,,680624.099999994,680623.700000003,673441.055,673456.799999997,673475.464,680642.542,,,,
trial,html.Screen,8_0_0,2023-11-15T19:49:54.248Z,,,,2,-0.0200295718112167,-0.0155559071275806,,,,11015.459999999963,timeout,-0.8110121381849364,0.8999999999999997,-0.8999999999999997,0.7563142141851558,0.8999999999999997,-0.8999999999999997,low,high,,ISIC_0061343.JPG,,ISIC_0033605.JPG,29,false,,,0,true,691631.200000003,691631,680608.211,680624.299999997,680642.542,691658.002,1,40,1,
sequence,flow.Sequence,8_0,2023-11-15T19:49:54.248Z,,,,,,,,,,10988.457999999984,completion,,,,,,,low,high,,,,,,false,,,,true,691631.400000006,691631,680608.211,680624.299999997,680642.542,691658.002,1,40,,
trial,html.Screen,8_1_0,2023-11-15T19:50:00.076Z,,,,2,0.049790040126711,-0.0195291725171472,,true,ll,5801.998000000021,response,-0.9048246926578776,0.8999999999999997,-0.8999999999999997,-1.0392108946107133,0.8999999999999997,-0.8999999999999997,low,low,,ISIC_0372902.JPG,,ISIC_0068544.JPG,169,false,ll,keypress(f),0,true,697460.099999994,697460,691641.287,691631.599999994,691658.002,697474.658,1,40,2,
sequence,flow.Sequence,8_1,2023-11-15T19:50:00.077Z,,,,,,,,,,5801.998000000021,completion,,,,,,,low,low,,,,,,false,,,,true,697460.200000003,697460,691641.287,691631.599999994,691658.002,697474.658,1,40,,
trial,html.Screen,8_2_0,2023-11-15T19:50:05.849Z,,,,2,0.0367060100866019,0.0630207980628495,,false,hl,5757.4419999939855,response,0.8350129142228142,0.8999999999999997,-0.8999999999999997,-0.8172547818270586,0.8999999999999997,-0.8999999999999997,high,low,,ISIC_0028396.JPG,,ISIC_0301568.JPG,43,false,hh,keypress(i),0,true,703232.299999997,703232.099999994,697457.975,697460.299999997,697474.658,703241.286,1,40,3,
sequence,flow.Sequence,8_2,2023-11-15T19:50:05.849Z,,,,,,,,,,5757.4419999939855,completion,,,,,,,high,low,,,,,,false,,,,true,703232.400000006,703232.099999994,697457.975,697460.200000003,697474.658,703241.286,1,40,,
trial,html.Screen,8_3_0,2023-11-15T19:50:11.185Z,,,,2,-0.0204987932325723,0.0619049476763945,,false,hh,5327.214000000036,response,0.9837331918354912,0.8999999999999997,-0.8999999999999997,0.9130384672883698,0.8999999999999997,-0.9499999999999997,high,high,,ISIC_0887792.JPG,,ISIC_0001108.JPG,184,false,lh,keypress(e),0,true,708568.599999994,708568.5,703224.691,703232.5,703241.286,708574.664,1,40,4,
sequence,flow.Sequence,8_3,2023-11-15T19:50:11.185Z,,,,,,,,,,5327.214000000036,completion,,,,,,,high,high,,,,,,false,,,,true,708568.799999997,708568.5,703224.691,703232.400000006,703241.286,708574.664,1,40,,
trial,html.Screen,8_4_0,2023-11-15T19:50:16.624Z,,,,2,0.0632965338582772,0.0107588824722911,,true,lh,5432.5360000029905,response,-0.8075741539776473,0.9499999999999997,-0.8999999999999997,0.7326891894107508,0.8999999999999997,-0.9499999999999997,low,high,,ISIC_1265755.JPG,,ISIC_3428523.JPG,29,false,lh,keypress(e),0,true,714007.299999997,714007.200000003,708558.028,708568.799999997,708574.664,714024.784,1,40,5,
sequence,flow.Sequence,8_4,2023-11-15T19:50:16.624Z,,,,,,,,,,5432.5360000029905,completion,,,,,,,low,high,,,,,,false,,,,true,714007.599999994,714007.200000003,708558.028,708568.799999997,708574.664,714024.784,1,40,,
trial,html.Screen,8_5_0,2023-11-15T19:50:21.673Z,,,,2,-0.0258224118104549,0.0029364553353019,,false,ll,5031.416000002995,response,-1.00975234958099,0.9499999999999997,-0.8499999999999996,-0.958677033057289,0.7728638283495602,-0.9499999999999997,low,low,,ISIC_8325226.JPG,,ISIC_0976232.JPG,164,false,hl,keypress(j),0,true,719056.299999997,719056.200000003,714008.07,714007.700000003,714024.784,719057.998,1,40,6,
sequence,flow.Sequence,8_5,2023-11-15T19:50:21.673Z,,,,,,,,,,5031.416000002995,completion,,,,,,,low,low,,,,,,false,,,,true,719056.5,719056.200000003,714008.07,714007.700000003,714024.784,719057.998,1,40,,
trial,html.Screen,8_6_0,2023-11-15T19:50:26.186Z,,,,2,0.0603356922898045,0.0630785445312754,,true,hh,4511.101999994018,response,0.8010128234618513,0.9499999999999997,-0.8999999999999997,0.9031251164933652,0.7728638283495602,-0.9499999999999997,high,high,,ISIC_9996128.JPG,,ISIC_0058768.JPG,194,false,hh,keypress(i),0,true,723569.299999997,723569.099999994,719041.302,719056.599999994,719057.998,723574.651,1,40,7,
sequence,flow.Sequence,8_6,2023-11-15T19:50:26.186Z,,,,,,,,,,4511.101999994018,completion,,,,,,,high,high,,,,,,false,,,,true,723569.599999994,723569.099999994,719041.302,719056.5,719057.998,723574.651,1,40,,
trial,html.Screen,8_7_0,2023-11-15T19:50:32.034Z,,,,2,-0.0718464495991687,0.0429653518314044,,false,hl,5842.349000000046,response,0.7692916291112835,0.9499999999999997,-0.8999999999999997,-0.7818604706992622,0.7728638283495602,-0.9499999999999997,high,low,,ISIC_0028597.JPG,,ISIC_7844825.JPG,30,false,ll,keypress(f),0,true,729417.299999997,729417,723557.873,723569.799999997,723574.651,729424.672,1,40,8,
sequence,flow.Sequence,8_7,2023-11-15T19:50:32.034Z,,,,,,,,,,5842.349000000046,completion,,,,,,,high,low,,,,,,false,,,,true,729417.700000003,729417,723557.873,723569.799999997,723574.651,729424.672,1,40,,
trial,html.Screen,8_8_0,2023-11-15T19:50:37.761Z,,,,2,0.0564512008196606,-0.0205312570039753,,true,hh,5719.72800000594,response,1.1241688851842109,0.9999999999999998,-0.8999999999999997,0.6619976120862395,0.7728638283495602,-0.8999999999999997,high,high,,ISIC_9019691.JPG,,ISIC_0059707.JPG,174,false,hh,keypress(i),0,true,735144.5,735144.400000006,729407.842,729417.900000006,729424.672,735158.182,1,40,9,
sequence,flow.Sequence,8_8,2023-11-15T19:50:37.761Z,,,,,,,,,,5719.72800000594,completion,,,,,,,high,high,,,,,,false,,,,true,735144.700000003,735144.400000006,729407.842,729417.900000006,729424.672,735158.182,1,40,,
trial,html.Screen,8_9_0,2023-11-15T19:50:42.289Z,,,,2,-0.0204987932325723,0.0619049476763945,,true,hl,4514.51800000295,response,0.8500530224490773,0.9999999999999998,-0.8999999999999997,-1.0893360711742854,0.8430832486352251,-0.8999999999999997,high,low,,ISIC_0887792.JPG,,ISIC_2998367.JPG,26,false,hl,keypress(j),0,true,739672.900000006,739672.700000003,735141.196,735144.799999997,735158.182,739674.699,1,40,10,
sequence,flow.Sequence,8_9,2023-11-15T19:50:42.289Z,,,,,,,,,,4514.51800000295,completion,,,,,,,high,low,,,,,,false,,,,true,739673.099999994,739672.700000003,735141.196,735144.799999997,735158.182,739674.699,1,40,,
trial,html.Screen,8_10_0,2023-11-15T19:50:47.866Z,,,,2,0.0088741920055285,0.0058246074740588,,true,ll,5574.300999999978,response,-0.7918012854539199,0.9499999999999997,-0.8999999999999997,-1.0631481857644678,0.8430832486352251,-0.8999999999999997,low,low,,ISIC_4136663.JPG,,ISIC_0033137.JPG,169,false,ll,keypress(f),0,true,745249.299999997,745249,739657.925,739673.200000003,739674.699,745257.998,1,40,11,
sequence,flow.Sequence,8_10,2023-11-15T19:50:47.866Z,,,,,,,,,,5574.300999999978,completion,,,,,,,low,low,,,,,,false,,,,true,745249.700000003,745249,739657.925,739673.200000003,739674.699,745257.998,1,40,,
trial,html.Screen,8_11_0,2023-11-15T19:50:53.394Z,,,,2,0.0145962222125655,0.0525495878509009,,false,lh,5519.101999994018,response,-0.7381546930016135,0.9499999999999997,-0.8999999999999997,0.6747977290425752,0.8430832486352251,-0.8774747356091939,low,high,,ISIC_4248013.JPG,,ISIC_8224270.JPG,37,false,hh,keypress(i),0,true,750777.400000006,750777.099999994,745241.299,745249.900000006,745257.998,750791.373,1,40,12,
sequence,flow.Sequence,8_11,2023-11-15T19:50:53.395Z,,,,,,,,,,5519.101999994018,completion,,,,,,,low,high,,,,,,false,,,,true,750777.799999997,750777.099999994,745241.299,745249.799999997,745257.998,750791.373,1,40,,
trial,html.Screen,8_12_0,2023-11-15T19:51:00.921Z,,,,2,-0.0119001144851157,0.0063430114540141,,false,ll,7512.527000005939,response,-0.9381357191664412,0.9499999999999997,-0.9499999999999997,-0.7568873197636701,0.8430832486352251,-0.8774747356091939,low,low,,ISIC_0003822.JPG,,ISIC_9808863.JPG,158,false,hh,keypress(i),0,true,758304,758303.900000006,750774.556,750778,750791.373,758308.046,1,40,13,
sequence,flow.Sequence,8_12,2023-11-15T19:51:00.921Z,,,,,,,,,,7512.527000005939,completion,,,,,,,low,low,,,,,,false,,,,true,758304,758303.900000006,750774.556,750778,750791.373,758308.046,1,40,,
trial,html.Screen,8_13_0,2023-11-15T19:51:06.297Z,,,,2,-0.0606387586319451,-0.0283716809868572,,false,lh,5372.154000003007,response,-0.8926515927689261,0.9499999999999997,-0.9999999999999998,0.7935960767768927,0.8430832486352251,-0.9274747356091939,low,high,,ISIC_0061158.JPG,,ISIC_8901371.JPG,28,false,hl,keypress(j),0,true,763680.299999997,763680.200000003,758291.2,758304.099999994,758308.046,763691.618,1,40,14,
sequence,flow.Sequence,8_13,2023-11-15T19:51:06.297Z,,,,,,,,,,5372.154000003007,completion,,,,,,,low,high,,,,,,false,,,,true,763680.5,763680.200000003,758291.2,758304.099999994,758308.046,763691.618,1,40,,
trial,html.Screen,8_14_0,2023-11-15T19:51:12.305Z,,,,2,-0.0200295718112167,-0.0155559071275806,,true,hh,5996.681999997003,response,0.7852622372475052,0.9499999999999997,-1.0499999999999998,0.7817904940060681,0.8930832486352251,-0.9274747356091939,high,high,,ISIC_0061343.JPG,,ISIC_0010527.JPG,169,false,hh,keypress(i),0,true,769688.5,769688.299999997,763674.749,763680.5,763691.618,769691.416,1,40,15,
sequence,flow.Sequence,8_14,2023-11-15T19:51:12.305Z,,,,,,,,,,5996.681999997003,completion,,,,,,,high,high,,,,,,false,,,,true,769688.700000003,769688.299999997,763674.749,763680.5,763691.618,769691.416,1,40,,
trial,html.Screen,8_15_0,2023-11-15T19:51:17.138Z,,,,2,0.0107170641394226,-0.0596294643429623,,false,ll,4829.383999997051,response,-1.086808687078377,0.9499999999999997,-1.0499999999999998,-0.8881204850517516,0.8930832486352251,-0.9274747356091939,low,low,,ISIC_0005291.JPG,,ISIC_4014307.JPG,109,false,lh,keypress(e),0,true,774521,774520.799999997,769674.6,769688.799999997,769691.416,774524.76,1,40,16,
sequence,flow.Sequence,8_15,2023-11-15T19:51:17.138Z,,,,,,,,,,4829.383999997051,completion,,,,,,,low,low,,,,,,false,,,,true,774521.299999997,774520.799999997,769674.6,769688.799999997,769691.416,774524.76,1,40,,
trial,html.Screen,8_16_0,2023-11-15T19:51:24.513Z,,,,2,-0.0105349256029223,0.0723574625425557,,false,hl,7371.440000002971,response,0.7856143618373893,0.9499999999999997,-1.0499999999999998,-1.0273608829432213,0.8930832486352251,-0.977474735609194,high,low,,ISIC_0058998.JPG,,ISIC_9303849.JPG,24,false,lh,keypress(e),0,true,781896.299999997,781896.200000003,774508.139,774521.400000006,774524.76,781908.124,1,40,17,
sequence,flow.Sequence,8_16,2023-11-15T19:51:24.513Z,,,,,,,,,,7371.440000002971,completion,,,,,,,high,low,,,,,,false,,,,true,781896.5,781896.200000003,774508.139,774521.400000006,774524.76,781908.124,1,40,,
trial,html.Screen,8_17_0,2023-11-15T19:51:29.690Z,,,,2,0.0123274848503577,-0.0516828290734233,,false,hl,5164.675999997067,response,0.7629099401226335,0.9499999999999997,-0.9999999999999998,-0.8515956627075536,0.8430832486352251,-0.977474735609194,high,low,,ISIC_0056790.JPG,,ISIC_0028718.JPG,24,false,lh,keypress(e),0,true,787073.099999994,787072.799999997,781891.229,781896.599999994,781908.124,787092.76,1,40,18,
sequence,flow.Sequence,8_17,2023-11-15T19:51:29.690Z,,,,,,,,,,5164.675999997067,completion,,,,,,,high,low,,,,,,false,,,,true,787073.5,787072.799999997,781891.229,781896.5,781908.124,787092.76,1,40,,
trial,html.Screen,8_18_0,2023-11-15T19:51:35.617Z,,,,2,0.039520186367207,0.0377961575607372,,true,lh,5907.640000005951,response,-1.0770264364718942,0.9999999999999998,-0.9999999999999998,0.6713089190292955,0.8430832486352251,-1.027474735609194,low,high,,ISIC_6356149.JPG,,ISIC_6093728.JPG,28,false,lh,keypress(e),0,true,793000.5,793000.400000006,787057.928,787073.700000003,787092.76,793008.132,1,40,19,
sequence,flow.Sequence,8_18,2023-11-15T19:51:35.618Z,,,,,,,,,,5907.640000005951,completion,,,,,,,low,high,,,,,,false,,,,true,793000.799999997,793000.400000006,787057.928,787073.599999994,787092.76,793008.132,1,40,,
trial,html.Screen,8_19_0,2023-11-15T19:51:40.083Z,,,,2,-0.0220026381002083,0.0170756452911772,,false,hl,4457.368000000017,response,0.9544693251394116,0.9499999999999997,-0.8999999999999997,-1.0727539917203766,0.743083248635225,-0.977474735609194,high,low,,ISIC_5347806.JPG,,ISIC_0055147.JPG,24,false,lh,keypress(e),0,true,797465.799999997,797465.5,792991.348,793001,793008.132,797474.821,1,40,20,
sequence,flow.Sequence,8_19,2023-11-15T19:51:40.083Z,,,,,,,,,,4457.368000000017,completion,,,,,,,high,low,,,,,,false,,,,true,797466.299999997,797465.5,792991.348,793000.900000006,793008.132,797474.821,1,40,,
trial,html.Screen,8_20_0,2023-11-15T19:51:46.026Z,,,,2,,0.0102871556606504,,true,hh,5933.778999994043,response,0.9077516908837916,0.9999999999999998,-0.8999999999999997,0.66936255848026,0.743083248635225,-1.027474735609194,high,high,,ISIC_1805163.JPG,,ISIC_0027060.JPG,182,false,hh,keypress(i),0,true,803408.700000003,803408.599999994,797457.988,797466.400000006,797474.821,803424.875,1,40,21,
sequence,flow.Sequence,8_20,2023-11-15T19:51:46.026Z,,,,,,,,,,5933.778999994043,completion,,,,,,,high,high,,,,,,false,,,,true,803408.900000006,803408.599999994,797457.988,797466.400000006,797474.821,803424.875,1,40,,
trial,html.Screen,8_21_0,2023-11-15T19:51:51.049Z,,,,2,-0.0258224118104549,0.0029364553353019,,true,lh,5007.32500000298,response,-0.8954803463300026,0.9999999999999998,-0.8999999999999997,0.7071819047913821,0.743083248635225,-1.027474735609194,low,high,,ISIC_8325226.JPG,,ISIC_0033071.JPG,51,false,lh,keypress(e),0,true,808432.400000006,808432.200000003,803407.92,803409,803424.875,808441.446,1,40,22,
sequence,flow.Sequence,8_21,2023-11-15T19:51:51.049Z,,,,,,,,,,5007.32500000298,completion,,,,,,,low,high,,,,,,false,,,,true,808432.599999994,808432.200000003,803407.92,803409,803424.875,808441.446,1,40,,
trial,html.Screen,8_22_0,2023-11-15T19:51:56.025Z,,,,2,-0.0423567271646023,-0.0380126882576854,,false,hl,4966.554000000004,response,0.9138670886161264,0.9499999999999997,-0.8499999999999996,-0.8414121478342018,0.6430832486352249,-0.977474735609194,high,low,,ISIC_0046932.JPG,,ISIC_6709052.JPG,24,false,hh,keypress(i),0,true,813408,813408,808424.774,808432.599999994,808441.446,813424.811,1,40,23,
sequence,flow.Sequence,8_22,2023-11-15T19:51:56.025Z,,,,,,,,,,4966.554000000004,completion,,,,,,,high,low,,,,,,false,,,,true,813408.200000003,813408,808424.774,808432.599999994,808441.446,813424.811,1,40,,
trial,html.Screen,8_23_0,2023-11-15T19:52:02.977Z,,,,2,-0.0606387586319451,-0.0283716809868572,,true,hh,6935.0890000059735,response,1.0855631184829917,0.8999999999999997,-0.8499999999999996,0.4996479950156016,0.6430832486352249,-1.027474735609194,high,high,,ISIC_0061158.JPG,,ISIC_0059547.JPG,236,false,hh,keypress(i),0,true,820359.900000006,820359.900000006,813408.009,813408.299999997,813424.811,820374.802,1,40,24,
sequence,flow.Sequence,8_23,2023-11-15T19:52:02.977Z,,,,,,,,,,6935.0890000059735,completion,,,,,,,high,high,,,,,,false,,,,true,820360.099999994,820359.900000006,813408.009,813408.200000003,813424.811,820374.802,1,40,,
trial,html.Screen,8_24_0,2023-11-15T19:52:10.281Z,,,,2,0.0473541545202326,-0.0294076954053606,,false,ll,7289.098000005935,response,-0.7109511223219827,0.8999999999999997,-0.8499999999999996,-0.9096646508167132,0.6430832486352249,-1.027474735609194,low,low,,ISIC_0034065.JPG,,ISIC_3770380.JPG,135,false,hl,keypress(j),0,true,827664,827663.900000006,820358.063,820360.099999994,820374.802,827674.789,1,40,25,
sequence,flow.Sequence,8_24,2023-11-15T19:52:10.281Z,,,,,,,,,,7289.098000005935,completion,,,,,,,low,low,,,,,,false,,,,true,827664.200000003,827663.900000006,820358.063,820360.099999994,820374.802,827674.789,1,40,,
trial,html.Screen,8_25_0,2023-11-15T19:52:14.497Z,,,,2,0.0497314815986203,-0.0303374618795786,,false,lh,4205.51099999703,response,-0.8024220784929528,0.8999999999999997,-0.8999999999999997,0.5222521985649821,0.6430832486352249,-1.027474735609194,low,high,,ISIC_6023504.JPG,,ISIC_0744870.JPG,71,false,hh,keypress(i),0,true,831880.5,831880.299999997,827657.883,827664.200000003,827674.789,831891.545,1,40,26,
sequence,flow.Sequence,8_25,2023-11-15T19:52:14.498Z,,,,,,,,,,4205.51099999703,completion,,,,,,,low,high,,,,,,false,,,,true,831880.700000003,831880.299999997,827657.883,827664.200000003,827674.789,831891.545,1,40,,
trial,html.Screen,8_26_0,2023-11-15T19:52:22.537Z,,,,2,-0.0119001144851157,0.0063430114540141,,false,hl,8028.554999993998,response,0.7872534775441857,0.8999999999999997,-0.9499999999999997,-0.8441107693833454,0.5930832486352249,-1.027474735609194,high,low,,ISIC_0003822.JPG,,ISIC_0028788.JPG,24,false,hh,keypress(i),0,true,839920.200000003,839920.099999994,831874.684,831880.900000006,831891.545,839924.827,1,40,27,
sequence,flow.Sequence,8_26,2023-11-15T19:52:22.537Z,,,,,,,,,,8028.554999993998,completion,,,,,,,high,low,,,,,,false,,,,true,839920.400000006,839920.099999994,831874.684,831880.799999997,831891.545,839924.827,1,40,,
trial,html.Screen,8_27_0,2023-11-15T19:52:27.673Z,,,,2,0.0080817964357627,-0.0444435264307931,,false,lh,5131.373000002932,response,-0.8146530083054235,0.8499999999999996,-0.9499999999999997,0.3962202409605155,0.5930832486352249,-1.077474735609194,low,high,,ISIC_0013165.JPG,,ISIC_1020369.JPG,74,false,hh,keypress(i),0,true,845056.299999997,845056.200000003,839907.936,839920.5,839924.827,845058.171,1,40,28,
sequence,flow.Sequence,8_27,2023-11-15T19:52:27.673Z,,,,,,,,,,5131.373000002932,completion,,,,,,,low,high,,,,,,false,,,,true,845056.5,845056.200000003,839907.936,839920.5,839924.827,845058.171,1,40,,
trial,html.Screen,8_28_0,2023-11-15T19:52:33.017Z,,,,2,0.0145962222125655,0.0525495878509009,,true,hh,5342.029000003007,response,0.7861983257676892,0.8499999999999996,-0.9999999999999998,0.4845680770701537,0.5930832486352249,-1.077474735609194,high,high,,ISIC_4248013.JPG,,ISIC_6225409.JPG,275,false,hh,keypress(i),0,true,850400.299999997,850400.200000003,845041.29,845056.5,845058.171,850408.228,1,40,29,
sequence,flow.Sequence,8_28,2023-11-15T19:52:33.017Z,,,,,,,,,,5342.029000003007,completion,,,,,,,high,high,,,,,,false,,,,true,850400.5,850400.200000003,845041.29,845056.5,845058.171,850408.228,1,40,,
trial,html.Screen,8_29_0,2023-11-15T19:52:41.233Z,,,,2,-0.0044063257337227,-0.0172548282859886,,true,lh,8207.871999994037,response,-0.8954803463300026,0.8499999999999996,-0.9999999999999998,0.7071819047913821,0.5853832014189214,-1.077474735609194,low,high,,ISIC_7413786.JPG,,ISIC_0033071.JPG,62,false,lh,keypress(e),0,true,858616.200000003,858616.099999994,850391.347,850400.5,850408.228,858624.871,1,40,30,
sequence,flow.Sequence,8_29,2023-11-15T19:52:41.233Z,,,,,,,,,,8207.871999994037,completion,,,,,,,low,high,,,,,,false,,,,true,858616.200000003,858616.099999994,850391.347,850400.5,850408.228,858624.871,1,40,,
trial,html.Screen,8_30_0,2023-11-15T19:52:45.762Z,,,,2,-0.0643519619373155,-0.0340638715725122,,false,ll,4519.529000005918,response,-0.8764429645297487,0.8499999999999996,-0.9999999999999998,-0.9319282086996942,0.5853832014189214,-1.077474735609194,low,low,,ISIC_0066401.JPG,,ISIC_9538004.JPG,92,false,hl,keypress(j),0,true,863144.599999994,863144.400000006,858607.979,858616.299999997,858624.871,863158.341,1,40,31,
sequence,flow.Sequence,8_30,2023-11-15T19:52:45.762Z,,,,,,,,,,4519.529000005918,completion,,,,,,,low,low,,,,,,false,,,,true,863144.799999997,863144.400000006,858607.979,858616.299999997,858624.871,863158.341,1,40,,
trial,html.Screen,8_31_0,2023-11-15T19:52:49.850Z,,,,2,-0.0283578106329894,0.0088840758711548,,false,ll,4074.158999999985,response,-0.8801648637566495,0.8499999999999996,-1.0499999999999998,-1.2145479345714805,0.5853832014189214,-1.077474735609194,low,low,,ISIC_0060707.JPG,,ISIC_4846741.JPG,81,false,hl,keypress(j),0,true,867232.700000003,867232.5,863141.484,863144.900000006,863158.341,867241.535,1,40,32,
sequence,flow.Sequence,8_31,2023-11-15T19:52:49.850Z,,,,,,,,,,4074.158999999985,completion,,,,,,,low,low,,,,,,false,,,,true,867232.900000006,867232.5,863141.484,863144.900000006,863158.341,867241.535,1,40,,
trial,html.Screen,8_32_0,2023-11-15T19:52:55.226Z,,,,2,-0.0249297455748133,0.055986418955019,,true,hh,5367.564999994007,response,0.661103230391728,0.8499999999999996,-1.0999999999999999,0.5949590719462826,0.5853832014189214,-1.0232380716355873,high,high,,ISIC_3900049.JPG,,ISIC_0070313.JPG,279,false,hh,keypress(i),0,true,872609.299999997,872609.099999994,867224.743,867233,867241.535,872625.046,1,40,33,
sequence,flow.Sequence,8_32,2023-11-15T19:52:55.227Z,,,,,,,,,,5367.564999994007,completion,,,,,,,high,high,,,,,,false,,,,true,872609.599999994,872609.099999994,867224.743,867233,867241.535,872625.046,1,40,,
trial,html.Screen,8_33_0,2023-11-15T19:52:58.897Z,,,,2,-0.0462522625051681,-0.0088419594888635,,false,ll,3655.0539999940665,response,-0.9003340164453637,0.7999999999999996,-1.0999999999999999,-1.1325150153239834,0.5353832014189214,-1.0232380716355873,low,low,,ISIC_1945381.JPG,,ISIC_5287679.JPG,75,false,hl,keypress(j),0,true,876280.099999994,876280.099999994,872608.02,872609.799999997,872625.046,876291.55,1,40,34,
sequence,flow.Sequence,8_33,2023-11-15T19:52:58.897Z,,,,,,,,,,3655.0539999940665,completion,,,,,,,low,low,,,,,,false,,,,true,876280.299999997,876280.099999994,872608.02,872609.799999997,872625.046,876291.55,1,40,,
trial,html.Screen,8_34_0,2023-11-15T19:53:05.746Z,,,,2,-0.0119001144851157,0.0063430114540141,,false,lh,6837.150000002934,response,-1.0041310881549932,0.7999999999999996,-1.15,0.5432301146958912,0.5353832014189214,-1.0232380716355873,low,high,,ISIC_0003822.JPG,,ISIC_9860895.JPG,32,false,hh,keypress(i),0,true,883128.799999997,883128.700000003,876274.923,876280.299999997,876291.55,883141.754,1,40,35,
sequence,flow.Sequence,8_34,2023-11-15T19:53:05.746Z,,,,,,,,,,6837.150000002934,completion,,,,,,,low,high,,,,,,false,,,,true,883129,883128.700000003,876274.923,876280.299999997,876291.55,883141.754,1,40,,
trial,html.Screen,8_35_0,2023-11-15T19:53:10.833Z,,,,2,0.0080817964357627,-0.0444435264307931,,true,ll,5074.246000000043,response,-1.109799097093339,0.7999999999999996,-1.15,-1.091507924157762,0.5353832014189214,-1.0232380716355873,low,low,,ISIC_0013165.JPG,,ISIC_0765584.JPG,68,false,ll,keypress(f),0,true,888216.099999994,888216,883124.638,883129.099999994,883141.754,888224.967,1,40,36,
sequence,flow.Sequence,8_35,2023-11-15T19:53:10.833Z,,,,,,,,,,5074.246000000043,completion,,,,,,,low,low,,,,,,false,,,,true,888216.200000003,888216,883124.638,883129.099999994,883141.754,888224.967,1,40,,
trial,html.Screen,8_36_0,2023-11-15T19:53:17.970Z,,,,2,0.0603356922898045,0.0630785445312754,,true,hh,7127.4330000060145,response,0.8943547811786065,0.7999999999999996,-1.15,0.4113278385041614,0.5353832014189214,-1.0506535106255506,high,high,,ISIC_9996128.JPG,,ISIC_0071771.JPG,293,false,hh,keypress(i),0,true,895352.599999994,895352.400000006,888208.269,888216.299999997,888224.967,895358.223,1,40,37,
sequence,flow.Sequence,8_36,2023-11-15T19:53:17.970Z,,,,,,,,,,7127.4330000060145,completion,,,,,,,high,high,,,,,,false,,,,true,895352.700000003,895352.400000006,888208.269,888216.299999997,888224.967,895358.223,1,40,,
trial,html.Screen,8_37_0,2023-11-15T19:53:22.834Z,,,,2,0.0065172941585523,-0.0118857043117315,,true,hh,4858.576999997022,response,0.951630942061208,0.7999999999999996,-1.15,0.460919159938482,0.6028413098413838,-1.0506535106255506,high,high,,ISIC_6119202.JPG,,ISIC_0024307.JPG,290,false,hh,keypress(i),0,true,900217,900216.799999997,895341.379,895352.799999997,895358.223,900224.932,1,40,38,
sequence,flow.Sequence,8_37,2023-11-15T19:53:22.834Z,,,,,,,,,,4858.576999997022,completion,,,,,,,high,high,,,,,,false,,,,true,900217.400000006,900216.799999997,895341.379,895352.700000003,895358.223,900224.932,1,40,,
trial,html.Screen,8_38_0,2023-11-15T19:53:29.226Z,,,,2,0.049790040126711,-0.0195291725171472,,true,hl,6383.468000005931,response,0.6588697713356909,0.656275050999845,-1.15,-0.903230705453214,0.6028413098413838,-1.0506535106255506,high,low,,ISIC_0372902.JPG,,ISIC_0061454.JPG,50,false,hl,keypress(j),0,true,906608.5,906608.400000006,900208.319,900217.5,900224.932,906624.97,1,40,39,
sequence,flow.Sequence,8_38,2023-11-15T19:53:29.226Z,,,,,,,,,,6383.468000005931,completion,,,,,,,high,low,,,,,,false,,,,true,906608.799999997,906608.400000006,900208.319,900217.5,900224.932,906624.97,1,40,,
trial,html.Screen,8_39_0,2023-11-15T19:53:35.762Z,,,,2,-0.0118382036798625,-0.0300588245877227,,true,hl,6519.930000005988,response,0.4946807220140147,0.656275050999845,-1.15,-0.9373095397088546,0.6028413098413838,-1.0506535106255506,high,low,,ISIC_4748605.JPG,,ISIC_1293743.JPG,50,false,hl,keypress(j),0,true,913145.200000003,913144.900000006,906608.151,906608.799999997,906624.97,913158.297,1,40,40,
sequence,flow.Sequence,8_39,2023-11-15T19:53:35.763Z,,,,,,,,,,6519.930000005988,completion,,,,,,,high,low,,,,,,false,,,,true,913145.599999994,913144.900000006,906608.151,906608.799999997,906624.97,913158.297,1,40,,
stair_loop,flow.Loop,8,2023-11-15T19:53:35.763Z,,,,,,,,,,232502.35800000594,completion,,,,,,,,,,,,,,false,,,,true,913145.799999997,913144.900000006,680608.211,680624.200000003,680642.542,913158.297,1,40,,
exp_instructions,html.Screen,9,2023-11-15T19:53:51.794Z,,,,,,,,,,16017.802999994019,response,,,,,,,,,,,,,,,continue,keypress(Space),,,929176.799999997,929176.099999994,913141.376,913145.900000006,913158.297,929191.593,,,,
trial,html.Screen,10_0_0,2023-11-15T19:54:01.605Z,,,,1,0.0349011973222753,-0.065080527952874,,true,hh,9796.107000002987,response,1.03773081213689,0.8481275050999839,-1.0149999999999995,0.6564062772821055,0.6064669389296276,-1.041263157817744,high,high,,ISIC_3898738.JPG,9,ISIC_0058206.JPG,269,false,hh,keypress(i),0,false,938987.900000006,938987.700000003,929174.401,929177.099999994,929191.593,938991.636,4,500,1,
break,html.Screen,10_0_1,2023-11-15T19:54:01.605Z,,,,,,,,,,NaN,,,,,,,,high,high,,,,,,false,,,,false,938988.299999997,938988.200000003,,938988,,938991.636,4,500,,
break_continue,html.Screen,10_0_2,2023-11-15T19:54:01.605Z,,,,,,,,,,NaN,,,,,,,,high,high,,,,,,false,,,,false,938988.700000003,938988.599999994,,938988.400000006,,938991.636,4,500,,
sequence,flow.Sequence,10_0,2023-11-15T19:54:01.606Z,,,,,,,,,,9797.006999994046,completion,,,,,,,high,high,,,,,,false,,,,false,938988.799999997,938988.599999994,929174.401,929177.099999994,929191.593,938991.636,4,500,,
trial,html.Screen,10_1_0,2023-11-15T19:54:08.657Z,,,,1,-0.0200295718112167,-0.0155559071275806,,false,lh,7048.463999993983,response,-0.989300717252516,0.8481275050999839,-1.0149999999999995,0.7908280206937478,0.6064669389296276,-1.041263157817744,low,high,,ISIC_0061343.JPG,8,ISIC_6416533.JPG,57,false,hh,keypress(i),0,false,946040.200000003,946040.099999994,938974.836,938988.900000006,938991.636,946041.635,4,500,2,
break,html.Screen,10_1_1,2023-11-15T19:54:08.657Z,,,,,,,,,,NaN,,,,,,,,low,high,,,,,,false,,,,false,946040.599999994,946040.5,,946040.299999997,,946041.635,4,500,,
break_continue,html.Screen,10_1_2,2023-11-15T19:54:08.658Z,,,,,,,,,,NaN,,,,,,,,low,high,,,,,,false,,,,false,946040.799999997,946040.700000003,,946040.599999994,,946041.635,4,500,,
sequence,flow.Sequence,10_1,2023-11-15T19:54:08.658Z,,,,,,,,,,7049.064000002923,completion,,,,,,,low,high,,,,,,false,,,,false,946040.900000006,946040.700000003,938974.836,938988.799999997,938991.636,946041.635,4,500,,
trial,html.Screen,10_2_0,2023-11-15T19:54:13.321Z,,,,1,-0.0586798548295751,0.0060040805764433,,true,ll,4662.66499999701,response,-1.1100289789666156,0.8481275050999839,-1.0149999999999995,-0.9747349048723576,0.6064669389296276,-1.041263157817744,low,low,,ISIC_1552232.JPG,8,ISIC_0026552.JPG,98,false,ll,keypress(f),0,false,950704.5,950704.299999997,946024.87,946040.900000006,946041.635,950708.293,4,500,3,
break,html.Screen,10_2_1,2023-11-15T19:54:13.322Z,,,,,,,,,,NaN,,,,,,,,low,low,,,,,,false,,,,false,950704.900000006,950704.799999997,,950704.599999994,,950708.293,4,500,,
break_continue,html.Screen,10_2_2,2023-11-15T19:54:13.322Z,,,,,,,,,,NaN,,,,,,,,low,low,,,,,,false,,,,false,950705.200000003,950705,,950704.900000006,,950708.293,4,500,,
sequence,flow.Sequence,10_2,2023-11-15T19:54:13.322Z,,,,,,,,,,4663.364999999991,completion,,,,,,,low,low,,,,,,false,,,,false,950705.200000003,950705,946024.87,946040.900000006,946041.635,950708.293,4,500,,
trial,html.Screen,10_3_0,2023-11-15T19:54:18.977Z,,,,1,-0.0257631352671967,-0.0202837002774028,,false,ll,5652.107000006014,response,-1.077278111180185,0.8481275050999839,-1.0149999999999995,-1.1530533996184025,0.6064669389296276,-1.041263157817744,low,low,,ISIC_0032797.JPG,8,ISIC_9525136.JPG,98,false,hl,keypress(j),0,false,956360.5,956360.400000006,950691.7,950705.299999997,950708.293,956375.065,4,500,4,
break,html.Screen,10_3_1,2023-11-15T19:54:18.978Z,,,,,,,,,,NaN,,,,,,,,low,low,,,,,,false,,,,false,956360.900000006,956360.799999997,,956360.700000003,,956375.065,4,500,,
break_continue,html.Screen,10_3_2,2023-11-15T19:54:18.978Z,,,,,,,,,,NaN,,,,,,,,low,low,,,,,,false,,,,false,956361.200000003,956361,,956361,,956375.065,4,500,,
sequence,flow.Sequence,10_3,2023-11-15T19:54:18.978Z,,,,,,,,,,5652.707000000053,completion,,,,,,,low,low,,,,,,false,,,,false,956361.299999997,956361,950691.7,950705.200000003,950708.293,956375.065,4,500,,
trial,html.Screen,10_4_0,2023-11-15T19:54:25.769Z,,,,1,0.0065172941585523,-0.0118857043117315,,false,ll,6777.135000003036,response,-0.8801648637566495,0.8481275050999839,-1.0149999999999995,-1.2145479345714805,0.6064669389296276,-1.041263157817744,low,low,,ISIC_6119202.JPG,8,ISIC_4846741.JPG,98,false,hh,keypress(i),0,false,963152.299999997,963152.200000003,956358.322,956361.400000006,956375.065,963158.336,4,500,5,
break,html.Screen,10_4_1,2023-11-15T19:54:25.769Z,,,,,,,,,,NaN,,,,,,,,low,low,,,,,,false,,,,false,963152.599999994,963152.599999994,,963152.400000006,,963158.336,4,500,,
break_continue,html.Screen,10_4_2,2023-11-15T19:54:25.770Z,,,,,,,,,,NaN,,,,,,,,low,low,,,,,,false,,,,false,963152.799999997,963152.799999997,,963152.700000003,,963158.336,4,500,,
sequence,flow.Sequence,10_4,2023-11-15T19:54:25.770Z,,,,,,,,,,6777.734999997076,completion,,,,,,,low,low,,,,,,false,,,,false,963152.900000006,963152.799999997,956358.322,956361.400000006,956375.065,963158.336,4,500,,
trial,html.Screen,10_5_0,2023-11-15T19:54:33.657Z,,,,1,0.0109416414475118,0.005246498750811,,true,ll,7881.86400000297,response,-0.8538847735848973,0.8481275050999839,-1.0149999999999995,-0.979053170316694,0.6064669389296276,-1.041263157817744,low,low,,ISIC_0064279.JPG,9,ISIC_1269461.JPG,98,false,ll,keypress(f),0,false,971040.299999997,971040.200000003,963141.749,963153,963158.336,971059.698,4,500,6,
break,html.Screen,10_5_1,2023-11-15T19:54:33.657Z,,,,,,,,,,NaN,,,,,,,,low,low,,,,,,false,,,,false,971040.700000003,971040.599999994,,971040.5,,971059.698,4,500,,
break_continue,html.Screen,10_5_2,2023-11-15T19:54:33.658Z,,,,,,,,,,NaN,,,,,,,,low,low,,,,,,false,,,,false,971040.900000006,971040.900000006,,971040.799999997,,971059.698,4,500,,
sequence,flow.Sequence,10_5,2023-11-15T19:54:33.658Z,,,,,,,,,,7882.56400000595,completion,,,,,,,low,low,,,,,,false,,,,false,971041,971040.900000006,963141.749,963153,963158.336,971059.698,4,500,,
trial,html.Screen,10_6_0,2023-11-15T19:54:39.402Z,,,,1,0.0198696495649504,-0.0387952353063878,,true,hh,5725.002000003005,response,0.9516801706350568,0.8481275050999839,-1.0149999999999995,0.601233250234891,0.6064669389296276,-1.041263157817744,high,high,,ISIC_6735970.JPG,9,ISIC_3207651.JPG,269,false,hh,keypress(i),0,false,976785.099999994,976784.700000003,971024.932,971041.099999994,971059.698,976791.661,4,500,7,
break,html.Screen,10_6_1,2023-11-15T19:54:39.403Z,,,,,,,,,,NaN,,,,,,,,high,high,,,,,,false,,,,false,976786,976785.599999994,,976785.299999997,,976791.661,4,500,,
break_continue,html.Screen,10_6_2,2023-11-15T19:54:39.403Z,,,,,,,,,,NaN,,,,,,,,high,high,,,,,,false,,,,false,976786.700000003,976786.400000006,,976786.200000003,,976791.661,4,500,,
sequence,flow.Sequence,10_6,2023-11-15T19:54:39.404Z,,,,,,,,,,5726.702000005986,completion,,,,,,,high,high,,,,,,false,,,,false,976786.900000006,976786.400000006,971024.932,971041,971059.698,976791.661,4,500,,
trial,html.Screen,10_7_0,2023-11-15T19:54:44.257Z,,,,1,-0.0633291412406864,0.0446580444004686,,false,hh,4848.638999997056,response,0.6784074548484478,0.8481275050999839,-1.0149999999999995,0.5955893889973007,0.6064669389296276,-1.041263157817744,high,high,,ISIC_0010718.JPG,8,ISIC_5315062.JPG,269,false,hl,keypress(j),0,false,981640.400000006,981640.299999997,976774.889,976787,976791.661,981659.685,4,500,8,
break,html.Screen,10_7_1,2023-11-15T19:54:44.258Z,,,,,,,,,,NaN,,,,,,,,high,high,,,,,,false,,,,false,981640.799999997,981640.700000003,,981640.5,,981659.685,4,500,,
break_continue,html.Screen,10_7_2,2023-11-15T19:54:44.258Z,,,,,,,,,,NaN,,,,,,,,high,high,,,,,,false,,,,false,981641,981640.900000006,,981640.900000006,,981659.685,4,500,,
sequence,flow.Sequence,10_7,2023-11-15T19:54:44.258Z,,,,,,,,,,4849.239000005997,completion,,,,,,,high,high,,,,,,false,,,,false,981641.200000003,981640.900000006,976774.889,976787,976791.661,981659.685,4,500,,
trial,html.Screen,10_8_0,2023-11-15T19:54:48.601Z,,,,1,0.001445457736793,0.0165307427449982,,false,hl,4324.614999996964,response,0.7079689798840642,0.8481275050999839,-1.0149999999999995,-0.9053957126199562,0.6064669389296276,-1.041263157817744,high,low,,ISIC_0027350.JPG,9,ISIC_0058863.JPG,34,false,ll,keypress(f),0,false,985984.5,985984.299999997,981625.021,981641.200000003,981659.685,985991.653,4,500,9,
break,html.Screen,10_8_1,2023-11-15T19:54:48.602Z,,,,,,,,,,NaN,,,,,,,,high,low,,,,,,false,,,,false,985984.900000006,985984.799999997,,985984.5,,985991.653,4,500,,
break_continue,html.Screen,10_8_2,2023-11-15T19:54:48.602Z,,,,,,,,,,NaN,,,,,,,,high,low,,,,,,false,,,,false,985985.099999994,985985,,985984.900000006,,985991.653,4,500,,
sequence,flow.Sequence,10_8,2023-11-15T19:54:48.602Z,,,,,,,,,,4325.314999999944,completion,,,,,,,high,low,,,,,,false,,,,false,985985.200000003,985985,981625.021,981641.200000003,981659.685,985991.653,4,500,,
trial,html.Screen,10_9_0,2023-11-15T19:54:53.346Z,,,,1,0.0349011973222753,-0.065080527952874,,true,hh,4736.64699999697,response,0.7030874226827594,0.8481275050999839,-1.0149999999999995,0.5949053462458235,0.6064669389296276,-1.041263157817744,high,high,,ISIC_3898738.JPG,9,ISIC_9465061.JPG,269,false,hh,keypress(i),0,false,990728.400000006,990728.299999997,985974.952,985985.299999997,985991.653,990741.747,4,500,10,
break,html.Screen,10_9_1,2023-11-15T19:54:53.346Z,,,,,,,,,,NaN,,,,,,,,high,high,,,,,,false,,,,false,990728.900000006,990728.900000006,,990728.599999994,,990741.747,4,500,,
break_continue,html.Screen,10_9_2,2023-11-15T19:54:53.347Z,,,,,,,,,,NaN,,,,,,,,high,high,,,,,,false,,,,false,990729.299999997,990729.099999994,,990729,,990741.747,4,500,,
sequence,flow.Sequence,10_9,2023-11-15T19:54:53.347Z,,,,,,,,,,4737.44699999399,completion,,,,,,,high,high,,,,,,false,,,,false,990729.400000006,990729.099999994,985974.952,985985.299999997,985991.653,990741.747,4,500,,
trial,html.Screen,10_10_0,2023-11-15T19:54:59.603Z,,,,1,-0.0718464495991687,0.0429653518314044,,false,hh,6243.352999994066,response,0.7664755098119371,0.8481275050999839,-1.0149999999999995,0.43225104387026,0.6064669389296276,-1.041263157817744,high,high,,ISIC_0028597.JPG,9,ISIC_0375034.JPG,269,false,ll,keypress(f),0,false,996985.299999997,996985.099999994,990724.934,990729.400000006,990741.747,996991.731,4,500,11,
break,html.Screen,10_10_1,2023-11-15T19:54:59.603Z,,,,,,,,,,NaN,,,,,,,,high,high,,,,,,false,,,,false,996986,996985.799999997,,996985.5,,996991.731,4,500,,
break_continue,html.Screen,10_10_2,2023-11-15T19:54:59.604Z,,,,,,,,,,NaN,,,,,,,,high,high,,,,,,false,,,,false,996986.599999994,996986.400000006,,996986.200000003,,996991.731,4,500,,
sequence,flow.Sequence,10_10,2023-11-15T19:54:59.604Z,,,,,,,,,,6244.6530000059865,completion,,,,,,,high,high,,,,,,false,,,,false,996986.799999997,996986.400000006,990724.934,990729.400000006,990741.747,996991.731,4,500,,
trial,html.Screen,10_11_0,2023-11-15T19:55:05.489Z,,,,1,0.0145962222125655,0.0525495878509009,,true,ll,5880.068999996991,response,-1.008831959223626,0.8481275050999839,-1.0149999999999995,-0.9823409524664072,0.6064669389296276,-1.041263157817744,low,low,,ISIC_4248013.JPG,9,ISIC_1579745.JPG,98,false,ll,keypress(f),0,false,1002871.900000006,1002871.799999997,996975.01,996986.900000006,996991.731,1002875.036,4,500,12,
break,html.Screen,10_11_1,2023-11-15T19:55:05.490Z,,,,,,,,,,NaN,,,,,,,,low,low,,,,,,false,,,,false,1002872.200000003,1002872.099999994,,1002872,,1002875.036,4,500,,
break_continue,html.Screen,10_11_2,2023-11-15T19:55:05.490Z,,,,,,,,,,NaN,,,,,,,,low,low,,,,,,false,,,,false,1002872.400000006,1002872.299999997,,1002872.200000003,,1002875.036,4,500,,
sequence,flow.Sequence,10_11,2023-11-15T19:55:05.490Z,,,,,,,,,,5880.568999996991,completion,,,,,,,low,low,,,,,,false,,,,false,1002872.5,1002872.299999997,996975.01,996986.799999997,996991.731,1002875.036,4,500,,
trial,html.Screen,10_12_0,2023-11-15T19:55:11.859Z,,,,1,-0.0257631352671967,-0.0202837002774028,,false,hh,6366.063999994076,response,0.9403609337171924,0.8481275050999839,-1.0149999999999995,0.5537821947802791,0.6064669389296276,-1.041263157817744,high,high,,ISIC_0032797.JPG,9,ISIC_0011446.JPG,269,false,lh,keypress(e),0,false,1009241.400000006,1009241.099999994,1002858.336,1002872.5,1002875.036,1009258.391,4,500,13,
break,html.Screen,10_12_1,2023-11-15T19:55:11.859Z,,,,,,,,,,NaN,,,,,,,,high,high,,,,,,false,,,,false,1009242,1009241.799999997,,1009241.599999994,,1009258.391,4,500,,
break_continue,html.Screen,10_12_2,2023-11-15T19:55:11.860Z,,,,,,,,,,NaN,,,,,,,,high,high,,,,,,false,,,,false,1009242.599999994,1009242.299999997,,1009242.200000003,,1009258.391,4,500,,
sequence,flow.Sequence,10_12,2023-11-15T19:55:11.860Z,,,,,,,,,,6367.263999997056,completion,,,,,,,high,high,,,,,,false,,,,false,1009242.799999997,1009242.299999997,1002858.336,1002872.5,1002875.036,1009258.391,4,500,,
trial,html.Screen,10_13_0,2023-11-15T19:55:20.362Z,,,,1,0.0199950873045219,0.0172506388509166,,true,lh,8485.908999997075,response,-1.0211976128368023,0.8481275050999839,-1.0149999999999995,0.4372803044980742,0.6064669389296276,-1.041263157817744,low,high,,ISIC_0029906.JPG,9,ISIC_2021175.JPG,57,false,lh,keypress(e),0,false,1017744.400000006,1017744.299999997,1009241.877,1009243,1009258.391,1017758.477,4,500,14,
break,html.Screen,10_13_1,2023-11-15T19:55:20.362Z,,,,,,,,,,NaN,,,,,,,,low,high,,,,,,false,,,,false,1017744.900000006,1017744.799999997,,1017744.5,,1017758.477,4,500,,
break_continue,html.Screen,10_13_2,2023-11-15T19:55:20.363Z,,,,,,,,,,NaN,,,,,,,,low,high,,,,,,false,,,,false,1017745.299999997,1017745.099999994,,1017744.900000006,,1017758.477,4,500,,
sequence,flow.Sequence,10_13,2023-11-15T19:55:20.363Z,,,,,,,,,,8486.708999994094,completion,,,,,,,low,high,,,,,,false,,,,false,1017745.299999997,1017745.099999994,1009241.877,1009243,1009258.391,1017758.477,4,500,,
trial,html.Screen,10_14_0,2023-11-15T19:55:25.163Z,,,,1,0.0603356922898045,0.0630785445312754,,true,lh,4786.523000000045,response,-0.8493817247965978,0.8481275050999839,-1.0149999999999995,0.6545324227286122,0.6064669389296276,-1.041263157817744,low,high,,ISIC_9996128.JPG,9,ISIC_0030219.JPG,57,false,lh,keypress(e),0,false,1022545.200000003,1022545,1017741.76,1017745.400000006,1017758.477,1022558.657,4,500,15,
break,html.Screen,10_14_1,2023-11-15T19:55:25.164Z,,,,,,,,,,NaN,,,,,,,,low,high,,,,,,false,,,,false,1022546.099999994,1022545.900000006,,1022545.599999994,,1022558.657,4,500,,
break_continue,html.Screen,10_14_2,2023-11-15T19:55:25.164Z,,,,,,,,,,NaN,,,,,,,,low,high,,,,,,false,,,,false,1022546.900000006,1022546.599999994,,1022546.400000006,,1022558.657,4,500,,
sequence,flow.Sequence,10_14,2023-11-15T19:55:25.165Z,,,,,,,,,,4788.122999994084,completion,,,,,,,low,high,,,,,,false,,,,false,1022547.099999994,1022546.599999994,1017741.76,1017745.400000006,1017758.477,1022558.657,4,500,,
trial,html.Screen,10_15_0,2023-11-15T19:55:30.210Z,,,,1,-0.0286056110007553,-0.036125199756515,,false,hh,5033.543000002974,response,0.9401803902317778,0.8481275050999839,-1.0149999999999995,0.6920617394377806,0.6064669389296276,-1.041263157817744,high,high,,ISIC_6535558.JPG,9,ISIC_0055781.JPG,269,false,hl,keypress(j),0,false,1027592.400000006,1027592.200000003,1022541.879,1022547.200000003,1022558.657,1027608.677,4,500,16,
break,html.Screen,10_15_1,2023-11-15T19:55:30.210Z,,,,,,,,,,NaN,,,,,,,,high,high,,,,,,false,,,,false,1027592.599999994,1027592.599999994,,1027592.400000006,,1027608.677,4,500,,
break_continue,html.Screen,10_15_2,2023-11-15T19:55:30.210Z,,,,,,,,,,NaN,,,,,,,,high,high,,,,,,false,,,,false,1027593,1027592.799999997,,1027592.799999997,,1027608.677,4,500,,
sequence,flow.Sequence,10_15,2023-11-15T19:55:30.210Z,,,,,,,,,,5034.142999997013,completion,,,,,,,high,high,,,,,,false,,,,false,1027593,1027592.799999997,1022541.879,1022547.200000003,1022558.657,1027608.677,4,500,,
trial,html.Screen,10_16_0,2023-11-15T19:55:37.682Z,,,,1,-0.0423567271646023,-0.0380126882576854,,false,lh,7455.922999994014,response,-0.9047692809302572,0.8481275050999839,-1.0149999999999995,0.4389795572719643,0.6064669389296276,-1.041263157817744,low,high,,ISIC_0046932.JPG,10,ISIC_0031835.JPG,57,false,hh,keypress(i),0,false,1035064.700000003,1035064.599999994,1027591.568,1027593,1027608.677,1035075.068,4,500,17,
break,html.Screen,10_16_1,2023-11-15T19:55:37.683Z,,,,,,,,,,NaN,,,,,,,,low,high,,,,,,false,,,,false,1035065.099999994,1035065.099999994,,1035064.900000006,,1035075.068,4,500,,
break_continue,html.Screen,10_16_2,2023-11-15T19:55:37.683Z,,,,,,,,,,NaN,,,,,,,,low,high,,,,,,false,,,,false,1035065.400000006,1035065.299999997,,1035065.200000003,,1035075.068,4,500,,
sequence,flow.Sequence,10_16,2023-11-15T19:55:37.683Z,,,,,,,,,,7456.622999996995,completion,,,,,,,low,high,,,,,,false,,,,false,1035065.5,1035065.299999997,1027591.568,1027593,1027608.677,1035075.068,4,500,,
trial,html.Screen,10_17_0,2023-11-15T19:55:45.162Z,,,,1,-0.0105349256029223,0.0723574625425557,,true,hl,7469.13200000301,response,0.6588697713356909,0.8481275050999839,-1.0149999999999995,-0.903230705453214,0.6064669389296276,-1.041263157817744,high,low,,ISIC_0058998.JPG,10,ISIC_0061454.JPG,34,false,hl,keypress(j),0,false,1042544.299999997,1042544.200000003,1035058.531,1035065.5,1035075.068,1042558.564,4,500,18,
break,html.Screen,10_17_1,2023-11-15T19:55:45.162Z,,,,,,,,,,NaN,,,,,,,,high,low,,,,,,false,,,,false,1042544.799999997,1042544.700000003,,1042544.400000006,,1042558.564,4,500,,
break_continue,html.Screen,10_17_2,2023-11-15T19:55:45.163Z,,,,,,,,,,NaN,,,,,,,,high,low,,,,,,false,,,,false,1042545.099999994,1042544.900000006,,1042544.900000006,,1042558.564,4,500,,
sequence,flow.Sequence,10_17,2023-11-15T19:55:45.163Z,,,,,,,,,,7469.83200000599,completion,,,,,,,high,low,,,,,,false,,,,false,1042545.200000003,1042544.900000006,1035058.531,1035065.5,1035075.068,1042558.564,4,500,,
trial,html.Screen,10_18_0,2023-11-15T19:55:50.410Z,,,,1,0.0065172941585523,-0.0118857043117315,,false,ll,5234.336000005947,response,-0.8171109532905281,0.8481275050999839,-1.0149999999999995,-0.8757752877102069,0.6064669389296276,-1.041263157817744,low,low,,ISIC_6119202.JPG,9,ISIC_0283506.JPG,98,false,lh,keypress(e),0,false,1047793.099999994,1047792.900000006,1042541.728,1042545.200000003,1042558.564,1047808.634,4,500,19,
break,html.Screen,10_18_1,2023-11-15T19:55:50.411Z,,,,,,,,,,NaN,,,,,,,,low,low,,,,,,false,,,,false,1047793.700000003,1047793.5,,1047793.299999997,,1047808.634,4,500,,
break_continue,html.Screen,10_18_2,2023-11-15T19:55:50.412Z,,,,,,,,,,NaN,,,,,,,,low,low,,,,,,false,,,,false,1047794.200000003,1047794,,1047793.799999997,,1047808.634,4,500,,
sequence,flow.Sequence,10_18,2023-11-15T19:55:50.412Z,,,,,,,,,,5235.435999999987,completion,,,,,,,low,low,,,,,,false,,,,false,1047794.400000006,1047794,1042541.728,1042545.200000003,1042558.564,1047808.634,4,500,,
trial,html.Screen,10_19_0,2023-11-15T19:55:55.675Z,,,,1,0.0198696495649504,-0.0387952353063878,,false,hl,5248.165999997058,response,0.678931451947854,0.8481275050999839,-1.0149999999999995,-0.9976887721741746,0.6064669389296276,-1.041263157817744,high,low,,ISIC_6735970.JPG,8,ISIC_1137915.JPG,34,false,hh,keypress(i),0,false,1053057,1053056.799999997,1047791.687,1047794.5,1047808.634,1053076.136,4,500,20,
break,html.Screen,10_19_1,2023-11-15T19:55:55.675Z,,,,,,,,,,NaN,,,,,,,,high,low,,,,,,false,,,,false,1053057.799999997,1053057.700000003,,1053057.299999997,,1053076.136,4,500,,
break_continue,html.Screen,10_19_2,2023-11-15T19:55:55.676Z,,,,,,,,,,NaN,,,,,,,,high,low,,,,,,false,,,,false,1053058.5,1053058.099999994,,1053058,,1053076.136,4,500,,
sequence,flow.Sequence,10_19,2023-11-15T19:55:55.676Z,,,,,,,,,,5249.465999994078,completion,,,,,,,high,low,,,,,,false,,,,false,1053058.700000003,1053058.099999994,1047791.687,1047794.400000006,1047808.634,1053076.136,4,500,,
trial,html.Screen,10_20_0,2023-11-15T19:56:01.234Z,,,,1,-0.0009714874637896,0.0174815595031679,,false,hh,5539.963999994099,response,0.6552931549886175,0.8481275050999839,-1.0149999999999995,0.561058294770815,0.6064669389296276,-1.041263157817744,high,high,,ISIC_9848743.JPG,9,ISIC_7738955.JPG,269,false,hl,keypress(j),0,false,1058616.200000003,1058616.099999994,1053041.78,1053058.799999997,1053076.136,1058625.088,4,500,21,
break,html.Screen,10_20_1,2023-11-15T19:56:01.234Z,,,,,,,,,,NaN,,,,,,,,high,high,,,,,,false,,,,false,1058616.5,1058616.400000006,,1058616.299999997,,1058625.088,4,500,,
break_continue,html.Screen,10_20_2,2023-11-15T19:56:01.234Z,,,,,,,,,,NaN,,,,,,,,high,high,,,,,,false,,,,false,1058616.799999997,1058616.700000003,,1058616.599999994,,1058625.088,4,500,,
sequence,flow.Sequence,10_20,2023-11-15T19:56:01.234Z,,,,,,,,,,5540.56400000304,completion,,,,,,,high,high,,,,,,false,,,,false,1058616.799999997,1058616.700000003,1053041.78,1053058.799999997,1053076.136,1058625.088,4,500,,
trial,html.Screen,10_21_0,2023-11-15T19:56:08.193Z,,,,1,0.0175203912019758,0.0427513576747051,,false,hh,6950.812000005972,response,0.7914343157165398,0.8481275050999839,-1.0149999999999995,0.7781630990015259,0.6064669389296276,-1.041263157817744,high,high,,ISIC_0056292.JPG,9,ISIC_0026081.JPG,269,false,lh,keypress(e),0,false,1065575.900000006,1065575.900000006,1058608.448,1058616.799999997,1058625.088,1065591.815,4,500,22,
break,html.Screen,10_21_1,2023-11-15T19:56:08.194Z,,,,,,,,,,NaN,,,,,,,,high,high,,,,,,false,,,,false,1065576.299999997,1065576.200000003,,1065576.099999994,,1065591.815,4,500,,
break_continue,html.Screen,10_21_2,2023-11-15T19:56:08.194Z,,,,,,,,,,NaN,,,,,,,,high,high,,,,,,false,,,,false,1065576.599999994,1065576.400000006,,1065576.400000006,,1065591.815,4,500,,
sequence,flow.Sequence,10_21,2023-11-15T19:56:08.194Z,,,,,,,,,,6951.312000005972,completion,,,,,,,high,high,,,,,,false,,,,false,1065576.700000003,1065576.400000006,1058608.448,1058616.799999997,1058625.088,1065591.815,4,500,,
trial,html.Screen,10_22_0,2023-11-15T19:56:17.386Z,,,,1,0.0395587463147856,-0.0645068093068572,,false,hh,9176.484999997076,response,0.8145814609211571,0.8481275050999839,-1.0149999999999995,0.7591292272911163,0.6064669389296276,-1.041263157817744,high,high,,ISIC_0010807.JPG,10,ISIC_0011434.JPG,269,false,hl,keypress(j),0,false,1074768.400000006,1074768.299999997,1065575.252,1065576.700000003,1065591.815,1074775.143,4,500,23,
break,html.Screen,10_22_1,2023-11-15T19:56:17.386Z,,,,,,,,,,NaN,,,,,,,,high,high,,,,,,false,,,,false,1074768.799999997,1074768.599999994,,1074768.5,,1074775.143,4,500,,
break_continue,html.Screen,10_22_2,2023-11-15T19:56:17.386Z,,,,,,,,,,NaN,,,,,,,,high,high,,,,,,false,,,,false,1074768.900000006,1074768.799999997,,1074768.799999997,,1074775.143,4,500,,
sequence,flow.Sequence,10_22,2023-11-15T19:56:17.386Z,,,,,,,,,,9176.984999997076,completion,,,,,,,high,high,,,,,,false,,,,false,1074769,1074768.799999997,1065575.252,1065576.700000003,1065591.815,1074775.143,4,500,,
trial,html.Screen,10_23_0,2023-11-15T19:56:25.050Z,,,,1,-0.0524649813000588,0.0155452034299028,,true,hh,7657.057000003057,response,0.7861983257676892,0.8481275050999839,-1.0149999999999995,0.4845680770701537,0.6064669389296276,-1.041263157817744,high,high,,ISIC_0030087.JPG,9,ISIC_6225409.JPG,269,false,hh,keypress(i),0,false,1082432.299999997,1082432.200000003,1074758.336,1074769.099999994,1074775.143,1082441.795,4,500,24,
break,html.Screen,10_23_1,2023-11-15T19:56:25.050Z,,,,,,,,,,NaN,,,,,,,,high,high,,,,,,false,,,,false,1082432.700000003,1082432.599999994,,1082432.400000006,,1082441.795,4,500,,
break_continue,html.Screen,10_23_2,2023-11-15T19:56:25.050Z,,,,,,,,,,NaN,,,,,,,,high,high,,,,,,false,,,,false,1082433,1082432.799999997,,1082432.799999997,,1082441.795,4,500,,
sequence,flow.Sequence,10_23,2023-11-15T19:56:25.051Z,,,,,,,,,,7657.656999997096,completion,,,,,,,high,high,,,,,,false,,,,false,1082433,1082432.799999997,1074758.336,1074769,1074775.143,1082441.795,4,500,,
trial,html.Screen,10_24_0,2023-11-15T19:56:29.146Z,,,,1,0.0448994009031783,-0.0708723658092544,,true,ll,4086.5049999970943,response,-0.8775389671837809,0.8481275050999839,-1.0149999999999995,-0.97697295261856,0.6064669389296276,-1.041263157817744,low,low,,ISIC_0025238.JPG,10,ISIC_0071957.JPG,98,false,ll,keypress(f),0,false,1086528.400000006,1086528.299999997,1082424.883,1082433.099999994,1082441.795,1086542.018,4,500,25,
break,html.Screen,10_24_1,2023-11-15T19:56:29.146Z,,,,,,,,,,NaN,,,,,,,,low,low,,,,,,false,,,,false,1086528.700000003,1086528.700000003,,1086528.5,,1086542.018,4,500,,
break_continue,html.Screen,10_24_2,2023-11-15T19:56:29.146Z,,,,,,,,,,NaN,,,,,,,,low,low,,,,,,false,,,,false,1086529,1086528.900000006,,1086528.799999997,,1086542.018,4,500,,
sequence,flow.Sequence,10_24,2023-11-15T19:56:29.146Z,,,,,,,,,,4087.105000006035,completion,,,,,,,low,low,,,,,,false,,,,false,1086529,1086528.900000006,1082424.883,1082433.099999994,1082441.795,1086542.018,4,500,,
trial,html.Screen,10_25_0,2023-11-15T19:56:37.850Z,,,,1,0.055893254685579,0.0187125006410995,,true,ll,8690.682000003057,response,-0.8152074889040049,0.8481275050999839,-1.0149999999999995,-0.8626913703401816,0.6064669389296276,-1.041263157817744,low,low,,ISIC_0011779.JPG,9,ISIC_4745475.JPG,98,false,ll,keypress(f),0,false,1095233,1095232.700000003,1086525.13,1086529.099999994,1086542.018,1095241.826,4,500,26,
break,html.Screen,10_25_1,2023-11-15T19:56:37.851Z,,,,,,,,,,NaN,,,,,,,,low,low,,,,,,false,,,,false,1095233.5,1095233.400000006,,1095233.099999994,,1095241.826,4,500,,
break_continue,html.Screen,10_25_2,2023-11-15T19:56:37.851Z,,,,,,,,,,NaN,,,,,,,,low,low,,,,,,false,,,,false,1095233.900000006,1095233.700000003,,1095233.599999994,,1095241.826,4,500,,
sequence,flow.Sequence,10_25,2023-11-15T19:56:37.852Z,,,,,,,,,,8691.682000003057,completion,,,,,,,low,low,,,,,,false,,,,false,1095234,1095233.700000003,1086525.13,1086529.099999994,1086542.018,1095241.826,4,500,,
trial,html.Screen,10_26_0,2023-11-15T19:56:42.034Z,,,,1,,0.0102871556606504,,true,hh,4174.273999994155,response,1.0432766299638545,0.8481275050999839,-1.0149999999999995,0.5794964988281157,0.6064669389296276,-1.041263157817744,high,high,,ISIC_1805163.JPG,10,ISIC_0067873.JPG,269,false,hh,keypress(i),0,false,1099416.200000003,1099416.099999994,1095225.046,1095234.200000003,1095241.826,1099425.185,4,500,27,
break,html.Screen,10_26_1,2023-11-15T19:56:42.034Z,,,,,,,,,,NaN,,,,,,,,high,high,,,,,,false,,,,false,1099416.5,1099416.400000006,,1099416.299999997,,1099425.185,4,500,,
break_continue,html.Screen,10_26_2,2023-11-15T19:56:42.034Z,,,,,,,,,,NaN,,,,,,,,high,high,,,,,,false,,,,false,1099416.700000003,1099416.700000003,,1099416.599999994,,1099425.185,4,500,,
sequence,flow.Sequence,10_26,2023-11-15T19:56:42.034Z,,,,,,,,,,4174.874000003096,completion,,,,,,,high,high,,,,,,false,,,,false,1099416.799999997,1099416.700000003,1095225.046,1095234.099999994,1095241.826,1099425.185,4,500,,
trial,html.Screen,10_27_0,2023-11-15T19:56:48.082Z,,,,1,-0.0572065166118795,0.0247840126545907,,true,hh,6039.215000005905,response,0.8781528353785006,0.8481275050999839,-1.0149999999999995,0.4206908763427013,0.6064669389296276,-1.041263157817744,high,high,,ISIC_0024565.JPG,9,ISIC_0024607.JPG,269,false,hh,keypress(i),0,false,1105464.5,1105464.400000006,1099408.646,1099416.799999997,1099425.185,1105475.341,4,500,28,
break,html.Screen,10_27_1,2023-11-15T19:56:48.082Z,,,,,,,,,,NaN,,,,,,,,high,high,,,,,,false,,,,false,1105464.900000006,1105464.900000006,,1105464.599999994,,1105475.341,4,500,,
break_continue,html.Screen,10_27_2,2023-11-15T19:56:48.083Z,,,,,,,,,,NaN,,,,,,,,high,high,,,,,,false,,,,false,1105465.099999994,1105465.099999994,,1105465,,1105475.341,4,500,,
sequence,flow.Sequence,10_27,2023-11-15T19:56:48.083Z,,,,,,,,,,6039.914999993984,completion,,,,,,,high,high,,,,,,false,,,,false,1105465.200000003,1105465.099999994,1099408.646,1099416.799999997,1099425.185,1105475.341,4,500,,
trial,html.Screen,10_28_0,2023-11-15T19:56:52.587Z,,,,1,0.0632965338582772,0.0107588824722911,,true,ll,4493.658999999985,response,-0.979674241817633,0.8481275050999839,-1.0149999999999995,-0.8567251746816678,0.6064669389296276,-1.041263157817744,low,low,,ISIC_1265755.JPG,9,ISIC_0006757.JPG,98,false,ll,keypress(f),0,false,1109969.099999994,1109969,1105458.661,1105465.299999997,1105475.341,1109975.224,4,500,29,
break,html.Screen,10_28_1,2023-11-15T19:56:52.588Z,,,,,,,,,,NaN,,,,,,,,low,low,,,,,,false,,,,false,1109969.900000006,1109969.700000003,,1109969.400000006,,1109975.224,4,500,,
break_continue,html.Screen,10_28_2,2023-11-15T19:56:52.588Z,,,,,,,,,,NaN,,,,,,,,low,low,,,,,,false,,,,false,1109970.299999997,1109970.099999994,,1109970,,1109975.224,4,500,,
sequence,flow.Sequence,10_28,2023-11-15T19:56:52.588Z,,,,,,,,,,4494.758999994025,completion,,,,,,,low,low,,,,,,false,,,,false,1109970.5,1109970.099999994,1105458.661,1105465.299999997,1105475.341,1109975.224,4,500,,
trial,html.Screen,10_29_0,2023-11-15T19:57:01.018Z,,,,1,-0.0480293506029756,-0.0744454320613987,,false,hl,8425.27600000007,response,0.6739044665672069,0.8481275050999839,-1.0149999999999995,-0.908941600707678,0.6064669389296276,-1.041263157817744,high,low,,ISIC_1798471.JPG,10,ISIC_2244564.JPG,34,false,ll,keypress(f),0,false,1118400.599999994,1118400.5,1109958.707,1109970.599999994,1109975.224,1118408.53,4,500,30,
break,html.Screen,10_29_1,2023-11-15T19:57:01.019Z,,,,,,,,,,NaN,,,,,,,,high,low,,,,,,false,,,,false,1118401.099999994,1118401,,1118400.700000003,,1118408.53,4,500,,
break_continue,html.Screen,10_29_2,2023-11-15T19:57:01.019Z,,,,,,,,,,NaN,,,,,,,,high,low,,,,,,false,,,,false,1118401.400000006,1118401.299999997,,1118401.200000003,,1118408.53,4,500,,
sequence,flow.Sequence,10_29,2023-11-15T19:57:01.019Z,,,,,,,,,,8426.07599999709,completion,,,,,,,high,low,,,,,,false,,,,false,1118401.599999994,1118401.299999997,1109958.707,1109970.599999994,1109975.224,1118408.53,4,500,,
trial,html.Screen,10_30_0,2023-11-15T19:57:05.674Z,,,,1,0.055893254685579,0.0187125006410995,,true,hh,4647.769999996992,response,0.7278276920565994,0.8481275050999839,-1.0149999999999995,0.6165070644291499,0.6064669389296276,-1.041263157817744,high,high,,ISIC_0011779.JPG,9,ISIC_0011276.JPG,269,false,hh,keypress(i),0,false,1123056.400000006,1123056.299999997,1118391.767,1118401.700000003,1118408.53,1123058.536,4,500,31,
break,html.Screen,10_30_1,2023-11-15T19:57:05.674Z,,,,,,,,,,NaN,,,,,,,,high,high,,,,,,false,,,,false,1123056.700000003,1123056.700000003,,1123056.5,,1123058.536,4,500,,
break_continue,html.Screen,10_30_2,2023-11-15T19:57:05.675Z,,,,,,,,,,NaN,,,,,,,,high,high,,,,,,false,,,,false,1123057,1123056.799999997,,1123056.799999997,,1123058.536,4,500,,
sequence,flow.Sequence,10_30,2023-11-15T19:57:05.675Z,,,,,,,,,,4648.269999996992,completion,,,,,,,high,high,,,,,,false,,,,false,1123057,1123056.799999997,1118391.767,1118401.700000003,1118408.53,1123058.536,4,500,,
trial,html.Screen,10_31_0,2023-11-15T19:57:12.570Z,,,,1,-0.0480293506029756,-0.0744454320613987,,true,lh,6893.96399999992,response,-0.8644472795202904,0.8481275050999839,-1.0149999999999995,0.6717597063424736,0.6064669389296276,-1.041263157817744,low,high,,ISIC_1798471.JPG,8,ISIC_0057892.JPG,57,false,lh,keypress(e),0,false,1129952.599999994,1129952.5,1123041.909,1123057.099999994,1123058.536,1129958.579,4,500,32,
break,html.Screen,10_31_1,2023-11-15T19:57:12.571Z,,,,,,,,,,NaN,,,,,,,,low,high,,,,,,false,,,,false,1129953.200000003,1129953.099999994,,1129952.799999997,,1129958.579,4,500,,
break_continue,html.Screen,10_31_2,2023-11-15T19:57:12.571Z,,,,,,,,,,NaN,,,,,,,,low,high,,,,,,false,,,,false,1129953.700000003,1129953.5,,1129953.299999997,,1129958.579,4,500,,
sequence,flow.Sequence,10_31,2023-11-15T19:57:12.572Z,,,,,,,,,,6894.96399999992,completion,,,,,,,low,high,,,,,,false,,,,false,1129953.799999997,1129953.5,1123041.909,1123057.099999994,1123058.536,1129958.579,4,500,,
trial,html.Screen,10_32_0,2023-11-15T19:57:19.602Z,,,,1,-0.0501343550751953,-0.0101991443736165,,true,hh,7025.921000000089,response,0.9244658776825396,0.8481275050999839,-1.0149999999999995,0.6582725813734679,0.6064669389296276,-1.041263157817744,high,high,,ISIC_4232761.JPG,9,ISIC_0030833.JPG,269,false,hh,keypress(i),0,false,1136984.799999997,1136984.5,1129941.965,1129953.900000006,1129958.579,1136991.895,4,500,33,
break,html.Screen,10_32_1,2023-11-15T19:57:19.603Z,,,,,,,,,,NaN,,,,,,,,high,high,,,,,,false,,,,false,1136985.299999997,1136985.099999994,,1136984.900000006,,1136991.895,4,500,,
break_continue,html.Screen,10_32_2,2023-11-15T19:57:19.604Z,,,,,,,,,,NaN,,,,,,,,high,high,,,,,,false,,,,false,1136985.700000003,1136985.5,,1136985.400000006,,1136991.895,4,500,,
sequence,flow.Sequence,10_32,2023-11-15T19:57:19.604Z,,,,,,,,,,7026.921000000089,completion,,,,,,,high,high,,,,,,false,,,,false,1136985.900000006,1136985.5,1129941.965,1129953.900000006,1129958.579,1136991.895,4,500,,
trial,html.Screen,10_33_0,2023-11-15T19:57:26.386Z,,,,1,0.0374659946425444,0.0086043094957617,,false,ll,6776.104999999981,response,-0.9057325824285034,0.8481275050999839,-1.0149999999999995,-1.240757191095736,0.6064669389296276,-1.041263157817744,low,low,,ISIC_0033051.JPG,9,ISIC_0056689.JPG,98,false,hl,keypress(j),0,false,1143768.099999994,1143768,1136975.228,1136986,1136991.895,1143775.211,4,500,34,
break,html.Screen,10_33_1,2023-11-15T19:57:26.386Z,,,,,,,,,,NaN,,,,,,,,low,low,,,,,,false,,,,false,1143768.400000006,1143768.299999997,,1143768.200000003,,1143775.211,4,500,,
break_continue,html.Screen,10_33_2,2023-11-15T19:57:26.386Z,,,,,,,,,,NaN,,,,,,,,low,low,,,,,,false,,,,false,1143768.700000003,1143768.599999994,,1143768.599999994,,1143775.211,4,500,,
sequence,flow.Sequence,10_33,2023-11-15T19:57:26.386Z,,,,,,,,,,6776.704999994021,completion,,,,,,,low,low,,,,,,false,,,,false,1143768.700000003,1143768.599999994,1136975.228,1136986,1136991.895,1143775.211,4,500,,
trial,html.Screen,10_34_0,2023-11-15T19:57:31.226Z,,,,1,-0.0480293506029756,-0.0744454320613987,,false,ll,4833.289000000106,response,-1.1100289789666156,0.8481275050999839,-1.0149999999999995,-0.9747349048723576,0.6064669389296276,-1.041263157817744,low,low,,ISIC_1798471.JPG,10,ISIC_0026552.JPG,98,false,lh,keypress(e),0,false,1148608.599999994,1148608.5,1143758.649,1143768.799999997,1143775.211,1148625.494,4,500,35,
break,html.Screen,10_34_1,2023-11-15T19:57:31.227Z,,,,,,,,,,NaN,,,,,,,,low,low,,,,,,false,,,,false,1148609.099999994,1148609.099999994,,1148608.799999997,,1148625.494,4,500,,
break_continue,html.Screen,10_34_2,2023-11-15T19:57:31.227Z,,,,,,,,,,NaN,,,,,,,,low,low,,,,,,false,,,,false,1148609.400000006,1148609.299999997,,1148609.200000003,,1148625.494,4,500,,
sequence,flow.Sequence,10_34,2023-11-15T19:57:31.227Z,,,,,,,,,,4834.088999997126,completion,,,,,,,low,low,,,,,,false,,,,false,1148609.5,1148609.299999997,1143758.649,1143768.799999997,1143775.211,1148625.494,4,500,,
trial,html.Screen,10_35_0,2023-11-15T19:57:39.074Z,,,,1,-0.0703653376600499,0.0206740478999942,,true,ll,7830.805999997072,response,-0.8775389671837809,0.8481275050999839,-1.0149999999999995,-0.97697295261856,0.6064669389296276,-1.041263157817744,low,low,,ISIC_4899386.JPG,8,ISIC_0071957.JPG,98,false,ll,keypress(f),0,false,1156456.5,1156456.299999997,1148608.659,1148609.700000003,1148625.494,1156458.591,4,500,36,
break,html.Screen,10_35_1,2023-11-15T19:57:39.075Z,,,,,,,,,,NaN,,,,,,,,low,low,,,,,,false,,,,false,1156456.799999997,1156456.799999997,,1156456.599999994,,1156458.591,4,500,,
break_continue,html.Screen,10_35_2,2023-11-15T19:57:39.075Z,,,,,,,,,,NaN,,,,,,,,low,low,,,,,,false,,,,false,1156457.099999994,1156457,,1156456.900000006,,1156458.591,4,500,,
sequence,flow.Sequence,10_35,2023-11-15T19:57:39.075Z,,,,,,,,,,7831.506000000052,completion,,,,,,,low,low,,,,,,false,,,,false,1156457.200000003,1156457,1148608.659,1148609.700000003,1148625.494,1156458.591,4,500,,
trial,html.Screen,10_36_0,2023-11-15T19:57:45.843Z,,,,1,-0.0286056110007553,-0.036125199756515,,false,hl,6766.309000005946,response,0.6739044665672069,0.8481275050999839,-1.0149999999999995,-0.908941600707678,0.6064669389296276,-1.041263157817744,high,low,,ISIC_6535558.JPG,9,ISIC_2244564.JPG,34,false,hh,keypress(i),0,false,1163225,1163224.900000006,1156442.056,1156457.200000003,1156458.591,1163241.982,4,500,37,
break,html.Screen,10_36_1,2023-11-15T19:57:45.844Z,,,,,,,,,,NaN,,,,,,,,high,low,,,,,,false,,,,false,1163225.799999997,1163225.700000003,,1163225.299999997,,1163241.982,4,500,,
break_continue,html.Screen,10_36_2,2023-11-15T19:57:45.844Z,,,,,,,,,,NaN,,,,,,,,high,low,,,,,,false,,,,false,1163226.400000006,1163226.200000003,,1163226,,1163241.982,4,500,,
sequence,flow.Sequence,10_36,2023-11-15T19:57:45.844Z,,,,,,,,,,6767.609000002965,completion,,,,,,,high,low,,,,,,false,,,,false,1163226.5,1163226.200000003,1156442.056,1156457.200000003,1156458.591,1163241.982,4,500,,
trial,html.Screen,10_37_0,2023-11-15T19:57:52.898Z,,,,1,0.0473541545202326,-0.0294076954053606,,false,hl,7038.317999996943,response,0.7079689798840642,0.8481275050999839,-1.0149999999999995,-0.9053957126199562,0.6064669389296276,-1.041263157817744,high,low,,ISIC_0034065.JPG,9,ISIC_0058863.JPG,34,false,lh,keypress(e),0,false,1170280.5,1170280.299999997,1163225.081,1163226.700000003,1163241.982,1170291.953,4,500,38,
break,html.Screen,10_37_1,2023-11-15T19:57:52.899Z,,,,,,,,,,NaN,,,,,,,,high,low,,,,,,false,,,,false,1170280.799999997,1170280.799999997,,1170280.599999994,,1170291.953,4,500,,
break_continue,html.Screen,10_37_2,2023-11-15T19:57:52.899Z,,,,,,,,,,NaN,,,,,,,,high,low,,,,,,false,,,,false,1170281.099999994,1170281,,1170280.900000006,,1170291.953,4,500,,
