sender,sender_type,sender_id,timestamp,meta,age,blockNo,c1,c2,condition,correct,correctResponse,duration,ended_on,f1,f1_high,f1_low,f2,f2_high,f2_low,feature_level1,feature_level2,gender,img_left,img_reveal,img_right,n_target_images,practice,response,response_action,selection_duration,staircase,time_commit,time_end,time_render,time_run,time_show,time_switch,total_blocks,total_trials,trialNo,url
informed_consent,html.Screen,0,2023-11-15T20:42:20.161Z,"{""labjs_version"":""20.2.4"",""labjs_build"":{""flavor"":""development"",""commit"":""f5b4a49f956347addd546a832a3327688c2c0fef""},""location"":""https://labjs.felixhenninger.com/api/labjs_preview/index.html"",""userAgent"":""Mozilla/5.0 (Windows NT 10.0; Win64; x64) AppleWebKit/537.36 (KHTML, like Gecko) Chrome/119.0.0.0 Safari/537.36"",""platform"":""Win32"",""language"":""en-US"",""locale"":""en-US"",""timeZone"":""America/Chicago"",""timezoneOffset"":360,""screen_width"":1920,""screen_height"":1080,""scroll_width"":945,""scroll_height"":918,""window_innerWidth"":945,""window_innerHeight"":966,""devicePixelRatio"":1}",,,,,,,,18377.034,response,,,,,,,,,,,,,,,consent,click button,,,18947.9,18940,546.234,759.6,562.966,18731.092,,,,{}
Demography form,html.Form,1,2023-11-15T20:42:23.978Z,,-99,,,,,,,4033.108,response,,,,,,,,,prefer not say,,,,,,continue,keypress(Space),,,22764.8,22764.2,18714.431,18948.1,18731.092,22568.364,,,,
Welcome,html.Screen,2,2023-11-15T20:42:55.195Z,,,,,,"[""bor"",""col""]",,,31411.636,response,,,,,,,,,,,,,,,continue,click button,,,53980.6,53980,22551.676,22765,22568.364,53783.034,,,,
demo_instructions,html.Screen,3,2023-11-15T20:44:03.526Z,,,,,,,,,68525.266,response,,,,,,,,,,,,,,,continue,click button,,,122308.9,122308.3,53766.313,53980.7,53783.034,122101.218,,,,
trial,html.Screen,4_0_0,2023-11-15T20:44:41.187Z,,,0,0.854450713,-0.924438861,,TRUE,lh,37868.082,response,-0.871923136,0.9,-0.9,0.770428022,0.9,-0.9,low,high,,ISIC_3565564.JPG,,ISIC_0029453.JPG,29,TRUE,lh,keypress(e),100,FALSE,159969.5,159969.3,122084.756,122309,122101.218,159788.985,1,16,1,
sequence,flow.Sequence,4_0,2023-11-15T20:44:41.187Z,,,,,,,,,37868.082,completion,,,,,,,low,high,,,,,,TRUE,,,,FALSE,159969.7,159969.3,122084.756,122309,122101.218,159788.985,1,16,,
trial,html.Screen,4_1_0,2023-11-15T20:44:53.211Z,,,0,0.769291629,-0.781860471,,TRUE,lh,12203.015,response,-1.036988592,0.9,-0.9,0.848693788,0.9,-0.9,low,high,,ISIC_7844825.JPG,,ISIC_6917681.JPG,29,TRUE,lh,keypress(e),100,FALSE,171992.2,171992,159772.301,159969.8,159788.985,171801.029,1,16,2,
sequence,flow.Sequence,4_1,2023-11-15T20:44:53.211Z,,,,,,,,,12203.015,completion,,,,,,,low,high,,,,,,TRUE,,,,FALSE,171992.5,171992,159772.301,159969.8,159788.985,171801.029,1,16,,
trial,html.Screen,4_2_0,2023-11-15T20:45:00.323Z,,,0,0.76290994,-0.851595663,,TRUE,lh,7302.771,response,-0.871923136,0.9,-0.9,0.770428022,0.9,-0.9,low,high,,ISIC_0028718.JPG,,ISIC_0029453.JPG,29,TRUE,lh,keypress(e),100,FALSE,179104,179103.8,171784.339,171992.7,171801.029,178908.221,1,16,3,
sequence,flow.Sequence,4_2,2023-11-15T20:45:00.323Z,,,,,,,,,7302.771,completion,,,,,,,low,high,,,,,,TRUE,,,,FALSE,179104.4,179103.8,171784.339,171992.6,171801.029,178908.221,1,16,,
trial,html.Screen,4_3_0,2023-11-15T20:45:07.001Z,,,0,0.73054753,-0.744277924,,TRUE,lh,6873.779,response,-1.058275612,0.9,-0.9,0.782489857,0.9,-0.9,low,high,,ISIC_7266604.JPG,,ISIC_4906385.JPG,29,TRUE,lh,keypress(e),100,FALSE,185782.2,185782,178891.432,179104.5,178908.221,185598.163,1,16,4,
sequence,flow.Sequence,4_3,2023-11-15T20:45:07.001Z,,,,,,,,,6873.779,completion,,,,,,,low,high,,,,,,TRUE,,,,FALSE,185782.4,185782,178891.432,179104.5,178908.221,185598.163,1,16,,
trial,html.Screen,4_4_0,2023-11-15T20:45:33.422Z,,,0,1.098022645,0.942141921,,TRUE,ll,26605.237,response,-1.008831959,0.9,-0.9,-0.982340952,0.9,-0.9,low,low,,ISIC_0060481.JPG,,ISIC_1579745.JPG,169,TRUE,ll,keypress(f),100,FALSE,212203.6,212203.4,185581.681,185782.5,185598.163,212007.938,1,16,5,
sequence,flow.Sequence,4_4,2023-11-15T20:45:33.423Z,,,,,,,,,26605.237,completion,,,,,,,low,low,,,,,,TRUE,,,,FALSE,212203.9,212203.4,185581.681,185782.5,185598.163,212007.938,1,16,,
trial,html.Screen,4_5_0,2023-11-15T20:45:41.174Z,,,0,0.80649293,0.919346829,,TRUE,ll,7947.362,response,-0.969163502,0.9,-0.9,-1.076121676,0.9,-0.9,low,low,,ISIC_0060968.JPG,,ISIC_8169564.JPG,169,TRUE,ll,keypress(f),100,FALSE,219955.5,219955.3,211991.256,212204,212007.938,219765.658,1,16,6,
sequence,flow.Sequence,4_5,2023-11-15T20:45:41.174Z,,,,,,,,,7947.362,completion,,,,,,,low,low,,,,,,TRUE,,,,FALSE,219955.7,219955.3,211991.256,212204,212007.938,219765.658,1,16,,
trial,html.Screen,4_6_0,2023-11-15T20:45:47.115Z,,,0,0.868933907,0.927885172,,TRUE,ll,6130.742,response,-0.853884774,0.9,-0.9,-0.97905317,0.9,-0.9,low,low,,ISIC_2221217.JPG,,ISIC_1269461.JPG,169,TRUE,ll,keypress(f),100,FALSE,225896.6,225896.4,219749.053,219955.8,219765.658,225705.147,1,16,7,
sequence,flow.Sequence,4_6,2023-11-15T20:45:47.116Z,,,,,,,,,6130.742,completion,,,,,,,low,low,,,,,,TRUE,,,,FALSE,225897,225896.4,219749.053,219955.8,219765.658,225705.147,1,16,,
trial,html.Screen,4_7_0,2023-11-15T20:45:51.331Z,,,0,0.894918845,0.906477284,,TRUE,ll,4405.053,response,-1.075705022,0.9,-0.9,-0.92144236,0.9,-0.9,low,low,,ISIC_0057067.JPG,,ISIC_5152859.JPG,169,TRUE,ll,keypress(f),100,FALSE,230110.3,230110.2,225688.306,225897.1,225705.147,229926.008,1,16,8,
sequence,flow.Sequence,4_7,2023-11-15T20:45:51.332Z,,,,,,,,,4405.053,completion,,,,,,,low,low,,,,,,TRUE,,,,FALSE,230110.7,230110.2,225688.306,225897,225705.147,229926.008,1,16,,
trial,html.Screen,4_8_0,2023-11-15T20:46:07.722Z,,,0,-0.788275808,0.829640588,,TRUE,hl,16574.692,response,0.801722143,0.9,-0.9,-0.702007326,0.9,-0.9,high,low,,ISIC_0065882.JPG,,ISIC_3236964.JPG,43,TRUE,hl,keypress(j),100,FALSE,246500.8,246500.7,229909.242,230110.8,229926.008,246309.022,1,16,9,
sequence,flow.Sequence,4_8,2023-11-15T20:46:07.722Z,,,,,,,,,16574.692,completion,,,,,,,high,low,,,,,,TRUE,,,,FALSE,246501.1,246500.7,229909.242,230110.8,229926.008,246309.022,1,16,,
trial,html.Screen,4_9_0,2023-11-15T20:46:13.824Z,,,0,-1.036988592,0.848693788,,TRUE,hl,6293.478,response,0.72360021,0.9,-0.9,-0.789520599,0.9,-0.9,high,low,,ISIC_6917681.JPG,,ISIC_0413563.JPG,43,TRUE,hl,keypress(j),100,FALSE,252602.6,252602.5,246292.199,246501.2,246309.022,252415.023,1,16,10,
sequence,flow.Sequence,4_9,2023-11-15T20:46:13.824Z,,,,,,,,,6293.478,completion,,,,,,,high,low,,,,,,TRUE,,,,FALSE,252602.7,252602.5,246292.199,246501.2,246309.022,252415.023,1,16,,
trial,html.Screen,4_10_0,2023-11-15T20:46:19.236Z,,,0,-1.075512775,1.045470268,,TRUE,hl,5599.377,response,0.966268854,0.9,-0.9,-0.929746784,0.9,-0.9,high,low,,ISIC_0033603.JPG,,ISIC_0011077.JPG,43,TRUE,hl,keypress(j),100,FALSE,258014.6,258014.4,252398.363,252602.9,252415.023,257820.5,1,16,11,
sequence,flow.Sequence,4_10,2023-11-15T20:46:19.236Z,,,,,,,,,5599.377,completion,,,,,,,high,low,,,,,,TRUE,,,,FALSE,258014.8,258014.4,252398.363,252602.8,252415.023,257820.5,1,16,,
trial,html.Screen,4_11_0,2023-11-15T20:46:34.776Z,,,0,-0.724677157,0.916138508,,TRUE,hl,15734.8,response,0.924414828,0.9,-0.9,-0.971296635,0.9,-0.9,high,low,,ISIC_0028225.JPG,,ISIC_7927525.JPG,43,TRUE,hl,keypress(j),100,FALSE,273555.5,273555.3,257803.745,258014.9,257820.5,273369.33,1,16,12,
sequence,flow.Sequence,4_11,2023-11-15T20:46:34.777Z,,,,,,,,,15734.8,completion,,,,,,,high,low,,,,,,TRUE,,,,FALSE,273555.7,273555.3,257803.745,258014.8,257820.5,273369.33,1,16,,
trial,html.Screen,4_12_0,2023-11-15T20:46:47.213Z,,,0,-0.810218412,-0.833584949,,TRUE,hh,12622.37,response,0.893249991,0.9,-0.9,1.036749889,0.9,-0.9,high,high,,ISIC_6168754.JPG,,ISIC_0030106.JPG,184,TRUE,hh,keypress(i),100,FALSE,285991.9,285991.7,273352.907,273555.8,273369.33,285798.442,1,16,13,
sequence,flow.Sequence,4_12,2023-11-15T20:46:47.213Z,,,,,,,,,12622.37,completion,,,,,,,high,high,,,,,,TRUE,,,,FALSE,285992.3,285991.7,273352.907,273555.7,273369.33,285798.442,1,16,,
trial,html.Screen,4_13_0,2023-11-15T20:46:53.414Z,,,0,-1.008831959,-0.982340952,,TRUE,hh,6392.258,response,0.80639969,0.9,-0.9,0.98722362,0.9,-0.9,high,high,,ISIC_1579745.JPG,,ISIC_0015046.JPG,184,TRUE,hh,keypress(i),100,FALSE,292190.8,292190.7,285781.749,285992.4,285798.442,292004.684,1,16,14,
sequence,flow.Sequence,4_13,2023-11-15T20:46:53.414Z,,,,,,,,,6392.258,completion,,,,,,,high,high,,,,,,TRUE,,,,FALSE,292191.2,292190.7,285781.749,285992.4,285798.442,292004.684,1,16,,
trial,html.Screen,4_14_0,2023-11-15T20:47:20.508Z,,,0,-1.073380731,-0.978176633,,TRUE,hh,27280.316,response,0.726218537,0.9,-0.9,0.915396993,0.9,-0.9,high,high,,ISIC_0032383.JPG,,ISIC_0063369.JPG,184,TRUE,hh,keypress(i),100,FALSE,319285.3,319285,291987.991,292191.3,292004.684,319098.634,1,16,15,
sequence,flow.Sequence,4_14,2023-11-15T20:47:20.508Z,,,,,,,,,27280.316,completion,,,,,,,high,high,,,,,,TRUE,,,,FALSE,319285.7,319285,291987.991,292191.3,292004.684,319098.634,1,16,,
trial,html.Screen,4_15_0,2023-11-15T20:49:52.959Z,,,0,-0.996167488,-0.749033843,,TRUE,hh,152632.466,response,1.087968062,0.9,-0.9,0.981930042,0.9,-0.9,high,high,,ISIC_0624779.JPG,,ISIC_0011369.JPG,184,TRUE,hh,keypress(i),100,FALSE,471731.3,471731.1,319081.803,319285.9,319098.634,471551.163,1,16,16,
sequence,flow.Sequence,4_15,2023-11-15T20:49:52.959Z,,,,,,,,,152632.466,completion,,,,,,,high,high,,,,,,TRUE,,,,FALSE,471731.4,471731.1,319081.803,319285.8,319098.634,471551.163,1,16,,
demonstration_loop,flow.Loop,4,2023-11-15T20:49:52.959Z,,,,,,,,,349629.882,completion,,,,,,,,,,,,,,TRUE,,,,FALSE,471731.5,471731.1,122084.756,122309,122101.218,471551.163,1,16,,
practice_instructions,html.Screen,5,2023-11-15T20:50:21.313Z,,,,,,,,,28525.237,response,,,,,,,,,,,,,,,continue,click button,,,500084.6,500076.4,471534.534,471731.6,471551.163,499879.381,,,,
trial,html.Screen,6_0_0,2023-11-15T20:50:32.089Z,,,1,0.743800878,-0.77016076,,,,10777.494,timeout,-0.871923136,0.9,-0.9,0.770428022,0.9,-0.9,low,high,,ISIC_8493108.JPG,,ISIC_0029453.JPG,29,TRUE,,,0,FALSE,510860.6,510860.3,499862.93,500084.7,499879.381,510656.875,1,40,1,
sequence,flow.Sequence,6_0,2023-11-15T20:50:32.089Z,,,,,,,,,10980.919,completion,,,,,,,low,high,,,,,,TRUE,,,,FALSE,510861,510860.3,499862.93,500084.7,499879.381,510656.875,1,40,,
trial,html.Screen,6_1_0,2023-11-15T20:50:42.113Z,,,1,1.064219537,1.089765778,,TRUE,ll,10228.325,response,-0.835156032,0.9,-0.9,-0.708539421,0.9,-0.9,low,low,,ISIC_0071988.JPG,,ISIC_5795486.JPG,169,TRUE,ll,keypress(f),0,FALSE,520885.3,520885.2,510640.336,510861.1,510656.875,520700.421,1,40,2,
sequence,flow.Sequence,6_1,2023-11-15T20:50:42.113Z,,,,,,,,,10228.325,completion,,,,,,,low,low,,,,,,TRUE,,,,FALSE,520885.4,520885.2,510640.336,510861.1,510656.875,520700.421,1,40,,
trial,html.Screen,6_2_0,2023-11-15T20:50:46.905Z,,,1,0.801216255,0.831206519,,TRUE,ll,4976.779,response,-0.716114898,0.9,-0.9,-0.769631364,0.9,-0.9,low,low,,ISIC_0056740.JPG,,ISIC_8401332.JPG,169,TRUE,ll,keypress(f),0,FALSE,525677.3,525677.2,520683.597,520885.5,520700.421,525471.699,1,40,3,
sequence,flow.Sequence,6_2,2023-11-15T20:50:46.905Z,,,,,,,,,4976.779,completion,,,,,,,low,low,,,,,,TRUE,,,,FALSE,525677.5,525677.2,520683.597,520885.5,520700.421,525471.699,1,40,,
trial,html.Screen,6_3_0,2023-11-15T20:50:51.563Z,,,1,0.817932213,0.944591595,,TRUE,ll,4861.701,response,-0.733453826,0.9,-0.9,-0.88378649,0.9,-0.9,low,low,,ISIC_0056364.JPG,,ISIC_4332846.JPG,169,TRUE,ll,keypress(f),0,FALSE,530333.5,530333.4,525455.116,525677.5,525471.699,530126.292,1,40,4,
sequence,flow.Sequence,6_3,2023-11-15T20:50:51.563Z,,,,,,,,,4861.701,completion,,,,,,,low,low,,,,,,TRUE,,,,FALSE,530333.8,530333.4,525455.116,525677.5,525471.699,530126.292,1,40,,
trial,html.Screen,6_4_0,2023-11-15T20:50:57.915Z,,,1,-0.847202404,0.986370061,,TRUE,hl,6559.308,response,0.739600126,0.9,-0.9,-0.990101734,0.9,-0.9,high,low,,ISIC_0054355.JPG,,ISIC_8679617.JPG,43,TRUE,hl,keypress(j),0,FALSE,536685.8,536685.6,530109.757,530334,530126.292,536482.654,1,40,5,
sequence,flow.Sequence,6_4,2023-11-15T20:50:57.916Z,,,,,,,,,6559.308,completion,,,,,,,high,low,,,,,,TRUE,,,,FALSE,536686,536685.6,530109.757,530333.9,530126.292,536482.654,1,40,,
trial,html.Screen,6_5_0,2023-11-15T20:51:06.691Z,,,1,0.770729815,1.010460602,,TRUE,ll,8978.346,response,-0.924262906,0.9,-0.9,-1.008549982,0.9,-0.9,low,low,,ISIC_0010746.JPG,,ISIC_7795549.JPG,169,TRUE,ll,keypress(f),0,FALSE,545461.2,545461,536466.221,536686.2,536482.654,545258.134,1,40,6,
sequence,flow.Sequence,6_5,2023-11-15T20:51:06.691Z,,,,,,,,,8978.346,completion,,,,,,,low,low,,,,,,TRUE,,,,FALSE,545461.4,545461,536466.221,536686.1,536482.654,545258.134,1,40,,
trial,html.Screen,6_6_0,2023-11-15T20:51:17.479Z,,,1,0.854450713,-0.924438861,,,,10794.093,timeout,-0.789083278,0.9,-0.9,0.717206727,0.9,-0.9,low,high,,ISIC_3565564.JPG,,ISIC_0011030.JPG,29,TRUE,,,0,FALSE,556249.3,556249.2,545241.507,545461.6,545258.134,556052.227,1,40,7,
sequence,flow.Sequence,6_6,2023-11-15T20:51:17.479Z,,,,,,,,,10991.066,completion,,,,,,,low,high,,,,,,TRUE,,,,FALSE,556249.5,556249.2,545241.507,545461.5,545258.134,556052.227,1,40,,
trial,html.Screen,6_7_0,2023-11-15T20:51:21.763Z,,,1,0.886732878,-1.006342699,,TRUE,lh,4481.173,response,-0.895480346,0.9,-0.9,0.707181905,0.9,-0.9,low,high,,ISIC_0055759.JPG,,ISIC_0033071.JPG,29,TRUE,lh,keypress(e),0,FALSE,560533.5,560533.4,556035.58,556249.7,556052.227,560323.217,1,40,8,
sequence,flow.Sequence,6_7,2023-11-15T20:51:21.763Z,,,,,,,,,4481.173,completion,,,,,,,low,high,,,,,,TRUE,,,,FALSE,560533.7,560533.4,556035.58,556249.6,556052.227,560323.217,1,40,,
trial,html.Screen,6_8_0,2023-11-15T20:51:27.219Z,,,1,0.850053022,-1.089336071,,TRUE,lh,5666.083,response,-0.871923136,0.9,-0.9,0.770428022,0.9,-0.9,low,high,,ISIC_2998367.JPG,,ISIC_0029453.JPG,29,TRUE,lh,keypress(e),0,FALSE,565989.4,565989.3,560306.549,560533.8,560323.217,565795.403,1,40,9,
sequence,flow.Sequence,6_8,2023-11-15T20:51:27.219Z,,,,,,,,,5666.083,completion,,,,,,,low,high,,,,,,TRUE,,,,FALSE,565989.6,565989.3,560306.549,560533.8,560323.217,565795.403,1,40,,
trial,html.Screen,6_9_0,2023-11-15T20:51:33.779Z,,,1,0.831242517,0.937649116,,FALSE,ll,6753.997,response,-0.840570767,0.9,-0.9,-0.742532341,0.9,-0.9,low,low,,ISIC_4834687.JPG,,ISIC_4272317.JPG,169,TRUE,hl,keypress(j),0,FALSE,572549.5,572549.4,565778.678,565989.6,565795.403,572352.169,1,40,10,
sequence,flow.Sequence,6_9,2023-11-15T20:51:33.779Z,,,,,,,,,6753.997,completion,,,,,,,low,low,,,,,,TRUE,,,,FALSE,572549.8,572549.4,565778.678,565989.6,565795.403,572352.169,1,40,,
trial,html.Screen,6_10_0,2023-11-15T20:51:39.779Z,,,1,0.743800878,-0.77016076,,TRUE,lh,6197.431,response,-1.036988592,0.9,-0.9,0.848693788,0.9,-0.9,low,high,,ISIC_8493108.JPG,,ISIC_6917681.JPG,29,TRUE,lh,keypress(e),0,FALSE,578549.7,578549.6,572335.358,572549.8,572352.169,578341.228,1,40,11,
sequence,flow.Sequence,6_10,2023-11-15T20:51:39.780Z,,,,,,,,,6197.431,completion,,,,,,,low,high,,,,,,TRUE,,,,FALSE,578550,578549.6,572335.358,572549.8,572352.169,578341.228,1,40,,
trial,html.Screen,6_11_0,2023-11-15T20:51:49.181Z,,,1,-0.930804711,0.729406799,,TRUE,hl,9608.572,response,0.84434032,0.9,-0.9,-0.885852543,0.9,-0.9,high,low,,ISIC_5067317.JPG,,ISIC_8777813.JPG,43,TRUE,hl,keypress(j),0,FALSE,587950,587949.8,578324.558,578550.2,578341.228,587750.68,1,40,12,
sequence,flow.Sequence,6_11,2023-11-15T20:51:49.182Z,,,,,,,,,9608.572,completion,,,,,,,high,low,,,,,,TRUE,,,,FALSE,587950.3,587949.8,578324.558,578550.1,578341.228,587750.68,1,40,,
trial,html.Screen,6_12_0,2023-11-15T20:51:59.971Z,,,1,-0.939435876,-1.025693471,,,,10794.128,timeout,0.70022374,0.9,-0.9,0.737254387,0.9,-0.9,high,high,,ISIC_4264600.JPG,,ISIC_0029686.JPG,184,TRUE,,,0,FALSE,598739.8,598739.8,587734.038,587950.5,587750.68,598544.808,1,40,13,
sequence,flow.Sequence,6_12,2023-11-15T20:51:59.971Z,,,,,,,,,10989.12,completion,,,,,,,high,high,,,,,,TRUE,,,,FALSE,598740,598739.8,587734.038,587950.5,587750.68,598544.808,1,40,,
trial,html.Screen,6_13_0,2023-11-15T20:52:04.221Z,,,1,-1.097946372,-0.73659092,,TRUE,hh,4444.692,response,1.017282868,0.9,-0.9,0.719558335,0.9,-0.9,high,high,,ISIC_3909443.JPG,,ISIC_0033696.JPG,184,TRUE,hh,keypress(i),0,FALSE,602989.7,602989.5,598511.587,598740.1,598544.808,602782.372,1,40,14,
sequence,flow.Sequence,6_13,2023-11-15T20:52:04.221Z,,,,,,,,,4444.692,completion,,,,,,,high,high,,,,,,TRUE,,,,FALSE,602989.9,602989.5,598511.587,598740.1,598544.808,602782.372,1,40,,
trial,html.Screen,6_14_0,2023-11-15T20:52:11.621Z,,,1,-0.852677532,-0.939801277,,TRUE,hh,7607.128,response,0.957360004,0.9,-0.9,0.83495862,0.9,-0.9,high,high,,ISIC_2647198.JPG,,ISIC_0000401.JPG,184,TRUE,hh,keypress(i),0,FALSE,610389.7,610389.5,602765.741,602990.1,602782.372,610189.777,1,40,15,
sequence,flow.Sequence,6_14,2023-11-15T20:52:11.621Z,,,,,,,,,7607.128,completion,,,,,,,high,high,,,,,,TRUE,,,,FALSE,610390.2,610389.5,602765.741,602990,602782.372,610189.777,1,40,,
trial,html.Screen,6_15_0,2023-11-15T20:52:20.725Z,,,1,-0.895480346,0.707181905,,TRUE,hl,9303.323,response,0.787253478,0.9,-0.9,-0.844110769,0.9,-0.9,high,low,,ISIC_0033071.JPG,,ISIC_0028788.JPG,43,TRUE,hl,keypress(j),0,FALSE,619493.2,619493.1,610173.216,610390.3,610189.777,619299.829,1,40,16,
sequence,flow.Sequence,6_15,2023-11-15T20:52:20.725Z,,,,,,,,,9303.323,completion,,,,,,,high,low,,,,,,TRUE,,,,FALSE,619493.3,619493.1,610173.216,610390.2,610189.777,619299.829,1,40,,
trial,html.Screen,6_16_0,2023-11-15T20:52:28.245Z,,,1,-0.722109762,-0.827234723,,TRUE,hh,7713.671,response,0.721658972,0.9,-0.9,0.82861202,0.9,-0.9,high,high,,ISIC_9598638.JPG,,ISIC_0046504.JPG,184,TRUE,hh,keypress(i),0,FALSE,627013.8,627013.5,619265.522,619493.3,619299.829,626806.406,1,40,17,
sequence,flow.Sequence,6_16,2023-11-15T20:52:28.245Z,,,,,,,,,7713.671,completion,,,,,,,high,high,,,,,,TRUE,,,,FALSE,627014,627013.5,619265.522,619493.3,619299.829,626806.406,1,40,,
trial,html.Screen,6_17_0,2023-11-15T20:52:35.669Z,,,1,-0.849386112,-0.88341462,,TRUE,hh,7631.194,response,1.098939883,0.9,-0.9,0.74695376,0.9,-0.9,high,high,,ISIC_7450481.JPG,,ISIC_0059897.JPG,184,TRUE,hh,keypress(i),0,FALSE,634437.8,634437.6,626789.844,627014.1,626806.406,634230.496,1,40,18,
sequence,flow.Sequence,6_17,2023-11-15T20:52:35.670Z,,,,,,,,,7631.194,completion,,,,,,,high,high,,,,,,TRUE,,,,FALSE,634438.1,634437.6,626789.844,627014.1,626806.406,634230.496,1,40,,
trial,html.Screen,6_18_0,2023-11-15T20:52:44.397Z,,,1,-0.818635781,-0.849626954,,TRUE,hh,8935.104,response,0.835126241,0.9,-0.9,0.764014172,0.9,-0.9,high,high,,ISIC_4535099.JPG,,ISIC_0029363.JPG,184,TRUE,hh,keypress(i),0,FALSE,643165.8,643165.6,634213.777,634438.3,634230.496,642955.924,1,40,19,
sequence,flow.Sequence,6_18,2023-11-15T20:52:44.397Z,,,,,,,,,8935.104,completion,,,,,,,high,high,,,,,,TRUE,,,,FALSE,643166,643165.6,634213.777,634438.3,634230.496,642955.924,1,40,,
trial,html.Screen,6_19_0,2023-11-15T20:52:51.983Z,,,1,0.749733164,0.954353188,,TRUE,ll,7793.776,response,-1.042858896,0.9,-0.9,-0.702737755,0.9,-0.9,low,low,,ISIC_0067801.JPG,,ISIC_2412888.JPG,169,TRUE,ll,keypress(f),0,FALSE,650749.8,650749.7,642939.128,643166.1,642955.924,650546.912,1,40,20,
sequence,flow.Sequence,6_19,2023-11-15T20:52:51.983Z,,,,,,,,,7793.776,completion,,,,,,,low,low,,,,,,TRUE,,,,FALSE,650750.1,650749.7,642939.128,643166.1,642955.924,650546.912,1,40,,
trial,html.Screen,6_20_0,2023-11-15T20:52:58.910Z,,,1,-0.724677157,0.916138508,,TRUE,hl,7129.988,response,0.755246823,0.9,-0.9,-0.718460371,0.9,-0.9,high,low,,ISIC_0028225.JPG,,ISIC_2354070.JPG,43,TRUE,hl,keypress(j),0,FALSE,657677,657676.9,650530.014,650750.2,650546.912,657470.433,1,40,21,
sequence,flow.Sequence,6_20,2023-11-15T20:52:58.910Z,,,,,,,,,7129.988,completion,,,,,,,high,low,,,,,,TRUE,,,,FALSE,657677.1,657676.9,650530.014,650750.2,650546.912,657470.433,1,40,,
trial,html.Screen,6_21_0,2023-11-15T20:53:04.143Z,,,1,-0.996167488,-0.749033843,,TRUE,hh,5439.467,response,0.882442934,0.9,-0.9,0.862709006,0.9,-0.9,high,high,,ISIC_0624779.JPG,,ISIC_0015193.JPG,184,TRUE,hh,keypress(i),0,FALSE,662910.1,662909.9,657453.818,657677.1,657470.433,662709.06,1,40,22,
sequence,flow.Sequence,6_21,2023-11-15T20:53:04.143Z,,,,,,,,,5439.467,completion,,,,,,,high,high,,,,,,TRUE,,,,FALSE,662910.4,662909.9,657453.818,657677.1,657470.433,662709.06,1,40,,
trial,html.Screen,6_22_0,2023-11-15T20:53:09.191Z,,,1,-0.764893988,-1.0559781,,TRUE,hh,5248.54,response,0.814581461,0.9,-0.9,0.759129227,0.9,-0.9,high,high,,ISIC_2077116.JPG,,ISIC_0011434.JPG,184,TRUE,hh,keypress(i),0,FALSE,667957.7,667957.6,662692.338,662910.5,662709.06,667747.4,1,40,23,
sequence,flow.Sequence,6_22,2023-11-15T20:53:09.191Z,,,,,,,,,5248.54,completion,,,,,,,high,high,,,,,,TRUE,,,,FALSE,667958,667957.6,662692.338,662910.5,662709.06,667747.4,1,40,,
trial,html.Screen,6_23_0,2023-11-15T20:53:16.479Z,,,1,0.976664541,1.086167903,,TRUE,ll,7498.3,response,-0.860968323,0.9,-0.9,-0.701177229,0.9,-0.9,low,low,,ISIC_0011526.JPG,,ISIC_6801988.JPG,169,TRUE,ll,keypress(f),0,FALSE,675245.8,675245.7,667730.764,667958.1,667747.4,675038.056,1,40,24,
sequence,flow.Sequence,6_23,2023-11-15T20:53:16.479Z,,,,,,,,,7498.3,completion,,,,,,,low,low,,,,,,TRUE,,,,FALSE,675246.1,675245.7,667730.764,667958,667747.4,675038.056,1,40,,
trial,html.Screen,6_24_0,2023-11-15T20:53:27.214Z,,,1,0.84434032,-0.885852543,,TRUE,lh,10943.044,response,-0.730811645,0.9,-0.9,0.908713835,0.9,-0.9,low,high,,ISIC_8777813.JPG,,ISIC_7811951.JPG,29,TRUE,lh,keypress(e),0,FALSE,685981.3,685981.1,675021.494,675246.2,675038.056,685782.126,1,40,25,
sequence,flow.Sequence,6_24,2023-11-15T20:53:27.214Z,,,,,,,,,10943.044,completion,,,,,,,low,high,,,,,,TRUE,,,,FALSE,685981.5,685981.1,675021.494,675246.1,675038.056,685782.126,1,40,,
trial,html.Screen,6_25_0,2023-11-15T20:53:36.343Z,,,1,-0.851342741,0.929530357,,TRUE,hl,9327.574,response,0.806762708,0.9,-0.9,-0.711586575,0.9,-0.9,high,low,,ISIC_0034164.JPG,,ISIC_0010014.JPG,43,TRUE,hl,keypress(j),0,FALSE,695109.9,695109.7,685765.501,685981.6,685782.126,694907.909,1,40,26,
sequence,flow.Sequence,6_25,2023-11-15T20:53:36.343Z,,,,,,,,,9327.574,completion,,,,,,,high,low,,,,,,TRUE,,,,FALSE,695110.1,695109.7,685765.501,685981.5,685782.126,694907.909,1,40,,
trial,html.Screen,6_26_0,2023-11-15T20:53:43.207Z,,,1,-0.789083278,0.717206727,,TRUE,hl,7065.791,response,0.975213006,0.9,-0.9,-0.724855091,0.9,-0.9,high,low,,ISIC_0011030.JPG,,ISIC_5190484.JPG,43,TRUE,hl,keypress(j),0,FALSE,701973.9,701973.7,694891.328,695110.2,694907.909,701764.779,1,40,27,
sequence,flow.Sequence,6_26,2023-11-15T20:53:43.207Z,,,,,,,,,7065.791,completion,,,,,,,high,low,,,,,,TRUE,,,,FALSE,701974.1,701973.7,694891.328,695110.1,694907.909,701764.779,1,40,,
trial,html.Screen,6_27_0,2023-11-15T20:53:48.055Z,,,1,-0.724677157,0.916138508,,TRUE,hl,5056.821,response,0.755246823,0.9,-0.9,-0.718460371,0.9,-0.9,high,low,,ISIC_0028225.JPG,,ISIC_2354070.JPG,43,TRUE,hl,keypress(j),0,FALSE,706821.9,706821.6,701748.103,701974.2,701764.779,706619.653,1,40,28,
sequence,flow.Sequence,6_27,2023-11-15T20:53:48.055Z,,,,,,,,,5056.821,completion,,,,,,,high,low,,,,,,TRUE,,,,FALSE,706822.1,706821.6,701748.103,701974.2,701764.779,706619.653,1,40,,
trial,html.Screen,6_28_0,2023-11-15T20:53:57.248Z,,,1,0.827121814,0.832154768,,TRUE,ll,9393.547,response,-0.746834067,0.9,-0.9,-0.727392791,0.9,-0.9,low,low,,ISIC_0046224.JPG,,ISIC_7758102.JPG,169,TRUE,ll,keypress(f),0,FALSE,716013.3,716013.2,706602.864,706822.3,706619.653,715812.172,1,40,29,
sequence,flow.Sequence,6_28,2023-11-15T20:53:57.248Z,,,,,,,,,9393.547,completion,,,,,,,low,low,,,,,,TRUE,,,,FALSE,716013.5,716013.2,706602.864,706822.3,706619.653,715812.172,1,40,,
trial,html.Screen,6_29_0,2023-11-15T20:54:04.352Z,,,1,0.954469325,-1.072753992,,TRUE,lh,7305.328,response,-0.989300717,0.9,-0.9,0.790828021,0.9,-0.9,low,high,,ISIC_0055147.JPG,,ISIC_6416533.JPG,29,TRUE,lh,keypress(e),0,FALSE,723117.7,723117.5,715795.579,716013.5,715812.172,722919.479,1,40,30,
sequence,flow.Sequence,6_29,2023-11-15T20:54:04.353Z,,,,,,,,,7305.328,completion,,,,,,,low,high,,,,,,TRUE,,,,FALSE,723117.9,723117.5,715795.579,716013.5,715812.172,722919.479,1,40,,
trial,html.Screen,6_30_0,2023-11-15T20:54:10.961Z,,,1,1.068531492,-0.820383371,,TRUE,lh,6806.321,response,-0.965357337,0.9,-0.9,0.8547668,0.9,-0.9,low,high,,ISIC_0029374.JPG,,ISIC_9640145.JPG,29,TRUE,lh,keypress(e),0,FALSE,729726,729725.8,722902.495,723118.1,722919.479,729525.943,1,40,31,
sequence,flow.Sequence,6_30,2023-11-15T20:54:10.961Z,,,,,,,,,6806.321,completion,,,,,,,low,high,,,,,,TRUE,,,,FALSE,729726.3,729725.8,722902.495,723118,722919.479,729525.943,1,40,,
trial,html.Screen,6_31_0,2023-11-15T20:54:20.144Z,,,1,-0.751948157,-0.901995203,,TRUE,hh,9383.757,response,0.94165594,0.9,-0.9,0.81696386,0.9,-0.9,high,high,,ISIC_1497800.JPG,,ISIC_0072429.JPG,184,TRUE,hh,keypress(i),0,FALSE,738909.9,738909.7,729509.217,729726.5,729525.943,738701.793,1,40,32,
sequence,flow.Sequence,6_31,2023-11-15T20:54:20.145Z,,,,,,,,,9383.757,completion,,,,,,,high,high,,,,,,TRUE,,,,FALSE,738910.2,738909.7,729509.217,729726.4,729525.943,738701.793,1,40,,
trial,html.Screen,6_32_0,2023-11-15T20:54:27.409Z,,,1,-0.788332171,1.001143076,,TRUE,hl,7472.107,response,1.004142981,0.9,-0.9,-0.774977317,0.9,-0.9,high,low,,ISIC_9828853.JPG,,ISIC_3936223.JPG,43,TRUE,hl,keypress(j),0,FALSE,746174,746173.9,738684.948,738910.2,738701.793,745975.934,1,40,33,
sequence,flow.Sequence,6_32,2023-11-15T20:54:27.409Z,,,,,,,,,7472.107,completion,,,,,,,high,low,,,,,,TRUE,,,,FALSE,746174.3,746173.9,738684.948,738910.2,738701.793,745975.934,1,40,,
trial,html.Screen,6_33_0,2023-11-15T20:54:32.360Z,,,1,0.785614362,-1.027360883,,TRUE,lh,5149.566,response,-1.075512775,0.9,-0.9,1.045470268,0.9,-0.9,low,high,,ISIC_9303849.JPG,,ISIC_0033603.JPG,29,TRUE,lh,keypress(e),0,FALSE,751125.8,751125.5,745959.031,746174.5,745975.934,750947.453,1,40,34,
sequence,flow.Sequence,6_33,2023-11-15T20:54:32.360Z,,,,,,,,,5149.566,completion,,,,,,,low,high,,,,,,TRUE,,,,FALSE,751126,751125.5,745959.031,746174.5,745975.934,750947.453,1,40,,
trial,html.Screen,6_34_0,2023-11-15T20:54:43.166Z,,,1,-1.021981961,-0.795763474,,,,10777.329,timeout,0.726088144,0.9,-0.9,0.919514925,0.9,-0.9,high,high,,ISIC_0006327.JPG,,ISIC_3445468.JPG,184,TRUE,,,0,FALSE,761931.1,761930.9,750930.886,751126,750947.453,761724.782,1,40,35,
sequence,flow.Sequence,6_34,2023-11-15T20:54:43.166Z,,,,,,,,,10983.447,completion,,,,,,,high,high,,,,,,TRUE,,,,FALSE,761931.5,761930.9,750930.886,751126,750947.453,761724.782,1,40,,
trial,html.Screen,6_35_0,2023-11-15T20:54:47.424Z,,,1,-0.895480346,0.707181905,,TRUE,hl,4465.018,response,0.77234239,0.9,-0.9,-0.763005175,0.9,-0.9,high,low,,ISIC_0033071.JPG,,ISIC_9694911.JPG,43,TRUE,hl,keypress(j),0,FALSE,766189.9,766189.8,761708.137,761931.7,761724.782,765996.161,1,40,36,
sequence,flow.Sequence,6_35,2023-11-15T20:54:47.425Z,,,,,,,,,4465.018,completion,,,,,,,high,low,,,,,,TRUE,,,,FALSE,766190.1,766189.8,761708.137,761931.6,761724.782,765996.161,1,40,,
trial,html.Screen,6_36_0,2023-11-15T20:54:53.306Z,,,1,0.847098159,1.076278836,,TRUE,ll,6073.639,response,-0.727613667,0.9,-0.9,-0.913254809,0.9,-0.9,low,low,,ISIC_0011013.JPG,,ISIC_0007740.JPG,169,TRUE,ll,keypress(f),0,FALSE,772070,772069.8,765962.338,766190.2,765996.161,771868.296,1,40,37,
sequence,flow.Sequence,6_36,2023-11-15T20:54:53.306Z,,,,,,,,,6073.639,completion,,,,,,,low,low,,,,,,TRUE,,,,FALSE,772070.4,772069.8,765962.338,766190.2,765996.161,771868.296,1,40,,
trial,html.Screen,6_37_0,2023-11-15T20:54:59.962Z,,,1,1.07880244,-0.991187546,,TRUE,lh,6857.404,response,-0.883026438,0.9,-0.9,0.863556254,0.9,-0.9,low,high,,ISIC_5951430.JPG,,ISIC_0032258.JPG,29,TRUE,lh,keypress(e),0,FALSE,778725.9,778725.7,771851.519,772070.5,771868.296,778525.029,1,40,38,
sequence,flow.Sequence,6_37,2023-11-15T20:54:59.962Z,,,,,,,,,6857.404,completion,,,,,,,low,high,,,,,,TRUE,,,,FALSE,778726.1,778725.7,771851.519,772070.5,771868.296,778525.029,1,40,,
trial,html.Screen,6_38_0,2023-11-15T20:55:05.386Z,,,1,0.749733164,0.954353188,,TRUE,ll,5624.471,response,-0.760757319,0.9,-0.9,-0.788074084,0.9,-0.9,low,low,,ISIC_0067801.JPG,,ISIC_2178689.JPG,169,TRUE,ll,keypress(f),0,FALSE,784149.6,784149.5,778508.318,778726.2,778525.029,783947.07,1,40,39,
sequence,flow.Sequence,6_38,2023-11-15T20:55:05.386Z,,,,,,,,,5624.471,completion,,,,,,,low,low,,,,,,TRUE,,,,FALSE,784149.9,784149.5,778508.318,778726.1,778525.029,783947.07,1,40,,
trial,html.Screen,6_39_0,2023-11-15T20:55:10.322Z,,,1,-0.883026438,0.863556254,,TRUE,hl,5138.53,response,0.975213006,0.9,-0.9,-0.724855091,0.9,-0.9,high,low,,ISIC_0032258.JPG,,ISIC_5190484.JPG,43,TRUE,hl,keypress(j),0,FALSE,789085.8,789085.6,783930.395,784150,783947.07,788885.331,1,40,40,
sequence,flow.Sequence,6_39,2023-11-15T20:55:10.322Z,,,,,,,,,5138.53,completion,,,,,,,high,low,,,,,,TRUE,,,,FALSE,789086,789085.6,783930.395,784149.9,783947.07,788885.331,1,40,,
practice_loop,flow.Loop,6,2023-11-15T20:55:10.322Z,,,,,,,,,289206.219,completion,,,,,,,,,,,,,,TRUE,,,,FALSE,789086.2,789085.6,499862.93,500084.6,499879.381,788885.331,1,40,,
stair_instructions,html.Screen,7,2023-11-15T20:55:15.242Z,,,,,,,,,5119.469,response,,,,,,,,,,,,,,,continue,click button,,,794005.4,794004.8,788868.645,789086.2,788885.331,793807.073,,,,
trial,html.Screen,8_0_0,2023-11-15T20:55:24.522Z,,,2,-0.007698448,-0.006945841,,FALSE,ll,9478.427,response,-0.799107788,0.9,-0.9,-0.950068904,0.9,-0.9,low,low,,ISIC_0000434.JPG,,ISIC_0013498.JPG,169,FALSE,hh,keypress(i),0,TRUE,803285.7,803285.5,793790.39,794005.5,793807.073,803099.579,1,40,1,
sequence,flow.Sequence,8_0,2023-11-15T20:55:24.522Z,,,,,,,,,9478.427,completion,,,,,,,low,low,,,,,,FALSE,,,,TRUE,803285.8,803285.5,793790.39,794005.5,793807.073,803099.579,1,40,,
trial,html.Screen,8_1_0,2023-11-15T20:55:34.122Z,,,2,0.063296534,0.010758882,,FALSE,hh,9786.521,response,0.761893041,0.9,-0.95,0.747823423,0.9,-0.95,high,high,,ISIC_1265755.JPG,,ISIC_0062525.JPG,184,FALSE,lh,keypress(e),0,TRUE,812886.1,812886.1,803082.881,803285.8,803099.579,812675.824,1,40,2,
sequence,flow.Sequence,8_1,2023-11-15T20:55:34.123Z,,,,,,,,,9786.521,completion,,,,,,,high,high,,,,,,FALSE,,,,TRUE,812886.5,812886.1,803082.881,803285.8,803099.579,812675.824,1,40,,
trial,html.Screen,8_2_0,2023-11-15T20:55:44.896Z,,,2,-0.011900114,0.006343011,,,,10777.422,timeout,1.017282868,0.95,-0.95,0.719558335,0.9,-0.95,high,high,,ISIC_0003822.JPG,,ISIC_0033696.JPG,170,FALSE,,,0,TRUE,823660,823659.7,812659.115,812886.6,812675.824,823453.246,1,40,3,
sequence,flow.Sequence,8_2,2023-11-15T20:55:44.896Z,,,,,,,,,10983.876,completion,,,,,,,high,high,,,,,,FALSE,,,,TRUE,823660.3,823659.7,812659.115,812886.5,812675.824,823453.246,1,40,,
trial,html.Screen,8_3_0,2023-11-15T20:55:53.204Z,,,2,0.044899401,-0.070872366,,FALSE,lh,8512.654,response,-1.032954915,0.95,-0.95,1.015841008,0.9,-0.95,low,high,,ISIC_0025238.JPG,,ISIC_0054670.JPG,24,FALSE,hh,keypress(i),0,TRUE,831966.1,831965.9,823436.665,823660.5,823453.246,831761.6,1,40,4,
sequence,flow.Sequence,8_3,2023-11-15T20:55:53.204Z,,,,,,,,,8512.654,completion,,,,,,,low,high,,,,,,FALSE,,,,TRUE,831966.3,831965.9,823436.665,823660.3,823453.246,831761.6,1,40,,
trial,html.Screen,8_4_0,2023-11-15T20:55:59.643Z,,,2,-0.026791835,-0.063016783,,TRUE,lh,6643.8,response,-1.032954915,0.95,-1,1.015841008,0.831832216,-0.95,low,high,,ISIC_0064874.JPG,,ISIC_0054670.JPG,29,FALSE,lh,keypress(e),0,TRUE,838405.6,838405.4,831744.754,831966.4,831761.6,838201.428,1,40,5,
sequence,flow.Sequence,8_4,2023-11-15T20:55:59.644Z,,,,,,,,,6643.8,completion,,,,,,,low,high,,,,,,FALSE,,,,TRUE,838405.8,838405.4,831744.754,831966.4,831761.6,838201.428,1,40,,
trial,html.Screen,8_5_0,2023-11-15T20:56:06.107Z,,,2,-0.052464981,0.015545203,,FALSE,hl,6667.872,response,1.092641404,0.95,-1,-0.774162465,0.831832216,-0.95,high,low,,ISIC_0030087.JPG,,ISIC_2355513.JPG,30,FALSE,ll,keypress(f),0,TRUE,844869.4,844869.3,838184.559,838405.8,838201.428,844675.027,1,40,6,
sequence,flow.Sequence,8_5,2023-11-15T20:56:06.107Z,,,,,,,,,6667.872,completion,,,,,,,high,low,,,,,,FALSE,,,,TRUE,844869.6,844869.3,838184.559,838405.8,838201.428,844675.027,1,40,,
trial,html.Screen,8_6_0,2023-11-15T20:56:10.924Z,,,2,0.010717064,-0.059629464,,TRUE,lh,5010.873,response,-1.17118696,1,-1,0.743462636,0.831832216,-0.95,low,high,,ISIC_0005291.JPG,,ISIC_0059052.JPG,29,FALSE,lh,keypress(e),0,TRUE,849686.1,849685.9,844640.994,844869.6,844675.027,849479.321,1,40,7,
sequence,flow.Sequence,8_6,2023-11-15T20:56:10.924Z,,,,,,,,,5010.873,completion,,,,,,,low,high,,,,,,FALSE,,,,TRUE,849686.3,849685.9,844640.994,844869.6,844675.027,849479.321,1,40,,
trial,html.Screen,8_7_0,2023-11-15T20:56:16.748Z,,,2,0.039520186,0.037796158,,TRUE,hl,6030.879,response,0.850053022,1,-0.95,-1.089336071,0.781832216,-0.95,high,low,,ISIC_6356149.JPG,,ISIC_2998367.JPG,23,FALSE,hl,keypress(j),0,TRUE,855510.5,855510.2,849462.713,849686.4,849479.321,855301.841,1,40,8,
sequence,flow.Sequence,8_7,2023-11-15T20:56:16.748Z,,,,,,,,,6030.879,completion,,,,,,,high,low,,,,,,FALSE,,,,TRUE,855510.7,855510.2,849462.713,849686.4,849479.321,855301.841,1,40,,
trial,html.Screen,8_8_0,2023-11-15T20:56:20.620Z,,,2,-0.004406326,-0.017254828,,FALSE,ll,4079.759,response,-1.075705022,1,-0.95,-0.92144236,0.781832216,-0.9,low,low,,ISIC_7413786.JPG,,ISIC_5152859.JPG,150,FALSE,hl,keypress(j),0,TRUE,859381.7,859381.6,855285.27,855510.9,855301.841,859172.327,1,40,9,
sequence,flow.Sequence,8_8,2023-11-15T20:56:20.620Z,,,,,,,,,4079.759,completion,,,,,,,low,low,,,,,,FALSE,,,,TRUE,859381.9,859381.6,855285.27,855510.9,855301.841,859172.327,1,40,,
trial,html.Screen,8_9_0,2023-11-15T20:56:29.316Z,,,2,-0.052464981,0.015545203,,FALSE,hl,8905.773,response,0.898734301,1,-1,-0.814907345,0.781832216,-0.9,high,low,,ISIC_0030087.JPG,,ISIC_0472513.JPG,26,FALSE,ll,keypress(f),0,TRUE,868078.2,868078.1,859155.886,859382,859172.327,867881.186,1,40,10,
sequence,flow.Sequence,8_9,2023-11-15T20:56:29.316Z,,,,,,,,,8905.773,completion,,,,,,,high,low,,,,,,FALSE,,,,TRUE,868078.5,868078.1,859155.886,859382,859172.327,867881.186,1,40,,
trial,html.Screen,8_10_0,2023-11-15T20:56:37.524Z,,,2,0.006517294,-0.011885704,,FALSE,hl,8404.914,response,1.01534394,1.05,-1,-0.930014384,0.781832216,-0.818174853,high,low,,ISIC_6119202.JPG,,ISIC_8211214.JPG,26,FALSE,ll,keypress(f),0,TRUE,876286.3,876286.1,867864.4,868078.6,867881.186,876089.33,1,40,11,
sequence,flow.Sequence,8_10,2023-11-15T20:56:37.524Z,,,,,,,,,8404.914,completion,,,,,,,high,low,,,,,,FALSE,,,,TRUE,876286.6,876286.1,867864.4,868078.5,867881.186,876089.33,1,40,,
trial,html.Screen,8_11_0,2023-11-15T20:56:45.044Z,,,2,-0.008539002,-0.051110951,,FALSE,hl,7716.67,response,0.963317297,1.1,-1,-0.847265934,0.781832216,-0.818174853,high,low,,ISIC_6268546.JPG,,ISIC_0067172.JPG,24,FALSE,lh,keypress(e),0,TRUE,883806.1,883806,876072.516,876286.7,876089.33,883596.806,1,40,12,
sequence,flow.Sequence,8_11,2023-11-15T20:56:45.044Z,,,,,,,,,7716.67,completion,,,,,,,high,low,,,,,,FALSE,,,,TRUE,883806.4,883806,876072.516,876286.7,876089.33,883596.806,1,40,,
trial,html.Screen,8_12_0,2023-11-15T20:56:54.973Z,,,2,-0.044452356,-0.066384683,,TRUE,hh,10137.194,response,1.126536408,1.15,-1,0.914757503,0.781832216,-0.868174853,high,high,,ISIC_0029409.JPG,,ISIC_0029513.JPG,133,FALSE,hh,keypress(i),0,TRUE,893734.1,893734,883580.118,883806.6,883596.806,893540.965,1,40,13,
sequence,flow.Sequence,8_12,2023-11-15T20:56:54.974Z,,,,,,,,,10137.194,completion,,,,,,,high,high,,,,,,FALSE,,,,TRUE,893734.4,893734,883580.118,883806.5,883596.806,893540.965,1,40,,
trial,html.Screen,8_13_0,2023-11-15T20:57:02.189Z,,,2,-0.025763135,-0.0202837,,FALSE,hl,7408.935,response,1.185065147,1.1,-0.95,-0.656667092,0.731832216,-0.818174853,high,low,,ISIC_0032797.JPG,,ISIC_5751956.JPG,24,FALSE,hh,keypress(i),0,TRUE,900950.1,900949.9,893506.492,893734.5,893540.965,900747.276,1,40,14,
sequence,flow.Sequence,8_13,2023-11-15T20:57:02.190Z,,,,,,,,,7408.935,completion,,,,,,,high,low,,,,,,FALSE,,,,TRUE,900950.3,900949.9,893506.492,893734.5,893540.965,900747.276,1,40,,
trial,html.Screen,8_14_0,2023-11-15T20:57:07.365Z,,,2,-0.022002638,0.017075645,,TRUE,ll,5378.224,response,-0.987690267,0.999911325,-0.95,-0.749315199,0.731832216,-0.868174853,low,low,,ISIC_5347806.JPG,,ISIC_2259190.JPG,165,FALSE,ll,keypress(f),0,TRUE,906125.7,906125.5,900730.601,900950.4,900747.276,905919.142,1,40,15,
sequence,flow.Sequence,8_14,2023-11-15T20:57:07.365Z,,,,,,,,,5378.224,completion,,,,,,,low,low,,,,,,FALSE,,,,TRUE,906125.7,906125.5,900730.601,900950.4,900747.276,905919.142,1,40,,
trial,html.Screen,8_15_0,2023-11-15T20:57:16.357Z,,,2,-0.072706508,-0.060162797,,FALSE,hh,9198.758,response,0.864286104,0.999911325,-0.95,0.707172577,0.731832216,-0.868174853,high,high,,ISIC_2245069.JPG,,ISIC_0011315.JPG,185,FALSE,hl,keypress(j),0,TRUE,915118,915117.9,905902.381,906125.9,905919.142,914911.443,1,40,16,
sequence,flow.Sequence,8_15,2023-11-15T20:57:16.358Z,,,,,,,,,9198.758,completion,,,,,,,high,high,,,,,,FALSE,,,,TRUE,915118.2,915117.9,905902.381,906125.8,905919.142,914911.443,1,40,,
trial,html.Screen,8_16_0,2023-11-15T20:57:24.701Z,,,2,0.017520391,0.042751358,,FALSE,ll,8550.157,response,-1.005490329,0.999911325,-0.95,-0.754078714,0.781832216,-0.868174853,low,low,,ISIC_0056292.JPG,,ISIC_0005686.JPG,165,FALSE,lh,keypress(e),0,TRUE,923461.7,923461.6,914894.685,915118.4,914911.443,923253.142,1,40,17,
sequence,flow.Sequence,8_16,2023-11-15T20:57:24.701Z,,,,,,,,,8550.157,completion,,,,,,,low,low,,,,,,FALSE,,,,TRUE,923461.9,923461.6,914894.685,915118.3,914911.443,923253.142,1,40,,
trial,html.Screen,8_17_0,2023-11-15T20:57:33.318Z,,,2,0.022301122,-0.04661908,,FALSE,ll,8824.958,response,-0.92491803,0.999911325,-0.9,-0.955725435,0.781832216,-0.918174853,low,low,,ISIC_0028041.JPG,,ISIC_6778515.JPG,165,FALSE,lh,keypress(e),0,TRUE,932078.2,932078.1,923236.309,923461.9,923253.142,931878.472,1,40,18,
sequence,flow.Sequence,8_17,2023-11-15T20:57:33.318Z,,,,,,,,,8824.958,completion,,,,,,,low,low,,,,,,FALSE,,,,TRUE,932078.5,932078.1,923236.309,923461.9,923253.142,931878.472,1,40,,
trial,html.Screen,8_18_0,2023-11-15T20:57:40.581Z,,,2,-0.024731487,-0.050423227,,FALSE,lh,7463.028,response,-0.788275808,0.999911325,-0.9,0.829640588,0.781832216,-0.968174853,low,high,,ISIC_4782878.JPG,,ISIC_0065882.JPG,44,FALSE,ll,keypress(f),0,TRUE,939341.5,939341.5,931861.7,932078.6,931878.472,939135.73,1,40,19,
sequence,flow.Sequence,8_18,2023-11-15T20:57:40.581Z,,,,,,,,,7463.028,completion,,,,,,,low,high,,,,,,FALSE,,,,TRUE,939341.7,939341.5,931861.7,932078.6,931878.472,939135.73,1,40,,
trial,html.Screen,8_19_0,2023-11-15T20:57:47.261Z,,,2,0.008874192,0.005824607,,TRUE,hh,6886.07,response,0.950091145,0.999911325,-0.806596919,0.868500464,0.831832216,-0.968174853,high,high,,ISIC_4136663.JPG,,ISIC_0011094.JPG,156,FALSE,hh,keypress(i),0,TRUE,946022,946021.8,939118.96,939341.7,939135.73,945826.009,1,40,20,
sequence,flow.Sequence,8_19,2023-11-15T20:57:47.261Z,,,,,,,,,6886.07,completion,,,,,,,high,high,,,,,,FALSE,,,,TRUE,946022.2,946021.8,939118.96,939341.7,939135.73,945826.009,1,40,,
trial,html.Screen,8_20_0,2023-11-15T20:57:53.359Z,,,2,-0.010534926,0.072357463,,TRUE,ll,6291.691,response,-0.78007974,0.859295804,-0.806596919,-0.973676162,0.831832216,-0.968174853,low,low,,ISIC_0058998.JPG,,ISIC_0641173.JPG,163,FALSE,ll,keypress(f),0,TRUE,952117.7,952117.7,945809.175,946022.3,945826.009,951915.196,1,40,21,
sequence,flow.Sequence,8_20,2023-11-15T20:57:53.359Z,,,,,,,,,6291.691,completion,,,,,,,low,low,,,,,,FALSE,,,,TRUE,952117.9,952117.7,945809.175,946022.3,945826.009,951915.196,1,40,,
trial,html.Screen,8_21_0,2023-11-15T20:58:04.146Z,,,2,0.049553144,0.031066043,,,,10794.121,timeout,0.801432048,0.859295804,-0.806596919,0.645695757,0.831832216,-0.968174853,high,high,,ISIC_0013719.JPG,,ISIC_0057016.JPG,207,FALSE,,,0,TRUE,962904.9,962904.7,951898.515,952118,951915.196,962709.317,1,40,22,
sequence,flow.Sequence,8_21,2023-11-15T20:58:04.146Z,,,,,,,,,10989.504,completion,,,,,,,high,high,,,,,,FALSE,,,,TRUE,962905.2,962904.7,951898.515,952118,951915.196,962709.317,1,40,,
trial,html.Screen,8_22_0,2023-11-15T20:58:10.863Z,,,2,0.014659777,0.062222275,,TRUE,ll,6912.583,response,-0.857174796,0.859295804,-0.806596919,-0.9896605,0.831832216,-0.968174853,low,low,,ISIC_5982769.JPG,,ISIC_5363229.JPG,163,FALSE,ll,keypress(f),0,TRUE,969622,969621.9,962692.757,962905.3,962709.317,969416.026,1,40,23,
sequence,flow.Sequence,8_22,2023-11-15T20:58:10.863Z,,,,,,,,,6912.583,completion,,,,,,,low,low,,,,,,FALSE,,,,TRUE,969622.2,969621.9,962692.757,962905.2,962709.317,969416.026,1,40,,
trial,html.Screen,8_23_0,2023-11-15T20:58:16.222Z,,,2,0.022301122,-0.04661908,,TRUE,hl,5565.474,response,0.678931452,0.859295804,-0.931668331,-0.997688772,0.831832216,-0.931668331,high,low,,ISIC_0028041.JPG,,ISIC_1137915.JPG,43,FALSE,hl,keypress(j),0,TRUE,974981.6,974981.5,969399.487,969622.3,969416.026,974771.39,1,40,24,
sequence,flow.Sequence,8_23,2023-11-15T20:58:16.223Z,,,,,,,,,5565.474,completion,,,,,,,high,low,,,,,,FALSE,,,,TRUE,974981.8,974981.5,969399.487,969622.3,969416.026,974771.39,1,40,,
trial,html.Screen,8_24_0,2023-11-15T20:58:20.759Z,,,2,0.038833455,-0.030339997,,FALSE,ll,4746.81,response,-0.896095941,0.859295804,-0.931668331,-0.732640873,0.831832216,-0.931668331,low,low,,ISIC_4961708.JPG,,ISIC_5226353.JPG,146,FALSE,hl,keypress(j),0,TRUE,979518.4,979518.2,974754.84,974981.8,974771.39,979309.301,1,40,25,
sequence,flow.Sequence,8_24,2023-11-15T20:58:20.759Z,,,,,,,,,4746.81,completion,,,,,,,low,low,,,,,,FALSE,,,,TRUE,979518.6,979518.2,974754.84,974981.8,974771.39,979309.301,1,40,,
trial,html.Screen,8_25_0,2023-11-15T20:58:26.327Z,,,2,0.056451201,-0.020531257,,TRUE,hl,5776.599,response,0.911135282,0.859295804,-0.981668331,-0.751793233,0.831832216,-0.815164823,high,low,,ISIC_9019691.JPG,,ISIC_3346045.JPG,58,FALSE,hl,keypress(j),0,TRUE,985086.1,985085.9,979292.772,979518.7,979309.301,984881.488,1,40,26,
sequence,flow.Sequence,8_25,2023-11-15T20:58:26.327Z,,,,,,,,,5776.599,completion,,,,,,,high,low,,,,,,FALSE,,,,TRUE,985086.3,985085.9,979292.772,979518.7,979309.301,984881.488,1,40,,
trial,html.Screen,8_26_0,2023-11-15T20:58:32.463Z,,,2,-0.046252263,-0.008841959,,TRUE,hl,6340.312,response,0.801722143,0.809295804,-0.981668331,-0.702007326,0.831832216,-0.815164823,high,low,,ISIC_1945381.JPG,,ISIC_3236964.JPG,71,FALSE,hl,keypress(j),0,TRUE,991221.9,991221.8,984864.959,985086.4,984881.488,991020.981,1,40,27,
sequence,flow.Sequence,8_26,2023-11-15T20:58:32.463Z,,,,,,,,,6340.312,completion,,,,,,,high,low,,,,,,FALSE,,,,TRUE,991222.2,991221.8,984864.959,985086.4,984881.488,991020.981,1,40,,
trial,html.Screen,8_27_0,2023-11-15T20:58:36.439Z,,,2,0.041893854,-0.067861427,,TRUE,lh,4177.219,response,-0.789083278,0.809295804,-0.981668331,0.717206727,0.831832216,-0.765164823,low,high,,ISIC_0027573.JPG,,ISIC_0011030.JPG,31,FALSE,lh,keypress(e),0,TRUE,995198.5,995198.2,991004.193,991222.3,991020.981,994991.644,1,40,28,
sequence,flow.Sequence,8_27,2023-11-15T20:58:36.440Z,,,,,,,,,4177.219,completion,,,,,,,low,high,,,,,,FALSE,,,,TRUE,995198.7,995198.2,991004.193,991222.2,991020.981,994991.644,1,40,,
trial,html.Screen,8_28_0,2023-11-15T20:58:47.213Z,,,2,0.049553144,0.031066043,,,,10777.516,timeout,0.835126241,0.809295804,-0.981668331,0.764014172,0.781832216,-0.765164823,high,high,,ISIC_0013719.JPG,,ISIC_0029363.JPG,242,FALSE,,,0,TRUE,1005972.3,1005972.2,994975.07,995198.9,994991.644,1005769.16,1,40,29,
sequence,flow.Sequence,8_28,2023-11-15T20:58:47.213Z,,,,,,,,,10980.556,completion,,,,,,,high,high,,,,,,FALSE,,,,TRUE,1005972.5,1005972.2,994975.07,995198.9,994991.644,1005769.16,1,40,,
trial,html.Screen,8_29_0,2023-11-15T20:58:53.641Z,,,2,-0.054403631,-0.056451646,,TRUE,lh,6628.94,response,-0.789083278,0.809295804,-0.981668331,0.717206727,0.781832216,-0.765164823,low,high,,ISIC_7441957.JPG,,ISIC_0011030.JPG,32,FALSE,lh,keypress(e),0,TRUE,1012398.4,1012398.1,1005752.462,1005972.5,1005769.16,1012192.19,1,40,30,
sequence,flow.Sequence,8_29,2023-11-15T20:58:53.641Z,,,,,,,,,6628.94,completion,,,,,,,low,high,,,,,,FALSE,,,,TRUE,1012398.7,1012398.1,1005752.462,1005972.5,1005769.16,1012192.19,1,40,,
trial,html.Screen,8_30_0,2023-11-15T20:58:59.297Z,,,2,-0.020029572,-0.015555907,,FALSE,hl,5861.91,response,0.769291629,0.809295804,-0.931668331,-0.781860471,0.781832216,-0.765164823,high,low,,ISIC_0061343.JPG,,ISIC_7844825.JPG,78,FALSE,lh,keypress(e),0,TRUE,1018054.3,1018054.1,1012175.52,1012398.8,1012192.19,1017847.877,1,40,31,
sequence,flow.Sequence,8_30,2023-11-15T20:58:59.297Z,,,,,,,,,5861.91,completion,,,,,,,high,low,,,,,,FALSE,,,,TRUE,1018054.6,1018054.1,1012175.52,1012398.8,1012192.19,1017847.877,1,40,,
trial,html.Screen,8_31_0,2023-11-15T20:59:07.888Z,,,2,-0.044452356,-0.066384683,,FALSE,lh,8797.523,response,-0.923724114,0.859295804,-0.931668331,0.710208784,0.781832216,-0.815164823,low,high,,ISIC_0029409.JPG,,ISIC_0058661.JPG,37,FALSE,ll,keypress(f),0,TRUE,1026645.5,1026645.4,1017831.149,1018054.7,1017847.877,1026439.73,1,40,32,
sequence,flow.Sequence,8_31,2023-11-15T20:59:07.888Z,,,,,,,,,8797.523,completion,,,,,,,low,high,,,,,,FALSE,,,,TRUE,1026645.7,1026645.4,1017831.149,1018054.6,1017847.877,1026439.73,1,40,,
trial,html.Screen,8_32_0,2023-11-15T20:59:12.736Z,,,2,-0.020029572,-0.015555907,,TRUE,hh,5054.17,response,0.86542742,0.859295804,-0.931668331,0.943970373,0.831832216,-0.815164823,high,high,,ISIC_0061343.JPG,,ISIC_0011752.JPG,207,FALSE,hh,keypress(i),0,TRUE,1031494,1031493.9,1026423.165,1026645.7,1026439.73,1031294.786,1,40,33,
sequence,flow.Sequence,8_32,2023-11-15T20:59:12.737Z,,,,,,,,,5054.17,completion,,,,,,,high,high,,,,,,FALSE,,,,TRUE,1031494.3,1031493.9,1026423.165,1026645.7,1026439.73,1031294.786,1,40,,
trial,html.Screen,8_33_0,2023-11-15T20:59:18.216Z,,,2,-0.071593108,0.011427879,,TRUE,ll,5679.114,response,-0.89641231,0.859295804,-0.931668331,-0.780838186,0.831832216,-0.815164823,low,low,,ISIC_1470250.JPG,,ISIC_2633745.JPG,187,FALSE,ll,keypress(f),0,TRUE,1036974.1,1036973.9,1031277.938,1031494.4,1031294.786,1036766.779,1,40,34,
sequence,flow.Sequence,8_33,2023-11-15T20:59:18.217Z,,,,,,,,,5679.114,completion,,,,,,,low,low,,,,,,FALSE,,,,TRUE,1036974.3,1036973.9,1031277.938,1031494.4,1031294.786,1036766.779,1,40,,
trial,html.Screen,8_34_0,2023-11-15T20:59:23.136Z,,,2,0.010941641,0.005246499,,FALSE,lh,5127.021,response,-0.647120952,0.859295804,-0.788625248,0.72445495,0.831832216,-0.815164823,low,high,,ISIC_0064279.JPG,,ISIC_0029441.JPG,52,FALSE,hl,keypress(j),0,TRUE,1041894,1041893.8,1036750.131,1036974.4,1036766.779,1041688.379,1,40,35,
sequence,flow.Sequence,8_34,2023-11-15T20:59:23.137Z,,,,,,,,,5127.021,completion,,,,,,,low,high,,,,,,FALSE,,,,TRUE,1041894.3,1041893.8,1036750.131,1036974.3,1036766.779,1041688.379,1,40,,
trial,html.Screen,8_35_0,2023-11-15T20:59:26.752Z,,,2,0.047354155,-0.029407695,,TRUE,lh,3821.621,response,-0.708860639,0.859295804,-0.838625248,0.948610931,0.881832216,-0.815164823,low,high,,ISIC_0034065.JPG,,ISIC_0026293.JPG,41,FALSE,lh,keypress(e),0,TRUE,1045510.2,1045510,1041671.816,1041894.4,1041688.379,1045308.684,1,40,36,
sequence,flow.Sequence,8_35,2023-11-15T20:59:26.753Z,,,,,,,,,3821.621,completion,,,,,,,low,high,,,,,,FALSE,,,,TRUE,1045510.4,1045510,1041671.816,1041894.4,1041688.379,1045308.684,1,40,,
trial,html.Screen,8_36_0,2023-11-15T20:59:30.272Z,,,2,-0.050134355,-0.010199144,,FALSE,lh,3721.116,response,-0.847202404,0.859295804,-0.838625248,0.986370061,0.881832216,-0.815164823,low,high,,ISIC_4232761.JPG,,ISIC_0054355.JPG,41,FALSE,hl,keypress(j),0,TRUE,1049029.9,1049029.8,1045291.938,1045510.5,1045308.684,1048828.961,1,40,37,
sequence,flow.Sequence,8_36,2023-11-15T20:59:30.272Z,,,,,,,,,3721.116,completion,,,,,,,low,high,,,,,,FALSE,,,,TRUE,1049030.1,1049029.8,1045291.938,1045510.5,1045308.684,1048828.961,1,40,,
trial,html.Screen,8_37_0,2023-11-15T20:59:36.616Z,,,2,0.041893854,-0.067861427,,TRUE,hh,6544.839,response,0.710346465,0.859295804,-0.888625248,0.764416987,0.931832216,-0.815164823,high,high,,ISIC_0027573.JPG,,ISIC_6125652.JPG,186,FALSE,hh,keypress(i),0,TRUE,1055373.9,1055373.8,1048812.269,1049030.1,1048828.961,1055168.54,1,40,38,
sequence,flow.Sequence,8_37,2023-11-15T20:59:36.616Z,,,,,,,,,6544.839,completion,,,,,,,high,high,,,,,,FALSE,,,,TRUE,1055374.1,1055373.8,1048812.269,1049030.1,1048828.961,1055168.54,1,40,,
trial,html.Screen,8_38_0,2023-11-15T20:59:46.097Z,,,2,0.045779466,0.01377698,,TRUE,ll,9685.86,response,-0.835156032,0.687381726,-0.888625248,-0.708539421,0.931832216,-0.815164823,low,low,,ISIC_0000504.JPG,,ISIC_5795486.JPG,212,FALSE,ll,keypress(f),0,TRUE,1064854.6,1064854.4,1055151.868,1055374.2,1055168.54,1064644.679,1,40,39,
sequence,flow.Sequence,8_38,2023-11-15T20:59:46.097Z,,,,,,,,,9685.86,completion,,,,,,,low,low,,,,,,FALSE,,,,TRUE,1064854.9,1064854.4,1055151.868,1055374.1,1055168.54,1064644.679,1,40,,
trial,html.Screen,8_39_0,2023-11-15T20:59:54.786Z,,,2,0.022301122,-0.04661908,,TRUE,hh,8897.321,response,0.542280702,0.687381726,-0.888625248,1.083053465,0.931832216,-0.721847726,high,high,,ISIC_0028041.JPG,,ISIC_0071135.JPG,236,FALSE,hh,keypress(i),0,TRUE,1073542.2,1073542,1064627.856,1064855,1064644.679,1073336.708,1,40,40,
sequence,flow.Sequence,8_39,2023-11-15T20:59:54.786Z,,,,,,,,,8897.321,completion,,,,,,,high,high,,,,,,FALSE,,,,TRUE,1073542.5,1073542,1064627.856,1064855,1064644.679,1073336.708,1,40,,
stair_loop,flow.Loop,8,2023-11-15T20:59:54.786Z,,,,,,,,,279734.927,completion,,,,,,,,,,,,,,FALSE,,,,TRUE,1073542.6,1073542,793790.39,794005.5,793807.073,1073336.708,1,40,,
exp_instructions,html.Screen,9,2023-11-15T21:00:00.394Z,,,,,,,,,5813.092,response,,,,,,,,,,,,,,,continue,keypress(Space),,,1079150.3,1079149.8,1073319.954,1073542.7,1073336.708,1078942.336,,,,
trial,html.Screen,10_0_0,2023-11-15T21:00:03.706Z,,,1,-0.046469116,-0.053529654,,TRUE,lh,3519.564,response,-0.851342741,0.829604397,-0.902494694,0.929530357,0.841832216,-0.835100823,low,high,,ISIC_0758797.JPG,9,ISIC_0034164.JPG,37,FALSE,lh,keypress(e),0,FALSE,1082462.2,1082461.9,1078925.703,1079150.5,1078942.336,1082262.415,4,500,1,
break,html.Screen,10_0_1,2023-11-15T21:00:03.707Z,,,,,,,,,NaN,,,,,,,,low,high,,,,,,FALSE,,,,FALSE,1082463,1082462.7,,1082462.4,,1082262.415,4,500,,
break_continue,html.Screen,10_0_2,2023-11-15T21:00:03.707Z,,,,,,,,,NaN,,,,,,,,low,high,,,,,,FALSE,,,,FALSE,1082463.6,1082463.3,,1082463.1,,1082262.415,4,500,,
sequence,flow.Sequence,10_0,2023-11-15T21:00:03.707Z,,,,,,,,,3520.964,completion,,,,,,,low,high,,,,,,FALSE,,,,FALSE,1082463.8,1082463.3,1078925.703,1079150.5,1078942.336,1082262.415,4,500,,
trial,html.Screen,10_1_0,2023-11-15T21:00:12.714Z,,,1,-0.048029351,-0.074445432,,FALSE,hh,9207.285,response,0.693980644,0.829604397,-0.902494694,1.02894791,0.841832216,-0.835100823,high,high,,ISIC_1798471.JPG,8,ISIC_0011458.JPG,223,FALSE,lh,keypress(e),0,FALSE,1091469.8,1091469.7,1082245.704,1082463.8,1082262.415,1091271.425,4,500,2,
break,html.Screen,10_1_1,2023-11-15T21:00:12.714Z,,,,,,,,,NaN,,,,,,,,high,high,,,,,,FALSE,,,,FALSE,1091470.2,1091470.1,,1091470,,1091271.425,4,500,,
break_continue,html.Screen,10_1_2,2023-11-15T21:00:12.714Z,,,,,,,,,NaN,,,,,,,,high,high,,,,,,FALSE,,,,FALSE,1091470.3,1091470.2,,1091470.2,,1091271.425,4,500,,
sequence,flow.Sequence,10_1,2023-11-15T21:00:12.714Z,,,,,,,,,9207.785,completion,,,,,,,high,high,,,,,,FALSE,,,,FALSE,1091470.3,1091470.2,1082245.704,1082463.8,1082262.415,1091271.425,4,500,,
trial,html.Screen,10_2_0,2023-11-15T21:00:20.386Z,,,1,0.008874192,0.005824607,,FALSE,hl,7870.475,response,0.651713916,0.829604397,-0.902494694,-0.788222685,0.841832216,-0.835100823,high,low,,ISIC_4136663.JPG,9,ISIC_6552552.JPG,63,FALSE,hh,keypress(i),0,FALSE,1099142.1,1099141.9,1091254.547,1091470.5,1091271.425,1098945.795,4,500,3,
break,html.Screen,10_2_1,2023-11-15T21:00:20.386Z,,,,,,,,,NaN,,,,,,,,high,low,,,,,,FALSE,,,,FALSE,1099142.6,1099142.5,,1099142.3,,1098945.795,4,500,,
break_continue,html.Screen,10_2_2,2023-11-15T21:00:20.387Z,,,,,,,,,NaN,,,,,,,,high,low,,,,,,FALSE,,,,FALSE,1099142.9,1099142.8,,1099142.7,,1098945.795,4,500,,
sequence,flow.Sequence,10_2,2023-11-15T21:00:20.387Z,,,,,,,,,7871.375,completion,,,,,,,high,low,,,,,,FALSE,,,,FALSE,1099143.1,1099142.8,1091254.547,1091470.4,1091271.425,1098945.795,4,500,,
trial,html.Screen,10_3_0,2023-11-15T21:00:28.266Z,,,1,-0.042356727,-0.038012688,,TRUE,ll,8076.005,response,-1.03596443,0.829604397,-0.902494694,-0.947138133,0.841832216,-0.835100823,low,low,,ISIC_0046932.JPG,8,ISIC_8622204.JPG,192,FALSE,ll,keypress(f),0,FALSE,1107022,1107021.8,1098928.854,1099143.2,1098945.795,1106820.269,4,500,4,
break,html.Screen,10_3_1,2023-11-15T21:00:28.266Z,,,,,,,,,NaN,,,,,,,,low,low,,,,,,FALSE,,,,FALSE,1107022.5,1107022.4,,1107022.2,,1106820.269,4,500,,
break_continue,html.Screen,10_3_2,2023-11-15T21:00:28.267Z,,,,,,,,,NaN,,,,,,,,low,low,,,,,,FALSE,,,,FALSE,1107022.9,1107022.8,,1107022.6,,1106820.269,4,500,,
sequence,flow.Sequence,10_3,2023-11-15T21:00:28.267Z,,,,,,,,,8077.005,completion,,,,,,,low,low,,,,,,FALSE,,,,FALSE,1107023,1107022.8,1098928.854,1099143.2,1098945.795,1106820.269,4,500,,
trial,html.Screen,10_4_0,2023-11-15T21:00:36.475Z,,,1,0.034901197,-0.065080528,,TRUE,ll,8410.131,response,-1.004051001,0.829604397,-0.902494694,-0.970747531,0.841832216,-0.835100823,low,low,,ISIC_3898738.JPG,10,ISIC_0026911.JPG,192,FALSE,ll,keypress(f),0,FALSE,1115230.7,1115230.4,1106803.631,1107023.1,1106820.269,1115028.509,4,500,5,
break,html.Screen,10_4_1,2023-11-15T21:00:36.476Z,,,,,,,,,NaN,,,,,,,,low,low,,,,,,FALSE,,,,FALSE,1115231.9,1115231.5,,1115231,,1115028.509,4,500,,
break_continue,html.Screen,10_4_2,2023-11-15T21:00:36.477Z,,,,,,,,,NaN,,,,,,,,low,low,,,,,,FALSE,,,,FALSE,1115232.8,1115232.6,,1115232.3,,1115028.509,4,500,,
sequence,flow.Sequence,10_4,2023-11-15T21:00:36.477Z,,,,,,,,,8412.331,completion,,,,,,,low,low,,,,,,FALSE,,,,FALSE,1115233.1,1115232.6,1106803.631,1107023.1,1106820.269,1115028.509,4,500,,
trial,html.Screen,10_5_0,2023-11-15T21:00:41.962Z,,,1,0.024190039,-0.03399553,,TRUE,hh,5689.391,response,0.629744962,0.829604397,-0.902494694,0.687171617,0.841832216,-0.835100823,high,high,,ISIC_0010789.JPG,9,ISIC_0011700.JPG,223,FALSE,hh,keypress(i),0,FALSE,1120718,1120717.9,1115011.6,1115233.3,1115028.509,1120517.511,4,500,6,
break,html.Screen,10_5_1,2023-11-15T21:00:41.962Z,,,,,,,,,NaN,,,,,,,,high,high,,,,,,FALSE,,,,FALSE,1120718.3,1120718.2,,1120718.1,,1120517.511,4,500,,
break_continue,html.Screen,10_5_2,2023-11-15T21:00:41.962Z,,,,,,,,,NaN,,,,,,,,high,high,,,,,,FALSE,,,,FALSE,1120718.5,1120718.4,,1120718.3,,1120517.511,4,500,,
sequence,flow.Sequence,10_5,2023-11-15T21:00:41.962Z,,,,,,,,,5689.891,completion,,,,,,,high,high,,,,,,FALSE,,,,FALSE,1120718.6,1120718.4,1115011.6,1115233.2,1115028.509,1120517.511,4,500,,
trial,html.Screen,10_6_0,2023-11-15T21:00:45.754Z,,,1,0.062964853,-0.06949609,,TRUE,hl,3992.789,response,0.908940232,0.829604397,-0.902494694,-0.803454408,0.841832216,-0.835100823,high,low,,ISIC_0025597.JPG,10,ISIC_3585381.JPG,63,FALSE,hl,keypress(j),0,FALSE,1124510.4,1124510.3,1120500.523,1120718.7,1120517.511,1124304.408,4,500,7,
break,html.Screen,10_6_1,2023-11-15T21:00:45.755Z,,,,,,,,,NaN,,,,,,,,high,low,,,,,,FALSE,,,,FALSE,1124511.1,1124510.9,,1124510.6,,1124304.408,4,500,,
break_continue,html.Screen,10_6_2,2023-11-15T21:00:45.755Z,,,,,,,,,NaN,,,,,,,,high,low,,,,,,FALSE,,,,FALSE,1124511.5,1124511.4,,1124511.2,,1124304.408,4,500,,
sequence,flow.Sequence,10_6,2023-11-15T21:00:45.755Z,,,,,,,,,3993.889,completion,,,,,,,high,low,,,,,,FALSE,,,,FALSE,1124511.7,1124511.4,1120500.523,1120718.7,1120517.511,1124304.408,4,500,,
trial,html.Screen,10_7_0,2023-11-15T21:00:52.556Z,,,1,-0.011900114,0.006343011,,FALSE,hh,7005.792,response,0.866313996,0.829604397,-0.902494694,0.940959444,0.841832216,-0.835100823,high,high,,ISIC_0003822.JPG,8,ISIC_0010040.JPG,223,FALSE,hl,keypress(j),0,FALSE,1131310.4,1131310.2,1124287.671,1124511.8,1124304.408,1131111.257,4,500,8,
break,html.Screen,10_7_1,2023-11-15T21:00:52.556Z,,,,,,,,,NaN,,,,,,,,high,high,,,,,,FALSE,,,,FALSE,1131311.1,1131310.9,,1131310.5,,1131111.257,4,500,,
break_continue,html.Screen,10_7_2,2023-11-15T21:00:52.557Z,,,,,,,,,NaN,,,,,,,,high,high,,,,,,FALSE,,,,FALSE,1131311.6,1131311.3,,1131311.2,,1131111.257,4,500,,
sequence,flow.Sequence,10_7,2023-11-15T21:00:52.557Z,,,,,,,,,7006.892,completion,,,,,,,high,high,,,,,,FALSE,,,,FALSE,1131311.8,1131311.3,1124287.671,1124511.8,1124304.408,1131111.257,4,500,,
trial,html.Screen,10_8_0,2023-11-15T21:01:03.347Z,,,1,0.019995087,0.017250639,,,,10794.286,timeout,-1.079404393,0.829604397,-0.902494694,0.642235297,0.841832216,-0.835100823,low,high,,ISIC_0029906.JPG,9,ISIC_2106823.JPG,37,FALSE,,,0,FALSE,1142102.3,1142102.1,1131094.584,1131311.9,1131111.257,1141905.543,4,500,9,
break,html.Screen,10_8_1,2023-11-15T21:01:03.348Z,,,,,,,,,NaN,,,,,,,,low,high,,,,,,FALSE,,,,FALSE,1142102.6,1142102.5,,1142102.3,,1141905.543,4,500,,
break_continue,html.Screen,10_8_2,2023-11-15T21:01:03.348Z,,,,,,,,,NaN,,,,,,,,low,high,,,,,,FALSE,,,,FALSE,1142102.9,1142102.7,,1142102.6,,1141905.543,4,500,,
sequence,flow.Sequence,10_8,2023-11-15T21:01:03.348Z,,,,,,,,,10991.443,completion,,,,,,,low,high,,,,,,FALSE,,,,FALSE,1142102.9,1142102.7,1131094.584,1131311.9,1131111.257,1141905.543,4,500,,
trial,html.Screen,10_9_0,2023-11-15T21:01:09.340Z,,,1,-0.008539002,-0.051110951,,TRUE,hl,6188.757,response,1.01534394,0.829604397,-0.902494694,-0.930014384,0.841832216,-0.835100823,high,low,,ISIC_6268546.JPG,8,ISIC_8211214.JPG,63,FALSE,hl,keypress(j),0,FALSE,1148094.5,1148094.3,1141888.903,1142103,1141905.543,1147894.72,4,500,10,
break,html.Screen,10_9_1,2023-11-15T21:01:09.340Z,,,,,,,,,NaN,,,,,,,,high,low,,,,,,FALSE,,,,FALSE,1148095.2,1148095,,1148094.7,,1147894.72,4,500,,
break_continue,html.Screen,10_9_2,2023-11-15T21:01:09.341Z,,,,,,,,,NaN,,,,,,,,high,low,,,,,,FALSE,,,,FALSE,1148095.7,1148095.5,,1148095.4,,1147894.72,4,500,,
sequence,flow.Sequence,10_9,2023-11-15T21:01:09.341Z,,,,,,,,,6189.957,completion,,,,,,,high,low,,,,,,FALSE,,,,FALSE,1148095.9,1148095.5,1141888.903,1142103,1141905.543,1147894.72,4,500,,
trial,html.Screen,10_10_0,2023-11-15T21:01:16.748Z,,,1,0.007466791,-0.0185002,,TRUE,ll,7607.38,response,-0.719832536,0.829604397,-0.902494694,-0.683014663,0.841832216,-0.835100823,low,low,,ISIC_0058723.JPG,9,ISIC_4011169.JPG,192,FALSE,ll,keypress(f),0,FALSE,1155502.2,1155502.1,1147878.075,1148096,1147894.72,1155302.129,4,500,11,
break,html.Screen,10_10_1,2023-11-15T21:01:16.748Z,,,,,,,,,NaN,,,,,,,,low,low,,,,,,FALSE,,,,FALSE,1155502.8,1155502.7,,1155502.4,,1155302.129,4,500,,
break_continue,html.Screen,10_10_2,2023-11-15T21:01:16.748Z,,,,,,,,,NaN,,,,,,,,low,low,,,,,,FALSE,,,,FALSE,1155503.2,1155503,,1155502.9,,1155302.129,4,500,,
sequence,flow.Sequence,10_10,2023-11-15T21:01:16.749Z,,,,,,,,,7608.28,completion,,,,,,,low,low,,,,,,FALSE,,,,FALSE,1155503.3,1155503,1147878.075,1148095.9,1147894.72,1155302.129,4,500,,
trial,html.Screen,10_11_0,2023-11-15T21:01:23.516Z,,,1,0.057761429,0.035892233,,FALSE,ll,6968.071,response,-0.710951122,0.829604397,-0.902494694,-0.909664651,0.841832216,-0.835100823,low,low,,ISIC_8363485.JPG,9,ISIC_3770380.JPG,192,FALSE,lh,keypress(e),0,FALSE,1162270.4,1162270.2,1155285.493,1155503.5,1155302.129,1162076.829,4,500,12,
break,html.Screen,10_11_1,2023-11-15T21:01:23.516Z,,,,,,,,,NaN,,,,,,,,low,low,,,,,,FALSE,,,,FALSE,1162270.8,1162270.6,,1162270.5,,1162076.829,4,500,,
break_continue,html.Screen,10_11_2,2023-11-15T21:01:23.516Z,,,,,,,,,NaN,,,,,,,,low,low,,,,,,FALSE,,,,FALSE,1162271.1,1162271,,1162270.9,,1162076.829,4,500,,
sequence,flow.Sequence,10_11,2023-11-15T21:01:23.516Z,,,,,,,,,6968.871,completion,,,,,,,low,low,,,,,,FALSE,,,,FALSE,1162271.2,1162271,1155285.493,1155503.4,1155302.129,1162076.829,4,500,,
trial,html.Screen,10_12_0,2023-11-15T21:01:26.603Z,,,1,0.01986965,-0.038795235,,FALSE,ll,3281.171,response,-0.827998749,0.829604397,-0.902494694,-0.707982349,0.841832216,-0.835100823,low,low,,ISIC_6735970.JPG,9,ISIC_0030703.JPG,192,FALSE,lh,keypress(e),0,FALSE,1165358.1,1165358,1162042.115,1162271.4,1162076.829,1165162.022,4,500,13,
break,html.Screen,10_12_1,2023-11-15T21:01:26.604Z,,,,,,,,,NaN,,,,,,,,low,low,,,,,,FALSE,,,,FALSE,1165358.5,1165358.4,,1165358.2,,1165162.022,4,500,,
break_continue,html.Screen,10_12_2,2023-11-15T21:01:26.604Z,,,,,,,,,NaN,,,,,,,,low,low,,,,,,FALSE,,,,FALSE,1165358.8,1165358.6,,1165358.6,,1165162.022,4,500,,
sequence,flow.Sequence,10_12,2023-11-15T21:01:26.604Z,,,,,,,,,3281.771,completion,,,,,,,low,low,,,,,,FALSE,,,,FALSE,1165358.9,1165358.6,1162042.115,1162271.3,1162076.829,1165162.022,4,500,,
trial,html.Screen,10_13_0,2023-11-15T21:01:36.212Z,,,1,-0.036774411,-0.032486566,,TRUE,lh,9804.378,response,-1.032954915,0.829604397,-0.902494694,1.015841008,0.841832216,-0.835100823,low,high,,ISIC_4523565.JPG,10,ISIC_0054670.JPG,37,FALSE,lh,keypress(e),0,FALSE,1174966.6,1174966.4,1165145.337,1165358.9,1165162.022,1174771.714,4,500,14,
break,html.Screen,10_13_1,2023-11-15T21:01:36.212Z,,,,,,,,,NaN,,,,,,,,low,high,,,,,,FALSE,,,,FALSE,1174967.2,1174967.1,,1174966.8,,1174771.714,4,500,,
break_continue,html.Screen,10_13_2,2023-11-15T21:01:36.213Z,,,,,,,,,NaN,,,,,,,,low,high,,,,,,FALSE,,,,FALSE,1174967.7,1174967.5,,1174967.4,,1174771.714,4,500,,
sequence,flow.Sequence,10_13,2023-11-15T21:01:36.213Z,,,,,,,,,9805.478,completion,,,,,,,low,high,,,,,,FALSE,,,,FALSE,1174967.9,1174967.5,1165145.337,1165358.9,1165162.022,1174771.714,4,500,,
trial,html.Screen,10_14_0,2023-11-15T21:01:45.444Z,,,1,-0.039430023,0.053611591,,TRUE,ll,9426.686,response,-1.021180875,0.829604397,-0.902494694,-0.958072881,0.841832216,-0.835100823,low,low,,ISIC_0046983.JPG,9,ISIC_1211506.JPG,192,FALSE,ll,keypress(f),0,FALSE,1184198.6,1184198.4,1174738.283,1174968,1174771.714,1183997.495,4,500,15,
break,html.Screen,10_14_1,2023-11-15T21:01:45.445Z,,,,,,,,,NaN,,,,,,,,low,low,,,,,,FALSE,,,,FALSE,1184199.3,1184199.1,,1184198.8,,1183997.495,4,500,,
break_continue,html.Screen,10_14_2,2023-11-15T21:01:45.445Z,,,,,,,,,NaN,,,,,,,,low,low,,,,,,FALSE,,,,FALSE,1184199.5,1184199.5,,1184199.4,,1183997.495,4,500,,
sequence,flow.Sequence,10_14,2023-11-15T21:01:45.445Z,,,,,,,,,9427.786,completion,,,,,,,low,low,,,,,,FALSE,,,,FALSE,1184199.6,1184199.5,1174738.283,1174967.9,1174771.714,1183997.495,4,500,,
trial,html.Screen,10_15_0,2023-11-15T21:01:50.221Z,,,1,-0.022002638,0.017075645,,TRUE,hl,4976.905,response,0.739600126,0.829604397,-0.902494694,-0.990101734,0.841832216,-0.835100823,high,low,,ISIC_5347806.JPG,8,ISIC_8679617.JPG,63,FALSE,hl,keypress(j),0,FALSE,1188974.6,1188974.4,1183980.893,1184199.7,1183997.495,1188768.896,4,500,16,
break,html.Screen,10_15_1,2023-11-15T21:01:50.222Z,,,,,,,,,NaN,,,,,,,,high,low,,,,,,FALSE,,,,FALSE,1188975.2,1188975.1,,1188974.8,,1188768.896,4,500,,
break_continue,html.Screen,10_15_2,2023-11-15T21:01:50.222Z,,,,,,,,,NaN,,,,,,,,high,low,,,,,,FALSE,,,,FALSE,1188975.7,1188975.5,,1188975.3,,1188768.896,4,500,,
sequence,flow.Sequence,10_15,2023-11-15T21:01:50.223Z,,,,,,,,,4978.005,completion,,,,,,,high,low,,,,,,FALSE,,,,FALSE,1188975.8,1188975.5,1183980.893,1184199.7,1183997.495,1188768.896,4,500,,
trial,html.Screen,10_16_0,2023-11-15T21:01:53.053Z,,,1,0.039558746,-0.064506809,,TRUE,hl,3037.304,response,0.668743426,0.829604397,-0.902494694,-0.80480413,0.841832216,-0.835100823,high,low,,ISIC_0010807.JPG,9,ISIC_9403390.JPG,63,FALSE,hl,keypress(j),0,FALSE,1191806.4,1191806.2,1188752.324,1188975.9,1188768.896,1191605.284,4,500,17,
break,html.Screen,10_16_1,2023-11-15T21:01:53.054Z,,,,,,,,,NaN,,,,,,,,high,low,,,,,,FALSE,,,,FALSE,1191806.9,1191806.8,,1191806.6,,1191605.284,4,500,,
break_continue,html.Screen,10_16_2,2023-11-15T21:01:53.054Z,,,,,,,,,NaN,,,,,,,,high,low,,,,,,FALSE,,,,FALSE,1191807.3,1191807.2,,1191807,,1191605.284,4,500,,
sequence,flow.Sequence,10_16,2023-11-15T21:01:53.054Z,,,,,,,,,3038.304,completion,,,,,,,high,low,,,,,,FALSE,,,,FALSE,1191807.5,1191807.2,1188752.324,1188975.9,1188768.896,1191605.284,4,500,,
trial,html.Screen,10_17_0,2023-11-15T21:01:58.117Z,,,1,0.054289303,-0.017665636,,TRUE,hl,5265.016,response,0.814039887,0.829604397,-0.902494694,-0.693422428,0.841832216,-0.835100823,high,low,,ISIC_0024516.JPG,9,ISIC_7196249.JPG,63,FALSE,hl,keypress(j),0,FALSE,1196870.5,1196870.3,1191588.404,1191807.6,1191605.284,1196660.138,4,500,18,
break,html.Screen,10_17_1,2023-11-15T21:01:58.118Z,,,,,,,,,NaN,,,,,,,,high,low,,,,,,FALSE,,,,FALSE,1196871.1,1196870.9,,1196870.6,,1196660.138,4,500,,
break_continue,html.Screen,10_17_2,2023-11-15T21:01:58.118Z,,,,,,,,,NaN,,,,,,,,high,low,,,,,,FALSE,,,,FALSE,1196871.4,1196871.3,,1196871.1,,1196660.138,4,500,,
sequence,flow.Sequence,10_17,2023-11-15T21:01:58.118Z,,,,,,,,,5266.016,completion,,,,,,,high,low,,,,,,FALSE,,,,FALSE,1196871.6,1196871.3,1191588.404,1191807.6,1191605.284,1196660.138,4,500,,
trial,html.Screen,10_18_0,2023-11-15T21:02:02.261Z,,,1,-0.008539002,-0.051110951,,TRUE,hh,4354.162,response,0.643558688,0.829604397,-0.902494694,1.03740791,0.841832216,-0.835100823,high,high,,ISIC_6268546.JPG,9,ISIC_0032396.JPG,223,FALSE,hh,keypress(i),0,FALSE,1201014.6,1201014.3,1196643.518,1196871.7,1196660.138,1200814.406,4,500,19,
break,html.Screen,10_18_1,2023-11-15T21:02:02.262Z,,,,,,,,,NaN,,,,,,,,high,high,,,,,,FALSE,,,,FALSE,1201015,1201014.9,,1201014.7,,1200814.406,4,500,,
break_continue,html.Screen,10_18_2,2023-11-15T21:02:02.262Z,,,,,,,,,NaN,,,,,,,,high,high,,,,,,FALSE,,,,FALSE,1201015.4,1201015.3,,1201015.1,,1200814.406,4,500,,
sequence,flow.Sequence,10_18,2023-11-15T21:02:02.262Z,,,,,,,,,4355.162,completion,,,,,,,high,high,,,,,,FALSE,,,,FALSE,1201015.6,1201015.3,1196643.518,1196871.7,1196660.138,1200814.406,4,500,,
trial,html.Screen,10_19_0,2023-11-15T21:02:07.213Z,,,1,-0.063415009,0.017750297,,FALSE,hl,5151.394,response,0.898734301,0.829604397,-0.902494694,-0.814907345,0.841832216,-0.835100823,high,low,,ISIC_0032433.JPG,9,ISIC_0472513.JPG,63,FALSE,lh,keypress(e),0,FALSE,1205965.9,1205965.8,1200797.705,1201015.7,1200814.406,1205769.334,4,500,20,
break,html.Screen,10_19_1,2023-11-15T21:02:07.213Z,,,,,,,,,NaN,,,,,,,,high,low,,,,,,FALSE,,,,FALSE,1205966.3,1205966.1,,1205966,,1205769.334,4,500,,
break_continue,html.Screen,10_19_2,2023-11-15T21:02:07.213Z,,,,,,,,,NaN,,,,,,,,high,low,,,,,,FALSE,,,,FALSE,1205966.4,1205966.4,,1205966.3,,1205769.334,4,500,,
sequence,flow.Sequence,10_19,2023-11-15T21:02:07.213Z,,,,,,,,,5151.994,completion,,,,,,,high,low,,,,,,FALSE,,,,FALSE,1205966.5,1205966.4,1200797.705,1201015.7,1200814.406,1205769.334,4,500,,
trial,html.Screen,10_20_0,2023-11-15T21:02:12.269Z,,,1,-0.026791835,-0.063016783,,FALSE,lh,5252.466,response,-0.807574154,0.829604397,-0.902494694,0.732689189,0.841832216,-0.835100823,low,high,,ISIC_0064874.JPG,9,ISIC_3428523.JPG,37,FALSE,ll,keypress(f),0,FALSE,1211021.9,1211021.8,1205752.656,1205966.5,1205769.334,1210824.603,4,500,21,
break,html.Screen,10_20_1,2023-11-15T21:02:12.269Z,,,,,,,,,NaN,,,,,,,,low,high,,,,,,FALSE,,,,FALSE,1211022.3,1211022.2,,1211022.1,,1210824.603,4,500,,
break_continue,html.Screen,10_20_2,2023-11-15T21:02:12.269Z,,,,,,,,,NaN,,,,,,,,low,high,,,,,,FALSE,,,,FALSE,1211022.6,1211022.5,,1211022.4,,1210824.603,4,500,,
sequence,flow.Sequence,10_20,2023-11-15T21:02:12.269Z,,,,,,,,,5253.166,completion,,,,,,,low,high,,,,,,FALSE,,,,FALSE,1211022.8,1211022.5,1205752.656,1205966.5,1205769.334,1210824.603,4,500,,
trial,html.Screen,10_21_0,2023-11-15T21:02:17.717Z,,,1,0.024190039,-0.03399553,,TRUE,lh,5645.397,response,-0.895480346,0.829604397,-0.902494694,0.707181905,0.841832216,-0.835100823,low,high,,ISIC_0010789.JPG,9,ISIC_0033071.JPG,37,FALSE,lh,keypress(e),0,FALSE,1216470.1,1216470,1210807.689,1211022.8,1210824.603,1216263.128,4,500,22,
break,html.Screen,10_21_1,2023-11-15T21:02:17.717Z,,,,,,,,,NaN,,,,,,,,low,high,,,,,,FALSE,,,,FALSE,1216470.5,1216470.4,,1216470.2,,1216263.128,4,500,,
break_continue,html.Screen,10_21_2,2023-11-15T21:02:17.717Z,,,,,,,,,NaN,,,,,,,,low,high,,,,,,FALSE,,,,FALSE,1216470.7,1216470.6,,1216470.5,,1216263.128,4,500,,
sequence,flow.Sequence,10_21,2023-11-15T21:02:17.717Z,,,,,,,,,5645.997,completion,,,,,,,low,high,,,,,,FALSE,,,,FALSE,1216470.7,1216470.6,1210807.689,1211022.8,1210824.603,1216263.128,4,500,,
trial,html.Screen,10_22_0,2023-11-15T21:02:21.229Z,,,1,0.064435664,-0.056513049,,TRUE,lh,3718.872,response,-0.811012138,0.829604397,-0.902494694,0.756314214,0.841832216,-0.835100823,low,high,,ISIC_7520843.JPG,9,ISIC_0033605.JPG,37,FALSE,lh,keypress(e),0,FALSE,1219982.1,1219982,1216246.483,1216470.8,1216263.128,1219783.319,4,500,23,
break,html.Screen,10_22_1,2023-11-15T21:02:21.229Z,,,,,,,,,NaN,,,,,,,,low,high,,,,,,FALSE,,,,FALSE,1219982.6,1219982.5,,1219982.3,,1219783.319,4,500,,
break_continue,html.Screen,10_22_2,2023-11-15T21:02:21.230Z,,,,,,,,,NaN,,,,,,,,low,high,,,,,,FALSE,,,,FALSE,1219983,1219982.8,,1219982.8,,1219783.319,4,500,,
sequence,flow.Sequence,10_22,2023-11-15T21:02:21.230Z,,,,,,,,,3719.672,completion,,,,,,,low,high,,,,,,FALSE,,,,FALSE,1219983.1,1219982.8,1216246.483,1216470.8,1216263.128,1219783.319,4,500,,
trial,html.Screen,10_23_0,2023-11-15T21:02:31.421Z,,,1,0.017520391,0.042751358,,TRUE,ll,10391.281,response,-0.709513271,0.829604397,-0.902494694,-0.765212426,0.841832216,-0.835100823,low,low,,ISIC_0056292.JPG,9,ISIC_2415803.JPG,192,FALSE,ll,keypress(f),0,FALSE,1230174.8,1230174.6,1219766.562,1219983.2,1219783.319,1229977.025,4,500,24,
break,html.Screen,10_23_1,2023-11-15T21:02:31.422Z,,,,,,,,,NaN,,,,,,,,low,low,,,,,,FALSE,,,,FALSE,1230175.4,1230175.3,,1230174.9,,1229977.025,4,500,,
break_continue,html.Screen,10_23_2,2023-11-15T21:02:31.423Z,,,,,,,,,NaN,,,,,,,,low,low,,,,,,FALSE,,,,FALSE,1230175.9,1230175.6,,1230175.5,,1229977.025,4,500,,
sequence,flow.Sequence,10_23,2023-11-15T21:02:31.423Z,,,,,,,,,10392.281,completion,,,,,,,low,low,,,,,,FALSE,,,,FALSE,1230176,1230175.6,1219766.562,1219983.2,1219783.319,1229977.025,4,500,,
trial,html.Screen,10_24_0,2023-11-15T21:02:39.781Z,,,1,0.042695792,0.044166031,,FALSE,lh,8557.475,response,-1.079404393,0.829604397,-0.902494694,0.642235297,0.841832216,-0.835100823,low,high,,ISIC_4649440.JPG,8,ISIC_2106823.JPG,37,FALSE,hl,keypress(j),0,FALSE,1238534.6,1238534.5,1229960.16,1230176.1,1229977.025,1238335.294,4,500,25,
break,html.Screen,10_24_1,2023-11-15T21:02:39.782Z,,,,,,,,,NaN,,,,,,,,low,high,,,,,,FALSE,,,,FALSE,1238535.3,1238535.1,,1238534.8,,1238335.294,4,500,,
break_continue,html.Screen,10_24_2,2023-11-15T21:02:39.782Z,,,,,,,,,NaN,,,,,,,,low,high,,,,,,FALSE,,,,FALSE,1238535.8,1238535.5,,1238535.4,,1238335.294,4,500,,
sequence,flow.Sequence,10_24,2023-11-15T21:02:39.783Z,,,,,,,,,8558.475,completion,,,,,,,low,high,,,,,,FALSE,,,,FALSE,1238535.9,1238535.5,1229960.16,1230176.1,1229977.025,1238335.294,4,500,,
trial,html.Screen,10_25_0,2023-11-15T21:02:42.621Z,,,1,-0.071015397,0.035135831,,FALSE,ll,3039.306,response,-0.846591702,0.829604397,-0.902494694,-1.012155806,0.841832216,-0.835100823,low,low,,ISIC_0033279.JPG,9,ISIC_6914698.JPG,192,FALSE,hl,keypress(j),0,FALSE,1241374.8,1241374.6,1238318.379,1238536,1238335.294,1241171.358,4,500,26,
break,html.Screen,10_25_1,2023-11-15T21:02:42.622Z,,,,,,,,,NaN,,,,,,,,low,low,,,,,,FALSE,,,,FALSE,1241375.4,1241375.3,,1241375,,1241171.358,4,500,,
break_continue,html.Screen,10_25_2,2023-11-15T21:02:42.623Z,,,,,,,,,NaN,,,,,,,,low,low,,,,,,FALSE,,,,FALSE,1241375.9,1241375.6,,1241375.6,,1241171.358,4,500,,
sequence,flow.Sequence,10_25,2023-11-15T21:02:42.623Z,,,,,,,,,3040.306,completion,,,,,,,low,low,,,,,,FALSE,,,,FALSE,1241376,1241375.6,1238318.379,1238536,1238335.294,1241171.358,4,500,,
trial,html.Screen,10_26_0,2023-11-15T21:02:46.653Z,,,1,0.034901197,-0.065080528,,TRUE,hl,4234.742,response,0.73054753,0.829604397,-0.902494694,-0.744277924,0.841832216,-0.835100823,high,low,,ISIC_3898738.JPG,9,ISIC_7266604.JPG,63,FALSE,hl,keypress(j),0,FALSE,1245406.2,1245406.1,1241154.643,1241376.2,1241171.358,1245208.738,4,500,27,
break,html.Screen,10_26_1,2023-11-15T21:02:46.654Z,,,,,,,,,NaN,,,,,,,,high,low,,,,,,FALSE,,,,FALSE,1245406.8,1245406.6,,1245406.4,,1245208.738,4,500,,
break_continue,html.Screen,10_26_2,2023-11-15T21:02:46.654Z,,,,,,,,,NaN,,,,,,,,high,low,,,,,,FALSE,,,,FALSE,1245407.3,1245407.1,,1245407,,1245208.738,4,500,,
sequence,flow.Sequence,10_26,2023-11-15T21:02:46.654Z,,,,,,,,,4235.742,completion,,,,,,,high,low,,,,,,FALSE,,,,FALSE,1245407.4,1245407.1,1241154.643,1241376.2,1241171.358,1245208.738,4,500,,
trial,html.Screen,10_27_0,2023-11-15T21:02:52.431Z,,,1,0.063296534,0.010758882,,FALSE,ll,5973.562,response,-0.861858793,0.829604397,-0.902494694,-0.913814117,0.841832216,-0.835100823,low,low,,ISIC_1265755.JPG,10,ISIC_0004564.JPG,192,FALSE,hh,keypress(i),0,FALSE,1251182.5,1251182.3,1245192.061,1245407.5,1245208.738,1250981.244,4,500,28,
break,html.Screen,10_27_1,2023-11-15T21:02:52.431Z,,,,,,,,,NaN,,,,,,,,low,low,,,,,,FALSE,,,,FALSE,1251183.1,1251183,,1251182.6,,1250981.244,4,500,,
break_continue,html.Screen,10_27_2,2023-11-15T21:02:52.432Z,,,,,,,,,NaN,,,,,,,,low,low,,,,,,FALSE,,,,FALSE,1251183.6,1251183.4,,1251183.2,,1250981.244,4,500,,
sequence,flow.Sequence,10_27,2023-11-15T21:02:52.432Z,,,,,,,,,5974.662,completion,,,,,,,low,low,,,,,,FALSE,,,,FALSE,1251183.8,1251183.4,1245192.061,1245407.5,1245208.738,1250981.244,4,500,,
trial,html.Screen,10_28_0,2023-11-15T21:03:00.038Z,,,1,-0.042356727,-0.038012688,,TRUE,lh,7808.556,response,-0.799146,0.829604397,-0.902494694,1.028078872,0.841832216,-0.835100823,low,high,,ISIC_0046932.JPG,10,ISIC_7951202.JPG,37,FALSE,lh,keypress(e),0,FALSE,1258789.9,1258789.8,1250964.666,1251183.9,1250981.244,1258588.875,4,500,29,
break,html.Screen,10_28_1,2023-11-15T21:03:00.038Z,,,,,,,,,NaN,,,,,,,,low,high,,,,,,FALSE,,,,FALSE,1258790.3,1258790.2,,1258790.1,,1258588.875,4,500,,
break_continue,html.Screen,10_28_2,2023-11-15T21:03:00.039Z,,,,,,,,,NaN,,,,,,,,low,high,,,,,,FALSE,,,,FALSE,1258790.4,1258790.4,,1258790.3,,1258588.875,4,500,,
sequence,flow.Sequence,10_28,2023-11-15T21:03:00.039Z,,,,,,,,,7809.156,completion,,,,,,,low,high,,,,,,FALSE,,,,FALSE,1258790.5,1258790.4,1250964.666,1251183.8,1250981.244,1258588.875,4,500,,
trial,html.Screen,10_29_0,2023-11-15T21:03:05.254Z,,,1,0.060335692,0.063078545,,FALSE,ll,5417.225,response,-0.74374785,0.829604397,-0.902494694,-0.719900173,0.841832216,-0.835100823,low,low,,ISIC_9996128.JPG,8,ISIC_1226882.JPG,192,FALSE,hl,keypress(j),0,FALSE,1264006.2,1264006.1,1258572.14,1258790.5,1258588.875,1263810.702,4,500,30,
break,html.Screen,10_29_1,2023-11-15T21:03:05.255Z,,,,,,,,,NaN,,,,,,,,low,low,,,,,,FALSE,,,,FALSE,1264006.7,1264006.5,,1264006.4,,1263810.702,4,500,,
break_continue,html.Screen,10_29_2,2023-11-15T21:03:05.255Z,,,,,,,,,NaN,,,,,,,,low,low,,,,,,FALSE,,,,FALSE,1264007,1264006.8,,1264006.8,,1263810.702,4,500,,
sequence,flow.Sequence,10_29,2023-11-15T21:03:05.255Z,,,,,,,,,5417.925,completion,,,,,,,low,low,,,,,,FALSE,,,,FALSE,1264007.1,1264006.8,1258572.14,1258790.5,1258588.875,1263810.702,4,500,,
trial,html.Screen,10_30_0,2023-11-15T21:03:12.303Z,,,1,-0.020029572,-0.015555907,,FALSE,lh,7243.798,response,-0.883026438,0.829604397,-0.902494694,0.863556254,0.841832216,-0.835100823,low,high,,ISIC_0061343.JPG,9,ISIC_0032258.JPG,37,FALSE,ll,keypress(f),0,FALSE,1271054.8,1271054.5,1263794.154,1264007.2,1263810.702,1270851.068,4,500,31,
break,html.Screen,10_30_1,2023-11-15T21:03:12.304Z,,,,,,,,,NaN,,,,,,,,low,high,,,,,,FALSE,,,,FALSE,1271055.6,1271055.4,,1271055.1,,1270851.068,4,500,,
break_continue,html.Screen,10_30_2,2023-11-15T21:03:12.304Z,,,,,,,,,NaN,,,,,,,,low,high,,,,,,FALSE,,,,FALSE,1271056.1,1271055.9,,1271055.7,,1270851.068,4,500,,
sequence,flow.Sequence,10_30,2023-11-15T21:03:12.304Z,,,,,,,,,7245.198,completion,,,,,,,low,high,,,,,,FALSE,,,,FALSE,1271056.2,1271055.9,1263794.154,1264007.1,1263810.702,1270851.068,4,500,,
trial,html.Screen,10_31_0,2023-11-15T21:03:22.174Z,,,1,-0.024731487,-0.050423227,,FALSE,lh,10074.632,response,-0.965357337,0.829604397,-0.902494694,0.8547668,0.841832216,-0.835100823,low,high,,ISIC_4782878.JPG,9,ISIC_9640145.JPG,37,FALSE,ll,keypress(f),0,FALSE,1280925.9,1280925.7,1270834.395,1271056.3,1270851.068,1280727.73,4,500,32,
break,html.Screen,10_31_1,2023-11-15T21:03:22.174Z,,,,,,,,,NaN,,,,,,,,low,high,,,,,,FALSE,,,,FALSE,1280926.3,1280926.2,,1280926,,1280727.73,4,500,,
break_continue,html.Screen,10_31_2,2023-11-15T21:03:22.175Z,,,,,,,,,NaN,,,,,,,,low,high,,,,,,FALSE,,,,FALSE,1280926.5,1280926.4,,1280926.3,,1280727.73,4,500,,
sequence,flow.Sequence,10_31,2023-11-15T21:03:22.175Z,,,,,,,,,10075.332,completion,,,,,,,low,high,,,,,,FALSE,,,,FALSE,1280926.6,1280926.4,1270834.395,1271056.3,1270851.068,1280727.73,4,500,,
trial,html.Screen,10_32_0,2023-11-15T21:03:30.046Z,,,1,-0.011838204,-0.030058825,,FALSE,hh,8070.47,response,1.022944832,0.829604397,-0.902494694,0.786808016,0.841832216,-0.835100823,high,high,,ISIC_4748605.JPG,10,ISIC_0059773.JPG,223,FALSE,lh,keypress(e),0,FALSE,1288798.4,1288798.2,1280711.067,1280926.6,1280727.73,1288602.41,4,500,33,
break,html.Screen,10_32_1,2023-11-15T21:03:30.047Z,,,,,,,,,NaN,,,,,,,,high,high,,,,,,FALSE,,,,FALSE,1288798.7,1288798.7,,1288798.5,,1288602.41,4,500,,
break_continue,html.Screen,10_32_2,2023-11-15T21:03:30.047Z,,,,,,,,,NaN,,,,,,,,high,high,,,,,,FALSE,,,,FALSE,1288798.9,1288798.8,,1288798.7,,1288602.41,4,500,,
sequence,flow.Sequence,10_32,2023-11-15T21:03:30.047Z,,,,,,,,,8071.07,completion,,,,,,,high,high,,,,,,FALSE,,,,FALSE,1288799,1288798.8,1280711.067,1280926.6,1280727.73,1288602.41,4,500,,
trial,html.Screen,10_33_0,2023-11-15T21:03:32.687Z,,,1,0.060335692,0.063078545,,FALSE,hl,2836.19,response,0.76290994,0.829604397,-0.902494694,-0.851595663,0.841832216,-0.835100823,high,low,,ISIC_9996128.JPG,9,ISIC_0028718.JPG,63,FALSE,lh,keypress(e),0,FALSE,1291438.7,1291438.6,1288585.416,1288799.1,1288602.41,1291238.211,4,500,34,
break,html.Screen,10_33_1,2023-11-15T21:03:32.688Z,,,,,,,,,NaN,,,,,,,,high,low,,,,,,FALSE,,,,FALSE,1291439.3,1291439.2,,1291438.9,,1291238.211,4,500,,
break_continue,html.Screen,10_33_2,2023-11-15T21:03:32.688Z,,,,,,,,,NaN,,,,,,,,high,low,,,,,,FALSE,,,,FALSE,1291439.9,1291439.6,,1291439.5,,1291238.211,4,500,,
sequence,flow.Sequence,10_33,2023-11-15T21:03:32.688Z,,,,,,,,,2837.19,completion,,,,,,,high,low,,,,,,FALSE,,,,FALSE,1291439.9,1291439.6,1288585.416,1288799.1,1288602.41,1291238.211,4,500,,
trial,html.Screen,10_34_0,2023-11-15T21:03:36.551Z,,,1,0.039520186,0.037796158,,TRUE,hl,4063.989,response,0.739600126,0.829604397,-0.902494694,-0.990101734,0.841832216,-0.835100823,high,low,,ISIC_6356149.JPG,9,ISIC_8679617.JPG,63,FALSE,hl,keypress(j),0,FALSE,1295302.4,1295302.2,1291221.575,1291440.2,1291238.211,1295092.041,4,500,35,
break,html.Screen,10_34_1,2023-11-15T21:03:36.551Z,,,,,,,,,NaN,,,,,,,,high,low,,,,,,FALSE,,,,FALSE,1295302.9,1295302.8,,1295302.6,,1295092.041,4,500,,
break_continue,html.Screen,10_34_2,2023-11-15T21:03:36.551Z,,,,,,,,,NaN,,,,,,,,high,low,,,,,,FALSE,,,,FALSE,1295303.2,1295303.1,,1295303,,1295092.041,4,500,,
sequence,flow.Sequence,10_34,2023-11-15T21:03:36.552Z,,,,,,,,,4064.889,completion,,,,,,,high,low,,,,,,FALSE,,,,FALSE,1295303.4,1295303.1,1291221.575,1291440.1,1291238.211,1295092.041,4,500,,
trial,html.Screen,10_35_0,2023-11-15T21:03:47.023Z,,,1,0.024190039,-0.03399553,,TRUE,hl,10682.759,response,0.686646616,0.829604397,-0.902494694,-0.99930104,0.841832216,-0.835100823,high,low,,ISIC_0010789.JPG,8,ISIC_6155782.JPG,63,FALSE,hl,keypress(j),0,FALSE,1305774.9,1305774.8,1295075.269,1295303.5,1295092.041,1305569.215,4,500,36,
break,html.Screen,10_35_1,2023-11-15T21:03:47.024Z,,,,,,,,,NaN,,,,,,,,high,low,,,,,,FALSE,,,,FALSE,1305775.6,1305775.4,,1305775.2,,1305569.215,4,500,,
break_continue,html.Screen,10_35_2,2023-11-15T21:03:47.024Z,,,,,,,,,NaN,,,,,,,,high,low,,,,,,FALSE,,,,FALSE,1305776.1,1305775.9,,1305775.7,,1305569.215,4,500,,
sequence,flow.Sequence,10_35,2023-11-15T21:03:47.024Z,,,,,,,,,10683.859,completion,,,,,,,high,low,,,,,,FALSE,,,,FALSE,1305776.2,1305775.9,1295075.269,1295303.5,1295092.041,1305569.215,4,500,,
trial,html.Screen,10_36_0,2023-11-15T21:03:54.184Z,,,1,0.017520391,0.042751358,,TRUE,lh,7364.985,response,-0.724677157,0.829604397,-0.902494694,0.916138508,0.841832216,-0.835100823,low,high,,ISIC_0056292.JPG,10,ISIC_0028225.JPG,37,FALSE,lh,keypress(e),0,FALSE,1312934.4,1312934.2,1305552.612,1305776.3,1305569.215,1312726.341,4,500,37,
break,html.Screen,10_36_1,2023-11-15T21:03:54.184Z,,,,,,,,,NaN,,,,,,,,low,high,,,,,,FALSE,,,,FALSE,1312934.9,1312934.8,,1312934.6,,1312726.341,4,500,,
break_continue,html.Screen,10_36_2,2023-11-15T21:03:54.185Z,,,,,,,,,NaN,,,,,,,,low,high,,,,,,FALSE,,,,FALSE,1312935.3,1312935.2,,1312935,,1312726.341,4,500,,
sequence,flow.Sequence,10_36,2023-11-15T21:03:54.185Z,,,,,,,,,7365.985,completion,,,,,,,low,high,,,,,,FALSE,,,,FALSE,1312935.4,1312935.2,1305552.612,1305776.3,1305569.215,1312726.341,4,500,,
trial,html.Screen,10_37_0,2023-11-15T21:04:03.416Z,,,1,-0.07184645,0.042965352,,FALSE,hh,9440.059,response,1.006335354,0.829604397,-0.902494694,0.946873961,0.841832216,-0.835100823,high,high,,ISIC_0028597.JPG,8,ISIC_0072382.JPG,223,FALSE,lh,keypress(e),0,FALSE,1322166.6,1322166.4,1312709.538,1312935.5,1312726.341,1321969.097,4,500,38,
break,html.Screen,10_37_1,2023-11-15T21:04:03.417Z,,,,,,,,,NaN,,,,,,,,high,high,,,,,,FALSE,,,,FALSE,1322167.1,1322167,,1322166.8,,1321969.097,4,500,,
break_continue,html.Screen,10_37_2,2023-11-15T21:04:03.417Z,,,,,,,,,NaN,,,,,,,,high,high,,,,,,FALSE,,,,FALSE,1322167.5,1322167.4,,1322167.2,,1321969.097,4,500,,
sequence,flow.Sequence,10_37,2023-11-15T21:04:03.417Z,,,,,,,,,9441.059,completion,,,,,,,high,high,,,,,,FALSE,,,,FALSE,1322167.6,1322167.4,1312709.538,1312935.5,1312726.341,1321969.097,4,500,,
trial,html.Screen,10_38_0,2023-11-15T21:04:13.760Z,,,1,0.039520186,0.037796158,,FALSE,ll,10541.603,response,-1.102485544,0.829604397,-0.902494694,-0.75921161,0.841832216,-0.835100823,low,low,,ISIC_6356149.JPG,8,ISIC_1208705.JPG,192,FALSE,hh,keypress(i),0,FALSE,1332510.9,1332510.7,1321952.155,1322167.7,1321969.097,1332312.729,4,500,39,
break,html.Screen,10_38_1,2023-11-15T21:04:13.761Z,,,,,,,,,NaN,,,,,,,,low,low,,,,,,FALSE,,,,FALSE,1332511.6,1332511.4,,1332511.1,,1332312.729,4,500,,
break_continue,html.Screen,10_38_2,2023-11-15T21:04:13.762Z,,,,,,,,,NaN,,,,,,,,low,low,,,,,,FALSE,,,,FALSE,1332512,1332511.8,,1332511.7,,1332312.729,4,500,,
sequence,flow.Sequence,10_38,2023-11-15T21:04:13.762Z,,,,,,,,,10542.703,completion,,,,,,,low,low,,,,,,FALSE,,,,FALSE,1332512.2,1332511.8,1321952.155,1322167.7,1321969.097,1332312.729,4,500,,
trial,html.Screen,10_39_0,2023-11-15T21:04:18.871Z,,,1,0.042695792,0.044166031,,FALSE,ll,5309.071,response,-0.837944214,0.829604397,-0.902494694,-0.826069253,0.841832216,-0.835100823,low,low,,ISIC_4649440.JPG,10,ISIC_0013213.JPG,192,FALSE,hl,keypress(j),0,FALSE,1337621.9,1337621.8,1332296.147,1332512.5,1332312.729,1337417.745,4,500,40,
break,html.Screen,10_39_1,2023-11-15T21:04:18.872Z,,,,,,,,,NaN,,,,,,,,low,low,,,,,,FALSE,,,,FALSE,1337622.3,1337622.2,,1337622,,1337417.745,4,500,,
break_continue,html.Screen,10_39_2,2023-11-15T21:04:18.872Z,,,,,,,,,NaN,,,,,,,,low,low,,,,,,FALSE,,,,FALSE,1337622.4,1337622.3,,1337622.3,,1337417.745,4,500,,
sequence,flow.Sequence,10_39,2023-11-15T21:04:18.872Z,,,,,,,,,5309.571,completion,,,,,,,low,low,,,,,,FALSE,,,,FALSE,1337622.5,1337622.3,1332296.147,1332512.4,1332312.729,1337417.745,4,500,,
trial,html.Screen,10_40_0,2023-11-15T21:04:29.640Z,,,1,0.034901197,-0.065080528,,TRUE,ll,10972.155,response,-0.910688048,0.829604397,-0.902494694,-0.695608835,0.841832216,-0.835100823,low,low,,ISIC_3898738.JPG,8,ISIC_0553932.JPG,192,FALSE,ll,keypress(f),0,FALSE,1348390,1348389.9,1337401.174,1337622.5,1337417.745,1348195.998,4,500,41,
break,html.Screen,10_40_1,2023-11-15T21:04:29.640Z,,,,,,,,,NaN,,,,,,,,low,low,,,,,,FALSE,,,,FALSE,1348390.3,1348390.3,,1348390.1,,1348195.998,4,500,,
break_continue,html.Screen,10_40_2,2023-11-15T21:04:29.640Z,,,,,,,,,NaN,,,,,,,,low,low,,,,,,FALSE,,,,FALSE,1348390.6,1348390.5,,1348390.4,,1348195.998,4,500,,
sequence,flow.Sequence,10_40,2023-11-15T21:04:29.640Z,,,,,,,,,10972.755,completion,,,,,,,low,low,,,,,,FALSE,,,,FALSE,1348390.6,1348390.5,1337401.174,1337622.5,1337417.745,1348195.998,4,500,,
trial,html.Screen,10_41_0,2023-11-15T21:04:34.791Z,,,1,-0.054403631,-0.056451646,,TRUE,lh,5345.902,response,-0.799146,0.829604397,-0.902494694,1.028078872,0.841832216,-0.835100823,low,high,,ISIC_7441957.JPG,10,ISIC_7951202.JPG,37,FALSE,lh,keypress(e),0,FALSE,1353541.9,1353541.9,1348161.858,1348390.7,1348195.998,1353333.639,4,500,42,
break,html.Screen,10_41_1,2023-11-15T21:04:34.792Z,,,,,,,,,NaN,,,,,,,,low,high,,,,,,FALSE,,,,FALSE,1353542.2,1353542.1,,1353542,,1353333.639,4,500,,
break_continue,html.Screen,10_41_2,2023-11-15T21:04:34.792Z,,,,,,,,,NaN,,,,,,,,low,high,,,,,,FALSE,,,,FALSE,1353542.4,1353542.3,,1353542.2,,1353333.639,4,500,,
sequence,flow.Sequence,10_41,2023-11-15T21:04:34.792Z,,,,,,,,,5346.302,completion,,,,,,,low,high,,,,,,FALSE,,,,FALSE,1353542.5,1353542.3,1348161.858,1348390.7,1348195.998,1353333.639,4,500,,
trial,html.Screen,10_42_0,2023-11-15T21:04:39.944Z,,,1,0.052747797,0.05759708,,TRUE,hh,5360.761,response,0.94018039,0.829604397,-0.902494694,0.692061739,0.841832216,-0.835100823,high,high,,ISIC_0667763.JPG,9,ISIC_0055781.JPG,223,FALSE,hh,keypress(i),0,FALSE,1358694.5,1358694.4,1353317.054,1353542.5,1353333.639,1358488.8,4,500,43,
break,html.Screen,10_42_1,2023-11-15T21:04:39.944Z,,,,,,,,,NaN,,,,,,,,high,high,,,,,,FALSE,,,,FALSE,1358694.9,1358694.8,,1358694.6,,1358488.8,4,500,,
break_continue,html.Screen,10_42_2,2023-11-15T21:04:39.945Z,,,,,,,,,NaN,,,,,,,,high,high,,,,,,FALSE,,,,FALSE,1358695.1,1358694.9,,1358694.9,,1358488.8,4,500,,
sequence,flow.Sequence,10_42,2023-11-15T21:04:39.945Z,,,,,,,,,5361.261,completion,,,,,,,high,high,,,,,,FALSE,,,,FALSE,1358695.2,1358694.9,1353317.054,1353542.5,1353333.639,1358488.8,4,500,,
trial,html.Screen,10_43_0,2023-11-15T21:04:46.616Z,,,1,0.052868822,-0.035678846,,FALSE,lh,6877.5,response,-0.892651593,0.829604397,-0.902494694,0.793596077,0.841832216,-0.835100823,low,high,,ISIC_5287748.JPG,9,ISIC_8901371.JPG,37,FALSE,hl,keypress(j),0,FALSE,1365366.6,1365366.3,1358472.23,1358695.2,1358488.8,1365162.172,4,500,44,
break,html.Screen,10_43_1,2023-11-15T21:04:46.617Z,,,,,,,,,NaN,,,,,,,,low,high,,,,,,FALSE,,,,FALSE,1365367,1365366.9,,1365366.7,,1365162.172,4,500,,
break_continue,html.Screen,10_43_2,2023-11-15T21:04:46.617Z,,,,,,,,,NaN,,,,,,,,low,high,,,,,,FALSE,,,,FALSE,1365367.5,1365367.4,,1365367.2,,1365162.172,4,500,,
sequence,flow.Sequence,10_43,2023-11-15T21:04:46.617Z,,,,,,,,,6878.6,completion,,,,,,,low,high,,,,,,FALSE,,,,FALSE,1365367.7,1365367.4,1358472.23,1358695.2,1358488.8,1365162.172,4,500,,
trial,html.Screen,10_44_0,2023-11-15T21:04:55.401Z,,,1,0.060335692,0.063078545,,FALSE,hh,8988.228,response,0.873243481,0.829604397,-0.902494694,0.654535487,0.841832216,-0.835100823,high,high,,ISIC_9996128.JPG,9,ISIC_3395488.JPG,223,FALSE,ll,keypress(f),0,FALSE,1374150.6,1374150.4,1365145.585,1365367.8,1365162.172,1373954.372,4,500,45,
break,html.Screen,10_44_1,2023-11-15T21:04:55.402Z,,,,,,,,,NaN,,,,,,,,high,high,,,,,,FALSE,,,,FALSE,1374151.2,1374151,,1374150.8,,1373954.372,4,500,,
break_continue,html.Screen,10_44_2,2023-11-15T21:04:55.403Z,,,,,,,,,NaN,,,,,,,,high,high,,,,,,FALSE,,,,FALSE,1374151.7,1374151.5,,1374151.3,,1373954.372,4,500,,
sequence,flow.Sequence,10_44,2023-11-15T21:04:55.403Z,,,,,,,,,8989.328,completion,,,,,,,high,high,,,,,,FALSE,,,,FALSE,1374151.9,1374151.5,1365145.585,1365367.8,1365162.172,1373954.372,4,500,,
trial,html.Screen,10_45_0,2023-11-15T21:05:05.002Z,,,1,0.017520391,0.042751358,,TRUE,hh,9796.328,response,0.978261194,0.829604397,-0.902494694,0.73974566,0.841832216,-0.835100823,high,high,,ISIC_0056292.JPG,9,ISIC_0010131.JPG,223,FALSE,hh,keypress(i),0,FALSE,1383750.9,1383750.7,1373937.617,1374152,1373954.372,1383547.229,4,500,46,
break,html.Screen,10_45_1,2023-11-15T21:05:05.002Z,,,,,,,,,NaN,,,,,,,,high,high,,,,,,FALSE,,,,FALSE,1383751.6,1383751.5,,1383751.2,,1383547.229,4,500,,
break_continue,html.Screen,10_45_2,2023-11-15T21:05:05.003Z,,,,,,,,,NaN,,,,,,,,high,high,,,,,,FALSE,,,,FALSE,1383752,1383751.9,,1383751.7,,1383547.229,4,500,,
sequence,flow.Sequence,10_45,2023-11-15T21:05:05.003Z,,,,,,,,,9797.528,completion,,,,,,,high,high,,,,,,FALSE,,,,FALSE,1383752.2,1383751.9,1373937.617,1374152,1373954.372,1383547.229,4,500,,
trial,html.Screen,10_46_0,2023-11-15T21:05:11.241Z,,,1,-0.004406326,-0.017254828,,FALSE,ll,6443.171,response,-1.006091592,0.829604397,-0.902494694,-0.803934595,0.841832216,-0.835100823,low,low,,ISIC_7413786.JPG,9,ISIC_6993129.JPG,192,FALSE,hl,keypress(j),0,FALSE,1389990.5,1389990.4,1383530.511,1383752.4,1383547.229,1389786.809,4,500,47,
break,html.Screen,10_46_1,2023-11-15T21:05:11.242Z,,,,,,,,,NaN,,,,,,,,low,low,,,,,,FALSE,,,,FALSE,1389991,1389990.8,,1389990.7,,1389786.809,4,500,,
break_continue,html.Screen,10_46_2,2023-11-15T21:05:11.242Z,,,,,,,,,NaN,,,,,,,,low,low,,,,,,FALSE,,,,FALSE,1389991.3,1389991.1,,1389991.1,,1389786.809,4,500,,
sequence,flow.Sequence,10_46,2023-11-15T21:05:11.242Z,,,,,,,,,6443.871,completion,,,,,,,low,low,,,,,,FALSE,,,,FALSE,1389991.5,1389991.1,1383530.511,1383752.3,1383547.229,1389786.809,4,500,,
trial,html.Screen,10_47_0,2023-11-15T21:05:22.030Z,,,1,0.024190039,-0.03399553,,,,10794.233,timeout,0.919827616,0.829604397,-0.902494694,-0.775491511,0.841832216,-0.835100823,high,low,,ISIC_0010789.JPG,9,ISIC_7840728.JPG,63,FALSE,,,0,FALSE,1400779.5,1400779.3,1389770.281,1389991.5,1389786.809,1400581.042,4,500,48,
break,html.Screen,10_47_1,2023-11-15T21:05:22.031Z,,,,,,,,,NaN,,,,,,,,high,low,,,,,,FALSE,,,,FALSE,1400780.3,1400780,,1400779.7,,1400581.042,4,500,,
break_continue,html.Screen,10_47_2,2023-11-15T21:05:22.032Z,,,,,,,,,NaN,,,,,,,,high,low,,,,,,FALSE,,,,FALSE,1400780.7,1400780.5,,1400780.4,,1400581.042,4,500,,
sequence,flow.Sequence,10_47,2023-11-15T21:05:22.032Z,,,,,,,,,10993.691,completion,,,,,,,high,low,,,,,,FALSE,,,,FALSE,1400780.9,1400780.5,1389770.281,1389991.5,1389786.809,1400581.042,4,500,,
trial,html.Screen,10_48_0,2023-11-15T21:05:29.594Z,,,1,0.040966056,-0.039283579,,TRUE,lh,7761.858,response,-0.929214457,0.829604397,-0.902494694,0.643107253,0.841832216,-0.835100823,low,high,,ISIC_0479264.JPG,9,ISIC_4108397.JPG,37,FALSE,lh,keypress(e),0,FALSE,1408343.1,1408342.9,1400564.387,1400781,1400581.042,1408138.5,4,500,49,
break,html.Screen,10_48_1,2023-11-15T21:05:29.595Z,,,,,,,,,NaN,,,,,,,,low,high,,,,,,FALSE,,,,FALSE,1408343.8,1408343.7,,1408343.4,,1408138.5,4,500,,
break_continue,html.Screen,10_48_2,2023-11-15T21:05:29.595Z,,,,,,,,,NaN,,,,,,,,low,high,,,,,,FALSE,,,,FALSE,1408344.3,1408344.1,,1408344,,1408138.5,4,500,,
sequence,flow.Sequence,10_48,2023-11-15T21:05:29.595Z,,,,,,,,,7763.058,completion,,,,,,,low,high,,,,,,FALSE,,,,FALSE,1408344.5,1408344.1,1400564.387,1400781,1400581.042,1408138.5,4,500,,
trial,html.Screen,10_49_0,2023-11-15T21:05:40.384Z,,,1,0.038833455,-0.030339997,,,,10794.184,timeout,0.727154484,0.829604397,-0.902494694,-0.912736883,0.841832216,-0.835100823,high,low,,ISIC_4961708.JPG,9,ISIC_4129321.JPG,63,FALSE,,,0,FALSE,1419132.6,1419132.4,1408121.863,1408344.7,1408138.5,1418932.684,4,500,50,
break,html.Screen,10_49_1,2023-11-15T21:05:40.384Z,,,,,,,,,NaN,,,,,,,,high,low,,,,,,FALSE,,,,FALSE,1419133.5,1419133.3,,1419133,,1418932.684,4,500,,
break_continue,html.Screen,10_49_2,2023-11-15T21:05:40.385Z,,,,,,,,,NaN,,,,,,,,high,low,,,,,,FALSE,,,,FALSE,1419134,1419133.8,,1419133.6,,1418932.684,4,500,,
sequence,flow.Sequence,10_49,2023-11-15T21:05:40.385Z,,,,,,,,,10995.3,completion,,,,,,,high,low,,,,,,FALSE,,,,FALSE,1419134.3,1419133.8,1408121.863,1408344.5,1408138.5,1418932.684,4,500,,
trial,html.Screen,10_50_0,2023-11-15T21:05:45.017Z,,,1,-0.07184645,0.042965352,,TRUE,hl,4833.716,response,0.961789398,0.829604397,-0.902494694,-0.945300613,0.841832216,-0.835100823,high,low,,ISIC_0028597.JPG,9,ISIC_4229473.JPG,63,FALSE,hl,keypress(j),0,FALSE,1423766.5,1423766.4,1418916.099,1419134.4,1418932.684,1423570.874,4,500,51,
break,html.Screen,10_50_1,2023-11-15T21:05:45.018Z,,,,,,,,,NaN,,,,,,,,high,low,,,,,,FALSE,,,,FALSE,1423766.9,1423766.8,,1423766.6,,1423570.874,4,500,,
break_continue,html.Screen,10_50_2,2023-11-15T21:05:45.018Z,,,,,,,,,NaN,,,,,,,,high,low,,,,,,FALSE,,,,FALSE,1423767,1423766.9,,1423766.9,,1423570.874,4,500,,
sequence,flow.Sequence,10_50,2023-11-15T21:05:45.018Z,,,,,,,,,4834.216,completion,,,,,,,high,low,,,,,,FALSE,,,,FALSE,1423767.2,1423766.9,1418916.099,1419134.3,1418932.684,1423570.874,4,500,,
trial,html.Screen,10_51_0,2023-11-15T21:05:55.807Z,,,1,0.040966056,-0.039283579,,,,10777.201,timeout,-0.833202393,0.829604397,-0.902494694,-0.678236091,0.841832216,-0.835100823,low,low,,ISIC_0479264.JPG,9,ISIC_2119925.JPG,192,FALSE,,,0,FALSE,1434555,1434554.8,1423553.877,1423767.2,1423570.874,1434348.075,4,500,52,
break,html.Screen,10_51_1,2023-11-15T21:05:55.808Z,,,,,,,,,NaN,,,,,,,,low,low,,,,,,FALSE,,,,FALSE,1434555.5,1434555.4,,1434555.1,,1434348.075,4,500,,
break_continue,html.Screen,10_51_2,2023-11-15T21:05:55.808Z,,,,,,,,,NaN,,,,,,,,low,low,,,,,,FALSE,,,,FALSE,1434556,1434555.8,,1434555.7,,1434348.075,4,500,,
sequence,flow.Sequence,10_51,2023-11-15T21:05:55.808Z,,,,,,,,,10984.926,completion,,,,,,,low,low,,,,,,FALSE,,,,FALSE,1434556.2,1434555.8,1423553.877,1423767.2,1423570.874,1434348.075,4,500,,
trial,html.Screen,10_52_0,2023-11-15T21:05:59.579Z,,,1,0.010941641,0.005246499,,TRUE,lh,3978.325,response,-0.803431894,0.829604397,-0.902494694,1.00249173,0.841832216,-0.835100823,low,high,,ISIC_0064279.JPG,9,ISIC_0032766.JPG,37,FALSE,lh,keypress(e),0,FALSE,1438326.5,1438326.4,1434331.435,1434556.2,1434348.075,1438118.504,4,500,53,
break,html.Screen,10_52_1,2023-11-15T21:05:59.579Z,,,,,,,,,NaN,,,,,,,,low,high,,,,,,FALSE,,,,FALSE,1438326.7,1438326.6,,1438326.5,,1438118.504,4,500,,
break_continue,html.Screen,10_52_2,2023-11-15T21:05:59.579Z,,,,,,,,,NaN,,,,,,,,low,high,,,,,,FALSE,,,,FALSE,1438327,1438326.8,,1438326.8,,1438118.504,4,500,,
sequence,flow.Sequence,10_52,2023-11-15T21:05:59.579Z,,,,,,,,,3978.725,completion,,,,,,,low,high,,,,,,FALSE,,,,FALSE,1438327,1438326.8,1434331.435,1434556.2,1434348.075,1438118.504,4,500,,
trial,html.Screen,10_53_0,2023-11-15T21:06:03.715Z,,,1,-0.068830656,0.047149421,,TRUE,hl,4344.096,response,0.650345199,0.829604397,-0.902494694,-0.777625123,0.841832216,-0.835100823,high,low,,ISIC_0029982.JPG,9,ISIC_6931712.JPG,63,FALSE,hl,keypress(j),0,FALSE,1442462.8,1442462.6,1438101.777,1438327,1438118.504,1442256.006,4,500,54,
break,html.Screen,10_53_1,2023-11-15T21:06:03.716Z,,,,,,,,,NaN,,,,,,,,high,low,,,,,,FALSE,,,,FALSE,1442463.4,1442463.2,,1442463,,1442256.006,4,500,,
break_continue,html.Screen,10_53_2,2023-11-15T21:06:03.716Z,,,,,,,,,NaN,,,,,,,,high,low,,,,,,FALSE,,,,FALSE,1442463.8,1442463.7,,1442463.5,,1442256.006,4,500,,
sequence,flow.Sequence,10_53,2023-11-15T21:06:03.716Z,,,,,,,,,4345.196,completion,,,,,,,high,low,,,,,,FALSE,,,,FALSE,1442464.1,1442463.7,1438101.777,1438327,1438118.504,1442256.006,4,500,,
trial,html.Screen,10_54_0,2023-11-15T21:06:10.691Z,,,1,0.007466791,-0.0185002,,FALSE,hl,7182.694,response,0.81653464,0.829604397,-0.902494694,-0.765779839,0.841832216,-0.835100823,high,low,,ISIC_0058723.JPG,9,ISIC_2283628.JPG,63,FALSE,hh,keypress(i),0,FALSE,1449438.8,1449438.7,1442239.377,1442464.2,1442256.006,1449229.663,4,500,55,
break,html.Screen,10_54_1,2023-11-15T21:06:10.692Z,,,,,,,,,NaN,,,,,,,,high,low,,,,,,FALSE,,,,FALSE,1449439.3,1449439.2,,1449439,,1449229.663,4,500,,
break_continue,html.Screen,10_54_2,2023-11-15T21:06:10.692Z,,,,,,,,,NaN,,,,,,,,high,low,,,,,,FALSE,,,,FALSE,1449439.7,1449439.5,,1449439.5,,1449229.663,4,500,,
sequence,flow.Sequence,10_54,2023-11-15T21:06:10.692Z,,,,,,,,,7183.494,completion,,,,,,,high,low,,,,,,FALSE,,,,FALSE,1449439.8,1449439.5,1442239.377,1442464.2,1442256.006,1449229.663,4,500,,
trial,html.Screen,10_55_0,2023-11-15T21:06:17.003Z,,,1,0.064435664,-0.056513049,,TRUE,hh,6520.537,response,0.674358844,0.829604397,-0.902494694,0.835989785,0.841832216,-0.835100823,high,high,,ISIC_7520843.JPG,9,ISIC_0014392.JPG,223,FALSE,hh,keypress(i),0,FALSE,1455750.4,1455750.2,1449213.004,1449439.9,1449229.663,1455552.806,4,500,56,
break,html.Screen,10_55_1,2023-11-15T21:06:17.003Z,,,,,,,,,NaN,,,,,,,,high,high,,,,,,FALSE,,,,FALSE,1455750.6,1455750.6,,1455750.5,,1455552.806,4,500,,
break_continue,html.Screen,10_55_2,2023-11-15T21:06:17.003Z,,,,,,,,,NaN,,,,,,,,high,high,,,,,,FALSE,,,,FALSE,1455750.8,1455750.7,,1455750.7,,1455552.806,4,500,,
sequence,flow.Sequence,10_55,2023-11-15T21:06:17.003Z,,,,,,,,,6521.037,completion,,,,,,,high,high,,,,,,FALSE,,,,FALSE,1455750.9,1455750.7,1449213.004,1449439.8,1449229.663,1455552.806,4,500,,
trial,html.Screen,10_56_0,2023-11-15T21:06:20.443Z,,,1,0.014659777,0.062222275,,TRUE,hh,3637.694,response,0.733190215,0.829604397,-0.902494694,0.946687454,0.841832216,-0.835100823,high,high,,ISIC_5982769.JPG,9,ISIC_0012107.JPG,223,FALSE,hh,keypress(i),0,FALSE,1459190.7,1459190.5,1455535.924,1455750.9,1455552.806,1458989.498,4,500,57,
break,html.Screen,10_56_1,2023-11-15T21:06:20.444Z,,,,,,,,,NaN,,,,,,,,high,high,,,,,,FALSE,,,,FALSE,1459191.3,1459191.1,,1459190.9,,1458989.498,4,500,,
break_continue,html.Screen,10_56_2,2023-11-15T21:06:20.444Z,,,,,,,,,NaN,,,,,,,,high,high,,,,,,FALSE,,,,FALSE,1459191.7,1459191.6,,1459191.4,,1458989.498,4,500,,
sequence,flow.Sequence,10_56,2023-11-15T21:06:20.444Z,,,,,,,,,3638.794,completion,,,,,,,high,high,,,,,,FALSE,,,,FALSE,1459191.9,1459191.6,1455535.924,1455750.9,1455552.806,1458989.498,4,500,,
trial,html.Screen,10_57_0,2023-11-15T21:06:23.323Z,,,1,-0.026791835,-0.063016783,,TRUE,hl,3081.202,response,0.914505708,0.829604397,-0.902494694,-0.657848806,0.841832216,-0.835100823,high,low,,ISIC_0064874.JPG,9,ISIC_0014308.JPG,63,FALSE,hl,keypress(j),0,FALSE,1462070.9,1462070.7,1458972.961,1459192.1,1458989.498,1461875.919,4,500,58,
break,html.Screen,10_57_1,2023-11-15T21:06:23.324Z,,,,,,,,,NaN,,,,,,,,high,low,,,,,,FALSE,,,,FALSE,1462071.5,1462071.4,,1462071.1,,1461875.919,4,500,,
break_continue,html.Screen,10_57_2,2023-11-15T21:06:23.324Z,,,,,,,,,NaN,,,,,,,,high,low,,,,,,FALSE,,,,FALSE,1462071.8,1462071.6,,1462071.6,,1461875.919,4,500,,
sequence,flow.Sequence,10_57,2023-11-15T21:06:23.324Z,,,,,,,,,3082.102,completion,,,,,,,high,low,,,,,,FALSE,,,,FALSE,1462072,1462071.6,1458972.961,1459192.1,1458989.498,1461875.919,4,500,,
trial,html.Screen,10_58_0,2023-11-15T21:06:30.291Z,,,1,-0.025822412,0.002936455,,FALSE,ll,7162.681,response,-1.042858896,0.829604397,-0.902494694,-0.702737755,0.841832216,-0.835100823,low,low,,ISIC_8325226.JPG,8,ISIC_2412888.JPG,192,FALSE,hh,keypress(i),0,FALSE,1469038.8,1469038.6,1461859.131,1462072.1,1461875.919,1468832.598,4,500,59,
break,html.Screen,10_58_1,2023-11-15T21:06:30.292Z,,,,,,,,,NaN,,,,,,,,low,low,,,,,,FALSE,,,,FALSE,1469039.4,1469039.3,,1469039,,1468832.598,4,500,,
break_continue,html.Screen,10_58_2,2023-11-15T21:06:30.292Z,,,,,,,,,NaN,,,,,,,,low,low,,,,,,FALSE,,,,FALSE,1469039.9,1469039.7,,1469039.6,,1468832.598,4,500,,
sequence,flow.Sequence,10_58,2023-11-15T21:06:30.292Z,,,,,,,,,7163.781,completion,,,,,,,low,low,,,,,,FALSE,,,,FALSE,1469040.1,1469039.7,1461859.131,1462072.1,1461875.919,1468832.598,4,500,,
trial,html.Screen,10_59_0,2023-11-15T21:06:35.723Z,,,1,-0.070365338,0.020674048,,TRUE,hl,5637.702,response,0.650345199,0.829604397,-0.902494694,-0.777625123,0.841832216,-0.835100823,high,low,,ISIC_4899386.JPG,9,ISIC_6931712.JPG,63,FALSE,hl,keypress(j),0,FALSE,1474470.5,1474470.3,1468816.026,1469040.2,1468832.598,1474271.434,4,500,60,
break,html.Screen,10_59_1,2023-11-15T21:06:35.723Z,,,,,,,,,NaN,,,,,,,,high,low,,,,,,FALSE,,,,FALSE,1474470.8,1474470.7,,1474470.5,,1474271.434,4,500,,
break_continue,html.Screen,10_59_2,2023-11-15T21:06:35.723Z,,,,,,,,,NaN,,,,,,,,high,low,,,,,,FALSE,,,,FALSE,1474471,1474470.9,,1474470.9,,1474271.434,4,500,,
sequence,flow.Sequence,10_59,2023-11-15T21:06:35.723Z,,,,,,,,,5638.302,completion,,,,,,,high,low,,,,,,FALSE,,,,FALSE,1474471,1474470.9,1468816.026,1469040.2,1468832.598,1474271.434,4,500,,
trial,html.Screen,10_60_0,2023-11-15T21:06:38.619Z,,,1,-0.011838204,-0.030058825,,FALSE,hh,3094.766,response,0.882442934,0.829604397,-0.902494694,0.862709006,0.841832216,-0.835100823,high,high,,ISIC_4748605.JPG,9,ISIC_0015193.JPG,223,FALSE,lh,keypress(e),0,FALSE,1477366.3,1477366.2,1474254.737,1474471.1,1474271.434,1477157.584,4,500,61,
break,html.Screen,10_60_1,2023-11-15T21:06:38.619Z,,,,,,,,,NaN,,,,,,,,high,high,,,,,,FALSE,,,,FALSE,1477366.7,1477366.7,,1477366.5,,1477157.584,4,500,,
break_continue,html.Screen,10_60_2,2023-11-15T21:06:38.619Z,,,,,,,,,NaN,,,,,,,,high,high,,,,,,FALSE,,,,FALSE,1477366.9,1477366.8,,1477366.8,,1477157.584,4,500,,
