sender,sender_type,sender_id,timestamp,meta,,age,blockNo,c1,c2,condition,correct,correctResponse,duration,ended_on,f1,f1_high,f1_low,f2,f2_high,f2_low,feature_level1,feature_level2,gender,img_left,img_reveal,img_right,n_target_images,practice,response,response_action,selection_duration,staircase,time_commit,time_end,time_render,time_run,time_show,time_switch,total_blocks,total_trials,trialNo,url
informed_consent,html.Screen,0,2023-11-15T17:40:52.625Z,"{""labjs_version"":""20.2.4"",""labjs_build"":{""flavor"":""development"",""commit"":""f5b4a49f956347addd546a832a3327688c2c0fef""},""location"":""https://labjs.felixhenninger.com/api/labjs_preview/index.html"",""userAgent"":""Mozilla/5.0 (Windows NT 10.0; Win64; x64) AppleWebKit/537.36 (KHTML, like Gecko) Chrome/119.0.0.0 Safari/537.36"",""platform"":""Win32"",""language"":""en-US"",""locale"":""en-US"",""timeZone"":""America/Chicago"",""timezoneOffset"":360,""screen_width"":1920,""screen_height"":1080,""scroll_width"":945,""scroll_height"":918,""window_innerWidth"":945,""window_innerHeight"":966,""devicePixelRatio"":1}",,,,,,,,,24402.07800001192,response,,,,,,,,,,,,,,,consent,click button,,,25071.90000000596,25062.80000001192,644.069,635,660.722,25077.295,,,,{}
Demography form,html.Form,1,2023-11-15T17:41:02.664Z,,,19,,,,,,,10033.905000002982,form submission,,,,,,,,,female,,,,,,,,,,35111.40000000596,35111.20000000298,25060.72,25072.20000000298,25077.295,35110.546,,,,
Welcome,html.Screen,2,2023-11-15T17:41:51.001Z,,,,,,,"[""bor"",""col""]",,,48336.05400000894,response,,,,,,,,,,,,,,,continue,click button,,,83447.20000000298,83446.60000000894,35093.955,35111.5,35110.546,83460.643,,,,
demo_instructions,html.Screen,3,2023-11-15T17:42:21.961Z,,,,,,,,,,30945.757000005964,response,,,,,,,,,,,,,,,continue,click button,,,114407,114406.40000000596,83443.819,83447.30000001192,83460.643,114410.326,,,,
trial,html.Screen,4_0_0,2023-11-15T17:42:33.790Z,,,,0,0.7438008784971919,-0.7701607600068142,,true,lh,11824.87400000298,response,-0.7411887874358276,0.8999999999999997,-0.8999999999999997,0.7869222465141029,0.8999999999999997,-0.8999999999999997,low,high,,ISIC_8493108.JPG,,ISIC_6255113.JPG,29,true,lh,keypress(e),100,false,126235.70000000298,126235.20000000298,114393.898,114407.10000000894,114410.326,126260.569,1,16,1,
sequence,flow.Sequence,4_0,2023-11-15T17:42:33.790Z,,,,,,,,,,11824.87400000298,completion,,,,,,,low,high,,,,,,true,,,,false,126236.40000000596,126235.20000000298,114393.898,114407.10000000894,114410.326,126260.569,1,16,,
trial,html.Screen,4_1_0,2023-11-15T17:42:44.793Z,,,,0,0.7612472458680769,-0.729960233427452,,true,lh,10978.131000002977,response,-0.989300717252516,0.8999999999999997,-0.8999999999999997,0.7908280206937478,0.8999999999999997,-0.8999999999999997,low,high,,ISIC_5307210.JPG,,ISIC_6416533.JPG,29,true,lh,keypress(e),100,false,137239.20000000298,137238.70000000298,126243.696,126236.70000000298,126260.569,137260.536,1,16,2,
sequence,flow.Sequence,4_1,2023-11-15T17:42:44.794Z,,,,,,,,,,10978.131000002977,completion,,,,,,,low,high,,,,,,true,,,,false,137239.90000000596,137238.70000000298,126243.696,126236.60000000894,126260.569,137260.536,1,16,,
trial,html.Screen,4_2_0,2023-11-15T17:42:55.541Z,,,,0,0.9544693251394116,-1.0727539917203766,,true,lh,10725.164000002987,response,-0.7883321712536753,0.8999999999999997,-0.8999999999999997,1.0011430756825364,0.8999999999999997,-0.8999999999999997,low,high,,ISIC_0055147.JPG,,ISIC_9828853.JPG,29,true,lh,keypress(e),100,false,147986.20000000298,147985.70000000298,137243.63,137240.30000001192,137260.536,148010.307,1,16,3,
sequence,flow.Sequence,4_2,2023-11-15T17:42:55.541Z,,,,,,,,,,10725.164000002987,completion,,,,,,,low,high,,,,,,true,,,,false,147986.90000000596,147985.70000000298,137243.63,137240.20000000298,137260.536,148010.307,1,16,,
trial,html.Screen,4_3_0,2023-11-15T17:43:01.424Z,,,,0,0.7612472458680769,-0.729960233427452,,true,lh,5858.49300001192,response,-0.7882758084023446,0.8999999999999997,-0.8999999999999997,0.8296405881378283,0.8999999999999997,-0.8999999999999997,low,high,,ISIC_5307210.JPG,,ISIC_0065882.JPG,29,true,lh,keypress(e),100,false,153869.30000001192,153868.80000001192,147993.666,147987.30000001192,148010.307,153893.78,1,16,4,
sequence,flow.Sequence,4_3,2023-11-15T17:43:01.425Z,,,,,,,,,,5858.49300001192,completion,,,,,,,low,high,,,,,,true,,,,false,153870,153868.80000001192,147993.666,147987.10000000894,148010.307,153893.78,1,16,,
trial,html.Screen,4_4_0,2023-11-15T17:43:16.155Z,,,,0,0.708900242752142,0.7801028150877221,,true,ll,14706.720000000001,response,-0.764893988285809,0.8999999999999997,-0.8999999999999997,-1.055978100098093,0.8999999999999997,-0.8999999999999997,low,low,,ISIC_0056979.JPG,,ISIC_2077116.JPG,169,true,ll,keypress(f),100,false,168600.80000001192,168600.5,153876.951,153870.20000000298,153893.78,168626.865,1,16,5,
sequence,flow.Sequence,4_4,2023-11-15T17:43:16.155Z,,,,,,,,,,14706.720000000001,completion,,,,,,,low,low,,,,,,true,,,,false,168600.90000000596,168600.5,153876.951,153870.20000000298,153893.78,168626.865,1,16,,
trial,html.Screen,4_5_0,2023-11-15T17:43:34.305Z,,,,0,0.7424405016223469,1.0380243219568084,,true,ll,18122.93500001193,response,-0.7151945682937986,0.8999999999999997,-0.8999999999999997,-0.9514368385965256,0.8999999999999997,-0.8999999999999997,low,low,,ISIC_0068950.JPG,,ISIC_0198331.JPG,169,true,ll,keypress(f),100,false,186750.30000001192,186749.80000001192,168610.178,168600.90000000596,168626.865,186776.941,1,16,6,
sequence,flow.Sequence,4_5,2023-11-15T17:43:34.305Z,,,,,,,,,,18122.93500001193,completion,,,,,,,low,low,,,,,,true,,,,false,186751,186749.80000001192,168610.178,168600.90000000596,168626.865,186776.941,1,16,,
trial,html.Screen,4_6_0,2023-11-15T17:43:38.492Z,,,,0,0.7914343157165398,0.7781630990015259,,true,ll,4160.559000000008,response,-0.9372411924051636,0.8999999999999997,-0.8999999999999997,-0.841886327367642,0.8999999999999997,-0.8999999999999997,low,low,,ISIC_0026081.JPG,,ISIC_8368872.JPG,169,true,ll,keypress(f),100,false,190937.90000000596,190937.5,186760.227,186751.20000000298,186776.941,190960.26,1,16,7,
sequence,flow.Sequence,4_6,2023-11-15T17:43:38.493Z,,,,,,,,,,4160.559000000008,completion,,,,,,,low,low,,,,,,true,,,,false,190938.5,190937.5,186760.227,186751.10000000894,186776.941,190960.26,1,16,,
trial,html.Screen,4_7_0,2023-11-15T17:43:43.720Z,,,,0,0.8351262413411394,0.7640141718413127,,true,ll,5205.040000011912,response,-0.8443539935286377,0.8999999999999997,-0.8999999999999997,-0.8083712509772605,0.8999999999999997,-0.8999999999999997,low,low,,ISIC_0029363.JPG,,ISIC_1072321.JPG,169,true,ll,keypress(f),100,false,196165.40000000596,196165.30000001192,190943.478,190938.80000001192,190960.26,196193.46,1,16,8,
sequence,flow.Sequence,4_7,2023-11-15T17:43:43.720Z,,,,,,,,,,5205.040000011912,completion,,,,,,,low,low,,,,,,true,,,,false,196165.5,196165.30000001192,190943.478,190938.70000000298,190960.26,196193.46,1,16,,
trial,html.Screen,4_8_0,2023-11-15T17:43:52.510Z,,,,0,-0.8954803463300026,0.7071819047913821,,true,hl,8760.040000000008,response,0.8500530224490773,0.8999999999999997,-0.8999999999999997,-1.0893360711742854,0.8999999999999997,-0.8999999999999997,high,low,,ISIC_0033071.JPG,,ISIC_2998367.JPG,43,true,hl,keypress(j),100,false,204953.90000000596,204953.5,196176.791,196165.60000000894,196193.46,204976.904,1,16,9,
sequence,flow.Sequence,4_8,2023-11-15T17:43:52.510Z,,,,,,,,,,8760.040000000008,completion,,,,,,,high,low,,,,,,true,,,,false,204954.40000000596,204953.5,196176.791,196165.60000000894,196193.46,204976.904,1,16,,
trial,html.Screen,4_9_0,2023-11-15T17:44:09.705Z,,,,0,-0.7883321712536753,1.0011430756825364,,true,hl,17172.29600000297,response,0.8544507134472948,0.8999999999999997,-0.8999999999999997,-0.9244388608707323,0.8999999999999997,-0.8999999999999997,high,low,,ISIC_9828853.JPG,,ISIC_3565564.JPG,43,true,hl,keypress(j),100,false,222149.60000000894,222149.20000000298,204960.11,204954.70000000298,204976.904,222176.75,1,16,10,
sequence,flow.Sequence,4_9,2023-11-15T17:44:09.706Z,,,,,,,,,,17172.29600000297,completion,,,,,,,high,low,,,,,,true,,,,false,222150.20000000298,222149.20000000298,204960.11,204954.60000000894,204976.904,222176.75,1,16,,
trial,html.Screen,4_10_0,2023-11-15T17:44:17.716Z,,,,0,-0.8830264383952469,0.8635562538060516,,true,hl,7982.850000008941,response,1.0116417541846066,0.8999999999999997,-0.8999999999999997,-1.033442916947398,0.8999999999999997,-0.8999999999999997,high,low,,ISIC_0032258.JPG,,ISIC_0031389.JPG,43,true,hl,keypress(j),100,false,230160,230159.60000000894,222160.131,222150.5,222176.75,230176.671,1,16,11,
sequence,flow.Sequence,4_10,2023-11-15T17:44:17.717Z,,,,,,,,,,7982.850000008941,completion,,,,,,,high,low,,,,,,true,,,,false,230160.70000000298,230159.60000000894,222160.131,222150.40000000596,222176.75,230176.671,1,16,,
trial,html.Screen,4_11_0,2023-11-15T17:44:23.070Z,,,,0,-0.8830264383952469,0.8635562538060516,,true,hl,5337.129000011919,response,0.8350129142228142,0.8999999999999997,-0.8999999999999997,-0.8172547818270586,0.8999999999999997,-0.8999999999999997,high,low,,ISIC_0032258.JPG,,ISIC_0301568.JPG,43,true,hl,keypress(j),100,false,235514.20000000298,235513.80000001192,230160.067,230160.90000000596,230176.671,235543.422,1,16,12,
sequence,flow.Sequence,4_11,2023-11-15T17:44:23.071Z,,,,,,,,,,5337.129000011919,completion,,,,,,,high,low,,,,,,true,,,,false,235514.80000001192,235513.80000001192,230160.067,230160.80000001192,230176.671,235543.422,1,16,,
trial,html.Screen,4_12_0,2023-11-15T17:44:31.000Z,,,,0,-1.0002918079433898,-0.7125870798722836,,true,hh,7900.578000000009,response,0.7208227349054466,0.8999999999999997,-0.8999999999999997,0.8473281312318933,0.8999999999999997,-0.8999999999999997,high,high,,ISIC_0678758.JPG,,ISIC_0032181.JPG,184,true,hh,keypress(i),100,false,243444.30000001192,243444,235526.794,235515.20000000298,235543.422,243460.041,1,16,13,
sequence,flow.Sequence,4_12,2023-11-15T17:44:31.001Z,,,,,,,,,,7900.578000000009,completion,,,,,,,high,high,,,,,,true,,,,false,243445,243444,235526.794,235515.10000000894,235543.422,243460.041,1,16,,
trial,html.Screen,4_13_0,2023-11-15T17:44:43.139Z,,,,0,-1.0667712753225895,-0.7415337434376102,,true,hh,12123.059000008943,response,0.989073205647752,0.8999999999999997,-0.8999999999999997,0.7213444383071048,0.8999999999999997,-0.8999999999999997,high,high,,ISIC_8626941.JPG,,ISIC_5581931.JPG,184,true,hh,keypress(i),100,false,255583.5,255583.10000000894,243443.637,243445.20000000298,243460.041,255609.952,1,16,14,
sequence,flow.Sequence,4_13,2023-11-15T17:44:43.140Z,,,,,,,,,,12123.059000008943,completion,,,,,,,high,high,,,,,,true,,,,false,255584.10000000894,255583.10000000894,243443.637,243445.10000000894,243460.041,255609.952,1,16,,
trial,html.Screen,4_14_0,2023-11-15T17:44:47.374Z,,,,0,-1.0389084131983195,-0.7349392452912339,,true,hh,4207.848000011931,response,1.0437879361189135,0.8999999999999997,-0.8999999999999997,1.0467954238943018,0.8999999999999997,-0.8999999999999997,high,high,,ISIC_4460849.JPG,,ISIC_0011626.JPG,184,true,hh,keypress(i),100,false,259818.10000000894,259817.80000001192,255593.305,255584.40000000596,255609.952,259843.534,1,16,15,
sequence,flow.Sequence,4_14,2023-11-15T17:44:47.375Z,,,,,,,,,,4207.848000011931,completion,,,,,,,high,high,,,,,,true,,,,false,259818.80000001192,259817.80000001192,255593.305,255584.30000001192,255609.952,259843.534,1,16,,
trial,html.Screen,4_15_0,2023-11-15T17:44:55.210Z,,,,0,-0.8692576729104817,-0.7554562761747954,,true,hh,7809.5660000089265,response,0.8663139955905144,0.8999999999999997,-0.8999999999999997,0.940959443919478,0.8999999999999997,-0.8999999999999997,high,high,,ISIC_6963954.JPG,,ISIC_0010040.JPG,184,true,hh,keypress(i),100,false,267653.5,267653.10000000894,259826.641,259819,259843.534,267676.603,1,16,16,
sequence,flow.Sequence,4_15,2023-11-15T17:44:55.211Z,,,,,,,,,,7809.5660000089265,completion,,,,,,,high,high,,,,,,true,,,,false,267654,267653.10000000894,259826.641,259818.90000000596,259843.534,267676.603,1,16,,
demonstration_loop,flow.Loop,4,2023-11-15T17:44:55.211Z,,,,,,,,,,153242.77400000894,completion,,,,,,,,,,,,,,true,,,,false,267654.200000003,267653.10000000894,114393.898,114407.10000000894,114410.326,267676.603,1,16,,
practice_instructions,html.Screen,5,2023-11-15T17:45:47.691Z,,,,,,,,,,52449.397,response,,,,,,,,,,,,,,,continue,click button,,,320134.10000000894,320126,267660.007,267654.5,267676.603,320143.251,,,,
trial,html.Screen,6_0_0,2023-11-15T17:45:57.114Z,,,,1,-1.0622023082418524,-0.8319500041964579,,false,hh,9406.849000008951,response,1.0849202097813322,0.8999999999999997,-0.8999999999999997,1.0851127310415287,0.8999999999999997,-0.8999999999999997,high,high,,ISIC_0056707.JPG,,ISIC_0010289.JPG,184,true,lh,keypress(e),0,false,329557.3000000119,329550.10000000894,320109.914,320134.3000000119,320143.251,329576.492,1,40,1,
sequence,flow.Sequence,6_0,2023-11-15T17:45:57.115Z,,,,,,,,,,9406.849000008951,completion,,,,,,,high,high,,,,,,true,,,,false,329557.40000000596,329550.10000000894,320109.914,320134.200000003,320143.251,329576.492,1,40,,
trial,html.Screen,6_1_0,2023-11-15T17:46:08.118Z,,,,1,-0.7308116448711435,0.908713834988551,,,,11016.795999999973,timeout,0.7438008784971919,0.8999999999999997,-0.8999999999999997,-0.7701607600068142,0.8999999999999997,-0.8999999999999997,high,low,,ISIC_7811951.JPG,,ISIC_8493108.JPG,43,true,,,0,false,340561,340560.60000000894,329559.695,329557.40000000596,329576.492,340593.288,1,40,2,
sequence,flow.Sequence,6_1,2023-11-15T17:46:08.118Z,,,,,,,,,,10984.108000008913,completion,,,,,,,high,low,,,,,,true,,,,false,340561.3000000119,340560.60000000894,329559.695,329557.40000000596,329576.492,340593.288,1,40,,
trial,html.Screen,6_2_0,2023-11-15T17:46:13.607Z,,,,1,0.9712921601561192,1.08279751862979,,false,ll,5455.91200000298,response,-0.8571747957352402,0.8999999999999997,-0.8999999999999997,-0.9896604996768869,0.8999999999999997,-0.8999999999999997,low,low,,ISIC_4049598.JPG,,ISIC_5363229.JPG,169,true,lh,keypress(e),0,false,346049.40000000596,346049.200000003,340576.513,340561.60000000894,340593.288,346059.728,1,40,3,
sequence,flow.Sequence,6_2,2023-11-15T17:46:13.607Z,,,,,,,,,,5455.91200000298,completion,,,,,,,low,low,,,,,,true,,,,false,346049.8000000119,346049.200000003,340576.513,340561.5,340593.288,346059.728,1,40,,
trial,html.Screen,6_3_0,2023-11-15T17:46:19.614Z,,,,1,1.0153439398566937,-0.93001438372942,,false,lh,5996.572000011918,response,-0.9653573371180936,0.8999999999999997,-0.8999999999999997,0.854766800381037,0.8999999999999997,-0.8999999999999997,low,high,,ISIC_8211214.JPG,,ISIC_9640145.JPG,29,true,ll,keypress(f),0,false,352056.60000000894,352056.3000000119,346042.924,346050.10000000894,346059.728,352059.74,1,40,4,
sequence,flow.Sequence,6_3,2023-11-15T17:46:19.614Z,,,,,,,,,,5996.572000011918,completion,,,,,,,low,high,,,,,,true,,,,false,352057,352056.3000000119,346042.924,346050,346059.728,352059.74,1,40,,
trial,html.Screen,6_4_0,2023-11-15T17:46:25.350Z,,,,1,0.8063996897274507,0.9872236201212492,,true,ll,5732.46000000299,response,-0.9381357191664412,0.8999999999999997,-0.8999999999999997,-0.7568873197636701,0.8999999999999997,-0.8999999999999997,low,low,,ISIC_0015046.JPG,,ISIC_9808863.JPG,169,true,ll,keypress(f),0,false,357792.5,357792.200000003,352042.84,352057.200000003,352059.74,357809.919,1,40,5,
sequence,flow.Sequence,6_4,2023-11-15T17:46:25.350Z,,,,,,,,,,5732.46000000299,completion,,,,,,,low,low,,,,,,true,,,,false,357792.90000000596,357792.200000003,352042.84,352057.10000000894,352059.74,357809.919,1,40,,
trial,html.Screen,6_5_0,2023-11-15T17:46:32.229Z,,,,1,0.7662862143930451,1.019400538053967,,true,ll,6861.8810000119265,response,-0.8596006200412799,0.8999999999999997,-0.8999999999999997,-0.9571430175944712,0.8999999999999997,-0.8999999999999997,low,low,,ISIC_5602826.JPG,,ISIC_0663824.JPG,169,true,ll,keypress(f),0,false,364672.10000000894,364671.8000000119,357793.079,357793,357809.919,364676.354,1,40,6,
sequence,flow.Sequence,6_5,2023-11-15T17:46:32.230Z,,,,,,,,,,6861.8810000119265,completion,,,,,,,low,low,,,,,,true,,,,false,364672.5,364671.8000000119,357793.079,357793,357809.919,364676.354,1,40,,
trial,html.Screen,6_6_0,2023-11-15T17:46:37.191Z,,,,1,-0.8526775318290718,-0.9398012765219632,,true,hh,4956.846000002988,response,0.8064929303349243,0.8999999999999997,-0.8999999999999997,0.9193468294804482,0.8999999999999997,-0.8999999999999997,high,high,,ISIC_2647198.JPG,,ISIC_0060968.JPG,184,true,hh,keypress(i),0,false,369633.40000000596,369633.200000003,364659.654,364672.700000003,364676.354,369643.025,1,40,7,
sequence,flow.Sequence,6_6,2023-11-15T17:46:37.191Z,,,,,,,,,,4956.846000002988,completion,,,,,,,high,high,,,,,,true,,,,false,369633.8000000119,369633.200000003,364659.654,364672.60000000894,364676.354,369643.025,1,40,,
trial,html.Screen,6_7_0,2023-11-15T17:46:42.374Z,,,,1,-0.8110121381849364,0.7563142141851558,,true,hl,5173.575000008917,response,1.0685314915436992,0.8999999999999997,-0.8999999999999997,-0.8203833713472237,0.8999999999999997,-0.8999999999999997,high,low,,ISIC_0033605.JPG,,ISIC_0029374.JPG,43,true,hl,keypress(j),0,false,374816.90000000596,374816.60000000894,369626.254,369634,369643.025,374826.281,1,40,8,
sequence,flow.Sequence,6_7,2023-11-15T17:46:42.374Z,,,,,,,,,,5173.575000008917,completion,,,,,,,high,low,,,,,,true,,,,false,374817.200000003,374816.60000000894,369626.254,369634,369643.025,374826.281,1,40,,
trial,html.Screen,6_8_0,2023-11-15T17:46:47.414Z,,,,1,-0.7882758084023446,0.8296405881378283,,false,hl,5029.919000002963,response,0.9544693251394116,0.8999999999999997,-0.8999999999999997,-1.0727539917203766,0.8999999999999997,-0.8999999999999997,high,low,,ISIC_0065882.JPG,,ISIC_0055147.JPG,43,true,lh,keypress(e),0,false,379856.5,379856.200000003,374809.54,374817.5,374826.281,379859.604,1,40,9,
sequence,flow.Sequence,6_8,2023-11-15T17:46:47.414Z,,,,,,,,,,5029.919000002963,completion,,,,,,,high,low,,,,,,true,,,,false,379856.90000000596,379856.200000003,374809.54,374817.40000000596,374826.281,379859.604,1,40,,
trial,html.Screen,6_9_0,2023-11-15T17:46:53.319Z,,,,1,0.7236002097394486,-0.7895205994309619,,false,lh,5901.196000011929,response,-0.8719231363109603,0.8999999999999997,-0.8999999999999997,0.7704280220140033,0.8999999999999997,-0.8999999999999997,low,high,,ISIC_0413563.JPG,,ISIC_0029453.JPG,29,true,ll,keypress(f),0,false,385761,385760.8000000119,379843.01,379857.10000000894,379859.604,385776.32,1,40,10,
sequence,flow.Sequence,6_9,2023-11-15T17:46:53.319Z,,,,,,,,,,5901.196000011929,completion,,,,,,,low,high,,,,,,true,,,,false,385761.40000000596,385760.8000000119,379843.01,379857.10000000894,379859.604,385776.32,1,40,,
trial,html.Screen,6_10_0,2023-11-15T17:46:58.631Z,,,,1,0.7552468233268477,-0.71846037114465,,true,lh,5296.780000008934,response,-0.7088606387153258,0.8999999999999997,-0.8999999999999997,0.948610930521224,0.8999999999999997,-0.8999999999999997,low,high,,ISIC_2354070.JPG,,ISIC_0026293.JPG,29,true,lh,keypress(e),0,false,391073.3000000119,391073.10000000894,385759.626,385761.700000003,385776.32,391076.31,1,40,11,
sequence,flow.Sequence,6_10,2023-11-15T17:46:58.631Z,,,,,,,,,,5296.780000008934,completion,,,,,,,low,high,,,,,,true,,,,false,391073.8000000119,391073.10000000894,385759.626,385761.60000000894,385776.32,391076.31,1,40,,
trial,html.Screen,6_11_0,2023-11-15T17:47:02.206Z,,,,1,0.7723423895392068,-0.7630051745722757,,true,lh,3571.4900000119233,response,-0.8110121381849364,0.8999999999999997,-0.8999999999999997,0.7563142141851558,0.8999999999999997,-0.8999999999999997,low,high,,ISIC_9694911.JPG,,ISIC_0033605.JPG,29,true,lh,keypress(e),0,false,394648,394647.8000000119,391059.523,391074,391076.31,394659.529,1,40,12,
sequence,flow.Sequence,6_11,2023-11-15T17:47:02.206Z,,,,,,,,,,3571.4900000119233,completion,,,,,,,low,high,,,,,,true,,,,false,394648.40000000596,394647.8000000119,391059.523,391073.90000000596,391076.31,394659.529,1,40,,
trial,html.Screen,6_12_0,2023-11-15T17:47:09.149Z,,,,1,0.7863202439789435,1.0644234101027583,,true,ll,6931.47100000002,response,-0.9582474649169744,0.8999999999999997,-0.8999999999999997,-0.8117789358233404,0.8999999999999997,-0.8999999999999997,low,low,,ISIC_0071576.JPG,,ISIC_0821520.JPG,169,true,ll,keypress(f),0,false,401591.200000003,401591,394642.799,394648.60000000894,394659.529,401592.87,1,40,13,
sequence,flow.Sequence,6_12,2023-11-15T17:47:09.149Z,,,,,,,,,,6931.47100000002,completion,,,,,,,low,low,,,,,,true,,,,false,401591.3000000119,401591,394642.799,394648.60000000894,394659.529,401592.87,1,40,,
trial,html.Screen,6_13_0,2023-11-15T17:47:12.806Z,,,,1,0.7714570894008278,-0.9113656554657036,,true,lh,3654.830000002985,response,-0.7883321712536753,0.8999999999999997,-0.8999999999999997,1.0011430756825364,0.8999999999999997,-0.8999999999999997,low,high,,ISIC_4529092.JPG,,ISIC_9828853.JPG,29,true,lh,keypress(e),0,false,405248,405247.700000003,401576.21,401591.40000000596,401592.87,405259.697,1,40,14,
sequence,flow.Sequence,6_13,2023-11-15T17:47:12.806Z,,,,,,,,,,3654.830000002985,completion,,,,,,,low,high,,,,,,true,,,,false,405248.40000000596,405247.700000003,401576.21,401591.40000000596,401592.87,405259.697,1,40,,
trial,html.Screen,6_14_0,2023-11-15T17:47:17.374Z,,,,1,0.7960221520457809,0.9397522689480928,,true,ll,4556.303000000014,response,-0.8363634080775226,0.8999999999999997,-0.8999999999999997,-0.899694322339037,0.8999999999999997,-0.8999999999999997,low,low,,ISIC_1200192.JPG,,ISIC_0007257.JPG,169,true,ll,keypress(f),0,false,409816.10000000894,409816,405243,405248.5,405259.697,409826.187,1,40,15,
sequence,flow.Sequence,6_14,2023-11-15T17:47:17.374Z,,,,,,,,,,4556.303000000014,completion,,,,,,,low,low,,,,,,true,,,,false,409816.10000000894,409816,405243,405248.5,405259.697,409826.187,1,40,,
trial,html.Screen,6_15_0,2023-11-15T17:47:21.790Z,,,,1,0.8548190756840552,0.7777530555793848,,true,ll,4406.013000003004,response,-0.9802565668865412,0.8999999999999997,-0.8999999999999997,-0.7107803735101691,0.8999999999999997,-0.8999999999999997,low,low,,ISIC_0411688.JPG,,ISIC_0024683.JPG,169,true,ll,keypress(f),0,false,414232.5,414232.200000003,409809.402,409816.200000003,409826.187,414242.876,1,40,16,
sequence,flow.Sequence,6_15,2023-11-15T17:47:21.791Z,,,,,,,,,,4406.013000003004,completion,,,,,,,low,low,,,,,,true,,,,false,414232.90000000596,414232.200000003,409809.402,409816.200000003,409826.187,414242.876,1,40,,
trial,html.Screen,6_16_0,2023-11-15T17:47:26.038Z,,,,1,0.9617893983965208,-0.9453006131304652,,true,lh,4237.124000000011,response,-1.0453124399868816,0.8999999999999997,-0.8999999999999997,0.8986747280184286,0.8999999999999997,-0.8999999999999997,low,high,,ISIC_4229473.JPG,,ISIC_0013967.JPG,29,true,lh,keypress(e),0,false,418480,418480,414226.22,414233.10000000894,414242.876,418493.009,1,40,17,
sequence,flow.Sequence,6_16,2023-11-15T17:47:26.038Z,,,,,,,,,,4237.124000000011,completion,,,,,,,low,high,,,,,,true,,,,false,418480.200000003,418480,414226.22,414233,414242.876,418493.009,1,40,,
trial,html.Screen,6_17_0,2023-11-15T17:47:31.038Z,,,,1,0.8867328775712738,-1.0063426986460375,,false,lh,4986.591000008921,response,-0.930804711032185,0.8999999999999997,-0.8999999999999997,0.7294067991476295,0.8999999999999997,-0.8999999999999997,low,high,,ISIC_0055759.JPG,,ISIC_5067317.JPG,29,true,ll,keypress(f),0,false,423479.90000000596,423479.60000000894,418476.197,418480.200000003,418493.009,423492.876,1,40,18,
sequence,flow.Sequence,6_17,2023-11-15T17:47:31.038Z,,,,,,,,,,4986.591000008921,completion,,,,,,,low,high,,,,,,true,,,,false,423480.40000000596,423479.60000000894,418476.197,418480.200000003,418493.009,423492.876,1,40,,
trial,html.Screen,6_18_0,2023-11-15T17:47:35.764Z,,,,1,-1.0369885917487718,0.8486937878412699,,false,hl,4713.824000002991,response,0.9198276163642348,0.8999999999999997,-0.8999999999999997,-0.7754915110667046,0.8999999999999997,-0.8999999999999997,high,low,,ISIC_6917681.JPG,,ISIC_7840728.JPG,43,true,ll,keypress(f),0,false,428206.700000003,428206.700000003,423476.074,423480.5,423492.876,428209.473,1,40,19,
sequence,flow.Sequence,6_18,2023-11-15T17:47:35.765Z,,,,,,,,,,4713.824000002991,completion,,,,,,,high,low,,,,,,true,,,,false,428206.90000000596,428206.700000003,423476.074,423480.40000000596,423492.876,428209.473,1,40,,
trial,html.Screen,6_19_0,2023-11-15T17:47:39.919Z,,,,1,-0.9802565668865412,-0.7107803735101691,,true,hh,4151.227000002982,response,1.0642195369108791,0.8999999999999997,-0.8999999999999997,1.0897657776277234,0.8999999999999997,-0.8999999999999997,high,high,,ISIC_0024683.JPG,,ISIC_0071988.JPG,184,true,hh,keypress(i),0,false,432360.90000000596,432360.700000003,428192.905,428207,428209.473,432376.257,1,40,20,
sequence,flow.Sequence,6_19,2023-11-15T17:47:39.919Z,,,,,,,,,,4151.227000002982,completion,,,,,,,high,high,,,,,,true,,,,false,432361.3000000119,432360.700000003,428192.905,428207,428209.473,432376.257,1,40,,
trial,html.Screen,6_20_0,2023-11-15T17:47:45.804Z,,,,1,0.9373876279903552,0.8494489003914609,,false,ll,5870.143000005977,response,-1.0757050222000146,0.8999999999999997,-0.8999999999999997,-0.9214423600454036,0.8999999999999997,-0.8999999999999997,low,low,,ISIC_2554114.JPG,,ISIC_5152859.JPG,169,true,hl,keypress(j),0,false,438246.5,438246.40000000596,432359.526,432361.5,432376.257,438259.436,1,40,21,
sequence,flow.Sequence,6_20,2023-11-15T17:47:45.804Z,,,,,,,,,,5870.143000005977,completion,,,,,,,low,low,,,,,,true,,,,false,438246.60000000894,438246.40000000596,432359.526,432361.5,432376.257,438259.436,1,40,,
trial,html.Screen,6_21_0,2023-11-15T17:47:50.391Z,,,,1,-0.7411887874358276,0.7869222465141029,,false,hl,4573.264000002993,response,0.8165346395107898,0.8999999999999997,-0.8999999999999997,-0.7657798385266591,0.8999999999999997,-0.8999999999999997,high,low,,ISIC_6255113.JPG,,ISIC_2283628.JPG,43,true,lh,keypress(e),0,false,442832.90000000596,442832.700000003,438242.724,438246.60000000894,438259.436,442842.889,1,40,22,
sequence,flow.Sequence,6_21,2023-11-15T17:47:50.391Z,,,,,,,,,,4573.264000002993,completion,,,,,,,high,low,,,,,,true,,,,false,442833.3000000119,442832.700000003,438242.724,438246.60000000894,438259.436,442842.889,1,40,,
trial,html.Screen,6_22_0,2023-11-15T17:47:54.983Z,,,,1,-1.0325421457475312,-1.0219157566370058,,true,hh,4581.811000002956,response,1.0593040390975434,0.8999999999999997,-0.8999999999999997,1.0413442695273454,0.8999999999999997,-0.8999999999999997,high,high,,ISIC_5336548.JPG,,ISIC_0061293.JPG,184,true,hh,keypress(i),0,false,447425.10000000894,447424.700000003,442825.903,442833.5,442842.889,447442.933,1,40,23,
sequence,flow.Sequence,6_22,2023-11-15T17:47:54.984Z,,,,,,,,,,4581.811000002956,completion,,,,,,,high,high,,,,,,true,,,,false,447425.5,447424.700000003,442825.903,442833.5,442842.889,447442.933,1,40,,
trial,html.Screen,6_23_0,2023-11-15T17:48:00.366Z,,,,1,0.9837331918354912,0.9130384672883698,,true,ll,5364.967000005941,response,-1.0058354021163274,0.8999999999999997,-0.8999999999999997,-0.8916720716393026,0.8999999999999997,-0.8999999999999997,low,low,,ISIC_0001108.JPG,,ISIC_5581936.JPG,169,true,ll,keypress(f),0,false,452808.200000003,452807.90000000596,447426.004,447425.60000000894,447442.933,452843.02,1,40,24,
sequence,flow.Sequence,6_23,2023-11-15T17:48:00.367Z,,,,,,,,,,5364.967000005941,completion,,,,,,,low,low,,,,,,true,,,,false,452808.5,452807.90000000596,447426.004,447425.60000000894,447442.933,452843.02,1,40,,
trial,html.Screen,6_24_0,2023-11-15T17:48:07.199Z,,,,1,0.9602936946729488,0.747034716272411,,true,ll,6797.380000005942,response,-0.8526775318290718,0.8999999999999997,-0.8999999999999997,-0.9398012765219632,0.8999999999999997,-0.8999999999999997,low,low,,ISIC_0205127.JPG,,ISIC_2647198.JPG,169,true,ll,keypress(f),0,false,459640.700000003,459640.40000000596,452826.339,452808.700000003,452843.02,459659.944,1,40,25,
sequence,flow.Sequence,6_24,2023-11-15T17:48:07.199Z,,,,,,,,,,6797.380000005942,completion,,,,,,,low,low,,,,,,true,,,,false,459641.10000000894,459640.40000000596,452826.339,452808.700000003,452843.02,459659.944,1,40,,
trial,html.Screen,6_25_0,2023-11-15T17:48:11.415Z,,,,1,0.9089402323867112,-0.8034544077281132,,true,lh,4196.656000008923,response,-0.989300717252516,0.8999999999999997,-0.8999999999999997,0.7908280206937478,0.8999999999999997,-0.8999999999999997,low,high,,ISIC_3585381.JPG,,ISIC_6416533.JPG,29,true,lh,keypress(e),0,false,463856.8000000119,463856.60000000894,459626.051,459641.3000000119,459659.944,463859.397,1,40,26,
sequence,flow.Sequence,6_25,2023-11-15T17:48:11.416Z,,,,,,,,,,4196.656000008923,completion,,,,,,,low,high,,,,,,true,,,,false,463857.40000000596,463856.60000000894,459626.051,459641.200000003,459659.944,463859.397,1,40,,
trial,html.Screen,6_26_0,2023-11-15T17:48:14.542Z,,,,1,0.8867328775712738,-1.0063426986460375,,true,lh,3124.303000002983,response,-0.8830264383952469,0.8999999999999997,-0.8999999999999997,0.8635562538060516,0.8999999999999997,-0.8999999999999997,low,high,,ISIC_0055759.JPG,,ISIC_0032258.JPG,29,true,lh,keypress(e),0,false,466983.90000000596,466983.700000003,463842.576,463857.60000000894,463859.397,466992.737,1,40,27,
sequence,flow.Sequence,6_26,2023-11-15T17:48:14.543Z,,,,,,,,,,3124.303000002983,completion,,,,,,,low,high,,,,,,true,,,,false,466984.40000000596,466983.700000003,463842.576,463857.60000000894,463859.397,466992.737,1,40,,
trial,html.Screen,6_27_0,2023-11-15T17:48:20.406Z,,,,1,-0.771782427598807,-1.0831630135341803,,true,hh,5854.363000008918,response,0.8856883166390501,0.8999999999999997,-0.8999999999999997,0.86246873871669,0.8999999999999997,-0.8999999999999997,high,high,,ISIC_7340247.JPG,,ISIC_0010938.JPG,184,true,hh,keypress(i),0,false,472847.3000000119,472847.10000000894,466976.11,466984.60000000894,466992.737,472859.34,1,40,28,
sequence,flow.Sequence,6_27,2023-11-15T17:48:20.406Z,,,,,,,,,,5854.363000008918,completion,,,,,,,high,high,,,,,,true,,,,false,472847.700000003,472847.10000000894,466976.11,466984.5,466992.737,472859.34,1,40,,
trial,html.Screen,6_28_0,2023-11-15T17:48:23.470Z,,,,1,-0.7653567704423454,-1.0008177728634988,,true,hh,3052.3600000029546,response,0.7618930412298525,0.8999999999999997,-0.8999999999999997,0.7478234228404927,0.8999999999999997,-0.8999999999999997,high,high,,ISIC_0013898.JPG,,ISIC_0062525.JPG,184,true,hh,keypress(i),0,false,475911.90000000596,475911.700000003,472842.747,472847.8000000119,472859.34,475926.211,1,40,29,
sequence,flow.Sequence,6_28,2023-11-15T17:48:23.471Z,,,,,,,,,,3052.3600000029546,completion,,,,,,,high,high,,,,,,true,,,,false,475912.3000000119,475911.700000003,472842.747,472847.700000003,472859.34,475926.211,1,40,,
trial,html.Screen,6_29_0,2023-11-15T17:48:27.631Z,,,,1,-0.7553497600333596,-1.0400427384571451,,true,hh,4146.48900000297,response,0.9141489890697224,0.8999999999999997,-0.8999999999999997,0.8021439579962121,0.8999999999999997,-0.8999999999999997,high,high,,ISIC_0561634.JPG,,ISIC_0025491.JPG,184,true,hh,keypress(i),0,false,480072.90000000596,480072.700000003,475909.461,475912.5,475926.211,480076.055,1,40,30,
sequence,flow.Sequence,6_29,2023-11-15T17:48:27.632Z,,,,,,,,,,4146.48900000297,completion,,,,,,,high,high,,,,,,true,,,,false,480073.3000000119,480072.700000003,475909.461,475912.5,475926.211,480076.055,1,40,,
trial,html.Screen,6_30_0,2023-11-15T17:48:32.302Z,,,,1,-0.8312854004298869,-0.7459511759516213,,true,hh,4667.745000011928,response,0.7960221520457809,0.8999999999999997,-0.8999999999999997,0.9397522689480928,0.8999999999999997,-0.8999999999999997,high,high,,ISIC_8690205.JPG,,ISIC_1200192.JPG,184,true,hh,keypress(i),0,false,484744,484743.8000000119,480059.322,480073.5,480076.055,484759.578,1,40,31,
sequence,flow.Sequence,6_30,2023-11-15T17:48:32.303Z,,,,,,,,,,4667.745000011928,completion,,,,,,,high,high,,,,,,true,,,,false,484744.40000000596,484743.8000000119,480059.322,480073.5,480076.055,484759.578,1,40,,
trial,html.Screen,6_31_0,2023-11-15T17:48:37.445Z,,,,1,1.0063353542987443,0.9468739614220908,,false,ll,5126.622000003001,response,-0.8405707669205109,0.8999999999999997,-0.8999999999999997,-0.7425323414439162,0.8999999999999997,-0.8999999999999997,low,low,,ISIC_0072382.JPG,,ISIC_4272317.JPG,169,true,hl,keypress(j),0,false,489886.200000003,489886.200000003,484742.775,484744.60000000894,484759.578,489892.606,1,40,32,
sequence,flow.Sequence,6_31,2023-11-15T17:48:37.445Z,,,,,,,,,,5126.622000003001,completion,,,,,,,low,low,,,,,,true,,,,false,489886.40000000596,489886.200000003,484742.775,484744.5,484759.578,489892.606,1,40,,
trial,html.Screen,6_32_0,2023-11-15T17:48:41.078Z,,,,1,0.7629099401226335,-0.8515956627075536,,false,lh,3626.893999999971,response,-1.0369885917487718,0.8999999999999997,-0.8999999999999997,0.8486937878412699,0.8999999999999997,-0.8999999999999997,low,high,,ISIC_0028718.JPG,,ISIC_6917681.JPG,29,true,hl,keypress(j),0,false,493519.60000000894,493519.5,489876.053,489886.40000000596,489892.606,493525.966,1,40,33,
sequence,flow.Sequence,6_32,2023-11-15T17:48:41.078Z,,,,,,,,,,3626.893999999971,completion,,,,,,,low,high,,,,,,true,,,,false,493519.700000003,493519.5,489876.053,489886.40000000596,489892.606,493525.966,1,40,,
trial,html.Screen,6_33_0,2023-11-15T17:48:44.965Z,,,,1,-0.9237241143561707,0.7102087839245512,,true,hl,3880.4340000059456,response,0.7552468233268477,0.8999999999999997,-0.8999999999999997,-0.71846037114465,0.8999999999999997,-0.8999999999999997,high,low,,ISIC_0058661.JPG,,ISIC_2354070.JPG,43,true,hl,keypress(j),0,false,497406.40000000596,497406.40000000596,493509.271,493519.700000003,493525.966,497409.25,1,40,34,
sequence,flow.Sequence,6_33,2023-11-15T17:48:44.965Z,,,,,,,,,,3880.4340000059456,completion,,,,,,,high,low,,,,,,true,,,,false,497406.60000000894,497406.40000000596,493509.271,493519.700000003,493525.966,497409.25,1,40,,
trial,html.Screen,6_34_0,2023-11-15T17:48:49.936Z,,,,1,-0.8472024037189965,0.986370061404882,,true,hl,4967.550000011921,response,0.9089402323867112,0.8999999999999997,-0.8999999999999997,-0.8034544077281132,0.8999999999999997,-0.8999999999999997,high,low,,ISIC_0054355.JPG,,ISIC_3585381.JPG,43,true,hl,keypress(j),0,false,502377,502376.8000000119,497392.748,497406.60000000894,497409.25,502392.641,1,40,35,
sequence,flow.Sequence,6_34,2023-11-15T17:48:49.936Z,,,,,,,,,,4967.550000011921,completion,,,,,,,high,low,,,,,,true,,,,false,502377.40000000596,502376.8000000119,497392.748,497406.60000000894,497409.25,502392.641,1,40,,
trial,html.Screen,6_35_0,2023-11-15T17:48:55.064Z,,,,1,-1.0453124399868816,0.8986747280184286,,false,hl,5111.858999999997,response,0.7612472458680769,0.8999999999999997,-0.8999999999999997,-0.729960233427452,0.8999999999999997,-0.8999999999999997,high,low,,ISIC_0013967.JPG,,ISIC_5307210.JPG,43,true,lh,keypress(e),0,false,507504.700000003,507504.5,502376.032,502377.700000003,502392.641,507509.304,1,40,36,
sequence,flow.Sequence,6_35,2023-11-15T17:48:55.064Z,,,,,,,,,,5111.858999999997,completion,,,,,,,high,low,,,,,,true,,,,false,507505.10000000894,507504.5,502376.032,502377.60000000894,502392.641,507509.304,1,40,,
trial,html.Screen,6_36_0,2023-11-15T17:48:59.463Z,,,,1,-0.824124127424315,-0.8170596140441219,,true,hh,4394.195999999996,response,0.8010128234618513,0.8999999999999997,-0.8999999999999997,0.9031251164933652,0.8999999999999997,-0.8999999999999997,high,high,,ISIC_5909451.JPG,,ISIC_0058768.JPG,184,true,hh,keypress(i),0,false,511903.8000000119,511903.5,507492.689,507505.3000000119,507509.304,511909.293,1,40,37,
sequence,flow.Sequence,6_36,2023-11-15T17:48:59.463Z,,,,,,,,,,4394.195999999996,completion,,,,,,,high,high,,,,,,true,,,,false,511904,511903.5,507492.689,507505.200000003,507509.304,511909.293,1,40,,
trial,html.Screen,6_37_0,2023-11-15T17:49:06.414Z,,,,1,-0.789083277544982,0.7172067273002093,,false,hl,6946.107000005955,response,0.8165346395107898,0.8999999999999997,-0.8999999999999997,-0.7657798385266591,0.8999999999999997,-0.8999999999999997,high,low,,ISIC_0011030.JPG,,ISIC_2283628.JPG,43,true,hh,keypress(i),0,false,518855.700000003,518855.40000000596,511892.717,511904.200000003,511909.293,518859.281,1,40,38,
sequence,flow.Sequence,6_37,2023-11-15T17:49:06.415Z,,,,,,,,,,6946.107000005955,completion,,,,,,,high,low,,,,,,true,,,,false,518856,518855.40000000596,511892.717,511904.200000003,511909.293,518859.281,1,40,,
trial,html.Screen,6_38_0,2023-11-15T17:49:11.999Z,,,,1,-0.7308116448711435,0.908713834988551,,false,hl,5580.919000002963,response,0.7612472458680769,0.8999999999999997,-0.8999999999999997,-0.729960233427452,0.8999999999999997,-0.8999999999999997,high,low,,ISIC_7811951.JPG,,ISIC_5307210.JPG,43,true,ll,keypress(f),0,false,524440.5,524440.200000003,518842.335,518856.200000003,518859.281,524459.796,1,40,39,
sequence,flow.Sequence,6_38,2023-11-15T17:49:12.000Z,,,,,,,,,,5580.919000002963,completion,,,,,,,high,low,,,,,,true,,,,false,524440.8000000119,524440.200000003,518842.335,518856.200000003,518859.281,524459.796,1,40,,
trial,html.Screen,6_39_0,2023-11-15T17:49:17.398Z,,,,1,-1.000073518730644,-0.7557291255005921,,false,hh,5379.6040000059875,response,0.8679614460736003,0.8999999999999997,-0.8999999999999997,0.9273061036826674,0.8999999999999997,-0.8999999999999997,high,high,,ISIC_0028462.JPG,,ISIC_9955163.JPG,184,true,ll,keypress(f),0,false,529839.6000000089,529839.400000006,524425.957,524441,524459.796,529842.579,1,40,40,
sequence,flow.Sequence,6_39,2023-11-15T17:49:17.399Z,,,,,,,,,,5379.6040000059875,completion,,,,,,,high,high,,,,,,true,,,,false,529840,529839.400000006,524425.957,524441,524459.796,529842.579,1,40,,
practice_loop,flow.Loop,6,2023-11-15T17:49:17.399Z,,,,,,,,,,209696.14900000597,completion,,,,,,,,,,,,,,true,,,,false,529840.200000003,529839.400000006,320109.914,320134.200000003,320143.251,529842.579,1,40,,
stair_instructions,html.Screen,7,2023-11-15T17:49:20.644Z,,,,,,,,,,3242.621000002953,response,,,,,,,,,,,,,,,continue,click button,,,533085.700000003,533085.200000003,529825.813,529840.3000000119,529842.579,533092.518,,,,
trial,html.Screen,8_0_0,2023-11-15T17:49:28.569Z,,,,2,-0.0715931084231032,0.011427878877272,,false,hl,7917.38200000592,response,0.7692916291112835,0.8999999999999997,-0.8999999999999997,-0.7818604706992622,0.8999999999999997,-0.8999999999999997,high,low,,ISIC_1470250.JPG,,ISIC_7844825.JPG,43,false,lh,keypress(e),0,true,541010,541009.900000006,533076.062,533085.8000000119,533092.518,541026.096,1,40,1,
sequence,flow.Sequence,8_0,2023-11-15T17:49:28.569Z,,,,,,,,,,7917.38200000592,completion,,,,,,,high,low,,,,,,false,,,,true,541010.1000000089,541009.900000006,533076.062,533085.8000000119,533092.518,541026.096,1,40,,
trial,html.Screen,8_1_0,2023-11-15T17:49:32.015Z,,,,2,0.0409660561823769,-0.039283578935498,,false,lh,3429.504000008921,response,-0.8110121381849364,0.9499999999999997,-0.8999999999999997,0.7563142141851558,0.8999999999999997,-0.9499999999999997,low,high,,ISIC_0479264.JPG,,ISIC_0033605.JPG,29,false,ll,keypress(f),0,true,544455.8000000119,544455.6000000089,541009.122,541010.1000000089,541026.096,544459.2,1,40,2,
sequence,flow.Sequence,8_1,2023-11-15T17:49:32.015Z,,,,,,,,,,3429.504000008921,completion,,,,,,,low,high,,,,,,false,,,,true,544456.3000000119,544455.6000000089,541009.122,541010.1000000089,541026.096,544459.2,1,40,,
trial,html.Screen,8_2_0,2023-11-15T17:49:35.367Z,,,,2,-0.0633291412406864,0.0446580444004686,,false,hl,3348.500000003027,response,0.9138670886161264,0.9499999999999997,-0.8999999999999997,-0.8414121478342018,0.9499999999999997,-0.9499999999999997,high,low,,ISIC_0010718.JPG,,ISIC_6709052.JPG,30,false,hh,keypress(i),0,true,547808,547807.700000003,544442.581,544456.400000006,544459.2,547826.069,1,40,3,
sequence,flow.Sequence,8_2,2023-11-15T17:49:35.367Z,,,,,,,,,,3348.500000003027,completion,,,,,,,high,low,,,,,,false,,,,true,547808.3000000119,547807.700000003,544442.581,544456.400000006,544459.2,547826.069,1,40,,
trial,html.Screen,8_3_0,2023-11-15T17:49:39.996Z,,,,2,0.0497314815986203,-0.0303374618795786,,true,lh,4611.531000008923,response,-0.7088606387153258,0.9499999999999997,-0.8999999999999997,0.948610930521224,0.9499999999999997,-0.9999999999999998,low,high,,ISIC_6023504.JPG,,ISIC_0026293.JPG,23,false,lh,keypress(e),0,true,552437.700000003,552437.6000000089,547792.609,547808.5,547826.069,552442.468,1,40,4,
sequence,flow.Sequence,8_3,2023-11-15T17:49:39.997Z,,,,,,,,,,4611.531000008923,completion,,,,,,,low,high,,,,,,false,,,,true,552437.8000000119,552437.6000000089,547792.609,547808.5,547826.069,552442.468,1,40,,
trial,html.Screen,8_4_0,2023-11-15T17:49:43.623Z,,,,2,0.0495531443078245,0.0310660434153916,,true,hl,3621.2320000029868,response,1.0685314915436992,0.9499999999999997,-0.8499999999999996,-0.8203833713472237,0.9499999999999997,-0.9999999999999998,high,low,,ISIC_0013719.JPG,,ISIC_0029374.JPG,23,false,hl,keypress(j),0,true,556063.900000006,556063.700000003,552425.836,552437.8000000119,552442.468,556075.926,1,40,5,
sequence,flow.Sequence,8_4,2023-11-15T17:49:43.623Z,,,,,,,,,,3621.2320000029868,completion,,,,,,,high,low,,,,,,false,,,,true,556064.3000000119,556063.700000003,552425.836,552437.8000000119,552442.468,556075.926,1,40,,
trial,html.Screen,8_5_0,2023-11-15T17:49:48.239Z,,,,2,0.0388334549081915,-0.0303399972963369,,true,lh,4603.574000000022,response,-0.989300717252516,0.8999999999999997,-0.8499999999999996,0.7908280206937478,0.9499999999999997,-0.9999999999999998,low,high,,ISIC_4961708.JPG,,ISIC_6416533.JPG,30,false,lh,keypress(e),0,true,560679.8000000119,560679.5,556059.227,556064.6000000089,556075.926,560692.697,1,40,6,
sequence,flow.Sequence,8_5,2023-11-15T17:49:48.239Z,,,,,,,,,,4603.574000000022,completion,,,,,,,low,high,,,,,,false,,,,true,560680.200000003,560679.5,556059.227,556064.5,556075.926,560692.697,1,40,,
trial,html.Screen,8_6_0,2023-11-15T17:49:55.503Z,,,,2,0.0409660561823769,-0.039283578935498,,false,hh,7251.103000011877,response,0.7398963495705471,0.8999999999999997,-0.8499999999999996,0.7880820832288019,0.8999999999999997,-0.9999999999999998,high,high,,ISIC_0479264.JPG,,ISIC_0011778.JPG,184,false,lh,keypress(e),0,true,567944.1000000089,567943.8000000119,560675.854,560680.3000000119,560692.697,567959.125,1,40,7,
sequence,flow.Sequence,8_6,2023-11-15T17:49:55.504Z,,,,,,,,,,7251.103000011877,completion,,,,,,,high,high,,,,,,false,,,,true,567944.3000000119,567943.8000000119,560675.854,560680.3000000119,560692.697,567959.125,1,40,,
trial,html.Screen,8_7_0,2023-11-15T17:49:59.887Z,,,,2,0.0200376619013301,0.0451764418954947,,false,hl,4368.475000008941,response,1.0116417541846066,0.9499999999999997,-0.8499999999999996,-1.033442916947398,0.8999999999999997,-0.9999999999999998,high,low,,ISIC_0026087.JPG,,ISIC_0031389.JPG,23,false,hh,keypress(i),0,true,572327.900000006,572327.6000000089,567942.35,567944.6000000089,567959.125,572342.609,1,40,8,
sequence,flow.Sequence,8_7,2023-11-15T17:49:59.888Z,,,,,,,,,,4368.475000008941,completion,,,,,,,high,low,,,,,,false,,,,true,572328.200000003,572327.6000000089,567942.35,567944.6000000089,567959.125,572342.609,1,40,,
trial,html.Screen,8_8_0,2023-11-15T17:50:04.535Z,,,,2,-0.0076984477620101,-0.0069458408496562,,false,ll,4633.091000002925,response,-0.745731903414877,0.9499999999999997,-0.8499999999999996,-0.9653147884001048,0.8999999999999997,-1.0499999999999998,low,low,,ISIC_0000434.JPG,,ISIC_3613012.JPG,131,false,hl,keypress(j),0,true,576975.900000006,576975.700000003,572325.788,572328.3000000119,572342.609,576992.644,1,40,9,
sequence,flow.Sequence,8_8,2023-11-15T17:50:04.536Z,,,,,,,,,,4633.091000002925,completion,,,,,,,low,low,,,,,,false,,,,true,576976.3000000119,576975.700000003,572325.788,572328.3000000119,572342.609,576992.644,1,40,,
trial,html.Screen,8_9_0,2023-11-15T17:50:09.174Z,,,,2,-0.0286056110007553,-0.036125199756515,,false,ll,4622.256000005989,response,-0.7420119067987634,0.9499999999999997,-0.8999999999999997,-0.9245836900688724,0.8999999999999997,-1.0499999999999998,low,low,,ISIC_6535558.JPG,,ISIC_4130167.JPG,126,false,hl,keypress(j),0,true,581615,581614.900000006,576975.837,576976.6000000089,576992.644,581625.927,1,40,10,
sequence,flow.Sequence,8_9,2023-11-15T17:50:09.174Z,,,,,,,,,,4622.256000005989,completion,,,,,,,low,low,,,,,,false,,,,true,581615.1000000089,581614.900000006,576975.837,576976.6000000089,576992.644,581625.927,1,40,,
trial,html.Screen,8_10_0,2023-11-15T17:50:12.087Z,,,,2,0.0478761683145946,-0.012927090508672,,false,hh,2901.773000002955,response,0.8824429342294199,0.9499999999999997,-0.9499999999999997,0.8627090057984027,0.8999999999999997,-0.8949492392344885,high,high,,ISIC_9631669.JPG,,ISIC_0015193.JPG,170,false,lh,keypress(e),0,true,584528,584527.700000003,581609.031,581615.200000003,581625.927,584542.523,1,40,11,
sequence,flow.Sequence,8_10,2023-11-15T17:50:12.088Z,,,,,,,,,,2901.773000002955,completion,,,,,,,high,high,,,,,,false,,,,true,584528.400000006,584527.700000003,581609.031,581615.200000003,581625.927,584542.523,1,40,,
trial,html.Screen,8_11_0,2023-11-15T17:50:15.638Z,,,,2,-0.0105349256029223,0.0723574625425557,,false,hl,3535.9769999999553,response,1.0926414044454305,0.9999999999999998,-0.9499999999999997,-0.7741624649032207,0.8499999999999996,-0.8949492392344885,high,low,,ISIC_0058998.JPG,,ISIC_2355513.JPG,26,false,ll,keypress(f),0,true,588078.6000000089,588078.5,584525.85,584528.6000000089,584542.523,588092.61,1,40,12,
sequence,flow.Sequence,8_11,2023-11-15T17:50:15.638Z,,,,,,,,,,3535.9769999999553,completion,,,,,,,high,low,,,,,,false,,,,true,588078.8000000119,588078.5,584525.85,584528.6000000089,584542.523,588092.61,1,40,,
trial,html.Screen,8_12_0,2023-11-15T17:50:20.551Z,,,,2,-0.0257631352671967,-0.0202837002774028,,true,ll,4899.290000005974,response,-1.021981961304436,1.0499999999999998,-0.9499999999999997,-0.7957634739543782,0.8499999999999996,-0.8949492392344885,low,low,,ISIC_0032797.JPG,,ISIC_0006327.JPG,152,false,ll,keypress(f),0,true,592992.200000003,592991.900000006,588075.764,588078.8000000119,588092.61,593009.269,1,40,13,
sequence,flow.Sequence,8_12,2023-11-15T17:50:20.552Z,,,,,,,,,,4899.290000005974,completion,,,,,,,low,low,,,,,,false,,,,true,592992.6000000089,592991.900000006,588075.764,588078.8000000119,588092.61,593009.269,1,40,,
trial,html.Screen,8_13_0,2023-11-15T17:50:25.447Z,,,,2,0.0388181790775959,-0.0049623405709465,,true,ll,4878.53100001195,response,-0.8465917022244419,1.0499999999999998,-0.9499999999999997,-1.0121558062445464,0.8499999999999996,-0.8588727176294071,low,low,,ISIC_0061880.JPG,,ISIC_6914698.JPG,165,false,ll,keypress(f),0,true,597888.1000000089,597887.8000000119,592992.493,592992.700000003,593009.269,597892.331,1,40,14,
sequence,flow.Sequence,8_13,2023-11-15T17:50:25.448Z,,,,,,,,,,4878.53100001195,completion,,,,,,,low,low,,,,,,false,,,,true,597888.5,597887.8000000119,592992.493,592992.700000003,593009.269,597892.331,1,40,,
trial,html.Screen,8_14_0,2023-11-15T17:50:30.894Z,,,,2,0.0409660561823769,-0.039283578935498,,false,lh,5442.069000005955,response,-0.6928402368686908,1.0499999999999998,-0.8793737542344942,0.8182069330979422,0.8499999999999996,-0.8588727176294071,low,high,,ISIC_0479264.JPG,,ISIC_0046615.JPG,42,false,hh,keypress(i),0,true,603334.5,603334.400000006,597875.773,597888.700000003,597892.331,603342.365,1,40,15,
sequence,flow.Sequence,8_14,2023-11-15T17:50:30.894Z,,,,,,,,,,5442.069000005955,completion,,,,,,,low,high,,,,,,false,,,,true,603334.700000003,603334.400000006,597875.773,597888.700000003,597892.331,603342.365,1,40,,
trial,html.Screen,8_15_0,2023-11-15T17:50:38.613Z,,,,2,-0.0258224118104549,0.0029364553353019,,true,hl,7711.43500001193,response,0.9377879738246,1.0499999999999998,-0.9293737542344942,-0.6684167919118053,0.8499999999999996,-0.8588727176294071,high,low,,ISIC_8325226.JPG,,ISIC_0028986.JPG,21,false,hl,keypress(j),0,true,611054,611053.8000000119,603325.678,603334.8000000119,603342.365,611058.917,1,40,16,
sequence,flow.Sequence,8_15,2023-11-15T17:50:38.613Z,,,,,,,,,,7711.43500001193,completion,,,,,,,high,low,,,,,,false,,,,true,611054,611053.8000000119,603325.678,603334.8000000119,603342.365,611058.917,1,40,,
trial,html.Screen,8_16_0,2023-11-15T17:50:42.944Z,,,,2,0.0473541545202326,-0.0294076954053606,,false,lh,4325.383000011905,response,-0.8926515927689261,1.0499999999999998,-0.9293737542344942,0.7935960767768927,0.8499999999999996,-0.808872717629407,low,high,,ISIC_0034065.JPG,,ISIC_8901371.JPG,31,false,hl,keypress(j),0,true,615384.5,615384.3000000119,611042.306,611054.1000000089,611058.917,615392.303,1,40,17,
sequence,flow.Sequence,8_16,2023-11-15T17:50:42.944Z,,,,,,,,,,4325.383000011905,completion,,,,,,,low,high,,,,,,false,,,,true,615385,615384.3000000119,611042.306,611054.1000000089,611058.917,615392.303,1,40,,
trial,html.Screen,8_17_0,2023-11-15T17:50:47.743Z,,,,2,0.0586587895724749,0.0220047273041276,,true,hl,4790.997000011965,response,1.0685314915436992,1.0499999999999998,-0.9793737542344942,-0.8203833713472237,0.8999999999999997,-0.808872717629407,high,low,,ISIC_0028320.JPG,,ISIC_0029374.JPG,26,false,hl,keypress(j),0,true,620183.6000000089,620183.3000000119,615375.781,615385.1000000089,615392.303,620192.326,1,40,18,
sequence,flow.Sequence,8_17,2023-11-15T17:50:47.743Z,,,,,,,,,,4790.997000011965,completion,,,,,,,high,low,,,,,,false,,,,true,620184,620183.3000000119,615375.781,615385,615392.303,620192.326,1,40,,
trial,html.Screen,8_18_0,2023-11-15T17:50:54.455Z,,,,2,0.055893254685579,0.0187125006410995,,false,ll,6702.47400001192,response,-0.8182936117960093,0.9999999999999998,-0.9793737542344942,-0.6897704277279393,0.8999999999999997,-0.808872717629407,low,low,,ISIC_0011779.JPG,,ISIC_0033463.JPG,171,false,lh,keypress(e),0,true,626894.900000006,626894.8000000119,620175.755,620184.200000003,620192.326,626909.116,1,40,19,
sequence,flow.Sequence,8_18,2023-11-15T17:50:54.455Z,,,,,,,,,,6702.47400001192,completion,,,,,,,low,low,,,,,,false,,,,true,626895,626894.8000000119,620175.755,620184.1000000089,620192.326,626909.116,1,40,,
trial,html.Screen,8_19_0,2023-11-15T17:50:59.200Z,,,,2,-0.0204987932325723,0.0619049476763945,,true,hh,4731.084000002942,response,0.8657346220870833,0.9999999999999998,-0.9793737542344942,0.8760088166744258,0.8999999999999997,-0.8588727176294071,high,high,,ISIC_0887792.JPG,,ISIC_0029433.JPG,150,false,hh,keypress(i),0,true,631640.400000006,631640.200000003,626892.319,626895.1000000089,626909.116,631659.466,1,40,20,
sequence,flow.Sequence,8_19,2023-11-15T17:50:59.201Z,,,,,,,,,,4731.084000002942,completion,,,,,,,high,high,,,,,,false,,,,true,631640.8000000119,631640.200000003,626892.319,626895,626909.116,631659.466,1,40,,
trial,html.Screen,8_20_0,2023-11-15T17:51:03.376Z,,,,2,-0.0367744112927588,-0.0324865661712824,,false,hh,4156.134000008926,response,0.8380649167521746,0.9999999999999998,-0.9793737542344942,0.7135701709445428,0.8999999999999997,-0.8588727176294071,high,high,,ISIC_4523565.JPG,,ISIC_0010061.JPG,150,false,lh,keypress(e),0,true,635815.8000000119,635815.6000000089,631625.652,631641,631659.466,635825.619,1,40,21,
sequence,flow.Sequence,8_20,2023-11-15T17:51:03.376Z,,,,,,,,,,4156.134000008926,completion,,,,,,,high,high,,,,,,false,,,,true,635816.3000000119,635815.6000000089,631625.652,631641,631659.466,635825.619,1,40,,
trial,html.Screen,8_21_0,2023-11-15T17:51:06.833Z,,,,2,-0.0444523556175667,-0.066384682611553,,true,hh,3446.881000000052,response,1.1032422846943248,1.0499999999999998,-0.9793737542344942,0.8526017146535531,0.7447894938094842,-0.8588727176294071,high,high,,ISIC_0029409.JPG,,ISIC_0070170.JPG,169,false,hh,keypress(i),0,true,639272.700000003,639272.5,635808.947,635816.5,635825.619,639275.606,1,40,22,
sequence,flow.Sequence,8_21,2023-11-15T17:51:06.833Z,,,,,,,,,,3446.881000000052,completion,,,,,,,high,high,,,,,,false,,,,true,639273.200000003,639272.5,635808.947,635816.400000006,635825.619,639275.606,1,40,,
trial,html.Screen,8_22_0,2023-11-15T17:51:10.638Z,,,,2,-0.068830656047477,0.0471494209282208,,false,ll,3802.393999999971,response,-1.0325421457475312,1.0499999999999998,-0.9793737542344942,-1.0219157566370058,0.7447894938094842,-0.8588727176294071,low,low,,ISIC_0029982.JPG,,ISIC_5336548.JPG,156,false,hl,keypress(j),0,true,643078.1000000089,643078,639259.029,639273.400000006,639275.606,643092.225,1,40,23,
sequence,flow.Sequence,8_22,2023-11-15T17:51:10.638Z,,,,,,,,,,3802.393999999971,completion,,,,,,,low,low,,,,,,false,,,,true,643078.200000003,643078,639259.029,639273.3000000119,639275.606,643092.225,1,40,,
trial,html.Screen,8_23_0,2023-11-15T17:51:15.574Z,,,,2,-0.0200295718112167,-0.0155559071275806,,false,lh,4922.075000011944,response,-0.9653573371180936,1.0499999999999998,-1.0293737542344943,0.854766800381037,0.7447894938094842,-0.8588727176294071,low,high,,ISIC_0061343.JPG,,ISIC_9640145.JPG,34,false,hl,keypress(j),0,true,648014.3000000119,648014.3000000119,643075.698,643078.200000003,643092.225,648025.702,1,40,24,
sequence,flow.Sequence,8_23,2023-11-15T17:51:15.574Z,,,,,,,,,,4922.075000011944,completion,,,,,,,low,high,,,,,,false,,,,true,648014.400000006,648014.3000000119,643075.698,643078.200000003,643092.225,648025.702,1,40,,
trial,html.Screen,8_24_0,2023-11-15T17:51:20.113Z,,,,2,-0.0501343550751953,-0.0101991443736165,,false,hl,4526.898000008892,response,1.0153439398566937,1.0499999999999998,-1.0793737542344943,-0.93001438372942,0.7947894938094843,-0.8588727176294071,high,low,,ISIC_4232761.JPG,,ISIC_8211214.JPG,21,false,ll,keypress(f),0,true,652552.8000000119,652552.6000000089,648008.849,648014.5,648025.702,652558.835,1,40,25,
sequence,flow.Sequence,8_24,2023-11-15T17:51:20.113Z,,,,,,,,,,4526.898000008892,completion,,,,,,,high,low,,,,,,false,,,,true,652553.3000000119,652552.6000000089,648008.849,648014.5,648025.702,652558.835,1,40,,
trial,html.Screen,8_25_0,2023-11-15T17:51:23.048Z,,,,2,0.0528688218207886,-0.0356788458032396,,true,lh,2928.5650000059977,response,-0.9292144567580788,1.0999999999999999,-1.0793737542344943,0.6431072529043046,0.7947894938094843,-0.925965070183213,low,high,,ISIC_5287748.JPG,,ISIC_4108397.JPG,24,false,lh,keypress(e),0,true,655487.6000000089,655487.400000006,652542.243,652553.5,652558.835,655492.227,1,40,26,
sequence,flow.Sequence,8_25,2023-11-15T17:51:23.048Z,,,,,,,,,,2928.5650000059977,completion,,,,,,,low,high,,,,,,false,,,,true,655488,655487.400000006,652542.243,652553.400000006,652558.835,655492.227,1,40,,
trial,html.Screen,8_26_0,2023-11-15T17:51:26.535Z,,,,2,0.0065172941585523,-0.0118857043117315,,true,ll,3482.8730000089854,response,-0.9966799416482932,1.0999999999999999,-1.0793737542344943,-0.7513707283535042,0.7947894938094843,-0.925965070183213,low,low,,ISIC_6119202.JPG,,ISIC_7489895.JPG,97,false,ll,keypress(f),0,true,658975.400000006,658975.1000000089,655475.628,655488.200000003,655492.227,658992.44,1,40,27,
sequence,flow.Sequence,8_26,2023-11-15T17:51:26.536Z,,,,,,,,,,3482.8730000089854,completion,,,,,,,low,low,,,,,,false,,,,true,658975.8000000119,658975.1000000089,655475.628,655488.1000000089,655492.227,658992.44,1,40,,
trial,html.Screen,8_27_0,2023-11-15T17:51:31.366Z,,,,2,0.0164027439304477,-0.0082910758715273,,false,ll,4813.860000011977,response,-0.875032819970805,1.0999999999999999,-0.8240253350008986,-0.9230722071334148,0.7947894938094843,-0.925965070183213,low,low,,ISIC_7381224.JPG,,ISIC_4568084.JPG,184,false,lh,keypress(e),0,true,663806.400000006,663806.3000000119,658975.671,658975.900000006,658992.44,663808.791,1,40,28,
sequence,flow.Sequence,8_27,2023-11-15T17:51:31.366Z,,,,,,,,,,4813.860000011977,completion,,,,,,,low,low,,,,,,false,,,,true,663806.6000000089,663806.3000000119,658975.671,658975.900000006,658992.44,663808.791,1,40,,
trial,html.Screen,8_28_0,2023-11-15T17:51:34.591Z,,,,2,0.0080817964357627,-0.0444435264307931,,false,ll,3222.5090000119526,response,-0.8775389671837809,1.0999999999999999,-0.8240253350008986,-0.97697295261856,0.7947894938094843,-0.975965070183213,low,low,,ISIC_0013165.JPG,,ISIC_0071957.JPG,160,false,lh,keypress(e),0,true,667031.5,667031.3000000119,663792.093,663806.6000000089,663808.791,667042.232,1,40,29,
sequence,flow.Sequence,8_28,2023-11-15T17:51:34.592Z,,,,,,,,,,3222.5090000119526,completion,,,,,,,low,low,,,,,,false,,,,true,667032,667031.3000000119,663792.093,663806.6000000089,663808.791,667042.232,1,40,,
trial,html.Screen,8_29_0,2023-11-15T17:51:38.568Z,,,,2,,0.0102871556606504,,false,hl,3965.26800000004,response,1.004142980655507,0.9999999999999998,-0.7262858935772928,-0.7749773174967559,0.6947894938094842,-0.925965070183213,high,low,,ISIC_1805163.JPG,,ISIC_3936223.JPG,23,false,hh,keypress(i),0,true,671007.700000003,671007.5,667025.65,667032.1000000089,667042.232,671042.319,1,40,30,
sequence,flow.Sequence,8_29,2023-11-15T17:51:38.568Z,,,,,,,,,,3965.26800000004,completion,,,,,,,high,low,,,,,,false,,,,true,671008.1000000089,671007.5,667025.65,667032.1000000089,667042.232,671042.319,1,40,,
trial,html.Screen,8_30_0,2023-11-15T17:51:42.761Z,,,,2,0.055893254685579,0.0187125006410995,,true,hh,4157.981000011903,response,0.9401803902317778,0.9999999999999998,-0.7262858935772928,0.6920617394377806,0.6947894938094842,-0.975965070183213,high,high,,ISIC_0011779.JPG,,ISIC_0055781.JPG,188,false,hh,keypress(i),0,true,675200.6000000089,675200.3000000119,671025.686,671008.3000000119,671042.319,675208.749,1,40,31,
sequence,flow.Sequence,8_30,2023-11-15T17:51:42.761Z,,,,,,,,,,4157.981000011903,completion,,,,,,,high,high,,,,,,false,,,,true,675201,675200.3000000119,671025.686,671008.3000000119,671042.319,675208.749,1,40,,
trial,html.Screen,8_31_0,2023-11-15T17:51:46.391Z,,,,2,0.044991036470624,-0.0185124638005965,,true,hh,3622.151000006008,response,0.9448299365501612,0.7981023600466437,-0.7262858935772928,0.657479477259629,0.7981023600466437,-0.975965070183213,high,high,,ISIC_2457859.JPG,,ISIC_7788318.JPG,244,false,hh,keypress(i),0,true,678831.200000003,678830.900000006,675192.025,675201.200000003,675208.749,678842.188,1,40,32,
sequence,flow.Sequence,8_31,2023-11-15T17:51:46.392Z,,,,,,,,,,3622.151000006008,completion,,,,,,,high,high,,,,,,false,,,,true,678831.6000000089,678830.900000006,675192.025,675201.1000000089,675208.749,678842.188,1,40,,
trial,html.Screen,8_32_0,2023-11-15T17:51:50.976Z,,,,2,0.0497314815986203,-0.0303374618795786,,false,lh,4573.012000003015,response,-0.6471209516816265,0.7981023600466437,-0.7262858935772928,0.7244549503534893,0.7981023600466437,-0.975965070183213,low,high,,ISIC_6023504.JPG,,ISIC_0029441.JPG,71,false,hh,keypress(i),0,true,683415.400000006,683415.200000003,678825.427,678831.8000000119,678842.188,683425.46,1,40,33,
sequence,flow.Sequence,8_32,2023-11-15T17:51:50.976Z,,,,,,,,,,4573.012000003015,completion,,,,,,,low,high,,,,,,false,,,,true,683415.900000006,683415.200000003,678825.427,678831.8000000119,678842.188,683425.46,1,40,,
trial,html.Screen,8_33_0,2023-11-15T17:51:56.081Z,,,,2,0.0586587895724749,0.0220047273041276,,true,hh,5094.640000008978,response,0.7914343157165398,0.7981023600466437,-0.7762858935772928,0.7781630990015259,0.6409672138065591,-0.975965070183213,high,high,,ISIC_0028320.JPG,,ISIC_0026081.JPG,277,false,hh,keypress(i),0,true,688520.3000000119,688520.1000000089,683408.882,683416.1000000089,683425.46,688525.415,1,40,34,
sequence,flow.Sequence,8_33,2023-11-15T17:51:56.081Z,,,,,,,,,,5094.640000008978,completion,,,,,,,high,high,,,,,,false,,,,true,688520.700000003,688520.1000000089,683408.882,683416,683425.46,688525.415,1,40,,
trial,html.Screen,8_34_0,2023-11-15T17:51:59.328Z,,,,2,0.0273855825278348,-0.0566295048930719,,true,hh,3241.8850000118837,response,0.8628989580970786,0.7347987073590327,-0.7762858935772928,0.7092745497229191,0.6409672138065591,-0.975965070183213,high,high,,ISIC_0000141.JPG,,ISIC_0000030.JPG,294,false,hh,keypress(i),0,true,691767.700000003,691767.3000000119,688508.828,688521,688525.415,691775.402,1,40,35,
sequence,flow.Sequence,8_34,2023-11-15T17:51:59.328Z,,,,,,,,,,3241.8850000118837,completion,,,,,,,high,high,,,,,,false,,,,true,691768.1000000089,691767.3000000119,688508.828,688520.900000006,688525.415,691775.402,1,40,,
trial,html.Screen,8_35_0,2023-11-15T17:52:04.664Z,,,,2,-0.0586798548295751,0.0060040805764433,,false,lh,5327.998000005959,response,-0.7518949519121654,0.7347987073590327,-0.7762858935772928,0.624562398226513,0.7360867539099989,-0.975965070183213,low,high,,ISIC_1552232.JPG,,ISIC_3686329.JPG,74,false,ll,keypress(f),0,true,697103.700000003,697103.400000006,691758.919,691768.200000003,691775.402,697108.724,1,40,36,
sequence,flow.Sequence,8_35,2023-11-15T17:52:04.664Z,,,,,,,,,,5327.998000005959,completion,,,,,,,low,high,,,,,,false,,,,true,697104.1000000089,697103.400000006,691758.919,691768.200000003,691775.402,697108.724,1,40,,
trial,html.Screen,8_36_0,2023-11-15T17:52:09.408Z,,,,2,-0.0480293506029756,-0.0744454320613987,,true,ll,4738.976000002935,response,-0.8363634080775226,0.7347987073590327,-0.7762858935772928,-0.899694322339037,0.7860867539099989,-0.975965070183213,low,low,,ISIC_1798471.JPG,,ISIC_0007257.JPG,166,false,ll,keypress(f),0,true,701848,701847.700000003,697092.156,697104.3000000119,697108.724,701858.852,1,40,37,
sequence,flow.Sequence,8_36,2023-11-15T17:52:09.409Z,,,,,,,,,,4738.976000002935,completion,,,,,,,low,low,,,,,,false,,,,true,701848.400000006,701847.700000003,697092.156,697104.200000003,697108.724,701858.852,1,40,,
trial,html.Screen,8_37_0,2023-11-15T17:52:15.096Z,,,,2,-0.0480293506029756,-0.0744454320613987,,true,hh,5676.248000008985,response,0.7599383696396893,0.7347987073590327,-0.8180288652082798,0.6101450790184321,0.7860867539099989,-0.975965070183213,high,high,,ISIC_1798471.JPG,,ISIC_8659639.JPG,267,false,hh,keypress(i),0,true,707535.400000006,707535.1000000089,701842.122,701848.6000000089,701858.852,707541.994,1,40,38,
sequence,flow.Sequence,8_37,2023-11-15T17:52:15.096Z,,,,,,,,,,5676.248000008985,completion,,,,,,,high,high,,,,,,false,,,,true,707535.8000000119,707535.1000000089,701842.122,701848.5,701858.852,707541.994,1,40,,
trial,html.Screen,8_38_0,2023-11-15T17:52:19.616Z,,,,2,0.0199950873045219,0.0172506388509166,,false,hl,4513.206000003032,response,0.4733836788091006,0.6350417243290607,-0.8180288652082798,-0.8701161727069109,0.7860867539099989,-0.975965070183213,high,low,,ISIC_0029906.JPG,,ISIC_1856556.JPG,72,false,ll,keypress(f),0,true,712055.400000006,712055.200000003,707525.404,707536,707541.994,712058.738,1,40,39,
sequence,flow.Sequence,8_38,2023-11-15T17:52:19.616Z,,,,,,,,,,4513.206000003032,completion,,,,,,,high,low,,,,,,false,,,,true,712055.8000000119,712055.200000003,707525.404,707535.900000006,707541.994,712058.738,1,40,,
trial,html.Screen,8_39_0,2023-11-15T17:52:25.848Z,,,,2,0.0145962222125655,0.0525495878509009,,false,lh,6228.362000008929,response,-0.9136649719060708,0.6850417243290607,-0.8180288652082798,0.6197574551927956,0.7860867539099989,-0.925965070183213,low,high,,ISIC_4248013.JPG,,ISIC_6297317.JPG,57,false,ll,keypress(f),0,true,718287.400000006,718287.1000000089,712041.999,712056,712058.738,718292.058,1,40,40,
sequence,flow.Sequence,8_39,2023-11-15T17:52:25.848Z,,,,,,,,,,6228.362000008929,completion,,,,,,,low,high,,,,,,false,,,,true,718287.700000003,718287.1000000089,712041.999,712055.900000006,712058.738,718292.058,1,40,,
stair_loop,flow.Loop,8,2023-11-15T17:52:25.848Z,,,,,,,,,,185194.5820000089,completion,,,,,,,,,,,,,,false,,,,true,718288,718287.1000000089,533076.062,533085.8000000119,533092.518,718292.058,1,40,,
exp_instructions,html.Screen,9,2023-11-15T17:52:33.703Z,,,,,,,,,,7850.24200001196,response,,,,,,,,,,,,,,,continue,keypress(Space),,,726143.1000000089,726142.3000000119,718275.153,718288.1000000089,718292.058,726158.708,,,,
trial,html.Screen,10_0_0,2023-11-15T17:52:39.617Z,,,,1,0.0241900387072296,-0.0339955304424736,,false,hl,5897.592000011937,response,0.7723423895392068,0.912679267911709,-0.865902034694322,-0.7630051745722757,0.7628233927675622,-0.9341919820447615,high,low,,ISIC_0010789.JPG,9,ISIC_9694911.JPG,36,false,ll,keypress(f),0,false,732056.6000000089,732056.3000000119,726141.921,726143.3000000119,726158.708,732058.656,4,500,1,
break,html.Screen,10_0_1,2023-11-15T17:52:39.618Z,,,,,,,,,,NaN,,,,,,,,high,low,,,,,,false,,,,false,732057.900000006,732057.5,,732056.900000006,,732058.656,4,500,,
break_continue,html.Screen,10_0_2,2023-11-15T17:52:39.619Z,,,,,,,,,,NaN,,,,,,,,high,low,,,,,,false,,,,false,732059,732058.5,,732058.1000000089,,732058.656,4,500,,
sequence,flow.Sequence,10_0,2023-11-15T17:52:39.620Z,,,,,,,,,,5899.792000000016,completion,,,,,,,high,low,,,,,,false,,,,false,732059.400000006,732058.5,726141.921,726143.3000000119,726158.708,732058.656,4,500,,
trial,html.Screen,10_1_0,2023-11-15T17:52:46.608Z,,,,1,-0.066631540328269,-0.005292120470259,,true,hl,6988.244000006001,response,0.9111352818043872,0.912679267911709,-0.865902034694322,-0.7517932332411794,0.7628233927675622,-0.9341919820447615,high,low,,ISIC_8041550.JPG,10,ISIC_3346045.JPG,36,false,hl,keypress(j),0,false,739047.200000003,739046.900000006,732042.012,732059.5,732058.656,739058.639,4,500,2,
break,html.Screen,10_1_1,2023-11-15T17:52:46.609Z,,,,,,,,,,NaN,,,,,,,,high,low,,,,,,false,,,,false,739048.200000003,739047.900000006,,739047.5,,739058.639,4,500,,
break_continue,html.Screen,10_1_2,2023-11-15T17:52:46.609Z,,,,,,,,,,NaN,,,,,,,,high,low,,,,,,false,,,,false,739048.900000006,739048.6000000089,,739048.400000006,,739058.639,4,500,,
sequence,flow.Sequence,10_1,2023-11-15T17:52:46.610Z,,,,,,,,,,6989.944000008982,completion,,,,,,,high,low,,,,,,false,,,,false,739049.200000003,739048.6000000089,732042.012,732059.5,732058.656,739058.639,4,500,,
trial,html.Screen,10_2_0,2023-11-15T17:52:51.495Z,,,,1,-0.0367744112927588,-0.0324865661712824,,true,lh,4874.961000008974,response,-0.6853913485096793,0.912679267911709,-0.865902034694322,0.5738206832459302,0.7628233927675622,-0.9341919820447615,low,high,,ISIC_4523565.JPG,8,ISIC_9354604.JPG,58,false,lh,keypress(e),0,false,743933.700000003,743933.6000000089,739041.721,739049.400000006,739058.639,743941.939,4,500,3,
break,html.Screen,10_2_1,2023-11-15T17:52:51.495Z,,,,,,,,,,NaN,,,,,,,,low,high,,,,,,false,,,,false,743934,743934,,743933.8000000119,,743941.939,4,500,,
break_continue,html.Screen,10_2_2,2023-11-15T17:52:51.495Z,,,,,,,,,,NaN,,,,,,,,low,high,,,,,,false,,,,false,743934.400000006,743934.200000003,,743934.1000000089,,743941.939,4,500,,
sequence,flow.Sequence,10_2,2023-11-15T17:52:51.495Z,,,,,,,,,,4875.561000003014,completion,,,,,,,low,high,,,,,,false,,,,false,743934.400000006,743934.200000003,739041.721,739049.3000000119,739058.639,743941.939,4,500,,
trial,html.Screen,10_3_0,2023-11-15T17:52:54.552Z,,,,1,0.0495531443078245,0.0310660434153916,,true,hl,3048.4610000059474,response,0.7714570894008278,0.912679267911709,-0.865902034694322,-0.9113656554657036,0.7628233927675622,-0.9341919820447615,high,low,,ISIC_0013719.JPG,10,ISIC_4529092.JPG,36,false,hl,keypress(j),0,false,746990.700000003,746990.400000006,743925.406,743934.5,743941.939,747009.174,4,500,4,
break,html.Screen,10_3_1,2023-11-15T17:52:54.553Z,,,,,,,,,,NaN,,,,,,,,high,low,,,,,,false,,,,false,746991.700000003,746991.400000006,,746991,,747009.174,4,500,,
break_continue,html.Screen,10_3_2,2023-11-15T17:52:54.553Z,,,,,,,,,,NaN,,,,,,,,high,low,,,,,,false,,,,false,746992.3000000119,746992,,746991.8000000119,,747009.174,4,500,,
sequence,flow.Sequence,10_3,2023-11-15T17:52:54.554Z,,,,,,,,,,3050.060999999987,completion,,,,,,,high,low,,,,,,false,,,,false,746992.5,746992,743925.406,743934.5,743941.939,747009.174,4,500,,
trial,html.Screen,10_4_0,2023-11-15T17:52:58.080Z,,,,1,-0.0572065166118795,0.0247840126545907,,true,ll,3509.9260000089416,response,-1.021981961304436,0.912679267911709,-0.865902034694322,-0.7957634739543782,0.7628233927675622,-0.9341919820447615,low,low,,ISIC_0024565.JPG,9,ISIC_0006327.JPG,164,false,ll,keypress(f),0,false,750519.3000000119,750519.1000000089,746975.161,746992.700000003,747009.174,750525.249,4,500,5,
break,html.Screen,10_4_1,2023-11-15T17:52:58.081Z,,,,,,,,,,NaN,,,,,,,,low,low,,,,,,false,,,,false,750520.3000000119,750520.1000000089,,750519.700000003,,750525.249,4,500,,
break_continue,html.Screen,10_4_2,2023-11-15T17:52:58.082Z,,,,,,,,,,NaN,,,,,,,,low,low,,,,,,false,,,,false,750521,750520.8000000119,,750520.5,,750525.249,4,500,,
sequence,flow.Sequence,10_4,2023-11-15T17:52:58.082Z,,,,,,,,,,3511.626000011922,completion,,,,,,,low,low,,,,,,false,,,,false,750521.400000006,750520.8000000119,746975.161,746992.700000003,747009.174,750525.249,4,500,,
trial,html.Screen,10_5_0,2023-11-15T17:53:03.199Z,,,,1,0.0388181790775959,-0.0049623405709465,,false,hh,5112.951000003028,response,0.7398963495705471,0.912679267911709,-0.865902034694322,0.7880820832288019,0.7628233927675622,-0.9341919820447615,high,high,,ISIC_0061880.JPG,9,ISIC_0011778.JPG,201,false,lh,keypress(e),0,false,755638.400000006,755638.200000003,750508.788,750521.6000000089,750525.249,755641.923,4,500,6,
break,html.Screen,10_5_1,2023-11-15T17:53:03.200Z,,,,,,,,,,NaN,,,,,,,,high,high,,,,,,false,,,,false,755638.6000000089,755638.6000000089,,755638.5,,755641.923,4,500,,
break_continue,html.Screen,10_5_2,2023-11-15T17:53:03.200Z,,,,,,,,,,NaN,,,,,,,,high,high,,,,,,false,,,,false,755638.900000006,755638.8000000119,,755638.700000003,,755641.923,4,500,,
sequence,flow.Sequence,10_5,2023-11-15T17:53:03.200Z,,,,,,,,,,5113.551000011968,completion,,,,,,,high,high,,,,,,false,,,,false,755639,755638.8000000119,750508.788,750521.5,750525.249,755641.923,4,500,,
trial,html.Screen,10_6_0,2023-11-15T17:53:07.024Z,,,,1,0.0495531443078245,0.0310660434153916,,true,hh,3821.0770000000484,response,0.7194072444457746,0.912679267911709,-0.865902034694322,0.8090139128440115,0.7628233927675622,-0.9341919820447615,high,high,,ISIC_0013719.JPG,9,ISIC_0057539.JPG,201,false,hh,keypress(i),0,false,759463.3000000119,759463,755625.413,755639,755641.923,759475.417,4,500,7,
break,html.Screen,10_6_1,2023-11-15T17:53:07.025Z,,,,,,,,,,NaN,,,,,,,,high,high,,,,,,false,,,,false,759464.3000000119,759464,,759463.6000000089,,759475.417,4,500,,
break_continue,html.Screen,10_6_2,2023-11-15T17:53:07.026Z,,,,,,,,,,NaN,,,,,,,,high,high,,,,,,false,,,,false,759464.900000006,759464.700000003,,759464.5,,759475.417,4,500,,
sequence,flow.Sequence,10_6,2023-11-15T17:53:07.026Z,,,,,,,,,,3822.7770000030287,completion,,,,,,,high,high,,,,,,false,,,,false,759465.200000003,759464.700000003,755625.413,755639,755641.923,759475.417,4,500,,
trial,html.Screen,10_7_0,2023-11-15T17:53:11.506Z,,,,1,0.0010920693448107,0.0492408806128631,,false,lh,4468.883000011905,response,-0.6716529851218747,0.912679267911709,-0.865902034694322,0.715850251191646,0.7628233927675622,-0.9341919820447615,low,high,,ISIC_6155981.JPG,9,ISIC_0032130.JPG,58,false,hl,keypress(j),0,false,763944.5,763944.3000000119,759458.743,759465.5,759475.417,763958.799,4,500,8,
break,html.Screen,10_7_1,2023-11-15T17:53:11.506Z,,,,,,,,,,NaN,,,,,,,,low,high,,,,,,false,,,,false,763945.400000006,763945.200000003,,763944.8000000119,,763958.799,4,500,,
break_continue,html.Screen,10_7_2,2023-11-15T17:53:11.507Z,,,,,,,,,,NaN,,,,,,,,low,high,,,,,,false,,,,false,763946.1000000089,763945.8000000119,,763945.6000000089,,763958.799,4,500,,
sequence,flow.Sequence,10_7,2023-11-15T17:53:11.507Z,,,,,,,,,,4470.383000011905,completion,,,,,,,low,high,,,,,,false,,,,false,763946.400000006,763945.8000000119,759458.743,759465.3000000119,759475.417,763958.799,4,500,,
trial,html.Screen,10_8_0,2023-11-15T17:53:16.952Z,,,,1,-0.0544036313884697,-0.0564516462775647,,true,ll,5431.801000008942,response,-0.7268043404851218,0.912679267911709,-0.865902034694322,-0.8184581417483975,0.7628233927675622,-0.9341919820447615,low,low,,ISIC_7441957.JPG,9,ISIC_0002118.JPG,164,false,ll,keypress(f),0,false,769390.700000003,769390.6000000089,763941.817,763946.5,763958.799,769408.56,4,500,9,
break,html.Screen,10_8_1,2023-11-15T17:53:16.952Z,,,,,,,,,,NaN,,,,,,,,low,low,,,,,,false,,,,false,769391,769390.900000006,,769390.8000000119,,769408.56,4,500,,
break_continue,html.Screen,10_8_2,2023-11-15T17:53:16.952Z,,,,,,,,,,NaN,,,,,,,,low,low,,,,,,false,,,,false,769391.1000000089,769391.1000000089,,769391,,769408.56,4,500,,
sequence,flow.Sequence,10_8,2023-11-15T17:53:16.952Z,,,,,,,,,,5432.301000008942,completion,,,,,,,low,low,,,,,,false,,,,false,769391.200000003,769391.1000000089,763941.817,763946.5,763958.799,769408.56,4,500,,
trial,html.Screen,10_9_0,2023-11-15T17:53:27.585Z,,,,1,0.0080817964357627,-0.0444435264307931,,false,hh,10615.640000002924,response,0.778047987566092,0.912679267911709,-0.865902034694322,0.9219271880931648,0.7628233927675622,-0.9341919820447615,high,high,,ISIC_0013165.JPG,10,ISIC_1499915.JPG,201,false,ll,keypress(f),0,false,780024.400000006,780024.200000003,769391.829,769391.3000000119,769408.56,780058.666,4,500,10,
break,html.Screen,10_9_1,2023-11-15T17:53:27.586Z,,,,,,,,,,NaN,,,,,,,,high,high,,,,,,false,,,,false,780025.400000006,780025.200000003,,780024.8000000119,,780058.666,4,500,,
break_continue,html.Screen,10_9_2,2023-11-15T17:53:27.587Z,,,,,,,,,,NaN,,,,,,,,high,high,,,,,,false,,,,false,780026.1000000089,780025.8000000119,,780025.6000000089,,780058.666,4,500,,
sequence,flow.Sequence,10_9,2023-11-15T17:53:27.587Z,,,,,,,,,,10617.240000011865,completion,,,,,,,high,high,,,,,,false,,,,false,780026.400000006,780025.8000000119,769391.829,769391.3000000119,769408.56,780058.666,4,500,,
trial,html.Screen,10_10_0,2023-11-15T17:53:32.720Z,,,,1,0.0273855825278348,-0.0566295048930719,,true,ll,5100.334000000032,response,-1.000073518730644,0.912679267911709,-0.865902034694322,-0.7557291255005921,0.7628233927675622,-0.9341919820447615,low,low,,ISIC_0000141.JPG,9,ISIC_0028462.JPG,164,false,ll,keypress(f),0,false,785159.3000000119,785159,780042.099,780026.6000000089,780058.666,785175.415,4,500,11,
break,html.Screen,10_10_1,2023-11-15T17:53:32.721Z,,,,,,,,,,NaN,,,,,,,,low,low,,,,,,false,,,,false,785160.3000000119,785160.1000000089,,785159.700000003,,785175.415,4,500,,
break_continue,html.Screen,10_10_2,2023-11-15T17:53:32.722Z,,,,,,,,,,NaN,,,,,,,,low,low,,,,,,false,,,,false,785161,785160.700000003,,785160.5,,785175.415,4,500,,
sequence,flow.Sequence,10_10,2023-11-15T17:53:32.722Z,,,,,,,,,,5102.034000003012,completion,,,,,,,low,low,,,,,,false,,,,false,785161.3000000119,785160.700000003,780042.099,780026.5,780058.666,785175.415,4,500,,
trial,html.Screen,10_11_0,2023-11-15T17:53:38.568Z,,,,1,-0.0444523556175667,-0.066384682611553,,true,lh,5831.685000008903,response,-1.0160925610470608,0.912679267911709,-0.865902034694322,0.5707094956389498,0.7628233927675622,-0.9341919820447615,low,high,,ISIC_0029409.JPG,9,ISIC_8120622.JPG,58,false,lh,keypress(e),0,false,791007.3000000119,791007.1000000089,785158.468,785161.5,785175.415,791025.728,4,500,12,
break,html.Screen,10_11_1,2023-11-15T17:53:38.569Z,,,,,,,,,,NaN,,,,,,,,low,high,,,,,,false,,,,false,791008.200000003,791008,,791007.700000003,,791025.728,4,500,,
break_continue,html.Screen,10_11_2,2023-11-15T17:53:38.570Z,,,,,,,,,,NaN,,,,,,,,low,high,,,,,,false,,,,false,791008.900000006,791008.5,,791008.400000006,,791025.728,4,500,,
sequence,flow.Sequence,10_11,2023-11-15T17:53:38.570Z,,,,,,,,,,5833.084999999963,completion,,,,,,,low,high,,,,,,false,,,,false,791009,791008.5,785158.468,785161.400000006,785175.415,791025.728,4,500,,
trial,html.Screen,10_12_0,2023-11-15T17:53:48.345Z,,,,1,-0.0544036313884697,-0.0564516462775647,,true,ll,9757.472000002977,response,-0.9402130139680346,0.912679267911709,-0.865902034694322,-0.7812904751512695,0.7628233927675622,-0.9341919820447615,low,low,,ISIC_7441957.JPG,9,ISIC_8956001.JPG,164,false,ll,keypress(f),0,false,800783.5,800783.200000003,790992.048,791009.200000003,791025.728,800791.775,4,500,13,
break,html.Screen,10_12_1,2023-11-15T17:53:48.345Z,,,,,,,,,,NaN,,,,,,,,low,low,,,,,,false,,,,false,800784.5,800784.3000000119,,800783.8000000119,,800791.775,4,500,,
break_continue,html.Screen,10_12_2,2023-11-15T17:53:48.346Z,,,,,,,,,,NaN,,,,,,,,low,low,,,,,,false,,,,false,800785.200000003,800784.900000006,,800784.700000003,,800791.775,4,500,,
sequence,flow.Sequence,10_12,2023-11-15T17:53:48.346Z,,,,,,,,,,9759.172000005958,completion,,,,,,,low,low,,,,,,false,,,,false,800785.400000006,800784.900000006,790992.048,791009.200000003,791025.728,800791.775,4,500,,
trial,html.Screen,10_13_0,2023-11-15T17:53:54.609Z,,,,1,-0.0044063257337227,-0.0172548282859886,,false,hh,6255.625000005937,response,0.8170619657474234,0.912679267911709,-0.865902034694322,0.6850201694449414,0.7628233927675622,-0.9341919820447615,high,high,,ISIC_7413786.JPG,10,ISIC_0054422.JPG,201,false,ll,keypress(f),0,false,807047.700000003,807047.400000006,800775.047,800785.6000000089,800791.775,807058.505,4,500,14,
break,html.Screen,10_13_1,2023-11-15T17:53:54.610Z,,,,,,,,,,NaN,,,,,,,,high,high,,,,,,false,,,,false,807048.6000000089,807048.400000006,,807048,,807058.505,4,500,,
break_continue,html.Screen,10_13_2,2023-11-15T17:53:54.611Z,,,,,,,,,,NaN,,,,,,,,high,high,,,,,,false,,,,false,807049.400000006,807049,,807048.8000000119,,807058.505,4,500,,
sequence,flow.Sequence,10_13,2023-11-15T17:53:54.611Z,,,,,,,,,,6257.224999999977,completion,,,,,,,high,high,,,,,,false,,,,false,807049.6000000089,807049,800775.047,800785.6000000089,800791.775,807058.505,4,500,,
trial,html.Screen,10_14_0,2023-11-15T17:54:01.361Z,,,,1,0.0146597765042814,0.06222227493177,,true,ll,6741.195000002976,response,-0.9832288967264424,0.912679267911709,-0.865902034694322,-1.0898586098590013,0.7628233927675622,-0.9341919820447615,low,low,,ISIC_5982769.JPG,9,ISIC_2724529.JPG,164,false,ll,keypress(f),0,false,813799.8000000119,813799.700000003,807041.846,807049.8000000119,807058.505,813808.389,4,500,15,
break,html.Screen,10_14_1,2023-11-15T17:54:01.362Z,,,,,,,,,,NaN,,,,,,,,low,low,,,,,,false,,,,false,813800.8000000119,813800.6000000089,,813800.200000003,,813808.389,4,500,,
break_continue,html.Screen,10_14_2,2023-11-15T17:54:01.363Z,,,,,,,,,,NaN,,,,,,,,low,low,,,,,,false,,,,false,813801.5,813801.200000003,,813800.900000006,,813808.389,4,500,,
sequence,flow.Sequence,10_14,2023-11-15T17:54:01.363Z,,,,,,,,,,6742.695000002976,completion,,,,,,,low,low,,,,,,false,,,,false,813801.700000003,813801.200000003,807041.846,807049.8000000119,807058.505,813808.389,4,500,,
trial,html.Screen,10_15_0,2023-11-15T17:54:06.695Z,,,,1,0.0109416414475118,0.005246498750811,,false,lh,5325.311000003014,response,-0.7246771568562105,0.912679267911709,-0.865902034694322,0.9161385080362604,0.7628233927675622,-0.9341919820447615,low,high,,ISIC_0064279.JPG,9,ISIC_0028225.JPG,58,false,ll,keypress(f),0,false,819133.900000006,819133.700000003,813791.846,813801.900000006,813808.389,819141.699,4,500,16,
break,html.Screen,10_15_1,2023-11-15T17:54:06.696Z,,,,,,,,,,NaN,,,,,,,,low,high,,,,,,false,,,,false,819134.3000000119,819134.200000003,,819134,,819141.699,4,500,,
break_continue,html.Screen,10_15_2,2023-11-15T17:54:06.696Z,,,,,,,,,,NaN,,,,,,,,low,high,,,,,,false,,,,false,819134.5,819134.400000006,,819134.400000006,,819141.699,4,500,,
sequence,flow.Sequence,10_15,2023-11-15T17:54:06.696Z,,,,,,,,,,5326.011000005994,completion,,,,,,,low,high,,,,,,false,,,,false,819134.6000000089,819134.400000006,813791.846,813801.8000000119,813808.389,819141.699,4,500,,
trial,html.Screen,10_16_0,2023-11-15T17:54:11.800Z,,,,1,-0.0700576547090477,0.0026956749740767,,true,lh,5097.101000011899,response,-0.9601922181563564,0.912679267911709,-0.865902034694322,0.5629017109001282,0.7628233927675622,-0.9341919820447615,low,high,,ISIC_7212271.JPG,9,ISIC_3623368.JPG,58,false,lh,keypress(e),0,false,824238.900000006,824238.8000000119,819125.278,819134.700000003,819141.699,824241.71,4,500,17,
break,html.Screen,10_16_1,2023-11-15T17:54:11.801Z,,,,,,,,,,NaN,,,,,,,,low,high,,,,,,false,,,,false,824239.200000003,824239.1000000089,,824239,,824241.71,4,500,,
break_continue,html.Screen,10_16_2,2023-11-15T17:54:11.801Z,,,,,,,,,,NaN,,,,,,,,low,high,,,,,,false,,,,false,824239.400000006,824239.3000000119,,824239.200000003,,824241.71,4,500,,
sequence,flow.Sequence,10_16,2023-11-15T17:54:11.801Z,,,,,,,,,,5097.601000011899,completion,,,,,,,low,high,,,,,,false,,,,false,824239.5,824239.3000000119,819125.278,819134.6000000089,819141.699,824241.71,4,500,,
trial,html.Screen,10_17_0,2023-11-15T17:54:15.209Z,,,,1,-0.0718464495991687,0.0429653518314044,,true,hh,3405.590000011958,response,1.0924307772114292,0.912679267911709,-0.865902034694322,0.725341168321984,0.7628233927675622,-0.9341919820447615,high,high,,ISIC_0028597.JPG,8,ISIC_0024929.JPG,201,false,hh,keypress(i),0,false,827647.6000000089,827647.3000000119,824225.3,824239.6000000089,824241.71,827658.524,4,500,18,
break,html.Screen,10_17_1,2023-11-15T17:54:15.210Z,,,,,,,,,,NaN,,,,,,,,high,high,,,,,,false,,,,false,827648.5,827648.3000000119,,827647.900000006,,827658.524,4,500,,
break_continue,html.Screen,10_17_2,2023-11-15T17:54:15.211Z,,,,,,,,,,NaN,,,,,,,,high,high,,,,,,false,,,,false,827649.3000000119,827649,,827648.8000000119,,827658.524,4,500,,
sequence,flow.Sequence,10_17,2023-11-15T17:54:15.211Z,,,,,,,,,,3407.2900000000373,completion,,,,,,,high,high,,,,,,false,,,,false,827649.6000000089,827649,824225.3,824239.5,824241.71,827658.524,4,500,,
trial,html.Screen,10_18_0,2023-11-15T17:54:20.441Z,,,,1,-0.0501343550751953,-0.0101991443736165,,false,lh,5220.376000005985,response,-0.7308116448711435,0.912679267911709,-0.865902034694322,0.908713834988551,0.7628233927675622,-0.9341919820447615,low,high,,ISIC_4232761.JPG,9,ISIC_7811951.JPG,58,false,hh,keypress(i),0,false,832879.3000000119,832878.900000006,827641.886,827649.700000003,827658.524,832891.693,4,500,19,
break,html.Screen,10_18_1,2023-11-15T17:54:20.442Z,,,,,,,,,,NaN,,,,,,,,low,high,,,,,,false,,,,false,832880.200000003,832879.900000006,,832879.6000000089,,832891.693,4,500,,
break_continue,html.Screen,10_18_2,2023-11-15T17:54:20.442Z,,,,,,,,,,NaN,,,,,,,,low,high,,,,,,false,,,,false,832881,832880.700000003,,832880.5,,832891.693,4,500,,
sequence,flow.Sequence,10_18,2023-11-15T17:54:20.443Z,,,,,,,,,,5222.176000003004,completion,,,,,,,low,high,,,,,,false,,,,false,832881.400000006,832880.700000003,827641.886,827649.6000000089,827658.524,832891.693,4,500,,
trial,html.Screen,10_19_0,2023-11-15T17:54:24.649Z,,,,1,0.039520186367207,0.0377961575607372,,true,ll,4195.107000011951,response,-0.8692576729104817,0.912679267911709,-0.865902034694322,-0.7554562761747954,0.7628233927675622,-0.9341919820447615,low,low,,ISIC_6356149.JPG,10,ISIC_6963954.JPG,164,false,ll,keypress(f),0,false,837087.1000000089,837086.8000000119,832875.022,832881.5,832891.693,837091.675,4,500,20,
break,html.Screen,10_19_1,2023-11-15T17:54:24.649Z,,,,,,,,,,NaN,,,,,,,,low,low,,,,,,false,,,,false,837088,837087.8000000119,,837087.400000006,,837091.675,4,500,,
break_continue,html.Screen,10_19_2,2023-11-15T17:54:24.650Z,,,,,,,,,,NaN,,,,,,,,low,low,,,,,,false,,,,false,837088.700000003,837088.400000006,,837088.200000003,,837091.675,4,500,,
sequence,flow.Sequence,10_19,2023-11-15T17:54:24.650Z,,,,,,,,,,4196.70700000599,completion,,,,,,,low,low,,,,,,false,,,,false,837088.900000006,837088.400000006,832875.022,832881.400000006,832891.693,837091.675,4,500,,
trial,html.Screen,10_20_0,2023-11-15T17:54:29.752Z,,,,1,0.055893254685579,0.0187125006410995,,false,lh,5099.125000011874,response,-0.8513427412482127,0.912679267911709,-0.865902034694322,0.9295303568095064,0.7628233927675622,-0.9341919820447615,low,high,,ISIC_0011779.JPG,9,ISIC_0034164.JPG,58,false,hh,keypress(i),0,false,842191,842190.8000000119,837075.121,837089.200000003,837091.675,842208.557,4,500,21,
break,html.Screen,10_20_1,2023-11-15T17:54:29.753Z,,,,,,,,,,NaN,,,,,,,,low,high,,,,,,false,,,,false,842191.900000006,842191.700000003,,842191.400000006,,842208.557,4,500,,
break_continue,html.Screen,10_20_2,2023-11-15T17:54:29.754Z,,,,,,,,,,NaN,,,,,,,,low,high,,,,,,false,,,,false,842192.700000003,842192.400000006,,842192.200000003,,842208.557,4,500,,
sequence,flow.Sequence,10_20,2023-11-15T17:54:29.754Z,,,,,,,,,,5100.725000005914,completion,,,,,,,low,high,,,,,,false,,,,false,842192.900000006,842192.400000006,837075.121,837089.1000000089,837091.675,842208.557,4,500,,
trial,html.Screen,10_21_0,2023-11-15T17:54:35.719Z,,,,1,-0.0118382036798625,-0.0300588245877227,,false,lh,5948.94299999997,response,-0.8342176954056706,0.912679267911709,-0.865902034694322,0.5940741310697161,0.7628233927675622,-0.9341919820447615,low,high,,ISIC_4748605.JPG,9,ISIC_0030089.JPG,58,false,ll,keypress(f),0,false,848157.6000000089,848157.5,842191.779,842193.1000000089,842208.557,848175.547,4,500,22,
break,html.Screen,10_21_1,2023-11-15T17:54:35.719Z,,,,,,,,,,NaN,,,,,,,,low,high,,,,,,false,,,,false,848157.900000006,848157.900000006,,848157.700000003,,848175.547,4,500,,
break_continue,html.Screen,10_21_2,2023-11-15T17:54:35.720Z,,,,,,,,,,NaN,,,,,,,,low,high,,,,,,false,,,,false,848158.200000003,848158.1000000089,,848157.900000006,,848175.547,4,500,,
sequence,flow.Sequence,10_21,2023-11-15T17:54:35.720Z,,,,,,,,,,5949.543000008911,completion,,,,,,,low,high,,,,,,false,,,,false,848158.200000003,848158.1000000089,842191.779,842193,842208.557,848175.547,4,500,,
trial,html.Screen,10_22_0,2023-11-15T17:54:39.807Z,,,,1,,0.0102871556606504,,false,hl,4070.2530000119004,response,0.8867328775712738,0.912679267911709,-0.865902034694322,-1.0063426986460375,0.7628233927675622,-0.9341919820447615,high,low,,ISIC_1805163.JPG,9,ISIC_0055759.JPG,36,false,hh,keypress(i),0,false,852245.900000006,852245.8000000119,848141.788,848158.3000000119,848175.547,852258.463,4,500,23,
break,html.Screen,10_22_1,2023-11-15T17:54:39.808Z,,,,,,,,,,NaN,,,,,,,,high,low,,,,,,false,,,,false,852246.200000003,852246.1000000089,,852246,,852258.463,4,500,,
break_continue,html.Screen,10_22_2,2023-11-15T17:54:39.808Z,,,,,,,,,,NaN,,,,,,,,high,low,,,,,,false,,,,false,852246.3000000119,852246.3000000119,,852246.3000000119,,852258.463,4,500,,
sequence,flow.Sequence,10_22,2023-11-15T17:54:39.808Z,,,,,,,,,,4070.7530000119004,completion,,,,,,,high,low,,,,,,false,,,,false,852246.5,852246.3000000119,848141.788,848158.3000000119,848175.547,852258.463,4,500,,
trial,html.Screen,10_23_0,2023-11-15T17:54:43.608Z,,,,1,-0.0367744112927588,-0.0324865661712824,,false,hl,3788.037000000011,response,0.9633172970727744,0.912679267911709,-0.865902034694322,-0.8472659344792351,0.7628233927675622,-0.9341919820447615,high,low,,ISIC_4523565.JPG,9,ISIC_0067172.JPG,36,false,hh,keypress(i),0,false,856046.6000000089,856046.5,852241.666,852246.5,852258.463,856058.515,4,500,24,
break,html.Screen,10_23_1,2023-11-15T17:54:43.608Z,,,,,,,,,,NaN,,,,,,,,high,low,,,,,,false,,,,false,856046.8000000119,856046.8000000119,,856046.700000003,,856058.515,4,500,,
break_continue,html.Screen,10_23_2,2023-11-15T17:54:43.609Z,,,,,,,,,,NaN,,,,,,,,high,low,,,,,,false,,,,false,856047.1000000089,856047,,856046.900000006,,856058.515,4,500,,
sequence,flow.Sequence,10_23,2023-11-15T17:54:43.609Z,,,,,,,,,,3788.537000000011,completion,,,,,,,high,low,,,,,,false,,,,false,856047.1000000089,856047,852241.666,852246.5,852258.463,856058.515,4,500,,
trial,html.Screen,10_24_0,2023-11-15T17:54:48.689Z,,,,1,0.0528688218207886,-0.0356788458032396,,true,lh,5068.3850000059465,response,-0.7232145857354367,0.912679267911709,-0.865902034694322,0.5985357540465311,0.7628233927675622,-0.9341919820447615,low,high,,ISIC_5287748.JPG,9,ISIC_6531118.JPG,58,false,lh,keypress(e),0,false,861127.1000000089,861126.900000006,856041.509,856047.200000003,856058.515,861141.683,4,500,25,
break,html.Screen,10_24_1,2023-11-15T17:54:48.689Z,,,,,,,,,,NaN,,,,,,,,low,high,,,,,,false,,,,false,861128.1000000089,861127.900000006,,861127.5,,861141.683,4,500,,
break_continue,html.Screen,10_24_2,2023-11-15T17:54:48.690Z,,,,,,,,,,NaN,,,,,,,,low,high,,,,,,false,,,,false,861128.700000003,861128.400000006,,861128.200000003,,861141.683,4,500,,
sequence,flow.Sequence,10_24,2023-11-15T17:54:48.690Z,,,,,,,,,,5069.8850000059465,completion,,,,,,,low,high,,,,,,false,,,,false,861128.900000006,861128.400000006,856041.509,856047.200000003,856058.515,861141.683,4,500,,
trial,html.Screen,10_25_0,2023-11-15T17:54:59.688Z,,,,1,0.0198696495649504,-0.0387952353063878,,,,11016.70000000007,timeout,0.8443403196524287,0.912679267911709,-0.865902034694322,-0.8858525429102605,0.7628233927675622,-0.9341919820447615,high,low,,ISIC_6735970.JPG,9,ISIC_8777813.JPG,36,false,,,0,false,872126.1000000089,872125.700000003,861125.011,861129.1000000089,861141.683,872158.383,4,500,26,
break,html.Screen,10_25_1,2023-11-15T17:54:59.689Z,,,,,,,,,,NaN,,,,,,,,high,low,,,,,,false,,,,false,872127,872126.700000003,,872126.3000000119,,872158.383,4,500,,
break_continue,html.Screen,10_25_2,2023-11-15T17:54:59.690Z,,,,,,,,,,NaN,,,,,,,,high,low,,,,,,false,,,,false,872127.8000000119,872127.400000006,,872127.1000000089,,872158.383,4,500,,
sequence,flow.Sequence,10_25,2023-11-15T17:54:59.690Z,,,,,,,,,,10985.717000006,completion,,,,,,,high,low,,,,,,false,,,,false,872128,872127.400000006,861125.011,861129,861141.683,872158.383,4,500,,
trial,html.Screen,10_26_0,2023-11-15T17:55:08.737Z,,,,1,-0.0544036313884697,-0.0564516462775647,,false,hh,9016.31700000295,response,0.9098472152998628,0.912679267911709,-0.865902034694322,0.6151944870640241,0.7628233927675622,-0.9341919820447615,high,high,,ISIC_7441957.JPG,8,ISIC_0026266.JPG,201,false,hl,keypress(j),0,false,881175.1000000089,881174.700000003,872141.827,872128.200000003,872158.383,881191.636,4,500,27,
break,html.Screen,10_26_1,2023-11-15T17:55:08.738Z,,,,,,,,,,NaN,,,,,,,,high,high,,,,,,false,,,,false,881176,881175.700000003,,881175.3000000119,,881191.636,4,500,,
break_continue,html.Screen,10_26_2,2023-11-15T17:55:08.739Z,,,,,,,,,,NaN,,,,,,,,high,high,,,,,,false,,,,false,881176.700000003,881176.400000006,,881176.200000003,,881191.636,4,500,,
sequence,flow.Sequence,10_26,2023-11-15T17:55:08.739Z,,,,,,,,,,9018.01700000593,completion,,,,,,,high,high,,,,,,false,,,,false,881177,881176.400000006,872141.827,872128.1000000089,872158.383,881191.636,4,500,,
trial,html.Screen,10_27_0,2023-11-15T17:55:14.072Z,,,,1,-0.0606387586319451,-0.0283716809868572,,false,hl,5317.964000008884,response,0.7236002097394486,0.912679267911709,-0.865902034694322,-0.7895205994309619,0.7628233927675622,-0.9341919820447615,high,low,,ISIC_0061158.JPG,9,ISIC_0413563.JPG,36,false,hh,keypress(i),0,false,886509.700000003,886509.6000000089,881174.841,881177.1000000089,881191.636,886524.971,4,500,28,
break,html.Screen,10_27_1,2023-11-15T17:55:14.072Z,,,,,,,,,,NaN,,,,,,,,high,low,,,,,,false,,,,false,886510,886509.900000006,,886509.700000003,,886524.971,4,500,,
break_continue,html.Screen,10_27_2,2023-11-15T17:55:14.072Z,,,,,,,,,,NaN,,,,,,,,high,low,,,,,,false,,,,false,886510.1000000089,886510.1000000089,,886510,,886524.971,4,500,,
sequence,flow.Sequence,10_27,2023-11-15T17:55:14.072Z,,,,,,,,,,5318.464000008884,completion,,,,,,,high,low,,,,,,false,,,,false,886510.200000003,886510.1000000089,881174.841,881177,881191.636,886524.971,4,500,,
trial,html.Screen,10_28_0,2023-11-15T17:55:16.698Z,,,,1,-0.0044063257337227,-0.0172548282859886,,false,lh,2610.8290000119014,response,-0.6949850178600343,0.912679267911709,-0.865902034694322,0.7575200627443553,0.7628233927675622,-0.9341919820447615,low,high,,ISIC_7413786.JPG,8,ISIC_0025812.JPG,58,false,hl,keypress(j),0,false,889136,889135.8000000119,886508.309,886510.200000003,886524.971,889141.541,4,500,29,
break,html.Screen,10_28_1,2023-11-15T17:55:16.699Z,,,,,,,,,,NaN,,,,,,,,low,high,,,,,,false,,,,false,889136.900000006,889136.700000003,,889136.3000000119,,889141.541,4,500,,
break_continue,html.Screen,10_28_2,2023-11-15T17:55:16.700Z,,,,,,,,,,NaN,,,,,,,,low,high,,,,,,false,,,,false,889137.5,889137.3000000119,,889137,,889141.541,4,500,,
sequence,flow.Sequence,10_28,2023-11-15T17:55:16.700Z,,,,,,,,,,2612.3290000119014,completion,,,,,,,low,high,,,,,,false,,,,false,889137.700000003,889137.3000000119,886508.309,886510.200000003,886524.971,889141.541,4,500,,
trial,html.Screen,10_29_0,2023-11-15T17:55:19.985Z,,,,1,0.0527477970410472,0.0575970798158164,,true,hh,3281.4590000000317,response,0.7262185370068359,0.912679267911709,-0.865902034694322,0.9153969930664472,0.7628233927675622,-0.9341919820447615,high,high,,ISIC_0667763.JPG,8,ISIC_0063369.JPG,201,false,hh,keypress(i),0,false,892423.3000000119,892423,889124.987,889137.900000006,889141.541,892443.016,4,500,30,
break,html.Screen,10_29_1,2023-11-15T17:55:19.986Z,,,,,,,,,,NaN,,,,,,,,high,high,,,,,,false,,,,false,892424.200000003,892423.900000006,,892423.6000000089,,892443.016,4,500,,
break_continue,html.Screen,10_29_2,2023-11-15T17:55:19.987Z,,,,,,,,,,NaN,,,,,,,,high,high,,,,,,false,,,,false,892424.8000000119,892424.5,,892424.400000006,,892443.016,4,500,,
sequence,flow.Sequence,10_29,2023-11-15T17:55:19.987Z,,,,,,,,,,3282.9590000000317,completion,,,,,,,high,high,,,,,,false,,,,false,892425.1000000089,892424.5,889124.987,889137.900000006,889141.541,892443.016,4,500,,
trial,html.Screen,10_30_0,2023-11-15T17:55:22.521Z,,,,1,0.049790040126711,-0.0195291725171472,,true,ll,2515.784000011976,response,-0.8639662056285013,0.912679267911709,-0.865902034694322,-0.9092203211946492,0.7628233927675622,-0.9341919820447615,low,low,,ISIC_0372902.JPG,8,ISIC_2634356.JPG,164,false,ll,keypress(f),0,false,894959,894958.8000000119,892408.276,892425.200000003,892443.016,894975.131,4,500,31,
break,html.Screen,10_30_1,2023-11-15T17:55:22.522Z,,,,,,,,,,NaN,,,,,,,,low,low,,,,,,false,,,,false,894960,894959.8000000119,,894959.400000006,,894975.131,4,500,,
break_continue,html.Screen,10_30_2,2023-11-15T17:55:22.523Z,,,,,,,,,,NaN,,,,,,,,low,low,,,,,,false,,,,false,894960.8000000119,894960.400000006,,894960.200000003,,894975.131,4,500,,
sequence,flow.Sequence,10_30,2023-11-15T17:55:22.523Z,,,,,,,,,,2517.3840000060154,completion,,,,,,,low,low,,,,,,false,,,,false,894961,894960.400000006,892408.276,892425.200000003,892443.016,894975.131,4,500,,
trial,html.Screen,10_31_0,2023-11-15T17:55:24.585Z,,,,1,0.0448994009031783,-0.0708723658092544,,true,ll,2047.7690000059083,response,-0.7109511223219827,0.912679267911709,-0.865902034694322,-0.9096646508167132,0.7628233927675622,-0.9341919820447615,low,low,,ISIC_0025238.JPG,10,ISIC_3770380.JPG,164,false,ll,keypress(f),0,false,897023.200000003,897022.900000006,894958.418,894961.200000003,894975.131,897042.104,4,500,32,
break,html.Screen,10_31_1,2023-11-15T17:55:24.586Z,,,,,,,,,,NaN,,,,,,,,low,low,,,,,,false,,,,false,897024.1000000089,897023.900000006,,897023.5,,897042.104,4,500,,
break_continue,html.Screen,10_31_2,2023-11-15T17:55:24.587Z,,,,,,,,,,NaN,,,,,,,,low,low,,,,,,false,,,,false,897024.700000003,897024.400000006,,897024.3000000119,,897042.104,4,500,,
sequence,flow.Sequence,10_31,2023-11-15T17:55:24.587Z,,,,,,,,,,2049.2690000059083,completion,,,,,,,low,low,,,,,,false,,,,false,897025,897024.400000006,894958.418,894961.1000000089,894975.131,897042.104,4,500,,
trial,html.Screen,10_32_0,2023-11-15T17:55:29.577Z,,,,1,-0.0727065082131878,-0.0601627969482033,,false,lh,4972.79600000591,response,-0.7088606387153258,0.912679267911709,-0.865902034694322,0.948610930521224,0.7628233927675622,-0.9341919820447615,low,high,,ISIC_2245069.JPG,9,ISIC_0026293.JPG,58,false,ll,keypress(f),0,false,902015.1000000089,902014.900000006,897008.159,897025.1000000089,897042.104,902024.861,4,500,33,
break,html.Screen,10_32_1,2023-11-15T17:55:29.578Z,,,,,,,,,,NaN,,,,,,,,low,high,,,,,,false,,,,false,902016.1000000089,902015.8000000119,,902015.5,,902024.861,4,500,,
break_continue,html.Screen,10_32_2,2023-11-15T17:55:29.579Z,,,,,,,,,,NaN,,,,,,,,low,high,,,,,,false,,,,false,902016.8000000119,902016.5,,902016.200000003,,902024.861,4,500,,
sequence,flow.Sequence,10_32,2023-11-15T17:55:29.579Z,,,,,,,,,,4974.39599999995,completion,,,,,,,low,high,,,,,,false,,,,false,902017,902016.5,897008.159,897025.1000000089,897042.104,902024.861,4,500,,
trial,html.Screen,10_33_0,2023-11-15T17:55:32.849Z,,,,1,-0.0286056110007553,-0.036125199756515,,true,lh,3261.9390000118874,response,-0.7014395589246024,0.912679267911709,-0.865902034694322,0.606334597519943,0.7628233927675622,-0.9341919820447615,low,high,,ISIC_6535558.JPG,9,ISIC_0033336.JPG,58,false,lh,keypress(e),0,false,905287.1000000089,905286.8000000119,902008.25,902017.1000000089,902024.861,905291.495,4,500,34,
break,html.Screen,10_33_1,2023-11-15T17:55:32.850Z,,,,,,,,,,NaN,,,,,,,,low,high,,,,,,false,,,,false,905288.1000000089,905287.8000000119,,905287.400000006,,905291.495,4,500,,
break_continue,html.Screen,10_33_2,2023-11-15T17:55:32.851Z,,,,,,,,,,NaN,,,,,,,,low,high,,,,,,false,,,,false,905288.700000003,905288.400000006,,905288.200000003,,905291.495,4,500,,
sequence,flow.Sequence,10_33,2023-11-15T17:55:32.851Z,,,,,,,,,,3263.539000005927,completion,,,,,,,low,high,,,,,,false,,,,false,905288.900000006,905288.400000006,902008.25,902017.1000000089,902024.861,905291.495,4,500,,
trial,html.Screen,10_34_0,2023-11-15T17:55:41.585Z,,,,1,0.039520186367207,0.0377961575607372,,false,lh,8731.305000011926,response,-0.7352144915723353,0.912679267911709,-0.865902034694322,0.5840473725440205,0.7628233927675622,-0.9341919820447615,low,high,,ISIC_6356149.JPG,9,ISIC_0027076.JPG,58,false,ll,keypress(f),0,false,914023.1000000089,914022.8000000119,905275.091,905289.1000000089,905291.495,914042.075,4,500,35,
break,html.Screen,10_34_1,2023-11-15T17:55:41.586Z,,,,,,,,,,NaN,,,,,,,,low,high,,,,,,false,,,,false,914024,914023.8000000119,,914023.400000006,,914042.075,4,500,,
break_continue,html.Screen,10_34_2,2023-11-15T17:55:41.587Z,,,,,,,,,,NaN,,,,,,,,low,high,,,,,,false,,,,false,914024.6000000089,914024.3000000119,,914024.1000000089,,914042.075,4,500,,
sequence,flow.Sequence,10_34,2023-11-15T17:55:41.587Z,,,,,,,,,,8732.805000011926,completion,,,,,,,low,high,,,,,,false,,,,false,914024.8000000119,914024.3000000119,905275.091,905289,905291.495,914042.075,4,500,,
trial,html.Screen,10_35_0,2023-11-15T17:55:50.033Z,,,,1,-0.0105349256029223,0.0723574625425557,,false,lh,8428.625000003027,response,-0.937244118871122,0.912679267911709,-0.865902034694322,0.6016155161011499,0.7628233927675622,-0.9341919820447615,low,high,,ISIC_0058998.JPG,9,ISIC_0031611.JPG,58,false,ll,keypress(f),0,false,922471,922470.700000003,914008.332,914025,914042.075,922474.835,4,500,36,
break,html.Screen,10_35_1,2023-11-15T17:55:50.034Z,,,,,,,,,,NaN,,,,,,,,low,high,,,,,,false,,,,false,922471.900000006,922471.700000003,,922471.3000000119,,922474.835,4,500,,
break_continue,html.Screen,10_35_2,2023-11-15T17:55:50.035Z,,,,,,,,,,NaN,,,,,,,,low,high,,,,,,false,,,,false,922472.5,922472.200000003,,922472,,922474.835,4,500,,
sequence,flow.Sequence,10_35,2023-11-15T17:55:50.035Z,,,,,,,,,,8430.125000003027,completion,,,,,,,low,high,,,,,,false,,,,false,922472.8000000119,922472.200000003,914008.332,914025,914042.075,922474.835,4,500,,
trial,html.Screen,10_36_0,2023-11-15T17:55:55.482Z,,,,1,0.0577614292269216,0.035892232596533,,false,hh,5443.965000011958,response,0.7951271207785265,0.912679267911709,-0.865902034694322,0.7447019313943737,0.7628233927675622,-0.9341919820447615,high,high,,ISIC_8363485.JPG,9,ISIC_8325260.JPG,201,false,hl,keypress(j),0,false,927919.1000000089,927918.8000000119,922458.034,922472.900000006,922474.835,927924.751,4,500,37,
break,html.Screen,10_36_1,2023-11-15T17:55:55.483Z,,,,,,,,,,NaN,,,,,,,,high,high,,,,,,false,,,,false,927920.1000000089,927919.900000006,,927919.5,,927924.751,4,500,,
break_continue,html.Screen,10_36_2,2023-11-15T17:55:55.483Z,,,,,,,,,,NaN,,,,,,,,high,high,,,,,,false,,,,false,927920.700000003,927920.5,,927920.3000000119,,927924.751,4,500,,
sequence,flow.Sequence,10_36,2023-11-15T17:55:55.483Z,,,,,,,,,,5445.665000000037,completion,,,,,,,high,high,,,,,,false,,,,false,927921,927920.5,922458.034,922472.900000006,922474.835,927924.751,4,500,,
trial,html.Screen,10_37_0,2023-11-15T17:55:58.288Z,,,,1,0.0223011224608011,-0.0466190802905965,,false,ll,2800.7489999999525,response,-0.8428710898223032,0.912679267911709,-0.865902034694322,-0.7657532100141601,0.7628233927675622,-0.9341919820447615,low,low,,ISIC_0028041.JPG,9,ISIC_7141361.JPG,164,false,hl,keypress(j),0,false,930725.6000000089,930725.5,927908.204,927921.200000003,927924.751,930741.609,4,500,38,
break,html.Screen,10_37_1,2023-11-15T17:55:58.288Z,,,,,,,,,,NaN,,,,,,,,low,low,,,,,,false,,,,false,930725.900000006,930725.900000006,,930725.8000000119,,930741.609,4,500,,
break_continue,html.Screen,10_37_2,2023-11-15T17:55:58.289Z,,,,,,,,,,NaN,,,,,,,,low,low,,,,,,false,,,,false,930726.1000000089,930726,,930725.900000006,,930741.609,4,500,,
sequence,flow.Sequence,10_37,2023-11-15T17:55:58.289Z,,,,,,,,,,2801.2489999999525,completion,,,,,,,low,low,,,,,,false,,,,false,930726.200000003,930726,927908.204,927921.1000000089,927924.751,930741.609,4,500,,
