sender,sender_type,sender_id,timestamp,meta,,age,blockNo,c1,c2,condition,correct,correctResponse,duration,ended_on,f1,f1_high,f1_low,f2,f2_high,f2_low,feature_level1,feature_level2,gender,img_left,img_reveal,img_right,n_target_images,practice,response,response_action,selection_duration,staircase,time_commit,time_end,time_render,time_run,time_show,time_switch,total_blocks,total_trials,trialNo,url
informed_consent,html.Screen,0,2023-11-15T18:34:10.584Z,"{""labjs_version"":""20.2.4"",""labjs_build"":{""flavor"":""development"",""commit"":""f5b4a49f956347addd546a832a3327688c2c0fef""},""location"":""https://labjs.felixhenninger.com/api/labjs_preview/index.html"",""userAgent"":""Mozilla/5.0 (Windows NT 10.0; Win64; x64) AppleWebKit/537.36 (KHTML, like Gecko) Chrome/119.0.0.0 Safari/537.36"",""platform"":""Win32"",""language"":""en-US"",""locale"":""en-US"",""timeZone"":""America/Chicago"",""timezoneOffset"":360,""screen_width"":1680,""screen_height"":1050,""scroll_width"":825,""scroll_height"":888,""window_innerWidth"":825,""window_innerHeight"":936,""devicePixelRatio"":1}",,,,,,,,,38114.34900001192,response,,,,,,,,,,,,,,,consent,click button,,,38783.59999999404,38775.30000001192,644.184,638.4000000059605,660.951,38785.107,,,,{}
Demography form,html.Form,1,2023-11-15T18:34:38.480Z,,,-20,,,,,,,27894.892999999996,form submission,,,,,,,,,female,,,,,,,,,,66680.19999998808,66680,38768.685,38783.69999998808,38785.107,66689.793,,,,
Welcome,html.Screen,2,2023-11-15T18:35:42.200Z,,,,,,,"[""bor"",""col""]",,,63709.507000011916,response,,,,,,,,,,,,,,,continue,click button,,,130399.90000000596,130399.30000001192,66656.285,66680.30000001192,66689.793,130413.722,,,,
demo_instructions,html.Screen,3,2023-11-15T18:36:34.162Z,,,,,,,,,,51945.778000000006,response,,,,,,,,,,,,,,,continue,click button,,,182360,182359.5,130396.765,130400,130413.722,182364.59,,,,
trial,html.Screen,4_0_0,2023-11-15T18:36:51.932Z,,,,0,0.8165346395107898,-0.7657798385266591,,true,lh,17765.310000005964,response,-0.7883321712536753,0.8999999999999997,-0.8999999999999997,1.0011430756825364,0.8999999999999997,-0.8999999999999997,low,high,,ISIC_2283628.JPG,,ISIC_9828853.JPG,29,true,lh,keypress(e),100,false,200130.5,200129.90000000596,182348.098,182360.19999998808,182364.59,200149.251,1,16,1,
sequence,flow.Sequence,4_0,2023-11-15T18:36:51.933Z,,,,,,,,,,17765.310000005964,completion,,,,,,,low,high,,,,,,true,,,,false,200131.19999998808,200129.90000000596,182348.098,182360.19999998808,182364.59,200149.251,1,16,,
trial,html.Screen,4_1_0,2023-11-15T18:37:06.041Z,,,,0,0.9138670886161264,-0.8414121478342018,,true,lh,14089.94899998809,response,-1.0329549150636406,0.8999999999999997,-0.8999999999999997,1.01584100839286,0.8999999999999997,-0.8999999999999997,low,high,,ISIC_6709052.JPG,,ISIC_0054670.JPG,29,true,lh,keypress(e),100,false,214239.40000000596,214239.19999998808,200132.611,200131.5,200149.251,214260.033,1,16,2,
sequence,flow.Sequence,4_1,2023-11-15T18:37:06.041Z,,,,,,,,,,14089.94899998809,completion,,,,,,,low,high,,,,,,true,,,,false,214239.59999999404,214239.19999998808,200132.611,200131.40000000596,200149.251,214260.033,1,16,,
trial,html.Screen,4_2_0,2023-11-15T18:37:11.118Z,,,,0,0.8544507134472948,-0.9244388608707323,,true,lh,5055.967000000004,response,-1.058275612142778,0.8999999999999997,-0.8999999999999997,0.7824898568540655,0.8999999999999997,-0.8999999999999997,low,high,,ISIC_3565564.JPG,,ISIC_4906385.JPG,29,true,lh,keypress(e),100,false,219316.5,219316,214243.337,214239.69999998808,214260.033,219336.813,1,16,3,
sequence,flow.Sequence,4_2,2023-11-15T18:37:11.119Z,,,,,,,,,,5055.967000000004,completion,,,,,,,low,high,,,,,,true,,,,false,219317.09999999404,219316,214243.337,214239.59999999404,214260.033,219336.813,1,16,,
trial,html.Screen,4_3_0,2023-11-15T18:37:14.827Z,,,,0,0.9111352818043872,-0.7517932332411794,,true,lh,3688.3869999880844,response,-0.8513427412482127,0.8999999999999997,-0.8999999999999997,0.9295303568095064,0.8999999999999997,-0.8999999999999997,low,high,,ISIC_3346045.JPG,,ISIC_0034164.JPG,29,true,lh,keypress(e),100,false,223025.5,223025.19999998808,219319.972,219317.30000001192,219336.813,223044.031,1,16,4,
sequence,flow.Sequence,4_3,2023-11-15T18:37:14.828Z,,,,,,,,,,3688.3869999880844,completion,,,,,,,low,high,,,,,,true,,,,false,223026.09999999404,223025.19999998808,219319.972,219317.19999998808,219336.813,223044.031,1,16,,
trial,html.Screen,4_4_0,2023-11-15T18:37:22.821Z,,,,0,0.9486555750998196,0.7476193313791517,,true,ll,7975.568999994051,response,-0.745731903414877,0.8999999999999997,-0.8999999999999997,-0.9653147884001048,0.8999999999999997,-0.8999999999999997,low,low,,ISIC_0029744.JPG,,ISIC_3613012.JPG,169,true,ll,keypress(f),100,false,231019.80000001192,231019.59999999404,223027.176,223026.30000001192,223044.031,231042.721,1,16,5,
sequence,flow.Sequence,4_4,2023-11-15T18:37:22.822Z,,,,,,,,,,7975.568999994051,completion,,,,,,,low,low,,,,,,true,,,,false,231020,231019.59999999404,223027.176,223026.30000001192,223044.031,231042.721,1,16,,
trial,html.Screen,4_5_0,2023-11-15T18:37:30.012Z,,,,0,0.9506660770270554,0.8543483016673109,,true,ll,7166.878999994049,response,-0.8443539935286377,0.8999999999999997,-0.8999999999999997,-0.8083712509772605,0.8999999999999997,-0.8999999999999997,low,low,,ISIC_0053469.JPG,,ISIC_1072321.JPG,169,true,ll,keypress(f),100,false,238209.90000000596,238209.59999999404,231026.146,231020.09999999404,231042.721,238240.079,1,16,6,
sequence,flow.Sequence,4_5,2023-11-15T18:37:30.012Z,,,,,,,,,,7166.878999994049,completion,,,,,,,low,low,,,,,,true,,,,false,238210.59999999404,238209.59999999404,231026.146,231020.09999999404,231042.721,238240.079,1,16,,
trial,html.Screen,4_6_0,2023-11-15T18:37:34.134Z,,,,0,0.8932499910364976,1.0367498890350624,,true,ll,4092.221000011923,response,-0.7219685980249753,0.8999999999999997,-0.8999999999999997,-0.7438741898546176,0.8999999999999997,-0.8999999999999997,low,low,,ISIC_0030106.JPG,,ISIC_4212044.JPG,169,true,ll,keypress(f),100,false,242332.69999998808,242332.30000001192,238223.493,238210.90000000596,238240.079,242348.037,1,16,7,
sequence,flow.Sequence,4_6,2023-11-15T18:37:34.135Z,,,,,,,,,,4092.221000011923,completion,,,,,,,low,low,,,,,,true,,,,false,242333.30000001192,242332.30000001192,238223.493,238210.80000001192,238240.079,242348.037,1,16,,
trial,html.Screen,4_7_0,2023-11-15T18:37:38.114Z,,,,0,0.8010128234618513,0.9031251164933652,,true,ll,3964.3630000059493,response,-0.737350298056154,0.8999999999999997,-0.8999999999999997,-0.8708481721044242,0.8999999999999997,-0.8999999999999997,low,low,,ISIC_0058768.JPG,,ISIC_2784965.JPG,169,true,ll,keypress(f),100,false,246312.80000001192,246312.40000000596,242331.568,242333.59999999404,242348.037,246339.243,1,16,8,
sequence,flow.Sequence,4_7,2023-11-15T18:37:38.115Z,,,,,,,,,,3964.3630000059493,completion,,,,,,,low,low,,,,,,true,,,,false,246313.40000000596,246312.40000000596,242331.568,242333.5,242348.037,246339.243,1,16,,
trial,html.Screen,4_8_0,2023-11-15T18:37:44.974Z,,,,0,-0.8034318937720549,1.0024917298189338,,true,hl,6832.757000000012,response,1.0926414044454305,0.8999999999999997,-0.8999999999999997,-0.7741624649032207,0.8999999999999997,-0.8999999999999997,high,low,,ISIC_0032766.JPG,,ISIC_2355513.JPG,43,true,hl,keypress(j),100,false,253172.30000001192,253172,246322.515,246313.69999998808,246339.243,253202.713,1,16,9,
sequence,flow.Sequence,4_8,2023-11-15T18:37:44.974Z,,,,,,,,,,6832.757000000012,completion,,,,,,,high,low,,,,,,true,,,,false,253173,253172,246322.515,246313.5,246339.243,253202.713,1,16,,
trial,html.Screen,4_9_0,2023-11-15T18:37:48.854Z,,,,0,-0.8034318937720549,1.0024917298189338,,true,hl,3849.4869999880902,response,0.8350129142228142,0.8999999999999997,-0.8999999999999997,-0.8172547818270586,0.8999999999999997,-0.8999999999999997,high,low,,ISIC_0032766.JPG,,ISIC_0301568.JPG,43,true,hl,keypress(j),100,false,257052.59999999404,257052.19999998808,253186.042,253173.30000001192,253202.713,257076.728,1,16,10,
sequence,flow.Sequence,4_9,2023-11-15T18:37:48.854Z,,,,,,,,,,3849.4869999880902,completion,,,,,,,high,low,,,,,,true,,,,false,257053.09999999404,257052.19999998808,253186.042,253173.19999998808,253202.713,257076.728,1,16,,
trial,html.Screen,4_10_0,2023-11-15T18:37:54.014Z,,,,0,-0.8472024037189965,0.986370061404882,,true,hl,5135.271999999997,response,1.004142980655507,0.8999999999999997,-0.8999999999999997,-0.7749773174967559,0.8999999999999997,-0.8999999999999997,high,low,,ISIC_0054355.JPG,,ISIC_3936223.JPG,43,true,hl,keypress(j),100,false,262212.40000000596,262212,257060.096,257053.30000001192,257076.728,262236.981,1,16,11,
sequence,flow.Sequence,4_10,2023-11-15T18:37:54.014Z,,,,,,,,,,5135.271999999997,completion,,,,,,,high,low,,,,,,true,,,,false,262213,262212,257060.096,257053.19999998808,257076.728,262236.981,1,16,,
trial,html.Screen,4_11_0,2023-11-15T18:38:01.339Z,,,,0,-1.058275612142778,0.7824898568540655,,true,hl,7300.018999999971,response,0.8544507134472948,0.8999999999999997,-0.8999999999999997,-0.9244388608707323,0.8999999999999997,-0.8999999999999997,high,low,,ISIC_4906385.JPG,,ISIC_3565564.JPG,43,true,hl,keypress(j),100,false,269537.40000000596,269537,262220.135,262213.3000000119,262236.981,269567.713,1,16,12,
sequence,flow.Sequence,4_11,2023-11-15T18:38:01.339Z,,,,,,,,,,7300.018999999971,completion,,,,,,,high,low,,,,,,true,,,,false,269538,269537,262220.135,262213.1999999881,262236.981,269567.713,1,16,,
trial,html.Screen,4_12_0,2023-11-15T18:38:06.056Z,,,,0,-0.8775389671837809,-0.97697295261856,,true,hh,4686.386999994051,response,0.7216589723654343,0.8999999999999997,-0.8999999999999997,0.828612019818679,0.8999999999999997,-0.8999999999999997,high,high,,ISIC_0071957.JPG,,ISIC_0046504.JPG,184,true,hh,keypress(i),100,false,274254.1999999881,274254.09999999404,269551.037,269538.3000000119,269567.713,274276.848,1,16,13,
sequence,flow.Sequence,4_12,2023-11-15T18:38:06.056Z,,,,,,,,,,4686.386999994051,completion,,,,,,,high,high,,,,,,true,,,,false,274254.40000000596,274254.09999999404,269551.037,269538.3000000119,269567.713,274276.848,1,16,,
trial,html.Screen,4_13_0,2023-11-15T18:38:10.540Z,,,,0,-0.9381357191664412,-0.7568873197636701,,true,hh,4461.552000005962,response,0.748203467481012,0.8999999999999997,-0.8999999999999997,0.990072838603998,0.8999999999999997,-0.8999999999999997,high,high,,ISIC_9808863.JPG,,ISIC_0065735.JPG,184,true,hh,keypress(i),100,false,278738.8000000119,278738.40000000596,274260.285,274254.5,274276.848,278768.936,1,16,14,
sequence,flow.Sequence,4_13,2023-11-15T18:38:10.541Z,,,,,,,,,,4461.552000005962,completion,,,,,,,high,high,,,,,,true,,,,false,278739.40000000596,278738.40000000596,274260.285,274254.40000000596,274276.848,278768.936,1,16,,
trial,html.Screen,4_14_0,2023-11-15T18:38:14.905Z,,,,0,-0.843726025213188,-0.7754562859183127,,true,hh,4333.864000011934,response,0.7852622372475052,0.8999999999999997,-0.8999999999999997,0.7817904940060681,0.8999999999999997,-0.8999999999999997,high,high,,ISIC_4728200.JPG,,ISIC_0010527.JPG,184,true,hh,keypress(i),100,false,283103.1999999881,283102.8000000119,278752.388,278739.6999999881,278768.936,283127.652,1,16,15,
sequence,flow.Sequence,4_14,2023-11-15T18:38:14.905Z,,,,,,,,,,4333.864000011934,completion,,,,,,,high,high,,,,,,true,,,,false,283103.90000000596,283102.8000000119,278752.388,278739.59999999404,278768.936,283127.652,1,16,,
trial,html.Screen,4_15_0,2023-11-15T18:38:19.285Z,,,,0,-0.8791357280466414,-0.9124690562312904,,true,hh,4355.748000005959,response,0.9486555750998196,0.8999999999999997,-0.8999999999999997,0.7476193313791517,0.8999999999999997,-0.8999999999999997,high,high,,ISIC_4544879.JPG,,ISIC_0029744.JPG,184,true,hh,keypress(i),100,false,287483.8000000119,287483.40000000596,283110.761,283104.09999999404,283127.652,287502.596,1,16,16,
sequence,flow.Sequence,4_15,2023-11-15T18:38:19.286Z,,,,,,,,,,4355.748000005959,completion,,,,,,,high,high,,,,,,true,,,,false,287484.40000000596,287483.40000000596,283110.761,283104.09999999404,283127.652,287502.596,1,16,,
demonstration_loop,flow.Loop,4,2023-11-15T18:38:19.286Z,,,,,,,,,,105118.81000000596,completion,,,,,,,,,,,,,,true,,,,false,287484.6999999881,287483.40000000596,182348.098,182360.09999999404,182364.59,287502.596,1,16,,
practice_instructions,html.Screen,5,2023-11-15T18:38:44.058Z,,,,,,,,,,24745.00399999402,response,,,,,,,,,,,,,,,continue,click button,,,312256,312247.59999999404,287486.001,287484.8000000119,287502.596,312250.727,,,,
trial,html.Screen,6_0_0,2023-11-15T18:38:55.042Z,,,,1,-0.7034175455884489,-1.0789312625280616,,,,11021.681999999972,timeout,0.710346464977095,0.8999999999999997,-0.8999999999999997,0.764416987038234,0.8999999999999997,-0.8999999999999997,high,high,,ISIC_3950753.JPG,,ISIC_6125652.JPG,184,true,,,0,false,323240.09999999404,323239.6999999881,312234.178,312256.09999999404,312250.727,323272.409,1,40,1,
sequence,flow.Sequence,6_0,2023-11-15T18:38:55.043Z,,,,,,,,,,10988.972999988066,completion,,,,,,,high,high,,,,,,true,,,,false,323240.6999999881,323239.6999999881,312234.178,312256.09999999404,312250.727,323272.409,1,40,,
trial,html.Screen,6_1_0,2023-11-15T18:39:02.586Z,,,,1,0.7688509750532941,-0.7699842387811451,,false,lh,7511.690999994054,response,-0.8075741539776473,0.8999999999999997,-0.8999999999999997,0.7326891894107508,0.8999999999999997,-0.8999999999999997,low,high,,ISIC_0014527.JPG,,ISIC_3428523.JPG,29,true,ll,keypress(f),0,false,330784.1999999881,330784.09999999404,323255.598,323241,323272.409,330786.819,1,40,2,
sequence,flow.Sequence,6_1,2023-11-15T18:39:02.586Z,,,,,,,,,,7511.690999994054,completion,,,,,,,low,high,,,,,,true,,,,false,330784.40000000596,330784.09999999404,323255.598,323241,323272.409,330786.819,1,40,,
trial,html.Screen,6_2_0,2023-11-15T18:39:08.171Z,,,,1,1.068995482830036,1.02189095692261,,false,ll,5582.180999999982,response,-0.7193286557553458,0.8999999999999997,-0.8999999999999997,-1.0636787813411093,0.8999999999999997,-0.8999999999999997,low,low,,ISIC_0046405.JPG,,ISIC_9690371.JPG,169,true,lh,keypress(e),0,false,336369.40000000596,336369,330770.22,330784.5,330786.819,336381.028,1,40,3,
sequence,flow.Sequence,6_2,2023-11-15T18:39:08.172Z,,,,,,,,,,5582.180999999982,completion,,,,,,,low,low,,,,,,true,,,,false,336369.8000000119,336369,330770.22,330784.40000000596,330786.819,336381.028,1,40,,
trial,html.Screen,6_3_0,2023-11-15T18:39:17.508Z,,,,1,0.7723423895392068,-0.7630051745722757,,false,lh,9324.37200000597,response,-0.7411887874358276,0.8999999999999997,-0.8999999999999997,0.7869222465141029,0.8999999999999997,-0.8999999999999997,low,high,,ISIC_9694911.JPG,,ISIC_6255113.JPG,29,true,ll,keypress(f),0,false,345705.8000000119,345705.40000000596,336364.516,336370.09999999404,336381.028,345715.861,1,40,4,
sequence,flow.Sequence,6_3,2023-11-15T18:39:17.508Z,,,,,,,,,,9324.37200000597,completion,,,,,,,low,high,,,,,,true,,,,false,345706.3000000119,345705.40000000596,336364.516,336370,336381.028,345715.861,1,40,,
trial,html.Screen,6_4_0,2023-11-15T18:39:23.586Z,,,,1,0.8544507134472948,-0.9244388608707323,,false,lh,6067.939000011946,response,-1.0369885917487718,0.8999999999999997,-0.8999999999999997,0.8486937878412699,0.8999999999999997,-0.8999999999999997,low,high,,ISIC_3565564.JPG,,ISIC_6917681.JPG,29,true,hl,keypress(j),0,false,351783.8000000119,351783.8000000119,345699.24,345706.5,345715.861,351794.368,1,40,5,
sequence,flow.Sequence,6_4,2023-11-15T18:39:23.586Z,,,,,,,,,,6067.939000011946,completion,,,,,,,low,high,,,,,,true,,,,false,351783.90000000596,351783.8000000119,345699.24,345706.40000000596,345715.861,351794.368,1,40,,
trial,html.Screen,6_5_0,2023-11-15T18:39:29.522Z,,,,1,1.0593040390975434,1.0413442695273454,,true,ll,5925.831999988062,response,-0.8664556873113695,0.8999999999999997,-0.8999999999999997,-0.9753511680199736,0.8999999999999997,-0.8999999999999997,low,low,,ISIC_0061293.JPG,,ISIC_0340453.JPG,169,true,ll,keypress(f),0,false,357720.3000000119,357720.1999999881,351777.814,351784,351794.368,357722.583,1,40,6,
sequence,flow.Sequence,6_5,2023-11-15T18:39:29.523Z,,,,,,,,,,5925.831999988062,completion,,,,,,,low,low,,,,,,true,,,,false,357720.59999999404,357720.1999999881,351777.814,351784,351794.368,357722.583,1,40,,
trial,html.Screen,6_6_0,2023-11-15T18:39:31.884Z,,,,1,-0.7411887874358276,0.7869222465141029,,true,hl,2358.616999988095,response,0.8544507134472948,0.8999999999999997,-0.8999999999999997,-0.9244388608707323,0.8999999999999997,-0.8999999999999997,high,low,,ISIC_6255113.JPG,,ISIC_3565564.JPG,43,true,hl,keypress(j),0,false,360081.5,360081.1999999881,357705.96,357720.59999999404,357722.583,360093.914,1,40,7,
sequence,flow.Sequence,6_6,2023-11-15T18:39:31.884Z,,,,,,,,,,2358.616999988095,completion,,,,,,,high,low,,,,,,true,,,,false,360082,360081.1999999881,357705.96,357720.59999999404,357722.583,360093.914,1,40,,
trial,html.Screen,6_7_0,2023-11-15T18:39:36.635Z,,,,1,0.8475699534335533,1.0082663551580755,,false,ll,4738.986000005971,response,-1.0667712753225895,0.8999999999999997,-0.8999999999999997,-0.7415337434376102,0.8999999999999997,-0.8999999999999997,low,low,,ISIC_0066429.JPG,,ISIC_8626941.JPG,169,true,hl,keypress(j),0,false,364833.09999999404,364832.90000000596,360077.391,360082.3000000119,360093.914,364836.426,1,40,8,
sequence,flow.Sequence,6_7,2023-11-15T18:39:36.636Z,,,,,,,,,,4738.986000005971,completion,,,,,,,low,low,,,,,,true,,,,false,364833.59999999404,364832.90000000596,360077.391,360082.1999999881,360093.914,364836.426,1,40,,
trial,html.Screen,6_8_0,2023-11-15T18:39:45.773Z,,,,1,-0.875032819970805,-0.9230722071334148,,false,hh,9133.074000000022,response,0.9159664042920548,0.8999999999999997,-0.8999999999999997,0.96519839238634,0.8999999999999997,-0.8999999999999997,high,high,,ISIC_4568084.JPG,,ISIC_0053617.JPG,184,true,ll,keypress(f),0,false,373969.6999999881,373969.5,364819.905,364833.8000000119,364836.426,373987.831,1,40,9,
sequence,flow.Sequence,6_8,2023-11-15T18:39:45.773Z,,,,,,,,,,9133.074000000022,completion,,,,,,,high,high,,,,,,true,,,,false,373970.1999999881,373969.5,364819.905,364833.8000000119,364836.426,373987.831,1,40,,
trial,html.Screen,6_9_0,2023-11-15T18:39:51.723Z,,,,1,0.7688509750532941,-0.7699842387811451,,true,lh,5932.168999999994,response,-0.7991459998473059,0.8999999999999997,-0.8999999999999997,1.0280788723474688,0.8999999999999997,-0.8999999999999997,low,high,,ISIC_0014527.JPG,,ISIC_7951202.JPG,29,true,lh,keypress(e),0,false,379920,379920,373971.063,373970.5,373987.831,379932.468,1,40,10,
sequence,flow.Sequence,6_9,2023-11-15T18:39:51.723Z,,,,,,,,,,5932.168999999994,completion,,,,,,,low,high,,,,,,true,,,,false,379920.1999999881,379920,373971.063,373970.40000000596,373987.831,379932.468,1,40,,
trial,html.Screen,6_10_0,2023-11-15T18:39:58.653Z,,,,1,-0.8171109532905281,-0.8757752877102069,,true,hh,6917.131999994046,response,0.7167356289126139,0.8999999999999997,-0.8999999999999997,0.9599274916161776,0.8999999999999997,-0.8999999999999997,high,high,,ISIC_0283506.JPG,,ISIC_0010810.JPG,184,true,hh,keypress(i),0,false,386849.90000000596,386849.59999999404,379915.996,379920.3000000119,379932.468,386862.71,1,40,11,
sequence,flow.Sequence,6_10,2023-11-15T18:39:58.654Z,,,,,,,,,,6917.131999994046,completion,,,,,,,high,high,,,,,,true,,,,false,386850.59999999404,386849.59999999404,379915.996,379920.1999999881,379932.468,386862.71,1,40,,
trial,html.Screen,6_11_0,2023-11-15T18:40:05.341Z,,,,1,0.9415126659682582,1.0413549203180965,,true,ll,6674.5900000119,response,-1.0361104193014674,0.8999999999999997,-0.8999999999999997,-0.7632520489027056,0.8999999999999997,-0.8999999999999997,low,low,,ISIC_4398011.JPG,,ISIC_7017387.JPG,169,true,ll,keypress(f),0,false,393537.59999999404,393537.3000000119,386846.14,386850.90000000596,386862.71,393542.363,1,40,12,
sequence,flow.Sequence,6_11,2023-11-15T18:40:05.341Z,,,,,,,,,,6674.5900000119,completion,,,,,,,low,low,,,,,,true,,,,false,393538.09999999404,393537.3000000119,386846.14,386850.6999999881,386862.71,393542.363,1,40,,
trial,html.Screen,6_12_0,2023-11-15T18:40:12.269Z,,,,1,-0.7882758084023446,0.8296405881378283,,true,hl,6922.937000011909,response,0.8165346395107898,0.8999999999999997,-0.8999999999999997,-0.7657798385266591,0.8999999999999997,-0.8999999999999997,high,low,,ISIC_0065882.JPG,,ISIC_2283628.JPG,43,true,hl,keypress(j),0,false,400465.5,400465.3000000119,393525.765,393538.3000000119,393542.363,400472.519,1,40,13,
sequence,flow.Sequence,6_12,2023-11-15T18:40:12.269Z,,,,,,,,,,6922.937000011909,completion,,,,,,,high,low,,,,,,true,,,,false,400466,400465.3000000119,393525.765,393538.3000000119,393542.363,400472.519,1,40,,
trial,html.Screen,6_13_0,2023-11-15T18:40:21.380Z,,,,1,-0.875032819970805,-0.9230722071334148,,true,hh,9104.481000000029,response,0.8391777575366977,0.8999999999999997,-0.8999999999999997,0.7621432835508051,0.8999999999999997,-0.8999999999999997,high,high,,ISIC_4568084.JPG,,ISIC_0001138.JPG,184,true,hh,keypress(i),0,false,409577.3000000119,409577,400455.916,400466.3000000119,400472.519,409590.215,1,40,14,
sequence,flow.Sequence,6_13,2023-11-15T18:40:21.381Z,,,,,,,,,,9104.481000000029,completion,,,,,,,high,high,,,,,,true,,,,false,409577.8000000119,409577,400455.916,400466.1999999881,400472.519,409590.215,1,40,,
trial,html.Screen,6_14_0,2023-11-15T18:40:28.004Z,,,,1,0.7983870329622347,1.044985095430835,,true,ll,6610.685000005935,response,-0.8764429645297487,0.8999999999999997,-0.8999999999999997,-0.9319282086996942,0.8999999999999997,-0.8999999999999997,low,low,,ISIC_0032372.JPG,,ISIC_9538004.JPG,169,true,ll,keypress(f),0,false,416201.1999999881,416200.90000000596,409573.653,409578,409590.215,416220.265,1,40,15,
sequence,flow.Sequence,6_14,2023-11-15T18:40:28.005Z,,,,,,,,,,6610.685000005935,completion,,,,,,,low,low,,,,,,true,,,,false,416201.59999999404,416200.90000000596,409573.653,409577.90000000596,409590.215,416220.265,1,40,,
trial,html.Screen,6_15_0,2023-11-15T18:40:31.716Z,,,,1,-0.7411887874358276,0.7869222465141029,,true,hl,3692.8349999940256,response,1.0926414044454305,0.8999999999999997,-0.8999999999999997,-0.7741624649032207,0.8999999999999997,-0.8999999999999997,high,low,,ISIC_6255113.JPG,,ISIC_2355513.JPG,43,true,hl,keypress(j),0,false,419913.40000000596,419913.09999999404,416186.562,416201.8000000119,416220.265,419927.214,1,40,16,
sequence,flow.Sequence,6_15,2023-11-15T18:40:31.717Z,,,,,,,,,,3692.8349999940256,completion,,,,,,,high,low,,,,,,true,,,,false,419913.8000000119,419913.09999999404,416186.562,416201.8000000119,416220.265,419927.214,1,40,,
trial,html.Screen,6_16_0,2023-11-15T18:40:36.995Z,,,,1,-0.8719231363109603,0.7704280220140033,,true,hl,5264.786000000022,response,1.0116417541846066,0.8999999999999997,-0.8999999999999997,-1.033442916947398,0.8999999999999997,-0.8999999999999997,high,low,,ISIC_0029453.JPG,,ISIC_0031389.JPG,43,true,hl,keypress(j),0,false,425192.09999999404,425192,419910.498,419914.1999999881,419927.214,425204.194,1,40,17,
sequence,flow.Sequence,6_16,2023-11-15T18:40:36.995Z,,,,,,,,,,5264.786000000022,completion,,,,,,,high,low,,,,,,true,,,,false,425192.1999999881,425192,419910.498,419914.09999999404,419927.214,425204.194,1,40,,
trial,html.Screen,6_17_0,2023-11-15T18:40:41.701Z,,,,1,0.7714570894008278,-0.9113656554657036,,true,lh,4693.106000011903,response,-0.9237241143561707,0.8999999999999997,-0.8999999999999997,0.7102087839245512,0.8999999999999997,-0.8999999999999997,low,high,,ISIC_4529092.JPG,,ISIC_0058661.JPG,29,true,lh,keypress(e),0,false,429897.6999999881,429897.3000000119,425187.449,425192.3000000119,425204.194,429913.169,1,40,18,
sequence,flow.Sequence,6_17,2023-11-15T18:40:41.701Z,,,,,,,,,,4693.106000011903,completion,,,,,,,low,high,,,,,,true,,,,false,429898.1999999881,429897.3000000119,425187.449,425192.3000000119,425204.194,429913.169,1,40,,
trial,html.Screen,6_18_0,2023-11-15T18:40:46.925Z,,,,1,-0.979674241817633,-0.8567251746816678,,true,hh,5207.731000005966,response,0.7509882656706086,0.8999999999999997,-0.8999999999999997,0.8368364447246962,0.8999999999999997,-0.8999999999999997,high,high,,ISIC_0006757.JPG,,ISIC_0062005.JPG,184,true,hh,keypress(i),0,false,435121.1999999881,435120.90000000596,429896.623,429898.40000000596,429913.169,435140.576,1,40,19,
sequence,flow.Sequence,6_18,2023-11-15T18:40:46.925Z,,,,,,,,,,5207.731000005966,completion,,,,,,,high,high,,,,,,true,,,,false,435121.6999999881,435120.90000000596,429896.623,429898.3000000119,429913.169,435140.576,1,40,,
trial,html.Screen,6_19_0,2023-11-15T18:40:55.532Z,,,,1,0.9737567085091248,0.9013996680304692,,true,ll,8587.423999999999,response,-0.7303022273735517,0.8999999999999997,-0.8999999999999997,-0.7676979481938448,0.8999999999999997,-0.8999999999999997,low,low,,ISIC_2483825.JPG,,ISIC_4911407.JPG,169,true,ll,keypress(f),0,false,443728.1999999881,443728,435106.505,435121.90000000596,435140.576,443740.116,1,40,20,
sequence,flow.Sequence,6_19,2023-11-15T18:40:55.532Z,,,,,,,,,,8587.423999999999,completion,,,,,,,low,low,,,,,,true,,,,false,443728.3000000119,443728,435106.505,435121.8000000119,435140.576,443740.116,1,40,,
trial,html.Screen,6_20_0,2023-11-15T18:41:00.716Z,,,,1,-0.8379442136072591,-0.8260692529258827,,true,hh,5172.38400000002,response,0.8932499910364976,0.8999999999999997,-0.8999999999999997,1.0367498890350624,0.8999999999999997,-0.8999999999999997,high,high,,ISIC_0013213.JPG,,ISIC_0030106.JPG,184,true,hh,keypress(i),0,false,448912.8000000119,448912.5,443723.483,443728.3000000119,443740.116,448916.803,1,40,21,
sequence,flow.Sequence,6_20,2023-11-15T18:41:00.717Z,,,,,,,,,,5172.38400000002,completion,,,,,,,high,high,,,,,,true,,,,false,448913,448912.5,443723.483,443728.3000000119,443740.116,448916.803,1,40,,
trial,html.Screen,6_21_0,2023-11-15T18:41:03.045Z,,,,1,-0.8791357280466414,-0.9124690562312904,,true,hh,2324.3969999880646,response,0.726088143883226,0.8999999999999997,-0.8999999999999997,0.9195149254716736,0.8999999999999997,-0.8999999999999997,high,high,,ISIC_4544879.JPG,,ISIC_3445468.JPG,184,true,hh,keypress(i),0,false,451241.5,451241.1999999881,448900.243,448913.09999999404,448916.803,451254.726,1,40,22,
sequence,flow.Sequence,6_21,2023-11-15T18:41:03.045Z,,,,,,,,,,2324.3969999880646,completion,,,,,,,high,high,,,,,,true,,,,false,451241.90000000596,451241.1999999881,448900.243,448913.09999999404,448916.803,451254.726,1,40,,
trial,html.Screen,6_22_0,2023-11-15T18:41:06.571Z,,,,1,-0.8110121381849364,0.7563142141851558,,true,hl,3513.1740000059363,response,0.9544693251394116,0.8999999999999997,-0.8999999999999997,-1.0727539917203766,0.8999999999999997,-0.8999999999999997,high,low,,ISIC_0033605.JPG,,ISIC_0055147.JPG,43,true,hl,keypress(j),0,false,454768,454767.90000000596,451238.138,451242.1999999881,451254.726,454778.179,1,40,23,
sequence,flow.Sequence,6_22,2023-11-15T18:41:06.572Z,,,,,,,,,,3513.1740000059363,completion,,,,,,,high,low,,,,,,true,,,,false,454768.09999999404,454767.90000000596,451238.138,451242.1999999881,451254.726,454778.179,1,40,,
trial,html.Screen,6_23_0,2023-11-15T18:41:10.747Z,,,,1,0.8165346395107898,-0.7657798385266591,,true,lh,4165.621000011917,response,-0.930804711032185,0.8999999999999997,-0.8999999999999997,0.7294067991476295,0.8999999999999997,-0.8999999999999997,low,high,,ISIC_2283628.JPG,,ISIC_5067317.JPG,29,true,lh,keypress(e),0,false,458943.90000000596,458943.8000000119,454761.434,454768.09999999404,454778.179,458952.959,1,40,24,
sequence,flow.Sequence,6_23,2023-11-15T18:41:10.748Z,,,,,,,,,,4165.621000011917,completion,,,,,,,low,high,,,,,,true,,,,false,458944,458943.8000000119,454761.434,454768.09999999404,454778.179,458952.959,1,40,,
trial,html.Screen,6_24_0,2023-11-15T18:41:14.580Z,,,,1,-0.7246771568562105,0.9161385080362604,,true,hl,3823.0410000000265,response,0.9198276163642348,0.8999999999999997,-0.8999999999999997,-0.7754915110667046,0.8999999999999997,-0.8999999999999997,high,low,,ISIC_0028225.JPG,,ISIC_7840728.JPG,43,true,hl,keypress(j),0,false,462776.09999999404,462776,458936.24,458944.09999999404,458952.959,462794.11,1,40,25,
sequence,flow.Sequence,6_24,2023-11-15T18:41:14.580Z,,,,,,,,,,3823.0410000000265,completion,,,,,,,high,low,,,,,,true,,,,false,462776.3000000119,462776,458936.24,458944.09999999404,458952.959,462794.11,1,40,,
trial,html.Screen,6_25_0,2023-11-15T18:41:19.284Z,,,,1,-1.0369885917487718,0.8486937878412699,,true,hl,4686.089999988093,response,0.7856143618373893,0.8999999999999997,-0.8999999999999997,-1.0273608829432213,0.8999999999999997,-0.8999999999999997,high,low,,ISIC_6917681.JPG,,ISIC_9303849.JPG,43,true,hl,keypress(j),0,false,467480.3000000119,467480.1999999881,462760.467,462776.3000000119,462794.11,467486.414,1,40,26,
sequence,flow.Sequence,6_25,2023-11-15T18:41:19.284Z,,,,,,,,,,4686.089999988093,completion,,,,,,,high,low,,,,,,true,,,,false,467480.5,467480.1999999881,462760.467,462776.3000000119,462794.11,467486.414,1,40,,
trial,html.Screen,6_26_0,2023-11-15T18:41:21.483Z,,,,1,-1.0777929856705222,-1.0139833925057518,,true,hh,2193.18599999405,response,1.0924307772114292,0.8999999999999997,-0.8999999999999997,0.725341168321984,0.8999999999999997,-0.8999999999999997,high,high,,ISIC_6171084.JPG,,ISIC_0024929.JPG,184,true,hh,keypress(i),0,false,469679.6999999881,469679.59999999404,467469.595,467480.59999999404,467486.414,469690.537,1,40,27,
sequence,flow.Sequence,6_26,2023-11-15T18:41:21.483Z,,,,,,,,,,2193.18599999405,completion,,,,,,,high,high,,,,,,true,,,,false,469679.90000000596,469679.59999999404,467469.595,467480.5,467486.414,469690.537,1,40,,
trial,html.Screen,6_27_0,2023-11-15T18:41:24.843Z,,,,1,1.0116417541846066,-1.033442916947398,,true,lh,3349.162999988068,response,-0.8513427412482127,0.8999999999999997,-0.8999999999999997,0.9295303568095064,0.8999999999999997,-0.8999999999999997,low,high,,ISIC_0031389.JPG,,ISIC_0034164.JPG,29,true,lh,keypress(e),0,false,473039.90000000596,473039.6999999881,469673.819,469679.90000000596,469690.537,473047.054,1,40,28,
sequence,flow.Sequence,6_27,2023-11-15T18:41:24.843Z,,,,,,,,,,3349.162999988068,completion,,,,,,,low,high,,,,,,true,,,,false,473039.90000000596,473039.6999999881,469673.819,469679.90000000596,469690.537,473047.054,1,40,,
trial,html.Screen,6_28_0,2023-11-15T18:41:28.853Z,,,,1,0.8481980365756594,0.9581202232187236,,true,ll,4001.8460000059567,response,-1.008831959223626,0.8999999999999997,-0.8999999999999997,-0.9823409524664072,0.8999999999999997,-0.8999999999999997,low,low,,ISIC_0031784.JPG,,ISIC_1579745.JPG,169,true,ll,keypress(f),0,false,477049.09999999404,477048.90000000596,473030.417,473040,473047.054,477054.85,1,40,29,
sequence,flow.Sequence,6_28,2023-11-15T18:41:28.853Z,,,,,,,,,,4001.8460000059567,completion,,,,,,,low,low,,,,,,true,,,,false,477049.5,477048.90000000596,473030.417,473040,473047.054,477054.85,1,40,,
trial,html.Screen,6_29_0,2023-11-15T18:41:32.011Z,,,,1,-0.9242629064104082,-1.0085499824556403,,true,hh,3153.0500000059837,response,0.7261723159116604,0.8999999999999997,-0.8999999999999997,1.045616100036335,0.8999999999999997,-0.8999999999999997,high,high,,ISIC_7795549.JPG,,ISIC_0011031.JPG,184,true,hh,keypress(i),0,false,480207.90000000596,480207.90000000596,477038.341,477049.6999999881,477054.85,480211.007,1,40,30,
sequence,flow.Sequence,6_29,2023-11-15T18:41:32.012Z,,,,,,,,,,3153.0500000059837,completion,,,,,,,high,high,,,,,,true,,,,false,480208.09999999404,480207.90000000596,477038.341,477049.6999999881,477054.85,480211.007,1,40,,
trial,html.Screen,6_30_0,2023-11-15T18:41:34.141Z,,,,1,-1.0008081653938232,-0.7832040253954599,,true,hh,2126.192999988096,response,1.063389737009574,0.8999999999999997,-0.8999999999999997,0.8248153645014629,0.8999999999999997,-0.8999999999999997,high,high,,ISIC_8796632.JPG,,ISIC_0027104.JPG,184,true,hh,keypress(i),0,false,482337.40000000596,482337.1999999881,480194.421,480208.1999999881,480211.007,482348.568,1,40,31,
sequence,flow.Sequence,6_30,2023-11-15T18:41:34.141Z,,,,,,,,,,2126.192999988096,completion,,,,,,,high,high,,,,,,true,,,,false,482338,482337.1999999881,480194.421,480208.09999999404,480211.007,482348.568,1,40,,
trial,html.Screen,6_31_0,2023-11-15T18:41:37.764Z,,,,1,0.9244148283103414,-0.9712966348713286,,true,lh,3611.832000005932,response,-0.8926515927689261,0.8999999999999997,-0.8999999999999997,0.7935960767768927,0.8999999999999997,-0.8999999999999997,low,high,,ISIC_7927525.JPG,,ISIC_8901371.JPG,29,true,lh,keypress(e),0,false,485960.59999999404,485960.40000000596,482332.003,482338.09999999404,482348.568,485972.27,1,40,32,
sequence,flow.Sequence,6_31,2023-11-15T18:41:37.764Z,,,,,,,,,,3611.832000005932,completion,,,,,,,low,high,,,,,,true,,,,false,485960.90000000596,485960.40000000596,482332.003,482338.09999999404,482348.568,485972.27,1,40,,
trial,html.Screen,6_32_0,2023-11-15T18:41:41.875Z,,,,1,0.7852622372475052,0.7817904940060681,,true,ll,4099.530000011902,response,-0.715586294160793,0.8999999999999997,-0.8999999999999997,-0.7728125370921421,0.8999999999999997,-0.8999999999999997,low,low,,ISIC_0010527.JPG,,ISIC_9965754.JPG,169,true,ll,keypress(f),0,false,490071.90000000596,490071.8000000119,485955.529,485961.09999999404,485972.27,490080.207,1,40,33,
sequence,flow.Sequence,6_32,2023-11-15T18:41:41.876Z,,,,,,,,,,4099.530000011902,completion,,,,,,,low,low,,,,,,true,,,,false,490072.09999999404,490071.8000000119,485955.529,485961.09999999404,485972.27,490080.207,1,40,,
trial,html.Screen,6_33_0,2023-11-15T18:41:45.029Z,,,,1,-0.8828738626295417,0.8288177599439582,,true,hl,3144.3929999940447,response,0.9138670886161264,0.8999999999999997,-0.8999999999999997,-0.8414121478342018,0.8999999999999997,-0.8999999999999997,high,low,,ISIC_0056041.JPG,,ISIC_6709052.JPG,43,true,hl,keypress(j),0,false,493224.90000000596,493224.59999999404,490063.463,490072.09999999404,490080.207,493236.438,1,40,34,
sequence,flow.Sequence,6_33,2023-11-15T18:41:45.029Z,,,,,,,,,,3144.3929999940447,completion,,,,,,,high,low,,,,,,true,,,,false,493225.1999999881,493224.59999999404,490063.463,490072.09999999404,490080.207,493236.438,1,40,,
trial,html.Screen,6_34_0,2023-11-15T18:41:47.268Z,,,,1,0.9089402323867112,-0.8034544077281132,,false,lh,2227.9620000059367,response,-0.8075741539776473,0.8999999999999997,-0.8999999999999997,0.7326891894107508,0.8999999999999997,-0.8999999999999997,low,high,,ISIC_3585381.JPG,,ISIC_3428523.JPG,29,true,hh,keypress(i),0,false,495464.59999999404,495464.40000000596,493219.764,493225.40000000596,493236.438,495474.101,1,40,35,
sequence,flow.Sequence,6_34,2023-11-15T18:41:47.269Z,,,,,,,,,,2227.9620000059367,completion,,,,,,,low,high,,,,,,true,,,,false,495464.8000000119,495464.40000000596,493219.764,493225.3000000119,493236.438,495474.101,1,40,,
trial,html.Screen,6_35_0,2023-11-15T18:41:52.948Z,,,,1,1.0849202097813322,1.0851127310415287,,true,ll,5669.699000011897,response,-0.8152074889040049,0.8999999999999997,-0.8999999999999997,-0.8626913703401816,0.8999999999999997,-0.8999999999999997,low,low,,ISIC_0010289.JPG,,ISIC_4745475.JPG,169,true,ll,keypress(f),0,false,501143.90000000596,501143.8000000119,495457.331,495464.90000000596,495474.101,501151.753,1,40,36,
sequence,flow.Sequence,6_35,2023-11-15T18:41:52.948Z,,,,,,,,,,5669.699000011897,completion,,,,,,,low,low,,,,,,true,,,,false,501144.09999999404,501143.8000000119,495457.331,495464.90000000596,495474.101,501151.753,1,40,,
trial,html.Screen,6_36_0,2023-11-15T18:41:57.380Z,,,,1,0.7688509750532941,-0.7699842387811451,,true,lh,4424.647000005934,response,-0.8926515927689261,0.8999999999999997,-0.8999999999999997,0.7935960767768927,0.8999999999999997,-0.8999999999999997,low,high,,ISIC_0014527.JPG,,ISIC_8901371.JPG,29,true,lh,keypress(e),0,false,505576.5,505576.40000000596,501135.056,501144.09999999404,501151.753,505593.985,1,40,37,
sequence,flow.Sequence,6_36,2023-11-15T18:41:57.381Z,,,,,,,,,,4424.647000005934,completion,,,,,,,low,high,,,,,,true,,,,false,505576.6999999881,505576.40000000596,501135.056,501144.09999999404,501151.753,505593.985,1,40,,
trial,html.Screen,6_37_0,2023-11-15T18:42:07.268Z,,,,1,0.9778659253485126,1.073781767171294,,true,ll,9869.915000005974,response,-1.0122348575830964,0.8999999999999997,-0.8999999999999997,-1.007833368115011,0.8999999999999997,-0.8999999999999997,low,low,,ISIC_0067733.JPG,,ISIC_8145260.JPG,169,true,ll,keypress(f),0,false,515464.09999999404,515463.90000000596,505577.011,505576.6999999881,505593.985,515479.709,1,40,38,
sequence,flow.Sequence,6_37,2023-11-15T18:42:07.268Z,,,,,,,,,,9869.915000005974,completion,,,,,,,low,low,,,,,,true,,,,false,515464.09999999404,515463.90000000596,505577.011,505576.6999999881,505593.985,515479.709,1,40,,
trial,html.Screen,6_38_0,2023-11-15T18:42:14.412Z,,,,1,-0.9237241143561707,0.7102087839245512,,true,hl,7128.0910000119475,response,0.7305475296009624,0.8999999999999997,-0.8999999999999997,-0.7442779237098178,0.8999999999999997,-0.8999999999999997,high,low,,ISIC_0058661.JPG,,ISIC_7266604.JPG,43,true,hl,keypress(j),0,false,522608,522607.8000000119,515463.096,515464.1999999881,515479.709,522610.187,1,40,39,
sequence,flow.Sequence,6_38,2023-11-15T18:42:14.412Z,,,,,,,,,,7128.0910000119475,completion,,,,,,,high,low,,,,,,true,,,,false,522608.09999999404,522607.8000000119,515463.096,515464.1999999881,515479.709,522610.187,1,40,,
trial,html.Screen,6_39_0,2023-11-15T18:42:23.341Z,,,,1,-0.8034318937720549,1.0024917298189338,,true,hl,8927.012999988103,response,0.9633172970727744,0.8999999999999997,-0.8999999999999997,-0.8472659344792351,0.8999999999999997,-0.8999999999999997,high,low,,ISIC_0032766.JPG,,ISIC_0067172.JPG,43,true,hl,keypress(j),0,false,531537.5,531537.1999999881,522593.47,522608.1999999881,522610.187,531544.262,1,40,40,
sequence,flow.Sequence,6_39,2023-11-15T18:42:23.342Z,,,,,,,,,,8927.012999988103,completion,,,,,,,high,low,,,,,,true,,,,false,531537.900000006,531537.1999999881,522593.47,522608.09999999404,522610.187,531544.262,1,40,,
practice_loop,flow.Loop,6,2023-11-15T18:42:23.342Z,,,,,,,,,,219286.47299998807,completion,,,,,,,,,,,,,,true,,,,false,531538.1999999881,531537.1999999881,312234.178,312256.09999999404,312250.727,531544.262,1,40,,
stair_instructions,html.Screen,7,2023-11-15T18:42:27.628Z,,,,,,,,,,4279.038000011933,response,,,,,,,,,,,,,,,continue,click button,,,535823.900000006,535823.3000000119,531527.73,531538.400000006,531544.262,535835.975,,,,
trial,html.Screen,8_0_0,2023-11-15T18:42:34.644Z,,,,2,0.0123274848503577,-0.0516828290734233,,true,ll,7004.124999994063,response,-0.7268043404851218,0.8999999999999997,-0.8999999999999997,-0.8184581417483975,0.8999999999999997,-0.8999999999999997,low,low,,ISIC_0056790.JPG,,ISIC_0002118.JPG,169,false,ll,keypress(f),0,true,542840.3000000119,542840.099999994,535819.499,535824,535835.975,542866.32,1,40,1,
sequence,flow.Sequence,8_0,2023-11-15T18:42:34.644Z,,,,,,,,,,7004.124999994063,completion,,,,,,,low,low,,,,,,false,,,,true,542840.3000000119,542840.099999994,535819.499,535824,535835.975,542866.32,1,40,,
trial,html.Screen,8_1_0,2023-11-15T18:42:41.164Z,,,,2,-0.0267918352484299,-0.0630167830859455,,false,ll,6493.680000000051,response,-0.9867903749582616,0.8999999999999997,-0.8999999999999997,-0.779537769597012,0.8999999999999997,-0.8999999999999997,low,low,,ISIC_0064874.JPG,,ISIC_7168122.JPG,169,false,lh,keypress(e),0,true,549360.099999994,549360,542849.584,542840.400000006,542866.32,549362.263,1,40,2,
sequence,flow.Sequence,8_1,2023-11-15T18:42:41.164Z,,,,,,,,,,6493.680000000051,completion,,,,,,,low,low,,,,,,false,,,,true,549360.1999999881,549360,542849.584,542840.400000006,542866.32,549362.263,1,40,,
trial,html.Screen,8_2_0,2023-11-15T18:42:46.653Z,,,,2,0.001445457736793,0.0165307427449982,,false,hh,5485.836999994004,response,0.7452700151122865,0.8999999999999997,-0.8526242583533294,0.7438857109222746,0.8999999999999997,-0.9499999999999997,high,high,,ISIC_0027350.JPG,,ISIC_0027067.JPG,184,false,hl,keypress(j),0,true,554848.3000000119,554848.099999994,549345.71,549360.3000000119,549362.263,554856.295,1,40,3,
sequence,flow.Sequence,8_2,2023-11-15T18:42:46.653Z,,,,,,,,,,5485.836999994004,completion,,,,,,,high,high,,,,,,false,,,,true,554848.400000006,554848.099999994,549345.71,549360.1999999881,549362.263,554856.295,1,40,,
trial,html.Screen,8_3_0,2023-11-15T18:42:52.022Z,,,,2,0.0065172941585523,-0.0118857043117315,,false,lh,5361.304999993998,response,-0.7883321712536753,0.8999999999999997,-0.8526242583533294,1.0011430756825364,0.9499999999999997,-0.9499999999999997,low,high,,ISIC_6119202.JPG,,ISIC_9828853.JPG,30,false,hl,keypress(j),0,true,560218,560217.599999994,554839.569,554848.5,554856.295,560233.527,1,40,4,
sequence,flow.Sequence,8_3,2023-11-15T18:42:52.023Z,,,,,,,,,,5361.304999993998,completion,,,,,,,low,high,,,,,,false,,,,true,560218.5,560217.599999994,554839.569,554848.5,554856.295,560233.527,1,40,,
trial,html.Screen,8_4_0,2023-11-15T18:42:55.733Z,,,,2,0.0109416414475118,0.005246498750811,,true,hh,3694.5729999940377,response,0.9500911450995304,0.8999999999999997,-0.9026242583533295,0.8685004638027202,0.9999999999999998,-0.9499999999999997,high,high,,ISIC_0064279.JPG,,ISIC_0011094.JPG,165,false,hh,keypress(i),0,true,563928.1999999881,563928.099999994,560216.709,560218.6999999881,560233.527,563940.805,1,40,5,
sequence,flow.Sequence,8_4,2023-11-15T18:42:55.733Z,,,,,,,,,,3694.5729999940377,completion,,,,,,,high,high,,,,,,false,,,,true,563928.400000006,563928.099999994,560216.709,560218.6999999881,560233.527,563940.805,1,40,,
trial,html.Screen,8_5_0,2023-11-15T18:42:57.917Z,,,,2,0.0010920693448107,0.0492408806128631,,false,ll,2171.5950000059092,response,-0.7991077882008257,0.8592958044511252,-0.9026242583533295,-0.9500689037516484,0.9999999999999998,-0.9499999999999997,low,low,,ISIC_6155981.JPG,,ISIC_0013498.JPG,158,false,hh,keypress(i),0,true,566112.599999994,566112.400000006,563924.169,563928.400000006,563940.805,566128.214,1,40,6,
sequence,flow.Sequence,8_5,2023-11-15T18:42:57.917Z,,,,,,,,,,2171.5950000059092,completion,,,,,,,low,low,,,,,,false,,,,true,566112.8000000119,566112.400000006,563924.169,563928.400000006,563940.805,566128.214,1,40,,
trial,html.Screen,8_6_0,2023-11-15T18:43:02.310Z,,,,2,0.0088741920055285,0.0058246074740588,,false,hl,4377.186000005924,response,0.9089402323867112,0.8592958044511252,-0.9526242583533295,-0.8034544077281132,0.9999999999999998,-0.9999999999999998,high,low,,ISIC_4136663.JPG,,ISIC_3585381.JPG,31,false,lh,keypress(e),0,true,570505.6999999881,570505.400000006,566111.8,566113,566128.214,570520.141,1,40,7,
sequence,flow.Sequence,8_6,2023-11-15T18:43:02.310Z,,,,,,,,,,4377.186000005924,completion,,,,,,,high,low,,,,,,false,,,,true,570506.099999994,570505.400000006,566111.8,566112.900000006,566128.214,570520.141,1,40,,
trial,html.Screen,8_7_0,2023-11-15T18:43:12.822Z,,,,2,0.049790040126711,-0.0195291725171472,,true,ll,10497.659000011976,response,-0.8618587928964498,0.9092958044511252,-0.9526242583533295,-0.9138141165916164,0.9999999999999998,-1.0499999999999998,low,low,,ISIC_0372902.JPG,,ISIC_0004564.JPG,110,false,ll,keypress(f),0,true,581018,581017.8000000119,570503.497,570506.3000000119,570520.141,581023.912,1,40,8,
sequence,flow.Sequence,8_7,2023-11-15T18:43:12.823Z,,,,,,,,,,10497.659000011976,completion,,,,,,,low,low,,,,,,false,,,,true,581018.599999994,581017.8000000119,570503.497,570506.3000000119,570520.141,581023.912,1,40,,
trial,html.Screen,8_8_0,2023-11-15T18:43:15.886Z,,,,2,-0.0076984477620101,-0.0069458408496562,,false,lh,3057.3880000119098,response,-0.8472024037189965,0.8592958044511252,-0.9026242583533295,0.986370061404882,0.9499999999999997,-0.9999999999999998,low,high,,ISIC_0000434.JPG,,ISIC_0054355.JPG,22,false,ll,keypress(f),0,true,584081.6999999881,584081.3000000119,581007.104,581018.6999999881,581023.912,584096.786,1,40,9,
sequence,flow.Sequence,8_8,2023-11-15T18:43:15.886Z,,,,,,,,,,3057.3880000119098,completion,,,,,,,low,high,,,,,,false,,,,true,584082.099999994,584081.3000000119,581007.104,581018.6999999881,581023.912,584096.786,1,40,,
trial,html.Screen,8_9_0,2023-11-15T18:43:19.501Z,,,,2,0.0448994009031783,-0.0708723658092544,,false,lh,3599.313999994076,response,-0.6928402368686908,0.8592958044511252,-0.8305082601553064,0.8182069330979422,0.9999999999999998,-0.9999999999999998,low,high,,ISIC_0025238.JPG,,ISIC_0046615.JPG,24,false,ll,keypress(f),0,true,587696.1999999881,587696.099999994,584079.978,584082.3000000119,584096.786,587703.669,1,40,10,
sequence,flow.Sequence,8_9,2023-11-15T18:43:19.501Z,,,,,,,,,,3599.313999994076,completion,,,,,,,low,high,,,,,,false,,,,true,587696.400000006,587696.099999994,584079.978,584082.3000000119,584096.786,587703.669,1,40,,
trial,html.Screen,8_10_0,2023-11-15T18:43:22.286Z,,,,2,0.0607839218394147,0.0567408401627122,,false,hh,2777.6310000119265,response,0.8297929016123204,0.8592958044511252,-0.8305082601553064,1.2477154484166904,1.0499999999999998,-0.9999999999999998,high,high,,ISIC_0026901.JPG,,ISIC_0029495.JPG,158,false,hl,keypress(j),0,true,590481.5,590481.3000000119,587686.837,587696.5,587703.669,590492.4,1,40,11,
sequence,flow.Sequence,8_10,2023-11-15T18:43:22.286Z,,,,,,,,,,2777.6310000119265,completion,,,,,,,high,high,,,,,,false,,,,true,590482,590481.3000000119,587686.837,587696.5,587703.669,590492.4,1,40,,
trial,html.Screen,8_11_0,2023-11-15T18:43:24.964Z,,,,2,-0.0447960916594447,-0.0451557856659748,,false,lh,2667.5999999999767,response,-0.6232846435651058,0.8092958044511251,-0.7805082601553064,0.870797302150167,1.0499999999999998,-0.9499999999999997,low,high,,ISIC_1379405.JPG,,ISIC_0055841.JPG,23,false,hh,keypress(i),0,true,593160.099999994,593160,590475.615,590482.1999999881,590492.4,593164.177,1,40,12,
sequence,flow.Sequence,8_11,2023-11-15T18:43:24.965Z,,,,,,,,,,2667.5999999999767,completion,,,,,,,low,high,,,,,,false,,,,true,593160.1999999881,593160,590475.615,590482.1999999881,590492.4,593164.177,1,40,,
trial,html.Screen,8_12_0,2023-11-15T18:43:28.092Z,,,,2,0.0074667911845194,-0.018500200317654,,false,hh,3123.7230000059353,response,0.7001417721559454,0.8092958044511251,-0.8305082601553064,1.114502123877908,1.0499999999999998,-0.9499999999999997,high,high,,ISIC_0058723.JPG,,ISIC_0014795.JPG,167,false,ll,keypress(f),0,true,596288,596287.900000006,593147.584,593160.400000006,593164.177,596303.678,1,40,13,
sequence,flow.Sequence,8_12,2023-11-15T18:43:28.092Z,,,,,,,,,,3123.7230000059353,completion,,,,,,,high,high,,,,,,false,,,,true,596288.1999999881,596287.900000006,593147.584,593160.3000000119,593164.177,596303.678,1,40,,
trial,html.Screen,8_13_0,2023-11-15T18:43:30.244Z,,,,2,0.0241900387072296,-0.0339955304424736,,false,lh,2136.2220000060042,response,-0.8830264383952469,0.8092958044511251,-0.7805082601553064,0.8635562538060516,1.0499999999999998,-0.8999999999999997,low,high,,ISIC_0010789.JPG,,ISIC_0032258.JPG,23,false,hh,keypress(i),0,true,598440,598439.900000006,596287.073,596288.1999999881,596303.678,598458.872,1,40,14,
sequence,flow.Sequence,8_13,2023-11-15T18:43:30.244Z,,,,,,,,,,2136.2220000060042,completion,,,,,,,low,high,,,,,,false,,,,true,598440.1999999881,598439.900000006,596287.073,596288.1999999881,596303.678,598458.872,1,40,,
trial,html.Screen,8_14_0,2023-11-15T18:43:33.636Z,,,,2,0.0010920693448107,0.0492408806128631,,false,lh,3373.0280000059865,response,-0.7246771568562105,0.7592958044511251,-0.7805082601553064,0.9161385080362604,0.9999999999999998,-0.8499999999999996,low,high,,ISIC_6155981.JPG,,ISIC_0028225.JPG,29,false,hh,keypress(i),0,true,601832,601831.900000006,598424.701,598440.1999999881,598458.872,601847.801,1,40,15,
sequence,flow.Sequence,8_14,2023-11-15T18:43:33.636Z,,,,,,,,,,3373.0280000059865,completion,,,,,,,low,high,,,,,,false,,,,true,601832,601831.900000006,598424.701,598440.1999999881,598458.872,601847.801,1,40,,
trial,html.Screen,8_15_0,2023-11-15T18:43:35.428Z,,,,2,-0.0447960916594447,-0.0451557856659748,,false,lh,1776.0990000059828,response,-0.7883321712536753,0.7592958044511251,-0.8305082601553064,1.0011430756825364,0.839847380921156,-0.8499999999999996,low,high,,ISIC_1379405.JPG,,ISIC_9828853.JPG,47,false,hh,keypress(i),0,true,603624,603623.900000006,601831.058,601832.1999999881,601847.801,603634.605,1,40,16,
sequence,flow.Sequence,8_15,2023-11-15T18:43:35.428Z,,,,,,,,,,1776.0990000059828,completion,,,,,,,low,high,,,,,,false,,,,true,603624.099999994,603623.900000006,601831.058,601832.1999999881,601847.801,603634.605,1,40,,
trial,html.Screen,8_16_0,2023-11-15T18:43:38.364Z,,,,2,-0.0447960916594447,-0.0451557856659748,,false,ll,2925.1950000119396,response,-0.7945270488878992,0.7592958044511251,-0.8805082601553065,-0.9054354695775536,0.839847380921156,-0.8499999999999996,low,low,,ISIC_1379405.JPG,,ISIC_5820693.JPG,194,false,hh,keypress(i),0,true,606560,606559.8000000119,603618.141,603624.099999994,603634.605,606573.674,1,40,17,
sequence,flow.Sequence,8_16,2023-11-15T18:43:38.364Z,,,,,,,,,,2925.1950000119396,completion,,,,,,,low,low,,,,,,false,,,,true,606560.099999994,606559.8000000119,603618.141,603624.099999994,603634.605,606573.674,1,40,,
trial,html.Screen,8_17_0,2023-11-15T18:43:44.461Z,,,,2,-0.0703653376600499,0.0206740478999942,,false,hl,6082.226000005961,response,0.5953360851109509,0.7592958044511251,-0.9305082601553065,-0.8079777101087358,0.839847380921156,-0.8999999999999997,high,low,,ISIC_4899386.JPG,,ISIC_7852890.JPG,64,false,hh,keypress(i),0,true,612656,612655.900000006,606557.028,606560.099999994,606573.674,612668.864,1,40,18,
sequence,flow.Sequence,8_17,2023-11-15T18:43:44.461Z,,,,,,,,,,6082.226000005961,completion,,,,,,,high,low,,,,,,false,,,,true,612656.099999994,612655.900000006,606557.028,606560.099999994,606573.674,612668.864,1,40,,
trial,html.Screen,8_18_0,2023-11-15T18:43:47.558Z,,,,2,-0.07101539702336,0.0351358305415709,,false,hl,3084.5360000060173,response,0.5884950326798901,0.7592958044511251,-0.9305082601553065,-1.1077754321509423,0.839847380921156,-0.9499999999999997,high,low,,ISIC_0033279.JPG,,ISIC_4548995.JPG,55,false,lh,keypress(e),0,true,615753.599999994,615753.400000006,612652.322,612656.1999999881,612668.864,615758.245,1,40,19,
sequence,flow.Sequence,8_18,2023-11-15T18:43:47.559Z,,,,,,,,,,3084.5360000060173,completion,,,,,,,high,low,,,,,,false,,,,true,615754,615753.400000006,612652.322,612656.1999999881,612668.864,615758.245,1,40,,
trial,html.Screen,8_19_0,2023-11-15T18:43:50.750Z,,,,2,0.0109416414475118,0.005246498750811,,false,ll,3187.0550000119256,response,-1.00975234958099,0.8092958044511251,-0.9305082601553065,-0.958677033057289,0.839847380921156,-0.9999999999999998,low,low,,ISIC_0064279.JPG,,ISIC_0976232.JPG,128,false,hh,keypress(i),0,true,618945.6999999881,618945.3000000119,615741.418,615754.3000000119,615758.245,618965.014,1,40,20,
sequence,flow.Sequence,8_19,2023-11-15T18:43:50.751Z,,,,,,,,,,3187.0550000119256,completion,,,,,,,low,low,,,,,,false,,,,true,618946.1999999881,618945.3000000119,615741.418,615754.099999994,615758.245,618965.014,1,40,,
trial,html.Screen,8_20_0,2023-11-15T18:43:56.286Z,,,,2,-0.0715931084231032,0.011427878877272,,true,hl,5516.4860000000335,response,0.8500530224490773,0.8092958044511251,-0.9805082601553066,-1.0893360711742854,0.839847380921156,-1.0499999999999998,high,low,,ISIC_1470250.JPG,,ISIC_2998367.JPG,30,false,hl,keypress(j),0,true,624481.6999999881,624481.5,618931.093,618946.400000006,618965.014,624491.826,1,40,21,
sequence,flow.Sequence,8_20,2023-11-15T18:43:56.287Z,,,,,,,,,,5516.4860000000335,completion,,,,,,,high,low,,,,,,false,,,,true,624482.1999999881,624481.5,618931.093,618946.3000000119,618965.014,624491.826,1,40,,
trial,html.Screen,8_21_0,2023-11-15T18:43:59.238Z,,,,2,-0.066631540328269,-0.005292120470259,,false,lh,2940.97400001192,response,-0.8926515927689261,0.8092958044511251,-0.9805082601553066,0.7935960767768927,0.839847380921156,-1.0499999999999998,low,high,,ISIC_8041550.JPG,,ISIC_8901371.JPG,31,false,hh,keypress(i),0,true,627433,627432.8000000119,624475.29,624482.5,624491.826,627447.628,1,40,22,
sequence,flow.Sequence,8_21,2023-11-15T18:43:59.238Z,,,,,,,,,,2940.97400001192,completion,,,,,,,low,high,,,,,,false,,,,true,627433.5,627432.8000000119,624475.29,624482.400000006,624491.826,627447.628,1,40,,
trial,html.Screen,8_22_0,2023-11-15T18:44:01.511Z,,,,2,-0.0394300226801425,0.0536115913979284,,false,hl,2257.9719999940135,response,0.6546079444168281,0.8092958044511251,-1.0305082601553066,-1.1750459687878738,0.7898473809211559,-1.0499999999999998,high,low,,ISIC_0046983.JPG,,ISIC_4352700.JPG,30,false,hh,keypress(i),0,true,629705.900000006,629705.599999994,627430.896,627433.6999999881,627447.628,629718.917,1,40,23,
sequence,flow.Sequence,8_22,2023-11-15T18:44:01.511Z,,,,,,,,,,2257.9719999940135,completion,,,,,,,high,low,,,,,,false,,,,true,629706.3000000119,629705.599999994,627430.896,627433.6999999881,627447.628,629718.917,1,40,,
trial,html.Screen,8_23_0,2023-11-15T18:44:04.029Z,,,,2,-0.0464691161264081,-0.0535296539628673,,false,hh,2505.1829999940237,response,0.7629156031079986,0.7592958044511251,-1.0305082601553066,0.6585635085213697,0.7898473809211559,-1.0999999999999999,high,high,,ISIC_0758797.JPG,,ISIC_0025796.JPG,266,false,hl,keypress(j),0,true,632224.1999999881,632224.099999994,629702.131,629706.599999994,629718.917,632240.375,1,40,24,
sequence,flow.Sequence,8_23,2023-11-15T18:44:04.029Z,,,,,,,,,,2505.1829999940237,completion,,,,,,,high,high,,,,,,false,,,,true,632224.400000006,632224.099999994,629702.131,629706.5,629718.917,632240.375,1,40,,
trial,html.Screen,8_24_0,2023-11-15T18:44:11.253Z,,,,2,0.0223011224608011,-0.0466190802905965,,true,lh,7207.7249999940395,response,-0.8472024037189965,0.7592958044511251,-1.0305082601553066,0.986370061404882,0.839847380921156,-1.0999999999999999,low,high,,ISIC_0028041.JPG,,ISIC_0054355.JPG,28,false,lh,keypress(e),0,true,639448.1999999881,639448.099999994,632223.719,632224.400000006,632240.375,639454.3,1,40,25,
sequence,flow.Sequence,8_24,2023-11-15T18:44:11.253Z,,,,,,,,,,7207.7249999940395,completion,,,,,,,low,high,,,,,,false,,,,true,639448.400000006,639448.099999994,632223.719,632224.400000006,632240.375,639454.3,1,40,,
trial,html.Screen,8_25_0,2023-11-15T18:44:15.838Z,,,,2,-0.0267918352484299,-0.0630167830859455,,true,ll,4579.100000005914,response,-0.8666323445825409,0.7592958044511251,-1.0305082601553066,-0.9101747326852082,0.839847380921156,-1.0999999999999999,low,low,,ISIC_0064874.JPG,,ISIC_9155028.JPG,86,false,ll,keypress(f),0,true,644033.599999994,644033.400000006,639437.653,639448.400000006,639454.3,644046.655,1,40,26,
sequence,flow.Sequence,8_25,2023-11-15T18:44:15.839Z,,,,,,,,,,4579.100000005914,completion,,,,,,,low,low,,,,,,false,,,,true,644034.099999994,644033.400000006,639437.653,639448.400000006,639454.3,644046.655,1,40,,
trial,html.Screen,8_26_0,2023-11-15T18:44:23.087Z,,,,2,-0.0249297455748133,0.055986418955019,,false,ll,7234.944999994012,response,-1.0067659067144603,0.7592958044511251,-0.8384035386338745,-1.1702231398575993,0.839847380921156,-1.0999999999999999,low,low,,ISIC_3900049.JPG,,ISIC_0064784.JPG,128,false,hh,keypress(i),0,true,651282,651281.599999994,644029.863,644034.3000000119,644046.655,651294.124,1,40,27,
sequence,flow.Sequence,8_26,2023-11-15T18:44:23.087Z,,,,,,,,,,7234.944999994012,completion,,,,,,,low,low,,,,,,false,,,,true,651282.400000006,651281.599999994,644029.863,644034.3000000119,644046.655,651294.124,1,40,,
trial,html.Screen,8_27_0,2023-11-15T18:44:28.406Z,,,,2,0.0473541545202326,-0.0294076954053606,,false,ll,5307.276000006008,response,-0.8596006200412799,0.7592958044511251,-0.8884035386338746,-0.9571430175944712,0.839847380921156,-1.15,low,low,,ISIC_0034065.JPG,,ISIC_0663824.JPG,99,false,hh,keypress(i),0,true,656601.8000000119,656601.400000006,651277.51,651282.599999994,651294.124,656604.439,1,40,28,
sequence,flow.Sequence,8_27,2023-11-15T18:44:28.407Z,,,,,,,,,,5307.276000006008,completion,,,,,,,low,low,,,,,,false,,,,true,656602.1999999881,656601.400000006,651277.51,651282.599999994,651294.124,656604.439,1,40,,
trial,html.Screen,8_28_0,2023-11-15T18:44:30.830Z,,,,2,0.0326050223870869,0.0579165897319751,,false,ll,2420.861000011908,response,-0.7478820658309226,0.7592958044511251,-0.9384035386338746,-1.19285775565732,0.839847380921156,-1.15,low,low,,ISIC_4570724.JPG,,ISIC_0013342.JPG,95,false,hh,keypress(i),0,true,659025.599999994,659025.3000000119,656587.792,656602.5,656604.439,659042.696,1,40,29,
sequence,flow.Sequence,8_28,2023-11-15T18:44:30.831Z,,,,,,,,,,2420.861000011908,completion,,,,,,,low,low,,,,,,false,,,,true,659026.099999994,659025.3000000119,656587.792,656602.5,656604.439,659042.696,1,40,,
trial,html.Screen,8_29_0,2023-11-15T18:44:34.406Z,,,,2,-0.066631540328269,-0.005292120470259,,false,lh,3558.1040000119247,response,-0.8472024037189965,0.7592958044511251,-0.9884035386338746,0.986370061404882,0.839847380921156,-1.15,low,high,,ISIC_8041550.JPG,,ISIC_0054355.JPG,29,false,hl,keypress(j),0,true,662601.099999994,662600.8000000119,659025.974,659026.3000000119,659042.696,662616.129,1,40,30,
sequence,flow.Sequence,8_29,2023-11-15T18:44:34.406Z,,,,,,,,,,3558.1040000119247,completion,,,,,,,low,high,,,,,,false,,,,true,662601.3000000119,662600.8000000119,659025.974,659026.1999999881,659042.696,662616.129,1,40,,
trial,html.Screen,8_30_0,2023-11-15T18:44:37.671Z,,,,2,-0.0119001144851157,0.0063430114540141,,false,hl,3249.371000000043,response,0.7856143618373893,0.7592958044511251,-1.0384035386338746,-1.0273608829432213,0.889847380921156,-1.15,high,low,,ISIC_0003822.JPG,,ISIC_9303849.JPG,25,false,hh,keypress(i),0,true,665865.8000000119,665865.5,662599.551,662601.400000006,662616.129,665872.384,1,40,31,
sequence,flow.Sequence,8_30,2023-11-15T18:44:37.671Z,,,,,,,,,,3249.371000000043,completion,,,,,,,high,low,,,,,,false,,,,true,665866.3000000119,665865.5,662599.551,662601.400000006,662616.129,665872.384,1,40,,
trial,html.Screen,8_31_0,2023-11-15T18:44:40.253Z,,,,2,-0.0423567271646023,-0.0380126882576854,,false,hl,2575.8159999881173,response,0.6284406742939498,0.7092958044511251,-1.0384035386338746,-0.9882196642247332,0.889847380921156,-1.15,high,low,,ISIC_0046932.JPG,,ISIC_0014255.JPG,27,false,hh,keypress(i),0,true,668448.400000006,668448.1999999881,665855.848,665866.5,665872.384,668460.935,1,40,32,
sequence,flow.Sequence,8_31,2023-11-15T18:44:40.253Z,,,,,,,,,,2575.8159999881173,completion,,,,,,,high,low,,,,,,false,,,,true,668448.5,668448.1999999881,665855.848,665866.400000006,665872.384,668460.935,1,40,,
trial,html.Screen,8_32_0,2023-11-15T18:44:43.879Z,,,,2,0.0632965338582772,0.0107588824722911,,true,hl,3612.365000011865,response,0.8500530224490773,0.7092958044511251,-1.0384035386338746,-1.0893360711742854,0.889847380921156,-1.15,high,low,,ISIC_1265755.JPG,,ISIC_2998367.JPG,27,false,hl,keypress(j),0,true,672073.599999994,672073.3000000119,668444.273,668448.6999999881,668460.935,672084.473,1,40,33,
sequence,flow.Sequence,8_32,2023-11-15T18:44:43.879Z,,,,,,,,,,3612.365000011865,completion,,,,,,,high,low,,,,,,false,,,,true,672074.099999994,672073.3000000119,668444.273,668448.599999994,668460.935,672084.473,1,40,,
trial,html.Screen,8_33_0,2023-11-15T18:44:48.383Z,,,,2,-0.0524649813000588,0.0155452034299028,,false,hh,4493.226999988081,response,0.7208227349054466,0.659295804451125,-1.0384035386338746,0.8473281312318933,0.889847380921156,-1.15,high,high,,ISIC_0030087.JPG,,ISIC_0032181.JPG,254,false,hl,keypress(j),0,true,676578.099999994,676577.6999999881,672067.987,672074.400000006,672084.473,676593.349,1,40,34,
sequence,flow.Sequence,8_33,2023-11-15T18:44:48.384Z,,,,,,,,,,4493.226999988081,completion,,,,,,,high,high,,,,,,false,,,,true,676578.5,676577.6999999881,672067.987,672074.3000000119,672084.473,676593.349,1,40,,
trial,html.Screen,8_34_0,2023-11-15T18:44:51.079Z,,,,2,0.0109416414475118,0.005246498750811,,true,hh,2680.051000005915,response,0.5010117094192726,0.659295804451125,-1.0384035386338746,0.9862316630473112,0.939847380921156,-1.15,high,high,,ISIC_0064279.JPG,,ISIC_0031005.JPG,241,false,hh,keypress(i),0,true,679273.6999999881,679273.400000006,676576.622,676578.8000000119,676593.349,679281.841,1,40,35,
sequence,flow.Sequence,8_34,2023-11-15T18:44:51.079Z,,,,,,,,,,2680.051000005915,completion,,,,,,,high,high,,,,,,false,,,,true,679274.1999999881,679273.400000006,676576.622,676578.6999999881,676593.349,679281.841,1,40,,
trial,html.Screen,8_35_0,2023-11-15T18:44:56.695Z,,,,2,0.0367060100866019,0.0630207980628495,,true,hh,5607.658999999985,response,0.6957808286418179,0.6936216862332919,-1.0384035386338746,0.9428791562371496,0.939847380921156,-1.15,high,high,,ISIC_0028396.JPG,,ISIC_0053854.JPG,228,false,hh,keypress(i),0,true,684889.6999999881,684889.5,679265.139,679274.400000006,679281.841,684892.838,1,40,36,
sequence,flow.Sequence,8_35,2023-11-15T18:44:56.695Z,,,,,,,,,,5607.658999999985,completion,,,,,,,high,high,,,,,,false,,,,true,684890.3000000119,684889.5,679265.139,679274.400000006,679281.841,684892.838,1,40,,
trial,html.Screen,8_36_0,2023-11-15T18:45:04.839Z,,,,2,0.0473541545202326,-0.0294076954053606,,false,hh,8140.86199998809,response,0.8312823923310584,0.6936216862332919,-1.0384035386338746,0.9576418532667232,0.7693299924394836,-1.15,high,high,,ISIC_0034065.JPG,,ISIC_3688407.JPG,285,false,lh,keypress(e),0,true,693034,693033.6999999881,684876.241,684890.5,684892.838,693041.94,1,40,37,
sequence,flow.Sequence,8_36,2023-11-15T18:45:04.840Z,,,,,,,,,,8140.86199998809,completion,,,,,,,high,high,,,,,,false,,,,true,693034.599999994,693033.6999999881,684876.241,684890.5,684892.838,693041.94,1,40,,
trial,html.Screen,8_37_0,2023-11-15T18:45:09.717Z,,,,2,-0.0204987932325723,0.0619049476763945,,false,hh,4870.060000000056,response,0.615326706835289,0.743621686233292,-1.0384035386338746,0.6800656902783203,0.7693299924394836,-1.15,high,high,,ISIC_0887792.JPG,,ISIC_8145348.JPG,276,false,ll,keypress(f),0,true,697912.099999994,697912,693025.172,693034.8000000119,693041.94,697918.148,1,40,38,
sequence,flow.Sequence,8_37,2023-11-15T18:45:09.717Z,,,,,,,,,,4870.060000000056,completion,,,,,,,high,high,,,,,,false,,,,true,697912.3000000119,697912,693025.172,693034.6999999881,693041.94,697918.148,1,40,,
trial,html.Screen,8_38_0,2023-11-15T18:45:15.151Z,,,,2,0.0175203912019758,0.0427513576747051,,true,hl,5427.752000005916,response,0.6866466162921743,0.793621686233292,-1.0384035386338746,-0.9993010401520164,0.8193299924394837,-1.15,high,low,,ISIC_0056292.JPG,,ISIC_6155782.JPG,22,false,hl,keypress(j),0,true,703346.1999999881,703345.900000006,697901.483,697912.3000000119,697918.148,703362.279,1,40,39,
sequence,flow.Sequence,8_38,2023-11-15T18:45:15.152Z,,,,,,,,,,5427.752000005916,completion,,,,,,,high,low,,,,,,false,,,,true,703346.6999999881,703345.900000006,697901.483,697912.3000000119,697918.148,703362.279,1,40,,
trial,html.Screen,8_39_0,2023-11-15T18:45:20.807Z,,,,2,0.001445457736793,0.0165307427449982,,false,hl,5639.22100000002,response,0.6493357552537865,0.793621686233292,-1.0384035386338746,-1.085710894474977,0.8193299924394837,-1.0999999999999999,high,low,,ISIC_0027350.JPG,,ISIC_0013644.JPG,32,false,lh,keypress(e),0,true,709001.900000006,709001.5,703345.44,703346.900000006,703362.279,709006.344,1,40,40,
sequence,flow.Sequence,8_39,2023-11-15T18:45:20.808Z,,,,,,,,,,5639.22100000002,completion,,,,,,,high,low,,,,,,false,,,,true,709002.400000006,709001.5,703345.44,703346.8000000119,703362.279,709006.344,1,40,,
stair_loop,flow.Loop,8,2023-11-15T18:45:20.808Z,,,,,,,,,,173165.52500000002,completion,,,,,,,,,,,,,,false,,,,true,709002.8000000119,709001.5,535819.499,535824,535835.975,709006.344,1,40,,
exp_instructions,html.Screen,9,2023-11-15T18:45:36.550Z,,,,,,,,,,15738.05600000592,response,,,,,,,,,,,,,,,continue,keypress(Space),,,724745.1999999881,724744.400000006,708989.842,709003,709006.344,724753.67,,,,
trial,html.Screen,10_0_0,2023-11-15T18:45:44.127Z,,,,1,-0.0267918352484299,-0.0630167830859455,,true,lh,7567.829999999958,response,-0.8926515927689261,0.7478772748966669,-1.0060349550903043,0.7935960767768927,0.8457439032248215,-1.1224999999999998,low,high,,ISIC_0064874.JPG,9,ISIC_8901371.JPG,28,false,lh,keypress(e),0,false,732321.8000000119,732321.5,724737.259,724745.599999994,724753.67,732335.173,4,500,1,
break,html.Screen,10_0_1,2023-11-15T18:45:44.129Z,,,,,,,,,,NaN,,,,,,,,low,high,,,,,,false,,,,false,732323.3000000119,732322.8000000119,,732322.1999999881,,732335.173,4,500,,
break_continue,html.Screen,10_0_2,2023-11-15T18:45:44.130Z,,,,,,,,,,NaN,,,,,,,,low,high,,,,,,false,,,,false,732324.6999999881,732324.099999994,,732323.6999999881,,732335.173,4,500,,
sequence,flow.Sequence,10_0,2023-11-15T18:45:44.131Z,,,,,,,,,,7570.429999993998,completion,,,,,,,low,high,,,,,,false,,,,false,732325,732324.099999994,724737.259,724745.599999994,724753.67,732335.173,4,500,,
trial,html.Screen,10_1_0,2023-11-15T18:45:48.952Z,,,,1,0.0146597765042814,0.06222227493177,,true,ll,4810.727000006009,response,-1.0211808747755002,0.7478772748966669,-1.0060349550903043,-0.9580728810269548,0.8457439032248215,-1.1224999999999998,low,low,,ISIC_5982769.JPG,10,ISIC_1211506.JPG,82,false,ll,keypress(f),0,false,737146.1999999881,737145.900000006,732318.555,732325.3000000119,732335.173,737161.177,4,500,2,
break,html.Screen,10_1_1,2023-11-15T18:45:48.953Z,,,,,,,,,,NaN,,,,,,,,low,low,,,,,,false,,,,false,737147.3000000119,737147,,737146.599999994,,737161.177,4,500,,
break_continue,html.Screen,10_1_2,2023-11-15T18:45:48.954Z,,,,,,,,,,NaN,,,,,,,,low,low,,,,,,false,,,,false,737148.1999999881,737147.900000006,,737147.599999994,,737161.177,4,500,,
sequence,flow.Sequence,10_1,2023-11-15T18:45:48.954Z,,,,,,,,,,4812.727000006009,completion,,,,,,,low,low,,,,,,false,,,,false,737148.599999994,737147.900000006,732318.555,732325.1999999881,732335.173,737161.177,4,500,,
trial,html.Screen,10_2_0,2023-11-15T18:45:54.247Z,,,,1,0.0374659946425444,0.0086043094957617,,false,hh,5280.322999999975,response,0.6191586312921425,0.7478772748966669,-1.0060349550903043,0.9733061422664008,0.8457439032248215,-1.1224999999999998,high,high,,ISIC_0033051.JPG,9,ISIC_2987613.JPG,256,false,lh,keypress(e),0,false,742441.8000000119,742441.5,737144.479,737148.8000000119,737161.177,742455.049,4,500,3,
break,html.Screen,10_2_1,2023-11-15T18:45:54.248Z,,,,,,,,,,NaN,,,,,,,,high,high,,,,,,false,,,,false,742442.5,742442.400000006,,742442.1999999881,,742455.049,4,500,,
break_continue,html.Screen,10_2_2,2023-11-15T18:45:54.248Z,,,,,,,,,,NaN,,,,,,,,high,high,,,,,,false,,,,false,742442.6999999881,742442.6999999881,,742442.599999994,,742455.049,4,500,,
sequence,flow.Sequence,10_2,2023-11-15T18:45:54.248Z,,,,,,,,,,5281.522999988054,completion,,,,,,,high,high,,,,,,false,,,,false,742442.8000000119,742442.6999999881,737144.479,737148.6999999881,737161.177,742455.049,4,500,,
trial,html.Screen,10_3_0,2023-11-15T18:45:57.607Z,,,,1,-0.0727065082131878,-0.0601627969482033,,false,lh,3346.5509999940405,response,-0.8472024037189965,0.7478772748966669,-1.0060349550903043,0.986370061404882,0.8457439032248215,-1.1224999999999998,low,high,,ISIC_2245069.JPG,9,ISIC_0054355.JPG,28,false,hl,keypress(j),0,false,745802,745801.599999994,742438.293,742442.8000000119,742455.049,745811.339,4,500,4,
break,html.Screen,10_3_1,2023-11-15T18:45:57.609Z,,,,,,,,,,NaN,,,,,,,,low,high,,,,,,false,,,,false,745803.099999994,745802.900000006,,745802.400000006,,745811.339,4,500,,
break_continue,html.Screen,10_3_2,2023-11-15T18:45:57.609Z,,,,,,,,,,NaN,,,,,,,,low,high,,,,,,false,,,,false,745804,745803.599999994,,745803.3000000119,,745811.339,4,500,,
sequence,flow.Sequence,10_3,2023-11-15T18:45:57.610Z,,,,,,,,,,3348.5509999940405,completion,,,,,,,low,high,,,,,,false,,,,false,745804.3000000119,745803.599999994,742438.293,742442.8000000119,742455.049,745811.339,4,500,,
trial,html.Screen,10_4_0,2023-11-15T18:46:01.920Z,,,,1,0.0107170641394226,-0.0596294643429623,,false,lh,4302.461000011885,response,-0.930804711032185,0.7478772748966669,-1.0060349550903043,0.7294067991476295,0.8457439032248215,-1.1224999999999998,low,high,,ISIC_0005291.JPG,9,ISIC_5067317.JPG,28,false,hh,keypress(i),0,false,750114.099999994,750113.8000000119,745794.692,745804.5,745811.339,750119.698,4,500,5,
break,html.Screen,10_4_1,2023-11-15T18:46:01.921Z,,,,,,,,,,NaN,,,,,,,,low,high,,,,,,false,,,,false,750115.3000000119,750115,,750114.5,,750119.698,4,500,,
break_continue,html.Screen,10_4_2,2023-11-15T18:46:01.922Z,,,,,,,,,,NaN,,,,,,,,low,high,,,,,,false,,,,false,750116.1999999881,750115.8000000119,,750115.599999994,,750119.698,4,500,,
sequence,flow.Sequence,10_4,2023-11-15T18:46:01.922Z,,,,,,,,,,4304.461000011885,completion,,,,,,,low,high,,,,,,false,,,,false,750116.5,750115.8000000119,745794.692,745804.400000006,745811.339,750119.698,4,500,,
trial,html.Screen,10_5_0,2023-11-15T18:46:07.414Z,,,,1,-0.0367706518941078,0.0161069838272154,,true,hh,5488.702000005986,response,0.6952200802348092,0.7478772748966669,-1.0060349550903043,0.7354713649582957,0.8457439032248215,-1.1224999999999998,high,high,,ISIC_0033419.JPG,9,ISIC_0072292.JPG,256,false,hh,keypress(i),0,false,755608.5,755608.400000006,750102.981,750116.6999999881,750119.698,755613.756,4,500,6,
break,html.Screen,10_5_1,2023-11-15T18:46:07.414Z,,,,,,,,,,NaN,,,,,,,,high,high,,,,,,false,,,,false,755608.900000006,755608.8000000119,,755608.599999994,,755613.756,4,500,,
break_continue,html.Screen,10_5_2,2023-11-15T18:46:07.415Z,,,,,,,,,,NaN,,,,,,,,high,high,,,,,,false,,,,false,755609.1999999881,755609.099999994,,755609,,755613.756,4,500,,
sequence,flow.Sequence,10_5,2023-11-15T18:46:07.415Z,,,,,,,,,,5489.401999994065,completion,,,,,,,high,high,,,,,,false,,,,false,755609.3000000119,755609.099999994,750102.981,750116.6999999881,750119.698,755613.756,4,500,,
trial,html.Screen,10_6_0,2023-11-15T18:46:11.143Z,,,,1,-0.0464691161264081,-0.0535296539628673,,true,hl,3723.8439999939874,response,0.6546079444168281,0.7478772748966669,-1.0060349550903043,-1.1750459687878738,0.8457439032248215,-1.1224999999999998,high,low,,ISIC_0758797.JPG,9,ISIC_4352700.JPG,26,false,hl,keypress(j),0,false,759337.900000006,759337.599999994,755597.235,755609.5,755613.756,759354.627,4,500,7,
break,html.Screen,10_6_1,2023-11-15T18:46:11.144Z,,,,,,,,,,NaN,,,,,,,,high,low,,,,,,false,,,,false,759339,759338.6999999881,,759338.3000000119,,759354.627,4,500,,
break_continue,html.Screen,10_6_2,2023-11-15T18:46:11.145Z,,,,,,,,,,NaN,,,,,,,,high,low,,,,,,false,,,,false,759339.900000006,759339.400000006,,759339.1999999881,,759354.627,4,500,,
sequence,flow.Sequence,10_6,2023-11-15T18:46:11.146Z,,,,,,,,,,3725.6440000059083,completion,,,,,,,high,low,,,,,,false,,,,false,759340.099999994,759339.400000006,755597.235,755609.400000006,755613.756,759354.627,4,500,,
trial,html.Screen,10_7_0,2023-11-15T18:46:13.358Z,,,,1,0.0395587463147856,-0.0645068093068572,,true,hl,2197.5729999881005,response,0.8500530224490773,0.7478772748966669,-1.0060349550903043,-1.0893360711742854,0.8457439032248215,-1.1224999999999998,high,low,,ISIC_0010807.JPG,8,ISIC_2998367.JPG,26,false,hl,keypress(j),0,false,761552.3000000119,761552.1999999881,759337.921,759340.400000006,759354.627,761558.651,4,500,8,
break,html.Screen,10_7_1,2023-11-15T18:46:13.358Z,,,,,,,,,,NaN,,,,,,,,high,low,,,,,,false,,,,false,761552.599999994,761552.599999994,,761552.400000006,,761558.651,4,500,,
break_continue,html.Screen,10_7_2,2023-11-15T18:46:13.358Z,,,,,,,,,,NaN,,,,,,,,high,low,,,,,,false,,,,false,761552.8000000119,761552.8000000119,,761552.6999999881,,761558.651,4,500,,
sequence,flow.Sequence,10_7,2023-11-15T18:46:13.358Z,,,,,,,,,,2198.1730000119423,completion,,,,,,,high,low,,,,,,false,,,,false,761552.900000006,761552.8000000119,759337.921,759340.400000006,759354.627,761558.651,4,500,,
trial,html.Screen,10_8_0,2023-11-15T18:46:22.207Z,,,,1,-0.0220026381002083,0.0170756452911772,,true,ll,8842.849000000046,response,-0.9000661178885296,0.7478772748966669,-1.0060349550903043,-1.086658647698992,0.8457439032248215,-1.1224999999999998,low,low,,ISIC_5347806.JPG,9,ISIC_7407847.JPG,82,false,ll,keypress(f),0,false,770401.900000006,770401.5,761541.937,761553,761558.651,770409.21,4,500,9,
break,html.Screen,10_8_1,2023-11-15T18:46:22.209Z,,,,,,,,,,NaN,,,,,,,,low,low,,,,,,false,,,,false,770403.099999994,770402.8000000119,,770402.3000000119,,770409.21,4,500,,
break_continue,html.Screen,10_8_2,2023-11-15T18:46:22.210Z,,,,,,,,,,NaN,,,,,,,,low,low,,,,,,false,,,,false,770404.099999994,770403.599999994,,770403.400000006,,770409.21,4,500,,
sequence,flow.Sequence,10_8,2023-11-15T18:46:22.210Z,,,,,,,,,,8844.948999994085,completion,,,,,,,low,low,,,,,,false,,,,false,770404.400000006,770403.599999994,761541.937,761553,761558.651,770409.21,4,500,,
trial,html.Screen,10_9_0,2023-11-15T18:46:25.536Z,,,,1,-0.0009714874637896,0.0174815595031679,,false,lh,3320.6900000059977,response,-1.075512775389519,0.7478772748966669,-1.0060349550903043,1.0454702683049502,0.8457439032248215,-1.1224999999999998,low,high,,ISIC_9848743.JPG,9,ISIC_0033603.JPG,28,false,ll,keypress(f),0,false,773730.1999999881,773729.900000006,770392.728,770404.5,770409.21,773749.621,4,500,10,
break,html.Screen,10_9_1,2023-11-15T18:46:25.537Z,,,,,,,,,,NaN,,,,,,,,low,high,,,,,,false,,,,false,773731.5,773731.1999999881,,773730.599999994,,773749.621,4,500,,
break_continue,html.Screen,10_9_2,2023-11-15T18:46:25.538Z,,,,,,,,,,NaN,,,,,,,,low,high,,,,,,false,,,,false,773732.3000000119,773731.900000006,,773731.6999999881,,773749.621,4,500,,
sequence,flow.Sequence,10_9,2023-11-15T18:46:25.538Z,,,,,,,,,,3322.6900000059977,completion,,,,,,,low,high,,,,,,false,,,,false,773732.6999999881,773731.900000006,770392.728,770404.5,770409.21,773749.621,4,500,,
trial,html.Screen,10_10_0,2023-11-15T18:46:35.616Z,,,,1,-0.0634150092059303,0.0177502973253611,,true,ll,10060.179000011878,response,-0.8336927721396412,0.7478772748966669,-1.0060349550903043,-1.1363137800725187,0.8457439032248215,-1.1224999999999998,low,low,,ISIC_0032433.JPG,8,ISIC_0553565.JPG,82,false,ll,keypress(f),0,false,783810.099999994,783809.8000000119,773715.835,773732.900000006,773749.621,783818.65,4,500,11,
break,html.Screen,10_10_1,2023-11-15T18:46:35.617Z,,,,,,,,,,NaN,,,,,,,,low,low,,,,,,false,,,,false,783811.3000000119,783811.099999994,,783810.599999994,,783818.65,4,500,,
break_continue,html.Screen,10_10_2,2023-11-15T18:46:35.618Z,,,,,,,,,,NaN,,,,,,,,low,low,,,,,,false,,,,false,783812.099999994,783811.8000000119,,783811.5,,783818.65,4,500,,
sequence,flow.Sequence,10_10,2023-11-15T18:46:35.618Z,,,,,,,,,,10062.179000011878,completion,,,,,,,low,low,,,,,,false,,,,false,783812.5,783811.8000000119,773715.835,773732.900000006,773749.621,783818.65,4,500,,
trial,html.Screen,10_11_0,2023-11-15T18:46:37.808Z,,,,1,-0.0643519619373155,-0.0340638715725122,,true,ll,2183.049999988056,response,-1.00975234958099,0.7478772748966669,-1.0060349550903043,-0.958677033057289,0.8457439032248215,-1.1224999999999998,low,low,,ISIC_0066401.JPG,9,ISIC_0976232.JPG,82,false,ll,keypress(f),0,false,786002.099999994,786001.6999999881,783802.187,783812.6999999881,783818.65,786006.325,4,500,12,
break,html.Screen,10_11_1,2023-11-15T18:46:37.809Z,,,,,,,,,,NaN,,,,,,,,low,low,,,,,,false,,,,false,786003.1999999881,786003,,786002.400000006,,786006.325,4,500,,
break_continue,html.Screen,10_11_2,2023-11-15T18:46:37.810Z,,,,,,,,,,NaN,,,,,,,,low,low,,,,,,false,,,,false,786004.1999999881,786003.8000000119,,786003.5,,786006.325,4,500,,
sequence,flow.Sequence,10_11,2023-11-15T18:46:37.810Z,,,,,,,,,,2185.1500000118976,completion,,,,,,,low,low,,,,,,false,,,,false,786004.400000006,786003.8000000119,783802.187,783812.599999994,783818.65,786006.325,4,500,,
trial,html.Screen,10_12_0,2023-11-15T18:46:39.798Z,,,,1,-0.0447960916594447,-0.0451557856659748,,false,lh,1985.8749999881256,response,-0.8075741539776473,0.7478772748966669,-1.0060349550903043,0.7326891894107508,0.8457439032248215,-1.1224999999999998,low,high,,ISIC_1379405.JPG,9,ISIC_3428523.JPG,28,false,ll,keypress(f),0,false,787992.400000006,787992.1999999881,785989.645,786004.6999999881,786006.325,788010.682,4,500,13,
break,html.Screen,10_12_1,2023-11-15T18:46:39.798Z,,,,,,,,,,NaN,,,,,,,,low,high,,,,,,false,,,,false,787992.8000000119,787992.8000000119,,787992.5,,788010.682,4,500,,
break_continue,html.Screen,10_12_2,2023-11-15T18:46:39.799Z,,,,,,,,,,NaN,,,,,,,,low,high,,,,,,false,,,,false,787993.1999999881,787993.099999994,,787993,,788010.682,4,500,,
sequence,flow.Sequence,10_12,2023-11-15T18:46:39.799Z,,,,,,,,,,1986.774999994086,completion,,,,,,,low,high,,,,,,false,,,,false,787993.3000000119,787993.099999994,785989.645,786004.6999999881,786006.325,788010.682,4,500,,
trial,html.Screen,10_13_0,2023-11-15T18:46:44.424Z,,,,1,-0.066631540328269,-0.005292120470259,,true,hh,4607.017999988049,response,0.8246676545482624,0.7478772748966669,-1.0060349550903043,0.6493644905025062,0.8457439032248215,-1.1224999999999998,high,high,,ISIC_8041550.JPG,9,ISIC_0024805.JPG,256,false,hh,keypress(i),0,false,792618.099999994,792617.6999999881,787976.912,787993.400000006,788010.682,792652.577,4,500,14,
break,html.Screen,10_13_1,2023-11-15T18:46:44.425Z,,,,,,,,,,NaN,,,,,,,,high,high,,,,,,false,,,,false,792619.1999999881,792619,,792618.400000006,,792652.577,4,500,,
break_continue,html.Screen,10_13_2,2023-11-15T18:46:44.426Z,,,,,,,,,,NaN,,,,,,,,high,high,,,,,,false,,,,false,792620.099999994,792619.6999999881,,792619.5,,792652.577,4,500,,
sequence,flow.Sequence,10_13,2023-11-15T18:46:44.426Z,,,,,,,,,,4609.017999988049,completion,,,,,,,high,high,,,,,,false,,,,false,792620.5,792619.6999999881,787976.912,787993.400000006,788010.682,792652.577,4,500,,
trial,html.Screen,10_14_0,2023-11-15T18:46:51.104Z,,,,1,-0.0715931084231032,0.011427878877272,,true,hh,6645.2230000118725,response,0.5578522423464433,0.7478772748966669,-1.0060349550903043,0.6852525045761951,0.8457439032248215,-1.1224999999999998,high,high,,ISIC_1470250.JPG,9,ISIC_1850196.JPG,256,false,hh,keypress(i),0,false,799298.1999999881,799297.8000000119,792636.065,792620.6999999881,792652.577,799315.697,4,500,15,
break,html.Screen,10_14_1,2023-11-15T18:46:51.105Z,,,,,,,,,,NaN,,,,,,,,high,high,,,,,,false,,,,false,799299.5,799299.099999994,,799298.599999994,,799315.697,4,500,,
break_continue,html.Screen,10_14_2,2023-11-15T18:46:51.106Z,,,,,,,,,,NaN,,,,,,,,high,high,,,,,,false,,,,false,799300.5,799300,,799299.8000000119,,799315.697,4,500,,
sequence,flow.Sequence,10_14,2023-11-15T18:46:51.107Z,,,,,,,,,,6647.422999999952,completion,,,,,,,high,high,,,,,,false,,,,false,799300.8000000119,799300,792636.065,792620.599999994,792652.577,799315.697,4,500,,
trial,html.Screen,10_15_0,2023-11-15T18:46:54.960Z,,,,1,0.0241900387072296,-0.0339955304424736,,false,lh,3837.8029999999562,response,-0.989300717252516,0.7478772748966669,-1.0060349550903043,0.7908280206937478,0.8457439032248215,-1.1224999999999998,low,high,,ISIC_0010789.JPG,8,ISIC_6416533.JPG,28,false,hh,keypress(i),0,false,803153.8000000119,803153.5,799298.799,799301,799315.697,803156.352,4,500,16,
break,html.Screen,10_15_1,2023-11-15T18:46:54.961Z,,,,,,,,,,NaN,,,,,,,,low,high,,,,,,false,,,,false,803154.900000006,803154.6999999881,,803154.099999994,,803156.352,4,500,,
break_continue,html.Screen,10_15_2,2023-11-15T18:46:54.962Z,,,,,,,,,,NaN,,,,,,,,low,high,,,,,,false,,,,false,803155.8000000119,803155.5,,803155.099999994,,803156.352,4,500,,
sequence,flow.Sequence,10_15,2023-11-15T18:46:54.962Z,,,,,,,,,,3839.8029999999562,completion,,,,,,,low,high,,,,,,false,,,,false,803156.099999994,803155.5,799298.799,799300.900000006,799315.697,803156.352,4,500,,
trial,html.Screen,10_16_0,2023-11-15T18:46:58.560Z,,,,1,0.0395587463147856,-0.0645068093068572,,true,hl,3597.1480000000447,response,0.5884950326798901,0.7478772748966669,-1.0060349550903043,-1.1077754321509423,0.8457439032248215,-1.1224999999999998,high,low,,ISIC_0010807.JPG,10,ISIC_4548995.JPG,26,false,hl,keypress(j),0,false,806753.900000006,806753.5,803139.826,803156.400000006,803156.352,806763.323,4,500,17,
break,html.Screen,10_16_1,2023-11-15T18:46:58.561Z,,,,,,,,,,NaN,,,,,,,,high,low,,,,,,false,,,,false,806755.099999994,806754.8000000119,,806754.3000000119,,806763.323,4,500,,
break_continue,html.Screen,10_16_2,2023-11-15T18:46:58.562Z,,,,,,,,,,NaN,,,,,,,,high,low,,,,,,false,,,,false,806756,806755.599999994,,806755.3000000119,,806763.323,4,500,,
sequence,flow.Sequence,10_16,2023-11-15T18:46:58.562Z,,,,,,,,,,3599.2479999940842,completion,,,,,,,high,low,,,,,,false,,,,false,806756.3000000119,806755.599999994,803139.826,803156.400000006,803156.352,806763.323,4,500,,
trial,html.Screen,10_17_0,2023-11-15T18:47:01.583Z,,,,1,-0.0462522625051681,-0.0088419594888635,,true,ll,3013.2769999940647,response,-1.0777929856705222,0.7478772748966669,-1.0060349550903043,-1.0139833925057518,0.8457439032248215,-1.1224999999999998,low,low,,ISIC_1945381.JPG,9,ISIC_6171084.JPG,82,false,ll,keypress(f),0,false,809776.599999994,809776.599999994,806746.586,806756.599999994,806763.323,809785.946,4,500,18,
break,html.Screen,10_17_1,2023-11-15T18:47:01.583Z,,,,,,,,,,NaN,,,,,,,,low,low,,,,,,false,,,,false,809777,809776.900000006,,809776.8000000119,,809785.946,4,500,,
break_continue,html.Screen,10_17_2,2023-11-15T18:47:01.583Z,,,,,,,,,,NaN,,,,,,,,low,low,,,,,,false,,,,false,809777.1999999881,809777.099999994,,809777,,809785.946,4,500,,
sequence,flow.Sequence,10_17,2023-11-15T18:47:01.583Z,,,,,,,,,,3013.7769999940647,completion,,,,,,,low,low,,,,,,false,,,,false,809777.3000000119,809777.099999994,806746.586,806756.5,806763.323,809785.946,4,500,,
trial,html.Screen,10_18_0,2023-11-15T18:47:05.408Z,,,,1,-0.0076984477620101,-0.0069458408496562,,true,ll,3815.454000005964,response,-0.9483364581769096,0.7478772748966669,-1.0060349550903043,-1.3154097543539391,0.8457439032248215,-1.1224999999999998,low,low,,ISIC_0000434.JPG,9,ISIC_1413242.JPG,82,false,ll,keypress(f),0,false,813601.8000000119,813601.400000006,809769.412,809777.400000006,809785.946,813609.979,4,500,19,
break,html.Screen,10_18_1,2023-11-15T18:47:05.409Z,,,,,,,,,,NaN,,,,,,,,low,low,,,,,,false,,,,false,813603,813602.6999999881,,813602.1999999881,,813609.979,4,500,,
break_continue,html.Screen,10_18_2,2023-11-15T18:47:05.410Z,,,,,,,,,,NaN,,,,,,,,low,low,,,,,,false,,,,false,813604,813603.599999994,,813603.400000006,,813609.979,4,500,,
sequence,flow.Sequence,10_18,2023-11-15T18:47:05.410Z,,,,,,,,,,3817.6539999940433,completion,,,,,,,low,low,,,,,,false,,,,false,813604.3000000119,813603.599999994,809769.412,809777.400000006,809785.946,813609.979,4,500,,
trial,html.Screen,10_19_0,2023-11-15T18:47:08.496Z,,,,1,0.0074667911845194,-0.018500200317654,,true,hh,3079.6209999939892,response,0.7770513300237836,0.7478772748966669,-1.0060349550903043,0.912069987718464,0.8457439032248215,-1.1224999999999998,high,high,,ISIC_0058723.JPG,8,ISIC_0030852.JPG,256,false,hh,keypress(i),0,false,816689.900000006,816689.599999994,813593.261,813604.6999999881,813609.979,816716.173,4,500,20,
break,html.Screen,10_19_1,2023-11-15T18:47:08.497Z,,,,,,,,,,NaN,,,,,,,,high,high,,,,,,false,,,,false,816691,816690.6999999881,,816690.3000000119,,816716.173,4,500,,
break_continue,html.Screen,10_19_2,2023-11-15T18:47:08.498Z,,,,,,,,,,NaN,,,,,,,,high,high,,,,,,false,,,,false,816691.8000000119,816691.5,,816691.1999999881,,816716.173,4,500,,
sequence,flow.Sequence,10_19,2023-11-15T18:47:08.498Z,,,,,,,,,,3081.5209999999497,completion,,,,,,,high,high,,,,,,false,,,,false,816692.099999994,816691.5,813593.261,813604.5,813609.979,816716.173,4,500,,
trial,html.Screen,10_20_0,2023-11-15T18:47:12.566Z,,,,1,0.0395587463147856,-0.0645068093068572,,false,hh,4044.227000006009,response,0.6215028818312729,0.7478772748966669,-1.0060349550903043,0.7407569958834701,0.8457439032248215,-1.1224999999999998,high,high,,ISIC_0010807.JPG,9,ISIC_0072252.JPG,256,false,hl,keypress(j),0,false,820760.5,820760.400000006,816699.466,816692.400000006,816716.173,820774.165,4,500,21,
break,html.Screen,10_20_1,2023-11-15T18:47:12.567Z,,,,,,,,,,NaN,,,,,,,,high,high,,,,,,false,,,,false,820760.8000000119,820760.8000000119,,820760.6999999881,,820774.165,4,500,,
break_continue,html.Screen,10_20_2,2023-11-15T18:47:12.567Z,,,,,,,,,,NaN,,,,,,,,high,high,,,,,,false,,,,false,820761.099999994,820761,,820761,,820774.165,4,500,,
sequence,flow.Sequence,10_20,2023-11-15T18:47:12.567Z,,,,,,,,,,4044.8270000000484,completion,,,,,,,high,high,,,,,,false,,,,false,820761.1999999881,820761,816699.466,816692.3000000119,816716.173,820774.165,4,500,,
trial,html.Screen,10_21_0,2023-11-15T18:47:18.983Z,,,,1,-0.0464691161264081,-0.0535296539628673,,false,hh,6402.434999994002,response,0.5911208631056462,0.7478772748966669,-1.0060349550903043,0.8985493415859708,0.8457439032248215,-1.1224999999999998,high,high,,ISIC_0758797.JPG,10,ISIC_0027560.JPG,256,false,hl,keypress(j),0,false,827176.6999999881,827176.599999994,820757.47,820761.1999999881,820774.165,827186.543,4,500,22,
break,html.Screen,10_21_1,2023-11-15T18:47:18.983Z,,,,,,,,,,NaN,,,,,,,,high,high,,,,,,false,,,,false,827177.1999999881,827177.099999994,,827176.900000006,,827186.543,4,500,,
break_continue,html.Screen,10_21_2,2023-11-15T18:47:18.983Z,,,,,,,,,,NaN,,,,,,,,high,high,,,,,,false,,,,false,827177.5,827177.400000006,,827177.3000000119,,827186.543,4,500,,
sequence,flow.Sequence,10_21,2023-11-15T18:47:18.984Z,,,,,,,,,,6403.235000005923,completion,,,,,,,high,high,,,,,,false,,,,false,827177.6999999881,827177.400000006,820757.47,820761.1999999881,820774.165,827186.543,4,500,,
trial,html.Screen,10_22_0,2023-11-15T18:47:21.568Z,,,,1,-0.0105349256029223,0.0723574625425557,,false,lh,2575.0569999940926,response,-0.8513427412482127,0.7478772748966669,-1.0060349550903043,0.9295303568095064,0.8457439032248215,-1.1224999999999998,low,high,,ISIC_0058998.JPG,9,ISIC_0034164.JPG,28,false,hh,keypress(i),0,false,829762,829761.599999994,827169.899,827177.6999999881,827186.543,829774.979,4,500,23,
break,html.Screen,10_22_1,2023-11-15T18:47:21.569Z,,,,,,,,,,NaN,,,,,,,,low,high,,,,,,false,,,,false,829763.099999994,829762.8000000119,,829762.3000000119,,829774.979,4,500,,
break_continue,html.Screen,10_22_2,2023-11-15T18:47:21.570Z,,,,,,,,,,NaN,,,,,,,,low,high,,,,,,false,,,,false,829764,829763.599999994,,829763.400000006,,829774.979,4,500,,
sequence,flow.Sequence,10_22,2023-11-15T18:47:21.570Z,,,,,,,,,,2577.0569999940926,completion,,,,,,,low,high,,,,,,false,,,,false,829764.3000000119,829763.599999994,827169.899,827177.6999999881,827186.543,829774.979,4,500,,
trial,html.Screen,10_23_0,2023-11-15T18:47:26.017Z,,,,1,-0.0286056110007553,-0.036125199756515,,true,hl,4435.220999988029,response,0.6616334713363664,0.7478772748966669,-1.0060349550903043,-1.2806277136291266,0.8457439032248215,-1.1224999999999998,high,low,,ISIC_6535558.JPG,8,ISIC_7236842.JPG,26,false,hl,keypress(j),0,false,834210.599999994,834210.1999999881,829758.209,829764.599999994,829774.979,834216.764,4,500,24,
break,html.Screen,10_23_1,2023-11-15T18:47:26.018Z,,,,,,,,,,NaN,,,,,,,,high,low,,,,,,false,,,,false,834211.6999999881,834211.5,,834211,,834216.764,4,500,,
break_continue,html.Screen,10_23_2,2023-11-15T18:47:26.019Z,,,,,,,,,,NaN,,,,,,,,high,low,,,,,,false,,,,false,834212.599999994,834212.1999999881,,834212,,834216.764,4,500,,
sequence,flow.Sequence,10_23,2023-11-15T18:47:26.019Z,,,,,,,,,,4437.220999988029,completion,,,,,,,high,low,,,,,,false,,,,false,834212.900000006,834212.1999999881,829758.209,829764.5,829774.979,834216.764,4,500,,
trial,html.Screen,10_24_0,2023-11-15T18:47:31.728Z,,,,1,-0.0464691161264081,-0.0535296539628673,,false,ll,5704.7360000000335,response,-0.8465917022244419,0.7478772748966669,-1.0060349550903043,-1.0121558062445464,0.8457439032248215,-1.1224999999999998,low,low,,ISIC_0758797.JPG,9,ISIC_6914698.JPG,82,false,hl,keypress(j),0,false,839921.900000006,839921.5,834200.111,834213.099999994,834216.764,839927.865,4,500,25,
break,html.Screen,10_24_1,2023-11-15T18:47:31.729Z,,,,,,,,,,NaN,,,,,,,,low,low,,,,,,false,,,,false,839923,839922.8000000119,,839922.3000000119,,839927.865,4,500,,
break_continue,html.Screen,10_24_2,2023-11-15T18:47:31.730Z,,,,,,,,,,NaN,,,,,,,,low,low,,,,,,false,,,,false,839923.8000000119,839923.400000006,,839923.1999999881,,839927.865,4,500,,
sequence,flow.Sequence,10_24,2023-11-15T18:47:31.730Z,,,,,,,,,,5706.636000005994,completion,,,,,,,low,low,,,,,,false,,,,false,839924,839923.400000006,834200.111,834213.099999994,834216.764,839927.865,4,500,,
trial,html.Screen,10_25_0,2023-11-15T18:47:33.639Z,,,,1,0.039520186367207,0.0377961575607372,,false,hh,1904.5350000059698,response,0.6468172406502514,0.7478772748966669,-1.0060349550903043,0.7301267067400513,0.8457439032248215,-1.1224999999999998,high,high,,ISIC_6356149.JPG,9,ISIC_0010319.JPG,256,false,hl,keypress(j),0,false,841832.5,841832.400000006,839911.432,839924.3000000119,839927.865,841848.517,4,500,26,
break,html.Screen,10_25_1,2023-11-15T18:47:33.639Z,,,,,,,,,,NaN,,,,,,,,high,high,,,,,,false,,,,false,841832.900000006,841832.900000006,,841832.6999999881,,841848.517,4,500,,
break_continue,html.Screen,10_25_2,2023-11-15T18:47:33.639Z,,,,,,,,,,NaN,,,,,,,,high,high,,,,,,false,,,,false,841833.099999994,841833.099999994,,841833,,841848.517,4,500,,
sequence,flow.Sequence,10_25,2023-11-15T18:47:33.639Z,,,,,,,,,,1905.2349999940488,completion,,,,,,,high,high,,,,,,false,,,,false,841833.3000000119,841833.099999994,839911.432,839924.099999994,839927.865,841848.517,4,500,,
trial,html.Screen,10_26_0,2023-11-15T18:47:35.784Z,,,,1,-0.0009714874637896,0.0174815595031679,,true,ll,2128.9830000000075,response,-1.1290536173202614,0.7478772748966669,-1.0060349550903043,-0.9768663240505168,0.8457439032248215,-1.1224999999999998,low,low,,ISIC_9848743.JPG,8,ISIC_2196127.JPG,82,false,ll,keypress(f),0,false,843977.8000000119,843977.5,841831.604,841833.3000000119,841848.517,843985.77,4,500,27,
break,html.Screen,10_26_1,2023-11-15T18:47:35.785Z,,,,,,,,,,NaN,,,,,,,,low,low,,,,,,false,,,,false,843978.900000006,843978.599999994,,843978.1999999881,,843985.77,4,500,,
break_continue,html.Screen,10_26_2,2023-11-15T18:47:35.786Z,,,,,,,,,,NaN,,,,,,,,low,low,,,,,,false,,,,false,843979.599999994,843979.1999999881,,843979,,843985.77,4,500,,
sequence,flow.Sequence,10_26,2023-11-15T18:47:35.786Z,,,,,,,,,,2130.6829999880865,completion,,,,,,,low,low,,,,,,false,,,,false,843979.8000000119,843979.1999999881,841831.604,841833.3000000119,841848.517,843985.77,4,500,,
trial,html.Screen,10_27_0,2023-11-15T18:47:38.616Z,,,,1,0.0200376619013301,0.0451764418954947,,false,ll,2824.329999994021,response,-0.82868450251632,0.7478772748966669,-1.0060349550903043,-1.2407642249743125,0.8457439032248215,-1.1224999999999998,low,low,,ISIC_0026087.JPG,10,ISIC_0010671.JPG,82,false,hl,keypress(j),0,false,846810.3000000119,846810.099999994,843969.27,843980.099999994,843985.77,846824.888,4,500,28,
break,html.Screen,10_27_1,2023-11-15T18:47:38.617Z,,,,,,,,,,NaN,,,,,,,,low,low,,,,,,false,,,,false,846811.5,846811.1999999881,,846810.6999999881,,846824.888,4,500,,
break_continue,html.Screen,10_27_2,2023-11-15T18:47:38.618Z,,,,,,,,,,NaN,,,,,,,,low,low,,,,,,false,,,,false,846812.400000006,846812,,846811.6999999881,,846824.888,4,500,,
sequence,flow.Sequence,10_27,2023-11-15T18:47:38.619Z,,,,,,,,,,2826.2299999999814,completion,,,,,,,low,low,,,,,,false,,,,false,846812.6999999881,846812,843969.27,843980.099999994,843985.77,846824.888,4,500,,
trial,html.Screen,10_28_0,2023-11-15T18:47:42.576Z,,,,1,-0.0423567271646023,-0.0380126882576854,,true,lh,3944.512000005925,response,-0.8110121381849364,0.7478772748966669,-1.0060349550903043,0.7563142141851558,0.8457439032248215,-1.1224999999999998,low,high,,ISIC_0046932.JPG,8,ISIC_0033605.JPG,28,false,lh,keypress(e),0,false,850769.8000000119,850769.400000006,846808.134,846813,846824.888,850782.584,4,500,29,
break,html.Screen,10_28_1,2023-11-15T18:47:42.577Z,,,,,,,,,,NaN,,,,,,,,low,high,,,,,,false,,,,false,850771,850770.6999999881,,850770.099999994,,850782.584,4,500,,
break_continue,html.Screen,10_28_2,2023-11-15T18:47:42.578Z,,,,,,,,,,NaN,,,,,,,,low,high,,,,,,false,,,,false,850771.8000000119,850771.400000006,,850771.1999999881,,850782.584,4,500,,
sequence,flow.Sequence,10_28,2023-11-15T18:47:42.578Z,,,,,,,,,,3946.512000005925,completion,,,,,,,low,high,,,,,,false,,,,false,850772.099999994,850771.400000006,846808.134,846812.900000006,846824.888,850782.584,4,500,,
trial,html.Screen,10_29_0,2023-11-15T18:47:45.056Z,,,,1,-0.0700576547090477,0.0026956749740767,,false,ll,2467.2160000118893,response,-1.1441960791049337,0.7478772748966669,-1.0060349550903043,-1.0156321899655198,0.8457439032248215,-1.1224999999999998,low,low,,ISIC_7212271.JPG,9,ISIC_4023381.JPG,82,false,lh,keypress(e),0,false,853250.099999994,853249.8000000119,850765.769,850772.400000006,850782.584,853253.884,4,500,30,
break,html.Screen,10_29_1,2023-11-15T18:47:45.058Z,,,,,,,,,,NaN,,,,,,,,low,low,,,,,,false,,,,false,853251.1999999881,853250.900000006,,853250.5,,853253.884,4,500,,
break_continue,html.Screen,10_29_2,2023-11-15T18:47:45.058Z,,,,,,,,,,NaN,,,,,,,,low,low,,,,,,false,,,,false,853252.099999994,853251.8000000119,,853251.400000006,,853253.884,4,500,,
sequence,flow.Sequence,10_29,2023-11-15T18:47:45.059Z,,,,,,,,,,2469.2160000118893,completion,,,,,,,low,low,,,,,,false,,,,false,853252.400000006,853251.8000000119,850765.769,850772.3000000119,850782.584,853253.884,4,500,,
trial,html.Screen,10_30_0,2023-11-15T18:47:47.392Z,,,,1,-0.0044063257337227,-0.0172548282859886,,false,ll,2331.916000011959,response,-0.8764429645297487,0.7478772748966669,-1.0060349550903043,-0.9319282086996942,0.8457439032248215,-1.1224999999999998,low,low,,ISIC_7413786.JPG,8,ISIC_9538004.JPG,82,false,lh,keypress(e),0,false,855586,855585.8000000119,853237.319,853252.599999994,853253.884,855591.694,4,500,31,
break,html.Screen,10_30_1,2023-11-15T18:47:47.394Z,,,,,,,,,,NaN,,,,,,,,low,low,,,,,,false,,,,false,855587.3000000119,855587,,855586.400000006,,855591.694,4,500,,
break_continue,html.Screen,10_30_2,2023-11-15T18:47:47.394Z,,,,,,,,,,NaN,,,,,,,,low,low,,,,,,false,,,,false,855588.099999994,855587.8000000119,,855587.5,,855591.694,4,500,,
sequence,flow.Sequence,10_30,2023-11-15T18:47:47.395Z,,,,,,,,,,2333.916000011959,completion,,,,,,,low,low,,,,,,false,,,,false,855588.5,855587.8000000119,853237.319,853252.5,853253.884,855591.694,4,500,,
trial,html.Screen,10_31_0,2023-11-15T18:47:50.217Z,,,,1,-0.0606387586319451,-0.0283716809868572,,true,lh,2818.5059999880614,response,-1.0453124399868816,0.7478772748966669,-1.0060349550903043,0.8986747280184286,0.8457439032248215,-1.1224999999999998,low,high,,ISIC_0061158.JPG,9,ISIC_0013967.JPG,28,false,lh,keypress(e),0,false,858410.599999994,858410.1999999881,855575.215,855588.6999999881,855591.694,858413.915,4,500,32,
break,html.Screen,10_31_1,2023-11-15T18:47:50.218Z,,,,,,,,,,NaN,,,,,,,,low,high,,,,,,false,,,,false,858411.8000000119,858411.5,,858411,,858413.915,4,500,,
break_continue,html.Screen,10_31_2,2023-11-15T18:47:50.219Z,,,,,,,,,,NaN,,,,,,,,low,high,,,,,,false,,,,false,858412.599999994,858412.1999999881,,858412,,858413.915,4,500,,
sequence,flow.Sequence,10_31,2023-11-15T18:47:50.219Z,,,,,,,,,,2820.5059999880614,completion,,,,,,,low,high,,,,,,false,,,,false,858412.900000006,858412.1999999881,855575.215,855588.599999994,855591.694,858413.915,4,500,,
trial,html.Screen,10_32_0,2023-11-15T18:47:52.848Z,,,,1,0.0448994009031783,-0.0708723658092544,,true,lh,2627.6849999940023,response,-1.2054195059663604,0.7478772748966669,-1.0060349550903043,0.7760611240296147,0.8457439032248215,-1.1224999999999998,low,high,,ISIC_0025238.JPG,9,ISIC_8712559.JPG,28,false,lh,keypress(e),0,false,861041.900000006,861041.599999994,858397.374,858413.1999999881,858413.915,861052.403,4,500,33,
break,html.Screen,10_32_1,2023-11-15T18:47:52.849Z,,,,,,,,,,NaN,,,,,,,,low,high,,,,,,false,,,,false,861043.099999994,861042.6999999881,,861042.3000000119,,861052.403,4,500,,
break_continue,html.Screen,10_32_2,2023-11-15T18:47:52.850Z,,,,,,,,,,NaN,,,,,,,,low,high,,,,,,false,,,,false,861044,861043.599999994,,861043.3000000119,,861052.403,4,500,,
sequence,flow.Sequence,10_32,2023-11-15T18:47:52.851Z,,,,,,,,,,2629.6849999940023,completion,,,,,,,low,high,,,,,,false,,,,false,861044.400000006,861043.599999994,858397.374,858413.099999994,858413.915,861052.403,4,500,,
trial,html.Screen,10_33_0,2023-11-15T18:48:00.905Z,,,,1,0.0065172941585523,-0.0118857043117315,,false,hh,8045.596999999951,response,0.6757950805985067,0.7478772748966669,-1.0060349550903043,0.6487379494299379,0.8457439032248215,-1.1224999999999998,high,high,,ISIC_6119202.JPG,9,ISIC_0070046.JPG,256,false,lh,keypress(e),0,false,869098.3000000119,869098,861035.782,861044.5,861052.403,869101.409,4,500,34,
break,html.Screen,10_33_1,2023-11-15T18:48:00.906Z,,,,,,,,,,NaN,,,,,,,,high,high,,,,,,false,,,,false,869099.3000000119,869099.099999994,,869098.599999994,,869101.409,4,500,,
break_continue,html.Screen,10_33_2,2023-11-15T18:48:00.906Z,,,,,,,,,,NaN,,,,,,,,high,high,,,,,,false,,,,false,869100.1999999881,869099.6999999881,,869099.5,,869101.409,4,500,,
sequence,flow.Sequence,10_33,2023-11-15T18:48:00.907Z,,,,,,,,,,8047.29699998803,completion,,,,,,,high,high,,,,,,false,,,,false,869100.400000006,869099.6999999881,861035.782,861044.5,861052.403,869101.409,4,500,,
trial,html.Screen,10_34_0,2023-11-15T18:48:08.872Z,,,,1,0.0418938536494534,-0.0678614270583654,,false,hl,7964.391000011936,response,0.9244148283103414,0.7478772748966669,-1.0060349550903043,-0.9712966348713286,0.8457439032248215,-1.1224999999999998,high,low,,ISIC_0027573.JPG,8,ISIC_7927525.JPG,26,false,ll,keypress(f),0,false,877066.1999999881,877065.8000000119,869084.827,869100.6999999881,869101.409,877083.781,4,500,35,
break,html.Screen,10_34_1,2023-11-15T18:48:08.874Z,,,,,,,,,,NaN,,,,,,,,high,low,,,,,,false,,,,false,877067.400000006,877067,,877066.5,,877083.781,4,500,,
break_continue,html.Screen,10_34_2,2023-11-15T18:48:08.875Z,,,,,,,,,,NaN,,,,,,,,high,low,,,,,,false,,,,false,877068.3000000119,877067.8000000119,,877067.6999999881,,877083.781,4,500,,
sequence,flow.Sequence,10_34,2023-11-15T18:48:08.875Z,,,,,,,,,,7966.391000011936,completion,,,,,,,high,low,,,,,,false,,,,false,877068.599999994,877067.8000000119,869084.827,869100.599999994,869101.409,877083.781,4,500,,
trial,html.Screen,10_35_0,2023-11-15T18:48:12.321Z,,,,1,0.0080817964357627,-0.0444435264307931,,false,hh,3430.3189999940805,response,0.726088143883226,0.7478772748966669,-1.0060349550903043,0.9195149254716736,0.8457439032248215,-1.1224999999999998,high,high,,ISIC_0013165.JPG,8,ISIC_3445468.JPG,256,false,hl,keypress(j),0,false,880514.400000006,880514.099999994,877066.986,877068.8000000119,877083.781,880523.644,4,500,36,
break,html.Screen,10_35_1,2023-11-15T18:48:12.322Z,,,,,,,,,,NaN,,,,,,,,high,high,,,,,,false,,,,false,880515.599999994,880515.3000000119,,880514.8000000119,,880523.644,4,500,,
break_continue,html.Screen,10_35_2,2023-11-15T18:48:12.323Z,,,,,,,,,,NaN,,,,,,,,high,high,,,,,,false,,,,false,880516.5,880516.099999994,,880515.8000000119,,880523.644,4,500,,
sequence,flow.Sequence,10_35,2023-11-15T18:48:12.323Z,,,,,,,,,,3432.3189999940805,completion,,,,,,,high,high,,,,,,false,,,,false,880516.8000000119,880516.099999994,877066.986,877068.6999999881,877083.781,880523.644,4,500,,
trial,html.Screen,10_36_0,2023-11-15T18:48:15.888Z,,,,1,0.0564512008196606,-0.0205312570039753,,true,hh,3557.9559999940684,response,0.7843606105205353,0.7478772748966669,-1.0060349550903043,0.6563299021065858,0.8457439032248215,-1.1224999999999998,high,high,,ISIC_9019691.JPG,9,ISIC_0067601.JPG,256,false,hh,keypress(i),0,false,884082,884081.599999994,880507.011,880517,880523.644,884097.257,4,500,37,
break,html.Screen,10_36_1,2023-11-15T18:48:15.889Z,,,,,,,,,,NaN,,,,,,,,high,high,,,,,,false,,,,false,884083.3000000119,884082.8000000119,,884082.400000006,,884097.257,4,500,,
break_continue,html.Screen,10_36_2,2023-11-15T18:48:15.890Z,,,,,,,,,,NaN,,,,,,,,high,high,,,,,,false,,,,false,884084.1999999881,884083.6999999881,,884083.5,,884097.257,4,500,,
sequence,flow.Sequence,10_36,2023-11-15T18:48:15.891Z,,,,,,,,,,3560.055999988108,completion,,,,,,,high,high,,,,,,false,,,,false,884084.400000006,884083.6999999881,880507.011,880517,880523.644,884097.257,4,500,,
trial,html.Screen,10_37_0,2023-11-15T18:48:17.864Z,,,,1,0.0010920693448107,0.0492408806128631,,false,lh,1960.3429999940563,response,-1.199471562817528,0.7478772748966669,-1.0060349550903043,0.8631260534979347,0.8457439032248215,-1.1224999999999998,low,high,,ISIC_6155981.JPG,9,ISIC_0030754.JPG,28,false,hl,keypress(j),0,false,886058,886057.599999994,884080.674,884084.6999999881,884097.257,886067.735,4,500,38,
break,html.Screen,10_37_1,2023-11-15T18:48:17.865Z,,,,,,,,,,NaN,,,,,,,,low,high,,,,,,false,,,,false,886059.099999994,886058.8000000119,,886058.3000000119,,886067.735,4,500,,
break_continue,html.Screen,10_37_2,2023-11-15T18:48:17.866Z,,,,,,,,,,NaN,,,,,,,,low,high,,,,,,false,,,,false,886060,886059.599999994,,886059.1999999881,,886067.735,4,500,,
