sender,sender_type,sender_id,timestamp,meta,,age,blockNo,c1,c2,condition,correct,correctResponse,duration,ended_on,f1,f1_high,f1_low,f2,f2_high,f2_low,feature_level1,feature_level2,gender,img_left,img_reveal,img_right,n_target_images,practice,response,response_action,selection_duration,staircase,time_commit,time_end,time_render,time_run,time_show,time_switch,total_blocks,total_trials,trialNo,url
informed_consent,html.Screen,0,2023-11-15T18:40:39.799Z,"{""labjs_version"":""20.2.4"",""labjs_build"":{""flavor"":""development"",""commit"":""f5b4a49f956347addd546a832a3327688c2c0fef""},""location"":""https://labjs.felixhenninger.com/api/labjs_preview/index.html"",""userAgent"":""Mozilla/5.0 (Windows NT 10.0; Win64; x64) AppleWebKit/537.36 (KHTML, like Gecko) Chrome/119.0.0.0 Safari/537.36"",""platform"":""Win32"",""language"":""en-US"",""locale"":""en-US"",""timeZone"":""America/Chicago"",""timezoneOffset"":360,""screen_width"":1680,""screen_height"":1050,""scroll_width"":825,""scroll_height"":888,""window_innerWidth"":825,""window_innerHeight"":936,""devicePixelRatio"":1}",,,,,,,,,35494.26099995232,response,,,,,,,,,,,,,,,consent,click button,,,35996.09999996424,35986.799999952316,475.838,471,492.539,36011.877,,,,{}
Demography form,html.Form,1,2023-11-15T18:40:47.679Z,,,19,,,,,,,7863.422999952316,form submission,,,,,,,,,male,,,,,,,,,,43875.39999997616,43875.299999952316,35994.925,35996.39999997616,36011.877,43893.884,,,,
Welcome,html.Screen,2,2023-11-15T18:41:14.607Z,,,,,,,"[""asym"",""bor""]",,,26908.915999952318,response,,,,,,,,,,,,,,,continue,click button,,,70803.39999997616,70802.79999995232,43876.958,43875.5,43893.884,70812.704,,,,
demo_instructions,html.Screen,3,2023-11-15T18:41:25.999Z,,,,,,,,,,11382.19599997616,response,,,,,,,,,,,,,,,continue,click button,,,82195.39999997616,82194.89999997616,70796.129,70803.5,70812.704,82201.454,,,,
trial,html.Screen,4_0_0,2023-11-15T18:41:33.635Z,,,,0,0.948927472020595,-1.0660437155921598,,true,lh,7628.645999964239,response,-1.0865333402803938,1.0499999999999998,-1.0499999999999998,1.0542635307358266,1.0499999999999998,-1.0499999999999998,low,high,,ISIC_5808758.JPG,,ISIC_0034006.JPG,21,true,lh,keypress(e),100,false,89830.69999998808,89830.09999996424,82185.023,82195.59999996424,82201.454,89849.682,1,16,1,
sequence,flow.Sequence,4_0,2023-11-15T18:41:33.660Z,,,,,,,,,,7628.645999964239,completion,,,,,,,low,high,,,,,,true,,,,false,89856.09999996424,89830.09999996424,82185.023,82195.59999996424,82201.454,89849.682,1,16,,
trial,html.Screen,4_1_0,2023-11-15T18:41:35.938Z,,,,0,0.948927472020595,-1.0660437155921598,,true,lh,2284.0179999880784,response,-0.869932994914832,1.0499999999999998,-1.0499999999999998,0.8880533324432531,1.0499999999999998,-1.0499999999999998,low,high,,ISIC_5808758.JPG,,ISIC_8617084.JPG,21,true,lh,keypress(e),100,false,92134.29999995232,92133.69999998808,89833.18,89856.29999995232,89849.682,92154.353,1,16,2,
sequence,flow.Sequence,4_1,2023-11-15T18:41:35.939Z,,,,,,,,,,2284.0179999880784,completion,,,,,,,low,high,,,,,,true,,,,false,92135.09999996424,92133.69999998808,89833.18,89856.29999995232,89849.682,92154.353,1,16,,
trial,html.Screen,4_2_0,2023-11-15T18:41:41.089Z,,,,0,0.8947611078712571,-0.8960964505004638,,true,lh,5129.846999988076,response,-0.8979276789594874,1.0499999999999998,-1.0499999999999998,0.925374811016654,1.0499999999999998,-1.0499999999999998,low,high,,ISIC_6441128.JPG,,ISIC_4208361.JPG,21,true,lh,keypress(e),100,false,97284.89999997616,97284.19999998808,92137.54,92135.5,92154.353,97314.45,1,16,3,
sequence,flow.Sequence,4_2,2023-11-15T18:41:41.090Z,,,,,,,,,,5129.846999988076,completion,,,,,,,low,high,,,,,,true,,,,false,97285.79999995232,97284.19999998808,92137.54,92135.39999997616,92154.353,97314.45,1,16,,
trial,html.Screen,4_3_0,2023-11-15T18:41:46.688Z,,,,0,0.9235571765207048,-1.0008081653938232,,true,lh,5568.949999976161,response,-0.8579451262594331,1.0499999999999998,-1.0499999999999998,0.9633172970727744,1.0499999999999998,-1.0499999999999998,low,high,,ISIC_8796632.JPG,,ISIC_0067172.JPG,21,true,lh,keypress(e),100,false,102884.09999996424,102883.39999997616,97297.525,97286.5,97314.45,102908.629,1,16,4,
sequence,flow.Sequence,4_3,2023-11-15T18:41:46.689Z,,,,,,,,,,5568.949999976161,completion,,,,,,,low,high,,,,,,true,,,,false,102884.89999997616,102883.39999997616,97297.525,97286.39999997616,97314.45,102908.629,1,16,,
trial,html.Screen,4_4_0,2023-11-15T18:41:54.702Z,,,,0,1.0700930503975157,1.2020012168275056,,true,ll,7988.770999976157,response,-0.952434586184464,1.0499999999999998,-1.0499999999999998,-0.870679752281305,1.0499999999999998,-1.0499999999999998,low,low,,ISIC_0000022.JPG,,ISIC_5791954.JPG,111,true,ll,keypress(f),100,false,110898,110897.39999997616,102891.742,102885.29999995232,102908.629,110924.144,1,16,5,
sequence,flow.Sequence,4_4,2023-11-15T18:41:54.703Z,,,,,,,,,,7988.770999976157,completion,,,,,,,low,low,,,,,,true,,,,false,110898.79999995232,110897.39999997616,102891.742,102885.19999998808,102908.629,110924.144,1,16,,
trial,html.Screen,4_5_0,2023-11-15T18:42:01.692Z,,,,0,0.850661315114799,1.2014901828022857,,true,ll,6962.856,response,-1.201100953917304,1.0499999999999998,-1.0499999999999998,-1.1751492358160105,1.0499999999999998,-1.0499999999999998,low,low,,ISIC_0067808.JPG,,ISIC_0647224.JPG,111,true,ll,keypress(f),100,false,117887.69999998808,117887,110907.376,110899.09999996424,110924.144,117904.22,1,16,6,
sequence,flow.Sequence,4_5,2023-11-15T18:42:01.693Z,,,,,,,,,,6962.856,completion,,,,,,,low,low,,,,,,true,,,,false,117888.39999997616,117887,110907.376,110899,110924.144,117904.22,1,16,,
trial,html.Screen,4_6_0,2023-11-15T18:42:07.082Z,,,,0,1.0657476601009717,0.970732112511705,,true,ll,5373.579999952315,response,-0.9859190680307316,1.0499999999999998,-1.0499999999999998,-1.0904756837966545,1.0499999999999998,-1.0499999999999998,low,low,,ISIC_0010778.JPG,,ISIC_0063151.JPG,111,true,ll,keypress(f),100,false,123278.29999995232,123277.79999995232,117887.624,117888.79999995232,117904.22,123298.126,1,16,7,
sequence,flow.Sequence,4_6,2023-11-15T18:42:07.083Z,,,,,,,,,,5373.579999952315,completion,,,,,,,low,low,,,,,,true,,,,false,123278.89999997616,123277.79999995232,117887.624,117888.69999998808,117904.22,123298.126,1,16,,
trial,html.Screen,4_7_0,2023-11-15T18:42:11.449Z,,,,0,1.0762260610050776,1.082709423673037,,true,ll,4345.973999964233,response,-1.030423594637164,1.0499999999999998,-1.0499999999999998,-0.9418036199165556,1.0499999999999998,-1.0499999999999998,low,low,,ISIC_0058666.JPG,,ISIC_0010299.JPG,111,true,ll,keypress(f),100,false,127644.39999997616,127644.09999996424,123281.444,123279.29999995232,123298.126,127673.426,1,16,8,
sequence,flow.Sequence,4_7,2023-11-15T18:42:11.449Z,,,,,,,,,,4345.973999964233,completion,,,,,,,low,low,,,,,,true,,,,false,127645.29999995232,127644.09999996424,123281.444,123279.09999996424,123298.126,127673.426,1,16,,
trial,html.Screen,4_8_0,2023-11-15T18:42:26.877Z,,,,0,-0.8534691366511764,1.03975580494588,,true,hl,15399.473999976151,response,0.9388660854518424,0.9499999999999997,-0.9499999999999997,-0.79533948698576,0.9499999999999997,-0.9499999999999997,high,low,,ISIC_0056788.JPG,,ISIC_9291926.JPG,26,true,hl,keypress(j),100,false,143073.39999997616,143072.89999997616,127656.599,127645.5,127673.426,143103.279,1,16,9,
sequence,flow.Sequence,4_8,2023-11-15T18:42:26.878Z,,,,,,,,,,15399.473999976151,completion,,,,,,,high,low,,,,,,true,,,,false,143074.09999996424,143072.89999997616,127656.599,127645.5,127673.426,143103.279,1,16,,
trial,html.Screen,4_9_0,2023-11-15T18:42:30.524Z,,,,0,-1.0751036484083878,1.143906455483852,,true,hl,3615.9209999880695,response,0.9388660854518424,0.9499999999999997,-0.9499999999999997,-0.79533948698576,0.9499999999999997,-0.9499999999999997,high,low,,ISIC_0064406.JPG,,ISIC_9291926.JPG,26,true,hl,keypress(j),100,false,146719.69999998808,146719.19999998808,143086.613,143074.39999997616,143103.279,146743.893,1,16,10,
sequence,flow.Sequence,4_9,2023-11-15T18:42:30.524Z,,,,,,,,,,3615.9209999880695,completion,,,,,,,high,low,,,,,,true,,,,false,146720.39999997616,146719.19999998808,143086.613,143074.29999995232,143103.279,146743.893,1,16,,
trial,html.Screen,4_10_0,2023-11-15T18:42:35.930Z,,,,0,-0.7836356408583546,1.1197925594706428,,true,hl,5382.106999999989,response,0.9235571765207048,0.9499999999999997,-0.9499999999999997,-1.0008081653938232,0.9499999999999997,-0.9499999999999997,high,low,,ISIC_0024961.JPG,,ISIC_8796632.JPG,26,true,hl,keypress(j),100,false,152126.29999995232,152126,146726.995,146720.59999996424,146743.893,152154.35,1,16,11,
sequence,flow.Sequence,4_10,2023-11-15T18:42:35.931Z,,,,,,,,,,5382.106999999989,completion,,,,,,,high,low,,,,,,true,,,,false,152126.89999997616,152126,146726.995,146720.5,146743.893,152154.35,1,16,,
trial,html.Screen,4_11_0,2023-11-15T18:42:43.256Z,,,,0,-0.7836356408583546,1.1197925594706428,,true,hl,7296.4499999523105,response,0.8655167308525522,0.9499999999999997,-0.9499999999999997,-0.9298580423306444,0.9499999999999997,-0.9499999999999997,high,low,,ISIC_0024961.JPG,,ISIC_4603706.JPG,26,true,hl,keypress(j),100,false,159450.89999997616,159450.79999995232,152137.527,152127.19999998808,152154.35,159468.648,1,16,12,
sequence,flow.Sequence,4_11,2023-11-15T18:42:43.256Z,,,,,,,,,,7296.4499999523105,completion,,,,,,,high,low,,,,,,true,,,,false,159451.09999996424,159450.79999995232,152137.527,152127.19999998808,152154.35,159468.648,1,16,,
trial,html.Screen,4_12_0,2023-11-15T18:42:48.573Z,,,,0,-0.9872117590837104,-0.8387342204487216,,true,hh,5299.15199995233,response,1.0678895386758027,0.9499999999999997,-0.9499999999999997,1.0279759018569252,0.9499999999999997,-0.9499999999999997,high,high,,ISIC_4539674.JPG,,ISIC_0069933.JPG,167,true,hh,keypress(i),100,false,164768.19999998808,164767.79999995232,159451.713,159451.19999998808,159468.648,164795.572,1,16,13,
sequence,flow.Sequence,4_12,2023-11-15T18:42:48.574Z,,,,,,,,,,5299.15199995233,completion,,,,,,,high,high,,,,,,true,,,,false,164768.89999997616,164767.79999995232,159451.713,159451.19999998808,159468.648,164795.572,1,16,,
trial,html.Screen,4_13_0,2023-11-15T18:42:54.396Z,,,,0,-1.0275060871969903,-0.8666323445825409,,true,hh,5795.027999964252,response,0.8145925452767395,0.9499999999999997,-0.9499999999999997,1.1209497725708388,0.9499999999999997,-0.9499999999999997,high,high,,ISIC_9155028.JPG,,ISIC_0027751.JPG,167,true,hh,keypress(i),100,false,170591,170590.59999996424,164778.798,164769.19999998808,164795.572,170606.753,1,16,14,
sequence,flow.Sequence,4_13,2023-11-15T18:42:54.396Z,,,,,,,,,,5795.027999964252,completion,,,,,,,high,high,,,,,,true,,,,false,170591.69999998808,170590.59999996424,164778.798,164769.09999996424,164795.572,170606.753,1,16,,
trial,html.Screen,4_14_0,2023-11-15T18:42:58.473Z,,,,0,-0.8119812034333038,-0.7605858647924636,,true,hh,4060.946999988082,response,1.0657476601009717,0.9499999999999997,-0.9499999999999997,0.970732112511705,0.9499999999999997,-0.9499999999999997,high,high,,ISIC_6801680.JPG,,ISIC_0010778.JPG,167,true,hh,keypress(i),100,false,174668,174667.69999998808,170590.261,170592.09999996424,170606.753,174698.077,1,16,15,
sequence,flow.Sequence,4_14,2023-11-15T18:42:58.473Z,,,,,,,,,,4060.946999988082,completion,,,,,,,high,high,,,,,,true,,,,false,174668.5,174667.69999998808,170590.261,170591.89999997616,170606.753,174698.077,1,16,,
trial,html.Screen,4_15_0,2023-11-15T18:43:01.507Z,,,,0,-0.9064565001469764,-0.7748322849719208,,true,hh,3003.822999976168,response,0.8868080718134892,0.9499999999999997,-0.9499999999999997,0.9914647862586572,0.9499999999999997,-0.9499999999999997,high,high,,ISIC_0025877.JPG,,ISIC_0068895.JPG,167,true,hh,keypress(i),100,false,177702.19999998808,177701.89999997616,174681.563,174668.69999998808,174698.077,177720.537,1,16,16,
sequence,flow.Sequence,4_15,2023-11-15T18:43:01.508Z,,,,,,,,,,3003.822999976168,completion,,,,,,,high,high,,,,,,true,,,,false,177702.79999995232,177701.89999997616,174681.563,174668.69999998808,174698.077,177720.537,1,16,,
demonstration_loop,flow.Loop,4,2023-11-15T18:43:01.508Z,,,,,,,,,,95500.44599997616,completion,,,,,,,,,,,,,,true,,,,false,177703.09999996424,177701.89999997616,82185.023,82195.59999996424,82201.454,177720.537,1,16,,
practice_instructions,html.Screen,5,2023-11-15T18:43:30.383Z,,,,,,,,,,28849.762999952305,response,,,,,,,,,,,,,,,continue,click button,,,206577.79999995232,206570.29999995232,177703.921,177703.29999995232,177720.537,206576.647,,,,
trial,html.Screen,6_0_0,2023-11-15T18:43:36.602Z,,,,1,1.0115965332688306,-0.8282633603842442,,false,lh,6213.353000000003,response,-0.9696118525781644,0.9499999999999997,-0.9499999999999997,0.9244148283103414,0.9499999999999997,-0.9499999999999997,low,high,,ISIC_1069587.JPG,,ISIC_7927525.JPG,28,true,ll,keypress(f),0,false,212797.29999995232,212790,206559.968,206578,206576.647,212805.525,1,40,1,
sequence,flow.Sequence,6_0,2023-11-15T18:43:36.602Z,,,,,,,,,,6213.353000000003,completion,,,,,,,low,high,,,,,,true,,,,false,212797.39999997616,212790,206559.968,206577.89999997616,206576.647,212805.525,1,40,,
trial,html.Screen,6_1_0,2023-11-15T18:43:45.898Z,,,,1,-0.7870373375006504,-1.0385104284303668,,false,hh,9286.874999976164,response,0.7951907368136324,0.9499999999999997,-0.9499999999999997,0.8943547811786065,0.9499999999999997,-0.9499999999999997,high,high,,ISIC_0002162.JPG,,ISIC_0071771.JPG,167,true,hl,keypress(j),0,false,222092.79999995232,222092.39999997616,212788.728,212797.5,212805.525,222106.851,1,40,2,
sequence,flow.Sequence,6_1,2023-11-15T18:43:45.898Z,,,,,,,,,,9286.874999976164,completion,,,,,,,high,high,,,,,,true,,,,false,222093.29999995232,222092.39999997616,212788.728,212797.39999997616,212805.525,222106.851,1,40,,
trial,html.Screen,6_2_0,2023-11-15T18:43:56.901Z,,,,1,-1.020990671779317,1.0116513850520903,,,,11021.678000000014,timeout,0.8200962008791046,0.9499999999999997,-0.9499999999999997,-0.7936051642828523,0.9499999999999997,-0.9499999999999997,high,low,,ISIC_0011995.JPG,,ISIC_0027031.JPG,26,true,,,0,false,233095.59999996424,233095.59999996424,222090.326,222093.5,222106.851,233128.529,1,40,3,
sequence,flow.Sequence,6_2,2023-11-15T18:43:56.901Z,,,,,,,,,,10988.748999964242,completion,,,,,,,high,low,,,,,,true,,,,false,233095.79999995232,233095.59999996424,222090.326,222093.39999997616,222106.851,233128.529,1,40,,
trial,html.Screen,6_3_0,2023-11-15T18:44:05.706Z,,,,1,-0.964746248973834,-0.9069353065857808,,false,hh,8771.770999952307,response,0.9476874253010668,0.9499999999999997,-0.9499999999999997,1.0189744362243829,0.9499999999999997,-0.9499999999999997,high,high,,ISIC_9896801.JPG,,ISIC_0033878.JPG,167,true,hl,keypress(j),0,false,241900.59999996424,241900.29999995232,233111.886,233095.79999995232,233128.529,241912.228,1,40,4,
sequence,flow.Sequence,6_3,2023-11-15T18:44:05.706Z,,,,,,,,,,8771.770999952307,completion,,,,,,,high,high,,,,,,true,,,,false,241901.19999998808,241900.29999995232,233111.886,233095.79999995232,233128.529,241912.228,1,40,,
trial,html.Screen,6_4_0,2023-11-15T18:44:13.730Z,,,,1,-1.1363600109870835,-0.7799430990551102,,true,hh,8012.171999976155,response,0.829888603887684,0.9499999999999997,-0.9499999999999997,0.8001360017471091,0.9499999999999997,-0.9499999999999997,high,high,,ISIC_0026141.JPG,,ISIC_0012369.JPG,167,true,hh,keypress(i),0,false,249924.79999995232,249924.39999997616,241895.557,241901.39999997616,241912.228,249927.731,1,40,5,
sequence,flow.Sequence,6_4,2023-11-15T18:44:13.730Z,,,,,,,,,,8012.171999976155,completion,,,,,,,high,high,,,,,,true,,,,false,249925.29999995232,249924.39999997616,241895.557,241901.39999997616,241912.228,249927.731,1,40,,
trial,html.Screen,6_5_0,2023-11-15T18:44:19.584Z,,,,1,-0.952434586184464,-0.870679752281305,,true,hh,5851.368999964237,response,1.0376573622140812,0.9499999999999997,-0.9499999999999997,1.0000402707486682,0.9499999999999997,-0.9499999999999997,high,high,,ISIC_5791954.JPG,,ISIC_0068798.JPG,167,true,hh,keypress(i),0,false,255779.19999998808,255779.09999996424,249911.09,249925.5,249927.731,255789.058,1,40,6,
sequence,flow.Sequence,6_5,2023-11-15T18:44:19.584Z,,,,,,,,,,5851.368999964237,completion,,,,,,,high,high,,,,,,true,,,,false,255779.29999995232,255779.09999996424,249911.09,249925.39999997616,249927.731,255789.058,1,40,,
trial,html.Screen,6_6_0,2023-11-15T18:44:28.210Z,,,,1,1.0213365328004047,-1.088524359911891,,false,lh,8615.341999976168,response,-0.8487429103619056,0.9499999999999997,-0.9499999999999997,0.9778257804233036,0.9499999999999997,-0.9499999999999997,low,high,,ISIC_5434229.JPG,,ISIC_4554863.JPG,28,true,ll,keypress(f),0,false,264404.7999999523,264404.39999997616,255772.558,255779.39999997616,255789.058,264422.77,1,40,7,
sequence,flow.Sequence,6_6,2023-11-15T18:44:28.210Z,,,,,,,,,,8615.341999976168,completion,,,,,,,low,high,,,,,,true,,,,false,264405.2999999523,264404.39999997616,255772.558,255779.29999995232,255789.058,264422.77,1,40,,
trial,html.Screen,6_7_0,2023-11-15T18:44:36.690Z,,,,1,-0.7784583866003763,0.9641514808986528,,false,hl,8461.42999998806,response,1.0164576835546473,0.9499999999999997,-0.9499999999999997,-0.8120626538423016,0.9499999999999997,-0.9499999999999997,high,low,,ISIC_0011924.JPG,,ISIC_6002694.JPG,26,true,hh,keypress(i),0,false,272884.59999996424,272884.1999999881,264405.999,264405.5,264422.77,272889.087,1,40,8,
sequence,flow.Sequence,6_7,2023-11-15T18:44:36.690Z,,,,,,,,,,8461.42999998806,completion,,,,,,,high,low,,,,,,true,,,,false,272885.09999996424,272884.1999999881,264405.999,264405.39999997616,264422.77,272889.087,1,40,,
trial,html.Screen,6_8_0,2023-11-15T18:44:39.096Z,,,,1,0.9388660854518424,-0.79533948698576,,false,lh,2402.1129999880795,response,-1.0026266089287914,0.9499999999999997,-0.9499999999999997,1.0913275913920335,0.9499999999999997,-0.9499999999999997,low,high,,ISIC_9291926.JPG,,ISIC_0033520.JPG,28,true,ll,keypress(f),0,false,275291.39999997616,275291.1999999881,272872.314,272885.2999999523,272889.087,275293.625,1,40,9,
sequence,flow.Sequence,6_8,2023-11-15T18:44:39.097Z,,,,,,,,,,2402.1129999880795,completion,,,,,,,low,high,,,,,,true,,,,false,275291.5,275291.1999999881,272872.314,272885.2999999523,272889.087,275293.625,1,40,,
trial,html.Screen,6_9_0,2023-11-15T18:44:45.754Z,,,,1,0.8035152873995188,-0.82868450251632,,false,lh,6654.474999964237,response,-0.8809306963311293,0.9499999999999997,-0.9499999999999997,0.8614910030038974,0.9499999999999997,-0.9499999999999997,low,high,,ISIC_0010671.JPG,,ISIC_0013731.JPG,28,true,hl,keypress(j),0,false,281948.5,281948.09999996424,275277.194,275291.59999996424,275293.625,281956.606,1,40,10,
sequence,flow.Sequence,6_9,2023-11-15T18:44:45.754Z,,,,,,,,,,6654.474999964237,completion,,,,,,,low,high,,,,,,true,,,,false,281949,281948.09999996424,275277.194,275291.59999996424,275293.625,281956.606,1,40,,
trial,html.Screen,6_10_0,2023-11-15T18:44:55.674Z,,,,1,1.0022829373011404,-0.8311726972863814,,true,lh,9911.893999999971,response,-1.011737552725394,0.9499999999999997,-0.9499999999999997,0.8500530224490773,0.9499999999999997,-0.9499999999999997,low,high,,ISIC_0033287.JPG,,ISIC_2998367.JPG,28,true,lh,keypress(e),0,false,291868.89999997616,291868.5,281940.002,281949.1999999881,281956.606,291875.859,1,40,11,
sequence,flow.Sequence,6_10,2023-11-15T18:44:55.675Z,,,,,,,,,,9911.893999999971,completion,,,,,,,low,high,,,,,,true,,,,false,291869.39999997616,291868.5,281940.002,281949.09999996424,281956.606,291875.859,1,40,,
trial,html.Screen,6_11_0,2023-11-15T18:44:58.850Z,,,,1,0.7638895244791114,-0.7780412100090998,,true,lh,3168.3409999880823,response,-0.8979276789594874,0.9499999999999997,-0.9499999999999997,0.925374811016654,0.9499999999999997,-0.9499999999999997,low,high,,ISIC_0026516.JPG,,ISIC_4208361.JPG,28,true,lh,keypress(e),0,false,295044.59999996424,295044.1999999881,291859.364,291869.6999999881,291875.859,295048.791,1,40,12,
sequence,flow.Sequence,6_11,2023-11-15T18:44:58.850Z,,,,,,,,,,3168.3409999880823,completion,,,,,,,low,high,,,,,,true,,,,false,295045.09999996424,295044.1999999881,291859.364,291869.5,291875.859,295048.791,1,40,,
trial,html.Screen,6_12_0,2023-11-15T18:45:04.121Z,,,,1,1.0022982145596024,0.9703352077282876,,true,ll,5266.7089999999735,response,-0.8329154010765664,0.9499999999999997,-0.9499999999999997,-0.9000661178885296,0.9499999999999997,-0.9499999999999997,low,low,,ISIC_0011930.JPG,,ISIC_7407847.JPG,142,true,ll,keypress(f),0,false,300315.6999999881,300315.5,295032.284,295045.39999997616,295048.791,300325.74,1,40,13,
sequence,flow.Sequence,6_12,2023-11-15T18:45:04.121Z,,,,,,,,,,5266.7089999999735,completion,,,,,,,low,low,,,,,,true,,,,false,300316,300315.5,295032.284,295045.39999997616,295048.791,300325.74,1,40,,
trial,html.Screen,6_13_0,2023-11-15T18:45:07.634Z,,,,1,0.9808380646997692,0.7749885350260185,,true,ll,3502.7600000000093,response,-1.0859458972647518,0.9499999999999997,-0.9499999999999997,-0.9241823104580792,0.9499999999999997,-0.9499999999999997,low,low,,ISIC_0032190.JPG,,ISIC_0011721.JPG,142,true,ll,keypress(f),0,false,303828.89999997616,303828.5,300309.154,300316.1999999881,300325.74,303832.56,1,40,14,
sequence,flow.Sequence,6_13,2023-11-15T18:45:07.635Z,,,,,,,,,,3502.7600000000093,completion,,,,,,,low,low,,,,,,true,,,,false,303829.39999997616,303828.5,300309.154,300316.09999996424,300325.74,303832.56,1,40,,
trial,html.Screen,6_14_0,2023-11-15T18:45:14.938Z,,,,1,0.8946880006769797,0.9198276163642348,,true,ll,7299.5399999642395,response,-0.8552639039862626,0.9499999999999997,-0.9499999999999997,-1.0982314620989122,0.9499999999999997,-0.9499999999999997,low,low,,ISIC_7840728.JPG,,ISIC_0026278.JPG,142,true,ll,keypress(f),0,false,311132.39999997616,311132.09999996424,303815.986,303829.59999996424,303832.56,311146.935,1,40,15,
sequence,flow.Sequence,6_14,2023-11-15T18:45:14.938Z,,,,,,,,,,7299.5399999642395,completion,,,,,,,low,low,,,,,,true,,,,false,311132.89999997616,311132.09999996424,303815.986,303829.59999996424,303832.56,311146.935,1,40,,
trial,html.Screen,6_15_0,2023-11-15T18:45:18.041Z,,,,1,1.0657476601009717,0.970732112511705,,true,ll,3088.2649999880814,response,-1.1363600109870835,0.9499999999999997,-0.9499999999999997,-0.7799430990551102,0.9499999999999997,-0.9499999999999997,low,low,,ISIC_0010778.JPG,,ISIC_0026141.JPG,142,true,ll,keypress(f),0,false,314235.2999999523,314235.1999999881,311130.2,311133.1999999881,311146.935,314253.113,1,40,16,
sequence,flow.Sequence,6_15,2023-11-15T18:45:18.041Z,,,,,,,,,,3088.2649999880814,completion,,,,,,,low,low,,,,,,true,,,,false,314235.39999997616,314235.1999999881,311130.2,311133.1999999881,311146.935,314253.113,1,40,,
trial,html.Screen,6_16_0,2023-11-15T18:45:25.802Z,,,,1,-0.8809306963311293,0.8614910030038974,,false,hl,7743.186999952304,response,0.7870237732709365,0.9499999999999997,-0.9499999999999997,-0.9172955251119376,0.9499999999999997,-0.9499999999999997,high,low,,ISIC_0013731.JPG,,ISIC_0057716.JPG,26,true,ll,keypress(f),0,false,321996.59999996424,321996.2999999523,314219.385,314235.5,314253.113,322001.239,1,40,17,
sequence,flow.Sequence,6_16,2023-11-15T18:45:25.803Z,,,,,,,,,,7743.186999952304,completion,,,,,,,high,low,,,,,,true,,,,false,321997.1999999881,321996.2999999523,314219.385,314235.5,314253.113,322001.239,1,40,,
trial,html.Screen,6_17_0,2023-11-15T18:45:33.297Z,,,,1,0.887838744955182,-0.7545096650863988,,true,lh,7489.960999988078,response,-0.8534691366511764,0.9499999999999997,-0.9499999999999997,1.03975580494588,0.9499999999999997,-0.9499999999999997,low,high,,ISIC_1488727.JPG,,ISIC_0056788.JPG,28,true,lh,keypress(e),0,false,329491.39999997616,329491.1999999881,321984.658,321997.59999996424,322001.239,329499.07,1,40,18,
sequence,flow.Sequence,6_17,2023-11-15T18:45:33.297Z,,,,,,,,,,7489.960999988078,completion,,,,,,,low,high,,,,,,true,,,,false,329491.59999996424,329491.1999999881,321984.658,321997.39999997616,322001.239,329499.07,1,40,,
trial,html.Screen,6_18_0,2023-11-15T18:45:36.890Z,,,,1,-0.8579451262594331,0.9633172970727744,,false,hl,3585.129999988072,response,0.8816288864119318,0.9499999999999997,-0.9499999999999997,-0.801867301188093,0.9499999999999997,-0.9499999999999997,high,low,,ISIC_0067172.JPG,,ISIC_9196783.JPG,26,true,hh,keypress(i),0,false,333084.5,333084.1999999881,329482.538,329491.6999999881,329499.07,333089.384,1,40,19,
sequence,flow.Sequence,6_18,2023-11-15T18:45:36.890Z,,,,,,,,,,3585.129999988072,completion,,,,,,,high,low,,,,,,true,,,,false,333085,333084.1999999881,329482.538,329491.6999999881,329499.07,333089.384,1,40,,
trial,html.Screen,6_19_0,2023-11-15T18:45:42.850Z,,,,1,0.991146183030456,-0.9949639823722534,,false,lh,5954.415999952296,response,-0.8860551570327019,0.9499999999999997,-0.9499999999999997,0.8067116931297591,0.9499999999999997,-0.9499999999999997,low,high,,ISIC_6342224.JPG,,ISIC_1457687.JPG,28,true,ll,keypress(f),0,false,339044.09999996424,339043.7999999523,333072.92,333085.1999999881,333089.384,339050.966,1,40,20,
sequence,flow.Sequence,6_19,2023-11-15T18:45:42.850Z,,,,,,,,,,5954.415999952296,completion,,,,,,,low,high,,,,,,true,,,,false,339044.6999999881,339043.7999999523,333072.92,333085.09999996424,333089.384,339050.966,1,40,,
trial,html.Screen,6_20_0,2023-11-15T18:45:51.714Z,,,,1,0.8879651542647811,1.0571991308692388,,true,ll,8857.233999988064,response,-0.9612329482175124,0.9499999999999997,-0.9499999999999997,-0.8723650867900061,0.9499999999999997,-0.9499999999999997,low,low,,ISIC_0034100.JPG,,ISIC_4563766.JPG,142,true,ll,keypress(f),0,false,347908.5,347908.1999999881,339034.415,339044.89999997616,339050.966,347918.261,1,40,21,
sequence,flow.Sequence,6_20,2023-11-15T18:45:51.715Z,,,,,,,,,,8857.233999988064,completion,,,,,,,low,low,,,,,,true,,,,false,347908.89999997616,347908.1999999881,339034.415,339044.89999997616,339050.966,347918.261,1,40,,
trial,html.Screen,6_21_0,2023-11-15T18:45:59.786Z,,,,1,-0.8979276789594874,0.925374811016654,,false,hl,8061.4389999880805,response,1.0022829373011404,0.9499999999999997,-0.9499999999999997,-0.8311726972863814,0.9499999999999997,-0.9499999999999997,high,low,,ISIC_4208361.JPG,,ISIC_0033287.JPG,26,true,hh,keypress(i),0,false,355980.09999996424,355979.6999999881,347901.697,347909.1999999881,347918.261,355984.053,1,40,22,
sequence,flow.Sequence,6_21,2023-11-15T18:45:59.786Z,,,,,,,,,,8061.4389999880805,completion,,,,,,,high,low,,,,,,true,,,,false,355980.5,355979.6999999881,347901.697,347909.09999996424,347918.261,355984.053,1,40,,
trial,html.Screen,6_22_0,2023-11-15T18:46:07.041Z,,,,1,-0.9454713230140772,0.9245167441969216,,true,hl,7251.246999952302,response,0.7809949855371787,0.9499999999999997,-0.9499999999999997,-0.8493861117004308,0.9499999999999997,-0.9499999999999997,high,low,,ISIC_9101055.JPG,,ISIC_7450481.JPG,26,true,hl,keypress(j),0,false,363235.5,363235.2999999523,355967.429,355980.6999999881,355984.053,363248.228,1,40,23,
sequence,flow.Sequence,6_22,2023-11-15T18:46:07.041Z,,,,,,,,,,7251.246999952302,completion,,,,,,,high,low,,,,,,true,,,,false,363235.6999999881,363235.2999999523,355967.429,355980.6999999881,355984.053,363248.228,1,40,,
trial,html.Screen,6_23_0,2023-11-15T18:46:12.154Z,,,,1,-1.1011373150916248,-0.7816231038128233,,true,hh,5099.771999999997,response,0.9152802917888962,0.9499999999999997,-0.9499999999999997,0.8414601987949015,0.9499999999999997,-0.9499999999999997,high,high,,ISIC_8477065.JPG,,ISIC_0060341.JPG,167,true,hh,keypress(i),0,false,368348.2999999523,368348,363231.486,363235.89999997616,363248.228,368358.02,1,40,24,
sequence,flow.Sequence,6_23,2023-11-15T18:46:12.154Z,,,,,,,,,,5099.771999999997,completion,,,,,,,high,high,,,,,,true,,,,false,368348.7999999523,368348,363231.486,363235.89999997616,363248.228,368358.02,1,40,,
trial,html.Screen,6_24_0,2023-11-15T18:46:22.898Z,,,,1,0.8926778502294954,0.9164454040166848,,true,ll,10734.37999997614,response,-1.1217390688497193,0.9499999999999997,-0.9499999999999997,-0.8482399573167824,0.9499999999999997,-0.9499999999999997,low,low,,ISIC_0011460.JPG,,ISIC_0026344.JPG,142,true,ll,keypress(f),0,false,379092.6999999881,379092.39999997616,368341.487,368348.89999997616,368358.02,379095.624,1,40,25,
sequence,flow.Sequence,6_24,2023-11-15T18:46:22.899Z,,,,,,,,,,10734.37999997614,completion,,,,,,,low,low,,,,,,true,,,,false,379093.1999999881,379092.39999997616,368341.487,368348.89999997616,368358.02,379095.624,1,40,,
trial,html.Screen,6_25_0,2023-11-15T18:46:30.794Z,,,,1,-0.9696118525781644,0.9244148283103414,,false,hl,7892.4759999642265,response,0.809764442462202,0.9499999999999997,-0.9499999999999997,-1.005337148078696,0.9499999999999997,-0.9499999999999997,high,low,,ISIC_7927525.JPG,,ISIC_2379379.JPG,26,true,lh,keypress(e),0,false,386988.39999997616,386988.09999996424,379079.014,379093.5,379095.624,386994.221,1,40,26,
sequence,flow.Sequence,6_25,2023-11-15T18:46:30.795Z,,,,,,,,,,7892.4759999642265,completion,,,,,,,high,low,,,,,,true,,,,false,386989,386988.09999996424,379079.014,379093.39999997616,379095.624,386994.221,1,40,,
trial,html.Screen,6_26_0,2023-11-15T18:46:36.938Z,,,,1,-0.7543493127539531,-0.9452304370934528,,true,hh,6138.078999952297,response,1.0376573622140812,0.9499999999999997,-0.9499999999999997,1.0000402707486682,0.9499999999999997,-0.9499999999999997,high,high,,ISIC_0029017.JPG,,ISIC_0068798.JPG,167,true,hh,keypress(i),0,false,393132.6999999881,393132.2999999523,386977.718,386989.1999999881,386994.221,393139.503,1,40,27,
sequence,flow.Sequence,6_26,2023-11-15T18:46:36.939Z,,,,,,,,,,6138.078999952297,completion,,,,,,,high,high,,,,,,true,,,,false,393133.39999997616,393132.2999999523,386977.718,386989.1999999881,386994.221,393139.503,1,40,,
trial,html.Screen,6_27_0,2023-11-15T18:46:45.778Z,,,,1,1.0122398223568725,-0.7505228537454216,,false,lh,8832.496999999974,response,-1.0656673213158945,0.9499999999999997,-0.9499999999999997,0.8082541692781954,0.9499999999999997,-0.9499999999999997,low,high,,ISIC_0033802.JPG,,ISIC_0033985.JPG,28,true,ll,keypress(f),0,false,401972.39999997616,401972,393122.937,393133.59999996424,393139.503,401990.317,1,40,28,
sequence,flow.Sequence,6_27,2023-11-15T18:46:45.779Z,,,,,,,,,,8832.496999999974,completion,,,,,,,low,high,,,,,,true,,,,false,401972.89999997616,401972,393122.937,393133.5,393139.503,401990.317,1,40,,
trial,html.Screen,6_28_0,2023-11-15T18:46:52.121Z,,,,1,-0.8579451262594331,0.9633172970727744,,false,hl,6324.683000000019,response,0.7871162143493278,0.9499999999999997,-0.9499999999999997,-0.8429329800778957,0.9499999999999997,-0.9499999999999997,high,low,,ISIC_0067172.JPG,,ISIC_3439215.JPG,26,true,hh,keypress(i),0,false,408315.1999999881,408315,401973.416,401973.09999996424,401990.317,408319.021,1,40,29,
sequence,flow.Sequence,6_28,2023-11-15T18:46:52.121Z,,,,,,,,,,6324.683000000019,completion,,,,,,,high,low,,,,,,true,,,,false,408315.2999999523,408315,401973.416,401973.09999996424,401990.317,408319.021,1,40,,
trial,html.Screen,6_29_0,2023-11-15T18:47:01.081Z,,,,1,-0.8860551570327019,0.8067116931297591,,false,hl,8955.478999999992,response,1.0122398223568725,0.9499999999999997,-0.9499999999999997,-0.7505228537454216,0.9499999999999997,-0.9499999999999997,high,low,,ISIC_1457687.JPG,,ISIC_0033802.JPG,26,true,hh,keypress(i),0,false,417274.6999999881,417274.5,408302.398,408315.5,408319.021,417286.492,1,40,30,
sequence,flow.Sequence,6_29,2023-11-15T18:47:01.081Z,,,,,,,,,,8955.478999999992,completion,,,,,,,high,low,,,,,,true,,,,false,417274.6999999881,417274.5,408302.398,408315.39999997616,408319.021,417286.492,1,40,,
trial,html.Screen,6_30_0,2023-11-15T18:47:04.921Z,,,,1,-1.0097932576366906,-1.0644834610939486,,true,hh,3828.6079999642097,response,1.0678895386758027,0.9499999999999997,-0.9499999999999997,1.0279759018569252,0.9499999999999997,-0.9499999999999997,high,high,,ISIC_8559515.JPG,,ISIC_0069933.JPG,167,true,hh,keypress(i),0,false,421115.1999999881,421115.09999996424,417269.932,417274.7999999523,417286.492,421127.502,1,40,31,
sequence,flow.Sequence,6_30,2023-11-15T18:47:04.921Z,,,,,,,,,,3828.6079999642097,completion,,,,,,,high,high,,,,,,true,,,,false,421115.39999997616,421115.09999996424,417269.932,417274.7999999523,417286.492,421127.502,1,40,,
trial,html.Screen,6_31_0,2023-11-15T18:47:12.882Z,,,,1,0.9054613726799198,1.0522064490699743,,true,ll,7948.597999964259,response,-0.9684792294535484,0.9499999999999997,-0.9499999999999997,-0.9741930282015964,0.9499999999999997,-0.9499999999999997,low,low,,ISIC_0064860.JPG,,ISIC_3372750.JPG,142,true,ll,keypress(f),0,false,429076.39999997616,429076.09999996424,421110.635,421115.5,421127.502,429092.94,1,40,32,
sequence,flow.Sequence,6_31,2023-11-15T18:47:12.883Z,,,,,,,,,,7948.597999964259,completion,,,,,,,low,low,,,,,,true,,,,false,429076.89999997616,429076.09999996424,421110.635,421115.39999997616,421127.502,429092.94,1,40,,
trial,html.Screen,6_32_0,2023-11-15T18:47:22.139Z,,,,1,0.8284509690992466,1.016636264838755,,true,ll,9239.359999952314,response,-0.964746248973834,0.9499999999999997,-0.9499999999999997,-0.9069353065857808,0.9499999999999997,-0.9499999999999997,low,low,,ISIC_7973598.JPG,,ISIC_9896801.JPG,142,true,ll,keypress(f),0,false,438332.5,438332.2999999523,429075.991,429077.09999996424,429092.94,438344.169,1,40,33,
sequence,flow.Sequence,6_32,2023-11-15T18:47:22.139Z,,,,,,,,,,9239.359999952314,completion,,,,,,,low,low,,,,,,true,,,,false,438333.09999996424,438332.2999999523,429075.991,429077.09999996424,429092.94,438344.169,1,40,,
trial,html.Screen,6_33_0,2023-11-15T18:47:30.257Z,,,,1,0.991146183030456,-0.9949639823722534,,false,lh,8106.430999964243,response,-0.991282840649944,0.9499999999999997,-0.9499999999999997,0.9397921099839784,0.9499999999999997,-0.9499999999999997,low,high,,ISIC_6342224.JPG,,ISIC_0000463.JPG,28,true,ll,keypress(f),0,false,446450.6999999881,446450.59999996424,438327.563,438333.2999999523,438344.169,446459.841,1,40,34,
sequence,flow.Sequence,6_33,2023-11-15T18:47:30.257Z,,,,,,,,,,8106.430999964243,completion,,,,,,,low,high,,,,,,true,,,,false,446450.7999999523,446450.59999996424,438327.563,438333.2999999523,438344.169,446459.841,1,40,,
trial,html.Screen,6_34_0,2023-11-15T18:47:37.131Z,,,,1,0.9090432487160188,1.033319341099857,,true,ll,6864.458999952301,response,-0.8670473182120986,0.9499999999999997,-0.9499999999999997,-0.7813797649042047,0.9499999999999997,-0.9499999999999997,low,low,,ISIC_4119029.JPG,,ISIC_0069257.JPG,142,true,ll,keypress(f),0,false,453324.6999999881,453324.2999999523,446443.238,446450.7999999523,446459.841,453340.007,1,40,35,
sequence,flow.Sequence,6_34,2023-11-15T18:47:37.131Z,,,,,,,,,,6864.458999952301,completion,,,,,,,low,low,,,,,,true,,,,false,453325.09999996424,453324.2999999523,446443.238,446450.7999999523,446459.841,453340.007,1,40,,
trial,html.Screen,6_35_0,2023-11-15T18:47:47.827Z,,,,1,-1.0656673213158945,0.8082541692781954,,false,hl,10680.192999988096,response,0.7723849213858904,0.9499999999999997,-0.9499999999999997,-0.888372424147899,0.9499999999999997,-0.9499999999999997,high,low,,ISIC_0033985.JPG,,ISIC_3884221.JPG,26,true,hh,keypress(i),0,false,464020.59999996424,464020.1999999881,453323.303,453325.39999997616,453340.007,464027.419,1,40,36,
sequence,flow.Sequence,6_35,2023-11-15T18:47:47.827Z,,,,,,,,,,10680.192999988096,completion,,,,,,,high,low,,,,,,true,,,,false,464021,464020.1999999881,453323.303,453325.2999999523,453340.007,464027.419,1,40,,
trial,html.Screen,6_36_0,2023-11-15T18:47:55.211Z,,,,1,0.9787884514439864,1.139528725910855,,true,ll,7376.480999976164,response,-1.0014506884079168,0.9499999999999997,-0.9499999999999997,-0.8483652665994107,0.9499999999999997,-0.9499999999999997,low,low,,ISIC_0032726.JPG,,ISIC_1110583.JPG,142,true,ll,keypress(f),0,false,471404.2999999523,471403.89999997616,464010.693,464021.2999999523,464027.419,471408.43,1,40,37,
sequence,flow.Sequence,6_36,2023-11-15T18:47:55.211Z,,,,,,,,,,7376.480999976164,completion,,,,,,,low,low,,,,,,true,,,,false,471404.7999999523,471403.89999997616,464010.693,464021.1999999881,464027.419,471408.43,1,40,,
trial,html.Screen,6_37_0,2023-11-15T18:47:58.787Z,,,,1,-0.8671772321064484,-1.0212529379514277,,true,hh,3571.769999988086,response,1.0377676235641546,0.9499999999999997,-0.9499999999999997,1.0836906473836847,0.9499999999999997,-0.9499999999999997,high,high,,ISIC_0004352.JPG,,ISIC_0010540.JPG,167,true,hh,keypress(i),0,false,474980.5,474980.1999999881,471391.892,471405,471408.43,474998.693,1,40,38,
sequence,flow.Sequence,6_37,2023-11-15T18:47:58.787Z,,,,,,,,,,3571.769999988086,completion,,,,,,,high,high,,,,,,true,,,,false,474981,474980.1999999881,471391.892,471404.89999997616,471408.43,474998.693,1,40,,
trial,html.Screen,6_38_0,2023-11-15T18:48:01.386Z,,,,1,-0.8995154199215303,-0.8258046477520162,,true,hh,2580.5069999880507,response,0.9441762364280936,0.9499999999999997,-0.9499999999999997,0.7652061050527971,0.9499999999999997,-0.9499999999999997,high,high,,ISIC_6345354.JPG,,ISIC_0065521.JPG,167,true,hh,keypress(i),0,false,477579.39999997616,477579.1999999881,474965.561,474981.1999999881,474998.693,477587.123,1,40,39,
sequence,flow.Sequence,6_38,2023-11-15T18:48:01.386Z,,,,,,,,,,2580.5069999880507,completion,,,,,,,high,high,,,,,,true,,,,false,477579.59999996424,477579.1999999881,474965.561,474981.1999999881,474998.693,477587.123,1,40,,
trial,html.Screen,6_39_0,2023-11-15T18:48:04.979Z,,,,1,-0.924867075003666,-0.9114881908569834,,true,hh,3584.8769999999786,response,0.8275724656944242,0.9499999999999997,-0.9499999999999997,1.032932228318526,0.9499999999999997,-0.9499999999999997,high,high,,ISIC_7499769.JPG,,ISIC_0011463.JPG,167,true,hh,keypress(i),0,false,481172.2999999523,481172,477570.622,477579.7999999523,477587.123,481177.388,1,40,40,
sequence,flow.Sequence,6_39,2023-11-15T18:48:04.979Z,,,,,,,,,,3584.8769999999786,completion,,,,,,,high,high,,,,,,true,,,,false,481172.89999997616,481172,477570.622,477579.7999999523,477587.123,481177.388,1,40,,
practice_loop,flow.Loop,6,2023-11-15T18:48:04.979Z,,,,,,,,,,274595.353,completion,,,,,,,,,,,,,,true,,,,false,481173.09999996424,481172,206559.968,206577.89999997616,206576.647,481177.388,1,40,,
stair_instructions,html.Screen,7,2023-11-15T18:48:12.489Z,,,,,,,,,,7505.011999976181,response,,,,,,,,,,,,,,,continue,click button,,,488682.89999997616,488682.39999997616,481160.93,481173.2999999523,481177.388,488708.75,,,,
trial,html.Screen,8_0_0,2023-11-15T18:48:22.284Z,,,,2,0.0069555338059566,-0.0310100918136373,,true,ll,9769.049999952316,response,-0.8463538475082831,0.9499999999999997,-0.9499999999999997,-0.8806175558408877,0.9499999999999997,-0.9499999999999997,low,low,,ISIC_0011177.JPG,,ISIC_8916136.JPG,142,false,ll,keypress(f),0,true,498477.89999997616,498477.7999999523,488692.165,488683,488708.75,498494.684,1,40,1,
sequence,flow.Sequence,8_0,2023-11-15T18:48:22.284Z,,,,,,,,,,9769.049999952316,completion,,,,,,,low,low,,,,,,false,,,,true,498478,498477.7999999523,488692.165,488682.89999997616,488708.75,498494.684,1,40,,
trial,html.Screen,8_1_0,2023-11-15T18:48:30.931Z,,,,2,-0.0051189696037511,0.0396625911332438,,false,hl,8629.51599998807,response,1.0022829373011404,0.9499999999999997,-0.9499999999999997,-0.8311726972863814,0.9499999999999997,-0.9499999999999997,high,low,,ISIC_9742891.JPG,,ISIC_0033287.JPG,26,false,lh,keypress(e),0,true,507124.5,507124.1999999881,498477.696,498478.09999996424,498494.684,507127.971,1,40,2,
sequence,flow.Sequence,8_1,2023-11-15T18:48:30.931Z,,,,,,,,,,8629.51599998807,completion,,,,,,,high,low,,,,,,false,,,,true,507124.89999997616,507124.1999999881,498477.696,498478.09999996424,498494.684,507127.971,1,40,,
trial,html.Screen,8_2_0,2023-11-15T18:48:35.636Z,,,,2,-0.0546386976779619,0.0448724759283131,,false,lh,4701.2289999880595,response,-0.7933921755497018,0.9999999999999998,-0.9499999999999997,0.7692916291112835,0.9499999999999997,-0.9999999999999998,low,high,,ISIC_6722934.JPG,,ISIC_7844825.JPG,28,false,ll,keypress(f),0,true,511829.39999997616,511829.1999999881,507111.432,507125.1999999881,507127.971,511837.03,1,40,3,
sequence,flow.Sequence,8_2,2023-11-15T18:48:35.636Z,,,,,,,,,,4701.2289999880595,completion,,,,,,,low,high,,,,,,false,,,,true,511829.39999997616,511829.1999999881,507111.432,507125.09999996424,507127.971,511837.03,1,40,,
trial,html.Screen,8_3_0,2023-11-15T18:48:42.459Z,,,,2,-0.0245376145053177,0.0436993426328401,,false,lh,6815.36999997613,response,-0.7133243033950115,0.9999999999999998,-0.7870048656952947,0.9575090175925351,0.9999999999999998,-0.9999999999999998,low,high,,ISIC_0056444.JPG,,ISIC_1369273.JPG,41,false,ll,keypress(f),0,true,518652.7999999523,518652.39999997616,511820.532,511829.5,511837.03,518667.028,1,40,4,
sequence,flow.Sequence,8_3,2023-11-15T18:48:42.460Z,,,,,,,,,,6815.36999997613,completion,,,,,,,low,high,,,,,,false,,,,true,518653.1999999881,518652.39999997616,511820.532,511829.5,511837.03,518667.028,1,40,,
trial,html.Screen,8_4_0,2023-11-15T18:48:46.939Z,,,,2,-0.0188047466661863,0.0288346930436979,,true,ll,4464.972000000009,response,-0.7422736922357102,0.9999999999999998,-0.7870048656952947,-0.9021253278345898,1.0499999999999998,-0.9999999999999998,low,low,,ISIC_0014157.JPG,,ISIC_0031582.JPG,167,false,ll,keypress(f),0,true,523132.2999999523,523132,518650.326,518653.5,518667.028,523142.326,1,40,5,
sequence,flow.Sequence,8_4,2023-11-15T18:48:46.939Z,,,,,,,,,,4464.972000000009,completion,,,,,,,low,low,,,,,,false,,,,true,523132.7999999523,523132,518650.326,518653.39999997616,518667.028,523142.326,1,40,,
trial,html.Screen,8_5_0,2023-11-15T18:48:52.035Z,,,,2,-0.0149482827359613,0.0661630859332833,,false,ll,5085.773999964236,response,-0.6135391544389465,0.9999999999999998,-0.77219951003515,-0.8000415035543867,1.0499999999999998,-0.9999999999999998,low,low,,ISIC_6815524.JPG,,ISIC_2638895.JPG,172,false,hl,keypress(j),0,true,528228.3999999762,528228.0999999642,523125.825,523133.09999996424,523142.326,528235.583,1,40,6,
sequence,flow.Sequence,8_5,2023-11-15T18:48:52.035Z,,,,,,,,,,5085.773999964236,completion,,,,,,,low,low,,,,,,false,,,,true,528228.8999999762,528228.0999999642,523125.825,523132.89999997616,523142.326,528235.583,1,40,,
trial,html.Screen,8_6_0,2023-11-15T18:48:57.450Z,,,,2,-0.0113873532168551,-0.0054999201556291,,true,ll,5407.417000000016,response,-0.7422736922357102,0.9999999999999998,-0.82219951003515,-0.9021253278345898,1.0499999999999998,-0.8010834156944882,low,low,,ISIC_8812621.JPG,,ISIC_0031582.JPG,234,false,ll,keypress(f),0,true,533643.0999999642,533643,528219.154,528229.1999999881,528235.583,533646.101,1,40,7,
sequence,flow.Sequence,8_6,2023-11-15T18:48:57.450Z,,,,,,,,,,5407.417000000016,completion,,,,,,,low,low,,,,,,false,,,,true,533643.1999999881,533643,528219.154,528229,528235.583,533646.101,1,40,,
trial,html.Screen,8_7_0,2023-11-15T18:49:02.498Z,,,,2,-0.0362376068089956,-0.047825070846155,,false,lh,5045.098999988055,response,-0.7784583866003763,0.9999999999999998,-0.82219951003515,0.9641514808986528,1.0499999999999998,-0.8010834156944882,low,high,,ISIC_6985114.JPG,,ISIC_0011924.JPG,37,false,hl,keypress(j),0,true,538691.3999999762,538691.1999999881,533629.618,533643.2999999523,533646.101,538706.02,1,40,8,
sequence,flow.Sequence,8_7,2023-11-15T18:49:02.498Z,,,,,,,,,,5045.098999988055,completion,,,,,,,low,high,,,,,,false,,,,true,538691.6999999881,538691.1999999881,533629.618,533643.1999999881,533646.101,538706.02,1,40,,
trial,html.Screen,8_8_0,2023-11-15T18:49:09.371Z,,,,2,0.0069555338059566,-0.0310100918136373,,true,hh,6858.279999952298,response,1.0525532302758762,0.9999999999999998,-0.8721995100351501,1.1628982512509805,1.0999999999999999,-0.8010834156944882,high,high,,ISIC_0011177.JPG,,ISIC_0033428.JPG,130,false,hh,keypress(i),0,true,545564.6999999881,545564.2999999523,538689.377,538691.8999999762,538706.02,545569.293,1,40,9,
sequence,flow.Sequence,8_8,2023-11-15T18:49:09.372Z,,,,,,,,,,6858.279999952298,completion,,,,,,,high,high,,,,,,false,,,,true,545565.0999999642,545564.2999999523,538689.377,538691.7999999523,538706.02,545569.293,1,40,,
trial,html.Screen,8_9_0,2023-11-15T18:49:16.243Z,,,,2,-0.0021038737988857,0.0570427519488725,,false,lh,6866.80699996429,response,-0.8579451262594331,0.9999999999999998,-0.8721995100351501,0.9633172970727744,1.0999999999999999,-0.8010834156944882,low,high,,ISIC_3596927.JPG,,ISIC_0067172.JPG,27,false,ll,keypress(f),0,true,552436.5,552436.0999999642,545552.783,545565.3999999762,545569.293,552449.314,1,40,10,
sequence,flow.Sequence,8_9,2023-11-15T18:49:16.244Z,,,,,,,,,,6866.80699996429,completion,,,,,,,low,high,,,,,,false,,,,true,552437,552436.0999999642,545552.783,545565.3999999762,545569.293,552449.314,1,40,,
trial,html.Screen,8_10_0,2023-11-15T18:49:19.170Z,,,,2,0.0217698886732706,-0.0410870915161425,,true,hh,2913.685999999987,response,0.8042584193544507,0.9999999999999998,-0.8721995100351501,1.1325589611397748,1.15,-0.8010834156944882,high,high,,ISIC_0072173.JPG,,ISIC_0026188.JPG,123,false,hh,keypress(i),0,true,555363.0999999642,555363,552432.825,552437.1999999881,552449.314,555371.903,1,40,11,
sequence,flow.Sequence,8_10,2023-11-15T18:49:19.170Z,,,,,,,,,,2913.685999999987,completion,,,,,,,high,high,,,,,,false,,,,true,555363.1999999881,555363,552432.825,552437.0999999642,552449.314,555371.903,1,40,,
trial,html.Screen,8_11_0,2023-11-15T18:49:24.459Z,,,,2,0.0336891949856763,0.060314732178219,,true,hh,5280.496999976109,response,1.0774704182387804,0.9184086902471127,-0.8721995100351501,1.0186619444121927,1.15,-0.8010834156944882,high,high,,ISIC_6192289.JPG,,ISIC_0066564.JPG,131,false,hh,keypress(i),0,true,560652.6999999881,560652.3999999762,555355.076,555363.2999999523,555371.903,560665.351,1,40,12,
sequence,flow.Sequence,8_11,2023-11-15T18:49:24.460Z,,,,,,,,,,5280.496999976109,completion,,,,,,,high,high,,,,,,false,,,,true,560653.1999999881,560652.3999999762,555355.076,555363.2999999523,555371.903,560665.351,1,40,,
trial,html.Screen,8_12_0,2023-11-15T18:49:29.633Z,,,,2,0.0450282431170921,,,false,ll,5161.448999952292,response,-1.0721636822001903,0.9184086902471127,-0.8721995100351501,-0.7203341684663299,0.9980661813254865,-0.8010834156944882,low,low,,ISIC_1805163.JPG,,ISIC_5897799.JPG,216,false,hl,keypress(j),0,true,565826.8999999762,565826.7999999523,560648.692,560653.3999999762,560665.351,565842.297,1,40,13,
sequence,flow.Sequence,8_12,2023-11-15T18:49:29.634Z,,,,,,,,,,5161.448999952292,completion,,,,,,,low,low,,,,,,false,,,,true,565827.0999999642,565826.7999999523,560648.692,560653.2999999523,560665.351,565842.297,1,40,,
trial,html.Screen,8_13_0,2023-11-15T18:49:35.155Z,,,,2,0.0511770300585718,0.029030243555971,,true,ll,5505.902999988059,response,-0.7364040295700175,0.9184086902471127,-0.9221995100351501,-0.6893802692751027,0.9980661813254865,-0.7510834156944881,low,low,,ISIC_6652978.JPG,,ISIC_4967639.JPG,221,false,ll,keypress(f),0,true,571348.5999999642,571348.1999999881,565825.42,565827.1999999881,565842.297,571352.768,1,40,14,
sequence,flow.Sequence,8_13,2023-11-15T18:49:35.156Z,,,,,,,,,,5505.902999988059,completion,,,,,,,low,low,,,,,,false,,,,true,571349,571348.1999999881,565825.42,565827.1999999881,565842.297,571352.768,1,40,,
trial,html.Screen,8_14_0,2023-11-15T18:49:39.195Z,,,,2,-0.0292059717970335,-0.0718256867525069,,false,lh,4035.23199999996,response,-0.7836356408583546,0.9184086902471127,-0.9221995100351501,1.1197925594706428,0.9980661813254865,-0.7510834156944881,low,high,,ISIC_1114966.JPG,,ISIC_0024961.JPG,29,false,hh,keypress(i),0,true,575388.1999999881,575388,571336.289,571349.2999999523,571352.768,575393.964,1,40,15,
sequence,flow.Sequence,8_14,2023-11-15T18:49:39.195Z,,,,,,,,,,4035.23199999996,completion,,,,,,,low,high,,,,,,false,,,,true,575388.6999999881,575388,571336.289,571349.1999999881,571352.768,575393.964,1,40,,
trial,html.Screen,8_15_0,2023-11-15T18:49:46.964Z,,,,2,0.0593670819812057,-0.0718390543903236,,true,hl,7762.435999976122,response,1.073191619565092,0.9184086902471127,-0.9721995100351501,-0.6195550709150465,0.9980661813254865,-0.7510834156944881,high,low,,ISIC_0062367.JPG,,ISIC_9386509.JPG,48,false,hl,keypress(j),0,true,583156.6999999881,583156.3999999762,575377.251,575389,575393.964,583176.399,1,40,16,
sequence,flow.Sequence,8_15,2023-11-15T18:49:46.964Z,,,,,,,,,,7762.435999976122,completion,,,,,,,high,low,,,,,,false,,,,true,583157.1999999881,583156.3999999762,575377.251,575388.8999999762,575393.964,583176.399,1,40,,
trial,html.Screen,8_16_0,2023-11-15T18:49:56.203Z,,,,2,-0.0735635316240061,0.0537805418091709,,false,hl,9219.40099995234,response,0.6944376285889835,0.8684086902471126,-0.9721995100351501,-0.5400731285090051,0.9980661813254865,-0.7010834156944881,high,low,,ISIC_1761799.JPG,,ISIC_6831108.JPG,58,false,hh,keypress(i),0,true,592396.1999999881,592395.7999999523,583142.424,583157.5,583176.399,592410.621,1,40,17,
sequence,flow.Sequence,8_16,2023-11-15T18:49:56.204Z,,,,,,,,,,9219.40099995234,completion,,,,,,,high,low,,,,,,false,,,,true,592396.6999999881,592395.7999999523,583142.424,583157.3999999762,583176.399,592410.621,1,40,,
trial,html.Screen,8_17_0,2023-11-15T18:50:04.035Z,,,,2,-0.009234249673026,-0.0627190878028592,,true,hl,7817.578999988036,response,0.796241477082623,0.8684086902471126,-0.9721995100351501,-0.9017449335975743,0.9980661813254865,-0.7510834156944881,high,low,,ISIC_0053760.JPG,,ISIC_8588033.JPG,55,false,hl,keypress(j),0,true,600228.5999999642,600228.1999999881,592393.648,592396.8999999762,592410.621,600242.498,1,40,18,
sequence,flow.Sequence,8_17,2023-11-15T18:50:04.036Z,,,,,,,,,,7817.578999988036,completion,,,,,,,high,low,,,,,,false,,,,true,600229.0999999642,600228.1999999881,592393.648,592396.7999999523,592410.621,600242.498,1,40,,
trial,html.Screen,8_18_0,2023-11-15T18:50:09.555Z,,,,2,0.0194167651857046,0.0726253809408601,,false,lh,5505.401999976137,response,-0.7784583866003763,0.8184086902471126,-0.9721995100351501,0.9641514808986528,0.9980661813254865,-0.7510834156944881,low,high,,ISIC_0056692.JPG,,ISIC_0011924.JPG,26,false,hh,keypress(i),0,true,605748.1999999881,605747.8999999762,600225.783,600229.2999999523,600242.498,605753.002,1,40,19,
sequence,flow.Sequence,8_18,2023-11-15T18:50:09.556Z,,,,,,,,,,5505.401999976137,completion,,,,,,,low,high,,,,,,false,,,,true,605748.6999999881,605747.8999999762,600225.783,600229.1999999881,600242.498,605753.002,1,40,,
trial,html.Screen,8_19_0,2023-11-15T18:50:20.548Z,,,,2,0.0116094682222121,-0.0258434522530318,,,,11021.437000000034,timeout,-0.8667552171342019,0.8184086902471126,-1.0221995100351502,-0.8212818427650904,0.9480661813254865,-0.7510834156944881,low,low,,ISIC_9239632.JPG,,ISIC_5219334.JPG,187,false,,,0,true,616741.3999999762,616741.2999999523,605736.471,605748.8999999762,605753.002,616774.439,1,40,20,
sequence,flow.Sequence,8_19,2023-11-15T18:50:20.548Z,,,,,,,,,,10988.297999952338,completion,,,,,,,low,low,,,,,,false,,,,true,616741.5,616741.2999999523,605736.471,605748.8999999762,605753.002,616774.439,1,40,,
trial,html.Screen,8_20_0,2023-11-15T18:50:28.569Z,,,,2,0.0107854985447517,0.0478010417136109,,false,lh,7987.960999976145,response,-0.858338058340649,0.8184086902471126,-1.0221995100351502,0.9540612223480284,0.9480661813254865,-0.7510834156944881,low,high,,ISIC_0010500.JPG,,ISIC_8922893.JPG,24,false,ll,keypress(f),0,true,624762.5,624762.3999999762,616757.757,616741.5999999642,616774.439,624773.455,1,40,21,
sequence,flow.Sequence,8_20,2023-11-15T18:50:28.570Z,,,,,,,,,,7987.960999976145,completion,,,,,,,low,high,,,,,,false,,,,true,624762.6999999881,624762.3999999762,616757.757,616741.5999999642,616774.439,624773.455,1,40,,
trial,html.Screen,8_21_0,2023-11-15T18:50:34.971Z,,,,2,-0.0149482827359613,0.0661630859332833,,false,hl,6390.744999988121,response,0.658450997652008,0.8184086902471126,-1.0221995100351502,-0.8660404645096786,0.9980661813254865,-0.7510834156944881,high,low,,ISIC_6815524.JPG,,ISIC_6515546.JPG,62,false,hh,keypress(i),0,true,631164.5,631164.1999999881,624756.76,624762.6999999881,624773.455,631169.104,1,40,22,
sequence,flow.Sequence,8_21,2023-11-15T18:50:34.972Z,,,,,,,,,,6390.744999988121,completion,,,,,,,high,low,,,,,,false,,,,true,631165,631164.1999999881,624756.76,624762.6999999881,624773.455,631169.104,1,40,,
trial,html.Screen,8_22_0,2023-11-15T18:50:38.554Z,,,,2,-0.0531672914703651,0.0074883925434357,,true,hh,3577.695999952266,response,0.8488468966866934,0.8184086902471126,-1.0221995100351502,0.9438364121327284,0.9980661813254865,-0.8010834156944882,high,high,,ISIC_4177043.JPG,,ISIC_0010749.JPG,181,false,hh,keypress(i),0,true,634746.8999999762,634746.7999999523,631152.545,631165.1999999881,631169.104,634759.662,1,40,23,
sequence,flow.Sequence,8_22,2023-11-15T18:50:38.554Z,,,,,,,,,,3577.695999952266,completion,,,,,,,high,high,,,,,,false,,,,true,634747.0999999642,634746.7999999523,631152.545,631165.1999999881,631169.104,634759.662,1,40,,
trial,html.Screen,8_23_0,2023-11-15T18:50:44.035Z,,,,2,0.0107854985447517,0.0478010417136109,,false,hh,5468.137999952305,response,0.6867208511502763,0.8463416544097109,-1.0221995100351502,0.9657289110900686,0.9980661813254865,-0.8010834156944882,high,high,,ISIC_0010500.JPG,,ISIC_0063447.JPG,178,false,ll,keypress(f),0,true,640228.0999999642,640227.7999999523,634742.936,634747.2999999523,634759.662,640236.712,1,40,24,
sequence,flow.Sequence,8_23,2023-11-15T18:50:44.036Z,,,,,,,,,,5468.137999952305,completion,,,,,,,high,high,,,,,,false,,,,true,640228.5999999642,640227.7999999523,634742.936,634747.2999999523,634759.662,640236.712,1,40,,
trial,html.Screen,8_24_0,2023-11-15T18:50:46.764Z,,,,2,-0.009234249673026,-0.0627190878028592,,false,lh,2719.6879999761004,response,-0.8487429103619056,0.8963416544097109,-1.0221995100351502,0.9778257804233036,1.0480661813254866,-0.8010834156944882,low,high,,ISIC_0053760.JPG,,ISIC_4554863.JPG,20,false,ll,keypress(f),0,true,642956.7999999523,642956.3999999762,640220.001,640228.8999999762,640236.712,642976.295,1,40,25,
sequence,flow.Sequence,8_24,2023-11-15T18:50:46.764Z,,,,,,,,,,2719.6879999761004,completion,,,,,,,low,high,,,,,,false,,,,true,642957.1999999881,642956.3999999762,640220.001,640228.8999999762,640236.712,642976.295,1,40,,
trial,html.Screen,8_25_0,2023-11-15T18:50:49.267Z,,,,2,-0.0735635316240061,0.0537805418091709,,false,lh,2483.704999999958,response,-0.7401156491866404,0.8463416544097109,-0.9221995100351501,0.94165594025755,1.0480661813254866,-0.7510834156944881,low,high,,ISIC_1761799.JPG,,ISIC_0072429.JPG,25,false,ll,keypress(f),0,true,645460.2999999523,645460,642942.003,642957.5,642976.295,645463.663,1,40,26,
sequence,flow.Sequence,8_25,2023-11-15T18:50:49.268Z,,,,,,,,,,2483.704999999958,completion,,,,,,,low,high,,,,,,false,,,,true,645460.7999999523,645460,642942.003,642957.3999999762,642976.295,645463.663,1,40,,
trial,html.Screen,8_26_0,2023-11-15T18:50:53.475Z,,,,2,0.0450282431170921,,,true,hh,4203.936999964295,response,0.8387460443597405,0.8463416544097109,-0.9221995100351501,1.12466521758037,1.0980661813254866,-0.7510834156944881,high,high,,ISIC_1805163.JPG,,ISIC_0014189.JPG,159,false,hh,keypress(i),0,true,649668,649667.5999999642,645447.05,645461.0999999642,645463.663,649671.855,1,40,27,
sequence,flow.Sequence,8_26,2023-11-15T18:50:53.476Z,,,,,,,,,,4203.936999964295,completion,,,,,,,high,high,,,,,,false,,,,true,649668.5,649667.5999999642,645447.05,645461,645463.663,649671.855,1,40,,
trial,html.Screen,8_27_0,2023-11-15T18:51:00.850Z,,,,2,-0.0149482827359613,0.0661630859332833,,false,lh,7370.544999976177,response,-0.991282840649944,0.8463416544097109,-0.9221995100351501,0.9397921099839784,1.0980661813254866,-0.7510834156944881,low,high,,ISIC_6815524.JPG,,ISIC_0000463.JPG,22,false,hl,keypress(j),0,true,657042.5,657042.3999999762,649655.198,649668.6999999881,649671.855,657052.792,1,40,28,
sequence,flow.Sequence,8_27,2023-11-15T18:51:00.850Z,,,,,,,,,,7370.544999976177,completion,,,,,,,low,high,,,,,,false,,,,true,657042.6999999881,657042.3999999762,649655.198,649668.5999999642,649671.855,657052.792,1,40,,
trial,html.Screen,8_28_0,2023-11-15T18:51:11.252Z,,,,2,0.0107854985447517,0.0478010417136109,,true,ll,10391.607999976142,response,-1.0433307945145347,0.8463416544097109,-0.9721995100351501,-0.6808221552262974,1.1480661813254867,-0.7510834156944881,low,low,,ISIC_0010500.JPG,,ISIC_9104843.JPG,203,false,ll,keypress(f),0,true,667444.6999999881,667444.3999999762,657036.24,657042.6999999881,657052.792,667456.374,1,40,29,
sequence,flow.Sequence,8_28,2023-11-15T18:51:11.252Z,,,,,,,,,,10391.607999976142,completion,,,,,,,low,low,,,,,,false,,,,true,667445.1999999881,667444.3999999762,657036.24,657042.6999999881,657052.792,667456.374,1,40,,
trial,html.Screen,8_29_0,2023-11-15T18:51:14.019Z,,,,2,0.0660839342637046,-0.0657899819532072,,false,hl,2754.925999952364,response,0.8623414234919863,0.8463416544097109,-0.9721995100351501,-0.782830143980698,1.1480661813254867,-0.7510834156944881,high,low,,ISIC_0065477.JPG,,ISIC_2727016.JPG,59,false,hh,keypress(i),0,true,670211.5999999642,670211.2999999523,667439.558,667445.3999999762,667456.374,670228.677,1,40,30,
sequence,flow.Sequence,8_29,2023-11-15T18:51:14.019Z,,,,,,,,,,2754.925999952364,completion,,,,,,,high,low,,,,,,false,,,,true,670212,670211.2999999523,667439.558,667445.3999999762,667456.374,670228.677,1,40,,
trial,html.Screen,8_30_0,2023-11-15T18:51:22.508Z,,,,2,0.0415913596725838,-0.0543422987007948,,false,hl,8471.322999999975,response,0.6159110752639473,0.7963416544097108,-0.9721995100351501,-0.9608461034527604,1.1480661813254867,-0.8010834156944882,high,low,,ISIC_0027956.JPG,,ISIC_0025215.JPG,59,false,ll,keypress(f),0,true,678700.2999999523,678700,670211.771,670212.0999999642,670228.677,678711.542,1,40,31,
sequence,flow.Sequence,8_30,2023-11-15T18:51:22.508Z,,,,,,,,,,8471.322999999975,completion,,,,,,,high,low,,,,,,false,,,,true,678700.8999999762,678700,670211.771,670212.0999999642,670228.677,678711.542,1,40,,
trial,html.Screen,8_31_0,2023-11-15T18:51:28.490Z,,,,2,0.007397293189458,0.0174716772037504,,true,hh,5971.157999988063,response,1.0005520482328611,0.8463416544097109,-0.9721995100351501,1.0694936015783003,1.1480661813254867,-0.8010834156944882,high,high,,ISIC_0056226.JPG,,ISIC_0059891.JPG,148,false,hh,keypress(i),0,true,684682.7999999523,684682.6999999881,678694.834,678701.0999999642,678711.542,684689.933,1,40,32,
sequence,flow.Sequence,8_31,2023-11-15T18:51:28.490Z,,,,,,,,,,5971.157999988063,completion,,,,,,,high,high,,,,,,false,,,,true,684683,684682.6999999881,678694.834,678701,678711.542,684689.933,1,40,,
trial,html.Screen,8_32_0,2023-11-15T18:51:33.748Z,,,,2,-0.0159061451859594,-0.0296598845560212,,false,hl,5250.166999964276,response,0.8623414234919863,0.8463416544097109,-0.9721995100351501,-0.782830143980698,1.1480661813254867,-0.8010834156944882,high,low,,ISIC_0072564.JPG,,ISIC_2727016.JPG,54,false,hh,keypress(i),0,true,689940.5,689940.0999999642,684673.282,684683,684689.933,689950.074,1,40,33,
sequence,flow.Sequence,8_32,2023-11-15T18:51:33.748Z,,,,,,,,,,5250.166999964276,completion,,,,,,,high,low,,,,,,false,,,,true,689940.8999999762,689940.0999999642,684673.282,684683,684689.933,689950.074,1,40,,
trial,html.Screen,8_33_0,2023-11-15T18:51:36.141Z,,,,2,0.0511770300585718,0.029030243555971,,true,hh,2383.1259999880567,response,0.8323660408822174,0.9159175125351433,-0.9721995100351501,1.2977265460592142,1.1480661813254867,-0.8510834156944882,high,high,,ISIC_6652978.JPG,,ISIC_3738751.JPG,132,false,hh,keypress(i),0,true,692333.5,692333.1999999881,689933.403,689941.0999999642,689950.074,692338.086,1,40,34,
sequence,flow.Sequence,8_33,2023-11-15T18:51:36.141Z,,,,,,,,,,2383.1259999880567,completion,,,,,,,high,high,,,,,,false,,,,true,692334,692333.1999999881,689933.403,689941.0999999642,689950.074,692338.086,1,40,,
trial,html.Screen,8_34_0,2023-11-15T18:51:39.595Z,,,,2,-0.0097091270150747,0.0417921315885292,,true,hh,3449.513999964227,response,0.9779950356676737,0.9159175125351433,-0.9721995100351501,0.8379472703169347,1.0150462934707158,-0.8510834156944882,high,high,,ISIC_3967213.JPG,,ISIC_1979534.JPG,150,false,hh,keypress(i),0,true,695787.8999999762,695787.5999999642,692321.396,692334.1999999881,692338.086,695794.837,1,40,35,
sequence,flow.Sequence,8_34,2023-11-15T18:51:39.596Z,,,,,,,,,,3449.513999964227,completion,,,,,,,high,high,,,,,,false,,,,true,695788.2999999523,695787.5999999642,692321.396,692334.1999999881,692338.086,695794.837,1,40,,
trial,html.Screen,8_35_0,2023-11-15T18:51:45.300Z,,,,2,-0.0051189696037511,0.0396625911332438,,false,hl,5697.362999988021,response,0.8623414234919863,0.8579711529923042,-0.9721995100351501,-0.782830143980698,1.0150462934707158,-0.8510834156944882,high,low,,ISIC_9742891.JPG,,ISIC_2727016.JPG,48,false,hh,keypress(i),0,true,701492.5,701492.1999999881,695778.331,695788.5999999642,695794.837,701506.083,1,40,36,
sequence,flow.Sequence,8_35,2023-11-15T18:51:45.300Z,,,,,,,,,,5697.362999988021,completion,,,,,,,high,low,,,,,,false,,,,true,701493,701492.1999999881,695778.331,695788.5999999642,695794.837,701506.083,1,40,,
trial,html.Screen,8_36_0,2023-11-15T18:51:52.348Z,,,,2,-0.0362376068089956,-0.047825070846155,,false,ll,7033.816999976174,response,-0.9962130178668478,0.8579711529923042,-0.9721995100351501,-1.0198919808587756,1.0150462934707158,-0.9010834156944882,low,low,,ISIC_6985114.JPG,,ISIC_0595080.JPG,154,false,lh,keypress(e),0,true,708540.1999999881,708539.8999999762,701489.204,701493.1999999881,701506.083,708553.006,1,40,37,
sequence,flow.Sequence,8_36,2023-11-15T18:51:52.348Z,,,,,,,,,,7033.816999976174,completion,,,,,,,low,low,,,,,,false,,,,true,708540.7999999523,708539.8999999762,701489.204,701493.1999999881,701506.083,708553.006,1,40,,
trial,html.Screen,8_37_0,2023-11-15T18:51:59.348Z,,,,2,-0.0644357632656846,-0.0501167370292348,,false,hl,6987.193999988027,response,0.9235571765207048,0.8579711529923042,-0.9221995100351501,-1.0008081653938232,1.0150462934707158,-0.9510834156944883,high,low,,ISIC_5207050.JPG,,ISIC_8796632.JPG,39,false,lh,keypress(e),0,true,715540.5,715540.1999999881,708536.441,708540.8999999762,708553.006,715549.855,1,40,38,
sequence,flow.Sequence,8_37,2023-11-15T18:51:59.349Z,,,,,,,,,,6987.193999988027,completion,,,,,,,high,low,,,,,,false,,,,true,715541.0999999642,715540.1999999881,708536.441,708540.8999999762,708553.006,715549.855,1,40,,
trial,html.Screen,8_38_0,2023-11-15T18:52:07.364Z,,,,2,-0.0409338693593207,0.0072462710499874,,false,ll,8006.044999976177,response,-0.9859190680307316,0.9079711529923042,-0.9221995100351501,-1.0904756837966545,1.0150462934707158,-1.0010834156944883,low,low,,ISIC_3608788.JPG,,ISIC_0063151.JPG,147,false,lh,keypress(e),0,true,723556.2999999523,723555.8999999762,715533.246,715541.3999999762,715549.855,723565.445,1,40,39,
sequence,flow.Sequence,8_38,2023-11-15T18:52:07.364Z,,,,,,,,,,8006.044999976177,completion,,,,,,,low,low,,,,,,false,,,,true,723556.6999999881,723555.8999999762,715533.246,715541.2999999523,715549.855,723565.445,1,40,,
trial,html.Screen,8_39_0,2023-11-15T18:52:10.995Z,,,,2,0.0450282431170921,,,true,hh,3621.6549999642884,response,0.7088589949611155,0.9079711529923042,-0.9221995100351501,1.0935835610549347,1.0150462934707158,-1.0510834156944884,high,high,,ISIC_1805163.JPG,,ISIC_9072567.JPG,153,false,hh,keypress(i),0,true,727187.2999999523,727187.0999999642,723548.851,723556.8999999762,723565.445,727206.544,1,40,40,
sequence,flow.Sequence,8_39,2023-11-15T18:52:10.995Z,,,,,,,,,,3621.6549999642884,completion,,,,,,,high,high,,,,,,false,,,,true,727187.5,727187.0999999642,723548.851,723556.8999999762,723565.445,727206.544,1,40,,
stair_loop,flow.Loop,8,2023-11-15T18:52:10.995Z,,,,,,,,,,238478.34999996424,completion,,,,,,,,,,,,,,false,,,,true,727187.5999999642,727187.0999999642,488692.165,488682.89999997616,488708.75,727206.544,1,40,,
exp_instructions,html.Screen,9,2023-11-15T18:53:34.523Z,,,,,,,,,,83508.25599995232,response,,,,,,,,,,,,,,,continue,keypress(Space),,,810715.5,810714.7999999523,727172.468,727187.7999999523,727206.544,810735.023,,,,
trial,html.Screen,10_0_0,2023-11-15T18:53:39.490Z,,,,1,0.0217698886732706,-0.0410870915161425,,true,ll,4947.376999976113,response,-0.9813644244666192,0.8570166702435127,-0.9696995100351501,-0.6287847130102937,1.060660214969055,-0.8260834156944881,low,low,,ISIC_0072173.JPG,9,ISIC_0013874.JPG,184,false,ll,keypress(f),0,false,815682.5,815682.3999999762,810701.074,810715.8999999762,810735.023,815694.933,4,500,1,
break,html.Screen,10_0_1,2023-11-15T18:53:39.490Z,,,,,,,,,,NaN,,,,,,,,low,low,,,,,,false,,,,false,815682.8999999762,815682.6999999881,,815682.5,,815694.933,4,500,,
break_continue,html.Screen,10_0_2,2023-11-15T18:53:39.490Z,,,,,,,,,,NaN,,,,,,,,low,low,,,,,,false,,,,false,815683.1999999881,815683.0999999642,,815682.8999999762,,815694.933,4,500,,
sequence,flow.Sequence,10_0,2023-11-15T18:53:39.490Z,,,,,,,,,,4948.0769999641925,completion,,,,,,,low,low,,,,,,false,,,,false,815683.2999999523,815683.0999999642,810701.074,810715.7999999523,810735.023,815694.933,4,500,,
trial,html.Screen,10_1_0,2023-11-15T18:53:44.628Z,,,,1,0.0389988030702649,0.0143212271490256,,true,ll,5125.067000000039,response,-1.0113132640329443,0.8570166702435127,-0.9696995100351501,-0.7686728458591023,1.060660214969055,-0.8260834156944881,low,low,,ISIC_0064669.JPG,10,ISIC_9675304.JPG,184,false,ll,keypress(f),0,false,820820.3999999762,820820,815678.12,815683.2999999523,815694.933,820838.237,4,500,2,
break,html.Screen,10_1_1,2023-11-15T18:53:44.629Z,,,,,,,,,,NaN,,,,,,,,low,low,,,,,,false,,,,false,820821.5999999642,820821.1999999881,,820820.6999999881,,820838.237,4,500,,
break_continue,html.Screen,10_1_2,2023-11-15T18:53:44.630Z,,,,,,,,,,NaN,,,,,,,,low,low,,,,,,false,,,,false,820822.3999999762,820822.0999999642,,820821.8999999762,,820838.237,4,500,,
sequence,flow.Sequence,10_1,2023-11-15T18:53:44.630Z,,,,,,,,,,5127.166999964276,completion,,,,,,,low,low,,,,,,false,,,,false,820822.6999999881,820822.0999999642,815678.12,815683.2999999523,815694.933,820838.237,4,500,,
trial,html.Screen,10_2_0,2023-11-15T18:53:50.276Z,,,,1,0.0085520978188085,-0.0464691161264081,,true,hh,5629.763000000035,response,0.7633286649662646,0.8570166702435127,-0.9696995100351501,0.9562649947567318,1.060660214969055,-0.8260834156944881,high,high,,ISIC_0758797.JPG,9,ISIC_0064010.JPG,152,false,hh,keypress(i),0,false,826468.3999999762,826468,820821.278,820823,820838.237,826482.384,4,500,3,
break,html.Screen,10_2_1,2023-11-15T18:53:50.277Z,,,,,,,,,,NaN,,,,,,,,high,high,,,,,,false,,,,false,826469.5,826469.1999999881,,826468.7999999523,,826482.384,4,500,,
break_continue,html.Screen,10_2_2,2023-11-15T18:53:50.277Z,,,,,,,,,,NaN,,,,,,,,high,high,,,,,,false,,,,false,826470.2999999523,826469.8999999762,,826469.7999999523,,826482.384,4,500,,
sequence,flow.Sequence,10_2,2023-11-15T18:53:50.278Z,,,,,,,,,,5631.6629999761935,completion,,,,,,,high,high,,,,,,false,,,,false,826470.5999999642,826469.8999999762,820821.278,820822.8999999762,820838.237,826482.384,4,500,,
trial,html.Screen,10_3_0,2023-11-15T18:53:56.491Z,,,,1,0.0660839342637046,-0.0657899819532072,,false,ll,6201.616000000038,response,-0.8119812034333038,0.8570166702435127,-0.9696995100351501,-0.7605858647924636,1.060660214969055,-0.8260834156944881,low,low,,ISIC_0065477.JPG,9,ISIC_6801680.JPG,184,false,hl,keypress(j),0,false,832684.2999999523,832684,826465.743,826470.7999999523,826482.384,832694.353,4,500,4,
break,html.Screen,10_3_1,2023-11-15T18:53:56.493Z,,,,,,,,,,NaN,,,,,,,,low,low,,,,,,false,,,,false,832685.3999999762,832685.0999999642,,832684.5999999642,,832694.353,4,500,,
break_continue,html.Screen,10_3_2,2023-11-15T18:53:56.493Z,,,,,,,,,,NaN,,,,,,,,low,low,,,,,,false,,,,false,832686.0999999642,832685.7999999523,,832685.5999999642,,832694.353,4,500,,
sequence,flow.Sequence,10_3,2023-11-15T18:53:56.494Z,,,,,,,,,,6203.4159999523545,completion,,,,,,,low,low,,,,,,false,,,,false,832686.3999999762,832685.7999999523,826465.743,826470.6999999881,826482.384,832694.353,4,500,,
trial,html.Screen,10_4_0,2023-11-15T18:53:59.419Z,,,,1,0.0415913596725838,-0.0543422987007948,,true,hh,2917.2469999642344,response,1.0470490803707713,0.8570166702435127,-0.9696995100351501,0.9267385554195492,1.060660214969055,-0.8260834156944881,high,high,,ISIC_0027956.JPG,9,ISIC_0058649.JPG,152,false,hh,keypress(i),0,false,835612,835611.5999999642,832677.865,832686.6999999881,832694.353,835616.721,4,500,5,
break,html.Screen,10_4_1,2023-11-15T18:53:59.420Z,,,,,,,,,,NaN,,,,,,,,high,high,,,,,,false,,,,false,835613.0999999642,835612.7999999523,,835612.3999999762,,835616.721,4,500,,
break_continue,html.Screen,10_4_2,2023-11-15T18:53:59.421Z,,,,,,,,,,NaN,,,,,,,,high,high,,,,,,false,,,,false,835613.8999999762,835613.5999999642,,835613.3999999762,,835616.721,4,500,,
sequence,flow.Sequence,10_4,2023-11-15T18:53:59.421Z,,,,,,,,,,2919.2469999642344,completion,,,,,,,high,high,,,,,,false,,,,false,835614.1999999881,835613.5999999642,832677.865,832686.5,832694.353,835616.721,4,500,,
trial,html.Screen,10_5_0,2023-11-15T18:54:03.971Z,,,,1,-0.0245585387483123,0.053462758614929,,true,lh,4546.9789999880595,response,-0.8979276789594874,0.8570166702435127,-0.9696995100351501,0.925374811016654,1.060660214969055,-0.8260834156944881,low,high,,ISIC_3389704.JPG,9,ISIC_4208361.JPG,21,false,lh,keypress(e),0,false,840164,840163.6999999881,835600.219,835614.2999999523,835616.721,840175.76,4,500,6,
break,html.Screen,10_5_1,2023-11-15T18:54:03.972Z,,,,,,,,,,NaN,,,,,,,,low,high,,,,,,false,,,,false,840165.1999999881,840164.8999999762,,840164.3999999762,,840175.76,4,500,,
break_continue,html.Screen,10_5_2,2023-11-15T18:54:03.973Z,,,,,,,,,,NaN,,,,,,,,low,high,,,,,,false,,,,false,840165.8999999762,840165.6999999881,,840165.3999999762,,840175.76,4,500,,
sequence,flow.Sequence,10_5,2023-11-15T18:54:03.973Z,,,,,,,,,,4548.9789999880595,completion,,,,,,,low,high,,,,,,false,,,,false,840166.0999999642,840165.6999999881,835600.219,835614.2999999523,835616.721,840175.76,4,500,,
trial,html.Screen,10_6_0,2023-11-15T18:54:07.324Z,,,,1,-0.0362376068089956,-0.047825070846155,,true,hh,3340.2399999999907,response,1.0215600067367807,0.8570166702435127,-0.9696995100351501,1.1866489745604327,1.060660214969055,-0.8260834156944881,high,high,,ISIC_6985114.JPG,9,ISIC_0000173.JPG,152,false,hh,keypress(i),0,false,843516.3999999762,843516,840159.055,840166.3999999762,840175.76,843532.218,4,500,7,
break,html.Screen,10_6_1,2023-11-15T18:54:07.325Z,,,,,,,,,,NaN,,,,,,,,high,high,,,,,,false,,,,false,843517.5,843517.2999999523,,843516.7999999523,,843532.218,4,500,,
break_continue,html.Screen,10_6_2,2023-11-15T18:54:07.326Z,,,,,,,,,,NaN,,,,,,,,high,high,,,,,,false,,,,false,843518.1999999881,843518,,843517.6999999881,,843532.218,4,500,,
sequence,flow.Sequence,10_6,2023-11-15T18:54:07.326Z,,,,,,,,,,3342.2399999999907,completion,,,,,,,high,high,,,,,,false,,,,false,843518.5999999642,843518,840159.055,840166.3999999762,840175.76,843532.218,4,500,,
trial,html.Screen,10_7_0,2023-11-15T18:54:13.755Z,,,,1,0.0660839342637046,-0.0657899819532072,,false,ll,6415.181999976165,response,-1.079549480496248,0.8570166702435127,-0.9696995100351501,-0.9336079040538864,1.060660214969055,-0.8260834156944881,low,low,,ISIC_0065477.JPG,9,ISIC_6913045.JPG,184,false,hh,keypress(i),0,false,849947.6999999881,849947.3999999762,843515.619,843518.7999999523,843532.218,849961.492,4,500,8,
break,html.Screen,10_7_1,2023-11-15T18:54:13.756Z,,,,,,,,,,NaN,,,,,,,,low,low,,,,,,false,,,,false,849949,849948.6999999881,,849948.0999999642,,849961.492,4,500,,
break_continue,html.Screen,10_7_2,2023-11-15T18:54:13.757Z,,,,,,,,,,NaN,,,,,,,,low,low,,,,,,false,,,,false,849949.5999999642,849949.3999999762,,849949.1999999881,,849961.492,4,500,,
sequence,flow.Sequence,10_7,2023-11-15T18:54:13.757Z,,,,,,,,,,6417.181999976165,completion,,,,,,,low,low,,,,,,false,,,,false,849950,849949.3999999762,843515.619,843518.6999999881,843532.218,849961.492,4,500,,
trial,html.Screen,10_8_0,2023-11-15T18:54:18.452Z,,,,1,-0.0051189696037511,0.0396625911332438,,false,hl,4682.508000000031,response,1.0122398223568725,0.8570166702435127,-0.9696995100351501,-0.7505228537454216,1.060660214969055,-0.8260834156944881,high,low,,ISIC_9742891.JPG,9,ISIC_0033802.JPG,47,false,lh,keypress(e),0,false,854644.3999999762,854644,849944.688,849950.1999999881,849961.492,854653.79,4,500,9,
break,html.Screen,10_8_1,2023-11-15T18:54:18.453Z,,,,,,,,,,NaN,,,,,,,,high,low,,,,,,false,,,,false,854645.6999999881,854645.1999999881,,854644.7999999523,,854653.79,4,500,,
break_continue,html.Screen,10_8_2,2023-11-15T18:54:18.454Z,,,,,,,,,,NaN,,,,,,,,high,low,,,,,,false,,,,false,854646.5,854646.1999999881,,854646,,854653.79,4,500,,
sequence,flow.Sequence,10_8,2023-11-15T18:54:18.454Z,,,,,,,,,,4684.70799998811,completion,,,,,,,high,low,,,,,,false,,,,false,854646.7999999523,854646.1999999881,849944.688,849950.0999999642,849961.492,854653.79,4,500,,
trial,html.Screen,10_9_0,2023-11-15T18:54:22.459Z,,,,1,-0.0644357632656846,-0.0501167370292348,,false,hl,3998.009999952279,response,0.9235571765207048,0.8570166702435127,-0.9696995100351501,-1.0008081653938232,1.060660214969055,-0.8260834156944881,high,low,,ISIC_5207050.JPG,9,ISIC_8796632.JPG,47,false,hh,keypress(i),0,false,858652.1999999881,858651.7999999523,854637.303,854647,854653.79,858661.607,4,500,10,
break,html.Screen,10_9_1,2023-11-15T18:54:22.461Z,,,,,,,,,,NaN,,,,,,,,high,low,,,,,,false,,,,false,858653.3999999762,858653.0999999642,,858652.5999999642,,858661.607,4,500,,
break_continue,html.Screen,10_9_2,2023-11-15T18:54:22.461Z,,,,,,,,,,NaN,,,,,,,,high,low,,,,,,false,,,,false,858654.0999999642,858653.7999999523,,858653.5999999642,,858661.607,4,500,,
sequence,flow.Sequence,10_9,2023-11-15T18:54:22.462Z,,,,,,,,,,4000.009999952279,completion,,,,,,,high,low,,,,,,false,,,,false,858654.3999999762,858653.7999999523,854637.303,854647,854653.79,858661.607,4,500,,
trial,html.Screen,10_10_0,2023-11-15T18:54:27.243Z,,,,1,-0.0362376068089956,-0.047825070846155,,true,ll,4773.592999988119,response,-0.9358725198038064,0.8570166702435127,-0.9696995100351501,-0.9938776615596308,1.060660214969055,-0.8260834156944881,low,low,,ISIC_6985114.JPG,9,ISIC_3365692.JPG,184,false,ll,keypress(f),0,false,863435.3999999762,863435.1999999881,858644.985,858654.5999999642,858661.607,863437.518,4,500,11,
break,html.Screen,10_10_1,2023-11-15T18:54:27.243Z,,,,,,,,,,NaN,,,,,,,,low,low,,,,,,false,,,,false,863436.1999999881,863436,,863435.6999999881,,863437.518,4,500,,
break_continue,html.Screen,10_10_2,2023-11-15T18:54:27.244Z,,,,,,,,,,NaN,,,,,,,,low,low,,,,,,false,,,,false,863436.6999999881,863436.5,,863436.2999999523,,863437.518,4,500,,
sequence,flow.Sequence,10_10,2023-11-15T18:54:27.244Z,,,,,,,,,,4774.89300000004,completion,,,,,,,low,low,,,,,,false,,,,false,863436.7999999523,863436.5,858644.985,858654.5999999642,858661.607,863437.518,4,500,,
trial,html.Screen,10_11_0,2023-11-15T18:54:33.148Z,,,,1,-0.0112310719058792,0.0469047359904117,,true,ll,5902.48199999996,response,-0.7802042389055142,0.8570166702435127,-0.9696995100351501,-0.715586294160793,1.060660214969055,-0.8260834156944881,low,low,,ISIC_0068184.JPG,9,ISIC_9965754.JPG,184,false,ll,keypress(f),0,false,869340.2999999523,869340,863420.792,863437,863437.518,869348.98,4,500,12,
break,html.Screen,10_11_1,2023-11-15T18:54:33.149Z,,,,,,,,,,NaN,,,,,,,,low,low,,,,,,false,,,,false,869341.3999999762,869341.0999999642,,869340.6999999881,,869348.98,4,500,,
break_continue,html.Screen,10_11_2,2023-11-15T18:54:33.149Z,,,,,,,,,,NaN,,,,,,,,low,low,,,,,,false,,,,false,869342.1999999881,869341.8999999762,,869341.5999999642,,869348.98,4,500,,
sequence,flow.Sequence,10_11,2023-11-15T18:54:33.150Z,,,,,,,,,,5904.381999976118,completion,,,,,,,low,low,,,,,,false,,,,false,869342.5,869341.8999999762,863420.792,863436.8999999762,863437.518,869348.98,4,500,,
trial,html.Screen,10_12_0,2023-11-15T18:54:36.477Z,,,,1,-0.0531672914703651,0.0074883925434357,,true,hh,3319.119999964256,response,0.666226008253008,0.8570166702435127,-0.9696995100351501,0.951630942061208,1.060660214969055,-0.8260834156944881,high,high,,ISIC_4177043.JPG,8,ISIC_0024307.JPG,152,false,hh,keypress(i),0,false,872668.5,872668.0999999642,869332.548,869342.6999999881,869348.98,872672.105,4,500,13,
break,html.Screen,10_12_1,2023-11-15T18:54:36.478Z,,,,,,,,,,NaN,,,,,,,,high,high,,,,,,false,,,,false,872669.7999999523,872669.3999999762,,872668.8999999762,,872672.105,4,500,,
break_continue,html.Screen,10_12_2,2023-11-15T18:54:36.479Z,,,,,,,,,,NaN,,,,,,,,high,high,,,,,,false,,,,false,872670.5,872670.1999999881,,872670,,872672.105,4,500,,
sequence,flow.Sequence,10_12,2023-11-15T18:54:36.479Z,,,,,,,,,,3321.2199999880977,completion,,,,,,,high,high,,,,,,false,,,,false,872670.7999999523,872670.1999999881,869332.548,869342.6999999881,869348.98,872672.105,4,500,,
trial,html.Screen,10_13_0,2023-11-15T18:54:42.235Z,,,,1,0.0050679133050021,-0.0009714874637896,,false,hl,5754.194999952335,response,1.0115965332688306,0.8570166702435127,-0.9696995100351501,-0.8282633603842442,1.060660214969055,-0.8260834156944881,high,low,,ISIC_9848743.JPG,9,ISIC_1069587.JPG,47,false,hh,keypress(i),0,false,878426.2999999523,878426.2999999523,872655.611,872671,872672.105,878433.284,4,500,14,
break,html.Screen,10_13_1,2023-11-15T18:54:42.235Z,,,,,,,,,,NaN,,,,,,,,high,low,,,,,,false,,,,false,878426.7999999523,878426.7999999523,,878426.5,,878433.284,4,500,,
break_continue,html.Screen,10_13_2,2023-11-15T18:54:42.235Z,,,,,,,,,,NaN,,,,,,,,high,low,,,,,,false,,,,false,878427.0999999642,878427,,878426.8999999762,,878433.284,4,500,,
sequence,flow.Sequence,10_13,2023-11-15T18:54:42.235Z,,,,,,,,,,5754.895000000019,completion,,,,,,,high,low,,,,,,false,,,,false,878427.0999999642,878427,872655.611,872671,872672.105,878433.284,4,500,,
trial,html.Screen,10_14_0,2023-11-15T18:54:51.229Z,,,,1,-0.0021038737988857,0.0570427519488725,,false,hh,8986.615999976173,response,1.0351900568634125,0.8570166702435127,-0.9696995100351501,1.060448537312289,1.060660214969055,-0.8260834156944881,high,high,,ISIC_3596927.JPG,9,ISIC_4377208.JPG,152,false,ll,keypress(f),0,false,887420.1999999881,887419.8999999762,878416.612,878427.1999999881,878433.284,887434.366,4,500,15,
break,html.Screen,10_14_1,2023-11-15T18:54:51.230Z,,,,,,,,,,NaN,,,,,,,,high,high,,,,,,false,,,,false,887421.5,887421.0999999642,,887420.5999999642,,887434.366,4,500,,
break_continue,html.Screen,10_14_2,2023-11-15T18:54:51.231Z,,,,,,,,,,NaN,,,,,,,,high,high,,,,,,false,,,,false,887422.1999999881,887422,,887421.6999999881,,887434.366,4,500,,
sequence,flow.Sequence,10_14,2023-11-15T18:54:51.231Z,,,,,,,,,,8988.716000000015,completion,,,,,,,high,high,,,,,,false,,,,false,887422.5,887422,878416.612,878427.1999999881,878433.284,887434.366,4,500,,
trial,html.Screen,10_15_0,2023-11-15T18:54:56.716Z,,,,1,,-0.0264544974620926,,true,ll,5473.433999952278,response,-1.0998890116382043,0.8570166702435127,-0.9696995100351501,-0.7268043404851218,1.060660214969055,-0.8260834156944881,low,low,,ISIC_0056991.JPG,10,ISIC_0002118.JPG,184,false,ll,keypress(f),0,false,892908.1999999881,892907.7999999523,887417.434,887422.7999999523,887434.366,892911.566,4,500,16,
break,html.Screen,10_15_1,2023-11-15T18:54:56.718Z,,,,,,,,,,NaN,,,,,,,,low,low,,,,,,false,,,,false,892909.2999999523,892909,,892908.5999999642,,892911.566,4,500,,
break_continue,html.Screen,10_15_2,2023-11-15T18:54:56.718Z,,,,,,,,,,NaN,,,,,,,,low,low,,,,,,false,,,,false,892910,892909.6999999881,,892909.5,,892911.566,4,500,,
sequence,flow.Sequence,10_15,2023-11-15T18:54:56.719Z,,,,,,,,,,5475.333999988041,completion,,,,,,,low,low,,,,,,false,,,,false,892910.2999999523,892909.6999999881,887417.434,887422.6999999881,887434.366,892911.566,4,500,,
trial,html.Screen,10_16_0,2023-11-15T18:55:02.996Z,,,,1,0.0511770300585718,0.029030243555971,,true,lh,6276.233999952325,response,-0.991282840649944,0.8570166702435127,-0.9696995100351501,0.9397921099839784,1.060660214969055,-0.8260834156944881,low,high,,ISIC_6652978.JPG,8,ISIC_0000463.JPG,21,false,lh,keypress(e),0,false,899188.1999999881,899187.7999999523,892894.997,892910.5,892911.566,899190.444,4,500,17,
break,html.Screen,10_16_1,2023-11-15T18:55:02.998Z,,,,,,,,,,NaN,,,,,,,,low,high,,,,,,false,,,,false,899189.2999999523,899189.0999999642,,899188.5999999642,,899190.444,4,500,,
break_continue,html.Screen,10_16_2,2023-11-15T18:55:02.998Z,,,,,,,,,,NaN,,,,,,,,low,high,,,,,,false,,,,false,899190,899189.7999999523,,899189.5,,899190.444,4,500,,
sequence,flow.Sequence,10_16,2023-11-15T18:55:02.999Z,,,,,,,,,,6278.233999952325,completion,,,,,,,low,high,,,,,,false,,,,false,899190.2999999523,899189.7999999523,892894.997,892910.3999999762,892911.566,899190.444,4,500,,
trial,html.Screen,10_17_0,2023-11-15T18:55:09.524Z,,,,1,-0.0277178575053843,0.0395587463147856,,false,lh,6524.95599997614,response,-0.8979276789594874,0.8570166702435127,-0.9696995100351501,0.925374811016654,1.060660214969055,-0.8260834156944881,low,high,,ISIC_0010807.JPG,8,ISIC_4208361.JPG,21,false,hl,keypress(j),0,false,905715.6999999881,905715.3999999762,899173.918,899190.5,899190.444,905719.835,4,500,18,
break,html.Screen,10_17_1,2023-11-15T18:55:09.525Z,,,,,,,,,,NaN,,,,,,,,low,high,,,,,,false,,,,false,905716.8999999762,905716.5999999642,,905716.1999999881,,905719.835,4,500,,
break_continue,html.Screen,10_17_2,2023-11-15T18:55:09.526Z,,,,,,,,,,NaN,,,,,,,,low,high,,,,,,false,,,,false,905717.6999999881,905717.3999999762,,905717.0999999642,,905719.835,4,500,,
sequence,flow.Sequence,10_17,2023-11-15T18:55:09.526Z,,,,,,,,,,6526.95599997614,completion,,,,,,,low,high,,,,,,false,,,,false,905717.8999999762,905717.3999999762,899173.918,899190.5,899190.444,905719.835,4,500,,
trial,html.Screen,10_18_0,2023-11-15T18:55:12.548Z,,,,1,-0.0265457942157377,-0.0704357137706731,,false,hl,3019.8649999881163,response,0.8087127179888679,0.8570166702435127,-0.9696995100351501,-0.6577744279636221,1.060660214969055,-0.8260834156944881,high,low,,ISIC_3123377.JPG,9,ISIC_3941147.JPG,47,false,hh,keypress(i),0,false,908739.8999999762,908739.6999999881,905703.186,905718.1999999881,905719.835,908742.302,4,500,19,
break,html.Screen,10_18_1,2023-11-15T18:55:12.549Z,,,,,,,,,,NaN,,,,,,,,high,low,,,,,,false,,,,false,908741.0999999642,908740.8999999762,,908740.3999999762,,908742.302,4,500,,
break_continue,html.Screen,10_18_2,2023-11-15T18:55:12.550Z,,,,,,,,,,NaN,,,,,,,,high,low,,,,,,false,,,,false,908741.7999999523,908741.5999999642,,908741.1999999881,,908742.302,4,500,,
sequence,flow.Sequence,10_18,2023-11-15T18:55:12.550Z,,,,,,,,,,3021.7649999642745,completion,,,,,,,high,low,,,,,,false,,,,false,908742.0999999642,908741.5999999642,905703.186,905718.1999999881,905719.835,908742.302,4,500,,
trial,html.Screen,10_19_0,2023-11-15T18:55:15.116Z,,,,1,-0.0546386976779619,0.0448724759283131,,false,hl,2565.397999988054,response,0.6664216411092332,0.8570166702435127,-0.9696995100351501,-0.7420699937090495,1.060660214969055,-0.8260834156944881,high,low,,ISIC_6722934.JPG,9,ISIC_8785329.JPG,47,false,hh,keypress(i),0,false,911308.0999999642,911307.6999999881,908725.68,908742.2999999523,908742.302,911313.916,4,500,20,
break,html.Screen,10_19_1,2023-11-15T18:55:15.118Z,,,,,,,,,,NaN,,,,,,,,high,low,,,,,,false,,,,false,911309.1999999881,911309,,911308.5,,911313.916,4,500,,
break_continue,html.Screen,10_19_2,2023-11-15T18:55:15.118Z,,,,,,,,,,NaN,,,,,,,,high,low,,,,,,false,,,,false,911309.8999999762,911309.5999999642,,911309.3999999762,,911313.916,4,500,,
sequence,flow.Sequence,10_19,2023-11-15T18:55:15.118Z,,,,,,,,,,2567.297999964212,completion,,,,,,,high,low,,,,,,false,,,,false,911310.1999999881,911309.5999999642,908725.68,908742.2999999523,908742.302,911313.916,4,500,,
trial,html.Screen,10_20_0,2023-11-15T18:55:21.180Z,,,,1,-0.0245376145053177,0.0436993426328401,,false,hh,6057.683999964269,response,0.7085857540614006,0.8570166702435127,-0.9696995100351501,1.0057095383451151,1.060660214969055,-0.8260834156944881,high,high,,ISIC_0056444.JPG,8,ISIC_0053485.JPG,152,false,hl,keypress(j),0,false,917371.8999999762,917371.5999999642,911297.385,911310.5,911313.916,917375.816,4,500,21,
break,html.Screen,10_20_1,2023-11-15T18:55:21.181Z,,,,,,,,,,NaN,,,,,,,,high,high,,,,,,false,,,,false,917372.8999999762,917372.6999999881,,917372.1999999881,,917375.816,4,500,,
break_continue,html.Screen,10_20_2,2023-11-15T18:55:21.182Z,,,,,,,,,,NaN,,,,,,,,high,high,,,,,,false,,,,false,917373.5999999642,917373.3999999762,,917373.1999999881,,917375.816,4,500,,
sequence,flow.Sequence,10_20,2023-11-15T18:55:21.182Z,,,,,,,,,,6059.48399997619,completion,,,,,,,high,high,,,,,,false,,,,false,917374,917373.3999999762,911297.385,911310.3999999762,911313.916,917375.816,4,500,,
trial,html.Screen,10_21_0,2023-11-15T18:55:26.932Z,,,,1,0.0050679133050021,-0.0009714874637896,,true,hh,5747.983999952325,response,0.758207007584394,0.8570166702435127,-0.9696995100351501,1.0437879361189135,1.060660214969055,-0.8260834156944881,high,high,,ISIC_9848743.JPG,9,ISIC_0011626.JPG,152,false,hh,keypress(i),0,false,923124.0999999642,923123.7999999523,917359.196,917374.1999999881,917375.816,923136.917,4,500,22,
break,html.Screen,10_21_1,2023-11-15T18:55:26.934Z,,,,,,,,,,NaN,,,,,,,,high,high,,,,,,false,,,,false,923125.2999999523,923124.8999999762,,923124.3999999762,,923136.917,4,500,,
break_continue,html.Screen,10_21_2,2023-11-15T18:55:26.934Z,,,,,,,,,,NaN,,,,,,,,high,high,,,,,,false,,,,false,923126.0999999642,923125.7999999523,,923125.5,,923136.917,4,500,,
sequence,flow.Sequence,10_21,2023-11-15T18:55:26.935Z,,,,,,,,,,5749.983999952325,completion,,,,,,,high,high,,,,,,false,,,,false,923126.2999999523,923125.7999999523,917359.196,917374,917375.816,923136.917,4,500,,
trial,html.Screen,10_22_0,2023-11-15T18:55:30.932Z,,,,1,-0.0134764727102299,-0.0033499036460912,,true,ll,3986.6829999642214,response,-0.7848009721557384,0.8570166702435127,-0.9696995100351501,-0.750809298734252,1.060660214969055,-0.8260834156944881,low,low,,ISIC_0009998.JPG,9,ISIC_9648812.JPG,184,false,ll,keypress(f),0,false,927123.8999999762,927123.5999999642,923120.502,923126.5,923136.917,927128.09,4,500,23,
break,html.Screen,10_22_1,2023-11-15T18:55:30.933Z,,,,,,,,,,NaN,,,,,,,,low,low,,,,,,false,,,,false,927125,927124.6999999881,,927124.2999999523,,927128.09,4,500,,
break_continue,html.Screen,10_22_2,2023-11-15T18:55:30.934Z,,,,,,,,,,NaN,,,,,,,,low,low,,,,,,false,,,,false,927125.6999999881,927125.5,,927125.2999999523,,927128.09,4,500,,
sequence,flow.Sequence,10_22,2023-11-15T18:55:30.934Z,,,,,,,,,,3988.582999999984,completion,,,,,,,low,low,,,,,,false,,,,false,927126,927125.5,923120.502,923126.5,923136.917,927128.09,4,500,,
trial,html.Screen,10_23_0,2023-11-15T18:55:39.765Z,,,,1,-0.0220322185490382,-0.0740918837949419,,true,hh,8828.00999996427,response,0.7112620697206866,0.8570166702435127,-0.9696995100351501,0.8642861042532918,1.060660214969055,-0.8260834156944881,high,high,,ISIC_8105020.JPG,9,ISIC_0011315.JPG,152,false,hh,keypress(i),0,false,935956.3999999762,935956.0999999642,927111.537,927126.2999999523,927128.09,935961.854,4,500,24,
break,html.Screen,10_23_1,2023-11-15T18:55:39.766Z,,,,,,,,,,NaN,,,,,,,,high,high,,,,,,false,,,,false,935957.5999999642,935957.2999999523,,935956.7999999523,,935961.854,4,500,,
break_continue,html.Screen,10_23_2,2023-11-15T18:55:39.767Z,,,,,,,,,,NaN,,,,,,,,high,high,,,,,,false,,,,false,935958.2999999523,935958.0999999642,,935957.8999999762,,935961.854,4,500,,
sequence,flow.Sequence,10_23,2023-11-15T18:55:39.767Z,,,,,,,,,,8830.00999996427,completion,,,,,,,high,high,,,,,,false,,,,false,935958.5999999642,935958.0999999642,927111.537,927126.1999999881,927128.09,935961.854,4,500,,
trial,html.Screen,10_24_0,2023-11-15T18:55:48.555Z,,,,1,0.0593670819812057,-0.0718390543903236,,false,hl,8784.345999988029,response,0.7870237732709365,0.8570166702435127,-0.9696995100351501,-0.9172955251119376,1.060660214969055,-0.8260834156944881,high,low,,ISIC_0062367.JPG,8,ISIC_0057716.JPG,47,false,hh,keypress(i),0,false,944746.1999999881,944746.1999999881,935945.353,935958.7999999523,935961.854,944762.328,4,500,25,
break,html.Screen,10_24_1,2023-11-15T18:55:48.555Z,,,,,,,,,,NaN,,,,,,,,high,low,,,,,,false,,,,false,944746.5,944746.5,,944746.2999999523,,944762.328,4,500,,
break_continue,html.Screen,10_24_2,2023-11-15T18:55:48.555Z,,,,,,,,,,NaN,,,,,,,,high,low,,,,,,false,,,,false,944746.8999999762,944746.7999999523,,944746.5999999642,,944762.328,4,500,,
sequence,flow.Sequence,10_24,2023-11-15T18:55:48.555Z,,,,,,,,,,8784.945999952266,completion,,,,,,,high,low,,,,,,false,,,,false,944746.8999999762,944746.7999999523,935945.353,935958.6999999881,935961.854,944762.328,4,500,,
trial,html.Screen,10_25_0,2023-11-15T18:55:53.629Z,,,,1,0.0027483411352856,0.0100996915276271,,false,hl,5057.771999964258,response,0.8035152873995188,0.8570166702435127,-0.9696995100351501,-0.82868450251632,1.060660214969055,-0.8260834156944881,high,low,,ISIC_7364041.JPG,8,ISIC_0010671.JPG,47,false,ll,keypress(f),0,false,949820.3999999762,949820.0999999642,944745.734,944746.8999999762,944762.328,949839.445,4,500,26,
break,html.Screen,10_25_1,2023-11-15T18:55:53.630Z,,,,,,,,,,NaN,,,,,,,,high,low,,,,,,false,,,,false,949821.5,949821.1999999881,,949820.7999999523,,949839.445,4,500,,
break_continue,html.Screen,10_25_2,2023-11-15T18:55:53.631Z,,,,,,,,,,NaN,,,,,,,,high,low,,,,,,false,,,,false,949822.1999999881,949822,,949821.6999999881,,949839.445,4,500,,
sequence,flow.Sequence,10_25,2023-11-15T18:55:53.631Z,,,,,,,,,,5059.6720000000205,completion,,,,,,,high,low,,,,,,false,,,,false,949822.3999999762,949822,944745.734,944746.8999999762,944762.328,949839.445,4,500,,
trial,html.Screen,10_26_0,2023-11-15T18:55:56.365Z,,,,1,-0.0735635316240061,0.0537805418091709,,true,ll,2716.3549999523675,response,-0.873246574061697,0.8570166702435127,-0.9696995100351501,-0.6431466299738537,1.060660214969055,-0.8260834156944881,low,low,,ISIC_1761799.JPG,9,ISIC_6180870.JPG,184,false,ll,keypress(f),0,false,952556.0999999642,952555.7999999523,949805.56,949822.6999999881,949839.445,952560.826,4,500,27,
break,html.Screen,10_26_1,2023-11-15T18:55:56.366Z,,,,,,,,,,NaN,,,,,,,,low,low,,,,,,false,,,,false,952557.1999999881,952557,,952556.5,,952560.826,4,500,,
break_continue,html.Screen,10_26_2,2023-11-15T18:55:56.366Z,,,,,,,,,,NaN,,,,,,,,low,low,,,,,,false,,,,false,952557.7999999523,952557.5999999642,,952557.3999999762,,952560.826,4,500,,
sequence,flow.Sequence,10_26,2023-11-15T18:55:56.367Z,,,,,,,,,,2718.1549999642884,completion,,,,,,,low,low,,,,,,false,,,,false,952558.1999999881,952557.5999999642,949805.56,949822.5999999642,949839.445,952560.826,4,500,,
trial,html.Screen,10_27_0,2023-11-15T18:55:59.237Z,,,,1,0.0336891949856763,0.060314732178219,,true,ll,2866.7739999642363,response,-0.8337343115908139,0.8570166702435127,-0.9696995100351501,-0.6404101633734524,1.060660214969055,-0.8260834156944881,low,low,,ISIC_6192289.JPG,9,ISIC_4819371.JPG,184,false,ll,keypress(f),0,false,955428,955427.5999999642,952544.418,952558.3999999762,952560.826,955433.066,4,500,28,
break,html.Screen,10_27_1,2023-11-15T18:55:59.238Z,,,,,,,,,,NaN,,,,,,,,low,low,,,,,,false,,,,false,955429,955428.7999999523,,955428.2999999523,,955433.066,4,500,,
break_continue,html.Screen,10_27_2,2023-11-15T18:55:59.238Z,,,,,,,,,,NaN,,,,,,,,low,low,,,,,,false,,,,false,955429.7999999523,955429.5,,955429.2999999523,,955433.066,4,500,,
sequence,flow.Sequence,10_27,2023-11-15T18:55:59.239Z,,,,,,,,,,2868.673999999999,completion,,,,,,,low,low,,,,,,false,,,,false,955430.0999999642,955429.5,952544.418,952558.2999999523,952560.826,955433.066,4,500,,
trial,html.Screen,10_28_0,2023-11-15T18:56:02.341Z,,,,1,0.0194167651857046,0.0726253809408601,,true,hh,3098.6339999880875,response,0.8471355550006346,0.8570166702435127,-0.9696995100351501,0.8721011160837115,1.060660214969055,-0.8260834156944881,high,high,,ISIC_0056692.JPG,9,ISIC_0025744.JPG,152,false,hh,keypress(i),0,false,958532.0999999642,958531.6999999881,955416.552,955430.2999999523,955433.066,958539.212,4,500,29,
break,html.Screen,10_28_1,2023-11-15T18:56:02.342Z,,,,,,,,,,NaN,,,,,,,,high,high,,,,,,false,,,,false,958533.1999999881,958532.8999999762,,958532.5,,958539.212,4,500,,
break_continue,html.Screen,10_28_2,2023-11-15T18:56:02.343Z,,,,,,,,,,NaN,,,,,,,,high,high,,,,,,false,,,,false,958533.8999999762,958533.6999999881,,958533.3999999762,,958539.212,4,500,,
sequence,flow.Sequence,10_28,2023-11-15T18:56:02.343Z,,,,,,,,,,3100.6339999880875,completion,,,,,,,high,high,,,,,,false,,,,false,958534.1999999881,958533.6999999881,955416.552,955430.1999999881,955433.066,958539.212,4,500,,
trial,html.Screen,10_29_0,2023-11-15T18:56:11.261Z,,,,1,0.0050679133050021,-0.0009714874637896,,true,ll,8912.987999988021,response,-0.7723853975066318,0.8570166702435127,-0.9696995100351501,-0.6609799093256855,1.060660214969055,-0.8260834156944881,low,low,,ISIC_9848743.JPG,8,ISIC_0030718.JPG,184,false,ll,keypress(f),0,false,967452.5,967452.1999999881,958522.636,958534.3999999762,958539.212,967456.472,4,500,30,
break,html.Screen,10_29_1,2023-11-15T18:56:11.262Z,,,,,,,,,,NaN,,,,,,,,low,low,,,,,,false,,,,false,967453.6999999881,967453.5,,967453,,967456.472,4,500,,
break_continue,html.Screen,10_29_2,2023-11-15T18:56:11.263Z,,,,,,,,,,NaN,,,,,,,,low,low,,,,,,false,,,,false,967454.3999999762,967454.1999999881,,967453.8999999762,,967456.472,4,500,,
sequence,flow.Sequence,10_29,2023-11-15T18:56:11.263Z,,,,,,,,,,8914.987999988021,completion,,,,,,,low,low,,,,,,false,,,,false,967454.6999999881,967454.1999999881,958522.636,958534.3999999762,958539.212,967456.472,4,500,,
trial,html.Screen,10_30_0,2023-11-15T18:56:14.085Z,,,,1,0.0389988030702649,0.0143212271490256,,false,hl,2819.4279999762075,response,0.7871162143493278,0.8570166702435127,-0.9696995100351501,-0.8429329800778957,1.060660214969055,-0.8260834156944881,high,low,,ISIC_0064669.JPG,9,ISIC_3439215.JPG,47,false,ll,keypress(f),0,false,970276.1999999881,970275.8999999762,967439.751,967455,967456.472,970278.709,4,500,31,
break,html.Screen,10_30_1,2023-11-15T18:56:14.086Z,,,,,,,,,,NaN,,,,,,,,high,low,,,,,,false,,,,false,970277.2999999523,970277,,970276.5999999642,,970278.709,4,500,,
break_continue,html.Screen,10_30_2,2023-11-15T18:56:14.087Z,,,,,,,,,,NaN,,,,,,,,high,low,,,,,,false,,,,false,970278,970277.7999999523,,970277.5,,970278.709,4,500,,
sequence,flow.Sequence,10_30,2023-11-15T18:56:14.087Z,,,,,,,,,,2821.3279999523656,completion,,,,,,,high,low,,,,,,false,,,,false,970278.2999999523,970277.7999999523,967439.751,967454.8999999762,967456.472,970278.709,4,500,,
trial,html.Screen,10_31_0,2023-11-15T18:56:16.461Z,,,,1,0.007397293189458,0.0174716772037504,,false,hl,2373.0909999522846,response,0.7037503985239492,0.8570166702435127,-0.9696995100351501,-0.8074292191440532,1.060660214969055,-0.8260834156944881,high,low,,ISIC_0056226.JPG,10,ISIC_2321671.JPG,47,false,hh,keypress(i),0,false,972652.0999999642,972651.7999999523,970262.106,970278.5,970278.709,972666.823,4,500,32,
break,html.Screen,10_31_1,2023-11-15T18:56:16.462Z,,,,,,,,,,NaN,,,,,,,,high,low,,,,,,false,,,,false,972653.1999999881,972653,,972652.5,,972666.823,4,500,,
break_continue,html.Screen,10_31_2,2023-11-15T18:56:16.463Z,,,,,,,,,,NaN,,,,,,,,high,low,,,,,,false,,,,false,972653.8999999762,972653.5999999642,,972653.5,,972666.823,4,500,,
sequence,flow.Sequence,10_31,2023-11-15T18:56:16.463Z,,,,,,,,,,2374.8909999642055,completion,,,,,,,high,low,,,,,,false,,,,false,972654.1999999881,972653.5999999642,970262.106,970278.3999999762,970278.709,972666.823,4,500,,
trial,html.Screen,10_32_0,2023-11-15T18:56:21.660Z,,,,1,-0.0097091270150747,0.0417921315885292,,false,hl,5184.276999964262,response,0.8816288864119318,0.8570166702435127,-0.9696995100351501,-0.801867301188093,1.060660214969055,-0.8260834156944881,high,low,,ISIC_3967213.JPG,9,ISIC_9196783.JPG,47,false,hh,keypress(i),0,false,977851.2999999523,977851.0999999642,972649.999,972654.3999999762,972666.823,977860.104,4,500,33,
break,html.Screen,10_32_1,2023-11-15T18:56:21.661Z,,,,,,,,,,NaN,,,,,,,,high,low,,,,,,false,,,,false,977852,977851.6999999881,,977851.5,,977860.104,4,500,,
break_continue,html.Screen,10_32_2,2023-11-15T18:56:21.661Z,,,,,,,,,,NaN,,,,,,,,high,low,,,,,,false,,,,false,977852.2999999523,977852.1999999881,,977852.0999999642,,977860.104,4,500,,
sequence,flow.Sequence,10_32,2023-11-15T18:56:21.661Z,,,,,,,,,,5185.376999988104,completion,,,,,,,high,low,,,,,,false,,,,false,977852.5999999642,977852.1999999881,972649.999,972654.3999999762,972666.823,977860.104,4,500,,
trial,html.Screen,10_33_0,2023-11-15T18:56:25.701Z,,,,1,-0.059471106306043,0.0678292174694111,,true,ll,4031.495999964187,response,-0.7918194339998469,0.8570166702435127,-0.9696995100351501,-0.8721226813924959,1.060660214969055,-0.8260834156944881,low,low,,ISIC_0015631.JPG,8,ISIC_0697953.JPG,184,false,ll,keypress(f),0,false,981892,981891.5999999642,977843.5,977852.6999999881,977860.104,981901.306,4,500,34,
break,html.Screen,10_33_1,2023-11-15T18:56:25.702Z,,,,,,,,,,NaN,,,,,,,,low,low,,,,,,false,,,,false,981893.0999999642,981892.7999999523,,981892.3999999762,,981901.306,4,500,,
break_continue,html.Screen,10_33_2,2023-11-15T18:56:25.702Z,,,,,,,,,,NaN,,,,,,,,low,low,,,,,,false,,,,false,981893.8999999762,981893.5,,981893.2999999523,,981901.306,4,500,,
sequence,flow.Sequence,10_33,2023-11-15T18:56:25.703Z,,,,,,,,,,4033.3959999999497,completion,,,,,,,low,low,,,,,,false,,,,false,981894.0999999642,981893.5,977843.5,977852.6999999881,977860.104,981901.306,4,500,,
trial,html.Screen,10_34_0,2023-11-15T18:56:33.661Z,,,,1,-0.0134764727102299,-0.0033499036460912,,false,hl,7950.893999988097,response,0.8390315482769187,0.8570166702435127,-0.9696995100351501,-0.6904094409216154,1.060660214969055,-0.8260834156944881,high,low,,ISIC_0009998.JPG,8,ISIC_5481211.JPG,47,false,hh,keypress(i),0,false,989852.5,989852.1999999881,981884.762,981894.2999999523,981901.306,989866.95,4,500,35,
break,html.Screen,10_34_1,2023-11-15T18:56:33.662Z,,,,,,,,,,NaN,,,,,,,,high,low,,,,,,false,,,,false,989853.6999999881,989853.2999999523,,989852.8999999762,,989866.95,4,500,,
break_continue,html.Screen,10_34_2,2023-11-15T18:56:33.663Z,,,,,,,,,,NaN,,,,,,,,high,low,,,,,,false,,,,false,989854.3999999762,989854.0999999642,,989853.8999999762,,989866.95,4,500,,
sequence,flow.Sequence,10_34,2023-11-15T18:56:33.663Z,,,,,,,,,,7952.793999964255,completion,,,,,,,high,low,,,,,,false,,,,false,989854.6999999881,989854.0999999642,981884.762,981894.2999999523,981901.306,989866.95,4,500,,
trial,html.Screen,10_35_0,2023-11-15T18:56:39.452Z,,,,1,-0.0292059717970335,-0.0718256867525069,,false,lh,5775.649999964284,response,-0.7745647318095624,0.8570166702435127,-0.9696995100351501,1.1610302064435811,1.060660214969055,-0.8260834156944881,low,high,,ISIC_1114966.JPG,10,ISIC_0033004.JPG,21,false,hh,keypress(i),0,false,995642.6999999881,995642.5999999642,989850.185,989854.8999999762,989866.95,995644.595,4,500,36,
break,html.Screen,10_35_1,2023-11-15T18:56:39.452Z,,,,,,,,,,NaN,,,,,,,,low,high,,,,,,false,,,,false,995643,995642.8999999762,,995642.7999999523,,995644.595,4,500,,
break_continue,html.Screen,10_35_2,2023-11-15T18:56:39.452Z,,,,,,,,,,NaN,,,,,,,,low,high,,,,,,false,,,,false,995643.1999999881,995643.1999999881,,995643.0999999642,,995644.595,4,500,,
sequence,flow.Sequence,10_35,2023-11-15T18:56:39.452Z,,,,,,,,,,5776.249999988126,completion,,,,,,,low,high,,,,,,false,,,,false,995643.2999999523,995643.1999999881,989850.185,989854.8999999762,989866.95,995644.595,4,500,,
trial,html.Screen,10_36_0,2023-11-15T18:56:41.652Z,,,,1,-0.013431314305098,0.0140597582944232,,false,lh,2197.905000000028,response,-0.7836356408583546,0.8570166702435127,-0.9696995100351501,1.1197925594706428,1.060660214969055,-0.8260834156944881,low,high,,ISIC_0069617.JPG,10,ISIC_0024961.JPG,21,false,hh,keypress(i),0,false,997842.6999999881,997842.5,995628.095,995643.3999999762,995644.595,997848.905,4,500,37,
break,html.Screen,10_36_1,2023-11-15T18:56:41.652Z,,,,,,,,,,NaN,,,,,,,,low,high,,,,,,false,,,,false,997843,997842.8999999762,,997842.7999999523,,997848.905,4,500,,
break_continue,html.Screen,10_36_2,2023-11-15T18:56:41.652Z,,,,,,,,,,NaN,,,,,,,,low,high,,,,,,false,,,,false,997843.1999999881,997843.0999999642,,997843,,997848.905,4,500,,
sequence,flow.Sequence,10_36,2023-11-15T18:56:41.652Z,,,,,,,,,,2198.504999964265,completion,,,,,,,low,high,,,,,,false,,,,false,997843.1999999881,997843.0999999642,995628.095,995643.2999999523,995644.595,997848.905,4,500,,
trial,html.Screen,10_37_0,2023-11-15T18:56:47.261Z,,,,1,0.0329095507339554,-0.0382899749693245,,false,hh,5603.094999999972,response,0.6626619689522508,0.8570166702435127,-0.9696995100351501,1.049051504424313,1.060660214969055,-0.8260834156944881,high,high,,ISIC_8812781.JPG,9,ISIC_0010942.JPG,152,false,lh,keypress(e),0,false,1003452.3999999762,1003452,997832.409,997843.2999999523,997848.905,1003459.783,4,500,38,
break,html.Screen,10_37_1,2023-11-15T18:56:47.262Z,,,,,,,,,,NaN,,,,,,,,high,high,,,,,,false,,,,false,1003453.5,1003453.2999999523,,1003452.8999999762,,1003459.783,4,500,,
