sender,sender_type,sender_id,timestamp,meta,,age,blockNo,c1,c2,condition,correct,correctResponse,duration,ended_on,f1,f1_high,f1_low,f2,f2_high,f2_low,feature_level1,feature_level2,gender,img_left,img_reveal,img_right,n_target_images,practice,response,response_action,selection_duration,staircase,time_commit,time_end,time_render,time_run,time_show,time_switch,total_blocks,total_trials,trialNo,url
informed_consent,html.Screen,0,2023-11-15T20:38:56.841Z,"{""labjs_version"":""20.2.4"",""labjs_build"":{""flavor"":""development"",""commit"":""f5b4a49f956347addd546a832a3327688c2c0fef""},""location"":""https://labjs.felixhenninger.com/api/labjs_preview/index.html"",""userAgent"":""Mozilla/5.0 (Windows NT 10.0; Win64; x64) AppleWebKit/537.36 (KHTML, like Gecko) Chrome/119.0.0.0 Safari/537.36"",""platform"":""Win32"",""language"":""en-US"",""locale"":""en-US"",""timeZone"":""America/Chicago"",""timezoneOffset"":360,""screen_width"":1680,""screen_height"":1050,""scroll_width"":825,""scroll_height"":888,""window_innerWidth"":825,""window_innerHeight"":936,""devicePixelRatio"":1}",,,,,,,,,14459.425000011921,response,,,,,,,,,,,,,,,consent,click button,,,15462.5,15453.800000011921,977.659,1210.800000011921,994.375,15238.878,,,,{}
Demography form,html.Form,1,2023-11-15T20:39:03.145Z,,,18,,,,,,,6527.52200000596,form submission,,,,,,,,,female,,,,,,,,,,21766.5,21766.40000000596,15222.102,15462.600000023842,15238.878,21534.452,,,,
Welcome,html.Screen,2,2023-11-15T20:39:15.433Z,,,,,,,"[""asym"",""col""]",,,12519.047999999999,response,,,,,,,,,,,,,,,continue,click button,,,34054.20000001788,34053.5,21517.68,21766.5,21534.452,33825.043,,,,
demo_instructions,html.Screen,3,2023-11-15T20:39:42.409Z,,,,,,,,,,27204.857000005963,response,,,,,,,,,,,,,,,continue,click button,,,61030.40000000596,61029.90000000596,33808.225,34054.30000001192,33825.043,60810.975,,,,
trial,html.Screen,4_0_0,2023-11-15T20:39:51.108Z,,,,0,0.8087127179888679,-0.8480635840272462,,true,lh,8918.725000017883,response,-1.0143509683988825,0.9999999999999998,-0.9999999999999998,1.0281980567462463,0.9999999999999998,-0.9999999999999998,low,high,,ISIC_3941147.JPG,,ISIC_0062031.JPG,24,true,lh,keypress(e),100,false,69729.80000001192,69729.70000001788,60794.135,61030.60000002384,60810.975,69511.059,1,16,1,
sequence,flow.Sequence,4_0,2023-11-15T20:39:51.109Z,,,,,,,,,,8918.725000017883,completion,,,,,,,low,high,,,,,,true,,,,false,69730,69729.70000001788,60794.135,61030.60000002384,60810.975,69511.059,1,16,,
trial,html.Screen,4_1_0,2023-11-15T20:39:58.393Z,,,,0,1.0264463986917702,-1.171271535505083,,true,lh,7502.641000017888,response,-0.8591294258188253,0.9999999999999998,-0.9999999999999998,0.870797302150167,0.9999999999999998,-0.9999999999999998,low,high,,ISIC_7889838.JPG,,ISIC_0055841.JPG,24,true,lh,keypress(e),100,false,77014.20000001788,77013.70000001788,69494.567,69730.10000002384,69511.059,76791.975,1,16,2,
sequence,flow.Sequence,4_1,2023-11-15T20:39:58.393Z,,,,,,,,,,7502.641000017888,completion,,,,,,,low,high,,,,,,true,,,,false,77014.80000001192,77013.70000001788,69494.567,69730.10000002384,69511.059,76791.975,1,16,,
trial,html.Screen,4_2_0,2023-11-15T20:40:04.693Z,,,,0,0.9566823908868002,-0.9602125665128364,,true,lh,6522.625000023836,response,-0.9039158082670506,0.9999999999999998,-0.9999999999999998,1.0517562064343149,0.9999999999999998,-0.9999999999999998,low,high,,ISIC_0056784.JPG,,ISIC_0015411.JPG,24,true,lh,keypress(e),100,false,83314.80000001192,83314.60000002384,76775.327,77015.10000002384,76791.975,83104.231,1,16,3,
sequence,flow.Sequence,4_2,2023-11-15T20:40:04.694Z,,,,,,,,,,6522.625000023836,completion,,,,,,,low,high,,,,,,true,,,,false,83315.10000002384,83314.60000002384,76775.327,77015,76791.975,83104.231,1,16,,
trial,html.Screen,4_3_0,2023-11-15T20:40:11.356Z,,,,0,1.1592423187534993,-1.067128884093211,,true,lh,6872.369000023842,response,-1.1890109863264902,0.9999999999999998,-0.9999999999999998,0.8867825318561365,0.9999999999999998,-0.9999999999999998,low,high,,ISIC_6854940.JPG,,ISIC_0072576.JPG,24,true,lh,keypress(e),100,false,89977.10000002384,89976.60000002384,83087.533,83315.20000001788,83104.231,89750.49,1,16,4,
sequence,flow.Sequence,4_3,2023-11-15T20:40:11.356Z,,,,,,,,,,6872.369000023842,completion,,,,,,,low,high,,,,,,true,,,,false,89977.70000001788,89976.60000002384,83087.533,83315.20000001788,83104.231,89750.49,1,16,,
trial,html.Screen,4_4_0,2023-11-15T20:40:23.657Z,,,,0,0.8784544408401186,1.080833919700588,,true,ll,12527.910000005955,response,-1.1642596483638106,0.9999999999999998,-0.9999999999999998,-1.091507924157762,0.9999999999999998,-0.9999999999999998,low,low,,ISIC_0029809.JPG,,ISIC_0765584.JPG,111,true,ll,keypress(f),100,false,102278.80000001192,102278.40000000596,89733.964,89978,89750.49,102057.991,1,16,5,
sequence,flow.Sequence,4_4,2023-11-15T20:40:23.658Z,,,,,,,,,,12527.910000005955,completion,,,,,,,low,low,,,,,,true,,,,false,102279.5,102278.40000000596,89733.964,89977.90000000596,89750.49,102057.991,1,16,,
trial,html.Screen,4_5_0,2023-11-15T20:40:27.799Z,,,,0,0.8998317940997821,1.1665943858643009,,true,ll,4361.709000017887,response,-0.9597587651037712,0.9999999999999998,-0.9999999999999998,-0.8860066980618031,0.9999999999999998,-0.9999999999999998,low,low,,ISIC_0071388.JPG,,ISIC_7534592.JPG,111,true,ll,keypress(f),100,false,106420.10000002384,106419.70000001788,102041.188,102279.70000001788,102057.991,106199.417,1,16,6,
sequence,flow.Sequence,4_5,2023-11-15T20:40:27.800Z,,,,,,,,,,4361.709000017887,completion,,,,,,,low,low,,,,,,true,,,,false,106420.80000001192,106419.70000001788,102041.188,102279.70000001788,102057.991,106199.417,1,16,,
trial,html.Screen,4_6_0,2023-11-15T20:40:31.139Z,,,,0,1.1671212908494544,1.1286681796701683,,true,ll,3560.5829999999987,response,-0.8017757615489182,0.9999999999999998,-0.9999999999999998,-0.8187931329618445,0.9999999999999998,-0.9999999999999998,low,low,,ISIC_0065022.JPG,,ISIC_0029024.JPG,111,true,ll,keypress(f),100,false,109760.40000000596,109760,106182.526,106421.10000002384,106199.417,109539.223,1,16,7,
sequence,flow.Sequence,4_6,2023-11-15T20:40:31.140Z,,,,,,,,,,3560.5829999999987,completion,,,,,,,low,low,,,,,,true,,,,false,109761.10000002384,109760,106182.526,106420.90000000596,106199.417,109539.223,1,16,,
trial,html.Screen,4_7_0,2023-11-15T20:40:37.698Z,,,,0,0.8617273148568415,1.1394683921871485,,true,ll,6778.877000023844,response,-0.8093178584833343,0.9999999999999998,-0.9999999999999998,-1.0139833925057518,0.9999999999999998,-0.9999999999999998,low,low,,ISIC_0000287.JPG,,ISIC_6171084.JPG,111,true,ll,keypress(f),100,false,116318.5,116318.10000002384,109522.403,109761.30000001192,109539.223,116102.033,1,16,8,
sequence,flow.Sequence,4_7,2023-11-15T20:40:37.698Z,,,,,,,,,,6778.877000023844,completion,,,,,,,low,low,,,,,,true,,,,false,116319.10000002384,116318.10000002384,109522.403,109761.30000001192,109539.223,116102.033,1,16,,
trial,html.Screen,4_8_0,2023-11-15T20:40:46.015Z,,,,0,-0.8779374983479176,0.9745548032823428,,true,hl,8533.667000017886,response,1.127346631538643,0.9999999999999998,-0.9999999999999998,-0.8080854255453543,0.9999999999999998,-0.9999999999999998,high,low,,ISIC_2991354.JPG,,ISIC_0011045.JPG,24,true,hl,keypress(j),100,false,124636.10000002384,124635.70000001788,116085.143,116319.40000000596,116102.033,124418.234,1,16,9,
sequence,flow.Sequence,4_8,2023-11-15T20:40:46.016Z,,,,,,,,,,8533.667000017886,completion,,,,,,,high,low,,,,,,true,,,,false,124636.60000002384,124635.70000001788,116085.143,116319.30000001192,116102.033,124418.234,1,16,,
trial,html.Screen,4_9_0,2023-11-15T20:40:49.467Z,,,,0,-1.1224745971429997,0.8423270217438888,,true,hl,3669.866000023845,response,0.8407642478899736,0.9999999999999998,-0.9999999999999998,-0.9542322753334054,0.9999999999999998,-0.9999999999999998,high,low,,ISIC_0057032.JPG,,ISIC_9090822.JPG,24,true,hl,keypress(j),100,false,128088.30000001192,128088.10000002384,124401.329,124636.90000000596,124418.234,127874.887,1,16,10,
sequence,flow.Sequence,4_9,2023-11-15T20:40:49.468Z,,,,,,,,,,3669.866000023845,completion,,,,,,,high,low,,,,,,true,,,,false,128089.10000002384,128088.10000002384,124401.329,124636.90000000596,124418.234,127874.887,1,16,,
trial,html.Screen,4_10_0,2023-11-15T20:40:51.538Z,,,,0,-0.8779374983479176,0.9745548032823428,,true,hl,2284.1129999999976,response,1.0700930503975157,0.9999999999999998,-0.9999999999999998,-0.923753102263735,0.9999999999999998,-0.9999999999999998,high,low,,ISIC_2991354.JPG,,ISIC_0000022.JPG,24,true,hl,keypress(j),100,false,130159.20000001788,130159,127858.25,128089.40000000596,127874.887,129945.617,1,16,11,
sequence,flow.Sequence,4_10,2023-11-15T20:40:51.539Z,,,,,,,,,,2284.1129999999976,completion,,,,,,,high,low,,,,,,true,,,,false,130159.5,130159,127858.25,128089.30000001192,127874.887,129945.617,1,16,,
trial,html.Screen,4_11_0,2023-11-15T20:40:53.401Z,,,,0,-1.0143509683988825,1.0281980567462463,,true,hl,2075.6830000119226,response,1.0264463986917702,0.9999999999999998,-0.9999999999999998,-1.171271535505083,0.9999999999999998,-0.9999999999999998,high,low,,ISIC_0062031.JPG,,ISIC_7889838.JPG,24,true,hl,keypress(j),100,false,132021.5,132021.30000001192,129928.951,130159.70000001788,129945.617,131799.25,1,16,12,
sequence,flow.Sequence,4_11,2023-11-15T20:40:53.401Z,,,,,,,,,,2075.6830000119226,completion,,,,,,,high,low,,,,,,true,,,,false,132021.80000001192,132021.30000001192,129928.951,130159.60000002384,129945.617,131799.25,1,16,,
trial,html.Screen,4_12_0,2023-11-15T20:41:00.257Z,,,,0,-0.9597587651037712,-0.8860066980618031,,true,hh,7078.6500000059605,response,0.850984647884985,0.9999999999999998,-0.9999999999999998,0.8368364447246962,0.9999999999999998,-0.9999999999999998,high,high,,ISIC_7534592.JPG,,ISIC_0062005.JPG,154,true,hh,keypress(i),100,false,138878.40000000596,138877.90000000596,131782.304,132022.10000002384,131799.25,138662.599,1,16,13,
sequence,flow.Sequence,4_12,2023-11-15T20:41:00.258Z,,,,,,,,,,7078.6500000059605,completion,,,,,,,high,high,,,,,,true,,,,false,138879,138877.90000000596,131782.304,132022,131799.25,138662.599,1,16,,
trial,html.Screen,4_13_0,2023-11-15T20:41:02.143Z,,,,0,-0.8093178584833343,-1.0139833925057518,,true,hh,2101.301000005973,response,1.185875658992962,0.9999999999999998,-0.9999999999999998,0.9985976786538492,0.9999999999999998,-0.9999999999999998,high,high,,ISIC_6171084.JPG,,ISIC_0011703.JPG,154,true,hh,keypress(i),100,false,140764.20000001788,140763.90000000596,138645.759,138879.20000001788,138662.599,140549.464,1,16,14,
sequence,flow.Sequence,4_13,2023-11-15T20:41:02.144Z,,,,,,,,,,2101.301000005973,completion,,,,,,,high,high,,,,,,true,,,,false,140764.60000002384,140763.90000000596,138645.759,138879.10000002384,138662.599,140549.464,1,16,,
trial,html.Screen,4_14_0,2023-11-15T20:41:07.831Z,,,,0,-0.9462198986993904,-1.067111862128132,,true,hh,5901.636000023835,response,0.8387460443597405,0.9999999999999998,-0.9999999999999998,0.8583167463787408,0.9999999999999998,-0.9999999999999998,high,high,,ISIC_3564461.JPG,,ISIC_0014189.JPG,154,true,hh,keypress(i),100,false,146451.60000002384,146451.10000002384,140532.921,140765,140549.464,146227.276,1,16,15,
sequence,flow.Sequence,4_14,2023-11-15T20:41:07.831Z,,,,,,,,,,5901.636000023835,completion,,,,,,,high,high,,,,,,true,,,,false,146452.20000001788,146451.10000002384,140532.921,140764.80000001192,140549.464,146227.276,1,16,,
trial,html.Screen,4_15_0,2023-11-15T20:41:10.003Z,,,,0,-0.9487751044258608,-0.9230722071334148,,true,hh,2396.7239999999874,response,1.008094916937765,0.9999999999999998,-0.9999999999999998,0.8318935997015064,0.9999999999999998,-0.9999999999999998,high,high,,ISIC_4568084.JPG,,ISIC_0032751.JPG,154,true,hh,keypress(i),100,false,148624.30000001192,148624,146210.485,146452.5,146227.276,148414.653,1,16,16,
sequence,flow.Sequence,4_15,2023-11-15T20:41:10.004Z,,,,,,,,,,2396.7239999999874,completion,,,,,,,high,high,,,,,,true,,,,false,148625,148624,146210.485,146452.40000000596,146227.276,148414.653,1,16,,
demonstration_loop,flow.Loop,4,2023-11-15T20:41:10.004Z,,,,,,,,,,87813.025,completion,,,,,,,,,,,,,,true,,,,false,148625.40000000596,148624,60794.135,61030.60000002384,60810.975,148414.653,1,16,,
practice_instructions,html.Screen,5,2023-11-15T20:41:16.681Z,,,,,,,,,,6879.247000005969,response,,,,,,,,,,,,,,,continue,click button,,,155301.60000002384,155293.90000000596,148381.404,148625.60000002384,148414.653,155060.926,,,,
trial,html.Screen,6_0_0,2023-11-15T20:41:27.440Z,,,,1,-0.8479744227240601,-1.0203856528186417,,,,10771.052999999985,timeout,1.042500842905652,0.9999999999999998,-0.9999999999999998,1.083053464502593,0.9999999999999998,-0.9999999999999998,high,high,,ISIC_3392451.JPG,,ISIC_0071135.JPG,154,true,,,0,false,166060.90000000596,166060.40000000596,155044.408,155301.70000001788,155060.926,165831.979,1,40,1,
sequence,flow.Sequence,6_0,2023-11-15T20:41:27.441Z,,,,,,,,,,10999.474000005954,completion,,,,,,,high,high,,,,,,true,,,,false,166061.40000000596,166060.40000000596,155044.408,155301.70000001788,155060.926,165831.979,1,40,,
trial,html.Screen,6_1_0,2023-11-15T20:41:34.490Z,,,,1,0.8688859182707874,-0.9566733172438716,,true,lh,7278.321000011929,response,-1.1235224875125256,0.9999999999999998,-0.9999999999999998,0.8641223012137988,0.9999999999999998,-0.9999999999999998,low,high,,ISIC_0640770.JPG,,ISIC_0033901.JPG,24,true,lh,keypress(e),0,false,173110.40000000596,173110.30000001192,165815.398,166061.70000001788,165831.979,172879.146,1,40,2,
sequence,flow.Sequence,6_1,2023-11-15T20:41:34.490Z,,,,,,,,,,7278.321000011929,completion,,,,,,,low,high,,,,,,true,,,,false,173110.5,173110.30000001192,165815.398,166061.60000002384,165831.979,172879.146,1,40,,
trial,html.Screen,6_2_0,2023-11-15T20:41:39.770Z,,,,1,1.1584542819627714,0.9718566025210856,,true,ll,5511.254000005953,response,-0.9462198986993904,0.9999999999999998,-0.9999999999999998,-1.067111862128132,0.9999999999999998,-0.9999999999999998,low,low,,ISIC_0010162.JPG,,ISIC_3564461.JPG,111,true,ll,keypress(f),0,false,178390.60000002384,178390.40000000596,172862.317,173110.60000002384,172879.146,178155.888,1,40,3,
sequence,flow.Sequence,6_2,2023-11-15T20:41:39.770Z,,,,,,,,,,5511.254000005953,completion,,,,,,,low,low,,,,,,true,,,,false,178390.80000001192,178390.40000000596,172862.317,173110.60000002384,172879.146,178155.888,1,40,,
trial,html.Screen,6_3_0,2023-11-15T20:41:48.027Z,,,,1,1.0822170028935367,-1.1654796154432183,,false,lh,8491.712000023836,response,-1.1224745971429997,0.9999999999999998,-0.9999999999999998,0.8423270217438888,0.9999999999999998,-0.9999999999999998,low,high,,ISIC_7288818.JPG,,ISIC_0057032.JPG,24,true,hh,keypress(i),0,false,186647.90000000596,186647.60000002384,178139.149,178390.80000001192,178155.888,186422.237,1,40,4,
sequence,flow.Sequence,6_3,2023-11-15T20:41:48.028Z,,,,,,,,,,8491.712000023836,completion,,,,,,,low,high,,,,,,true,,,,false,186648.5,186647.60000002384,178139.149,178390.80000001192,178155.888,186422.237,1,40,,
trial,html.Screen,6_4_0,2023-11-15T20:41:58.802Z,,,,1,0.9225524349657857,-0.929746784178986,,,,10770.801999999996,timeout,-0.8779374983479176,0.9999999999999998,-0.9999999999999998,0.9745548032823428,0.9999999999999998,-0.9999999999999998,low,high,,ISIC_0011077.JPG,,ISIC_2991354.JPG,24,true,,,0,false,197422.40000000596,197422.30000001192,186405.254,186648.70000001788,186422.237,197193.039,1,40,5,
sequence,flow.Sequence,6_4,2023-11-15T20:41:58.802Z,,,,,,,,,,11000.063000011927,completion,,,,,,,low,high,,,,,,true,,,,false,197422.5,197422.30000001192,186405.254,186648.60000002384,186422.237,197193.039,1,40,,
trial,html.Screen,6_5_0,2023-11-15T20:42:04.802Z,,,,1,1.0822170028935367,-1.1654796154432183,,true,lh,6229.361000005971,response,-0.8069690440362255,0.9999999999999998,-0.9999999999999998,0.8262727717500657,0.9999999999999998,-0.9999999999999998,low,high,,ISIC_7288818.JPG,,ISIC_0028469.JPG,24,true,lh,keypress(e),0,false,203422.5,203422.40000000596,197176.442,197422.5,197193.039,203187.949,1,40,6,
sequence,flow.Sequence,6_5,2023-11-15T20:42:04.802Z,,,,,,,,,,6229.361000005971,completion,,,,,,,low,high,,,,,,true,,,,false,203422.70000001788,203422.40000000596,197176.442,197422.5,197193.039,203187.949,1,40,,
trial,html.Screen,6_6_0,2023-11-15T20:42:08.715Z,,,,1,-1.1816316134800355,-0.9439295748587228,,true,hh,4147.451000005967,response,0.838609817323933,0.9999999999999998,-0.9999999999999998,0.8422150101593281,0.9999999999999998,-0.9999999999999998,high,high,,ISIC_8002729.JPG,,ISIC_0009913.JPG,154,true,hh,keypress(i),0,false,207335.70000001788,207335.40000000596,203171.416,203422.70000001788,203187.949,207112.61,1,40,7,
sequence,flow.Sequence,6_6,2023-11-15T20:42:08.715Z,,,,,,,,,,4147.451000005967,completion,,,,,,,high,high,,,,,,true,,,,false,207336.20000001788,207335.40000000596,203171.416,203422.70000001788,203187.949,207112.61,1,40,,
trial,html.Screen,6_7_0,2023-11-15T20:42:16.755Z,,,,1,0.8121377641994781,0.9325200951609898,,false,ll,8263.190000011935,response,-0.967434313906551,0.9999999999999998,-0.9999999999999998,-0.9078292667476092,0.9999999999999998,-0.9999999999999998,low,low,,ISIC_9363106.JPG,,ISIC_0011668.JPG,111,true,lh,keypress(e),0,false,215376.20000001788,215375.80000001192,207078.932,207336.5,207112.61,215144.617,1,40,8,
sequence,flow.Sequence,6_7,2023-11-15T20:42:16.756Z,,,,,,,,,,8263.190000011935,completion,,,,,,,low,low,,,,,,true,,,,false,215376.70000001788,215375.80000001192,207078.932,207336.40000000596,207112.61,215144.617,1,40,,
trial,html.Screen,6_8_0,2023-11-15T20:42:20.899Z,,,,1,0.9303292478996148,0.8099604275482958,,true,ll,4374.883000000002,response,-1.0275060871969903,0.9999999999999998,-0.9999999999999998,-0.9101747326852082,0.9999999999999998,-0.9999999999999998,low,low,,ISIC_0068580.JPG,,ISIC_9155028.JPG,111,true,ll,keypress(f),0,false,219519.80000001192,219519.5,215127.799,215377,215144.617,219285.992,1,40,9,
sequence,flow.Sequence,6_8,2023-11-15T20:42:20.900Z,,,,,,,,,,4374.883000000002,completion,,,,,,,low,low,,,,,,true,,,,false,219520.30000001192,219519.5,215127.799,215376.80000001192,215144.617,219285.992,1,40,,
trial,html.Screen,6_9_0,2023-11-15T20:42:29.388Z,,,,1,0.8620516892494489,-1.1108509340502866,,true,lh,8722.008000000002,response,-1.1224745971429997,0.9999999999999998,-0.9999999999999998,0.8423270217438888,0.9999999999999998,-0.9999999999999998,low,high,,ISIC_5557806.JPG,,ISIC_0057032.JPG,24,true,lh,keypress(e),0,false,228008.40000000596,228008,219269.289,219520.60000002384,219285.992,227769.223,1,40,10,
sequence,flow.Sequence,6_9,2023-11-15T20:42:29.388Z,,,,,,,,,,8722.008000000002,completion,,,,,,,low,high,,,,,,true,,,,false,228008.90000000596,228008,219269.289,219520.5,219285.992,227769.223,1,40,,
trial,html.Screen,6_10_0,2023-11-15T20:42:40.145Z,,,,1,-0.9487751044258608,-0.9230722071334148,,,,10770.958000000013,timeout,1.0322039773226626,0.9999999999999998,-0.9999999999999998,0.864695074153971,0.9999999999999998,-0.9999999999999998,high,high,,ISIC_4568084.JPG,,ISIC_0013707.JPG,154,true,,,0,false,238765.70000001788,238765.30000001192,227752.591,228009.10000002384,227769.223,238540.181,1,40,11,
sequence,flow.Sequence,6_10,2023-11-15T20:42:40.146Z,,,,,,,,,,10996.077000011923,completion,,,,,,,high,high,,,,,,true,,,,false,238766.20000001788,238765.30000001192,227752.591,228009,227769.223,238540.181,1,40,,
trial,html.Screen,6_11_0,2023-11-15T20:42:48.339Z,,,,1,0.9738365957110542,0.9145475604754156,,true,ll,8419.41900002383,response,-0.9139623794041906,0.9999999999999998,-0.9999999999999998,-0.80463334401576,0.9999999999999998,-0.9999999999999998,low,low,,ISIC_3435596.JPG,,ISIC_2797576.JPG,111,true,ll,keypress(f),0,false,246959.90000000596,246959.60000002384,238523.622,238766.40000000596,238540.181,246722.685,1,40,12,
sequence,flow.Sequence,6_11,2023-11-15T20:42:48.340Z,,,,,,,,,,8419.41900002383,completion,,,,,,,low,low,,,,,,true,,,,false,246960.40000000596,246959.60000002384,238523.622,238766.40000000596,238540.181,246722.685,1,40,,
trial,html.Screen,6_12_0,2023-11-15T20:42:50.538Z,,,,1,-0.9371720357162444,-0.9507421943628228,,true,hh,2435.6150000119233,response,1.0657476601009717,0.9999999999999998,-0.9999999999999998,1.166572336354465,0.9999999999999998,-0.9999999999999998,high,high,,ISIC_3730327.JPG,,ISIC_0010778.JPG,154,true,hh,keypress(i),0,false,249158.40000000596,249158.30000001192,246706.174,246960.70000001788,246722.685,248927.007,1,40,13,
sequence,flow.Sequence,6_12,2023-11-15T20:42:50.538Z,,,,,,,,,,2435.6150000119233,completion,,,,,,,high,high,,,,,,true,,,,false,249158.5,249158.30000001192,246706.174,246960.60000002384,246722.685,248927.007,1,40,,
trial,html.Screen,6_13_0,2023-11-15T20:42:56.883Z,,,,1,0.8015753713975186,-1.0067065355978264,,false,lh,6576.5930000238295,response,-1.1224745971429997,0.9999999999999998,-0.9999999999999998,0.8423270217438888,0.9999999999999998,-0.9999999999999998,low,high,,ISIC_0002119.JPG,,ISIC_0057032.JPG,24,true,hh,keypress(i),0,false,255503.90000000596,255503.60000002384,248910.481,249158.60000002384,248927.007,255272.72,1,40,14,
sequence,flow.Sequence,6_13,2023-11-15T20:42:56.884Z,,,,,,,,,,6576.5930000238295,completion,,,,,,,low,high,,,,,,true,,,,false,255504.40000000596,255503.60000002384,248910.481,249158.60000002384,248927.007,255272.72,1,40,,
trial,html.Screen,6_14_0,2023-11-15T20:43:02.891Z,,,,1,-0.8779374983479176,0.9745548032823428,,true,hl,6238.98000001788,response,0.8181754542205604,0.9999999999999998,-0.9999999999999998,-0.8285141543298179,0.9999999999999998,-0.9999999999999998,high,low,,ISIC_2991354.JPG,,ISIC_3812485.JPG,24,true,hl,keypress(j),0,false,261512,261511.70000001788,255256.167,255504.60000002384,255272.72,261284.451,1,40,15,
sequence,flow.Sequence,6_14,2023-11-15T20:43:02.892Z,,,,,,,,,,6238.98000001788,completion,,,,,,,high,low,,,,,,true,,,,false,261512.40000000596,261511.70000001788,255256.167,255504.60000002384,255272.72,261284.451,1,40,,
trial,html.Screen,6_15_0,2023-11-15T20:43:09.347Z,,,,1,-0.8150886811691144,0.862416038462147,,true,hl,6683.149000023841,response,0.8407642478899736,0.9999999999999998,-0.9999999999999998,-0.9542322753334054,0.9999999999999998,-0.9999999999999998,high,low,,ISIC_0058079.JPG,,ISIC_9090822.JPG,24,true,hl,keypress(j),0,false,267967.90000000596,267967.60000002384,261267.583,261512.80000001192,261284.451,267730.257,1,40,16,
sequence,flow.Sequence,6_15,2023-11-15T20:43:09.348Z,,,,,,,,,,6683.149000023841,completion,,,,,,,high,low,,,,,,true,,,,false,267968.40000000596,267967.60000002384,261267.583,261512.70000001788,261284.451,267730.257,1,40,,
trial,html.Screen,6_16_0,2023-11-15T20:43:14.219Z,,,,1,1.089914260719518,1.1695563571046357,,false,ll,5109.443000017898,response,-1.1063796153389187,0.9999999999999998,-0.9999999999999998,-0.8605921333200546,0.9999999999999998,-0.9999999999999998,low,low,,ISIC_0030695.JPG,,ISIC_0064071.JPG,111,true,lh,keypress(e),0,false,272840,272839.7000000179,267713.745,267968.60000002384,267730.257,272606.367,1,40,17,
sequence,flow.Sequence,6_16,2023-11-15T20:43:14.220Z,,,,,,,,,,5109.443000017898,completion,,,,,,,low,low,,,,,,true,,,,false,272840.40000000596,272839.7000000179,267713.745,267968.60000002384,267730.257,272606.367,1,40,,
trial,html.Screen,6_17_0,2023-11-15T20:43:17.826Z,,,,1,0.9566823908868002,-0.9602125665128364,,true,lh,3840.033000005933,response,-0.9445114955578736,0.9999999999999998,-0.9999999999999998,1.0054210059625863,0.9999999999999998,-0.9999999999999998,low,high,,ISIC_0056784.JPG,,ISIC_0033807.JPG,24,true,lh,keypress(e),0,false,276446.7000000179,276446.40000000596,272589.766,272840.7000000179,272606.367,276213.397,1,40,18,
sequence,flow.Sequence,6_17,2023-11-15T20:43:17.826Z,,,,,,,,,,3840.033000005933,completion,,,,,,,low,high,,,,,,true,,,,false,276446.8000000119,276446.40000000596,272589.766,272840.60000002384,272606.367,276213.397,1,40,,
trial,html.Screen,6_18_0,2023-11-15T20:43:20.963Z,,,,1,-0.8069690440362255,0.8262727717500657,,true,hl,3370.103000000003,response,0.9566823908868002,0.9999999999999998,-0.9999999999999998,-0.9602125665128364,0.9999999999999998,-0.9999999999999998,high,low,,ISIC_0028469.JPG,,ISIC_0056784.JPG,24,true,hl,keypress(j),0,false,279583.90000000596,279583.5,276196.939,276446.90000000596,276213.397,279352.872,1,40,19,
sequence,flow.Sequence,6_18,2023-11-15T20:43:20.964Z,,,,,,,,,,3370.103000000003,completion,,,,,,,high,low,,,,,,true,,,,false,279584.40000000596,279583.5,276196.939,276446.90000000596,276213.397,279352.872,1,40,,
trial,html.Screen,6_19_0,2023-11-15T20:43:28.988Z,,,,1,-1.1344866365171962,-0.926850270881616,,false,hh,8255.028000005987,response,0.9585938767259125,0.9999999999999998,-0.9999999999999998,0.8493445183566039,0.9999999999999998,-0.9999999999999998,high,high,,ISIC_7747998.JPG,,ISIC_0055003.JPG,154,true,hl,keypress(j),0,false,287608.3000000119,287607.90000000596,279336.257,279584.60000002384,279352.872,287385.74,1,40,20,
sequence,flow.Sequence,6_19,2023-11-15T20:43:28.988Z,,,,,,,,,,8255.028000005987,completion,,,,,,,high,high,,,,,,true,,,,false,287608.8000000119,287607.90000000596,279336.257,279584.5,279352.872,287385.74,1,40,,
trial,html.Screen,6_20_0,2023-11-15T20:43:33.412Z,,,,1,0.9293599144917216,1.045616100036335,,false,ll,4645.960000017891,response,-0.967434313906551,0.9999999999999998,-0.9999999999999998,-0.9078292667476092,0.9999999999999998,-0.9999999999999998,low,low,,ISIC_0011031.JPG,,ISIC_0011668.JPG,111,true,lh,keypress(e),0,false,292032,292031.7000000179,287351.853,287609.10000002384,287385.74,291793.738,1,40,21,
sequence,flow.Sequence,6_20,2023-11-15T20:43:33.412Z,,,,,,,,,,4645.960000017891,completion,,,,,,,low,low,,,,,,true,,,,false,292032.5,292031.7000000179,287351.853,287609,287385.74,291793.738,1,40,,
trial,html.Screen,6_21_0,2023-11-15T20:43:37.412Z,,,,1,-0.8152354890677903,1.10470584815077,,true,hl,4237.962000017869,response,1.1592423187534993,0.9999999999999998,-0.9999999999999998,-1.067128884093211,0.9999999999999998,-0.9999999999999998,high,low,,ISIC_0010283.JPG,,ISIC_6854940.JPG,24,true,hl,keypress(j),0,false,296032,296031.7000000179,291777.23,292032.7000000179,291793.738,295801.632,1,40,22,
sequence,flow.Sequence,6_21,2023-11-15T20:43:37.412Z,,,,,,,,,,4237.962000017869,completion,,,,,,,high,low,,,,,,true,,,,false,296032.5,296031.7000000179,291777.23,292032.7000000179,291793.738,295801.632,1,40,,
trial,html.Screen,6_22_0,2023-11-15T20:43:46.812Z,,,,1,-1.00615481805876,0.8428903771195875,,false,hl,9630.468000023859,response,1.0822170028935367,0.9999999999999998,-0.9999999999999998,-1.1654796154432183,0.9999999999999998,-0.9999999999999998,high,low,,ISIC_0069970.JPG,,ISIC_7288818.JPG,24,true,ll,keypress(f),0,false,305432.40000000596,305432.10000002384,295785.072,296032.8000000119,295801.632,305203.331,1,40,23,
sequence,flow.Sequence,6_22,2023-11-15T20:43:46.812Z,,,,,,,,,,9630.468000023859,completion,,,,,,,high,low,,,,,,true,,,,false,305432.90000000596,305432.10000002384,295785.072,296032.7000000179,295801.632,305203.331,1,40,,
trial,html.Screen,6_23_0,2023-11-15T20:43:51.732Z,,,,1,0.8172719099003396,0.8014701937077862,,false,ll,5148.369000017876,response,-0.9133847107512522,0.9999999999999998,-0.9999999999999998,-1.1467555629414397,0.9999999999999998,-0.9999999999999998,low,low,,ISIC_0011794.JPG,,ISIC_0032171.JPG,111,true,lh,keypress(e),0,false,310351.90000000596,310351.7000000179,305186.6,305433.10000002384,305203.331,310112.829,1,40,24,
sequence,flow.Sequence,6_23,2023-11-15T20:43:51.732Z,,,,,,,,,,5148.369000017876,completion,,,,,,,low,low,,,,,,true,,,,false,310352.5,310351.7000000179,305186.6,305433.10000002384,305203.331,310112.829,1,40,,
trial,html.Screen,6_24_0,2023-11-15T20:43:59.882Z,,,,1,-0.8492821768888116,-1.1667020643738155,,false,hh,8389.371000017854,response,1.089914260719518,0.9999999999999998,-0.9999999999999998,1.1695563571046357,0.9999999999999998,-0.9999999999999998,high,high,,ISIC_0011256.JPG,,ISIC_0030695.JPG,154,true,hl,keypress(j),0,false,318502.40000000596,318502.2000000179,310096.174,310352.7000000179,310112.829,318261.939,1,40,25,
sequence,flow.Sequence,6_24,2023-11-15T20:43:59.882Z,,,,,,,,,,8389.371000017854,completion,,,,,,,high,high,,,,,,true,,,,false,318502.60000002384,318502.2000000179,310096.174,310352.60000002384,310112.829,318261.939,1,40,,
trial,html.Screen,6_25_0,2023-11-15T20:44:03.322Z,,,,1,1.1618928077758934,0.9630799724002608,,false,ll,3680.2610000178684,response,-0.8191491070125395,0.9999999999999998,-0.9999999999999998,-0.9768428530424166,0.9999999999999998,-0.9999999999999998,low,low,,ISIC_0034076.JPG,,ISIC_2565986.JPG,111,true,lh,keypress(e),0,false,321942.3000000119,321942.2000000179,318245.308,318502.60000002384,318261.939,321701.962,1,40,26,
sequence,flow.Sequence,6_25,2023-11-15T20:44:03.322Z,,,,,,,,,,3680.2610000178684,completion,,,,,,,low,low,,,,,,true,,,,false,321942.40000000596,321942.2000000179,318245.308,318502.60000002384,318261.939,321701.962,1,40,,
trial,html.Screen,6_26_0,2023-11-15T20:44:05.514Z,,,,1,0.8015753713975186,-1.0067065355978264,,true,lh,2432.3380000119214,response,-0.9039158082670506,0.9999999999999998,-0.9999999999999998,1.0517562064343149,0.9999999999999998,-0.9999999999999998,low,high,,ISIC_0002119.JPG,,ISIC_0015411.JPG,24,true,lh,keypress(e),0,false,324134.3000000119,324134.3000000119,321685.429,321942.5,321701.962,323906.281,1,40,27,
sequence,flow.Sequence,6_26,2023-11-15T20:44:05.514Z,,,,,,,,,,2432.3380000119214,completion,,,,,,,low,high,,,,,,true,,,,false,324134.40000000596,324134.3000000119,321685.429,321942.5,321701.962,323906.281,1,40,,
trial,html.Screen,6_27_0,2023-11-15T20:44:11.420Z,,,,1,-0.8129823105338526,0.9655386457143784,,true,hl,6133.519000011904,response,0.9046170303418553,0.9999999999999998,-0.9999999999999998,-1.0063426986460375,0.9999999999999998,-0.9999999999999998,high,low,,ISIC_8268025.JPG,,ISIC_0055759.JPG,24,true,hl,keypress(j),0,false,330040.2000000179,330039.8000000119,323889.702,324134.5,323906.281,329801.137,1,40,28,
sequence,flow.Sequence,6_27,2023-11-15T20:44:11.420Z,,,,,,,,,,6133.519000011904,completion,,,,,,,high,low,,,,,,true,,,,false,330040.7000000179,330039.8000000119,323889.702,324134.5,323906.281,329801.137,1,40,,
trial,html.Screen,6_28_0,2023-11-15T20:44:20.204Z,,,,1,-1.0372661581632368,-0.8527176805053108,,true,hh,9022.663000011933,response,1.0324288349148223,0.9999999999999998,-0.9999999999999998,0.9551989453759216,0.9999999999999998,-0.9999999999999998,high,high,,ISIC_6340792.JPG,,ISIC_0033570.JPG,154,true,hh,keypress(i),0,false,338824.10000002384,338823.8000000119,329784.406,330040.90000000596,329801.137,338584.913,1,40,29,
sequence,flow.Sequence,6_28,2023-11-15T20:44:20.204Z,,,,,,,,,,9022.663000011933,completion,,,,,,,high,high,,,,,,true,,,,false,338824.60000002384,338823.8000000119,329784.406,330040.90000000596,329801.137,338584.913,1,40,,
trial,html.Screen,6_29_0,2023-11-15T20:44:25.956Z,,,,1,1.143881656046846,0.9998119797725442,,true,ll,5990.98700000596,response,-0.9537595754201148,0.9999999999999998,-0.9999999999999998,-1.1342661775432377,0.9999999999999998,-0.9999999999999998,low,low,,ISIC_8685259.JPG,,ISIC_0741694.JPG,111,true,ll,keypress(f),0,false,344576.2000000179,344575.90000000596,338568.11,338824.8000000119,338584.913,344346.113,1,40,30,
sequence,flow.Sequence,6_29,2023-11-15T20:44:25.956Z,,,,,,,,,,5990.98700000596,completion,,,,,,,low,low,,,,,,true,,,,false,344576.7000000179,344575.90000000596,338568.11,338824.8000000119,338584.913,344346.113,1,40,,
trial,html.Screen,6_30_0,2023-11-15T20:44:30.924Z,,,,1,-1.1235224875125256,0.8641223012137988,,true,hl,5197.587000017869,response,1.082730232773217,0.9999999999999998,-0.9999999999999998,-0.8833175387485132,0.9999999999999998,-0.9999999999999998,high,low,,ISIC_0033901.JPG,,ISIC_0011933.JPG,24,true,hl,keypress(j),0,false,349544,349543.7000000179,344329.572,344576.90000000596,344346.113,349305.767,1,40,31,
sequence,flow.Sequence,6_30,2023-11-15T20:44:30.924Z,,,,,,,,,,5197.587000017869,completion,,,,,,,high,low,,,,,,true,,,,false,349544.5,349543.7000000179,344329.572,344576.90000000596,344346.113,349305.767,1,40,,
trial,html.Screen,6_31_0,2023-11-15T20:44:33.587Z,,,,1,-0.894033318100927,-0.9842451068179496,,true,hh,2900.933000017889,response,1.0441672988386008,0.9999999999999998,-0.9999999999999998,1.108916716139547,0.9999999999999998,-0.9999999999999998,high,high,,ISIC_0015298.JPG,,ISIC_0063243.JPG,154,true,hh,keypress(i),0,false,352206.8000000119,352206.7000000179,349289.074,349544.7000000179,349305.767,351977.814,1,40,32,
sequence,flow.Sequence,6_31,2023-11-15T20:44:33.587Z,,,,,,,,,,2900.933000017889,completion,,,,,,,high,high,,,,,,true,,,,false,352207,352206.7000000179,349289.074,349544.60000002384,349305.767,351977.814,1,40,,
trial,html.Screen,6_32_0,2023-11-15T20:44:34.651Z,,,,1,-0.849847885203758,0.973447384095442,,true,hl,1292.7860000238288,response,0.8181754542205604,0.9999999999999998,-0.9999999999999998,-0.8285141543298179,0.9999999999999998,-0.9999999999999998,high,low,,ISIC_9612228.JPG,,ISIC_3812485.JPG,24,true,hl,keypress(j),0,false,353270.7000000179,353270.60000002384,351961.073,352207.10000002384,351977.814,353046.454,1,40,33,
sequence,flow.Sequence,6_32,2023-11-15T20:44:34.651Z,,,,,,,,,,1292.7860000238288,completion,,,,,,,high,low,,,,,,true,,,,false,353270.90000000596,353270.60000002384,351961.073,352207.10000002384,351977.814,353046.454,1,40,,
trial,html.Screen,6_33_0,2023-11-15T20:44:35.900Z,,,,1,1.082730232773217,-0.8833175387485132,,true,lh,1473.346000011894,response,-0.8644465729542988,0.9999999999999998,-0.9999999999999998,0.8679598285079457,0.9999999999999998,-0.9999999999999998,low,high,,ISIC_0011933.JPG,,ISIC_6718969.JPG,24,true,lh,keypress(e),0,false,354520.10000002384,354519.8000000119,353029.627,353271,353046.454,354282.049,1,40,34,
sequence,flow.Sequence,6_33,2023-11-15T20:44:35.900Z,,,,,,,,,,1473.346000011894,completion,,,,,,,low,high,,,,,,true,,,,false,354520.7000000179,354519.8000000119,353029.627,353271,353046.454,354282.049,1,40,,
trial,html.Screen,6_34_0,2023-11-15T20:44:37.004Z,,,,1,-1.1063796153389187,-0.8605921333200546,,true,hh,1341.8510000059614,response,0.9478344010828824,0.9999999999999998,-0.9999999999999998,1.1218541416084558,0.9999999999999998,-0.9999999999999998,high,high,,ISIC_0064071.JPG,,ISIC_8252406.JPG,154,true,hh,keypress(i),0,false,355624.10000002384,355623.90000000596,354265.497,354520.90000000596,354282.049,355401.453,1,40,35,
sequence,flow.Sequence,6_34,2023-11-15T20:44:37.004Z,,,,,,,,,,1341.8510000059614,completion,,,,,,,high,high,,,,,,true,,,,false,355624.60000002384,355623.90000000596,354265.497,354520.90000000596,354282.049,355401.453,1,40,,
trial,html.Screen,6_35_0,2023-11-15T20:44:38.179Z,,,,1,1.0244185150873102,0.896678664083835,,true,ll,1397.8470000119414,response,-0.8140661970625187,0.9999999999999998,-0.9999999999999998,-0.9400174940212648,0.9999999999999998,-0.9999999999999998,low,low,,ISIC_1530981.JPG,,ISIC_0000957.JPG,111,true,ll,keypress(f),0,false,356799.60000002384,356799.3000000119,355367.596,355624.8000000119,355401.453,356569.917,1,40,36,
sequence,flow.Sequence,6_35,2023-11-15T20:44:38.180Z,,,,,,,,,,1397.8470000119414,completion,,,,,,,low,low,,,,,,true,,,,false,356800,356799.3000000119,355367.596,355624.8000000119,355401.453,356569.917,1,40,,
trial,html.Screen,6_36_0,2023-11-15T20:44:39.332Z,,,,1,-1.0143509683988825,1.0281980567462463,,true,hl,1381.683000023826,response,0.9225524349657857,0.9999999999999998,-0.9999999999999998,-0.929746784178986,0.9999999999999998,-0.9999999999999998,high,low,,ISIC_0062031.JPG,,ISIC_0011077.JPG,24,true,hl,keypress(j),0,false,357952,357951.60000002384,356553.119,356800.3000000119,356569.917,357722.183,1,40,37,
sequence,flow.Sequence,6_36,2023-11-15T20:44:39.332Z,,,,,,,,,,1381.683000023826,completion,,,,,,,high,low,,,,,,true,,,,false,357952.5,357951.60000002384,356553.119,356800.2000000179,356569.917,357722.183,1,40,,
trial,html.Screen,6_37_0,2023-11-15T20:44:40.556Z,,,,1,-0.9991910338212396,-1.0085499824556403,,true,hh,1453.2170000059414,response,0.8847502213514871,0.9999999999999998,-0.9999999999999998,0.9725947392713435,0.9999999999999998,-0.9999999999999998,high,high,,ISIC_7795549.JPG,,ISIC_0073044.JPG,154,true,hh,keypress(i),0,false,359175.8000000119,359175.40000000596,357705.569,357952.7000000179,357722.183,358941.127,1,40,38,
sequence,flow.Sequence,6_37,2023-11-15T20:44:40.556Z,,,,,,,,,,1453.2170000059414,completion,,,,,,,high,high,,,,,,true,,,,false,359176.3000000119,359175.40000000596,357705.569,357952.60000002384,357722.183,358941.127,1,40,,
trial,html.Screen,6_38_0,2023-11-15T20:44:42.140Z,,,,1,0.8561946552009824,-0.9282171889213044,,true,lh,1818.5730000179028,response,-1.1890109863264902,0.9999999999999998,-0.9999999999999998,0.8867825318561365,0.9999999999999998,-0.9999999999999998,low,high,,ISIC_3065032.JPG,,ISIC_0072576.JPG,24,true,lh,keypress(e),0,false,360760,360759.7000000179,358924.526,359176.60000002384,358941.127,360527.538,1,40,39,
sequence,flow.Sequence,6_38,2023-11-15T20:44:42.140Z,,,,,,,,,,1818.5730000179028,completion,,,,,,,low,high,,,,,,true,,,,false,360760.5,360759.7000000179,358924.526,359176.5,358941.127,360527.538,1,40,,
trial,html.Screen,6_39_0,2023-11-15T20:44:48.043Z,,,,1,-0.9039158082670506,1.0517562064343149,,true,hl,6135.162000017881,response,0.8688859182707874,0.9999999999999998,-0.9999999999999998,-0.9566733172438716,0.9999999999999998,-0.9999999999999998,high,low,,ISIC_0015411.JPG,,ISIC_0640770.JPG,24,true,hl,keypress(j),0,false,366662.8000000119,366662.7000000179,360511.046,360760.7000000179,360527.538,366422.334,1,40,40,
sequence,flow.Sequence,6_39,2023-11-15T20:44:48.043Z,,,,,,,,,,6135.162000017881,completion,,,,,,,high,low,,,,,,true,,,,false,366662.90000000596,366662.7000000179,360511.046,360760.60000002384,360527.538,366422.334,1,40,,
practice_loop,flow.Loop,6,2023-11-15T20:44:48.043Z,,,,,,,,,,211601.77400001787,completion,,,,,,,,,,,,,,true,,,,false,366663,366662.7000000179,155044.408,155301.70000001788,155060.926,366422.334,1,40,,
stair_instructions,html.Screen,7,2023-11-15T20:44:51.690Z,,,,,,,,,,3887.566000005987,response,,,,,,,,,,,,,,,continue,click button,,,370310.40000000596,370309.90000000596,366405.703,366663,366422.334,370096.388,,,,
trial,html.Screen,8_0_0,2023-11-15T20:45:02.479Z,,,,2,0.0057914759495055,-0.018500200317654,,,,10770.79700000002,timeout,0.8588347582642082,0.9999999999999998,-0.9999999999999998,-0.8899503828496784,0.9999999999999998,-0.9999999999999998,high,low,,ISIC_0058723.JPG,,ISIC_0174983.JPG,24,false,,,0,true,381098.90000000596,381098.5,370079.659,370310.5,370096.388,380867.185,1,40,1,
sequence,flow.Sequence,8_0,2023-11-15T20:45:02.479Z,,,,,,,,,,11002.112000000023,completion,,,,,,,high,low,,,,,,false,,,,true,381099.40000000596,381098.5,370079.659,370310.5,370096.388,380867.185,1,40,,
trial,html.Screen,8_1_0,2023-11-15T20:45:03.548Z,,,,2,-0.0086413421586899,-0.0360184993500958,,false,hh,1300.9150000238442,response,0.9019902492274832,0.9999999999999998,-0.9999999999999998,1.1873288031905294,0.9999999999999998,-0.9999999999999998,high,high,,ISIC_0010767.JPG,,ISIC_0070992.JPG,154,false,ll,keypress(f),0,true,382168.5,382168.10000002384,380850.664,381099.7000000179,380867.185,381952.576,1,40,2,
sequence,flow.Sequence,8_1,2023-11-15T20:45:03.549Z,,,,,,,,,,1300.9150000238442,completion,,,,,,,high,high,,,,,,false,,,,true,382169,382168.10000002384,380850.664,381099.60000002384,380867.185,381952.576,1,40,,
trial,html.Screen,8_2_0,2023-11-15T20:45:07.204Z,,,,2,0.040352316356354,0.0039626669358928,,false,lh,3871.3240000059595,response,-0.8150886811691144,1.0499999999999998,-0.9999999999999998,0.862416038462147,1.0499999999999998,-0.9999999999999998,low,high,,ISIC_3018550.JPG,,ISIC_0058079.JPG,21,false,hh,keypress(i),0,true,385824.2000000179,385823.90000000596,381935.986,382169.2000000179,381952.576,385592.987,1,40,3,
sequence,flow.Sequence,8_2,2023-11-15T20:45:07.204Z,,,,,,,,,,3871.3240000059595,completion,,,,,,,low,high,,,,,,false,,,,true,385824.7000000179,385823.90000000596,381935.986,382169.10000002384,381952.576,385592.987,1,40,,
trial,html.Screen,8_3_0,2023-11-15T20:45:12.298Z,,,,2,-0.0372699196710335,0.0646614895271859,,false,hl,5325.512999999977,response,1.0822170028935367,1.0499999999999998,-1.0499999999999998,-1.1654796154432183,1.0499999999999998,-0.9999999999999998,high,low,,ISIC_1175170.JPG,,ISIC_7288818.JPG,22,false,ll,keypress(f),0,true,390918.7000000179,390918.5,385576.512,385824.90000000596,385592.987,390686.417,1,40,4,
sequence,flow.Sequence,8_3,2023-11-15T20:45:12.299Z,,,,,,,,,,5325.512999999977,completion,,,,,,,high,low,,,,,,false,,,,true,390918.8000000119,390918.5,385576.512,385824.90000000596,385592.987,390686.417,1,40,,
trial,html.Screen,8_4_0,2023-11-15T20:45:17.004Z,,,,2,-0.0029978997915594,0.0736178673732526,,false,hh,4937.683000023826,response,0.9523083243343244,1.0999999999999999,-1.0499999999999998,1.2310746473558634,1.0499999999999998,-0.9999999999999998,high,high,,ISIC_9745038.JPG,,ISIC_0060773.JPG,122,false,hl,keypress(j),0,true,395624.40000000596,395624.10000002384,390669.792,390918.90000000596,390686.417,395395.604,1,40,5,
sequence,flow.Sequence,8_4,2023-11-15T20:45:17.005Z,,,,,,,,,,4937.683000023826,completion,,,,,,,high,high,,,,,,false,,,,true,395624.90000000596,395624.10000002384,390669.792,390918.90000000596,390686.417,395395.604,1,40,,
trial,html.Screen,8_5_0,2023-11-15T20:45:22.868Z,,,,2,0.0560021488981517,-0.0058131881595011,,false,lh,6092.196000011929,response,-0.8070820195894357,1.0499999999999998,-0.9999999999999998,0.8958120092147633,1.0499999999999998,-0.9499999999999997,low,high,,ISIC_0000077.JPG,,ISIC_0060585.JPG,21,false,hh,keypress(i),0,true,401488.10000002384,401487.8000000119,395378.901,395625.2000000179,395395.604,401256.86,1,40,6,
sequence,flow.Sequence,8_5,2023-11-15T20:45:22.868Z,,,,,,,,,,6092.196000011929,completion,,,,,,,low,high,,,,,,false,,,,true,401488.60000002384,401487.8000000119,395378.901,395625.10000002384,395395.604,401256.86,1,40,,
trial,html.Screen,8_6_0,2023-11-15T20:45:30.484Z,,,,2,0.0523524458062335,-0.0048771624512062,,false,hl,7846.940000011935,response,1.1592423187534993,1.0499999999999998,-1.0499999999999998,-1.067128884093211,1.0499999999999998,-0.9499999999999997,high,low,,ISIC_0010379.JPG,,ISIC_6854940.JPG,24,false,lh,keypress(e),0,true,409104,409103.8000000119,401240.294,401488.8000000119,401256.86,408871.632,1,40,7,
sequence,flow.Sequence,8_6,2023-11-15T20:45:30.484Z,,,,,,,,,,7846.940000011935,completion,,,,,,,high,low,,,,,,false,,,,true,409104.40000000596,409103.8000000119,401240.294,401488.8000000119,401256.86,408871.632,1,40,,
trial,html.Screen,8_7_0,2023-11-15T20:45:34.420Z,,,,2,0.0702697127166421,0.0314752704888287,,false,ll,4168.268000005977,response,-1.1569583426015195,1.0999999999999999,-1.0499999999999998,-1.02258614327008,1.0499999999999998,-0.9999999999999998,low,low,,ISIC_0033881.JPG,,ISIC_5705973.JPG,96,false,lh,keypress(e),0,true,413040.3000000119,413039.90000000596,408855.061,409104.5,408871.632,412812.823,1,40,8,
sequence,flow.Sequence,8_7,2023-11-15T20:45:34.421Z,,,,,,,,,,4168.268000005977,completion,,,,,,,low,low,,,,,,false,,,,true,413040.7000000179,413039.90000000596,408855.061,409104.5,408871.632,412812.823,1,40,,
trial,html.Screen,8_8_0,2023-11-15T20:45:43.404Z,,,,2,-0.0365981355399771,-0.0162670920008846,,false,ll,9211.177000000025,response,-1.0885984639975343,1.0999999999999999,-1.0499999999999998,-1.2042618719491294,1.0499999999999998,-1.0499999999999998,low,low,,ISIC_0982855.JPG,,ISIC_0012740.JPG,86,false,hh,keypress(i),0,true,422024.3000000119,422024,412796.136,413041,412812.823,421796.983,1,40,9,
sequence,flow.Sequence,8_8,2023-11-15T20:45:43.405Z,,,,,,,,,,9211.177000000025,completion,,,,,,,low,low,,,,,,false,,,,true,422024.8000000119,422024,412796.136,413040.90000000596,412812.823,421796.983,1,40,,
trial,html.Screen,8_9_0,2023-11-15T20:45:52.420Z,,,,2,0.021811393859175,-0.0534678805668419,,false,ll,9242.817000011913,response,-1.1802887330422154,1.0999999999999999,-1.0999999999999999,-1.0224375154810723,1.0499999999999998,-1.0999999999999999,low,low,,ISIC_0058054.JPG,,ISIC_9225640.JPG,75,false,hl,keypress(j),0,true,431040.10000002384,431039.8000000119,421780.229,422025.10000002384,421796.983,430814.518,1,40,10,
sequence,flow.Sequence,8_9,2023-11-15T20:45:52.421Z,,,,,,,,,,9242.817000011913,completion,,,,,,,low,low,,,,,,false,,,,true,431040.60000002384,431039.8000000119,421780.229,422025,421796.983,430814.518,1,40,,
trial,html.Screen,8_10_0,2023-11-15T20:45:58.716Z,,,,2,-0.0245246789155119,0.0615355901813596,,false,hl,6521.6820000179,response,0.9448560599810628,1.0499999999999998,-1.0999999999999999,-0.9099421612683488,0.9999999999999998,-1.0499999999999998,high,low,,ISIC_0034144.JPG,,ISIC_9684318.JPG,21,false,ll,keypress(f),0,true,437336.5,437336.2000000179,430797.799,431040.8000000119,430814.518,437109.975,1,40,11,
sequence,flow.Sequence,8_10,2023-11-15T20:45:58.717Z,,,,,,,,,,6521.6820000179,completion,,,,,,,high,low,,,,,,false,,,,true,437337,437336.2000000179,430797.799,431040.7000000179,430814.518,437109.975,1,40,,
trial,html.Screen,8_11_0,2023-11-15T20:46:03.964Z,,,,2,-0.0744767864787991,0.0482768027208112,,true,hh,5474.025000000023,response,1.188743606919222,1.0999999999999999,-1.0999999999999999,0.9421419207281913,0.9999999999999998,-0.9161898383747105,high,high,,ISIC_0011482.JPG,,ISIC_0060481.JPG,132,false,hh,keypress(i),0,true,442584.3000000119,442584,437093.335,437337.2000000179,437109.975,442353.505,1,40,12,
sequence,flow.Sequence,8_11,2023-11-15T20:46:03.965Z,,,,,,,,,,5474.025000000023,completion,,,,,,,high,high,,,,,,false,,,,true,442584.90000000596,442584,437093.335,437337.2000000179,437109.975,442353.505,1,40,,
trial,html.Screen,8_12_0,2023-11-15T20:46:08.524Z,,,,2,-0.0367218428225813,0.0026956749740767,,true,hl,4790.295000011916,response,0.9046170303418553,1.0999999999999999,-1.0999999999999999,-1.0063426986460375,1.0154427638237067,-0.9161898383747105,high,low,,ISIC_7212271.JPG,,ISIC_0055759.JPG,23,false,hl,keypress(j),0,true,447144.2000000179,447143.8000000119,442336.704,442585.10000002384,442353.505,446912.423,1,40,13,
sequence,flow.Sequence,8_12,2023-11-15T20:46:08.525Z,,,,,,,,,,4790.295000011916,completion,,,,,,,high,low,,,,,,false,,,,true,447144.60000002384,447143.8000000119,442336.704,442585,442353.505,446912.423,1,40,,
trial,html.Screen,8_13_0,2023-11-15T20:46:12.476Z,,,,2,-0.0127364719403411,-0.0549103570808099,,true,hl,4183.677000023832,response,0.9046170303418553,1.0499999999999998,-1.0999999999999999,-1.0063426986460375,1.0154427638237067,-0.9161898383747105,high,low,,ISIC_0054705.JPG,,ISIC_0055759.JPG,27,false,hl,keypress(j),0,true,451096.3000000119,451096.10000002384,446895.801,447144.8000000119,446912.423,450870.298,1,40,14,
sequence,flow.Sequence,8_13,2023-11-15T20:46:12.477Z,,,,,,,,,,4183.677000023832,completion,,,,,,,high,low,,,,,,false,,,,true,451096.90000000596,451096.10000002384,446895.801,447144.8000000119,446912.423,450870.298,1,40,,
trial,html.Screen,8_14_0,2023-11-15T20:46:16.116Z,,,,2,-0.0386453938786174,-0.0465908665241285,,true,hh,3865.70199999999,response,1.033120591224746,1.0499999999999998,-1.0999999999999999,0.9169816067930722,1.0154427638237067,-0.8661898383747104,high,high,,ISIC_1698119.JPG,,ISIC_0033027.JPG,143,false,hh,keypress(i),0,true,454736.3000000119,454736,450853.349,451097.10000002384,450870.298,454510.717,1,40,15,
sequence,flow.Sequence,8_14,2023-11-15T20:46:16.117Z,,,,,,,,,,3865.70199999999,completion,,,,,,,high,high,,,,,,false,,,,true,454736.90000000596,454736,450853.349,451097.10000002384,450870.298,454510.717,1,40,,
trial,html.Screen,8_15_0,2023-11-15T20:46:21.108Z,,,,2,0.0402606077562393,-0.0233871780024155,,true,hl,5217.183000005956,response,0.7651385778471405,0.9250510990089091,-1.0999999999999999,-0.7399318914516048,1.0154427638237067,-0.8661898383747104,high,low,,ISIC_0024401.JPG,,ISIC_1495793.JPG,47,false,hl,keypress(j),0,true,459728.3000000119,459727.90000000596,454493.961,454737.10000002384,454510.717,459503.769,1,40,16,
sequence,flow.Sequence,8_15,2023-11-15T20:46:21.109Z,,,,,,,,,,5217.183000005956,completion,,,,,,,high,low,,,,,,false,,,,true,459728.7000000179,459727.90000000596,454493.961,454737,454510.717,459503.769,1,40,,
trial,html.Screen,8_16_0,2023-11-15T20:46:25.540Z,,,,2,-0.0514357258480358,-0.006520984995476,,true,lh,4656.331000023871,response,-1.2018448523268856,0.8750510990089091,-1.0499999999999998,0.8157731190790072,0.9654427638237066,-0.8161898383747104,low,high,,ISIC_0031386.JPG,,ISIC_7662993.JPG,21,false,lh,keypress(e),0,true,464160.40000000596,464160.10000002384,459486.979,459729,459503.769,463928.801,1,40,17,
sequence,flow.Sequence,8_16,2023-11-15T20:46:25.541Z,,,,,,,,,,4656.331000023871,completion,,,,,,,low,high,,,,,,false,,,,true,464160.90000000596,464160.10000002384,459486.979,459729,459503.769,463928.801,1,40,,
trial,html.Screen,8_17_0,2023-11-15T20:46:33.196Z,,,,2,0.0480684603309257,-0.0620119776873313,,false,hl,7887.099000005983,response,0.8623414234919863,0.8750510990089091,-1.0499999999999998,-0.6885252343895165,0.9154427638237066,-0.8161898383747104,high,low,,ISIC_0645834.JPG,,ISIC_2727016.JPG,71,false,ll,keypress(f),0,true,471816.3000000119,471815.90000000596,463912.096,464161.2000000179,463928.801,471577.119,1,40,18,
sequence,flow.Sequence,8_17,2023-11-15T20:46:33.197Z,,,,,,,,,,7887.099000005983,completion,,,,,,,high,low,,,,,,false,,,,true,471816.8000000119,471815.90000000596,463912.096,464161.2000000179,463928.801,471577.119,1,40,,
trial,html.Screen,8_18_0,2023-11-15T20:46:38.219Z,,,,2,-0.0245246789155119,0.0615355901813596,,false,lh,5261.481000023836,response,-1.1172883106398417,0.9250510990089091,-1.0499999999999998,0.7336493335132354,0.9154427638237066,-0.895185043358201,low,high,,ISIC_0034144.JPG,,ISIC_7415335.JPG,26,false,hl,keypress(j),0,true,476838.60000002384,476838.60000002384,471560.25,471817.10000002384,471577.119,476603.516,1,40,19,
sequence,flow.Sequence,8_18,2023-11-15T20:46:38.219Z,,,,,,,,,,5261.481000023836,completion,,,,,,,low,high,,,,,,false,,,,true,476838.8000000119,476838.60000002384,471560.25,471816.90000000596,471577.119,476603.516,1,40,,
trial,html.Screen,8_19_0,2023-11-15T20:46:42.859Z,,,,2,0.012810673904807,-0.00400964452501,,true,ll,4874.784000011918,response,-1.0433307945145347,0.9250510990089091,-1.0999999999999999,-0.8328447549795016,0.9654427638237066,-0.895185043358201,low,low,,ISIC_0064656.JPG,,ISIC_9104843.JPG,112,false,ll,keypress(f),0,true,481478.5,481478.3000000119,476587.022,476838.8000000119,476603.516,481245.832,1,40,20,
sequence,flow.Sequence,8_19,2023-11-15T20:46:42.859Z,,,,,,,,,,4874.784000011918,completion,,,,,,,low,low,,,,,,false,,,,true,481478.60000002384,481478.3000000119,476587.022,476838.8000000119,476603.516,481245.832,1,40,,
trial,html.Screen,8_20_0,2023-11-15T20:46:46.059Z,,,,2,0.012020985739544,-0.0126097407389903,,false,ll,3433.0680000059656,response,-1.2024083555600384,0.9250510990089091,-1.0999999999999999,-0.8142209573918602,0.9654427638237066,-0.895185043358201,low,low,,ISIC_0069379.JPG,,ISIC_3566243.JPG,112,false,lh,keypress(e),0,true,484679.10000002384,484678.90000000596,481229.359,481478.60000002384,481245.832,484452.36,1,40,21,
sequence,flow.Sequence,8_20,2023-11-15T20:46:46.059Z,,,,,,,,,,3433.0680000059656,completion,,,,,,,low,low,,,,,,false,,,,true,484679.3000000119,484678.90000000596,481229.359,481478.60000002384,481245.832,484452.36,1,40,,
trial,html.Screen,8_21_0,2023-11-15T20:46:49.524Z,,,,2,-0.0029978997915594,0.0736178673732526,,true,ll,3691.640000000014,response,-0.821105447134431,0.9250510990089091,-0.96762655526977,-0.7455386622899539,0.9654427638237066,-0.9451850433582011,low,low,,ISIC_9745038.JPG,,ISIC_9978107.JPG,136,false,ll,keypress(f),0,true,488144.3000000119,488144,484435.594,484679.40000000596,484452.36,487908.88,1,40,22,
sequence,flow.Sequence,8_21,2023-11-15T20:46:49.525Z,,,,,,,,,,3691.640000000014,completion,,,,,,,low,low,,,,,,false,,,,true,488144.8000000119,488144,484435.594,484679.40000000596,484452.36,487908.88,1,40,,
trial,html.Screen,8_22_0,2023-11-15T20:46:53.077Z,,,,2,-0.0386453938786174,-0.0465908665241285,,true,ll,3787.3200000178767,response,-0.9462198986993904,0.9250510990089091,-0.96762655526977,-1.067111862128132,0.9654427638237066,-0.9451850433582011,low,low,,ISIC_1698119.JPG,,ISIC_3564461.JPG,136,false,ll,keypress(f),0,true,491696.40000000596,491696.2000000179,487892.331,488145.10000002384,487908.88,491465.825,1,40,23,
sequence,flow.Sequence,8_22,2023-11-15T20:46:53.077Z,,,,,,,,,,3787.3200000178767,completion,,,,,,,low,low,,,,,,false,,,,true,491697,491696.2000000179,487892.331,488145,487908.88,491465.825,1,40,,
trial,html.Screen,8_23_0,2023-11-15T20:46:57.900Z,,,,2,0.0377791839943904,-0.0227626648172468,,true,hh,5053.87500001787,response,0.7463930356053693,0.9250510990089091,-0.8563252622090429,0.9897762612081872,0.9654427638237066,-0.8563252622090429,high,high,,ISIC_7167479.JPG,,ISIC_0062048.JPG,175,false,hh,keypress(i),0,true,496520.10000002384,496519.7000000179,491449.039,491697.2000000179,491465.825,496291.929,1,40,24,
sequence,flow.Sequence,8_23,2023-11-15T20:46:57.901Z,,,,,,,,,,5053.87500001787,completion,,,,,,,high,high,,,,,,false,,,,true,496520.5,496519.7000000179,491449.039,491697.2000000179,491465.825,496291.929,1,40,,
trial,html.Screen,8_24_0,2023-11-15T20:47:01.245Z,,,,2,-0.0367218428225813,0.0026956749740767,,true,ll,3572.0709999999963,response,-0.7982951875745229,0.9250510990089091,-0.8563252622090429,-0.8048041299922801,0.9654427638237066,-0.8563252622090429,low,low,,ISIC_7212271.JPG,,ISIC_9403390.JPG,191,false,ll,keypress(f),0,true,499864.40000000596,499864,496275.264,496520.8000000119,496291.929,499631.652,1,40,25,
sequence,flow.Sequence,8_24,2023-11-15T20:47:01.245Z,,,,,,,,,,3572.0709999999963,completion,,,,,,,low,low,,,,,,false,,,,true,499864.8000000119,499864,496275.264,496520.8000000119,496291.929,499631.652,1,40,,
trial,html.Screen,8_25_0,2023-11-15T20:47:07.212Z,,,,2,-0.0488365673064833,0.0229344142397166,,true,lh,6200.347999999998,response,-0.8591294258188253,0.9250510990089091,-0.8563252622090429,0.870797302150167,0.9654427638237066,-0.8563252622090429,low,high,,ISIC_0056915.JPG,,ISIC_0055841.JPG,40,false,lh,keypress(e),0,true,505832.3000000119,505832,499615.148,499865.10000002384,499631.652,505593.319,1,40,26,
sequence,flow.Sequence,8_25,2023-11-15T20:47:07.213Z,,,,,,,,,,6200.347999999998,completion,,,,,,,low,high,,,,,,false,,,,true,505832.8000000119,505832,499615.148,499865.10000002384,499631.652,505593.319,1,40,,
trial,html.Screen,8_26_0,2023-11-15T20:47:13.507Z,,,,2,-0.0365981355399771,-0.0162670920008846,,false,lh,6532.981000011903,response,-0.7162702710401833,0.9250510990089091,-0.8063252622090429,0.7188878004305155,0.9154427638237066,-0.8563252622090429,low,high,,ISIC_0982855.JPG,,ISIC_0057371.JPG,50,false,hh,keypress(i),0,true,512126.40000000596,512126.3000000119,505576.496,505833,505593.319,511888.823,1,40,27,
sequence,flow.Sequence,8_26,2023-11-15T20:47:13.507Z,,,,,,,,,,6532.981000011903,completion,,,,,,,low,high,,,,,,false,,,,true,512126.5,512126.3000000119,505576.496,505833,505593.319,511888.823,1,40,,
trial,html.Screen,8_27_0,2023-11-15T20:47:19.068Z,,,,2,0.012020985739544,-0.0126097407389903,,true,lh,5798.8770000179065,response,-0.7162702710401833,0.9250510990089091,-0.8563252622090429,0.7188878004305155,0.9154427638237066,-0.8563252622090429,low,high,,ISIC_0069379.JPG,,ISIC_0057371.JPG,44,false,lh,keypress(e),0,true,517688.10000002384,517687.7000000179,511872.275,512126.5,511888.823,517449.655,1,40,28,
sequence,flow.Sequence,8_27,2023-11-15T20:47:19.069Z,,,,,,,,,,5798.8770000179065,completion,,,,,,,low,high,,,,,,false,,,,true,517688.60000002384,517687.7000000179,511872.275,512126.5,511888.823,517449.655,1,40,,
trial,html.Screen,8_28_0,2023-11-15T20:47:29.826Z,,,,2,0.0668201703083464,-0.0222223530621927,,,,10771.091000000015,timeout,0.7453405220939789,0.9250510990089091,-0.8563252622090429,-0.7512527274117761,0.8654427638237066,-0.8563252622090429,high,low,,ISIC_8321148.JPG,,ISIC_0032339.JPG,48,false,,,0,true,528446,528445.6000000238,517433.069,517688.8000000119,517449.655,528220.746,1,40,29,
sequence,flow.Sequence,8_28,2023-11-15T20:47:29.827Z,,,,,,,,,,10995.945000023814,completion,,,,,,,high,low,,,,,,false,,,,true,528446.5,528445.6000000238,517433.069,517688.8000000119,517449.655,528220.746,1,40,,
trial,html.Screen,8_29_0,2023-11-15T20:47:37.524Z,,,,2,0.0203374006918297,-0.0594475300019112,,false,hh,7923.054000011878,response,0.931671223575063,0.9250510990089091,-0.8563252622090429,0.8221112671269014,0.8654427638237066,-0.8563252622090429,high,high,,ISIC_0028579.JPG,,ISIC_0000526.JPG,190,false,ll,keypress(f),0,true,536144.1000000238,536143.8000000119,528204.107,528446.7000000179,528220.746,535919.21,1,40,30,
sequence,flow.Sequence,8_29,2023-11-15T20:47:37.525Z,,,,,,,,,,7923.054000011878,completion,,,,,,,high,high,,,,,,false,,,,true,536144.6000000238,536143.8000000119,528204.107,528446.7000000179,528220.746,535919.21,1,40,,
trial,html.Screen,8_30_0,2023-11-15T20:47:45.659Z,,,,2,0.0480684603309257,-0.0620119776873313,,true,lh,8359.190000005998,response,-0.6666088363970417,0.9750510990089092,-0.8563252622090429,0.8570193019308756,0.9154427638237066,-0.8563252622090429,low,high,,ISIC_0645834.JPG,,ISIC_1306790.JPG,44,false,lh,keypress(e),0,true,544278.5,544278.400000006,535902.434,536144.900000006,535919.21,544051.472,1,40,31,
sequence,flow.Sequence,8_30,2023-11-15T20:47:45.659Z,,,,,,,,,,8359.190000005998,completion,,,,,,,low,high,,,,,,false,,,,true,544278.5,544278.400000006,535902.434,536144.8000000119,535919.21,544051.472,1,40,,
trial,html.Screen,8_31_0,2023-11-15T20:47:52.533Z,,,,2,-0.0199897690678184,-0.0312486875504497,,false,hl,7100.42800000601,response,0.9566823908868002,0.9750510990089092,-0.8063252622090429,-0.9602125665128364,0.9154427638237066,-0.8563252622090429,high,low,,ISIC_5482426.JPG,,ISIC_0056784.JPG,42,false,ll,keypress(f),0,true,551152.2000000179,551151.900000006,544034.869,544278.6000000238,544051.472,550914.796,1,40,32,
sequence,flow.Sequence,8_31,2023-11-15T20:47:52.533Z,,,,,,,,,,7100.42800000601,completion,,,,,,,high,low,,,,,,false,,,,true,551152.7000000179,551151.900000006,544034.869,544278.6000000238,544051.472,550914.796,1,40,,
trial,html.Screen,8_32_0,2023-11-15T20:47:58.165Z,,,,2,0.0060934073440827,0.0279108145883031,,true,ll,5869.404000017908,response,-0.8759869926282307,1.0250510990089092,-0.8063252622090429,-0.7908865577363863,0.9154427638237066,-0.8063252622090429,low,low,,ISIC_0032604.JPG,,ISIC_3912838.JPG,240,false,ll,keypress(f),0,true,556784.5,556784.2000000179,550898.135,551153,550914.796,556559.385,1,40,33,
sequence,flow.Sequence,8_32,2023-11-15T20:47:58.165Z,,,,,,,,,,5869.404000017908,completion,,,,,,,low,low,,,,,,false,,,,true,556785,556784.2000000179,550898.135,551152.900000006,550914.796,556559.385,1,40,,
trial,html.Screen,8_33_0,2023-11-15T20:48:03.219Z,,,,2,-0.0127364719403411,-0.0549103570808099,,true,hh,5279.015000005951,response,0.9106525024234248,1.0250510990089092,-0.8063252622090429,1.0361692964751965,0.9154427638237066,-0.8063252622090429,high,high,,ISIC_0054705.JPG,,ISIC_0058676.JPG,153,false,hh,keypress(i),0,true,561838.400000006,561838.400000006,556542.603,556785.3000000119,556559.385,561602.283,1,40,34,
sequence,flow.Sequence,8_33,2023-11-15T20:48:03.219Z,,,,,,,,,,5279.015000005951,completion,,,,,,,high,high,,,,,,false,,,,true,561838.6000000238,561838.400000006,556542.603,556785.2000000179,556559.385,561602.283,1,40,,
trial,html.Screen,8_34_0,2023-11-15T20:48:07.757Z,,,,2,0.0395849059583371,-0.049996355475379,,true,hh,4773.716999999946,response,0.999840720741648,1.0250510990089092,-0.8063252622090429,0.9031251164933652,0.9234108994493107,-0.8063252622090429,high,high,,ISIC_4042619.JPG,,ISIC_0058768.JPG,154,false,hh,keypress(i),0,true,566376.400000006,566376,561585.695,561838.6000000238,561602.283,566144.425,1,40,35,
sequence,flow.Sequence,8_34,2023-11-15T20:48:07.757Z,,,,,,,,,,4773.716999999946,completion,,,,,,,high,high,,,,,,false,,,,true,566376.900000006,566376,561585.695,561838.6000000238,561602.283,566144.425,1,40,,
trial,html.Screen,8_35_0,2023-11-15T20:48:13.741Z,,,,2,0.0629926578251803,-0.0626296407938785,,false,ll,6215.775000017835,response,-0.7144372984429644,0.9014829186175066,-0.8063252622090429,-0.8849117541241537,0.9234108994493107,-0.8063252622090429,low,low,,ISIC_0027043.JPG,,ISIC_7935007.JPG,240,false,lh,keypress(e),0,true,572360.5,572360.2000000179,566127.963,566377.1000000238,566144.425,572122.838,1,40,36,
sequence,flow.Sequence,8_35,2023-11-15T20:48:13.741Z,,,,,,,,,,6215.775000017835,completion,,,,,,,low,low,,,,,,false,,,,true,572361,572360.2000000179,566127.963,566377.1000000238,566144.425,572122.838,1,40,,
trial,html.Screen,8_36_0,2023-11-15T20:48:18.437Z,,,,2,-0.0311884318403233,0.0697810882761999,,false,lh,4933.062000005972,response,-0.8479396253253069,0.9014829186175066,-0.7563252622090428,1.011054319516718,0.9234108994493107,-0.8563252622090429,low,high,,ISIC_4870676.JPG,,ISIC_0063521.JPG,64,false,hl,keypress(j),0,true,577056.2000000179,577055.900000006,572106.255,572361.3000000119,572122.838,576832.171,1,40,37,
sequence,flow.Sequence,8_36,2023-11-15T20:48:18.437Z,,,,,,,,,,4933.062000005972,completion,,,,,,,low,high,,,,,,false,,,,true,577056.7000000179,577055.900000006,572106.255,572361.2000000179,572122.838,576832.171,1,40,,
trial,html.Screen,8_37_0,2023-11-15T20:48:24.237Z,,,,2,-0.0086413421586899,-0.0360184993500958,,true,hh,6023.929000023869,response,1.0361281091871073,0.9014829186175066,-0.8063252622090429,0.8359897850958797,0.9734108994493107,-0.8563252622090429,high,high,,ISIC_0010767.JPG,,ISIC_0014392.JPG,180,false,hh,keypress(i),0,true,582856.400000006,582856.1000000238,576815.315,577057,576832.171,582626.598,1,40,38,
sequence,flow.Sequence,8_37,2023-11-15T20:48:24.237Z,,,,,,,,,,6023.929000023869,completion,,,,,,,high,high,,,,,,false,,,,true,582856.900000006,582856.1000000238,576815.315,577056.8000000119,576832.171,582626.598,1,40,,
trial,html.Screen,8_38_0,2023-11-15T20:48:28.053Z,,,,2,-0.0514357258480358,-0.006520984995476,,false,hh,4045.402000000002,response,0.8052466281778704,0.9014829186175066,-0.8063252622090429,0.8895194627589205,0.9734108994493107,-0.8563252622090429,high,high,,ISIC_0031386.JPG,,ISIC_0025814.JPG,180,false,hl,keypress(j),0,true,586672.3000000119,586672,582609.922,582857.2000000179,582626.598,586433.934,1,40,39,
sequence,flow.Sequence,8_38,2023-11-15T20:48:28.053Z,,,,,,,,,,4045.402000000002,completion,,,,,,,high,high,,,,,,false,,,,true,586672.7000000179,586672,582609.922,582857.1000000238,582626.598,586433.934,1,40,,
trial,html.Screen,8_39_0,2023-11-15T20:48:32.509Z,,,,2,-0.0646883165340005,-0.0250974824557198,,true,lh,4694.1660000238335,response,-0.8779374983479176,0.770618206636875,-0.8063252622090429,0.9745548032823428,1.0234108994493107,-0.8563252622090429,low,high,,ISIC_0069515.JPG,,ISIC_2991354.JPG,41,false,lh,keypress(e),0,true,591128.6000000238,591128.1000000238,586417.48,586673.1000000238,586433.934,590892.6,1,40,40,
sequence,flow.Sequence,8_39,2023-11-15T20:48:32.510Z,,,,,,,,,,4694.1660000238335,completion,,,,,,,low,high,,,,,,false,,,,true,591129.3000000119,591128.1000000238,586417.48,586672.900000006,586433.934,590892.6,1,40,,
stair_loop,flow.Loop,8,2023-11-15T20:48:32.510Z,,,,,,,,,,221031.71200002386,completion,,,,,,,,,,,,,,false,,,,true,591129.6000000238,591128.1000000238,370079.659,370310.5,370096.388,590892.6,1,40,,
exp_instructions,html.Screen,9,2023-11-15T20:48:34.356Z,,,,,,,,,,2082.200000011944,response,,,,,,,,,,,,,,,continue,keypress(Space),,,592975.6000000238,592974.8000000119,590876.083,591129.900000006,590892.6,592746.204,,,,
trial,html.Screen,10_0_0,2023-11-15T20:48:41.292Z,,,,1,-0.0127320821962457,0.0315308940184827,,false,hl,7164.996000017854,response,0.755448735026571,0.932615818312027,-0.8521391284046637,-0.6826298758999687,0.9378332045113877,-0.8571542293814168,high,low,,ISIC_8156101.JPG,9,ISIC_3026660.JPG,48,false,hh,keypress(i),0,false,599911.5,599911.2000000179,592729.716,592976,592746.204,599676.37,4,500,1,
break,html.Screen,10_0_1,2023-11-15T20:48:41.293Z,,,,,,,,,,NaN,,,,,,,,high,low,,,,,,false,,,,false,599912.6000000238,599912.2000000179,,599911.8000000119,,599676.37,4,500,,
break_continue,html.Screen,10_0_2,2023-11-15T20:48:41.294Z,,,,,,,,,,NaN,,,,,,,,high,low,,,,,,false,,,,false,599913.400000006,599913.1000000238,,599912.900000006,,599676.37,4,500,,
sequence,flow.Sequence,10_0,2023-11-15T20:48:41.294Z,,,,,,,,,,7166.896000023815,completion,,,,,,,high,low,,,,,,false,,,,false,599913.7000000179,599913.1000000238,592729.716,592976,592746.204,599676.37,4,500,,
trial,html.Screen,10_1_0,2023-11-15T20:48:46.981Z,,,,1,0.0420795830016583,-0.0226772711905177,,false,lh,5924.030000005965,response,-0.8152354890677903,0.932615818312027,-0.8521391284046637,1.10470584815077,0.9378332045113877,-0.8571542293814168,low,high,,ISIC_0638857.JPG,10,ISIC_0010283.JPG,39,false,hh,keypress(i),0,false,605600.8000000119,605600.400000006,599659.854,599913.900000006,599676.37,605370.801,4,500,2,
break,html.Screen,10_1_1,2023-11-15T20:48:46.982Z,,,,,,,,,,NaN,,,,,,,,low,high,,,,,,false,,,,false,605601.900000006,605601.6000000238,,605601.1000000238,,605370.801,4,500,,
break_continue,html.Screen,10_1_2,2023-11-15T20:48:46.983Z,,,,,,,,,,NaN,,,,,,,,low,high,,,,,,false,,,,false,605602.6000000238,605602.400000006,,605602.2000000179,,605370.801,4,500,,
sequence,flow.Sequence,10_1,2023-11-15T20:48:46.983Z,,,,,,,,,,5926.030000005965,completion,,,,,,,low,high,,,,,,false,,,,false,605602.900000006,605602.400000006,599659.854,599913.8000000119,599676.37,605370.801,4,500,,
trial,html.Screen,10_2_0,2023-11-15T20:48:51.299Z,,,,1,0.0060918352854008,-0.029032683404407,,true,hl,4547.699000000022,response,0.9225524349657857,0.932615818312027,-0.8521391284046637,-0.929746784178986,0.9378332045113877,-0.8571542293814168,high,low,,ISIC_8436194.JPG,9,ISIC_0011077.JPG,48,false,hl,keypress(j),0,false,609918.6000000238,609918.5,605354.246,605603.2000000179,605370.801,609679.168,4,500,3,
break,html.Screen,10_2_1,2023-11-15T20:48:51.300Z,,,,,,,,,,NaN,,,,,,,,high,low,,,,,,false,,,,false,609919,609918.900000006,,609918.7000000179,,609679.168,4,500,,
break_continue,html.Screen,10_2_2,2023-11-15T20:48:51.300Z,,,,,,,,,,NaN,,,,,,,,high,low,,,,,,false,,,,false,609919.1000000238,609919.1000000238,,609919,,609679.168,4,500,,
sequence,flow.Sequence,10_2,2023-11-15T20:48:51.300Z,,,,,,,,,,4548.299000023864,completion,,,,,,,high,low,,,,,,false,,,,false,609919.1000000238,609919.1000000238,605354.246,605603.1000000238,605370.801,609679.168,4,500,,
trial,html.Screen,10_3_0,2023-11-15T20:48:54.453Z,,,,1,-0.0474755744799381,-0.0692210794081785,,false,ll,3392.7320000060135,response,-0.8867858784567559,0.932615818312027,-0.8521391284046637,-0.8318206308101198,0.9378332045113877,-0.8571542293814168,low,low,,ISIC_8794567.JPG,9,ISIC_0032494.JPG,193,false,lh,keypress(e),0,false,613072.2000000179,613071.900000006,609662.752,609919.3000000119,609679.168,612835.325,4,500,4,
break,html.Screen,10_3_1,2023-11-15T20:48:54.454Z,,,,,,,,,,NaN,,,,,,,,low,low,,,,,,false,,,,false,613073.400000006,613073.1000000238,,613072.6000000238,,612835.325,4,500,,
break_continue,html.Screen,10_3_2,2023-11-15T20:48:54.455Z,,,,,,,,,,NaN,,,,,,,,low,low,,,,,,false,,,,false,613074.2000000179,613073.900000006,,613073.7000000179,,612835.325,4,500,,
sequence,flow.Sequence,10_3,2023-11-15T20:48:54.455Z,,,,,,,,,,3394.7320000060135,completion,,,,,,,low,low,,,,,,false,,,,false,613074.400000006,613073.900000006,609662.752,609919.2000000179,609679.168,612835.325,4,500,,
trial,html.Screen,10_4_0,2023-11-15T20:48:56.901Z,,,,1,0.0060918352854008,-0.029032683404407,,true,lh,2684.4750000119675,response,-0.7133243033950115,0.932615818312027,-0.8521391284046637,1.0307816252475666,0.9378332045113877,-0.8571542293814168,low,high,,ISIC_8436194.JPG,8,ISIC_1369273.JPG,39,false,lh,keypress(e),0,false,615520.1000000238,615519.8000000119,612818.839,613074.7000000179,612835.325,615290.171,4,500,5,
break,html.Screen,10_4_1,2023-11-15T20:48:56.902Z,,,,,,,,,,NaN,,,,,,,,low,high,,,,,,false,,,,false,615521.2000000179,615521,,615520.5,,615290.171,4,500,,
break_continue,html.Screen,10_4_2,2023-11-15T20:48:56.902Z,,,,,,,,,,NaN,,,,,,,,low,high,,,,,,false,,,,false,615521.900000006,615521.6000000238,,615521.3000000119,,615290.171,4,500,,
sequence,flow.Sequence,10_4,2023-11-15T20:48:56.903Z,,,,,,,,,,2686.2750000238884,completion,,,,,,,low,high,,,,,,false,,,,false,615522.1000000238,615521.6000000238,612818.839,613074.7000000179,612835.325,615290.171,4,500,,
trial,html.Screen,10_5_0,2023-11-15T20:49:02.397Z,,,,1,-0.0646883165340005,-0.0250974824557198,,true,hl,5726.2290000059875,response,0.9254369922344792,0.932615818312027,-0.8521391284046637,-0.7020073261471239,0.9378332045113877,-0.8571542293814168,high,low,,ISIC_0069515.JPG,9,ISIC_3236964.JPG,48,false,hl,keypress(j),0,false,621016.7000000179,621016.400000006,615273.642,615522.3000000119,615290.171,620784.191,4,500,6,
break,html.Screen,10_5_1,2023-11-15T20:49:02.398Z,,,,,,,,,,NaN,,,,,,,,high,low,,,,,,false,,,,false,621017.8000000119,621017.6000000238,,621017.1000000238,,620784.191,4,500,,
break_continue,html.Screen,10_5_2,2023-11-15T20:49:02.399Z,,,,,,,,,,NaN,,,,,,,,high,low,,,,,,false,,,,false,621018.6000000238,621018.3000000119,,621018.1000000238,,620784.191,4,500,,
sequence,flow.Sequence,10_5,2023-11-15T20:49:02.399Z,,,,,,,,,,5728.129000011948,completion,,,,,,,high,low,,,,,,false,,,,false,621018.900000006,621018.3000000119,615273.642,615522.2000000179,615290.171,620784.191,4,500,,
trial,html.Screen,10_6_0,2023-11-15T20:49:05.843Z,,,,1,-0.0199897690678184,-0.0312486875504497,,false,ll,3678.4090000238502,response,-0.7982951875745229,0.932615818312027,-0.8521391284046637,-0.8048041299922801,0.9378332045113877,-0.8571542293814168,low,low,,ISIC_5482426.JPG,9,ISIC_9403390.JPG,193,false,hl,keypress(j),0,false,624462.7000000179,624462.6000000238,620767.654,621019.2000000179,620784.191,624224.147,4,500,7,
break,html.Screen,10_6_1,2023-11-15T20:49:05.844Z,,,,,,,,,,NaN,,,,,,,,low,low,,,,,,false,,,,false,624463.1000000238,624463,,624462.900000006,,624224.147,4,500,,
break_continue,html.Screen,10_6_2,2023-11-15T20:49:05.844Z,,,,,,,,,,NaN,,,,,,,,low,low,,,,,,false,,,,false,624463.2000000179,624463.2000000179,,624463.2000000179,,624224.147,4,500,,
sequence,flow.Sequence,10_6,2023-11-15T20:49:05.844Z,,,,,,,,,,3679.00900001789,completion,,,,,,,low,low,,,,,,false,,,,false,624463.400000006,624463.2000000179,620767.654,621019.1000000238,620784.191,624224.147,4,500,,
trial,html.Screen,10_7_0,2023-11-15T20:49:08.836Z,,,,1,-0.010035581303589,0.0100711721396864,,false,hh,3230.9530000238447,response,1.0917349644156236,0.932615818312027,-0.8521391284046637,0.9202593988538142,0.9378332045113877,-0.8571542293814168,high,high,,ISIC_0030592.JPG,8,ISIC_0034059.JPG,172,false,hl,keypress(j),0,false,627455.2000000179,627455.1000000238,624207.44,624463.400000006,624224.147,627230.295,4,500,8,
break,html.Screen,10_7_1,2023-11-15T20:49:08.836Z,,,,,,,,,,NaN,,,,,,,,high,high,,,,,,false,,,,false,627455.7000000179,627455.6000000238,,627455.3000000119,,627230.295,4,500,,
break_continue,html.Screen,10_7_2,2023-11-15T20:49:08.837Z,,,,,,,,,,NaN,,,,,,,,high,high,,,,,,false,,,,false,627456,627455.900000006,,627455.7000000179,,627230.295,4,500,,
sequence,flow.Sequence,10_7,2023-11-15T20:49:08.837Z,,,,,,,,,,3231.7530000059633,completion,,,,,,,high,high,,,,,,false,,,,false,627456.1000000238,627455.900000006,624207.44,624463.400000006,624224.147,627230.295,4,500,,
trial,html.Screen,10_8_0,2023-11-15T20:49:14.885Z,,,,1,-0.0597592587797575,,,true,ll,6274.005000011879,response,-0.8841666581910854,0.932615818312027,-0.8521391284046637,-0.7191254322466846,0.9378332045113877,-0.8571542293814168,low,low,,ISIC_0071367.JPG,8,ISIC_0027646.JPG,193,false,ll,keypress(f),0,false,633504.7000000179,633504.3000000119,627213.431,627456.3000000119,627230.295,633275.117,4,500,9,
break,html.Screen,10_8_1,2023-11-15T20:49:14.886Z,,,,,,,,,,NaN,,,,,,,,low,low,,,,,,false,,,,false,633505.900000006,633505.6000000238,,633505.1000000238,,633275.117,4,500,,
break_continue,html.Screen,10_8_2,2023-11-15T20:49:14.887Z,,,,,,,,,,NaN,,,,,,,,low,low,,,,,,false,,,,false,633506.5,633506.400000006,,633506.1000000238,,633275.117,4,500,,
sequence,flow.Sequence,10_8,2023-11-15T20:49:14.887Z,,,,,,,,,,6276.105000005919,completion,,,,,,,low,low,,,,,,false,,,,false,633506.900000006,633506.400000006,627213.431,627456.3000000119,627230.295,633275.117,4,500,,
trial,html.Screen,10_9_0,2023-11-15T20:49:19.149Z,,,,1,-0.0367218428225813,0.0026956749740767,,false,hh,4492.883000000031,response,1.078286816527963,0.932615818312027,-0.8521391284046637,1.1255116193013075,0.9378332045113877,-0.8571542293814168,high,high,,ISIC_7212271.JPG,8,ISIC_0066213.JPG,172,false,lh,keypress(e),0,false,637768.3000000119,637768,633258.549,633507.2000000179,633275.117,637533.397,4,500,10,
break,html.Screen,10_9_1,2023-11-15T20:49:19.150Z,,,,,,,,,,NaN,,,,,,,,high,high,,,,,,false,,,,false,637769.400000006,637769.1000000238,,637768.6000000238,,637533.397,4,500,,
break_continue,html.Screen,10_9_2,2023-11-15T20:49:19.151Z,,,,,,,,,,NaN,,,,,,,,high,high,,,,,,false,,,,false,637770.1000000238,637769.900000006,,637769.6000000238,,637533.397,4,500,,
sequence,flow.Sequence,10_9,2023-11-15T20:49:19.151Z,,,,,,,,,,4494.783000005991,completion,,,,,,,high,high,,,,,,false,,,,false,637770.400000006,637769.900000006,633258.549,633507.1000000238,633275.117,637533.397,4,500,,
trial,html.Screen,10_10_0,2023-11-15T20:49:25.204Z,,,,1,-0.0597592587797575,,,false,hl,6289.903000011924,response,0.9235571765207048,0.932615818312027,-0.8521391284046637,-0.7832040253954599,0.9378332045113877,-0.8571542293814168,high,low,,ISIC_0071367.JPG,8,ISIC_8796632.JPG,48,false,ll,keypress(f),0,false,643823.400000006,643823.3000000119,637516.917,637770.7000000179,637533.397,643595.199,4,500,11,
break,html.Screen,10_10_1,2023-11-15T20:49:25.205Z,,,,,,,,,,NaN,,,,,,,,high,low,,,,,,false,,,,false,643824,643823.8000000119,,643823.6000000238,,643595.199,4,500,,
break_continue,html.Screen,10_10_2,2023-11-15T20:49:25.205Z,,,,,,,,,,NaN,,,,,,,,high,low,,,,,,false,,,,false,643824.3000000119,643824.1000000238,,643824.1000000238,,643595.199,4,500,,
sequence,flow.Sequence,10_10,2023-11-15T20:49:25.205Z,,,,,,,,,,6290.703000023845,completion,,,,,,,high,low,,,,,,false,,,,false,643824.400000006,643824.1000000238,637516.917,637770.5,637533.397,643595.199,4,500,,
trial,html.Screen,10_11_0,2023-11-15T20:49:29.269Z,,,,1,-0.0646883165340005,-0.0250974824557198,,false,ll,4292.501000017859,response,-0.8012073849444404,0.932615818312027,-0.8521391284046637,-0.7079823492956061,0.9378332045113877,-0.8571542293814168,low,low,,ISIC_0069515.JPG,9,ISIC_0030703.JPG,193,false,lh,keypress(e),0,false,647888,647887.7000000179,643578.591,643824.6000000238,643595.199,647653.151,4,500,12,
break,html.Screen,10_11_1,2023-11-15T20:49:29.270Z,,,,,,,,,,NaN,,,,,,,,low,low,,,,,,false,,,,false,647889,647888.8000000119,,647888.400000006,,647653.151,4,500,,
break_continue,html.Screen,10_11_2,2023-11-15T20:49:29.270Z,,,,,,,,,,NaN,,,,,,,,low,low,,,,,,false,,,,false,647889.7000000179,647889.5,,647889.3000000119,,647653.151,4,500,,
sequence,flow.Sequence,10_11,2023-11-15T20:49:29.271Z,,,,,,,,,,4294.300999999978,completion,,,,,,,low,low,,,,,,false,,,,false,647890,647889.5,643578.591,643824.5,643595.199,647653.151,4,500,,
trial,html.Screen,10_12_0,2023-11-15T20:49:33.461Z,,,,1,-0.0386453938786174,-0.0465908665241285,,false,hl,4426.9490000238875,response,0.8015753713975186,0.932615818312027,-0.8521391284046637,-1.0067065355978264,0.9378332045113877,-0.8571542293814168,high,low,,ISIC_1698119.JPG,10,ISIC_0002119.JPG,48,false,lh,keypress(e),0,false,652080.6000000238,652080.1000000238,647636.658,647890.1000000238,647653.151,651844.591,4,500,13,
break,html.Screen,10_12_1,2023-11-15T20:49:33.463Z,,,,,,,,,,NaN,,,,,,,,high,low,,,,,,false,,,,false,652081.8000000119,652081.400000006,,652080.900000006,,651844.591,4,500,,
break_continue,html.Screen,10_12_2,2023-11-15T20:49:33.463Z,,,,,,,,,,NaN,,,,,,,,high,low,,,,,,false,,,,false,652082.5,652082.3000000119,,652082,,651844.591,4,500,,
sequence,flow.Sequence,10_12,2023-11-15T20:49:33.464Z,,,,,,,,,,4429.149000011967,completion,,,,,,,high,low,,,,,,false,,,,false,652082.8000000119,652082.3000000119,647636.658,647890.1000000238,647653.151,651844.591,4,500,,
trial,html.Screen,10_13_0,2023-11-15T20:49:39.205Z,,,,1,0.0700745968706567,0.013891147856594,,false,lh,5979.709000011906,response,-1.0143509683988825,0.932615818312027,-0.8521391284046637,1.0281980567462463,0.9378332045113877,-0.8571542293814168,low,high,,ISIC_0054663.JPG,8,ISIC_0062031.JPG,39,false,hl,keypress(j),0,false,657824.6000000238,657824.3000000119,651827.981,652083.1000000238,651844.591,657589.101,4,500,14,
break,html.Screen,10_13_1,2023-11-15T20:49:39.206Z,,,,,,,,,,NaN,,,,,,,,low,high,,,,,,false,,,,false,657825.7000000179,657825.400000006,,657825,,657589.101,4,500,,
break_continue,html.Screen,10_13_2,2023-11-15T20:49:39.207Z,,,,,,,,,,NaN,,,,,,,,low,high,,,,,,false,,,,false,657826.400000006,657826.1000000238,,657825.900000006,,657589.101,4,500,,
sequence,flow.Sequence,10_13,2023-11-15T20:49:39.207Z,,,,,,,,,,5981.509000023827,completion,,,,,,,low,high,,,,,,false,,,,false,657826.6000000238,657826.1000000238,651827.981,652083,651844.591,657589.101,4,500,,
trial,html.Screen,10_14_0,2023-11-15T20:49:45.819Z,,,,1,0.0050679133050021,0.0174815595031679,,true,ll,6849.398999999976,response,-0.77266095910939,0.932615818312027,-0.8521391284046637,-0.8757752877102069,0.9378332045113877,-0.8571542293814168,low,low,,ISIC_9848743.JPG,8,ISIC_0283506.JPG,193,false,ll,keypress(f),0,false,664438.6000000238,664438.5,657572.656,657826.900000006,657589.101,664201.967,4,500,15,
break,html.Screen,10_14_1,2023-11-15T20:49:45.820Z,,,,,,,,,,NaN,,,,,,,,low,low,,,,,,false,,,,false,664438.900000006,664438.8000000119,,664438.7000000179,,664201.967,4,500,,
break_continue,html.Screen,10_14_2,2023-11-15T20:49:45.820Z,,,,,,,,,,NaN,,,,,,,,low,low,,,,,,false,,,,false,664439.1000000238,664439.1000000238,,664439,,664201.967,4,500,,
sequence,flow.Sequence,10_14,2023-11-15T20:49:45.820Z,,,,,,,,,,6849.999000023818,completion,,,,,,,low,low,,,,,,false,,,,false,664439.2000000179,664439.1000000238,657572.656,657826.7000000179,657589.101,664201.967,4,500,,
trial,html.Screen,10_15_0,2023-11-15T20:49:52.813Z,,,,1,-0.0386453938786174,-0.0465908665241285,,true,hh,7230.333000011975,response,0.781123788799864,0.932615818312027,-0.8521391284046637,0.985661787434149,0.9378332045113877,-0.8571542293814168,high,high,,ISIC_1698119.JPG,9,ISIC_0027694.JPG,172,false,hh,keypress(i),0,false,671432.6000000238,671432.3000000119,664185.543,664439.3000000119,664201.967,671198.911,4,500,16,
break,html.Screen,10_15_1,2023-11-15T20:49:52.815Z,,,,,,,,,,NaN,,,,,,,,high,high,,,,,,false,,,,false,671433.8000000119,671433.6000000238,,671433,,671198.911,4,500,,
break_continue,html.Screen,10_15_2,2023-11-15T20:49:52.815Z,,,,,,,,,,NaN,,,,,,,,high,high,,,,,,false,,,,false,671434.5,671434.3000000119,,671434.1000000238,,671198.911,4,500,,
sequence,flow.Sequence,10_15,2023-11-15T20:49:52.816Z,,,,,,,,,,7232.333000011975,completion,,,,,,,high,high,,,,,,false,,,,false,671434.8000000119,671434.3000000119,664185.543,664439.2000000179,664201.967,671198.911,4,500,,
trial,html.Screen,10_16_0,2023-11-15T20:49:57.085Z,,,,1,0.012020985739544,-0.0126097407389903,,true,hl,4505.189000023878,response,0.9254369922344792,0.932615818312027,-0.8521391284046637,-0.7020073261471239,0.9378332045113877,-0.8571542293814168,high,low,,ISIC_0069379.JPG,9,ISIC_3236964.JPG,48,false,hl,keypress(j),0,false,675704.400000006,675704.1000000238,671182.324,671435.1000000238,671198.911,675474.016,4,500,17,
break,html.Screen,10_16_1,2023-11-15T20:49:57.086Z,,,,,,,,,,NaN,,,,,,,,high,low,,,,,,false,,,,false,675705.6000000238,675705.3000000119,,675704.8000000119,,675474.016,4,500,,
break_continue,html.Screen,10_16_2,2023-11-15T20:49:57.087Z,,,,,,,,,,NaN,,,,,,,,high,low,,,,,,false,,,,false,675706.3000000119,675706.1000000238,,675705.8000000119,,675474.016,4,500,,
sequence,flow.Sequence,10_16,2023-11-15T20:49:57.087Z,,,,,,,,,,4507.189000023878,completion,,,,,,,high,low,,,,,,false,,,,false,675706.6000000238,675706.1000000238,671182.324,671435,671198.911,675474.016,4,500,,
trial,html.Screen,10_17_0,2023-11-15T20:50:05.916Z,,,,1,0.0480684603309257,-0.0620119776873313,,true,hh,9060.884000006015,response,1.0490239046679242,0.932615818312027,-0.8521391284046637,0.8755566396204548,0.9378332045113877,-0.8571542293814168,high,high,,ISIC_0645834.JPG,9,ISIC_0071430.JPG,172,false,hh,keypress(i),0,false,684534.900000006,684534.900000006,675457.422,675706.8000000119,675474.016,684308.025,4,500,18,
break,html.Screen,10_17_1,2023-11-15T20:50:05.916Z,,,,,,,,,,NaN,,,,,,,,high,high,,,,,,false,,,,false,684535.3000000119,684535.2000000179,,684535,,684308.025,4,500,,
break_continue,html.Screen,10_17_2,2023-11-15T20:50:05.916Z,,,,,,,,,,NaN,,,,,,,,high,high,,,,,,false,,,,false,684535.5,684535.3000000119,,684535.3000000119,,684308.025,4,500,,
sequence,flow.Sequence,10_17,2023-11-15T20:50:05.916Z,,,,,,,,,,9061.284000011976,completion,,,,,,,high,high,,,,,,false,,,,false,684535.5,684535.3000000119,675457.422,675706.7000000179,675474.016,684308.025,4,500,,
trial,html.Screen,10_18_0,2023-11-15T20:50:11.125Z,,,,1,-0.0514357258480358,-0.006520984995476,,false,hl,5435.974999999977,response,0.9448560599810628,0.932615818312027,-0.8521391284046637,-0.9099421612683488,0.9378332045113877,-0.8571542293814168,high,low,,ISIC_0031386.JPG,9,ISIC_9684318.JPG,48,false,ll,keypress(f),0,false,689744.400000006,689744,684291.283,684535.6000000238,684308.025,689517.949,4,500,19,
break,html.Screen,10_18_1,2023-11-15T20:50:11.126Z,,,,,,,,,,NaN,,,,,,,,high,low,,,,,,false,,,,false,689745.7000000179,689745.3000000119,,689744.8000000119,,689517.949,4,500,,
break_continue,html.Screen,10_18_2,2023-11-15T20:50:11.127Z,,,,,,,,,,NaN,,,,,,,,high,low,,,,,,false,,,,false,689746.3000000119,689746.1000000238,,689745.8000000119,,689517.949,4,500,,
sequence,flow.Sequence,10_18,2023-11-15T20:50:11.127Z,,,,,,,,,,5438.075000023819,completion,,,,,,,high,low,,,,,,false,,,,false,689746.7000000179,689746.1000000238,684291.283,684535.6000000238,684308.025,689517.949,4,500,,
trial,html.Screen,10_19_0,2023-11-15T20:50:13.964Z,,,,1,0.0060918352854008,-0.029032683404407,,false,hl,3064.8510000118986,response,0.7753299102004093,0.932615818312027,-0.8521391284046637,-1.053851019509641,0.9378332045113877,-0.8571542293814168,high,low,,ISIC_8436194.JPG,8,ISIC_9511832.JPG,48,false,ll,keypress(f),0,false,692583,692582.8000000119,689501.241,689746.900000006,689517.949,692356.879,4,500,20,
break,html.Screen,10_19_1,2023-11-15T20:50:13.964Z,,,,,,,,,,NaN,,,,,,,,high,low,,,,,,false,,,,false,692583.400000006,692583.3000000119,,692583.1000000238,,692356.879,4,500,,
break_continue,html.Screen,10_19_2,2023-11-15T20:50:13.964Z,,,,,,,,,,NaN,,,,,,,,high,low,,,,,,false,,,,false,692583.6000000238,692583.5,,692583.400000006,,692356.879,4,500,,
sequence,flow.Sequence,10_19,2023-11-15T20:50:13.964Z,,,,,,,,,,3065.5509999999776,completion,,,,,,,high,low,,,,,,false,,,,false,692583.7000000179,692583.5,689501.241,689746.900000006,689517.949,692356.879,4,500,,
trial,html.Screen,10_20_0,2023-11-15T20:50:16.717Z,,,,1,-0.019361072276763,-0.0523902345755568,,true,lh,2979.4210000119638,response,-0.9039158082670506,0.932615818312027,-0.8521391284046637,1.0517562064343149,0.9378332045113877,-0.8571542293814168,low,high,,ISIC_4066726.JPG,9,ISIC_0015411.JPG,39,false,lh,keypress(e),0,false,695336.6000000238,695336.3000000119,692340.167,692583.7000000179,692356.879,695112.312,4,500,21,
break,html.Screen,10_20_1,2023-11-15T20:50:16.718Z,,,,,,,,,,NaN,,,,,,,,low,high,,,,,,false,,,,false,695337.7000000179,695337.400000006,,695337,,695112.312,4,500,,
break_continue,html.Screen,10_20_2,2023-11-15T20:50:16.719Z,,,,,,,,,,NaN,,,,,,,,low,high,,,,,,false,,,,false,695338.5,695338.3000000119,,695338,,695112.312,4,500,,
sequence,flow.Sequence,10_20,2023-11-15T20:50:16.720Z,,,,,,,,,,2981.4210000119638,completion,,,,,,,low,high,,,,,,false,,,,false,695338.8000000119,695338.3000000119,692340.167,692583.7000000179,692356.879,695112.312,4,500,,
trial,html.Screen,10_21_0,2023-11-15T20:50:20.117Z,,,,1,-0.0683185670328473,-0.0092332028949561,,false,hl,3623.9880000118865,response,0.8181754542205604,0.932615818312027,-0.8521391284046637,-0.8285141543298179,0.9378332045113877,-0.8571542293814168,high,low,,ISIC_3652847.JPG,10,ISIC_3812485.JPG,48,false,ll,keypress(f),0,false,698736.6000000238,698736.3000000119,695078.935,695339.1000000238,695112.312,698502.068,4,500,22,
break,html.Screen,10_21_1,2023-11-15T20:50:20.119Z,,,,,,,,,,NaN,,,,,,,,high,low,,,,,,false,,,,false,698737.7000000179,698737.5,,698737,,698502.068,4,500,,
break_continue,html.Screen,10_21_2,2023-11-15T20:50:20.119Z,,,,,,,,,,NaN,,,,,,,,high,low,,,,,,false,,,,false,698738.400000006,698738.2000000179,,698738,,698502.068,4,500,,
sequence,flow.Sequence,10_21,2023-11-15T20:50:20.119Z,,,,,,,,,,3625.888000017847,completion,,,,,,,high,low,,,,,,false,,,,false,698738.7000000179,698738.2000000179,695078.935,695339,695112.312,698502.068,4,500,,
trial,html.Screen,10_22_0,2023-11-15T20:50:22.733Z,,,,1,-0.0086413421586899,-0.0360184993500958,,true,lh,2850.132000017911,response,-0.8150886811691144,0.932615818312027,-0.8521391284046637,0.862416038462147,0.9378332045113877,-0.8571542293814168,low,high,,ISIC_0010767.JPG,8,ISIC_0058079.JPG,39,false,lh,keypress(e),0,false,701352.5,701352.2000000179,698485.582,698739,698502.068,701123.873,4,500,23,
break,html.Screen,10_22_1,2023-11-15T20:50:22.734Z,,,,,,,,,,NaN,,,,,,,,low,high,,,,,,false,,,,false,701353.7000000179,701353.400000006,,701353,,701123.873,4,500,,
break_continue,html.Screen,10_22_2,2023-11-15T20:50:22.735Z,,,,,,,,,,NaN,,,,,,,,low,high,,,,,,false,,,,false,701354.400000006,701354.2000000179,,701354,,701123.873,4,500,,
sequence,flow.Sequence,10_22,2023-11-15T20:50:22.735Z,,,,,,,,,,2852.132000017911,completion,,,,,,,low,high,,,,,,false,,,,false,701354.7000000179,701354.2000000179,698485.582,698738.900000006,698502.068,701123.873,4,500,,
trial,html.Screen,10_23_0,2023-11-15T20:50:26.245Z,,,,1,0.0071892445601978,-0.0246015408628738,,false,lh,3740.32700001786,response,-0.717897378657649,0.932615818312027,-0.8521391284046637,0.8788356736457825,0.9378332045113877,-0.8571542293814168,low,high,,ISIC_0014133.JPG,9,ISIC_3963183.JPG,39,false,ll,keypress(f),0,false,704864.5,704864.2000000179,701107.406,701354.900000006,701123.873,704630.735,4,500,24,
break,html.Screen,10_23_1,2023-11-15T20:50:26.246Z,,,,,,,,,,NaN,,,,,,,,low,high,,,,,,false,,,,false,704865.5,704865.3000000119,,704864.900000006,,704630.735,4,500,,
break_continue,html.Screen,10_23_2,2023-11-15T20:50:26.247Z,,,,,,,,,,NaN,,,,,,,,low,high,,,,,,false,,,,false,704866.2000000179,704866,,704865.8000000119,,704630.735,4,500,,
sequence,flow.Sequence,10_23,2023-11-15T20:50:26.247Z,,,,,,,,,,3742.1269999999786,completion,,,,,,,low,high,,,,,,false,,,,false,704866.5,704866,701107.406,701354.8000000119,701123.873,704630.735,4,500,,
trial,html.Screen,10_24_0,2023-11-15T20:50:29.718Z,,,,1,0.0362472736315994,0.0492979048777824,,false,lh,3705.765000000014,response,-1.0481746483551846,0.932615818312027,-0.8521391284046637,0.7465283499508132,0.9378332045113877,-0.8571542293814168,low,high,,ISIC_5312584.JPG,10,ISIC_0031248.JPG,39,false,hh,keypress(i),0,false,708336.8000000119,708336.5,704614.104,704866.6000000238,704630.735,708104.176,4,500,25,
break,html.Screen,10_24_1,2023-11-15T20:50:29.719Z,,,,,,,,,,NaN,,,,,,,,low,high,,,,,,false,,,,false,708338.1000000238,708337.7000000179,,708337.2000000179,,708104.176,4,500,,
break_continue,html.Screen,10_24_2,2023-11-15T20:50:29.720Z,,,,,,,,,,NaN,,,,,,,,low,high,,,,,,false,,,,false,708338.900000006,708338.5,,708338.400000006,,708104.176,4,500,,
sequence,flow.Sequence,10_24,2023-11-15T20:50:29.720Z,,,,,,,,,,3707.765000000014,completion,,,,,,,low,high,,,,,,false,,,,false,708339.2000000179,708338.5,704614.104,704866.6000000238,704630.735,708104.176,4,500,,
trial,html.Screen,10_25_0,2023-11-15T20:50:34.701Z,,,,1,-0.0380440426394326,-0.0685633753763444,,false,ll,5215.924000023864,response,-0.6725647784551114,0.932615818312027,-0.8521391284046637,-0.7330322578228878,0.9378332045113877,-0.8571542293814168,low,low,,ISIC_0032680.JPG,9,ISIC_0026296.JPG,193,false,lh,keypress(e),0,false,713320.400000006,713320.1000000238,708087.357,708339.3000000119,708104.176,713080.515,4,500,26,
break,html.Screen,10_25_1,2023-11-15T20:50:34.703Z,,,,,,,,,,NaN,,,,,,,,low,low,,,,,,false,,,,false,713321.6000000238,713321.3000000119,,713320.8000000119,,713080.515,4,500,,
break_continue,html.Screen,10_25_2,2023-11-15T20:50:34.703Z,,,,,,,,,,NaN,,,,,,,,low,low,,,,,,false,,,,false,713322.3000000119,713322.1000000238,,713321.8000000119,,713080.515,4,500,,
sequence,flow.Sequence,10_25,2023-11-15T20:50:34.704Z,,,,,,,,,,5217.924000023864,completion,,,,,,,low,low,,,,,,false,,,,false,713322.5,713322.1000000238,708087.357,708339.3000000119,708104.176,713080.515,4,500,,
trial,html.Screen,10_26_0,2023-11-15T20:50:37.845Z,,,,1,0.012810673904807,-0.00400964452501,,false,hh,3383.785000011907,response,0.7369608186051021,0.932615818312027,-0.8521391284046637,0.8481453702500746,0.9378332045113877,-0.8571542293814168,high,high,,ISIC_0064656.JPG,9,ISIC_0010723.JPG,172,false,hl,keypress(j),0,false,716464.5,716464.3000000119,713063.983,713322.8000000119,713080.515,716236.844,4,500,27,
break,html.Screen,10_26_1,2023-11-15T20:50:37.847Z,,,,,,,,,,NaN,,,,,,,,high,high,,,,,,false,,,,false,716465.7000000179,716465.400000006,,716464.900000006,,716236.844,4,500,,
break_continue,html.Screen,10_26_2,2023-11-15T20:50:37.847Z,,,,,,,,,,NaN,,,,,,,,high,high,,,,,,false,,,,false,716466.400000006,716466.2000000179,,716465.900000006,,716236.844,4,500,,
sequence,flow.Sequence,10_26,2023-11-15T20:50:37.848Z,,,,,,,,,,3385.6850000178674,completion,,,,,,,high,high,,,,,,false,,,,false,716466.7000000179,716466.2000000179,713063.983,713322.8000000119,713080.515,716236.844,4,500,,
trial,html.Screen,10_27_0,2023-11-15T20:50:41.198Z,,,,1,-0.0086413421586899,-0.0360184993500958,,true,hl,3579.5560000059195,response,0.9142125020682068,0.932615818312027,-0.8521391284046637,-0.7276522964385869,0.9378332045113877,-0.8571542293814168,high,low,,ISIC_0010767.JPG,9,ISIC_9566964.JPG,48,false,hl,keypress(j),0,false,719816.7000000179,719816.400000006,716219.874,716466.900000006,716236.844,719594.11,4,500,28,
break,html.Screen,10_27_1,2023-11-15T20:50:41.199Z,,,,,,,,,,NaN,,,,,,,,high,low,,,,,,false,,,,false,719817.900000006,719817.6000000238,,719817.1000000238,,719594.11,4,500,,
break_continue,html.Screen,10_27_2,2023-11-15T20:50:41.200Z,,,,,,,,,,NaN,,,,,,,,high,low,,,,,,false,,,,false,719818.5,719818.400000006,,719818.1000000238,,719594.11,4,500,,
sequence,flow.Sequence,10_27,2023-11-15T20:50:41.200Z,,,,,,,,,,3581.5560000059195,completion,,,,,,,high,low,,,,,,false,,,,false,719818.900000006,719818.400000006,716219.874,716466.900000006,716236.844,719594.11,4,500,,
trial,html.Screen,10_28_0,2023-11-15T20:50:46.925Z,,,,1,-0.019361072276763,-0.0523902345755568,,true,ll,5949.990000023856,response,-0.7390046254300784,0.932615818312027,-0.8521391284046637,-0.9697943364761156,0.9378332045113877,-0.8571542293814168,low,low,,ISIC_4066726.JPG,9,ISIC_6199335.JPG,193,false,ll,keypress(f),0,false,725544.400000006,725544.1000000238,719559.962,719819.1000000238,719594.11,725304.34,4,500,29,
break,html.Screen,10_28_1,2023-11-15T20:50:46.927Z,,,,,,,,,,NaN,,,,,,,,low,low,,,,,,false,,,,false,725545.6000000238,725545.3000000119,,725544.8000000119,,725304.34,4,500,,
break_continue,html.Screen,10_28_2,2023-11-15T20:50:46.927Z,,,,,,,,,,NaN,,,,,,,,low,low,,,,,,false,,,,false,725546.3000000119,725546.1000000238,,725545.900000006,,725304.34,4,500,,
sequence,flow.Sequence,10_28,2023-11-15T20:50:46.928Z,,,,,,,,,,5951.990000023856,completion,,,,,,,low,low,,,,,,false,,,,false,725546.6000000238,725546.1000000238,719559.962,719819.1000000238,719594.11,725304.34,4,500,,
trial,html.Screen,10_29_0,2023-11-15T20:50:50.149Z,,,,1,-0.0207120852539861,-0.0589023744433183,,true,hl,3463.6600000000326,response,0.7809949855371787,0.932615818312027,-0.8521391284046637,-0.8834146203433249,0.9378332045113877,-0.8571542293814168,high,low,,ISIC_7973601.JPG,9,ISIC_7450481.JPG,48,false,hl,keypress(j),0,false,728768.3000000119,728768,725287.716,725546.900000006,725304.34,728544.023,4,500,30,
break,html.Screen,10_29_1,2023-11-15T20:50:50.150Z,,,,,,,,,,NaN,,,,,,,,high,low,,,,,,false,,,,false,728769.5,728769.2000000179,,728768.7000000179,,728544.023,4,500,,
break_continue,html.Screen,10_29_2,2023-11-15T20:50:50.151Z,,,,,,,,,,NaN,,,,,,,,high,low,,,,,,false,,,,false,728770.2000000179,728770,,728769.8000000119,,728544.023,4,500,,
sequence,flow.Sequence,10_29,2023-11-15T20:50:50.152Z,,,,,,,,,,3465.6600000000326,completion,,,,,,,high,low,,,,,,false,,,,false,728770.6000000238,728770,725287.716,725546.8000000119,725304.34,728544.023,4,500,,
trial,html.Screen,10_30_0,2023-11-15T20:50:53.542Z,,,,1,-0.0296179945324451,-0.074433472160252,,false,hh,3616.3770000059158,response,0.8299064093289698,0.932615818312027,-0.8521391284046637,0.8788083232111502,0.9378332045113877,-0.8571542293814168,high,high,,ISIC_0026982.JPG,8,ISIC_0000398.JPG,172,false,hl,keypress(j),0,false,732160.8000000119,732160.400000006,728510.689,728770.8000000119,728544.023,731933.827,4,500,31,
break,html.Screen,10_30_1,2023-11-15T20:50:53.543Z,,,,,,,,,,NaN,,,,,,,,high,high,,,,,,false,,,,false,732162,732161.7000000179,,732161.2000000179,,731933.827,4,500,,
break_continue,html.Screen,10_30_2,2023-11-15T20:50:53.544Z,,,,,,,,,,NaN,,,,,,,,high,high,,,,,,false,,,,false,732162.7000000179,732162.400000006,,732162.1000000238,,731933.827,4,500,,
sequence,flow.Sequence,10_30,2023-11-15T20:50:53.544Z,,,,,,,,,,3618.3770000059158,completion,,,,,,,high,high,,,,,,false,,,,false,732163,732162.400000006,728510.689,728770.8000000119,728544.023,731933.827,4,500,,
trial,html.Screen,10_31_0,2023-11-15T20:50:57.621Z,,,,1,-0.0050319651598106,0.047524453347389,,true,ll,4306.373000017833,response,-0.8093178584833343,0.932615818312027,-0.8521391284046637,-1.0139833925057518,0.9378332045113877,-0.8571542293814168,low,low,,ISIC_0027081.JPG,9,ISIC_6171084.JPG,193,false,ll,keypress(f),0,false,736240.5,736240.2000000179,731917.337,732163.1000000238,731933.827,736008.498,4,500,32,
break,html.Screen,10_31_1,2023-11-15T20:50:57.623Z,,,,,,,,,,NaN,,,,,,,,low,low,,,,,,false,,,,false,736241.7000000179,736241.400000006,,736240.900000006,,736008.498,4,500,,
break_continue,html.Screen,10_31_2,2023-11-15T20:50:57.623Z,,,,,,,,,,NaN,,,,,,,,low,low,,,,,,false,,,,false,736242.3000000119,736242.2000000179,,736241.900000006,,736008.498,4,500,,
sequence,flow.Sequence,10_31,2023-11-15T20:50:57.624Z,,,,,,,,,,4308.373000017833,completion,,,,,,,low,low,,,,,,false,,,,false,736242.7000000179,736242.2000000179,731917.337,732163.1000000238,731933.827,736008.498,4,500,,
trial,html.Screen,10_32_0,2023-11-15T20:51:05.140Z,,,,1,0.0480684603309257,-0.0620119776873313,,true,hl,7750.60200002382,response,0.9254898763900528,0.932615818312027,-0.8521391284046637,-0.6729642430400987,0.9378332045113877,-0.8571542293814168,high,low,,ISIC_0645834.JPG,9,ISIC_0862745.JPG,48,false,hl,keypress(j),0,false,743759.2000000179,743759.1000000238,735991.924,736242.900000006,736008.498,743523.026,4,500,33,
break,html.Screen,10_32_1,2023-11-15T20:51:05.141Z,,,,,,,,,,NaN,,,,,,,,high,low,,,,,,false,,,,false,743759.6000000238,743759.5,,743759.400000006,,743523.026,4,500,,
break_continue,html.Screen,10_32_2,2023-11-15T20:51:05.141Z,,,,,,,,,,NaN,,,,,,,,high,low,,,,,,false,,,,false,743759.8000000119,743759.7000000179,,743759.7000000179,,743523.026,4,500,,
sequence,flow.Sequence,10_32,2023-11-15T20:51:05.141Z,,,,,,,,,,7751.20200001786,completion,,,,,,,high,low,,,,,,false,,,,false,743759.8000000119,743759.7000000179,735991.924,736242.8000000119,736008.498,743523.026,4,500,,
trial,html.Screen,10_33_0,2023-11-15T20:51:08.838Z,,,,1,-0.0386453938786174,-0.0465908665241285,,true,lh,3933.374000006006,response,-0.9445114955578736,0.932615818312027,-0.8521391284046637,1.0054210059625863,0.9378332045113877,-0.8571542293814168,low,high,,ISIC_1698119.JPG,9,ISIC_0033807.JPG,39,false,lh,keypress(e),0,false,747456.8000000119,747456.400000006,743506.567,743759.900000006,743523.026,747230.532,4,500,34,
break,html.Screen,10_33_1,2023-11-15T20:51:08.839Z,,,,,,,,,,NaN,,,,,,,,low,high,,,,,,false,,,,false,747458,747457.7000000179,,747457.2000000179,,747230.532,4,500,,
break_continue,html.Screen,10_33_2,2023-11-15T20:51:08.840Z,,,,,,,,,,NaN,,,,,,,,low,high,,,,,,false,,,,false,747458.6000000238,747458.400000006,,747458.2000000179,,747230.532,4,500,,
sequence,flow.Sequence,10_33,2023-11-15T20:51:08.840Z,,,,,,,,,,3935.374000006006,completion,,,,,,,low,high,,,,,,false,,,,false,747459,747458.400000006,743506.567,743759.8000000119,743523.026,747230.532,4,500,,
trial,html.Screen,10_34_0,2023-11-15T20:51:12.732Z,,,,1,-0.0565575423757561,0.0536115913979284,,false,hh,4120.368000005954,response,0.7581696746785559,0.932615818312027,-0.8521391284046637,0.7852192585315924,0.9378332045113877,-0.8571542293814168,high,high,,ISIC_0046983.JPG,9,ISIC_0062133.JPG,172,false,lh,keypress(e),0,false,751351,751350.900000006,747213.658,747459.2000000179,747230.532,751121.238,4,500,35,
break,html.Screen,10_34_1,2023-11-15T20:51:12.732Z,,,,,,,,,,NaN,,,,,,,,high,high,,,,,,false,,,,false,751351.3000000119,751351.3000000119,,751351.1000000238,,751121.238,4,500,,
break_continue,html.Screen,10_34_2,2023-11-15T20:51:12.732Z,,,,,,,,,,NaN,,,,,,,,high,high,,,,,,false,,,,false,751351.6000000238,751351.400000006,,751351.400000006,,751121.238,4,500,,
sequence,flow.Sequence,10_34,2023-11-15T20:51:12.733Z,,,,,,,,,,4120.868000005954,completion,,,,,,,high,high,,,,,,false,,,,false,751351.6000000238,751351.400000006,747213.658,747459.1000000238,747230.532,751121.238,4,500,,
trial,html.Screen,10_35_0,2023-11-15T20:51:15.236Z,,,,1,-0.0189295602385628,-0.0128812415435153,,true,lh,2733.8620000238298,response,-0.8129823105338526,0.932615818312027,-0.8521391284046637,0.9655386457143784,0.9378332045113877,-0.8571542293814168,low,high,,ISIC_0010372.JPG,8,ISIC_8268025.JPG,39,false,lh,keypress(e),0,false,753855.1000000238,753855.1000000238,751104.521,751351.6000000238,751121.238,753626.263,4,500,36,
break,html.Screen,10_35_1,2023-11-15T20:51:15.236Z,,,,,,,,,,NaN,,,,,,,,low,high,,,,,,false,,,,false,753855.5,753855.400000006,,753855.3000000119,,753626.263,4,500,,
break_continue,html.Screen,10_35_2,2023-11-15T20:51:15.237Z,,,,,,,,,,NaN,,,,,,,,low,high,,,,,,false,,,,false,753855.6000000238,753855.6000000238,,753855.5,,753626.263,4,500,,
sequence,flow.Sequence,10_35,2023-11-15T20:51:15.237Z,,,,,,,,,,2734.3620000238298,completion,,,,,,,low,high,,,,,,false,,,,false,753855.7000000179,753855.6000000238,751104.521,751351.6000000238,751121.238,753626.263,4,500,,
trial,html.Screen,10_36_0,2023-11-15T20:51:19.893Z,,,,1,-0.0500182837729639,0.0231316228640781,,false,ll,4885.937000017846,response,-0.9512444996401545,0.932615818312027,-0.8521391284046637,-0.9046053086219094,0.9378332045113877,-0.8571542293814168,low,low,,ISIC_2246150.JPG,10,ISIC_0059170.JPG,193,false,lh,keypress(e),0,false,758512.5,758512.2000000179,753609.575,753855.8000000119,753626.263,758285.311,4,500,37,
break,html.Screen,10_36_1,2023-11-15T20:51:19.895Z,,,,,,,,,,NaN,,,,,,,,low,low,,,,,,false,,,,false,758513.7000000179,758513.400000006,,758512.900000006,,758285.311,4,500,,
break_continue,html.Screen,10_36_2,2023-11-15T20:51:19.895Z,,,,,,,,,,NaN,,,,,,,,low,low,,,,,,false,,,,false,758514.5,758514.2000000179,,758514,,758285.311,4,500,,
sequence,flow.Sequence,10_36,2023-11-15T20:51:19.896Z,,,,,,,,,,4887.937000017846,completion,,,,,,,low,low,,,,,,false,,,,false,758514.7000000179,758514.2000000179,753609.575,753855.8000000119,753626.263,758285.311,4,500,,
trial,html.Screen,10_37_0,2023-11-15T20:51:23.460Z,,,,1,0.0534676262527691,0.0384996820289673,,true,hl,3793.5890000059735,response,0.7674822268050899,0.932615818312027,-0.8521391284046637,-0.6813946961400209,0.9378332045113877,-0.8571542293814168,high,low,,ISIC_0030484.JPG,8,ISIC_9322551.JPG,48,false,hl,keypress(j),0,false,762079,762078.900000006,758268.601,758515,758285.311,761842.028,4,500,38,
