sender,sender_type,sender_id,timestamp,meta,,age,blockNo,c1,c2,condition,correct,correctResponse,duration,ended_on,f1,f1_high,f1_low,f2,f2_high,f2_low,feature_level1,feature_level2,gender,img_left,img_reveal,img_right,n_target_images,practice,response,response_action,selection_duration,staircase,time_commit,time_end,time_render,time_run,time_show,time_switch,total_blocks,total_trials,trialNo,url
informed_consent,html.Screen,0,2023-11-15T21:37:21.622Z,"{""labjs_version"":""20.2.4"",""labjs_build"":{""flavor"":""development"",""commit"":""f5b4a49f956347addd546a832a3327688c2c0fef""},""location"":""https://labjs.felixhenninger.com/api/labjs_preview/index.html"",""userAgent"":""Mozilla/5.0 (Windows NT 10.0; Win64; x64) AppleWebKit/537.36 (KHTML, like Gecko) Chrome/119.0.0.0 Safari/537.36"",""platform"":""Win32"",""language"":""en-US"",""locale"":""en-US"",""timeZone"":""America/Chicago"",""timezoneOffset"":360,""screen_width"":1920,""screen_height"":1080,""scroll_width"":945,""scroll_height"":918,""window_innerWidth"":945,""window_innerHeight"":966,""devicePixelRatio"":1}",,,,,,,,,66919.79300000596,response,,,,,,,,,,,,,,,consent,click button,,,67532.20000000298,67524.40000000596,587.965,790.3000000119209,604.607,67337.743,,,,{}
Demography form,html.Form,1,2023-11-15T21:37:31.183Z,,,19,,,,,,,9755.857000008938,form submission,,,,,,,,,female,,,,,,,,,,77093.70000000298,77093.60000000894,67321.246,67532.40000000596,67337.743,76921.29,,,,
Welcome,html.Screen,2,2023-11-15T21:38:46.369Z,,,,,,,"[""asym"",""bor""]",,,75355.21,response,,,,,,,,,,,,,,,continue,click button,,,152277.10000000894,152276.5,76904.394,77093.80000001192,76921.29,152087.517,,,,
demo_instructions,html.Screen,3,2023-11-15T21:40:48.556Z,,,,,,,,,,122372.78300001193,response,,,,,,,,,,,,,,,continue,click button,,,274460.700000003,274460.3000000119,152071.081,152277.20000000298,152087.517,274287.453,,,,
trial,html.Screen,4_0_0,2023-11-15T21:41:14.421Z,,,,0,0.948927472020595,-1.0660437155921598,,true,lh,26037.84700001194,response,-0.858338058340649,1.0499999999999998,-1.0499999999999998,0.9540612223480284,1.0499999999999998,-1.0499999999999998,low,high,,ISIC_5808758.JPG,,ISIC_8922893.JPG,21,true,lh,keypress(e),100,false,300325.8000000119,300325.3000000119,274270.527,274460.90000000596,274287.453,300154.029,1,16,1,
sequence,flow.Sequence,4_0,2023-11-15T21:41:14.421Z,,,,,,,,,,26037.84700001194,completion,,,,,,,low,high,,,,,,true,,,,false,300326.5,300325.3000000119,274270.527,274460.8000000119,274287.453,300154.029,1,16,,
trial,html.Screen,4_1_0,2023-11-15T21:41:25.264Z,,,,0,0.8655167308525522,-0.9298580423306444,,true,lh,11015.171000003,response,-1.1181734135756094,1.0499999999999998,-1.0499999999999998,0.944560381774994,1.0499999999999998,-1.0499999999999998,low,high,,ISIC_4603706.JPG,,ISIC_9688534.JPG,21,true,lh,keypress(e),100,false,311169.60000000894,311169.200000003,300137.166,300326.8000000119,300154.029,311003.8,1,16,2,
sequence,flow.Sequence,4_1,2023-11-15T21:41:25.265Z,,,,,,,,,,11015.171000003,completion,,,,,,,low,high,,,,,,true,,,,false,311170.10000000894,311169.200000003,300137.166,300326.700000003,300154.029,311003.8,1,16,,
trial,html.Screen,4_2_0,2023-11-15T21:41:34.411Z,,,,0,1.0213365328004047,-1.088524359911891,,true,lh,9312.100000005972,response,-0.9696118525781644,1.0499999999999998,-1.0499999999999998,0.9244148283103414,1.0499999999999998,-1.0499999999999998,low,high,,ISIC_5434229.JPG,,ISIC_7927525.JPG,21,true,lh,keypress(e),100,false,320316.3000000119,320315.90000000596,310987.156,311170.40000000596,311003.8,320153.822,1,16,3,
sequence,flow.Sequence,4_2,2023-11-15T21:41:34.412Z,,,,,,,,,,9312.100000005972,completion,,,,,,,low,high,,,,,,true,,,,false,320316.8000000119,320315.90000000596,310987.156,311170.200000003,311003.8,320153.822,1,16,,
trial,html.Screen,4_3_0,2023-11-15T21:41:39.926Z,,,,0,0.948927472020595,-1.0660437155921598,,true,lh,5676.878000002995,response,-1.011737552725394,1.0499999999999998,-1.0499999999999998,0.8500530224490773,1.0499999999999998,-1.0499999999999998,low,high,,ISIC_5808758.JPG,,ISIC_2998367.JPG,21,true,lh,keypress(e),100,false,325831.200000003,325830.700000003,320137.323,320317.10000000894,320153.822,325653.769,1,16,4,
sequence,flow.Sequence,4_3,2023-11-15T21:41:39.927Z,,,,,,,,,,5676.878000002995,completion,,,,,,,low,high,,,,,,true,,,,false,325831.700000003,325830.700000003,320137.323,320316.90000000596,320153.822,325653.769,1,16,,
trial,html.Screen,4_4_0,2023-11-15T21:41:54.451Z,,,,0,1.0698162624196283,1.219634566983089,,true,ll,14699.83100000897,response,-1.131522954199764,1.0499999999999998,-1.0499999999999998,-1.1047184491749509,1.0499999999999998,-1.0499999999999998,low,low,,ISIC_0030552.JPG,,ISIC_1868816.JPG,111,true,ll,keypress(f),100,false,340354,340353.60000000894,325637.176,325831.90000000596,325653.769,340187.157,1,16,5,
sequence,flow.Sequence,4_4,2023-11-15T21:41:54.451Z,,,,,,,,,,14699.83100000897,completion,,,,,,,low,low,,,,,,true,,,,false,340354.700000003,340353.60000000894,325637.176,325831.90000000596,325653.769,340187.157,1,16,,
trial,html.Screen,4_5_0,2023-11-15T21:42:03.117Z,,,,0,1.120374872349494,0.9666765976151852,,true,ll,8832.743000005954,response,-1.2012395086389958,1.0499999999999998,-1.0499999999999998,-1.0618985767073823,1.0499999999999998,-1.0499999999999998,low,low,,ISIC_0011948.JPG,,ISIC_9876004.JPG,111,true,ll,keypress(f),100,false,349019.90000000596,349019.90000000596,340170.404,340354.90000000596,340187.157,348853.666,1,16,6,
sequence,flow.Sequence,4_5,2023-11-15T21:42:03.117Z,,,,,,,,,,8832.743000005954,completion,,,,,,,low,low,,,,,,true,,,,false,349020.200000003,349019.90000000596,340170.404,340354.8000000119,340187.157,348853.666,1,16,,
trial,html.Screen,4_6_0,2023-11-15T21:42:08.945Z,,,,0,0.9249963751334934,0.8954921660911329,,true,ll,5994.3339999999735,response,-1.201100953917304,1.0499999999999998,-1.0499999999999998,-1.1751492358160105,1.0499999999999998,-1.0499999999999998,low,low,,ISIC_6404049.JPG,,ISIC_0647224.JPG,111,true,ll,keypress(f),100,false,354848.10000000894,354848,348836.995,349020.3000000119,348853.666,354687.238,1,16,7,
sequence,flow.Sequence,4_6,2023-11-15T21:42:08.945Z,,,,,,,,,,5994.3339999999735,completion,,,,,,,low,low,,,,,,true,,,,false,354848.3000000119,354848,348836.995,349020.200000003,348853.666,354687.238,1,16,,
trial,html.Screen,4_7_0,2023-11-15T21:42:13.269Z,,,,0,1.042261683252976,1.2304407834713986,,true,ll,4484.462000002968,response,-0.9069195139552818,1.0499999999999998,-1.0499999999999998,-1.17726864031644,1.0499999999999998,-1.0499999999999998,low,low,,ISIC_0011870.JPG,,ISIC_9728003.JPG,111,true,ll,keypress(f),100,false,359172,359171.700000003,354670.392,354848.3000000119,354687.238,359003.749,1,16,8,
sequence,flow.Sequence,4_7,2023-11-15T21:42:13.269Z,,,,,,,,,,4484.462000002968,completion,,,,,,,low,low,,,,,,true,,,,false,359172.5,359171.700000003,354670.392,354848.3000000119,354687.238,359003.749,1,16,,
trial,html.Screen,4_8_0,2023-11-15T21:42:19.842Z,,,,0,-0.8579451262594331,0.9633172970727744,,true,hl,6741.55100001191,response,0.7871162143493278,0.9499999999999997,-0.9499999999999997,-0.8429329800778957,0.9499999999999997,-0.9499999999999997,high,low,,ISIC_0067172.JPG,,ISIC_3439215.JPG,26,true,hl,keypress(j),100,false,365745.700000003,365745.3000000119,358987.048,359172.700000003,359003.749,365570.52,1,16,9,
sequence,flow.Sequence,4_8,2023-11-15T21:42:19.843Z,,,,,,,,,,6741.55100001191,completion,,,,,,,high,low,,,,,,true,,,,false,365746.200000003,365745.3000000119,358987.048,359172.700000003,359003.749,365570.52,1,16,,
trial,html.Screen,4_9_0,2023-11-15T21:42:30.573Z,,,,0,-0.990489579313564,0.7747897983133127,,true,hl,10905.680000002962,response,0.948927472020595,0.9499999999999997,-0.9499999999999997,-1.0660437155921598,0.9499999999999997,-0.9499999999999997,high,low,,ISIC_7030404.JPG,,ISIC_5808758.JPG,26,true,hl,keypress(j),100,false,376476.5,376476.200000003,365553.7,365746.40000000596,365570.52,376303.792,1,16,10,
sequence,flow.Sequence,4_9,2023-11-15T21:42:30.574Z,,,,,,,,,,10905.680000002962,completion,,,,,,,high,low,,,,,,true,,,,false,376477.10000000894,376476.200000003,365553.7,365746.40000000596,365570.52,376303.792,1,16,,
trial,html.Screen,4_10_0,2023-11-15T21:42:38.616Z,,,,0,-0.991282840649944,0.9397921099839784,,true,hl,8215.408000002964,response,0.8200962008791046,0.9499999999999997,-0.9499999999999997,-0.7936051642828523,0.9499999999999997,-0.9499999999999997,high,low,,ISIC_0000463.JPG,,ISIC_0027031.JPG,26,true,hl,keypress(j),100,false,384519.5,384519.200000003,376286.965,376477.40000000596,376303.792,384353.538,1,16,11,
sequence,flow.Sequence,4_10,2023-11-15T21:42:38.617Z,,,,,,,,,,8215.408000002964,completion,,,,,,,high,low,,,,,,true,,,,false,384520,384519.200000003,376286.965,376477.3000000119,376303.792,384353.538,1,16,,
trial,html.Screen,4_11_0,2023-11-15T21:42:46.915Z,,,,0,-0.8809306963311293,0.8614910030038974,,true,hl,8464.26200001192,response,0.9873794329144926,0.9499999999999997,-0.9499999999999997,-0.7991077882008257,0.9499999999999997,-0.9499999999999997,high,low,,ISIC_0013731.JPG,,ISIC_0013498.JPG,26,true,hl,keypress(j),100,false,392818.200000003,392817.8000000119,384336.948,384520.3000000119,384353.538,392653.525,1,16,12,
sequence,flow.Sequence,4_11,2023-11-15T21:42:46.915Z,,,,,,,,,,8464.26200001192,completion,,,,,,,high,low,,,,,,true,,,,false,392818.700000003,392817.8000000119,384336.948,384520.200000003,384353.538,392653.525,1,16,,
trial,html.Screen,4_12_0,2023-11-15T21:42:53.856Z,,,,0,-0.8318514901182542,-0.9538458994523976,,true,hh,7103.875000005937,response,0.8574426517835552,0.9499999999999997,-0.9499999999999997,1.1207578827801843,0.9499999999999997,-0.9499999999999997,high,high,,ISIC_3161477.JPG,,ISIC_0030423.JPG,167,true,hh,keypress(i),100,false,399757.5,399757.40000000596,392637.033,392818.90000000596,392653.525,399586.823,1,16,13,
sequence,flow.Sequence,4_12,2023-11-15T21:42:53.856Z,,,,,,,,,,7103.875000005937,completion,,,,,,,high,high,,,,,,true,,,,false,399757.8000000119,399757.40000000596,392637.033,392818.90000000596,392653.525,399586.823,1,16,,
trial,html.Screen,4_13_0,2023-11-15T21:42:57.301Z,,,,0,-0.8297121564547995,-0.9292144567580788,,true,hh,3615.477000011946,response,0.9303292478996148,0.9499999999999997,-0.9499999999999997,1.0396291493634244,0.9499999999999997,-0.9499999999999997,high,high,,ISIC_4108397.JPG,,ISIC_0068580.JPG,167,true,hh,keypress(i),100,false,403202.700000003,403202.3000000119,399570.412,399757.8000000119,399586.823,403036.928,1,16,14,
sequence,flow.Sequence,4_13,2023-11-15T21:42:57.301Z,,,,,,,,,,3615.477000011946,completion,,,,,,,high,high,,,,,,true,,,,false,403203.200000003,403202.3000000119,399570.412,399757.8000000119,399586.823,403036.928,1,16,,
trial,html.Screen,4_14_0,2023-11-15T21:43:01.517Z,,,,0,-0.8859261802814055,-0.9191342361964594,,true,hh,4381.472000005946,response,1.0377676235641546,0.9499999999999997,-0.9499999999999997,1.0836906473836847,0.9499999999999997,-0.9499999999999997,high,high,,ISIC_0029395.JPG,,ISIC_0010540.JPG,167,true,hh,keypress(i),100,false,407418.5,407418.40000000596,403020.416,403203.40000000596,403036.928,407253.707,1,16,15,
sequence,flow.Sequence,4_14,2023-11-15T21:43:01.517Z,,,,,,,,,,4381.472000005946,completion,,,,,,,high,high,,,,,,true,,,,false,407418.8000000119,407418.40000000596,403020.416,403203.40000000596,403036.928,407253.707,1,16,,
trial,html.Screen,4_15_0,2023-11-15T21:43:05.681Z,,,,0,-0.7543493127539531,-0.9452304370934528,,true,hh,4329.393000008946,response,0.838053327796249,0.9499999999999997,-0.9499999999999997,0.8312425167370745,0.9499999999999997,-0.9499999999999997,high,high,,ISIC_0029017.JPG,,ISIC_4834687.JPG,167,true,hh,keypress(i),100,false,411583.3000000119,411583.10000000894,407237.076,407418.8000000119,407253.707,411420.118,1,16,16,
sequence,flow.Sequence,4_15,2023-11-15T21:43:05.681Z,,,,,,,,,,4329.393000008946,completion,,,,,,,high,high,,,,,,true,,,,false,411583.5,411583.10000000894,407237.076,407418.8000000119,407253.707,411420.118,1,16,,
demonstration_loop,flow.Loop,4,2023-11-15T21:43:05.682Z,,,,,,,,,,137295.64700000896,completion,,,,,,,,,,,,,,true,,,,false,411583.700000003,411583.10000000894,274270.527,274460.8000000119,274287.453,411420.118,1,16,,
practice_instructions,html.Screen,5,2023-11-15T21:44:10.200Z,,,,,,,,,,64671.38199999998,response,,,,,,,,,,,,,,,continue,click button,,,476099.8000000119,476091.5,411403.495,411583.8000000119,411420.118,475919.939,,,,
trial,html.Screen,6_0_0,2023-11-15T21:44:19.826Z,,,,1,-1.0656673213158945,0.8082541692781954,,true,hl,9806.261000002967,response,0.7809949855371787,0.9499999999999997,-0.9499999999999997,-0.8493861117004308,0.9499999999999997,-0.9499999999999997,high,low,,ISIC_0033985.JPG,,ISIC_7450481.JPG,26,true,hl,keypress(j),0,false,485726.60000000894,485726.200000003,475903.279,476100,475919.939,485536.638,1,40,1,
sequence,flow.Sequence,6_0,2023-11-15T21:44:19.827Z,,,,,,,,,,9806.261000002967,completion,,,,,,,high,low,,,,,,true,,,,false,485727.10000000894,485726.200000003,475903.279,476099.90000000596,475919.939,485536.638,1,40,,
trial,html.Screen,6_1_0,2023-11-15T21:44:24.009Z,,,,1,1.0910404089869363,1.119702461098404,,true,ll,4372.562000003003,response,-1.135787555082309,0.9499999999999997,-0.9499999999999997,-1.0095789588135065,0.9499999999999997,-0.9499999999999997,low,low,,ISIC_0067097.JPG,,ISIC_0032526.JPG,142,true,ll,keypress(f),0,false,489909.40000000596,489909.200000003,485519.591,485727.3000000119,485536.638,489719.923,1,40,2,
sequence,flow.Sequence,6_1,2023-11-15T21:44:24.010Z,,,,,,,,,,4372.562000003003,completion,,,,,,,low,low,,,,,,true,,,,false,489909.8000000119,489909.200000003,485519.591,485727.3000000119,485536.638,489719.923,1,40,,
trial,html.Screen,6_2_0,2023-11-15T21:44:34.798Z,,,,1,-0.9696118525781644,0.9244148283103414,,,,10800.071999999986,timeout,1.0022829373011404,0.9499999999999997,-0.9499999999999997,-0.8311726972863814,0.9499999999999997,-0.9499999999999997,high,low,,ISIC_7927525.JPG,,ISIC_0033287.JPG,26,true,,,0,false,500698.60000000894,500698.5,489703.24,489910,489719.923,500519.995,1,40,3,
sequence,flow.Sequence,6_2,2023-11-15T21:44:34.799Z,,,,,,,,,,10978.57699999999,completion,,,,,,,high,low,,,,,,true,,,,false,500698.8000000119,500698.5,489703.24,489909.90000000596,489719.923,500519.995,1,40,,
trial,html.Screen,6_3_0,2023-11-15T21:44:42.802Z,,,,1,-1.0865333402803938,1.0542635307358266,,false,hl,8182.105000008945,response,0.8623414234919863,0.9499999999999997,-0.9499999999999997,-0.782830143980698,0.9499999999999997,-0.9499999999999997,high,low,,ISIC_0034006.JPG,,ISIC_2727016.JPG,26,true,lh,keypress(e),0,false,508702.3000000119,508702.10000000894,500503.522,500698.8000000119,500519.995,508519.9,1,40,4,
sequence,flow.Sequence,6_3,2023-11-15T21:44:42.803Z,,,,,,,,,,8182.105000008945,completion,,,,,,,high,low,,,,,,true,,,,false,508702.700000003,508702.10000000894,500503.522,500698.8000000119,500519.995,508519.9,1,40,,
trial,html.Screen,6_4_0,2023-11-15T21:44:53.403Z,,,,1,0.8227212137652337,1.0019180628441589,,true,ll,10782.900000011898,response,-0.7513441030097987,0.9499999999999997,-0.9499999999999997,-1.0027606333094683,0.9499999999999997,-0.9499999999999997,low,low,,ISIC_0013411.JPG,,ISIC_6877295.JPG,142,true,ll,keypress(f),0,false,519303.10000000894,519302.8000000119,508502.935,508703,508519.9,519119.911,1,40,5,
sequence,flow.Sequence,6_4,2023-11-15T21:44:53.403Z,,,,,,,,,,10782.900000011898,completion,,,,,,,low,low,,,,,,true,,,,false,519303.60000000894,519302.8000000119,508502.935,508702.90000000596,508519.9,519119.911,1,40,,
trial,html.Screen,6_5_0,2023-11-15T21:45:03.056Z,,,,1,-0.9191486333136276,-1.001866590114321,,true,hh,9836.289000002958,response,0.9254369922344792,0.9499999999999997,-0.9499999999999997,0.801722142776163,0.9499999999999997,-0.9499999999999997,high,high,,ISIC_0663941.JPG,,ISIC_3236964.JPG,167,true,hh,keypress(i),0,false,528956.3000000119,528956.200000003,519103.023,519303.700000003,519119.911,528769.791,1,40,6,
sequence,flow.Sequence,6_5,2023-11-15T21:45:03.056Z,,,,,,,,,,9836.289000002958,completion,,,,,,,high,high,,,,,,true,,,,false,528956.5,528956.200000003,519103.023,519303.700000003,519119.911,528769.791,1,40,,
trial,html.Screen,6_6_0,2023-11-15T21:45:11.516Z,,,,1,0.948927472020595,-1.0660437155921598,,true,lh,8645.009000011953,response,-0.7784583866003763,0.9499999999999997,-0.9499999999999997,0.9641514808986528,0.9499999999999997,-0.9499999999999997,low,high,,ISIC_5808758.JPG,,ISIC_0011924.JPG,28,true,lh,keypress(e),0,false,537415.1000000089,537414.8000000119,528753.029,528956.5,528769.791,537236.493,1,40,7,
sequence,flow.Sequence,6_6,2023-11-15T21:45:11.517Z,,,,,,,,,,8645.009000011953,completion,,,,,,,low,high,,,,,,true,,,,false,537415.5,537414.8000000119,528753.029,528956.5,528769.791,537236.493,1,40,,
trial,html.Screen,6_7_0,2023-11-15T21:45:21.547Z,,,,1,1.0022829373011404,-0.8311726972863814,,true,lh,10209.506999999983,response,-0.8534691366511764,0.9499999999999997,-0.9499999999999997,1.03975580494588,0.9499999999999997,-0.9499999999999997,low,high,,ISIC_0033287.JPG,,ISIC_0056788.JPG,28,true,lh,keypress(e),0,false,547446.3000000119,547446,537219.723,537415.700000003,537236.493,547270.03,1,40,8,
sequence,flow.Sequence,6_7,2023-11-15T21:45:21.548Z,,,,,,,,,,10209.506999999983,completion,,,,,,,low,high,,,,,,true,,,,false,547446.700000003,547446,537219.723,537415.700000003,537236.493,547270.03,1,40,,
trial,html.Screen,6_8_0,2023-11-15T21:45:32.131Z,,,,1,-0.9493297220358412,-0.9126122723623854,,true,hh,10759.969999999972,response,1.0529768630659295,0.9499999999999997,-0.9499999999999997,0.7530547977543617,0.9499999999999997,-0.9499999999999997,high,high,,ISIC_9738202.JPG,,ISIC_0067743.JPG,167,true,hh,keypress(i),0,false,558030.200000003,558030,547253.021,547446.900000006,547270.03,557853.131,1,40,9,
sequence,flow.Sequence,6_8,2023-11-15T21:45:32.132Z,,,,,,,,,,10759.969999999972,completion,,,,,,,high,high,,,,,,true,,,,false,558030.6000000089,558030,547253.021,547446.8000000119,547270.03,557853.131,1,40,,
trial,html.Screen,6_9_0,2023-11-15T21:45:43.003Z,,,,1,0.7593404817744267,0.8064601045837071,,,,10866.625,timeout,-1.0230514974175424,0.9499999999999997,-0.9499999999999997,-0.9473579617457568,0.9499999999999997,-0.9499999999999997,low,low,,ISIC_0010278.JPG,,ISIC_0012037.JPG,142,true,,,0,false,568902.1000000089,568902.1000000089,557836.204,558030.700000003,557853.131,568719.756,1,40,10,
sequence,flow.Sequence,6_9,2023-11-15T21:45:43.004Z,,,,,,,,,,11048.969000008889,completion,,,,,,,low,low,,,,,,true,,,,false,568902.3000000119,568902.1000000089,557836.204,558030.700000003,557853.131,568719.756,1,40,,
trial,html.Screen,6_10_0,2023-11-15T21:45:51.131Z,,,,1,-0.8487429103619056,0.9778257804233036,,true,hl,8309.743999999948,response,0.7911024675435955,0.9499999999999997,-0.9499999999999997,-0.7975977016137676,0.9499999999999997,-0.9499999999999997,high,low,,ISIC_4554863.JPG,,ISIC_5813642.JPG,26,true,hl,keypress(j),0,false,577029.8000000119,577029.5,568703.175,568902.400000006,568719.756,576853.237,1,40,11,
sequence,flow.Sequence,6_10,2023-11-15T21:45:51.131Z,,,,,,,,,,8309.743999999948,completion,,,,,,,high,low,,,,,,true,,,,false,577030.200000003,577029.5,568703.175,568902.400000006,568719.756,576853.237,1,40,,
trial,html.Screen,6_11_0,2023-11-15T21:45:57.515Z,,,,1,-0.9031332540970408,-0.853200189915778,,true,hh,6560.363000008976,response,0.8691120116185356,0.9499999999999997,-0.9499999999999997,0.7932562349979263,0.9499999999999997,-0.9499999999999997,high,high,,ISIC_4679971.JPG,,ISIC_0031350.JPG,167,true,hh,keypress(i),0,false,583413.900000006,583413.6000000089,576836.214,577030.400000006,576853.237,583236.596,1,40,12,
sequence,flow.Sequence,6_11,2023-11-15T21:45:57.516Z,,,,,,,,,,6560.363000008976,completion,,,,,,,high,high,,,,,,true,,,,false,583414.3000000119,583413.6000000089,576836.214,577030.3000000119,576853.237,583236.596,1,40,,
trial,html.Screen,6_12_0,2023-11-15T21:46:05.641Z,,,,1,0.8597768256741747,1.1001121427563445,,true,ll,8303.40399999998,response,-0.871738172024263,0.9499999999999997,-0.9499999999999997,-0.7713423219315299,0.9499999999999997,-0.9499999999999997,low,low,,ISIC_5922588.JPG,,ISIC_0031680.JPG,142,true,ll,keypress(f),0,false,591540.1000000089,591540,583219.685,583414.700000003,583236.596,591352.988,1,40,13,
sequence,flow.Sequence,6_12,2023-11-15T21:46:05.641Z,,,,,,,,,,8303.40399999998,completion,,,,,,,low,low,,,,,,true,,,,false,591540.200000003,591540,583219.685,583414.6000000089,583236.596,591352.988,1,40,,
trial,html.Screen,6_13_0,2023-11-15T21:46:14.341Z,,,,1,0.8035152873995188,-0.82868450251632,,true,lh,8884.812000011909,response,-1.020990671779317,0.9499999999999997,-0.9499999999999997,1.0116513850520903,0.9499999999999997,-0.9499999999999997,low,high,,ISIC_0010671.JPG,,ISIC_0011995.JPG,28,true,lh,keypress(e),0,false,600238.1000000089,600237.8000000119,591336.275,591540.200000003,591352.988,600052.955,1,40,14,
sequence,flow.Sequence,6_13,2023-11-15T21:46:14.341Z,,,,,,,,,,8884.812000011909,completion,,,,,,,low,high,,,,,,true,,,,false,600238.400000006,600237.8000000119,591336.275,591540.200000003,591352.988,600052.955,1,40,,
trial,html.Screen,6_14_0,2023-11-15T21:46:21.637Z,,,,1,-1.0393236111814752,-0.850194793725365,,true,hh,7481.645000008983,response,0.8125930874051923,0.9499999999999997,-0.9499999999999997,1.10562749024409,0.9499999999999997,-0.9499999999999997,high,high,,ISIC_8427534.JPG,,ISIC_0072748.JPG,167,true,hh,keypress(i),0,false,607534.900000006,607534.6000000089,600036.242,600238.6000000089,600052.955,607353.014,1,40,15,
sequence,flow.Sequence,6_14,2023-11-15T21:46:21.638Z,,,,,,,,,,7481.645000008983,completion,,,,,,,high,high,,,,,,true,,,,false,607535.3000000119,607534.6000000089,600036.242,600238.5,600052.955,607353.014,1,40,,
trial,html.Screen,6_15_0,2023-11-15T21:46:31.139Z,,,,1,-0.8860551570327019,0.8067116931297591,,true,hl,9683.286000011954,response,0.8816288864119318,0.9499999999999997,-0.9499999999999997,-0.801867301188093,0.9499999999999997,-0.9499999999999997,high,low,,ISIC_1457687.JPG,,ISIC_9196783.JPG,26,true,hl,keypress(j),0,false,617036.5,617036.3000000119,607336.224,607535.6000000089,607353.014,616852.907,1,40,16,
sequence,flow.Sequence,6_15,2023-11-15T21:46:31.139Z,,,,,,,,,,9683.286000011954,completion,,,,,,,high,low,,,,,,true,,,,false,617036.700000003,617036.3000000119,607336.224,607535.6000000089,607353.014,616852.907,1,40,,
trial,html.Screen,6_16_0,2023-11-15T21:46:35.181Z,,,,1,-0.7877939497981142,0.8415032780288271,,true,hl,4224.793000002974,response,0.8816288864119318,0.9499999999999997,-0.9499999999999997,-0.801867301188093,0.9499999999999997,-0.9499999999999997,high,low,,ISIC_0067308.JPG,,ISIC_9196783.JPG,26,true,hl,keypress(j),0,false,621078.1000000089,621077.700000003,616836.064,617036.900000006,616852.907,620903.11,1,40,17,
sequence,flow.Sequence,6_16,2023-11-15T21:46:35.181Z,,,,,,,,,,4224.793000002974,completion,,,,,,,high,low,,,,,,true,,,,false,621078.400000006,621077.700000003,616836.064,617036.900000006,616852.907,620903.11,1,40,,
trial,html.Screen,6_17_0,2023-11-15T21:46:41.987Z,,,,1,-0.9962130178668478,-1.0198919808587756,,true,hh,6980.690000011935,response,0.9303292478996148,0.9499999999999997,-0.9499999999999997,1.0396291493634244,0.9499999999999997,-0.9499999999999997,high,high,,ISIC_0595080.JPG,,ISIC_0068580.JPG,167,true,hh,keypress(i),0,false,627884,627883.8000000119,620869.716,621078.700000003,620903.11,627702.889,1,40,18,
sequence,flow.Sequence,6_17,2023-11-15T21:46:41.987Z,,,,,,,,,,6980.690000011935,completion,,,,,,,high,high,,,,,,true,,,,false,627884,627883.8000000119,620869.716,621078.6000000089,620903.11,627702.889,1,40,,
trial,html.Screen,6_18_0,2023-11-15T21:46:48.517Z,,,,1,-0.8399678098416189,-0.7546375633653641,,false,hh,6711.311000003014,response,0.9152802917888962,0.9499999999999997,-0.9499999999999997,0.8414601987949015,0.9499999999999997,-0.9499999999999997,high,high,,ISIC_3994250.JPG,,ISIC_0060341.JPG,167,true,hl,keypress(j),0,false,634414.400000006,634414.200000003,627686.261,627884.200000003,627702.889,634236.445,1,40,19,
sequence,flow.Sequence,6_18,2023-11-15T21:46:48.517Z,,,,,,,,,,6711.311000003014,completion,,,,,,,high,high,,,,,,true,,,,false,634414.900000006,634414.200000003,627686.261,627884.200000003,627702.889,634236.445,1,40,,
trial,html.Screen,6_19_0,2023-11-15T21:46:54.453Z,,,,1,0.8623414234919863,-0.782830143980698,,true,lh,6113.7550000030315,response,-0.8534691366511764,0.9499999999999997,-0.9499999999999997,1.03975580494588,0.9499999999999997,-0.9499999999999997,low,high,,ISIC_2727016.JPG,,ISIC_0056788.JPG,28,true,lh,keypress(e),0,false,640350.400000006,640350.200000003,634219.52,634415.1000000089,634236.445,640169.607,1,40,20,
sequence,flow.Sequence,6_19,2023-11-15T21:46:54.453Z,,,,,,,,,,6113.7550000030315,completion,,,,,,,low,high,,,,,,true,,,,false,640350.8000000119,640350.200000003,634219.52,634415,634236.445,640169.607,1,40,,
trial,html.Screen,6_20_0,2023-11-15T21:47:02.002Z,,,,1,0.8023139365538781,0.8089024151174812,,true,ll,7730.09300000302,response,-0.9102336581208296,0.9499999999999997,-0.9499999999999997,-1.0305113346799688,0.9499999999999997,-0.9499999999999997,low,low,,ISIC_3897960.JPG,,ISIC_0068530.JPG,142,true,ll,keypress(f),0,false,647899.8000000119,647899.700000003,640152.825,640351,640169.607,647719.504,1,40,21,
sequence,flow.Sequence,6_20,2023-11-15T21:47:02.002Z,,,,,,,,,,7730.09300000302,completion,,,,,,,low,low,,,,,,true,,,,false,647899.900000006,647899.700000003,640152.825,640351,640169.607,647719.504,1,40,,
trial,html.Screen,6_21_0,2023-11-15T21:47:05.508Z,,,,1,1.0678895386758027,1.0279759018569252,,true,ll,3685.5960000089835,response,-1.0909285203537074,0.9499999999999997,-0.9499999999999997,-1.013890238726642,0.9499999999999997,-0.9499999999999997,low,low,,ISIC_0069933.JPG,,ISIC_0033799.JPG,142,true,ll,keypress(f),0,false,651405.3000000119,651405.1000000089,647702.661,647899.900000006,647719.504,651219.492,1,40,22,
sequence,flow.Sequence,6_21,2023-11-15T21:47:05.508Z,,,,,,,,,,3685.5960000089835,completion,,,,,,,low,low,,,,,,true,,,,false,651405.700000003,651405.1000000089,647702.661,647899.900000006,647719.504,651219.492,1,40,,
trial,html.Screen,6_22_0,2023-11-15T21:47:12.868Z,,,,1,-0.8860551570327019,0.8067116931297591,,true,hl,7544.808000011952,response,1.0022829373011404,0.9499999999999997,-0.9499999999999997,-0.8311726972863814,0.9499999999999997,-0.9499999999999997,high,low,,ISIC_1457687.JPG,,ISIC_0033287.JPG,26,true,hl,keypress(j),0,false,658764.3000000119,658764.3000000119,651202.911,651405.900000006,651219.492,658586.118,1,40,23,
sequence,flow.Sequence,6_22,2023-11-15T21:47:12.868Z,,,,,,,,,,7544.808000011952,completion,,,,,,,high,low,,,,,,true,,,,false,658764.5,658764.3000000119,651202.911,651405.900000006,651219.492,658586.118,1,40,,
trial,html.Screen,6_23_0,2023-11-15T21:47:19.262Z,,,,1,0.887838744955182,-0.7545096650863988,,true,lh,6571.881999999983,response,-0.8860551570327019,0.9499999999999997,-0.9499999999999997,0.8067116931297591,0.9499999999999997,-0.9499999999999997,low,high,,ISIC_1488727.JPG,,ISIC_1457687.JPG,28,true,lh,keypress(e),0,false,665158.3000000119,665158,658569.383,658764.5,658586.118,664969.496,1,40,24,
sequence,flow.Sequence,6_23,2023-11-15T21:47:19.263Z,,,,,,,,,,6571.881999999983,completion,,,,,,,low,high,,,,,,true,,,,false,665158.700000003,665158,658569.383,658764.5,658586.118,664969.496,1,40,,
trial,html.Screen,6_24_0,2023-11-15T21:47:23.174Z,,,,1,1.0022829373011404,-0.8311726972863814,,false,lh,4100.003999999957,response,-0.8979276789594874,0.9499999999999997,-0.9499999999999997,0.925374811016654,0.9499999999999997,-0.9499999999999997,low,high,,ISIC_0033287.JPG,,ISIC_4208361.JPG,28,true,ll,keypress(f),0,false,669069.8000000119,669069.5,664952.833,665158.900000006,664969.496,668886.189,1,40,25,
sequence,flow.Sequence,6_24,2023-11-15T21:47:23.174Z,,,,,,,,,,4100.003999999957,completion,,,,,,,low,high,,,,,,true,,,,false,669070.3000000119,669069.5,664952.833,665158.8000000119,664969.496,668886.189,1,40,,
trial,html.Screen,6_25_0,2023-11-15T21:47:27.717Z,,,,1,0.8200962008791046,-0.7936051642828523,,true,lh,4727.011000002967,response,-0.991282840649944,0.9499999999999997,-0.9499999999999997,0.9397921099839784,0.9499999999999997,-0.9499999999999997,low,high,,ISIC_0027031.JPG,,ISIC_0000463.JPG,28,true,lh,keypress(e),0,false,673613.6000000089,673613.200000003,668869.552,669070.5,668886.189,673436.35,1,40,26,
sequence,flow.Sequence,6_25,2023-11-15T21:47:27.718Z,,,,,,,,,,4727.011000002967,completion,,,,,,,low,high,,,,,,true,,,,false,673613.900000006,673613.200000003,668869.552,669070.400000006,668886.189,673436.35,1,40,,
trial,html.Screen,6_26_0,2023-11-15T21:47:37.502Z,,,,1,0.9873794329144926,-0.7991077882008257,,false,lh,9961.850000003004,response,-1.020990671779317,0.9499999999999997,-0.9499999999999997,1.0116513850520903,0.9499999999999997,-0.9499999999999997,low,high,,ISIC_0013498.JPG,,ISIC_0011995.JPG,28,true,ll,keypress(f),0,false,683398.400000006,683398.200000003,673419.552,673614.200000003,673436.35,683219.619,1,40,27,
sequence,flow.Sequence,6_26,2023-11-15T21:47:37.503Z,,,,,,,,,,9961.850000003004,completion,,,,,,,low,high,,,,,,true,,,,false,683398.700000003,683398.200000003,673419.552,673614.1000000089,673436.35,683219.619,1,40,,
trial,html.Screen,6_27_0,2023-11-15T21:47:45.813Z,,,,1,0.8023139365538781,0.8089024151174812,,true,ll,8489.381000000052,response,-0.9149803805834588,0.9499999999999997,-0.9499999999999997,-0.7596912841144952,0.9499999999999997,-0.9499999999999997,low,low,,ISIC_3897960.JPG,,ISIC_4879187.JPG,142,true,ll,keypress(f),0,false,691709.3000000119,691709,683202.632,683399,683219.619,691519.428,1,40,28,
sequence,flow.Sequence,6_27,2023-11-15T21:47:45.814Z,,,,,,,,,,8489.381000000052,completion,,,,,,,low,low,,,,,,true,,,,false,691709.6000000089,691709,683202.632,683398.900000006,683219.619,691519.428,1,40,,
trial,html.Screen,6_28_0,2023-11-15T21:47:51.332Z,,,,1,-0.8093923499033241,-1.102485543525293,,true,hh,5708.872000011965,response,0.8809051780367407,0.9499999999999997,-0.9499999999999997,1.044525830449456,0.9499999999999997,-0.9499999999999997,high,high,,ISIC_1208705.JPG,,ISIC_0029212.JPG,167,true,hh,keypress(i),0,false,697228.400000006,697228.3000000119,691502.641,691709.8000000119,691519.428,697054.071,1,40,29,
sequence,flow.Sequence,6_28,2023-11-15T21:47:51.332Z,,,,,,,,,,5708.872000011965,completion,,,,,,,high,high,,,,,,true,,,,false,697228.5,697228.3000000119,691502.641,691709.8000000119,691519.428,697054.071,1,40,,
trial,html.Screen,6_29_0,2023-11-15T21:47:57.308Z,,,,1,-0.990489579313564,0.7747897983133127,,true,hl,6150.029000008944,response,0.7911024675435955,0.9499999999999997,-0.9499999999999997,-0.7975977016137676,0.9499999999999997,-0.9499999999999997,high,low,,ISIC_7030404.JPG,,ISIC_5813642.JPG,26,true,hl,keypress(j),0,false,703204.1000000089,703204.1000000089,697019.419,697228.6000000089,697054.071,703019.365,1,40,30,
sequence,flow.Sequence,6_29,2023-11-15T21:47:57.308Z,,,,,,,,,,6150.029000008944,completion,,,,,,,high,low,,,,,,true,,,,false,703204.400000006,703204.1000000089,697019.419,697228.6000000089,697054.071,703019.365,1,40,,
trial,html.Screen,6_30_0,2023-11-15T21:48:05.230Z,,,,1,0.8909652099281345,0.7550834643357679,,true,ll,8106.73500000895,response,-1.0393236111814752,0.9499999999999997,-0.9499999999999997,-0.850194793725365,0.9499999999999997,-0.9499999999999997,low,low,,ISIC_7501061.JPG,,ISIC_8427534.JPG,142,true,ll,keypress(f),0,false,711126.3000000119,711126.1000000089,703002.706,703204.400000006,703019.365,710936.051,1,40,31,
sequence,flow.Sequence,6_30,2023-11-15T21:48:05.231Z,,,,,,,,,,8106.73500000895,completion,,,,,,,low,low,,,,,,true,,,,false,711126.700000003,711126.1000000089,703002.706,703204.400000006,703019.365,710936.051,1,40,,
trial,html.Screen,6_31_0,2023-11-15T21:48:15.183Z,,,,1,-0.8150954316817084,-1.1100289789666156,,true,hh,10141.149000003003,response,0.829909234884455,0.9499999999999997,-0.9499999999999997,1.0304874376319082,0.9499999999999997,-0.9499999999999997,high,high,,ISIC_0026552.JPG,,ISIC_9211072.JPG,167,true,hh,keypress(i),0,false,721077.3000000119,721077.200000003,710919.272,711127,710936.051,720885.928,1,40,32,
sequence,flow.Sequence,6_31,2023-11-15T21:48:15.183Z,,,,,,,,,,10141.149000003003,completion,,,,,,,high,high,,,,,,true,,,,false,721077.400000006,721077.200000003,710919.272,711126.900000006,710936.051,720885.928,1,40,,
trial,html.Screen,6_32_0,2023-11-15T21:48:21.582Z,,,,1,0.7916641003387539,0.8795523971208432,,false,ll,6590.472000006004,response,-1.0097932576366906,0.9499999999999997,-0.9499999999999997,-1.0644834610939486,0.9499999999999997,-0.9499999999999997,low,low,,ISIC_0069635.JPG,,ISIC_8559515.JPG,142,true,lh,keypress(e),0,false,727476.5,727476.400000006,720869.214,721077.5,720885.928,727285.922,1,40,33,
sequence,flow.Sequence,6_32,2023-11-15T21:48:21.582Z,,,,,,,,,,6590.472000006004,completion,,,,,,,low,low,,,,,,true,,,,false,727476.6000000089,727476.400000006,720869.214,721077.5,720885.928,727285.922,1,40,,
trial,html.Screen,6_33_0,2023-11-15T21:48:28.391Z,,,,1,-1.0909285203537074,-1.013890238726642,,true,hh,6999.27800000296,response,0.8145925452767395,0.9499999999999997,-0.9499999999999997,1.1209497725708388,0.9499999999999997,-0.9499999999999997,high,high,,ISIC_0033799.JPG,,ISIC_0027751.JPG,167,true,hh,keypress(i),0,false,734285.6000000089,734285.200000003,727269.261,727476.6000000089,727285.922,734102.654,1,40,34,
sequence,flow.Sequence,6_33,2023-11-15T21:48:28.391Z,,,,,,,,,,6999.27800000296,completion,,,,,,,high,high,,,,,,true,,,,false,734285.900000006,734285.200000003,727269.261,727476.6000000089,727285.922,734102.654,1,40,,
trial,html.Screen,6_34_0,2023-11-15T21:48:33.200Z,,,,1,0.8655167308525522,-0.9298580423306444,,true,lh,4991.24600000598,response,-0.991282840649944,0.9499999999999997,-0.9499999999999997,0.9397921099839784,0.9499999999999997,-0.9499999999999997,low,high,,ISIC_4603706.JPG,,ISIC_0000463.JPG,28,true,lh,keypress(e),0,false,739094.200000003,739093.900000006,734085.944,734286.1000000089,734102.654,738919.688,1,40,35,
sequence,flow.Sequence,6_34,2023-11-15T21:48:33.200Z,,,,,,,,,,4991.24600000598,completion,,,,,,,low,high,,,,,,true,,,,false,739094.6000000089,739093.900000006,734085.944,734286.1000000089,734102.654,738919.688,1,40,,
trial,html.Screen,6_35_0,2023-11-15T21:48:39.151Z,,,,1,0.838053327796249,0.8312425167370745,,false,ll,6125.412000008975,response,-0.8849616197102024,0.9499999999999997,-0.9499999999999997,-0.8708774591990956,0.9499999999999997,-0.9499999999999997,low,low,,ISIC_4834687.JPG,,ISIC_2872107.JPG,142,true,hh,keypress(i),0,false,745045.400000006,745045.1000000089,738886.06,739094.8000000119,738919.688,744869.399,1,40,36,
sequence,flow.Sequence,6_35,2023-11-15T21:48:39.151Z,,,,,,,,,,6125.412000008975,completion,,,,,,,low,low,,,,,,true,,,,false,745045.8000000119,745045.1000000089,738886.06,739094.8000000119,738919.688,744869.399,1,40,,
trial,html.Screen,6_36_0,2023-11-15T21:48:46.853Z,,,,1,-0.8979276789594874,0.925374811016654,,true,hl,7878.301000003004,response,1.0164576835546473,0.9499999999999997,-0.9499999999999997,-0.8120626538423016,0.9499999999999997,-0.9499999999999997,high,low,,ISIC_4208361.JPG,,ISIC_6002694.JPG,26,true,hl,keypress(j),0,false,752747.8000000119,752747.700000003,744852.485,745046,744869.399,752569.315,1,40,37,
sequence,flow.Sequence,6_36,2023-11-15T21:48:46.853Z,,,,,,,,,,7878.301000003004,completion,,,,,,,high,low,,,,,,true,,,,false,752748,752747.700000003,744852.485,745046,744869.399,752569.315,1,40,,
trial,html.Screen,6_37_0,2023-11-15T21:48:54.541Z,,,,1,-0.8179805381029407,0.8578467162767749,,false,hl,7866.485000011977,response,0.991146183030456,0.9499999999999997,-0.9499999999999997,-0.9949639823722534,0.9499999999999997,-0.9499999999999997,high,low,,ISIC_0067253.JPG,,ISIC_6342224.JPG,26,true,lh,keypress(e),0,false,760436,760435.8000000119,752552.279,752748.1000000089,752569.315,760252.529,1,40,38,
sequence,flow.Sequence,6_37,2023-11-15T21:48:54.541Z,,,,,,,,,,7866.485000011977,completion,,,,,,,high,low,,,,,,true,,,,false,760436.1000000089,760435.8000000119,752552.279,752748,752569.315,760252.529,1,40,,
trial,html.Screen,6_38_0,2023-11-15T21:49:00.037Z,,,,1,-0.8919560546669082,-0.809906745076789,,true,hh,5679.2710000119405,response,0.7532157061562929,0.9499999999999997,-0.9499999999999997,1.0469383288898104,0.9499999999999997,-0.9499999999999997,high,high,,ISIC_8086526.JPG,,ISIC_0058926.JPG,167,true,hh,keypress(i),0,false,765931.900000006,765931.8000000119,760235.766,760436.200000003,760252.529,765752.733,1,40,39,
sequence,flow.Sequence,6_38,2023-11-15T21:49:00.037Z,,,,,,,,,,5679.2710000119405,completion,,,,,,,high,high,,,,,,true,,,,false,765931.900000006,765931.8000000119,760235.766,760436.1000000089,760252.529,765752.733,1,40,,
trial,html.Screen,6_39_0,2023-11-15T21:49:05.271Z,,,,1,0.7911024675435955,-0.7975977016137676,,false,lh,5412.867000008933,response,-1.0865333402803938,0.9499999999999997,-0.9499999999999997,1.0542635307358266,0.9499999999999997,-0.9499999999999997,low,high,,ISIC_5813642.JPG,,ISIC_0034006.JPG,28,true,ll,keypress(f),0,false,771165.900000006,771165.6000000089,765735.735,765932,765752.733,770985.893,1,40,40,
sequence,flow.Sequence,6_39,2023-11-15T21:49:05.272Z,,,,,,,,,,5412.867000008933,completion,,,,,,,low,high,,,,,,true,,,,false,771166.3000000119,771165.6000000089,765735.735,765932,765752.733,770985.893,1,40,,
practice_loop,flow.Loop,6,2023-11-15T21:49:05.272Z,,,,,,,,,,295245.6610000089,completion,,,,,,,,,,,,,,true,,,,false,771166.6000000089,771165.6000000089,475903.279,476099.90000000596,475919.939,770985.893,1,40,,
stair_instructions,html.Screen,7,2023-11-15T21:49:20.694Z,,,,,,,,,,15601.00700000592,response,,,,,,,,,,,,,,,continue,click button,,,786587.3000000119,786586.900000006,770969.247,771166.700000003,770985.893,786402.504,,,,
trial,html.Screen,8_0_0,2023-11-15T21:49:31.563Z,,,,2,0.0070725527271049,0.0049995141077508,,,,10866.574000000022,timeout,1.1254252603792554,0.9499999999999997,-0.9499999999999997,1.0263116781284176,0.9499999999999997,-0.9499999999999997,high,high,,ISIC_6124481.JPG,,ISIC_0032420.JPG,167,false,,,0,true,797456.700000003,797456.6000000089,786386.057,786587.400000006,786402.504,797269.078,1,40,1,
sequence,flow.Sequence,8_0,2023-11-15T21:49:31.563Z,,,,,,,,,,11054.096000008984,completion,,,,,,,high,high,,,,,,false,,,,true,797456.8000000119,797456.6000000089,786386.057,786587.400000006,786402.504,797269.078,1,40,,
trial,html.Screen,8_1_0,2023-11-15T21:49:37.561Z,,,,2,0.0660839342637046,-0.0657899819532072,,false,lh,6185.822000005981,response,-0.858338058340649,0.9499999999999997,-0.9499999999999997,0.9540612223480284,0.9499999999999997,-0.9499999999999997,low,high,,ISIC_0065477.JPG,,ISIC_8922893.JPG,28,false,ll,keypress(f),0,true,803455.200000003,803454.900000006,797252.494,797456.900000006,797269.078,803285.719,1,40,2,
sequence,flow.Sequence,8_1,2023-11-15T21:49:37.562Z,,,,,,,,,,6185.822000005981,completion,,,,,,,low,high,,,,,,false,,,,true,803455.5,803454.900000006,797252.494,797456.8000000119,797269.078,803285.719,1,40,,
trial,html.Screen,8_2_0,2023-11-15T21:49:43.159Z,,,,2,0.0538169356437535,-0.0113486191005169,,false,lh,5766.481000002939,response,-0.8487429103619056,0.9499999999999997,-0.9499999999999997,0.9778257804233036,0.9999999999999998,-0.9499999999999997,low,high,,ISIC_0009939.JPG,,ISIC_4554863.JPG,26,false,ll,keypress(f),0,true,809052.3000000119,809052.200000003,803269.046,803455.700000003,803285.719,808869.247,1,40,3,
sequence,flow.Sequence,8_2,2023-11-15T21:49:43.159Z,,,,,,,,,,5766.481000002939,completion,,,,,,,low,high,,,,,,false,,,,true,809052.5,809052.200000003,803269.046,803455.6000000089,803285.719,808869.247,1,40,,
trial,html.Screen,8_3_0,2023-11-15T21:49:48.392Z,,,,2,-0.0112310719058792,0.0469047359904117,,false,hh,5416.053000011947,response,0.8835058339726064,0.9499999999999997,-0.8035404843512772,1.035612893059322,1.0499999999999998,-0.9499999999999997,high,high,,ISIC_0068184.JPG,,ISIC_0069595.JPG,133,false,hl,keypress(j),0,true,814285.6000000089,814285.3000000119,808852.347,809052.5,808869.247,814102.344,1,40,4,
sequence,flow.Sequence,8_3,2023-11-15T21:49:48.392Z,,,,,,,,,,5416.053000011947,completion,,,,,,,high,high,,,,,,false,,,,true,814286,814285.3000000119,808852.347,809052.5,808869.247,814102.344,1,40,,
trial,html.Screen,8_4_0,2023-11-15T21:49:53.889Z,,,,2,0.0111354529246037,-0.0585810480909377,,false,lh,5679.95600001188,response,-0.7083588209645494,0.9499999999999997,-0.8035404843512772,1.1496804492673935,1.0999999999999999,-0.9499999999999997,low,high,,ISIC_7858034.JPG,,ISIC_0047004.JPG,32,false,ll,keypress(f),0,true,819782.6000000089,819782.3000000119,814085.649,814286.200000003,814102.344,819602.547,1,40,5,
sequence,flow.Sequence,8_4,2023-11-15T21:49:53.889Z,,,,,,,,,,5679.95600001188,completion,,,,,,,low,high,,,,,,false,,,,true,819783,819782.3000000119,814085.649,814286.200000003,814102.344,819602.547,1,40,,
trial,html.Screen,8_5_0,2023-11-15T21:49:58.864Z,,,,2,-0.0134764727102299,-0.0033499036460912,,false,ll,5154.55300000892,response,-0.8755959065262388,0.9499999999999997,-0.8035404843512772,-1.093284184366194,1.15,-0.9499999999999997,low,low,,ISIC_0009998.JPG,,ISIC_8096177.JPG,181,false,lh,keypress(e),0,true,824757.400000006,824757.1000000089,819585.76,819783.1000000089,819602.547,824569.009,1,40,6,
sequence,flow.Sequence,8_5,2023-11-15T21:49:58.864Z,,,,,,,,,,5154.55300000892,completion,,,,,,,low,low,,,,,,false,,,,true,824757.8000000119,824757.1000000089,819585.76,819783.1000000089,819602.547,824569.009,1,40,,
trial,html.Screen,8_6_0,2023-11-15T21:50:02.440Z,,,,2,0.0640778296621707,0.0387686079545705,,false,hl,3763.8910000059986,response,0.7723849213858904,0.9499999999999997,-0.741977363745394,-0.888372424147899,1.15,-0.9999999999999998,high,low,,ISIC_0010124.JPG,,ISIC_3884221.JPG,20,false,hh,keypress(i),0,true,828333.200000003,828332.900000006,824552.295,824758,824569.009,828152.497,1,40,7,
sequence,flow.Sequence,8_6,2023-11-15T21:50:02.440Z,,,,,,,,,,3763.8910000059986,completion,,,,,,,high,low,,,,,,false,,,,true,828333.5,828332.900000006,824552.295,824758,824569.009,828152.497,1,40,,
trial,html.Screen,8_7_0,2023-11-15T21:50:07.992Z,,,,2,-0.009234249673026,-0.0627190878028592,,true,hh,5732.803000011947,response,0.9342143229318964,0.8999999999999997,-0.741977363745394,1.195482218669593,1.15,-1.0499999999999998,high,high,,ISIC_0053760.JPG,,ISIC_8073555.JPG,135,false,hh,keypress(i),0,true,833885.5,833885.3000000119,828135.819,828333.700000003,828152.497,833702.292,1,40,8,
sequence,flow.Sequence,8_7,2023-11-15T21:50:07.992Z,,,,,,,,,,5732.803000011947,completion,,,,,,,high,high,,,,,,false,,,,true,833885.900000006,833885.3000000119,828135.819,828333.6000000089,828152.497,833702.292,1,40,,
trial,html.Screen,8_8_0,2023-11-15T21:50:13.446Z,,,,2,0.0660839342637046,-0.0657899819532072,,false,ll,5637.707999999984,response,-0.6094908590558786,0.8999999999999997,-0.741977363745394,-1.032178350142295,1.15,-1.0499999999999998,low,low,,ISIC_0065477.JPG,,ISIC_1929937.JPG,154,false,lh,keypress(e),0,true,839340,839340,833685.659,833886.1000000089,833702.292,839152.278,1,40,9,
sequence,flow.Sequence,8_8,2023-11-15T21:50:13.447Z,,,,,,,,,,5637.707999999984,completion,,,,,,,low,low,,,,,,false,,,,true,839340.1000000089,839340,833685.659,833886.1000000089,833702.292,839152.278,1,40,,
trial,html.Screen,8_9_0,2023-11-15T21:50:19.679Z,,,,2,-0.0112310719058792,0.0469047359904117,,false,hh,6420.522000011872,response,0.7014201857091904,0.8999999999999997,-0.741977363745394,1.013670467344924,1.15,-1.0999999999999999,high,high,,ISIC_0068184.JPG,,ISIC_0014541.JPG,135,false,hl,keypress(j),0,true,845573.1000000089,845572.8000000119,839135.735,839340.200000003,839152.278,845385.63,1,40,10,
sequence,flow.Sequence,8_9,2023-11-15T21:50:19.680Z,,,,,,,,,,6420.522000011872,completion,,,,,,,high,high,,,,,,false,,,,true,845573.5,845572.8000000119,839135.735,839340.200000003,839152.278,845385.63,1,40,,
trial,html.Screen,8_10_0,2023-11-15T21:50:24.568Z,,,,2,0.0651705891246238,-0.0394586219902573,,false,ll,5074.070000002976,response,-0.6906146087108894,0.8499999999999996,-0.741977363745394,-1.1055382068806878,1.15,-1.0999999999999999,low,low,,ISIC_0013491.JPG,,ISIC_5420979.JPG,138,false,lh,keypress(e),0,true,850459.8000000119,850459.700000003,845368.983,845573.700000003,845385.63,850268.928,1,40,11,
sequence,flow.Sequence,8_10,2023-11-15T21:50:24.568Z,,,,,,,,,,5074.070000002976,completion,,,,,,,low,low,,,,,,false,,,,true,850459.900000006,850459.700000003,845368.983,845573.700000003,845385.63,850268.928,1,40,,
trial,html.Screen,8_11_0,2023-11-15T21:50:31.041Z,,,,2,-0.0087912446525382,-0.0619041869188676,,true,hh,6663.772000003024,response,0.944747903577834,0.8499999999999996,-0.600052733883384,1.2864399389701904,1.15,-1.15,high,high,,ISIC_7185913.JPG,,ISIC_0010886.JPG,144,false,hh,keypress(i),0,true,856933,856932.700000003,850252.357,850459.900000006,850268.928,856752.312,1,40,12,
sequence,flow.Sequence,8_11,2023-11-15T21:50:31.041Z,,,,,,,,,,6663.772000003024,completion,,,,,,,high,high,,,,,,false,,,,true,856933.400000006,856932.700000003,850252.357,850459.900000006,850268.928,856752.312,1,40,,
trial,html.Screen,8_12_0,2023-11-15T21:50:37.282Z,,,,2,-0.000047919190197942736,-0.0462652940855003,,true,lh,6420.788000008906,response,-0.4617812919092862,0.8499999999999996,-0.600052733883384,1.3093851676075794,1.15,-1.15,low,high,,ISIC_0011507.JPG,,ISIC_0060962.JPG,32,false,lh,keypress(e),0,true,863173.400000006,863173.1000000089,856735.565,856933.6000000089,856752.312,862985.565,1,40,13,
sequence,flow.Sequence,8_12,2023-11-15T21:50:37.282Z,,,,,,,,,,6420.788000008906,completion,,,,,,,low,high,,,,,,false,,,,true,863173.8000000119,863173.1000000089,856735.565,856933.5,856752.312,862985.565,1,40,,
trial,html.Screen,8_13_0,2023-11-15T21:50:43.200Z,,,,2,-0.0737104822171846,0.0725320314728604,,false,lh,6106.035000008997,response,-0.4254747739173521,0.8499999999999996,-0.600052733883384,1.1054848532108617,1.0999999999999999,-1.15,low,high,,ISIC_0002862.JPG,,ISIC_0028412.JPG,37,false,hl,keypress(j),0,true,869091.6000000089,869091.6000000089,862968.707,863174.1000000089,862985.565,868902.185,1,40,14,
sequence,flow.Sequence,8_13,2023-11-15T21:50:43.200Z,,,,,,,,,,6106.035000008997,completion,,,,,,,low,high,,,,,,false,,,,true,869091.8000000119,869091.6000000089,862968.707,863174,862985.565,868902.185,1,40,,
trial,html.Screen,8_14_0,2023-11-15T21:50:48.873Z,,,,2,-0.0362376068089956,-0.047825070846155,,false,hl,5862.814999999944,response,0.7197989269080959,0.7999999999999996,-0.600052733883384,-0.9410141415297968,1.0999999999999999,-1.0999999999999999,high,low,,ISIC_6985114.JPG,,ISIC_2635051.JPG,24,false,hh,keypress(i),0,true,874765.200000003,874765,868885.598,869091.8000000119,868902.185,874585.577,1,40,15,
sequence,flow.Sequence,8_14,2023-11-15T21:50:48.874Z,,,,,,,,,,5862.814999999944,completion,,,,,,,high,low,,,,,,false,,,,true,874765.6000000089,874765,868885.598,869091.8000000119,868902.185,874585.577,1,40,,
trial,html.Screen,8_15_0,2023-11-15T21:50:53.305Z,,,,2,-0.0688801591312476,-0.0185462113313342,,false,lh,4611.422999999952,response,-0.6276303452161716,0.7499999999999996,-0.600052733883384,0.9740596249572724,1.0999999999999999,-1.15,low,high,,ISIC_0067723.JPG,,ISIC_9053910.JPG,37,false,hh,keypress(i),0,true,879197.3000000119,879197,874568.802,874765.8000000119,874585.577,879019.12,1,40,16,
sequence,flow.Sequence,8_15,2023-11-15T21:50:53.306Z,,,,,,,,,,4611.422999999952,completion,,,,,,,low,high,,,,,,false,,,,true,879197.700000003,879197,874568.802,874765.8000000119,874585.577,879019.12,1,40,,
trial,html.Screen,8_16_0,2023-11-15T21:51:01.217Z,,,,2,-0.0159061451859594,-0.0296598845560212,,false,ll,8089.880000000005,response,-0.5590074598439453,0.7499999999999996,-0.650052733883384,-1.0849425967246968,1.0999999999999999,-1.15,low,low,,ISIC_0072564.JPG,,ISIC_0064879.JPG,136,false,hl,keypress(j),0,true,887109.200000003,887109,879002.297,879197.900000006,879019.12,886918.86,1,40,17,
sequence,flow.Sequence,8_16,2023-11-15T21:51:01.218Z,,,,,,,,,,8089.880000000005,completion,,,,,,,low,low,,,,,,false,,,,true,887109.5,887109,879002.297,879197.8000000119,879019.12,886918.86,1,40,,
trial,html.Screen,8_17_0,2023-11-15T21:51:07.425Z,,,,2,-0.0348234368746005,0.0236866303880924,,true,ll,6397.940000011935,response,-0.6937605548587606,0.7499999999999996,-0.7000527338833841,-0.9854871691490024,1.0999999999999999,-1.15,low,low,,ISIC_0011099.JPG,,ISIC_6828892.JPG,130,false,ll,keypress(f),0,true,893317.1000000089,893316.8000000119,886902.091,887109.8000000119,886918.86,893135.474,1,40,18,
sequence,flow.Sequence,8_17,2023-11-15T21:51:07.425Z,,,,,,,,,,6397.940000011935,completion,,,,,,,low,low,,,,,,false,,,,true,893317.400000006,893316.8000000119,886902.091,887109.700000003,886918.86,893135.474,1,40,,
trial,html.Screen,8_18_0,2023-11-15T21:51:11.065Z,,,,2,-0.0737104822171846,0.0725320314728604,,false,hl,3821.126000008895,response,0.6386144741600837,0.7499999999999996,-0.7000527338833841,-0.9535552759852256,1.0999999999999999,-0.7896238620038815,high,low,,ISIC_0002862.JPG,,ISIC_1744817.JPG,75,false,hh,keypress(i),0,true,896956.8000000119,896956.6000000089,893118.614,893317.6000000089,893135.474,896768.823,1,40,19,
sequence,flow.Sequence,8_18,2023-11-15T21:51:11.065Z,,,,,,,,,,3821.126000008895,completion,,,,,,,high,low,,,,,,false,,,,true,896957.3000000119,896956.6000000089,893118.614,893317.6000000089,893135.474,896768.823,1,40,,
trial,html.Screen,8_19_0,2023-11-15T21:51:17.994Z,,,,2,0.0450282431170921,,,false,ll,7116.277000008966,response,-0.590768012349283,0.7499999999999996,-0.7000527338833841,-0.8569353899550831,1.0999999999999999,-0.8396238620038815,low,low,,ISIC_1805163.JPG,,ISIC_6912979.JPG,266,false,hh,keypress(i),0,true,903885.5,903885.1000000089,896752.07,896957.6000000089,896768.823,903702.11,1,40,20,
sequence,flow.Sequence,8_19,2023-11-15T21:51:17.994Z,,,,,,,,,,7116.277000008966,completion,,,,,,,low,low,,,,,,false,,,,true,903885.900000006,903885.1000000089,896752.07,896957.5,896768.823,903702.11,1,40,,
trial,html.Screen,8_20_0,2023-11-15T21:51:22.962Z,,,,2,0.0651705891246238,-0.0394586219902573,,false,hh,5150.590000002994,response,0.7379519079139953,0.7499999999999996,-0.7500527338833841,0.953619908523244,1.0999999999999999,-0.8896238620038815,high,high,,ISIC_0013491.JPG,,ISIC_0011435.JPG,167,false,hl,keypress(j),0,true,908852.900000006,908852.700000003,903685.512,903886,903702.11,908668.837,1,40,21,
sequence,flow.Sequence,8_20,2023-11-15T21:51:22.963Z,,,,,,,,,,5150.590000002994,completion,,,,,,,high,high,,,,,,false,,,,true,908853.3000000119,908852.700000003,903685.512,903886,903702.11,908668.837,1,40,,
trial,html.Screen,8_21_0,2023-11-15T21:51:30.563Z,,,,2,-0.0292059717970335,-0.0718256867525069,,false,hh,7784.063000005903,response,0.755448735026571,0.6382831910370395,-0.7500527338833841,1.32845627319459,1.15,-0.8896238620038815,high,high,,ISIC_1114966.JPG,,ISIC_3026660.JPG,155,false,hl,keypress(j),0,true,916453.1000000089,916452.900000006,908652.211,908853.5,908668.837,916285.447,1,40,22,
sequence,flow.Sequence,8_21,2023-11-15T21:51:30.563Z,,,,,,,,,,7784.063000005903,completion,,,,,,,high,high,,,,,,false,,,,true,916453.5,916452.900000006,908652.211,908853.400000006,908668.837,916285.447,1,40,,
trial,html.Screen,8_22_0,2023-11-15T21:51:34.722Z,,,,2,0.0544808612748248,-0.0240487075377862,,false,hl,4327.353000011877,response,0.7118141631588264,0.6382831910370395,-0.7500527338833841,-1.0369885917487718,1.15,-0.8896238620038815,high,low,,ISIC_4606646.JPG,,ISIC_6917681.JPG,74,false,hh,keypress(i),0,true,920613.1000000089,920612.8000000119,916252.078,916453.700000003,916285.447,920435.677,1,40,23,
sequence,flow.Sequence,8_22,2023-11-15T21:51:34.723Z,,,,,,,,,,4327.353000011877,completion,,,,,,,high,low,,,,,,false,,,,true,920613.5,920612.8000000119,916252.078,916453.700000003,916285.447,920435.677,1,40,,
trial,html.Screen,8_23_0,2023-11-15T21:51:40.091Z,,,,2,-0.0693466529227737,-0.044703434393184,,false,hl,5545.723000005935,response,0.6231695572160023,0.6836314490926987,-0.7500527338833841,-0.9598176954765794,1.15,-0.9396238620038816,high,low,,ISIC_0004217.JPG,,ISIC_0024297.JPG,59,false,hh,keypress(i),0,true,925981.8000000119,925981.400000006,920418.847,920613.6000000089,920435.677,925802.136,1,40,24,
sequence,flow.Sequence,8_23,2023-11-15T21:51:40.092Z,,,,,,,,,,5545.723000005935,completion,,,,,,,high,low,,,,,,false,,,,true,925982.1000000089,925981.400000006,920418.847,920613.5,920435.677,925802.136,1,40,,
trial,html.Screen,8_24_0,2023-11-15T21:51:46.609Z,,,,2,-0.0113873532168551,-0.0054999201556291,,false,hl,6697.363999999943,response,0.5595862418124089,0.6836314490926987,-0.7500527338833841,-0.875112239330555,1.15,-0.9896238620038816,high,low,,ISIC_8812621.JPG,,ISIC_1081051.JPG,47,false,lh,keypress(e),0,true,932499.6000000089,932499.5,925785.369,925982.3000000119,925802.136,932318.776,1,40,25,
sequence,flow.Sequence,8_24,2023-11-15T21:51:46.609Z,,,,,,,,,,6697.363999999943,completion,,,,,,,high,low,,,,,,false,,,,true,932499.8000000119,932499.5,925785.369,925982.3000000119,925802.136,932318.776,1,40,,
trial,html.Screen,8_25_0,2023-11-15T21:51:50.610Z,,,,2,0.0027483411352856,0.0100996915276271,,true,ll,4181.824000008986,response,-0.9493297220358412,0.7336314490926987,-0.7500527338833841,-0.9126122723623854,1.15,-1.0396238620038816,low,low,,ISIC_7364041.JPG,,ISIC_9738202.JPG,155,false,ll,keypress(f),0,true,936500.900000006,936500.6000000089,932302.007,932499.8000000119,932318.776,936318.719,1,40,26,
sequence,flow.Sequence,8_25,2023-11-15T21:51:50.611Z,,,,,,,,,,4181.824000008986,completion,,,,,,,low,low,,,,,,false,,,,true,936501.3000000119,936500.6000000089,932302.007,932499.8000000119,932318.776,936318.719,1,40,,
trial,html.Screen,8_26_0,2023-11-15T21:51:57.772Z,,,,2,0.0640778296621707,0.0387686079545705,,false,lh,7343.1810000059195,response,-0.7265003924540593,0.7336314490926987,-0.7500527338833841,1.3016394336708117,1.15,-1.0396238620038816,low,high,,ISIC_0010124.JPG,,ISIC_0027684.JPG,30,false,hh,keypress(i),0,true,943662.1000000089,943661.900000006,936301.906,936501.5,936318.719,943485.607,1,40,27,
sequence,flow.Sequence,8_26,2023-11-15T21:51:57.772Z,,,,,,,,,,7343.1810000059195,completion,,,,,,,low,high,,,,,,false,,,,true,943662.6000000089,943661.900000006,936301.906,936501.400000006,936318.719,943485.607,1,40,,
trial,html.Screen,8_27_0,2023-11-15T21:52:03.210Z,,,,2,-0.0531672914703651,0.0074883925434357,,false,hh,5614.993000008981,response,0.6474782069108704,0.7336314490926987,-0.8000527338833842,1.0581711446393522,1.15,-1.0396238620038816,high,high,,ISIC_4177043.JPG,,ISIC_0014987.JPG,154,false,hl,keypress(j),0,true,949101,949100.6000000089,943468.587,943662.8000000119,943485.607,948918.729,1,40,28,
sequence,flow.Sequence,8_27,2023-11-15T21:52:03.211Z,,,,,,,,,,5614.993000008981,completion,,,,,,,high,high,,,,,,false,,,,true,949101.3000000119,949100.6000000089,943468.587,943662.700000003,943485.607,948918.729,1,40,,
trial,html.Screen,8_28_0,2023-11-15T21:52:07.186Z,,,,2,0.0324770283903853,0.0249968632204382,,false,ll,4157.77099999995,response,-0.8856899178393457,0.7336314490926987,-0.8000527338833842,-1.1903131706835868,1.15,-1.0396238620038816,low,low,,ISIC_7266462.JPG,,ISIC_1233104.JPG,145,false,lh,keypress(e),0,true,953076.8000000119,953076.5,948902.071,949101.5,948918.729,952902.68,1,40,29,
sequence,flow.Sequence,8_28,2023-11-15T21:52:07.187Z,,,,,,,,,,4157.77099999995,completion,,,,,,,low,low,,,,,,false,,,,true,953077.1000000089,953076.5,948902.071,949101.400000006,948918.729,952902.68,1,40,,
trial,html.Screen,8_29_0,2023-11-15T21:52:11.978Z,,,,2,0.0544808612748248,-0.0240487075377862,,false,hh,4965.9200000088895,response,0.585741553581068,0.7336314490926987,-0.8000527338833842,1.0286994394078262,1.15,-1.0896238620038816,high,high,,ISIC_4606646.JPG,,ISIC_0063168.JPG,154,false,hl,keypress(j),0,true,957868.8000000119,957868.6000000089,952868.736,953077.400000006,952902.68,957685.48,1,40,30,
sequence,flow.Sequence,8_29,2023-11-15T21:52:11.979Z,,,,,,,,,,4965.9200000088895,completion,,,,,,,high,high,,,,,,false,,,,true,957869.200000003,957868.6000000089,952868.736,953077.3000000119,952902.68,957685.48,1,40,,
trial,html.Screen,8_30_0,2023-11-15T21:52:18.515Z,,,,2,-0.0220322185490382,-0.0740918837949419,,false,ll,6719.420000005979,response,-0.7633122512956493,0.6836314490926987,-0.8000527338833842,-1.1876749162179934,1.15,-1.0896238620038816,low,low,,ISIC_8105020.JPG,,ISIC_0003168.JPG,135,false,lh,keypress(e),0,true,964405.200000003,964404.900000006,957668.727,957869.3000000119,957685.48,964218.614,1,40,31,
sequence,flow.Sequence,8_30,2023-11-15T21:52:18.515Z,,,,,,,,,,6719.420000005979,completion,,,,,,,low,low,,,,,,false,,,,true,964405.6000000089,964404.900000006,957668.727,957869.3000000119,957685.48,964218.614,1,40,,
trial,html.Screen,8_31_0,2023-11-15T21:52:27.132Z,,,,2,-0.0220322185490382,-0.0740918837949419,,false,hl,8802.386000000057,response,0.5024960662469193,0.6836314490926987,-0.7745010845674974,-1.1055185688067006,1.15,-1.1396238620038817,high,low,,ISIC_8105020.JPG,,ISIC_4533833.JPG,25,false,lh,keypress(e),0,true,973021.200000003,973021,964201.99,964405.8000000119,964218.614,972835.268,1,40,32,
sequence,flow.Sequence,8_31,2023-11-15T21:52:27.132Z,,,,,,,,,,8802.386000000057,completion,,,,,,,high,low,,,,,,false,,,,true,973021.6000000089,973021,964201.99,964405.8000000119,964218.614,972835.268,1,40,,
trial,html.Screen,8_32_0,2023-11-15T21:52:33.858Z,,,,2,0.0111354529246037,-0.0585810480909377,,false,hh,6912.032000011881,response,0.758207007584394,0.7336314490926987,-0.7745010845674974,1.0437879361189135,1.15,-1.1896238620038817,high,high,,ISIC_7858034.JPG,,ISIC_0011626.JPG,154,false,hl,keypress(j),0,true,979747.3000000119,979747.3000000119,972818.439,973021.900000006,972835.268,979568.649,1,40,33,
sequence,flow.Sequence,8_32,2023-11-15T21:52:33.858Z,,,,,,,,,,6912.032000011881,completion,,,,,,,high,high,,,,,,false,,,,true,979747.400000006,979747.3000000119,972818.439,973021.8000000119,972835.268,979568.649,1,40,,
trial,html.Screen,8_33_0,2023-11-15T21:52:37.899Z,,,,2,,-0.0264544974620926,,false,lh,4219.751000005985,response,-0.6336866128947327,0.7336314490926987,-0.7745010845674974,1.1497253047346905,1.15,-1.1896238620038817,low,high,,ISIC_0056991.JPG,,ISIC_8747095.JPG,30,false,ll,keypress(f),0,true,983788.700000003,983788.400000006,979551.93,979747.400000006,979568.649,983601.939,1,40,34,
sequence,flow.Sequence,8_33,2023-11-15T21:52:37.900Z,,,,,,,,,,4219.751000005985,completion,,,,,,,low,high,,,,,,false,,,,true,983789.1000000089,983788.400000006,979551.93,979747.400000006,979568.649,983601.939,1,40,,
trial,html.Screen,8_34_0,2023-11-15T21:52:43.555Z,,,,2,-0.0134764727102299,-0.0033499036460912,,false,hl,5842.461000005947,response,0.6864497754928831,0.6836314490926987,-0.7245010845674974,-1.0456580051873738,1.0999999999999999,-1.1396238620038817,high,low,,ISIC_0009998.JPG,,ISIC_0055388.JPG,25,false,ll,keypress(f),0,true,989444.700000003,989444.400000006,983585.317,983789.3000000119,983601.939,989268.752,1,40,35,
sequence,flow.Sequence,8_34,2023-11-15T21:52:43.556Z,,,,,,,,,,5842.461000005947,completion,,,,,,,high,low,,,,,,false,,,,true,989445,989444.400000006,983585.317,983789.3000000119,983601.939,989268.752,1,40,,
trial,html.Screen,8_35_0,2023-11-15T21:52:47.499Z,,,,2,-0.0245376145053177,0.0436993426328401,,false,lh,4119.748000000021,response,-0.5279970592438469,0.7336314490926987,-0.7245010845674974,1.220366849162721,1.0999999999999999,-1.1396238620038817,low,high,,ISIC_0056444.JPG,,ISIC_0034304.JPG,35,false,hh,keypress(i),0,true,993388.700000003,993388.5,989251.844,989445.200000003,989268.752,993201.878,1,40,36,
sequence,flow.Sequence,8_35,2023-11-15T21:52:47.500Z,,,,,,,,,,4119.748000000021,completion,,,,,,,low,high,,,,,,false,,,,true,993389.1000000089,993388.5,989251.844,989445.1000000089,989268.752,993201.878,1,40,,
trial,html.Screen,8_36_0,2023-11-15T21:52:50.748Z,,,,2,-0.0693466529227737,-0.044703434393184,,false,hl,3435.322000002954,response,0.6075950353412485,0.7336314490926987,-0.7745010845674974,-1.325659161879417,1.0999999999999999,-1.1396238620038817,high,low,,ISIC_0004217.JPG,,ISIC_2307760.JPG,21,false,hh,keypress(i),0,true,996637.400000006,996637.200000003,993185.14,993389.400000006,993201.878,996451.854,1,40,37,
sequence,flow.Sequence,8_36,2023-11-15T21:52:50.749Z,,,,,,,,,,3435.322000002954,completion,,,,,,,high,low,,,,,,false,,,,true,996637.900000006,996637.200000003,993185.14,993389.3000000119,993201.878,996451.854,1,40,,
trial,html.Screen,8_37_0,2023-11-15T21:52:55.931Z,,,,2,-0.0367218428225813,-0.0700576547090477,,true,hl,5368.64599999995,response,0.7118141631588264,0.6836314490926987,-0.7245010845674974,-1.0369885917487718,1.0499999999999998,-1.1396238620038817,high,low,,ISIC_7212271.JPG,,ISIC_6917681.JPG,25,false,hl,keypress(j),0,true,1001820.8000000119,1001820.5,996435.295,996638,996451.854,1001635.185,1,40,38,
sequence,flow.Sequence,8_37,2023-11-15T21:52:55.932Z,,,,,,,,,,5368.64599999995,completion,,,,,,,high,low,,,,,,false,,,,true,1001821.200000003,1001820.5,996435.295,996638,996451.854,1001635.185,1,40,,
trial,html.Screen,8_38_0,2023-11-15T21:53:02.941Z,,,,2,0.0194167651857046,0.0726253809408601,,false,ll,7194.515000002924,response,-0.5523665866419742,0.6336314490926986,-0.7245010845674974,-1.0361104193014674,1.0499999999999998,-1.1396238620038817,low,low,,ISIC_0056692.JPG,,ISIC_7017387.JPG,126,false,lh,keypress(e),0,true,1008830,1008829.700000003,1001618.635,1001821.400000006,1001635.185,1008652.046,1,40,39,
sequence,flow.Sequence,8_38,2023-11-15T21:53:02.941Z,,,,,,,,,,7194.515000002924,completion,,,,,,,low,low,,,,,,false,,,,true,1008830.400000006,1008829.700000003,1001618.635,1001821.400000006,1001635.185,1008652.046,1,40,,
trial,html.Screen,8_39_0,2023-11-15T21:53:08.331Z,,,,2,-0.0051189696037511,0.0396625911332438,,false,lh,5568.154000003007,response,-0.8534691366511764,0.6336314490926986,-0.7245010845674974,1.03975580494588,1.0499999999999998,-1.1896238620038817,low,high,,ISIC_9742891.JPG,,ISIC_0056788.JPG,41,false,hl,keypress(j),0,true,1014220.5,1014220.200000003,1008635.129,1008830.6000000089,1008652.046,1014035.153,1,40,40,
sequence,flow.Sequence,8_39,2023-11-15T21:53:08.332Z,,,,,,,,,,5568.154000003007,completion,,,,,,,low,high,,,,,,false,,,,true,1014221,1014220.200000003,1008635.129,1008830.5,1008652.046,1014035.153,1,40,,
stair_loop,flow.Loop,8,2023-11-15T21:53:08.332Z,,,,,,,,,,227817.69600000302,completion,,,,,,,,,,,,,,false,,,,true,1014221.3000000119,1014220.200000003,786386.057,786587.400000006,786402.504,1014035.153,1,40,,
exp_instructions,html.Screen,9,2023-11-15T21:53:36.996Z,,,,,,,,,,28848.74700000591,response,,,,,,,,,,,,,,,continue,keypress(Space),,,1042884.700000003,1042883.900000006,1014018.505,1014221.400000006,1014035.153,1042701.741,,,,
trial,html.Screen,10_0_0,2023-11-15T21:53:46.155Z,,,,1,-0.013431314305098,0.0140597582944232,,true,lh,9341.258999999962,response,-0.582329390280888,0.6999150508324978,-0.7585544916912352,1.018055659420043,1.1250000000000004,-1.0671238620038812,low,high,,ISIC_0069617.JPG,9,ISIC_0027411.JPG,37,false,lh,keypress(e),0,false,1052043.100000009,1052043,1042684.14,1042885,1042701.741,1051851.693,4,500,1,
break,html.Screen,10_0_1,2023-11-15T21:53:46.155Z,,,,,,,,,,NaN,,,,,,,,low,high,,,,,,false,,,,false,1052043.600000009,1052043.400000006,,1052043.300000012,,1051851.693,4,500,,
break_continue,html.Screen,10_0_2,2023-11-15T21:53:46.155Z,,,,,,,,,,NaN,,,,,,,,low,high,,,,,,false,,,,false,1052043.800000012,1052043.700000003,,1052043.600000009,,1051851.693,4,500,,
sequence,flow.Sequence,10_0,2023-11-15T21:53:46.156Z,,,,,,,,,,9341.959000002942,completion,,,,,,,low,high,,,,,,false,,,,false,1052043.800000012,1052043.700000003,1042684.14,1042884.900000006,1042701.741,1051851.693,4,500,,
trial,html.Screen,10_1_0,2023-11-15T21:53:49.788Z,,,,1,0.007397293189458,0.0174716772037504,,true,lh,3824.7070000059903,response,-0.9433720631499012,0.6999150508324978,-0.7585544916912352,1.0582071940347648,1.1250000000000004,-1.0671238620038812,low,high,,ISIC_0056226.JPG,9,ISIC_4890201.JPG,37,false,lh,keypress(e),0,false,1055676.700000003,1055676.400000006,1051834.847,1052044,1051851.693,1055502.314,4,500,2,
break,html.Screen,10_1_1,2023-11-15T21:53:49.789Z,,,,,,,,,,NaN,,,,,,,,low,high,,,,,,false,,,,false,1055677.700000003,1055677.400000006,,1055677,,1055502.314,4,500,,
break_continue,html.Screen,10_1_2,2023-11-15T21:53:49.790Z,,,,,,,,,,NaN,,,,,,,,low,high,,,,,,false,,,,false,1055678.300000012,1055678.100000009,,1055677.800000012,,1055502.314,4,500,,
sequence,flow.Sequence,10_1,2023-11-15T21:53:49.790Z,,,,,,,,,,3826.4070000089705,completion,,,,,,,low,high,,,,,,false,,,,false,1055678.600000009,1055678.100000009,1051834.847,1052043.900000006,1051851.693,1055502.314,4,500,,
trial,html.Screen,10_2_0,2023-11-15T21:53:55.107Z,,,,1,0.0401045651353626,0.053461375824197,,false,ll,5492.486000011908,response,-0.7067626314728708,0.6999150508324978,-0.7585544916912352,-0.8796516667961567,1.1250000000000004,-1.0671238620038812,low,low,,ISIC_6483504.JPG,9,ISIC_4808298.JPG,150,false,hh,keypress(i),0,false,1060994.900000006,1060994.800000012,1055468.415,1055678.700000003,1055502.314,1060818.35,4,500,3,
break,html.Screen,10_2_1,2023-11-15T21:53:55.107Z,,,,,,,,,,NaN,,,,,,,,low,low,,,,,,false,,,,false,1060995.200000003,1060995.200000003,,1060995,,1060818.35,4,500,,
break_continue,html.Screen,10_2_2,2023-11-15T21:53:55.107Z,,,,,,,,,,NaN,,,,,,,,low,low,,,,,,false,,,,false,1060995.400000006,1060995.300000012,,1060995.200000003,,1060818.35,4,500,,
sequence,flow.Sequence,10_2,2023-11-15T21:53:55.107Z,,,,,,,,,,5492.986000011908,completion,,,,,,,low,low,,,,,,false,,,,false,1060995.400000006,1060995.300000012,1055468.415,1055678.700000003,1055502.314,1060818.35,4,500,,
trial,html.Screen,10_3_0,2023-11-15T21:54:01.453Z,,,,1,0.0324770283903853,0.0249968632204382,,true,ll,6522.350000002887,response,-0.936668460603038,0.6999150508324978,-0.7585544916912352,-1.058142123525081,1.1250000000000004,-1.0671238620038812,low,low,,ISIC_7266462.JPG,9,ISIC_5046340.JPG,150,false,ll,keypress(f),0,false,1067341,1067340.700000003,1060801.77,1060995.5,1060818.35,1067151.737,4,500,4,
break,html.Screen,10_3_1,2023-11-15T21:54:01.454Z,,,,,,,,,,NaN,,,,,,,,low,low,,,,,,false,,,,false,1067341.900000006,1067341.800000012,,1067341.300000012,,1067151.737,4,500,,
break_continue,html.Screen,10_3_2,2023-11-15T21:54:01.454Z,,,,,,,,,,NaN,,,,,,,,low,low,,,,,,false,,,,false,1067342.5,1067342.300000012,,1067342.100000009,,1067151.737,4,500,,
sequence,flow.Sequence,10_3,2023-11-15T21:54:01.454Z,,,,,,,,,,6523.950000011828,completion,,,,,,,low,low,,,,,,false,,,,false,1067342.800000012,1067342.300000012,1060801.77,1060995.5,1060818.35,1067151.737,4,500,,
trial,html.Screen,10_4_0,2023-11-15T21:54:05.636Z,,,,1,0.0247880219471745,-0.0687761754603142,,true,hh,4372.463000003016,response,0.8331144817673659,0.6999150508324978,-0.7585544916912352,0.9687545919760946,1.1250000000000004,-1.0671238620038812,high,high,,ISIC_0031745.JPG,9,ISIC_0028075.JPG,166,false,hh,keypress(i),0,false,1071524.400000006,1071524.200000003,1067135.129,1067343,1067151.737,1071335.058,4,500,5,
break,html.Screen,10_4_1,2023-11-15T21:54:05.637Z,,,,,,,,,,NaN,,,,,,,,high,high,,,,,,false,,,,false,1071525.400000006,1071525.200000003,,1071524.700000003,,1071335.058,4,500,,
break_continue,html.Screen,10_4_2,2023-11-15T21:54:05.638Z,,,,,,,,,,NaN,,,,,,,,high,high,,,,,,false,,,,false,1071526,1071525.800000012,,1071525.600000009,,1071335.058,4,500,,
sequence,flow.Sequence,10_4,2023-11-15T21:54:05.638Z,,,,,,,,,,4374.063000011956,completion,,,,,,,high,high,,,,,,false,,,,false,1071526.200000003,1071525.800000012,1067135.129,1067342.900000006,1067151.737,1071335.058,4,500,,
trial,html.Screen,10_5_0,2023-11-15T21:54:10.956Z,,,,1,-0.0552031398781121,-0.0652612426529481,,false,lh,5509.04200000898,response,-0.6956738789487171,0.6999150508324978,-0.7585544916912352,0.9798803024739164,1.1250000000000004,-1.0671238620038812,low,high,,ISIC_0024226.JPG,8,ISIC_0046340.JPG,37,false,ll,keypress(f),0,false,1076844.5,1076844.100000009,1071318.516,1071526.400000006,1071335.058,1076668.337,4,500,6,
break,html.Screen,10_5_1,2023-11-15T21:54:10.957Z,,,,,,,,,,NaN,,,,,,,,low,high,,,,,,false,,,,false,1076845.300000012,1076845.100000009,,1076844.800000012,,1076668.337,4,500,,
break_continue,html.Screen,10_5_2,2023-11-15T21:54:10.958Z,,,,,,,,,,NaN,,,,,,,,low,high,,,,,,false,,,,false,1076845.800000012,1076845.700000003,,1076845.400000006,,1076668.337,4,500,,
sequence,flow.Sequence,10_5,2023-11-15T21:54:10.958Z,,,,,,,,,,5510.642000003019,completion,,,,,,,low,high,,,,,,false,,,,false,1076846.100000009,1076845.700000003,1071318.516,1071526.400000006,1071335.058,1076668.337,4,500,,
trial,html.Screen,10_6_0,2023-11-15T21:54:17.404Z,,,,1,-0.0149482827359613,0.0661630859332833,,false,hh,6623.963000011863,response,0.8735470592544294,0.6999150508324978,-0.7585544916912352,0.9785086585007428,1.1250000000000004,-1.0671238620038812,high,high,,ISIC_6815524.JPG,9,ISIC_0047031.JPG,166,false,hl,keypress(j),0,false,1083292.5,1083292.300000012,1076651.586,1076846.200000003,1076668.337,1083101.689,4,500,7,
break,html.Screen,10_6_1,2023-11-15T21:54:17.405Z,,,,,,,,,,NaN,,,,,,,,high,high,,,,,,false,,,,false,1083293.400000006,1083293.200000003,,1083292.800000012,,1083101.689,4,500,,
break_continue,html.Screen,10_6_2,2023-11-15T21:54:17.406Z,,,,,,,,,,NaN,,,,,,,,high,high,,,,,,false,,,,false,1083294,1083293.800000012,,1083293.600000009,,1083101.689,4,500,,
sequence,flow.Sequence,10_6,2023-11-15T21:54:17.406Z,,,,,,,,,,6625.463000011863,completion,,,,,,,high,high,,,,,,false,,,,false,1083294.200000003,1083293.800000012,1076651.586,1076846.200000003,1076668.337,1083101.689,4,500,,
trial,html.Screen,10_7_0,2023-11-15T21:54:22.029Z,,,,1,0.0450282431170921,,,true,hl,4815.711000005947,response,0.6142525467088931,0.6999150508324978,-0.7585544916912352,-0.9311865209554536,1.1250000000000004,-1.0671238620038812,high,low,,ISIC_1805163.JPG,9,ISIC_3474609.JPG,34,false,hl,keypress(j),0,false,1087917.700000003,1087917.400000006,1083085.04,1083294.5,1083101.689,1087734.999,4,500,8,
break,html.Screen,10_7_1,2023-11-15T21:54:22.030Z,,,,,,,,,,NaN,,,,,,,,high,low,,,,,,false,,,,false,1087918.700000003,1087918.400000006,,1087918.100000009,,1087734.999,4,500,,
break_continue,html.Screen,10_7_2,2023-11-15T21:54:22.031Z,,,,,,,,,,NaN,,,,,,,,high,low,,,,,,false,,,,false,1087919.200000003,1087919.100000009,,1087918.900000006,,1087734.999,4,500,,
sequence,flow.Sequence,10_7,2023-11-15T21:54:22.031Z,,,,,,,,,,4817.411000008928,completion,,,,,,,high,low,,,,,,false,,,,false,1087919.5,1087919.100000009,1083085.04,1083294.400000006,1083101.689,1087734.999,4,500,,
trial,html.Screen,10_8_0,2023-11-15T21:54:27.316Z,,,,1,-0.009234249673026,-0.0627190878028592,,true,lh,5469.201000002911,response,-0.6866025217140785,0.6999150508324978,-0.7585544916912352,0.9978764930756644,1.1250000000000004,-1.0671238620038812,low,high,,ISIC_0053760.JPG,8,ISIC_0009100.JPG,37,false,lh,keypress(e),0,false,1093204.5,1093204.200000003,1087718.487,1087919.700000003,1087734.999,1093018.281,4,500,9,
break,html.Screen,10_8_1,2023-11-15T21:54:27.317Z,,,,,,,,,,NaN,,,,,,,,low,high,,,,,,false,,,,false,1093205.5,1093205.100000009,,1093204.800000012,,1093018.281,4,500,,
break_continue,html.Screen,10_8_2,2023-11-15T21:54:27.318Z,,,,,,,,,,NaN,,,,,,,,low,high,,,,,,false,,,,false,1093206,1093205.900000006,,1093205.600000009,,1093018.281,4,500,,
sequence,flow.Sequence,10_8,2023-11-15T21:54:27.318Z,,,,,,,,,,5470.901000005892,completion,,,,,,,low,high,,,,,,false,,,,false,1093206.200000003,1093205.900000006,1087718.487,1087919.700000003,1087734.999,1093018.281,4,500,,
trial,html.Screen,10_9_0,2023-11-15T21:54:36.156Z,,,,1,0.0111354529246037,-0.0585810480909377,,false,hh,9026.119000006001,response,0.5236871827369651,0.6999150508324978,-0.7585544916912352,1.2370556576483671,1.1250000000000004,-1.0671238620038812,high,high,,ISIC_7858034.JPG,8,ISIC_0011527.JPG,166,false,hl,keypress(j),0,false,1102044.700000003,1102044.400000006,1093001.86,1093206.5,1093018.281,1101868.407,4,500,10,
break,html.Screen,10_9_1,2023-11-15T21:54:36.157Z,,,,,,,,,,NaN,,,,,,,,high,high,,,,,,false,,,,false,1102045.600000009,1102045.300000012,,1102044.900000006,,1101868.407,4,500,,
break_continue,html.Screen,10_9_2,2023-11-15T21:54:36.158Z,,,,,,,,,,NaN,,,,,,,,high,high,,,,,,false,,,,false,1102046.200000003,1102046,,1102045.800000012,,1101868.407,4,500,,
sequence,flow.Sequence,10_9,2023-11-15T21:54:36.158Z,,,,,,,,,,9027.719000000041,completion,,,,,,,high,high,,,,,,false,,,,false,1102046.400000006,1102046,1093001.86,1093206.300000012,1093018.281,1101868.407,4,500,,
trial,html.Screen,10_10_0,2023-11-15T21:54:45.100Z,,,,1,-0.0552031398781121,-0.0652612426529481,,false,hl,9118.49300000607,response,0.5367473275290543,0.6999150508324978,-0.7585544916912352,-1.0131843101438591,1.1250000000000004,-1.0671238620038812,high,low,,ISIC_0024226.JPG,12,ISIC_3459981.JPG,34,false,hh,keypress(i),0,false,1110987,1110986.900000006,1101851.69,1102046.600000009,1101868.407,1110801.61,4,500,11,
break,html.Screen,10_10_1,2023-11-15T21:54:45.101Z,,,,,,,,,,NaN,,,,,,,,high,low,,,,,,false,,,,false,1110987.400000006,1110987.300000012,,1110987.100000009,,1110801.61,4,500,,
break_continue,html.Screen,10_10_2,2023-11-15T21:54:45.101Z,,,,,,,,,,NaN,,,,,,,,high,low,,,,,,false,,,,false,1110987.600000009,1110987.400000006,,1110987.400000006,,1110801.61,4,500,,
sequence,flow.Sequence,10_10,2023-11-15T21:54:45.101Z,,,,,,,,,,9118.99300000607,completion,,,,,,,high,low,,,,,,false,,,,false,1110987.700000003,1110987.400000006,1101851.69,1102046.5,1101868.407,1110801.61,4,500,,
trial,html.Screen,10_11_0,2023-11-15T21:54:49.358Z,,,,1,0.0511770300585718,0.029030243555971,,false,ll,4442.790000005858,response,-0.722626455088696,0.6999150508324978,-0.7585544916912352,-0.8807705418080004,1.1250000000000004,-1.0671238620038812,low,low,,ISIC_6652978.JPG,8,ISIC_2536779.JPG,150,false,hh,keypress(i),0,false,1115244.600000009,1115244.400000006,1110784.72,1110987.800000012,1110801.61,1115068.449,4,500,12,
break,html.Screen,10_11_1,2023-11-15T21:54:49.359Z,,,,,,,,,,NaN,,,,,,,,low,low,,,,,,false,,,,false,1115245.5,1115245.300000012,,1115244.900000006,,1115068.449,4,500,,
break_continue,html.Screen,10_11_2,2023-11-15T21:54:49.359Z,,,,,,,,,,NaN,,,,,,,,low,low,,,,,,false,,,,false,1115245.900000006,1115245.800000012,,1115245.600000009,,1115068.449,4,500,,
sequence,flow.Sequence,10_11,2023-11-15T21:54:49.360Z,,,,,,,,,,4444.1900000118185,completion,,,,,,,low,low,,,,,,false,,,,false,1115246.200000003,1115245.800000012,1110784.72,1110987.800000012,1110801.61,1115068.449,4,500,,
trial,html.Screen,10_12_0,2023-11-15T21:54:55.023Z,,,,1,-0.0552031398781121,-0.0652612426529481,,false,lh,5840.550999999978,response,-0.6017691906435032,0.6999150508324978,-0.7585544916912352,1.2033647433750492,1.1250000000000004,-1.0671238620038812,low,high,,ISIC_0024226.JPG,8,ISIC_0061606.JPG,37,false,ll,keypress(f),0,false,1120909.300000012,1120909,1115051.673,1115246.300000012,1115068.449,1120718.234,4,500,13,
break,html.Screen,10_12_1,2023-11-15T21:54:55.024Z,,,,,,,,,,NaN,,,,,,,,low,high,,,,,,false,,,,false,1120910.300000012,1120910,,1120909.700000003,,1120718.234,4,500,,
break_continue,html.Screen,10_12_2,2023-11-15T21:54:55.024Z,,,,,,,,,,NaN,,,,,,,,low,high,,,,,,false,,,,false,1120910.800000012,1120910.600000009,,1120910.400000006,,1120718.234,4,500,,
sequence,flow.Sequence,10_12,2023-11-15T21:54:55.025Z,,,,,,,,,,5842.151000008918,completion,,,,,,,low,high,,,,,,false,,,,false,1120911.100000009,1120910.600000009,1115051.673,1115246.300000012,1115068.449,1120718.234,4,500,,
trial,html.Screen,10_13_0,2023-11-15T21:54:58.543Z,,,,1,-0.0112310719058792,0.0469047359904117,,true,hh,3710.866000009002,response,0.6927085840523027,0.6999150508324978,-0.7585544916912352,1.1746004947382946,1.1250000000000004,-1.0671238620038812,high,high,,ISIC_0068184.JPG,8,ISIC_0012069.JPG,166,false,hh,keypress(i),0,false,1124429.300000012,1124429.100000009,1120701.772,1120911.300000012,1120718.234,1124251.675,4,500,14,
break,html.Screen,10_13_1,2023-11-15T21:54:58.544Z,,,,,,,,,,NaN,,,,,,,,high,high,,,,,,false,,,,false,1124430.300000012,1124430,,1124429.600000009,,1124251.675,4,500,,
break_continue,html.Screen,10_13_2,2023-11-15T21:54:58.544Z,,,,,,,,,,NaN,,,,,,,,high,high,,,,,,false,,,,false,1124430.800000012,1124430.700000003,,1124430.5,,1124251.675,4,500,,
sequence,flow.Sequence,10_13,2023-11-15T21:54:58.545Z,,,,,,,,,,3712.4660000030417,completion,,,,,,,high,high,,,,,,false,,,,false,1124431.100000009,1124430.700000003,1120701.772,1120911.200000003,1120718.234,1124251.675,4,500,,
trial,html.Screen,10_14_0,2023-11-15T21:55:04.543Z,,,,1,-0.0149482827359613,0.0661630859332833,,false,hh,6177.625000011874,response,0.5308209897977146,0.6999150508324978,-0.7585544916912352,1.0527628553715254,1.1250000000000004,-1.0671238620038812,high,high,,ISIC_6815524.JPG,10,ISIC_0011862.JPG,166,false,ll,keypress(f),0,false,1130429.600000009,1130429.300000012,1124234.986,1124431.300000012,1124251.675,1130251.668,4,500,15,
break,html.Screen,10_14_1,2023-11-15T21:55:04.544Z,,,,,,,,,,NaN,,,,,,,,high,high,,,,,,false,,,,false,1130430.400000006,1130430.200000003,,1130429.900000006,,1130251.668,4,500,,
break_continue,html.Screen,10_14_2,2023-11-15T21:55:04.545Z,,,,,,,,,,NaN,,,,,,,,high,high,,,,,,false,,,,false,1130431,1130430.800000012,,1130430.600000009,,1130251.668,4,500,,
sequence,flow.Sequence,10_14,2023-11-15T21:55:04.545Z,,,,,,,,,,6179.125000011874,completion,,,,,,,high,high,,,,,,false,,,,false,1130431.300000012,1130430.800000012,1124234.986,1124431.200000003,1124251.675,1130251.668,4,500,,
trial,html.Screen,10_15_0,2023-11-15T21:55:10.357Z,,,,1,0.0593670819812057,-0.0718390543903236,,true,lh,5991.232000005897,response,-0.6956738789487171,0.6999150508324978,-0.7585544916912352,0.9798803024739164,1.1250000000000004,-1.0671238620038812,low,high,,ISIC_0062367.JPG,9,ISIC_0046340.JPG,37,false,lh,keypress(e),0,false,1136243,1136242.900000006,1130234.861,1130431.5,1130251.668,1136051.486,4,500,16,
break,html.Screen,10_15_1,2023-11-15T21:55:10.357Z,,,,,,,,,,NaN,,,,,,,,low,high,,,,,,false,,,,false,1136243.400000006,1136243.300000012,,1136243.200000003,,1136051.486,4,500,,
break_continue,html.Screen,10_15_2,2023-11-15T21:55:10.357Z,,,,,,,,,,NaN,,,,,,,,low,high,,,,,,false,,,,false,1136243.700000003,1136243.600000009,,1136243.400000006,,1136051.486,4,500,,
sequence,flow.Sequence,10_15,2023-11-15T21:55:10.357Z,,,,,,,,,,5991.932000008877,completion,,,,,,,low,high,,,,,,false,,,,false,1136243.700000003,1136243.600000009,1130234.861,1130431.400000006,1130251.668,1136051.486,4,500,,
trial,html.Screen,10_16_0,2023-11-15T21:55:17.823Z,,,,1,0.007397293189458,0.0174716772037504,,false,lh,7657.814000011887,response,-0.6956738789487171,0.6999150508324978,-0.7585544916912352,0.9798803024739164,1.1250000000000004,-1.0671238620038812,low,high,,ISIC_0056226.JPG,9,ISIC_0046340.JPG,37,false,hh,keypress(i),0,false,1143709.5,1143709.300000012,1136035.02,1136243.800000012,1136051.486,1143535.394,4,500,17,
break,html.Screen,10_16_1,2023-11-15T21:55:17.824Z,,,,,,,,,,NaN,,,,,,,,low,high,,,,,,false,,,,false,1143710.5,1143710.300000012,,1143709.900000006,,1143535.394,4,500,,
break_continue,html.Screen,10_16_2,2023-11-15T21:55:17.825Z,,,,,,,,,,NaN,,,,,,,,low,high,,,,,,false,,,,false,1143711.100000009,1143710.900000006,,1143710.700000003,,1143535.394,4,500,,
sequence,flow.Sequence,10_16,2023-11-15T21:55:17.825Z,,,,,,,,,,7659.414000005927,completion,,,,,,,low,high,,,,,,false,,,,false,1143711.400000006,1143710.900000006,1136035.02,1136243.800000012,1136051.486,1143535.394,4,500,,
trial,html.Screen,10_17_0,2023-11-15T21:55:25.606Z,,,,1,0.0660839342637046,-0.0657899819532072,,false,ll,7957.006000005873,response,-0.936668460603038,0.6999150508324978,-0.7585544916912352,-1.058142123525081,1.1250000000000004,-1.0671238620038812,low,low,,ISIC_0065477.JPG,9,ISIC_5046340.JPG,150,false,hh,keypress(i),0,false,1151492.800000012,1151492.400000006,1143501.591,1143711.700000003,1143535.394,1151318.721,4,500,18,
break,html.Screen,10_17_1,2023-11-15T21:55:25.607Z,,,,,,,,,,NaN,,,,,,,,low,low,,,,,,false,,,,false,1151493.800000012,1151493.600000009,,1151493.100000009,,1151318.721,4,500,,
break_continue,html.Screen,10_17_2,2023-11-15T21:55:25.608Z,,,,,,,,,,NaN,,,,,,,,low,low,,,,,,false,,,,false,1151494.400000006,1151494.200000003,,1151494.100000009,,1151318.721,4,500,,
sequence,flow.Sequence,10_17,2023-11-15T21:55:25.608Z,,,,,,,,,,7958.806000002893,completion,,,,,,,low,low,,,,,,false,,,,false,1151494.600000009,1151494.200000003,1143501.591,1143711.600000009,1143535.394,1151318.721,4,500,,
trial,html.Screen,10_18_0,2023-11-15T21:55:32.549Z,,,,1,0.0401045651353626,0.053461375824197,,true,hh,7116.279000000097,response,0.697110049953899,0.6999150508324978,-0.7585544916912352,1.2303132152876133,1.1250000000000004,-1.0671238620038812,high,high,,ISIC_6483504.JPG,9,ISIC_0027102.JPG,166,false,hh,keypress(i),0,false,1158435.100000009,1158435,1151284.828,1151494.900000006,1151318.721,1158251.426,4,500,19,
break,html.Screen,10_18_1,2023-11-15T21:55:32.549Z,,,,,,,,,,NaN,,,,,,,,high,high,,,,,,false,,,,false,1158435.600000009,1158435.5,,1158435.200000003,,1158251.426,4,500,,
break_continue,html.Screen,10_18_2,2023-11-15T21:55:32.549Z,,,,,,,,,,NaN,,,,,,,,high,high,,,,,,false,,,,false,1158435.800000012,1158435.700000003,,1158435.600000009,,1158251.426,4,500,,
sequence,flow.Sequence,10_18,2023-11-15T21:55:32.549Z,,,,,,,,,,7116.979000003077,completion,,,,,,,high,high,,,,,,false,,,,false,1158435.900000006,1158435.700000003,1151284.828,1151494.800000012,1151318.721,1158251.426,4,500,,
trial,html.Screen,10_19_0,2023-11-15T21:55:40.976Z,,,,1,0.0070725527271049,0.0049995141077508,,false,hh,8609.674000008963,response,0.503622679847268,0.6999150508324978,-0.7585544916912352,0.9356034611218216,1.1250000000000004,-1.0671238620038812,high,high,,ISIC_6124481.JPG,9,ISIC_0073227.JPG,166,false,ll,keypress(f),0,false,1166861.300000012,1166861.100000009,1158234.679,1158436,1158251.426,1166684.973,4,500,20,
break,html.Screen,10_19_1,2023-11-15T21:55:40.977Z,,,,,,,,,,NaN,,,,,,,,high,high,,,,,,false,,,,false,1166862.300000012,1166862.100000009,,1166861.700000003,,1166684.973,4,500,,
break_continue,html.Screen,10_19_2,2023-11-15T21:55:40.978Z,,,,,,,,,,NaN,,,,,,,,high,high,,,,,,false,,,,false,1166862.900000006,1166862.700000003,,1166862.5,,1166684.973,4,500,,
sequence,flow.Sequence,10_19,2023-11-15T21:55:40.978Z,,,,,,,,,,8611.274000003003,completion,,,,,,,high,high,,,,,,false,,,,false,1166863.200000003,1166862.700000003,1158234.679,1158436,1158251.426,1166684.973,4,500,,
trial,html.Screen,10_20_0,2023-11-15T21:55:45.096Z,,,,1,0.0538169356437535,-0.0113486191005169,,true,ll,4295.627000008943,response,-0.9071602543711612,0.6999150508324978,-0.7585544916912352,-1.073798502866343,1.1250000000000004,-1.0671238620038812,low,low,,ISIC_0009939.JPG,9,ISIC_6676776.JPG,150,false,ll,keypress(f),0,false,1170980.900000006,1170980.600000009,1166667.953,1166863.400000006,1166684.973,1170801.469,4,500,21,
break,html.Screen,10_20_1,2023-11-15T21:55:45.097Z,,,,,,,,,,NaN,,,,,,,,low,low,,,,,,false,,,,false,1170981.900000006,1170981.600000009,,1170981.200000003,,1170801.469,4,500,,
break_continue,html.Screen,10_20_2,2023-11-15T21:55:45.097Z,,,,,,,,,,NaN,,,,,,,,low,low,,,,,,false,,,,false,1170982.400000006,1170982.300000012,,1170982.100000009,,1170801.469,4,500,,
sequence,flow.Sequence,10_20,2023-11-15T21:55:45.097Z,,,,,,,,,,4297.327000011923,completion,,,,,,,low,low,,,,,,false,,,,false,1170982.700000003,1170982.300000012,1166667.953,1166863.300000012,1166684.973,1170801.469,4,500,,
trial,html.Screen,10_21_0,2023-11-15T21:55:50.335Z,,,,1,0.0069555338059566,-0.0310100918136373,,false,hl,5418.530999999959,response,0.7870237732709365,0.6999150508324978,-0.7585544916912352,-0.9172955251119376,1.1250000000000004,-1.0671238620038812,high,low,,ISIC_0011177.JPG,10,ISIC_0057716.JPG,34,false,ll,keypress(f),0,false,1176220.200000003,1176220,1170784.847,1170982.900000006,1170801.469,1176034.709,4,500,22,
break,html.Screen,10_21_1,2023-11-15T21:55:50.336Z,,,,,,,,,,NaN,,,,,,,,high,low,,,,,,false,,,,false,1176221,1176220.800000012,,1176220.5,,1176034.709,4,500,,
break_continue,html.Screen,10_21_2,2023-11-15T21:55:50.336Z,,,,,,,,,,NaN,,,,,,,,high,low,,,,,,false,,,,false,1176221.5,1176221.400000006,,1176221.200000003,,1176034.709,4,500,,
sequence,flow.Sequence,10_21,2023-11-15T21:55:50.336Z,,,,,,,,,,5419.9310000059195,completion,,,,,,,high,low,,,,,,false,,,,false,1176221.800000012,1176221.400000006,1170784.847,1170982.900000006,1170801.469,1176034.709,4,500,,
trial,html.Screen,10_22_0,2023-11-15T21:55:55.126Z,,,,1,-0.0134764727102299,-0.0033499036460912,,false,hl,4976.290999999968,response,0.7723849213858904,0.6999150508324978,-0.7585544916912352,-0.888372424147899,1.1250000000000004,-1.0671238620038812,high,low,,ISIC_0009998.JPG,9,ISIC_3884221.JPG,34,false,hh,keypress(i),0,false,1181011.100000009,1181011,1176018.02,1176221.900000006,1176034.709,1180834.684,4,500,23,
break,html.Screen,10_22_1,2023-11-15T21:55:55.126Z,,,,,,,,,,NaN,,,,,,,,high,low,,,,,,false,,,,false,1181011.5,1181011.300000012,,1181011.200000003,,1180834.684,4,500,,
break_continue,html.Screen,10_22_2,2023-11-15T21:55:55.126Z,,,,,,,,,,NaN,,,,,,,,high,low,,,,,,false,,,,false,1181011.600000009,1181011.5,,1181011.5,,1180834.684,4,500,,
sequence,flow.Sequence,10_22,2023-11-15T21:55:55.126Z,,,,,,,,,,4976.790999999968,completion,,,,,,,high,low,,,,,,false,,,,false,1181011.600000009,1181011.5,1176018.02,1176221.900000006,1176034.709,1180834.684,4,500,,
trial,html.Screen,10_23_0,2023-11-15T21:55:58.726Z,,,,1,0.0450282431170921,,,true,hh,3776.2160000060685,response,0.7211186406624467,0.6999150508324978,-0.7585544916912352,1.1139309212106168,1.1250000000000004,-1.0671238620038812,high,high,,ISIC_1805163.JPG,9,ISIC_0031170.JPG,166,false,hh,keypress(i),0,false,1184611,1184610.900000006,1180818.205,1181011.700000003,1180834.684,1184434.96,4,500,24,
break,html.Screen,10_23_1,2023-11-15T21:55:58.726Z,,,,,,,,,,NaN,,,,,,,,high,high,,,,,,false,,,,false,1184611.300000012,1184611.200000003,,1184611.100000009,,1184434.96,4,500,,
break_continue,html.Screen,10_23_2,2023-11-15T21:55:58.726Z,,,,,,,,,,NaN,,,,,,,,high,high,,,,,,false,,,,false,1184611.5,1184611.400000006,,1184611.300000012,,1184434.96,4,500,,
sequence,flow.Sequence,10_23,2023-11-15T21:55:58.726Z,,,,,,,,,,3776.7160000060685,completion,,,,,,,high,high,,,,,,false,,,,false,1184611.600000009,1184611.400000006,1180818.205,1181011.700000003,1180834.684,1184434.96,4,500,,
trial,html.Screen,10_24_0,2023-11-15T21:56:02.695Z,,,,1,-0.0533723079251252,-0.0299718727255261,,true,hh,4145.040000000037,response,0.8640849084133538,0.6999150508324978,-0.7585544916912352,1.26072687424455,1.1250000000000004,-1.0671238620038812,high,high,,ISIC_6562871.JPG,9,ISIC_0055393.JPG,166,false,hh,keypress(i),0,false,1188580.300000012,1188580,1184418.117,1184611.600000009,1184434.96,1188401.369,4,500,25,
break,html.Screen,10_24_1,2023-11-15T21:56:02.696Z,,,,,,,,,,NaN,,,,,,,,high,high,,,,,,false,,,,false,1188581.100000009,1188581,,1188580.600000009,,1188401.369,4,500,,
break_continue,html.Screen,10_24_2,2023-11-15T21:56:02.696Z,,,,,,,,,,NaN,,,,,,,,high,high,,,,,,false,,,,false,1188581.700000003,1188581.5,,1188581.300000012,,1188401.369,4,500,,
sequence,flow.Sequence,10_24,2023-11-15T21:56:02.697Z,,,,,,,,,,4146.540000000037,completion,,,,,,,high,high,,,,,,false,,,,false,1188582,1188581.5,1184418.117,1184611.600000009,1184434.96,1188401.369,4,500,,
trial,html.Screen,10_25_0,2023-11-15T21:56:09.575Z,,,,1,0.0116094682222121,-0.0258434522530318,,false,lh,7058.931000011973,response,-0.640368147287078,0.6999150508324978,-0.7585544916912352,0.9390639372028852,1.1250000000000004,-1.0671238620038812,low,high,,ISIC_9239632.JPG,9,ISIC_0030393.JPG,37,false,ll,keypress(f),0,false,1195460.600000009,1195460.300000012,1188384.72,1188582.100000009,1188401.369,1195284.827,4,500,26,
break,html.Screen,10_25_1,2023-11-15T21:56:09.576Z,,,,,,,,,,NaN,,,,,,,,low,high,,,,,,false,,,,false,1195461.600000009,1195461.400000006,,1195461,,1195284.827,4,500,,
break_continue,html.Screen,10_25_2,2023-11-15T21:56:09.577Z,,,,,,,,,,NaN,,,,,,,,low,high,,,,,,false,,,,false,1195462.200000003,1195462,,1195461.800000012,,1195284.827,4,500,,
sequence,flow.Sequence,10_25,2023-11-15T21:56:09.577Z,,,,,,,,,,7060.631000000052,completion,,,,,,,low,high,,,,,,false,,,,false,1195462.5,1195462,1188384.72,1188582.100000009,1188401.369,1195284.827,4,500,,
trial,html.Screen,10_26_0,2023-11-15T21:56:15.327Z,,,,1,-0.0134764727102299,-0.0033499036460912,,false,ll,5927.373000002932,response,-0.7504722488504932,0.6999150508324978,-0.7585544916912352,-1.117673118196769,1.1250000000000004,-1.0671238620038812,low,low,,ISIC_0009998.JPG,9,ISIC_0028027.JPG,150,false,lh,keypress(e),0,false,1201212.400000006,1201212.200000003,1195268.13,1195462.600000009,1195284.827,1201034.843,4,500,27,
break,html.Screen,10_26_1,2023-11-15T21:56:15.328Z,,,,,,,,,,NaN,,,,,,,,low,low,,,,,,false,,,,false,1201213.300000012,1201213.100000009,,1201212.800000012,,1201034.843,4,500,,
break_continue,html.Screen,10_26_2,2023-11-15T21:56:15.329Z,,,,,,,,,,NaN,,,,,,,,low,low,,,,,,false,,,,false,1201213.900000006,1201213.800000012,,1201213.600000009,,1201034.843,4,500,,
sequence,flow.Sequence,10_26,2023-11-15T21:56:15.329Z,,,,,,,,,,5928.9730000118725,completion,,,,,,,low,low,,,,,,false,,,,false,1201214.100000009,1201213.800000012,1195268.13,1195462.600000009,1195284.827,1201034.843,4,500,,
trial,html.Screen,10_27_0,2023-11-15T21:56:21.246Z,,,,1,0.0544808612748248,-0.0240487075377862,,true,ll,6096.35700000287,response,-0.5668354703560446,0.6999150508324978,-0.7585544916912352,-1.1955547068476309,1.1250000000000004,-1.0671238620038812,low,low,,ISIC_4606646.JPG,9,ISIC_4529363.JPG,150,false,ll,keypress(f),0,false,1207131.300000012,1207131.200000003,1201018.106,1201214.300000012,1201034.843,1206951.437,4,500,28,
break,html.Screen,10_27_1,2023-11-15T21:56:21.246Z,,,,,,,,,,NaN,,,,,,,,low,low,,,,,,false,,,,false,1207131.5,1207131.5,,1207131.400000006,,1206951.437,4,500,,
break_continue,html.Screen,10_27_2,2023-11-15T21:56:21.246Z,,,,,,,,,,NaN,,,,,,,,low,low,,,,,,false,,,,false,1207131.700000003,1207131.700000003,,1207131.600000009,,1206951.437,4,500,,
sequence,flow.Sequence,10_27,2023-11-15T21:56:21.246Z,,,,,,,,,,6096.85700000287,completion,,,,,,,low,low,,,,,,false,,,,false,1207131.800000012,1207131.700000003,1201018.106,1201214.300000012,1201034.843,1206951.437,4,500,,
trial,html.Screen,10_28_0,2023-11-15T21:56:26.638Z,,,,1,0.0194167651857046,0.0726253809408601,,true,hh,5572.063000000082,response,0.8331144817673659,0.6999150508324978,-0.7585544916912352,0.9687545919760946,1.1250000000000004,-1.0671238620038812,high,high,,ISIC_0056692.JPG,9,ISIC_0028075.JPG,166,false,hh,keypress(i),0,false,1212523.5,1212523.5,1206934.643,1207131.800000012,1206951.437,1212334.608,4,500,29,
break,html.Screen,10_28_1,2023-11-15T21:56:26.638Z,,,,,,,,,,NaN,,,,,,,,high,high,,,,,,false,,,,false,1212523.800000012,1212523.700000003,,1212523.600000009,,1212334.608,4,500,,
break_continue,html.Screen,10_28_2,2023-11-15T21:56:26.639Z,,,,,,,,,,NaN,,,,,,,,high,high,,,,,,false,,,,false,1212524,1212523.900000006,,1212523.900000006,,1212334.608,4,500,,
sequence,flow.Sequence,10_28,2023-11-15T21:56:26.639Z,,,,,,,,,,5572.463000006042,completion,,,,,,,high,high,,,,,,false,,,,false,1212524.100000009,1212523.900000006,1206934.643,1207131.800000012,1206951.437,1212334.608,4,500,,
trial,html.Screen,10_29_0,2023-11-15T21:56:32.655Z,,,,1,0.0069555338059566,-0.0310100918136373,,true,hl,6205.391999999993,response,0.8947611078712571,0.6999150508324978,-0.7585544916912352,-0.8960964505004638,1.1250000000000004,-1.0671238620038812,high,low,,ISIC_0011177.JPG,9,ISIC_6441128.JPG,34,false,hl,keypress(j),0,false,1218540.400000006,1218540,1212318.151,1212524.100000009,1212334.608,1218351.327,4,500,30,
break,html.Screen,10_29_1,2023-11-15T21:56:32.656Z,,,,,,,,,,NaN,,,,,,,,high,low,,,,,,false,,,,false,1218541.200000003,1218541,,1218540.600000009,,1218351.327,4,500,,
break_continue,html.Screen,10_29_2,2023-11-15T21:56:32.656Z,,,,,,,,,,NaN,,,,,,,,high,low,,,,,,false,,,,false,1218541.800000012,1218541.600000009,,1218541.400000006,,1218351.327,4,500,,
sequence,flow.Sequence,10_29,2023-11-15T21:56:32.657Z,,,,,,,,,,6206.992000008933,completion,,,,,,,high,low,,,,,,false,,,,false,1218542,1218541.600000009,1212318.151,1212524.100000009,1212334.608,1218351.327,4,500,,
trial,html.Screen,10_30_0,2023-11-15T21:56:41.360Z,,,,1,0.0217698886732706,-0.0410870915161425,,false,lh,8892.573000005912,response,-0.8534691366511764,0.6999150508324978,-0.7585544916912352,1.03975580494588,1.1250000000000004,-1.0671238620038812,low,high,,ISIC_0072173.JPG,10,ISIC_0056788.JPG,37,false,hl,keypress(j),0,false,1227244.200000003,1227243.900000006,1218334.796,1218542.200000003,1218351.327,1227067.916,4,500,31,
break,html.Screen,10_30_1,2023-11-15T21:56:41.361Z,,,,,,,,,,NaN,,,,,,,,low,high,,,,,,false,,,,false,1227245.100000009,1227244.900000006,,1227244.5,,1227067.916,4,500,,
break_continue,html.Screen,10_30_2,2023-11-15T21:56:41.362Z,,,,,,,,,,NaN,,,,,,,,low,high,,,,,,false,,,,false,1227245.700000003,1227245.400000006,,1227245.200000003,,1227067.916,4,500,,
sequence,flow.Sequence,10_30,2023-11-15T21:56:41.362Z,,,,,,,,,,8894.073000005912,completion,,,,,,,low,high,,,,,,false,,,,false,1227245.900000006,1227245.400000006,1218334.796,1218542.100000009,1218351.327,1227067.916,4,500,,
trial,html.Screen,10_31_0,2023-11-15T21:56:47.416Z,,,,1,-0.0245376145053177,0.0436993426328401,,false,hl,6232.484000005992,response,0.5817380271979394,0.6999150508324978,-0.7585544916912352,-1.2499674737468107,1.1250000000000004,-1.0671238620038812,high,low,,ISIC_0056444.JPG,9,ISIC_0013617.JPG,34,false,lh,keypress(e),0,false,1233300.600000009,1233300.400000006,1227051.211,1227246,1227067.916,1233117.937,4,500,32,
break,html.Screen,10_31_1,2023-11-15T21:56:47.417Z,,,,,,,,,,NaN,,,,,,,,high,low,,,,,,false,,,,false,1233301.600000009,1233301.400000006,,1233301,,1233117.937,4,500,,
break_continue,html.Screen,10_31_2,2023-11-15T21:56:47.418Z,,,,,,,,,,NaN,,,,,,,,high,low,,,,,,false,,,,false,1233302.200000003,1233302,,1233301.800000012,,1233117.937,4,500,,
sequence,flow.Sequence,10_31,2023-11-15T21:56:47.418Z,,,,,,,,,,6234.084000000032,completion,,,,,,,high,low,,,,,,false,,,,false,1233302.400000006,1233302,1227051.211,1227246,1227067.916,1233117.937,4,500,,
trial,html.Screen,10_32_0,2023-11-15T21:56:54.696Z,,,,1,0.0415913596725838,-0.0543422987007948,,false,hl,7461.863000012003,response,0.6159110752639473,0.6999150508324978,-0.7585544916912352,-0.9608461034527604,1.1250000000000004,-1.0671238620038812,high,low,,ISIC_0027956.JPG,9,ISIC_0025215.JPG,34,false,hh,keypress(i),0,false,1240580,1240579.800000012,1233101.027,1233302.600000009,1233117.937,1240401.286,4,500,33,
break,html.Screen,10_32_1,2023-11-15T21:56:54.697Z,,,,,,,,,,NaN,,,,,,,,high,low,,,,,,false,,,,false,1240581,1240580.700000003,,1240580.400000006,,1240401.286,4,500,,
break_continue,html.Screen,10_32_2,2023-11-15T21:56:54.697Z,,,,,,,,,,NaN,,,,,,,,high,low,,,,,,false,,,,false,1240581.5,1240581.300000012,,1240581.100000009,,1240401.286,4,500,,
sequence,flow.Sequence,10_32,2023-11-15T21:56:54.698Z,,,,,,,,,,7463.363000012003,completion,,,,,,,high,low,,,,,,false,,,,false,1240581.700000003,1240581.300000012,1233101.027,1233302.5,1233117.937,1240401.286,4,500,,
trial,html.Screen,10_33_0,2023-11-15T21:57:01.609Z,,,,1,0.0509970506474296,0.0744820958440291,,false,lh,7091.514000011841,response,-0.6400270401005864,0.6999150508324978,-0.7585544916912352,0.947929468524881,1.1250000000000004,-1.0671238620038812,low,high,,ISIC_0009975.JPG,10,ISIC_3124612.JPG,37,false,hh,keypress(i),0,false,1247493.100000009,1247492.800000012,1240384.666,1240581.800000012,1240401.286,1247318.391,4,500,34,
break,html.Screen,10_33_1,2023-11-15T21:57:01.610Z,,,,,,,,,,NaN,,,,,,,,low,high,,,,,,false,,,,false,1247494,1247493.800000012,,1247493.300000012,,1247318.391,4,500,,
break_continue,html.Screen,10_33_2,2023-11-15T21:57:01.610Z,,,,,,,,,,NaN,,,,,,,,low,high,,,,,,false,,,,false,1247494.5,1247494.400000006,,1247494.200000003,,1247318.391,4,500,,
sequence,flow.Sequence,10_33,2023-11-15T21:57:01.611Z,,,,,,,,,,7093.11400000588,completion,,,,,,,low,high,,,,,,false,,,,false,1247494.800000012,1247494.400000006,1240384.666,1240581.800000012,1240401.286,1247318.391,4,500,,
trial,html.Screen,10_34_0,2023-11-15T21:57:08.112Z,,,,1,0.0660839342637046,-0.0657899819532072,,false,ll,6677.6089999999385,response,-0.6171051729492579,0.6999150508324978,-0.7585544916912352,-1.0527191035124657,1.1250000000000004,-1.0671238620038812,low,low,,ISIC_0065477.JPG,9,ISIC_0363130.JPG,150,false,lh,keypress(e),0,false,1253996.300000012,1253996,1247284.615,1247495,1247318.391,1253817.908,4,500,35,
break,html.Screen,10_34_1,2023-11-15T21:57:08.113Z,,,,,,,,,,NaN,,,,,,,,low,low,,,,,,false,,,,false,1253997.100000009,1253997,,1253996.600000009,,1253817.908,4,500,,
break_continue,html.Screen,10_34_2,2023-11-15T21:57:08.114Z,,,,,,,,,,NaN,,,,,,,,low,low,,,,,,false,,,,false,1253997.700000003,1253997.5,,1253997.300000012,,1253817.908,4,500,,
sequence,flow.Sequence,10_34,2023-11-15T21:57:08.114Z,,,,,,,,,,6679.1089999999385,completion,,,,,,,low,low,,,,,,false,,,,false,1253997.900000006,1253997.5,1247284.615,1247495,1247318.391,1253817.908,4,500,,
trial,html.Screen,10_35_0,2023-11-15T21:57:14.232Z,,,,1,-0.0112310719058792,0.0469047359904117,,false,ll,6298.192000008887,response,-0.7166955327034245,0.6999150508324978,-0.7585544916912352,-0.8917674789924069,1.1250000000000004,-1.0671238620038812,low,low,,ISIC_0068184.JPG,8,ISIC_0641480.JPG,150,false,lh,keypress(e),0,false,1260116.300000012,1260116.100000009,1253801.006,1253998.100000009,1253817.908,1259934.47,4,500,36,
break,html.Screen,10_35_1,2023-11-15T21:57:14.233Z,,,,,,,,,,NaN,,,,,,,,low,low,,,,,,false,,,,false,1260117.200000003,1260117,,1260116.600000009,,1259934.47,4,500,,
break_continue,html.Screen,10_35_2,2023-11-15T21:57:14.234Z,,,,,,,,,,NaN,,,,,,,,low,low,,,,,,false,,,,false,1260117.700000003,1260117.5,,1260117.400000006,,1259934.47,4,500,,
sequence,flow.Sequence,10_35,2023-11-15T21:57:14.234Z,,,,,,,,,,6299.591999999946,completion,,,,,,,low,low,,,,,,false,,,,false,1260117.900000006,1260117.5,1253801.006,1253998.100000009,1253817.908,1259934.47,4,500,,
trial,html.Screen,10_36_0,2023-11-15T21:57:18.390Z,,,,1,0.0509970506474296,0.0744820958440291,,true,hh,4339.730000003008,response,0.5656977751770853,0.6999150508324978,-0.7585544916912352,1.0887084502656488,1.1250000000000004,-1.0671238620038812,high,high,,ISIC_0009975.JPG,9,ISIC_0030417.JPG,166,false,hh,keypress(i),0,false,1264274.200000003,1264274.200000003,1259917.933,1260118.100000009,1259934.47,1264084.448,4,500,37,
break,html.Screen,10_36_1,2023-11-15T21:57:18.390Z,,,,,,,,,,NaN,,,,,,,,high,high,,,,,,false,,,,false,1264274.700000003,1264274.5,,1264274.300000012,,1264084.448,4,500,,
break_continue,html.Screen,10_36_2,2023-11-15T21:57:18.391Z,,,,,,,,,,NaN,,,,,,,,high,high,,,,,,false,,,,false,1264274.900000006,1264274.900000006,,1264274.700000003,,1264084.448,4,500,,
sequence,flow.Sequence,10_36,2023-11-15T21:57:18.391Z,,,,,,,,,,4340.430000005988,completion,,,,,,,high,high,,,,,,false,,,,false,1264275.100000009,1264274.900000006,1259917.933,1260118,1259934.47,1264084.448,4,500,,
trial,html.Screen,10_37_0,2023-11-15T21:57:24.128Z,,,,1,0.0116094682222121,-0.0258434522530318,,false,lh,5927.551999999909,response,-0.5728066452229819,0.6999150508324978,-0.7585544916912352,0.9498047545828672,1.1250000000000004,-1.0671238620038812,low,high,,ISIC_9239632.JPG,10,ISIC_3824206.JPG,37,false,ll,keypress(f),0,false,1270012.200000003,1270012,1264068.045,1264275.100000009,1264084.448,1269834.49,4,500,38,
break,html.Screen,10_37_1,2023-11-15T21:57:24.129Z,,,,,,,,,,NaN,,,,,,,,low,high,,,,,,false,,,,false,1270013.100000009,1270012.900000006,,1270012.5,,1269834.49,4,500,,
break_continue,html.Screen,10_37_2,2023-11-15T21:57:24.130Z,,,,,,,,,,NaN,,,,,,,,low,high,,,,,,false,,,,false,1270013.700000003,1270013.5,,1270013.300000012,,1269834.49,4,500,,
