sender,sender_type,sender_id,timestamp,meta,,age,blockNo,c1,c2,condition,correct,correctResponse,duration,ended_on,f1,f1_high,f1_low,f2,f2_high,f2_low,feature_level1,feature_level2,gender,img_left,img_reveal,img_right,n_target_images,practice,response,response_action,selection_duration,staircase,time_commit,time_end,time_render,time_run,time_show,time_switch,total_blocks,total_trials,trialNo,url
informed_consent,html.Screen,0,2023-11-15T21:30:24.147Z,"{""labjs_version"":""20.2.4"",""labjs_build"":{""flavor"":""development"",""commit"":""f5b4a49f956347addd546a832a3327688c2c0fef""},""location"":""https://labjs.felixhenninger.com/api/labjs_preview/index.html"",""userAgent"":""Mozilla/5.0 (Windows NT 10.0; Win64; x64) AppleWebKit/537.36 (KHTML, like Gecko) Chrome/119.0.0.0 Safari/537.36"",""platform"":""Win32"",""language"":""en-US"",""locale"":""en-US"",""timeZone"":""America/Chicago"",""timezoneOffset"":360,""screen_width"":1680,""screen_height"":1050,""scroll_width"":825,""scroll_height"":888,""window_innerWidth"":825,""window_innerHeight"":936,""devicePixelRatio"":1}",,,,,,,,,55387.41599999404,response,,,,,,,,,,,,,,,consent,click button,,,56026.70000001788,56017.59999999404,613.418,611.8000000119209,630.184,56038.244,,,,{}
Demography form,html.Form,1,2023-11-15T21:30:30.429Z,,,18,,,,,,,6267.756000000001,form submission,,,,,,,,,female,,,,,,,,,,62306.20000001788,62306,56021.322,56027,56038.244,62300.165,,,,
Welcome,html.Screen,2,2023-11-15T21:31:00.981Z,,,,,,,"[""asym"",""bor""]",,,30557.43499999404,response,,,,,,,,,,,,,,,continue,click button,,,92858.20000001788,92857.59999999404,62283.714,62306.20000001788,62300.165,92859.656,,,,
demo_instructions,html.Screen,3,2023-11-15T21:31:23.925Z,,,,,,,,,,22941.64400001192,response,,,,,,,,,,,,,,,continue,click button,,,115801.90000000596,115801.30000001192,92843.181,92858.30000001192,92859.656,115804.304,,,,
trial,html.Screen,4_0_0,2023-11-15T21:31:40.282Z,,,,0,1.0213365328004047,-1.088524359911891,,true,lh,16352.195999999996,response,-0.8579451262594331,1.0499999999999998,-1.0499999999999998,0.9633172970727744,1.0499999999999998,-1.0499999999999998,low,high,,ISIC_5434229.JPG,,ISIC_0067172.JPG,21,true,lh,keypress(e),100,false,132157.09999999404,132156.5,115787.633,115802,115804.304,132186.273,1,16,1,
sequence,flow.Sequence,4_0,2023-11-15T21:31:40.283Z,,,,,,,,,,16352.195999999996,completion,,,,,,,low,high,,,,,,true,,,,false,132158.09999999404,132156.5,115787.633,115801.90000000596,115804.304,132186.273,1,16,,
trial,html.Screen,4_1_0,2023-11-15T21:31:54.727Z,,,,0,0.9235571765207048,-1.0008081653938232,,true,lh,14415.326999994053,response,-0.9454713230140772,1.0499999999999998,-1.0499999999999998,0.9245167441969216,1.0499999999999998,-1.0499999999999998,low,high,,ISIC_8796632.JPG,,ISIC_9101055.JPG,21,true,lh,keypress(e),100,false,146602.20000001788,146601.59999999404,132169.579,132158.40000000596,132186.273,146631.185,1,16,2,
sequence,flow.Sequence,4_1,2023-11-15T21:31:54.728Z,,,,,,,,,,14415.326999994053,completion,,,,,,,low,high,,,,,,true,,,,false,146603,146601.59999999404,132169.579,132158.30000001192,132186.273,146631.185,1,16,,
trial,html.Screen,4_2_0,2023-11-15T21:32:04.005Z,,,,0,0.991146183030456,-0.9949639823722534,,true,lh,9247.815000000002,response,-1.0026266089287914,1.0499999999999998,-1.0499999999999998,1.0913275913920335,1.0499999999999998,-1.0499999999999998,low,high,,ISIC_6342224.JPG,,ISIC_0033520.JPG,21,true,lh,keypress(e),100,false,155879.70000001788,155879,146614.396,146603.30000001192,146631.185,155899.115,1,16,3,
sequence,flow.Sequence,4_2,2023-11-15T21:32:04.006Z,,,,,,,,,,9247.815000000002,completion,,,,,,,low,high,,,,,,true,,,,false,155880.5,155879,146614.396,146603.30000001192,146631.185,155899.115,1,16,,
trial,html.Screen,4_3_0,2023-11-15T21:32:10.482Z,,,,0,0.9235571765207048,-1.0008081653938232,,true,lh,6456.78500000597,response,-0.9696118525781644,1.0499999999999998,-1.0499999999999998,0.9244148283103414,1.0499999999999998,-1.0499999999999998,low,high,,ISIC_8796632.JPG,,ISIC_7927525.JPG,21,true,lh,keypress(e),100,false,162356.59999999404,162355.90000000596,155882.447,155880.80000001192,155899.115,162378.484,1,16,4,
sequence,flow.Sequence,4_3,2023-11-15T21:32:10.483Z,,,,,,,,,,6456.78500000597,completion,,,,,,,low,high,,,,,,true,,,,false,162357.40000000596,162355.90000000596,155882.447,155880.70000001788,155899.115,162378.484,1,16,,
trial,html.Screen,4_4_0,2023-11-15T21:32:24.702Z,,,,0,0.9777849718157332,1.117811430082889,,true,ll,14198.216000017885,response,-0.9684792294535484,1.0499999999999998,-1.0499999999999998,-0.9741930282015964,1.0499999999999998,-1.0499999999999998,low,low,,ISIC_3256887.JPG,,ISIC_3372750.JPG,111,true,ll,keypress(f),100,false,176576.90000000596,176576.70000001788,162361.727,162357.70000001788,162378.484,176606.056,1,16,5,
sequence,flow.Sequence,4_4,2023-11-15T21:32:24.702Z,,,,,,,,,,14198.216000017885,completion,,,,,,,low,low,,,,,,true,,,,false,176577.09999999404,176576.70000001788,162361.727,162357.59999999404,162378.484,176606.056,1,16,,
trial,html.Screen,4_5_0,2023-11-15T21:32:48.630Z,,,,0,1.0698162624196283,1.219634566983089,,true,ll,23895.94399999999,response,-1.2318069697449794,1.0499999999999998,-1.0499999999999998,-1.1703576816778267,1.0499999999999998,-1.0499999999999998,low,low,,ISIC_0030552.JPG,,ISIC_2732573.JPG,111,true,ll,keypress(f),100,false,200502.20000001788,200502,176589.362,176577.20000001788,176606.056,200519.524,1,16,6,
sequence,flow.Sequence,4_5,2023-11-15T21:32:48.630Z,,,,,,,,,,23895.94399999999,completion,,,,,,,low,low,,,,,,true,,,,false,200502.5,200502,176589.362,176577.20000001788,176606.056,200519.524,1,16,,
trial,html.Screen,4_6_0,2023-11-15T21:33:08.843Z,,,,0,1.0088070132449485,1.0292526683018866,,true,ll,20195.975999999995,response,-0.9786457729523576,1.0499999999999998,-1.0499999999999998,-1.1189056385517386,1.0499999999999998,-1.0499999999999998,low,low,,ISIC_0059314.JPG,,ISIC_3926019.JPG,111,true,ll,keypress(f),100,false,220715.80000001192,220715.5,200502.582,200502.59999999404,200519.524,220742.09,1,16,7,
sequence,flow.Sequence,4_6,2023-11-15T21:33:08.844Z,,,,,,,,,,20195.975999999995,completion,,,,,,,low,low,,,,,,true,,,,false,220716.40000000596,220715.5,200502.582,200502.59999999404,200519.524,220742.09,1,16,,
trial,html.Screen,4_7_0,2023-11-15T21:33:18.456Z,,,,0,1.0525532302758762,1.1628982512509805,,true,ll,9585.810000005964,response,-1.2148140264214349,1.0499999999999998,-1.0499999999999998,-1.0436713726380966,1.0499999999999998,-1.0499999999999998,low,low,,ISIC_0033428.JPG,,ISIC_7277310.JPG,111,true,ll,keypress(f),100,false,230328.40000000596,230327.90000000596,220725.255,220716.70000001788,220742.09,230344.014,1,16,8,
sequence,flow.Sequence,4_7,2023-11-15T21:33:18.457Z,,,,,,,,,,9585.810000005964,completion,,,,,,,low,low,,,,,,true,,,,false,230329,230327.90000000596,220725.255,220716.70000001788,220742.09,230344.014,1,16,,
trial,html.Screen,4_8_0,2023-11-15T21:33:27.628Z,,,,0,-0.990489579313564,0.7747897983133127,,true,hl,9154.286000011925,response,0.7870237732709365,0.9499999999999997,-0.9499999999999997,-0.9172955251119376,0.9499999999999997,-0.9499999999999997,high,low,,ISIC_7030404.JPG,,ISIC_0057716.JPG,26,true,hl,keypress(j),100,false,239498.80000001192,239498.30000001192,230327.547,230329.20000001788,230344.014,239528.529,1,16,9,
sequence,flow.Sequence,4_8,2023-11-15T21:33:27.629Z,,,,,,,,,,9154.286000011925,completion,,,,,,,high,low,,,,,,true,,,,false,239499.30000001192,239498.30000001192,230327.547,230329.09999999404,230344.014,239528.529,1,16,,
trial,html.Screen,4_9_0,2023-11-15T21:33:42.329Z,,,,0,-0.858338058340649,0.9540612223480284,,true,hl,14670.771000011911,response,0.7638895244791114,0.9499999999999997,-0.9499999999999997,-0.7780412100090998,0.9499999999999997,-0.9499999999999997,high,low,,ISIC_8922893.JPG,,ISIC_0026516.JPG,26,true,hl,keypress(j),100,false,254199.5,254199.30000001192,239511.893,239499.59999999404,239528.529,254223.794,1,16,10,
sequence,flow.Sequence,4_9,2023-11-15T21:33:42.330Z,,,,,,,,,,14670.771000011911,completion,,,,,,,high,low,,,,,,true,,,,false,254200,254199.30000001192,239511.893,239499.59999999404,239528.529,254223.794,1,16,,
trial,html.Screen,4_10_0,2023-11-15T21:33:50.129Z,,,,0,-1.1181734135756094,0.944560381774994,,true,hl,7775.0060000119265,response,0.8623414234919863,0.9499999999999997,-0.9499999999999997,-0.782830143980698,0.9499999999999997,-0.9499999999999997,high,low,,ISIC_9688534.JPG,,ISIC_2727016.JPG,26,true,hl,keypress(j),100,false,261999.30000001192,261998.80000001192,254207.145,254200,254223.794,262022.475,1,16,11,
sequence,flow.Sequence,4_10,2023-11-15T21:33:50.130Z,,,,,,,,,,7775.0060000119265,completion,,,,,,,high,low,,,,,,true,,,,false,262000,261998.80000001192,254207.145,254200,254223.794,262022.475,1,16,,
trial,html.Screen,4_11_0,2023-11-15T21:34:03.312Z,,,,0,-0.858338058340649,0.9540612223480284,,true,hl,13159.325000011915,response,0.7723849213858904,0.9499999999999997,-0.9499999999999997,-0.888372424147899,0.9499999999999997,-0.9499999999999997,high,low,,ISIC_8922893.JPG,,ISIC_3884221.JPG,26,true,hl,keypress(j),100,false,275182.2000000179,275181.8000000119,262005.698,262000.30000001192,262022.475,275198.029,1,16,12,
sequence,flow.Sequence,4_11,2023-11-15T21:34:03.313Z,,,,,,,,,,13159.325000011915,completion,,,,,,,high,low,,,,,,true,,,,false,275182.90000000596,275181.8000000119,262005.698,262000.20000001788,262022.475,275198.029,1,16,,
trial,html.Screen,4_12_0,2023-11-15T21:34:26.188Z,,,,0,-0.8012073849444404,-0.8279987487454253,,true,hh,22860.1710000179,response,0.934130994804294,0.9499999999999997,-0.9499999999999997,1.0454436589399478,0.9499999999999997,-0.9499999999999997,high,high,,ISIC_0030703.JPG,,ISIC_0053916.JPG,167,true,hh,keypress(i),100,false,298058.59999999404,298058.2000000179,275181.411,275183.09999999404,275198.029,298076.033,1,16,13,
sequence,flow.Sequence,4_12,2023-11-15T21:34:26.189Z,,,,,,,,,,22860.1710000179,completion,,,,,,,high,high,,,,,,true,,,,false,298059.2000000179,298058.2000000179,275181.411,275183,275198.029,298076.033,1,16,,
trial,html.Screen,4_13_0,2023-11-15T21:34:34.197Z,,,,0,-1.0769490291795207,-1.0174515954885954,,true,hh,7989.967000000004,response,0.9012711689442632,0.9499999999999997,-0.9499999999999997,0.8639942067158306,0.9499999999999997,-0.9499999999999997,high,high,,ISIC_0028135.JPG,,ISIC_0032718.JPG,167,true,hh,keypress(i),100,false,306066.40000000596,306066,298059.181,298059.5,298076.033,306091.531,1,16,14,
sequence,flow.Sequence,4_13,2023-11-15T21:34:34.198Z,,,,,,,,,,7989.967000000004,completion,,,,,,,high,high,,,,,,true,,,,false,306067,306066,298059.181,298059.3000000119,298076.033,306091.531,1,16,,
trial,html.Screen,4_14_0,2023-11-15T21:34:47.553Z,,,,0,-0.9607077625123552,-1.0682608339754711,,true,hh,13330.169000017864,response,0.9307420457704906,0.9499999999999997,-0.9499999999999997,1.0040662939937806,0.9499999999999997,-0.9499999999999997,high,high,,ISIC_0064763.JPG,,ISIC_4508878.JPG,167,true,hh,keypress(i),100,false,319422.09999999404,319421.7000000179,306074.779,306067.3000000119,306091.531,319450.733,1,16,15,
sequence,flow.Sequence,4_14,2023-11-15T21:34:47.554Z,,,,,,,,,,13330.169000017864,completion,,,,,,,high,high,,,,,,true,,,,false,319422.8000000119,319421.7000000179,306074.779,306067.2000000179,306091.531,319450.733,1,16,,
trial,html.Screen,4_15_0,2023-11-15T21:34:53.566Z,,,,0,-1.072671714258808,-1.0208498389771272,,true,hh,5983.866999994032,response,1.021420495018506,0.9499999999999997,-0.9499999999999997,0.8195763659090913,0.9499999999999997,-0.9499999999999997,high,high,,ISIC_5218773.JPG,,ISIC_0011493.JPG,167,true,hh,keypress(i),100,false,325435,325434.59999999404,319434.022,319423.09999999404,319450.733,325462.414,1,16,16,
sequence,flow.Sequence,4_15,2023-11-15T21:34:53.567Z,,,,,,,,,,5983.866999994032,completion,,,,,,,high,high,,,,,,true,,,,false,325435.59999999404,325434.59999999404,319434.022,319423,319450.733,325462.414,1,16,,
demonstration_loop,flow.Loop,4,2023-11-15T21:34:53.567Z,,,,,,,,,,209630.29599999404,completion,,,,,,,,,,,,,,true,,,,false,325436,325434.59999999404,115787.633,115801.90000000596,115804.304,325462.414,1,16,,
practice_instructions,html.Screen,5,2023-11-15T21:35:20.773Z,,,,,,,,,,27171.28600001789,response,,,,,,,,,,,,,,,continue,click button,,,352641.90000000596,352633.7000000179,325445.836,325436.09999999404,325462.414,352648.691,,,,
trial,html.Screen,6_0_0,2023-11-15T21:35:31.784Z,,,,1,1.0917349644156236,0.9715963767506804,,,,11021.472999999998,timeout,-0.7513441030097987,0.9499999999999997,-0.9499999999999997,-1.0027606333094683,0.9499999999999997,-0.9499999999999997,low,low,,ISIC_0034059.JPG,,ISIC_6877295.JPG,142,true,,,0,false,363650.2000000179,363649.7000000179,352632.159,352641.90000000596,352648.691,363670.164,1,40,1,
sequence,flow.Sequence,6_0,2023-11-15T21:35:31.785Z,,,,,,,,,,11001.00900001789,completion,,,,,,,low,low,,,,,,true,,,,false,363650.7000000179,363649.7000000179,352632.159,352641.90000000596,352648.691,363670.164,1,40,,
trial,html.Screen,6_1_0,2023-11-15T21:35:37.904Z,,,,1,-0.9125490178245472,-0.8381837623442241,,true,hh,6099.636000011931,response,0.8915634966621839,0.9499999999999997,-0.9499999999999997,0.7932594669441307,0.9499999999999997,-0.9499999999999997,high,high,,ISIC_4699989.JPG,,ISIC_1937197.JPG,167,true,hh,keypress(i),0,false,369769.90000000596,369769.8000000119,363653.517,363651,363670.164,369782.24,1,40,2,
sequence,flow.Sequence,6_1,2023-11-15T21:35:37.904Z,,,,,,,,,,6099.636000011931,completion,,,,,,,high,high,,,,,,true,,,,false,369770.09999999404,369769.8000000119,363653.517,363650.90000000596,363670.164,369782.24,1,40,,
trial,html.Screen,6_2_0,2023-11-15T21:35:45.370Z,,,,1,-0.7877939497981142,0.8415032780288271,,false,hl,7453.260000000009,response,0.9235571765207048,0.9499999999999997,-0.9499999999999997,-1.0008081653938232,0.9499999999999997,-0.9499999999999997,high,low,,ISIC_0067308.JPG,,ISIC_8796632.JPG,26,true,hh,keypress(i),0,false,377235.8000000119,377235.5,369765.39,369770.09999999404,369782.24,377246.622,1,40,3,
sequence,flow.Sequence,6_2,2023-11-15T21:35:45.370Z,,,,,,,,,,7453.260000000009,completion,,,,,,,high,low,,,,,,true,,,,false,377236.40000000596,377235.5,369765.39,369770.09999999404,369782.24,377246.622,1,40,,
trial,html.Screen,6_3_0,2023-11-15T21:35:50.656Z,,,,1,0.7809949855371787,-0.8493861117004308,,false,lh,5275.477999994066,response,-0.8541581294181414,0.9499999999999997,-0.9499999999999997,0.7637475587255248,0.9499999999999997,-0.9499999999999997,low,high,,ISIC_7450481.JPG,,ISIC_0014782.JPG,28,true,ll,keypress(f),0,false,382522.2000000179,382522.09999999404,377229.82,377236.59999999404,377246.622,382540.986,1,40,4,
sequence,flow.Sequence,6_3,2023-11-15T21:35:50.656Z,,,,,,,,,,5275.477999994066,completion,,,,,,,low,high,,,,,,true,,,,false,382522.3000000119,382522.09999999404,377229.82,377236.5,377246.622,382540.986,1,40,,
trial,html.Screen,6_4_0,2023-11-15T21:35:57.242Z,,,,1,0.8623414234919863,-0.782830143980698,,false,lh,6566.514000000025,response,-0.8809306963311293,0.9499999999999997,-0.9499999999999997,0.8614910030038974,0.9499999999999997,-0.9499999999999997,low,high,,ISIC_2727016.JPG,,ISIC_0013731.JPG,28,true,hh,keypress(i),0,false,389107.8000000119,389107.5,382506.824,382522.40000000596,382540.986,389119.673,1,40,5,
sequence,flow.Sequence,6_4,2023-11-15T21:35:57.242Z,,,,,,,,,,6566.514000000025,completion,,,,,,,low,high,,,,,,true,,,,false,389108.2000000179,389107.5,382506.824,382522.3000000119,382540.986,389119.673,1,40,,
trial,html.Screen,6_5_0,2023-11-15T21:36:02.298Z,,,,1,0.999840720741648,0.8010128234618513,,false,ll,5044.027000017872,response,-0.7798182602765784,0.9499999999999997,-0.9499999999999997,-0.8643036808931337,0.9499999999999997,-0.9499999999999997,low,low,,ISIC_0058768.JPG,,ISIC_6703027.JPG,142,true,hh,keypress(i),0,false,394164,394163.7000000179,389102.989,389108.5,389119.673,394179.583,1,40,6,
sequence,flow.Sequence,6_5,2023-11-15T21:36:02.299Z,,,,,,,,,,5044.027000017872,completion,,,,,,,low,low,,,,,,true,,,,false,394164.5,394163.7000000179,389102.989,389108.5,389119.673,394179.583,1,40,,
trial,html.Screen,6_6_0,2023-11-15T21:36:09.354Z,,,,1,0.8042584193544507,1.1325589611397748,,true,ll,7039.917000000016,response,-0.8399241413841876,0.9499999999999997,-0.9499999999999997,-0.9343381610425818,0.9499999999999997,-0.9499999999999997,low,low,,ISIC_0026188.JPG,,ISIC_9203914.JPG,142,true,ll,keypress(f),0,false,401219.8000000119,401219.5,394163.003,394164.8000000119,394179.583,401226.576,1,40,7,
sequence,flow.Sequence,6_6,2023-11-15T21:36:09.354Z,,,,,,,,,,7039.917000000016,completion,,,,,,,low,low,,,,,,true,,,,false,401220.3000000119,401219.5,394163.003,394164.7000000179,394179.583,401226.576,1,40,,
trial,html.Screen,6_7_0,2023-11-15T21:36:13.786Z,,,,1,0.9808380646997692,0.7749885350260185,,true,ll,4424.8240000059595,response,-0.9684792294535484,0.9499999999999997,-0.9499999999999997,-0.9741930282015964,0.9499999999999997,-0.9499999999999997,low,low,,ISIC_0032190.JPG,,ISIC_3372750.JPG,142,true,ll,keypress(f),0,false,405651.7000000179,405651.40000000596,401209.945,401220.5,401226.576,405668.597,1,40,8,
sequence,flow.Sequence,6_7,2023-11-15T21:36:13.786Z,,,,,,,,,,4424.8240000059595,completion,,,,,,,low,low,,,,,,true,,,,false,405652.2000000179,405651.40000000596,401209.945,401220.5,401226.576,405668.597,1,40,,
trial,html.Screen,6_8_0,2023-11-15T21:36:19.810Z,,,,1,0.8360440386579719,1.1017564906891342,,false,ll,6006.902999999991,response,-0.8318514901182542,0.9499999999999997,-0.9499999999999997,-0.9538458994523976,0.9499999999999997,-0.9499999999999997,low,low,,ISIC_0029026.JPG,,ISIC_3161477.JPG,142,true,lh,keypress(e),0,false,411675.90000000596,411675.5,405651.99,405652.40000000596,405668.597,411680.232,1,40,9,
sequence,flow.Sequence,6_8,2023-11-15T21:36:19.811Z,,,,,,,,,,6006.902999999991,completion,,,,,,,low,low,,,,,,true,,,,false,411676.5,411675.5,405651.99,405652.3000000119,405668.597,411680.232,1,40,,
trial,html.Screen,6_9_0,2023-11-15T21:36:28.548Z,,,,1,-0.858338058340649,0.9540612223480284,,false,hl,8731.568000011903,response,0.948927472020595,0.9499999999999997,-0.9499999999999997,-1.0660437155921598,0.9499999999999997,-0.9499999999999997,high,low,,ISIC_8922893.JPG,,ISIC_5808758.JPG,26,true,lh,keypress(e),0,false,420412.09999999404,420411.8000000119,411663.477,411676.7000000179,411680.232,420432.014,1,40,10,
sequence,flow.Sequence,6_9,2023-11-15T21:36:28.549Z,,,,,,,,,,8731.568000011903,completion,,,,,,,high,low,,,,,,true,,,,false,420412.59999999404,420411.8000000119,411663.477,411676.59999999404,411680.232,420432.014,1,40,,
trial,html.Screen,6_10_0,2023-11-15T21:36:33.836Z,,,,1,-0.8809306963311293,0.8614910030038974,,false,hl,5267.386000005936,response,0.7723849213858904,0.9499999999999997,-0.9499999999999997,-0.888372424147899,0.9499999999999997,-0.9499999999999997,high,low,,ISIC_0013731.JPG,,ISIC_3884221.JPG,26,true,ll,keypress(f),0,false,425699.8000000119,425699.40000000596,420397.348,420412.90000000596,420432.014,425707.556,1,40,11,
sequence,flow.Sequence,6_10,2023-11-15T21:36:33.837Z,,,,,,,,,,5267.386000005936,completion,,,,,,,high,low,,,,,,true,,,,false,425700.3000000119,425699.40000000596,420397.348,420412.8000000119,420432.014,425707.556,1,40,,
trial,html.Screen,6_11_0,2023-11-15T21:36:43.604Z,,,,1,-1.1181734135756094,0.944560381774994,,true,hl,9760.043999994057,response,0.7870237732709365,0.9499999999999997,-0.9499999999999997,-0.9172955251119376,0.9499999999999997,-0.9499999999999997,high,low,,ISIC_9688534.JPG,,ISIC_0057716.JPG,26,true,hl,keypress(j),0,false,435468,435467.59999999404,425691.079,425700.5,425707.556,435476.53,1,40,12,
sequence,flow.Sequence,6_11,2023-11-15T21:36:43.605Z,,,,,,,,,,9760.043999994057,completion,,,,,,,high,low,,,,,,true,,,,false,435468.40000000596,435467.59999999404,425691.079,425700.40000000596,425707.556,435476.53,1,40,,
trial,html.Screen,6_12_0,2023-11-15T21:36:49.028Z,,,,1,0.8023139365538781,0.8089024151174812,,true,ll,5414.969999999972,response,-0.8689515664606163,0.9499999999999997,-0.9499999999999997,-1.0538817435713148,0.9499999999999997,-0.9499999999999997,low,low,,ISIC_3897960.JPG,,ISIC_7333928.JPG,142,true,ll,keypress(f),0,false,440891.8000000119,440891.5,435459.792,435468.90000000596,435476.53,440903.822,1,40,13,
sequence,flow.Sequence,6_12,2023-11-15T21:36:49.029Z,,,,,,,,,,5414.969999999972,completion,,,,,,,low,low,,,,,,true,,,,false,440892.3000000119,440891.5,435459.792,435468.8000000119,435476.53,440903.822,1,40,,
trial,html.Screen,6_13_0,2023-11-15T21:36:54.636Z,,,,1,-1.079549480496248,-0.9336079040538864,,true,hh,5595.578000005975,response,0.8345422969075986,0.9499999999999997,-0.9499999999999997,1.01309388434443,0.9499999999999997,-0.9499999999999997,high,high,,ISIC_6913045.JPG,,ISIC_1241817.JPG,167,true,hh,keypress(i),0,false,446499.59999999404,446499.40000000596,440887.298,440892.59999999404,440903.822,446514.72,1,40,14,
sequence,flow.Sequence,6_13,2023-11-15T21:36:54.636Z,,,,,,,,,,5595.578000005975,completion,,,,,,,high,high,,,,,,true,,,,false,446500.09999999404,446499.40000000596,440887.298,440892.40000000596,440903.822,446514.72,1,40,,
trial,html.Screen,6_14_0,2023-11-15T21:37:00.748Z,,,,1,0.7911024675435955,-0.7975977016137676,,false,lh,6096.680000005988,response,-1.011737552725394,0.9499999999999997,-0.9499999999999997,0.8500530224490773,0.9499999999999997,-0.9499999999999997,low,high,,ISIC_5813642.JPG,,ISIC_2998367.JPG,28,true,ll,keypress(f),0,false,452611.8000000119,452611.40000000596,446498.162,446500.3000000119,446514.72,452626.806,1,40,15,
sequence,flow.Sequence,6_14,2023-11-15T21:37:00.749Z,,,,,,,,,,6096.680000005988,completion,,,,,,,low,high,,,,,,true,,,,false,452612.59999999404,452611.40000000596,446498.162,446500.2000000179,446514.72,452626.806,1,40,,
trial,html.Screen,6_15_0,2023-11-15T21:37:05.564Z,,,,1,-1.0859458972647518,-0.9241823104580792,,true,hh,4800.894000017899,response,0.8597768256741747,0.9499999999999997,-0.9499999999999997,1.1001121427563445,0.9499999999999997,-0.9499999999999997,high,high,,ISIC_0011721.JPG,,ISIC_5922588.JPG,167,true,hh,keypress(i),0,false,457428,457427.7000000179,452610.129,452612.8000000119,452626.806,457435.965,1,40,16,
sequence,flow.Sequence,6_15,2023-11-15T21:37:05.565Z,,,,,,,,,,4800.894000017899,completion,,,,,,,high,high,,,,,,true,,,,false,457428.5,457427.7000000179,452610.129,452612.8000000119,452626.806,457435.965,1,40,,
trial,html.Screen,6_16_0,2023-11-15T21:37:10.404Z,,,,1,-1.0650525146668357,-0.9852293825146712,,true,hh,4831.335000011895,response,1.0005520482328611,0.9499999999999997,-0.9499999999999997,1.0694936015783003,0.9499999999999997,-0.9499999999999997,high,high,,ISIC_6642608.JPG,,ISIC_0059891.JPG,167,true,hh,keypress(i),0,false,462267.7000000179,462267.3000000119,457419.402,457428.7000000179,457435.965,462278.781,1,40,17,
sequence,flow.Sequence,6_16,2023-11-15T21:37:10.405Z,,,,,,,,,,4831.335000011895,completion,,,,,,,high,high,,,,,,true,,,,false,462268.09999999404,462267.3000000119,457419.402,457428.7000000179,457435.965,462278.781,1,40,,
trial,html.Screen,6_17_0,2023-11-15T21:37:17.076Z,,,,1,-0.9149803805834588,-0.7596912841144952,,false,hh,6660.818999994022,response,0.7633286649662646,0.9499999999999997,-0.9499999999999997,0.9562649947567318,0.9499999999999997,-0.9499999999999997,high,high,,ISIC_4879187.JPG,,ISIC_0064010.JPG,167,true,hl,keypress(j),0,false,468939.90000000596,468939.59999999404,462262.184,462268.40000000596,462278.781,468959.002,1,40,18,
sequence,flow.Sequence,6_17,2023-11-15T21:37:17.077Z,,,,,,,,,,6660.818999994022,completion,,,,,,,high,high,,,,,,true,,,,false,468940.40000000596,468939.59999999404,462262.184,462268.3000000119,462278.781,468959.002,1,40,,
trial,html.Screen,6_18_0,2023-11-15T21:37:24.692Z,,,,1,-0.9433720631499012,1.0582071940347648,,false,hl,7596.198000017903,response,0.8655167308525522,0.9499999999999997,-0.9499999999999997,-0.9298580423306444,0.9499999999999997,-0.9499999999999997,high,low,,ISIC_4890201.JPG,,ISIC_4603706.JPG,26,true,hh,keypress(i),0,false,476555.59999999404,476555.2000000179,468925.183,468940.7000000179,468959.002,476573.442,1,40,19,
sequence,flow.Sequence,6_18,2023-11-15T21:37:24.692Z,,,,,,,,,,7596.198000017903,completion,,,,,,,high,low,,,,,,true,,,,false,476556.09999999404,476555.2000000179,468925.183,468940.59999999404,468959.002,476573.442,1,40,,
trial,html.Screen,6_19_0,2023-11-15T21:37:28.927Z,,,,1,-0.8463538475082831,-0.8806175558408877,,true,hh,4214.45800000598,response,0.958609763811768,0.9499999999999997,-0.9499999999999997,1.0650939066726144,0.9499999999999997,-0.9499999999999997,high,high,,ISIC_8916136.JPG,,ISIC_0070163.JPG,167,true,hh,keypress(i),0,false,480788.2000000179,480787.90000000596,476556.695,476556.3000000119,476573.442,480798.137,1,40,20,
sequence,flow.Sequence,6_19,2023-11-15T21:37:28.927Z,,,,,,,,,,4214.45800000598,completion,,,,,,,high,high,,,,,,true,,,,false,480788.7000000179,480787.90000000596,476556.695,476556.3000000119,476573.442,480798.137,1,40,,
trial,html.Screen,6_20_0,2023-11-15T21:37:33.606Z,,,,1,-1.0656673213158945,0.8082541692781954,,false,hl,4668.962999994052,response,0.7638895244791114,0.9499999999999997,-0.9499999999999997,-0.7780412100090998,0.9499999999999997,-0.9499999999999997,high,low,,ISIC_0033985.JPG,,ISIC_0026516.JPG,26,true,lh,keypress(e),0,false,485467.40000000596,485467.09999999404,480781.611,480788.90000000596,480798.137,485473.893,1,40,21,
sequence,flow.Sequence,6_20,2023-11-15T21:37:33.606Z,,,,,,,,,,4668.962999994052,completion,,,,,,,high,low,,,,,,true,,,,false,485467.90000000596,485467.09999999404,480781.611,480788.90000000596,480798.137,485473.893,1,40,,
trial,html.Screen,6_21_0,2023-11-15T21:37:39.879Z,,,,1,-1.0378929077920005,-1.012953297890337,,true,hh,6265.907000011939,response,1.0529768630659295,0.9499999999999997,-0.9499999999999997,0.7530547977543617,0.9499999999999997,-0.9499999999999997,high,high,,ISIC_0231745.JPG,,ISIC_0067743.JPG,167,true,hh,keypress(i),0,false,491740.09999999404,491739.8000000119,485457.147,485468,485473.893,491752.772,1,40,22,
sequence,flow.Sequence,6_21,2023-11-15T21:37:39.879Z,,,,,,,,,,6265.907000011939,completion,,,,,,,high,high,,,,,,true,,,,false,491740.59999999404,491739.8000000119,485457.147,485468,485473.893,491752.772,1,40,,
trial,html.Screen,6_22_0,2023-11-15T21:37:44.326Z,,,,1,0.9254369922344792,0.801722142776163,,true,ll,4434.728000000003,response,-1.0270718265914571,0.9499999999999997,-0.9499999999999997,-0.9536353804316964,0.9499999999999997,-0.9499999999999997,low,low,,ISIC_3236964.JPG,,ISIC_3431915.JPG,142,true,ll,keypress(f),0,false,496187.8000000119,496187.5,491736.097,491740.8000000119,491752.772,496194.819,1,40,23,
sequence,flow.Sequence,6_22,2023-11-15T21:37:44.327Z,,,,,,,,,,4434.728000000003,completion,,,,,,,low,low,,,,,,true,,,,false,496188.3000000119,496187.5,491736.097,491740.8000000119,491752.772,496194.819,1,40,,
trial,html.Screen,6_23_0,2023-11-15T21:37:50.958Z,,,,1,0.8200962008791046,-0.7936051642828523,,false,lh,6624.780999994022,response,-0.9579209317488,0.9499999999999997,-0.9499999999999997,1.0147487101263497,0.9499999999999997,-0.9499999999999997,low,high,,ISIC_0027031.JPG,,ISIC_8124482.JPG,28,true,hh,keypress(i),0,false,502820,502819.59999999404,496178.252,496188.59999999404,496194.819,502824.392,1,40,24,
sequence,flow.Sequence,6_23,2023-11-15T21:37:50.959Z,,,,,,,,,,6624.780999994022,completion,,,,,,,low,high,,,,,,true,,,,false,502820.5,502819.59999999404,496178.252,496188.59999999404,496194.819,502824.392,1,40,,
trial,html.Screen,6_24_0,2023-11-15T21:37:59.006Z,,,,1,0.8574426517835552,1.1207578827801843,,false,ll,8043.108000000007,response,-1.0987112847206,0.9499999999999997,-0.9499999999999997,-0.8004269994538202,0.9499999999999997,-0.9499999999999997,low,low,,ISIC_0030423.JPG,,ISIC_0027804.JPG,142,true,lh,keypress(e),0,false,510868,510867.5,502807.799,502820.7000000179,502824.392,510873.332,1,40,25,
sequence,flow.Sequence,6_24,2023-11-15T21:37:59.007Z,,,,,,,,,,8043.108000000007,completion,,,,,,,low,low,,,,,,true,,,,false,510868.8000000119,510867.5,502807.799,502820.7000000179,502824.392,510873.332,1,40,,
trial,html.Screen,6_25_0,2023-11-15T21:38:06.279Z,,,,1,0.887838744955182,-0.7545096650863988,,false,lh,7266.468000011926,response,-0.7784583866003763,0.9499999999999997,-0.9499999999999997,0.9641514808986528,0.9499999999999997,-0.9499999999999997,low,high,,ISIC_1488727.JPG,,ISIC_0011924.JPG,28,true,ll,keypress(f),0,false,518140.09999999404,518139.8000000119,510856.849,510869.2000000179,510873.332,518154.221,1,40,26,
sequence,flow.Sequence,6_25,2023-11-15T21:38:06.279Z,,,,,,,,,,7266.468000011926,completion,,,,,,,low,high,,,,,,true,,,,false,518140.7000000179,518139.8000000119,510856.849,510869.09999999404,510873.332,518154.221,1,40,,
trial,html.Screen,6_26_0,2023-11-15T21:38:12.622Z,,,,1,-0.953802353776362,-0.927101493584587,,true,hh,6329.079000011901,response,1.0687084488958063,0.9499999999999997,-0.9499999999999997,0.8837970437785844,0.9499999999999997,-0.9499999999999997,high,high,,ISIC_9751601.JPG,,ISIC_0072714.JPG,167,true,hh,keypress(i),0,false,524483.7000000179,524483.3000000119,518137.575,518140.90000000596,518154.221,524500.107,1,40,27,
sequence,flow.Sequence,6_26,2023-11-15T21:38:12.623Z,,,,,,,,,,6329.079000011901,completion,,,,,,,high,high,,,,,,true,,,,false,524484.099999994,524483.3000000119,518137.575,518140.8000000119,518154.221,524500.107,1,40,,
trial,html.Screen,6_27_0,2023-11-15T21:38:17.831Z,,,,1,-1.079549480496248,-0.9336079040538864,,false,hh,5191.89300000004,response,0.9079289924001074,0.9499999999999997,-0.9499999999999997,0.7922971602123134,0.9499999999999997,-0.9499999999999997,high,high,,ISIC_6913045.JPG,,ISIC_6644659.JPG,167,true,hl,keypress(j),0,false,529692.3000000119,529692,524483.356,524484.5,524500.107,529710.139,1,40,28,
sequence,flow.Sequence,6_27,2023-11-15T21:38:17.831Z,,,,,,,,,,5191.89300000004,completion,,,,,,,high,high,,,,,,true,,,,false,529692.7000000179,529692,524483.356,524484.400000006,524500.107,529710.139,1,40,,
trial,html.Screen,6_28_0,2023-11-15T21:38:28.840Z,,,,1,0.8623414234919863,-0.782830143980698,,,,11021.457000000053,timeout,-1.0865333402803938,0.9499999999999997,-0.9499999999999997,1.0542635307358266,0.9499999999999997,-0.9499999999999997,low,high,,ISIC_2727016.JPG,,ISIC_0034006.JPG,28,true,,,0,false,540699.099999994,540698.7000000179,529693.479,529693,529710.139,540731.596,1,40,29,
sequence,flow.Sequence,6_28,2023-11-15T21:38:28.840Z,,,,,,,,,,10988.561000017915,completion,,,,,,,low,high,,,,,,true,,,,false,540699.5,540698.7000000179,529693.479,529693,529710.139,540731.596,1,40,,
trial,html.Screen,6_29_0,2023-11-15T21:38:36.569Z,,,,1,1.0762260610050776,1.082709423673037,,true,ll,7696.00399999402,response,-1.0109425975109978,0.9499999999999997,-0.9499999999999997,-0.7936092227742398,0.9499999999999997,-0.9499999999999997,low,low,,ISIC_0058666.JPG,,ISIC_8253326.JPG,142,true,ll,keypress(f),0,false,548428,548427.599999994,540714.948,540699.8000000119,540731.596,548446.862,1,40,30,
sequence,flow.Sequence,6_29,2023-11-15T21:38:36.569Z,,,,,,,,,,7696.00399999402,completion,,,,,,,low,low,,,,,,true,,,,false,548428.5,548427.599999994,540714.948,540699.7000000179,540731.596,548446.862,1,40,,
trial,html.Screen,6_30_0,2023-11-15T21:38:42.328Z,,,,1,1.0522062210008176,0.7537341061655476,,true,ll,5740.438000011956,response,-0.9358725198038064,0.9499999999999997,-0.9499999999999997,-0.9938776615596308,0.9499999999999997,-0.9499999999999997,low,low,,ISIC_0013588.JPG,,ISIC_3365692.JPG,142,true,ll,keypress(f),0,false,554187.599999994,554187.3000000119,548413.229,548428.8000000119,548446.862,554191.06,1,40,31,
sequence,flow.Sequence,6_30,2023-11-15T21:38:42.329Z,,,,,,,,,,5740.438000011956,completion,,,,,,,low,low,,,,,,true,,,,false,554188.099999994,554187.3000000119,548413.229,548428.7000000179,548446.862,554191.06,1,40,,
trial,html.Screen,6_31_0,2023-11-15T21:38:49.969Z,,,,1,0.7809949855371787,-0.8493861117004308,,true,lh,7636.740000011865,response,-1.0656673213158945,0.9499999999999997,-0.9499999999999997,0.8082541692781954,0.9499999999999997,-0.9499999999999997,low,high,,ISIC_7450481.JPG,,ISIC_0033985.JPG,28,true,lh,keypress(e),0,false,561828.099999994,561827.8000000119,554174.403,554188.400000006,554191.06,561839.27,1,40,32,
sequence,flow.Sequence,6_31,2023-11-15T21:38:49.969Z,,,,,,,,,,7636.740000011865,completion,,,,,,,low,high,,,,,,true,,,,false,561828.7000000179,561827.8000000119,554174.403,554188.2000000179,554191.06,561839.27,1,40,,
trial,html.Screen,6_32_0,2023-11-15T21:38:58.728Z,,,,1,-0.858338058340649,0.9540612223480284,,true,hl,8748.030000011902,response,0.8035152873995188,0.9499999999999997,-0.9499999999999997,-0.82868450251632,0.9499999999999997,-0.9499999999999997,high,low,,ISIC_8922893.JPG,,ISIC_0010671.JPG,26,true,hl,keypress(j),0,false,570587.599999994,570587.3000000119,561822.646,561828.900000006,561839.27,570607.78,1,40,33,
sequence,flow.Sequence,6_32,2023-11-15T21:38:58.729Z,,,,,,,,,,8748.030000011902,completion,,,,,,,high,low,,,,,,true,,,,false,570588.099999994,570587.3000000119,561822.646,561828.900000006,561839.27,570607.78,1,40,,
trial,html.Screen,6_33_0,2023-11-15T21:39:07.785Z,,,,1,-1.011737552725394,0.8500530224490773,,true,hl,9036.020000011893,response,0.9873794329144926,0.9499999999999997,-0.9499999999999997,-0.7991077882008257,0.9499999999999997,-0.9499999999999997,high,low,,ISIC_2998367.JPG,,ISIC_0013498.JPG,26,true,hl,keypress(j),0,false,579644.2000000179,579643.8000000119,570572.905,570588.3000000119,570607.78,579657.29,1,40,34,
sequence,flow.Sequence,6_33,2023-11-15T21:39:07.785Z,,,,,,,,,,9036.020000011893,completion,,,,,,,high,low,,,,,,true,,,,false,579644.7000000179,579643.8000000119,570572.905,570588.3000000119,570607.78,579657.29,1,40,,
trial,html.Screen,6_34_0,2023-11-15T21:39:15.128Z,,,,1,0.7870237732709365,-0.9172955251119376,,true,lh,7330.110000005923,response,-0.991282840649944,0.9499999999999997,-0.9499999999999997,0.9397921099839784,0.9499999999999997,-0.9499999999999997,low,high,,ISIC_0057716.JPG,,ISIC_0000463.JPG,28,true,lh,keypress(e),0,false,586987.8000000119,586987.400000006,579640.601,579644.900000006,579657.29,587005.121,1,40,35,
sequence,flow.Sequence,6_34,2023-11-15T21:39:15.129Z,,,,,,,,,,7330.110000005923,completion,,,,,,,low,high,,,,,,true,,,,false,586988.3000000119,586987.400000006,579640.601,579644.900000006,579657.29,587005.121,1,40,,
trial,html.Screen,6_35_0,2023-11-15T21:39:20.265Z,,,,1,-0.8860551570327019,0.8067116931297591,,true,hl,5118.679000011878,response,0.948927472020595,0.9499999999999997,-0.9499999999999997,-1.0660437155921598,0.9499999999999997,-0.9499999999999997,high,low,,ISIC_1457687.JPG,,ISIC_5808758.JPG,26,true,hl,keypress(j),0,false,592124.099999994,592123.8000000119,586988.334,586988.5,587005.121,592131.503,1,40,36,
sequence,flow.Sequence,6_35,2023-11-15T21:39:20.265Z,,,,,,,,,,5118.679000011878,completion,,,,,,,high,low,,,,,,true,,,,false,592124.599999994,592123.8000000119,586988.334,586988.400000006,587005.121,592131.503,1,40,,
trial,html.Screen,6_36_0,2023-11-15T21:39:26.946Z,,,,1,-0.8329154010765664,-0.9000661178885296,,true,hh,6671.697000017855,response,0.758207007584394,0.9499999999999997,-0.9499999999999997,1.0437879361189135,0.9499999999999997,-0.9499999999999997,high,high,,ISIC_7407847.JPG,,ISIC_0011626.JPG,167,true,hh,keypress(i),0,false,598803.599999994,598803.2000000179,592114.762,592124.8000000119,592131.503,598811.15,1,40,37,
sequence,flow.Sequence,6_36,2023-11-15T21:39:26.947Z,,,,,,,,,,6671.697000017855,completion,,,,,,,high,high,,,,,,true,,,,false,598804,598803.2000000179,592114.762,592124.8000000119,592131.503,598811.15,1,40,,
trial,html.Screen,6_37_0,2023-11-15T21:39:37.481Z,,,,1,1.0115965332688306,-0.8282633603842442,,true,lh,10527.550000017858,response,-0.9696118525781644,0.9499999999999997,-0.9499999999999997,0.9244148283103414,0.9499999999999997,-0.9499999999999997,low,high,,ISIC_1069587.JPG,,ISIC_7927525.JPG,28,true,lh,keypress(e),0,false,609338.8000000119,609338.7000000179,598794.668,598804.2000000179,598811.15,609348.341,1,40,38,
sequence,flow.Sequence,6_37,2023-11-15T21:39:37.482Z,,,,,,,,,,10527.550000017858,completion,,,,,,,low,high,,,,,,true,,,,false,609338.900000006,609338.7000000179,598794.668,598804.2000000179,598811.15,609348.341,1,40,,
trial,html.Screen,6_38_0,2023-11-15T21:39:43.242Z,,,,1,-0.858338058340649,0.9540612223480284,,true,hl,5751.059000005946,response,1.0115965332688306,0.9499999999999997,-0.9499999999999997,-0.8282633603842442,0.9499999999999997,-0.9499999999999997,high,low,,ISIC_8922893.JPG,,ISIC_1069587.JPG,26,true,hl,keypress(j),0,false,615099.8000000119,615099.400000006,609331.583,609339.099999994,609348.341,615109.586,1,40,39,
sequence,flow.Sequence,6_38,2023-11-15T21:39:43.243Z,,,,,,,,,,5751.059000005946,completion,,,,,,,high,low,,,,,,true,,,,false,615100.3000000119,615099.400000006,609331.583,609339,609348.341,615109.586,1,40,,
trial,html.Screen,6_39_0,2023-11-15T21:39:51.875Z,,,,1,1.0115965332688306,-0.8282633603842442,,true,lh,8622.114000017871,response,-0.9433720631499012,0.9499999999999997,-0.9499999999999997,1.0582071940347648,0.9499999999999997,-0.9499999999999997,low,high,,ISIC_1069587.JPG,,ISIC_4890201.JPG,28,true,lh,keypress(e),0,false,623732,623731.7000000179,615092.956,615100.5,615109.586,623743.033,1,40,40,
sequence,flow.Sequence,6_39,2023-11-15T21:39:51.875Z,,,,,,,,,,8622.114000017871,completion,,,,,,,low,high,,,,,,true,,,,false,623732.599999994,623731.7000000179,615092.956,615100.5,615109.586,623743.033,1,40,,
practice_loop,flow.Loop,6,2023-11-15T21:39:51.876Z,,,,,,,,,,271083.0090000179,completion,,,,,,,,,,,,,,true,,,,false,623732.900000006,623731.7000000179,352632.159,352641.90000000596,352648.691,623743.033,1,40,,
stair_instructions,html.Screen,7,2023-11-15T21:39:59.617Z,,,,,,,,,,7730.966999999946,response,,,,,,,,,,,,,,,continue,click button,,,631474.5,631474,623726.405,623733.099999994,623743.033,631491.848,,,,
trial,html.Screen,8_0_0,2023-11-15T21:40:09.673Z,,,,2,0.0651705891246238,-0.0394586219902573,,true,hh,10038.652000000002,response,1.0296906379811772,0.9499999999999997,-0.9499999999999997,0.8063996897274507,0.9499999999999997,-0.9499999999999997,high,high,,ISIC_0013491.JPG,,ISIC_0015046.JPG,167,false,hh,keypress(i),0,true,641530.599999994,641530.5,631458.318,631474.7000000179,631491.848,641544.43,1,40,1,
sequence,flow.Sequence,8_0,2023-11-15T21:40:09.673Z,,,,,,,,,,10038.652000000002,completion,,,,,,,high,high,,,,,,false,,,,true,641530.7000000179,641530.5,631458.318,631474.599999994,631491.848,641544.43,1,40,,
trial,html.Screen,8_1_0,2023-11-15T21:40:18.346Z,,,,2,,-0.0264544974620926,,false,lh,8658.569999999949,response,-1.0865333402803938,0.9499999999999997,-0.9499999999999997,1.0542635307358266,0.9499999999999997,-0.9499999999999997,low,high,,ISIC_0056991.JPG,,ISIC_0034006.JPG,28,false,hl,keypress(j),0,true,650203.2000000179,650203,641527.713,641530.8000000119,641544.43,650211.205,1,40,2,
sequence,flow.Sequence,8_1,2023-11-15T21:40:18.346Z,,,,,,,,,,8658.569999999949,completion,,,,,,,low,high,,,,,,false,,,,true,650203.5,650203,641527.713,641530.8000000119,641544.43,650211.205,1,40,,
trial,html.Screen,8_2_0,2023-11-15T21:40:25.754Z,,,,2,0.063045324701596,-0.0064789751878758,,false,hl,7399.595000011963,response,0.8623414234919863,0.9499999999999997,-0.9999999999999998,-0.782830143980698,0.9999999999999998,-0.9499999999999997,high,low,,ISIC_5805349.JPG,,ISIC_2727016.JPG,26,false,ll,keypress(f),0,true,657610.900000006,657610.8000000119,650194.678,650203.7000000179,650211.205,657625.896,1,40,3,
sequence,flow.Sequence,8_2,2023-11-15T21:40:25.754Z,,,,,,,,,,7399.595000011963,completion,,,,,,,high,low,,,,,,false,,,,true,657611.2000000179,657610.8000000119,650194.678,650203.599999994,650211.205,657625.896,1,40,,
trial,html.Screen,8_3_0,2023-11-15T21:40:31.802Z,,,,2,-0.009234249673026,-0.0627190878028592,,false,hl,6032.20399999409,response,0.9014321140874824,0.9499999999999997,-0.9499999999999997,-0.7062038626894745,0.9499999999999997,-0.8999999999999997,high,low,,ISIC_0053760.JPG,,ISIC_3654454.JPG,30,false,ll,keypress(f),0,true,663658.099999994,663658.099999994,657609.066,657611.3000000119,657625.896,663670.913,1,40,4,
sequence,flow.Sequence,8_3,2023-11-15T21:40:31.802Z,,,,,,,,,,6032.20399999409,completion,,,,,,,high,low,,,,,,false,,,,true,663658.2000000179,663658.099999994,657609.066,657611.3000000119,657625.896,663670.913,1,40,,
trial,html.Screen,8_4_0,2023-11-15T21:40:42.804Z,,,,2,-0.0188047466661863,0.0288346930436979,,,,11021.484000000055,timeout,1.0469352660493296,0.9999999999999998,-0.9499999999999997,-0.6175070748933676,0.9499999999999997,-0.6945170033350863,high,low,,ISIC_0014157.JPG,,ISIC_1988335.JPG,43,false,,,0,true,674659.900000006,674659.599999994,663654.157,663658.400000006,663670.913,674692.397,1,40,5,
sequence,flow.Sequence,8_4,2023-11-15T21:40:42.804Z,,,,,,,,,,10988.686999994097,completion,,,,,,,high,low,,,,,,false,,,,true,674660.5,674659.599999994,663654.157,663658.3000000119,663670.913,674692.397,1,40,,
trial,html.Screen,8_5_0,2023-11-15T21:40:48.828Z,,,,2,0.0538169356437535,-0.0113486191005169,,false,ll,5991.603000000003,response,-1.0368717123432436,0.9999999999999998,-0.9499999999999997,-0.7244643271010357,0.9499999999999997,-0.6945170033350863,low,low,,ISIC_0009939.JPG,,ISIC_3633306.JPG,217,false,lh,keypress(e),0,true,680684.3000000119,680684,674675.763,674660.7000000179,674692.397,680687.255,1,40,6,
sequence,flow.Sequence,8_5,2023-11-15T21:40:48.829Z,,,,,,,,,,5991.603000000003,completion,,,,,,,low,low,,,,,,false,,,,true,680684.8000000119,680684,674675.763,674660.7000000179,674692.397,680687.255,1,40,,
trial,html.Screen,8_6_0,2023-11-15T21:40:54.460Z,,,,2,0.0107854985447517,0.0478010417136109,,false,hl,5628.445000017877,response,1.0022829373011404,0.9999999999999998,-0.9499999999999997,-0.8311726972863814,0.9499999999999997,-0.7445170033350863,high,low,,ISIC_0010500.JPG,,ISIC_0033287.JPG,40,false,lh,keypress(e),0,true,686316.099999994,686315.7000000179,680670.637,680685,680687.255,686331.693,1,40,7,
sequence,flow.Sequence,8_6,2023-11-15T21:40:54.460Z,,,,,,,,,,5628.445000017877,completion,,,,,,,high,low,,,,,,false,,,,true,686316.599999994,686315.7000000179,680670.637,680684.900000006,680687.255,686331.693,1,40,,
trial,html.Screen,8_7_0,2023-11-15T21:41:00.500Z,,,,2,-0.0367218428225813,-0.0700576547090477,,false,ll,6024.30700000003,response,-0.8046999383319134,1.0499999999999998,-0.9499999999999997,-0.6537294558548551,0.9499999999999997,-0.7945170033350863,low,low,,ISIC_7212271.JPG,,ISIC_0016103.JPG,188,false,lh,keypress(e),0,true,692356.3000000119,692356,686315.015,686316.8000000119,686331.693,692360.002,1,40,8,
sequence,flow.Sequence,8_7,2023-11-15T21:41:00.501Z,,,,,,,,,,6024.30700000003,completion,,,,,,,low,low,,,,,,false,,,,true,692356.7000000179,692356,686315.015,686316.7000000179,686331.693,692360.002,1,40,,
trial,html.Screen,8_8_0,2023-11-15T21:41:06.988Z,,,,2,-0.040191644178716,0.0622582668671422,,false,lh,6483.597999994061,response,-1.011737552725394,1.0499999999999998,-0.8707858253375784,0.8500530224490773,0.9499999999999997,-0.8445170033350864,low,high,,ISIC_6207688.JPG,,ISIC_2998367.JPG,39,false,hh,keypress(i),0,true,698843.900000006,698843.599999994,692343.151,692357,692360.002,698855.951,1,40,9,
sequence,flow.Sequence,8_8,2023-11-15T21:41:06.988Z,,,,,,,,,,6483.597999994061,completion,,,,,,,low,high,,,,,,false,,,,true,698844.400000006,698843.599999994,692343.151,692356.900000006,692360.002,698855.951,1,40,,
trial,html.Screen,8_9_0,2023-11-15T21:41:14.444Z,,,,2,-0.000047919190197942736,-0.0462652940855003,,false,hh,7444.34900001192,response,1.0377676235641546,1.0499999999999998,-0.9207858253375785,1.0836906473836847,0.9499999999999997,-0.8445170033350864,high,high,,ISIC_0011507.JPG,,ISIC_0010540.JPG,145,false,hl,keypress(j),0,true,706300.599999994,706300.3000000119,698839.38,698844.7000000179,698855.951,706303.788,1,40,10,
sequence,flow.Sequence,8_9,2023-11-15T21:41:14.445Z,,,,,,,,,,7444.34900001192,completion,,,,,,,high,high,,,,,,false,,,,true,706301.099999994,706300.3000000119,698839.38,698844.599999994,698855.951,706303.788,1,40,,
trial,html.Screen,8_10_0,2023-11-15T21:41:20.628Z,,,,2,-0.000047919190197942736,-0.0462652940855003,,false,hh,6179.912000017939,response,0.9303508808523768,1.0499999999999998,-0.9207858253375785,0.8525034055687026,0.9999999999999998,-0.8445170033350864,high,high,,ISIC_0011507.JPG,,ISIC_0029909.JPG,130,false,hl,keypress(j),0,true,712483.900000006,712483.7000000179,706287.063,706301.5,706303.788,712499.206,1,40,11,
sequence,flow.Sequence,8_10,2023-11-15T21:41:20.628Z,,,,,,,,,,6179.912000017939,completion,,,,,,,high,high,,,,,,false,,,,true,712484.400000006,712483.7000000179,706287.063,706301.400000006,706303.788,712499.206,1,40,,
trial,html.Screen,8_11_0,2023-11-15T21:41:29.871Z,,,,2,-0.0134764727102299,-0.0033499036460912,,false,lh,9224.793999999994,response,-0.8979276789594874,0.9340592522082657,-0.9207858253375785,0.925374811016654,1.0499999999999998,-0.8445170033350864,low,high,,ISIC_0009998.JPG,,ISIC_4208361.JPG,25,false,hl,keypress(j),0,true,721724.3000000119,721724,712482.64,712484.7000000179,712499.206,721733.828,1,40,12,
sequence,flow.Sequence,8_11,2023-11-15T21:41:29.871Z,,,,,,,,,,9224.793999999994,completion,,,,,,,low,high,,,,,,false,,,,true,721724.8000000119,721724,712482.64,712484.599999994,712499.206,721733.828,1,40,,
trial,html.Screen,8_12_0,2023-11-15T21:41:37.997Z,,,,2,0.0324770283903853,0.0249968632204382,,true,hh,8116.472000011941,response,0.8658216082775305,0.9340592522082657,-0.9707858253375785,0.9788979939580964,1.0999999999999999,-0.8445170033350864,high,high,,ISIC_7266462.JPG,,ISIC_0331389.JPG,138,false,hh,keypress(i),0,true,729850.3000000119,729850.3000000119,721717.236,721725,721733.828,729866.268,1,40,13,
sequence,flow.Sequence,8_12,2023-11-15T21:41:37.997Z,,,,,,,,,,8116.472000011941,completion,,,,,,,high,high,,,,,,false,,,,true,729850.400000006,729850.3000000119,721717.236,721724.900000006,721733.828,729866.268,1,40,,
trial,html.Screen,8_13_0,2023-11-15T21:41:45.894Z,,,,2,0.0111354529246037,-0.0585810480909377,,true,hl,7880.532000011881,response,1.0122398223568725,0.9340592522082657,-0.9707858253375785,-0.7505228537454216,1.0999999999999999,-0.8445170033350864,high,low,,ISIC_7858034.JPG,,ISIC_0033802.JPG,36,false,hl,keypress(j),0,true,737746.900000006,737746.8000000119,729849.622,729850.5,729866.268,737766.38,1,40,14,
sequence,flow.Sequence,8_13,2023-11-15T21:41:45.894Z,,,,,,,,,,7880.532000011881,completion,,,,,,,high,low,,,,,,false,,,,true,737747,737746.8000000119,729849.622,729850.5,729866.268,737766.38,1,40,,
trial,html.Screen,8_14_0,2023-11-15T21:41:52.223Z,,,,2,-0.0546386976779619,0.0448724759283131,,false,hl,6309.420000011916,response,0.9388029871780448,0.8840592522082656,-0.9707858253375785,-0.6990723246540984,1.0999999999999999,-0.8445170033350864,high,low,,ISIC_6722934.JPG,,ISIC_0014190.JPG,44,false,ll,keypress(f),0,true,744076.099999994,744075.8000000119,737731.782,737747.099999994,737766.38,744094.147,1,40,15,
sequence,flow.Sequence,8_14,2023-11-15T21:41:52.223Z,,,,,,,,,,6309.420000011916,completion,,,,,,,high,low,,,,,,false,,,,true,744076.599999994,744075.8000000119,737731.782,737747.099999994,737766.38,744094.147,1,40,,
trial,html.Screen,8_15_0,2023-11-15T21:41:59.983Z,,,,2,-0.059471106306043,0.0678292174694111,,false,lh,7741.653000011924,response,-0.9433720631499012,0.8840592522082656,-0.9207858253375785,1.0582071940347648,1.0499999999999998,-0.6247975891997599,low,high,,ISIC_0015631.JPG,,ISIC_4890201.JPG,25,false,ll,keypress(f),0,true,751836.099999994,751835.8000000119,744077.401,744076.8000000119,744094.147,751842.363,1,40,16,
sequence,flow.Sequence,8_15,2023-11-15T21:41:59.983Z,,,,,,,,,,7741.653000011924,completion,,,,,,,low,high,,,,,,false,,,,true,751836.5,751835.8000000119,744077.401,744076.8000000119,744094.147,751842.363,1,40,,
trial,html.Screen,8_16_0,2023-11-15T21:42:05.895Z,,,,2,0.0247880219471745,-0.0687761754603142,,true,ll,5905.437000011909,response,-0.9977962477544002,0.8840592522082656,-0.9207858253375785,-0.6793327195166647,1.0999999999999999,-0.6247975891997599,low,low,,ISIC_0031745.JPG,,ISIC_7231192.JPG,257,false,ll,keypress(f),0,true,757748.099999994,757747.8000000119,751825.857,751836.8000000119,751842.363,757753.885,1,40,17,
sequence,flow.Sequence,8_16,2023-11-15T21:42:05.895Z,,,,,,,,,,5905.437000011909,completion,,,,,,,low,low,,,,,,false,,,,true,757748.599999994,757747.8000000119,751825.857,751836.7000000179,751842.363,757753.885,1,40,,
trial,html.Screen,8_17_0,2023-11-15T21:42:10.527Z,,,,2,0.0509970506474296,0.0744820958440291,,false,hl,4626.015000005951,response,0.7328246670117734,0.8840592522082656,-0.7885644836355324,-0.489394095158613,1.0999999999999999,-0.6247975891997599,high,low,,ISIC_0009975.JPG,,ISIC_0011868.JPG,71,false,hh,keypress(i),0,true,762380.3000000119,762379.900000006,757737.277,757748.8000000119,757753.885,762396.416,1,40,18,
sequence,flow.Sequence,8_17,2023-11-15T21:42:10.528Z,,,,,,,,,,4626.015000005951,completion,,,,,,,high,low,,,,,,false,,,,true,762380.8000000119,762379.900000006,757737.277,757748.8000000119,757753.885,762396.416,1,40,,
trial,html.Screen,8_18_0,2023-11-15T21:42:16.805Z,,,,2,-0.000047919190197942736,-0.0462652940855003,,true,hl,6262.084000000032,response,0.7809949855371787,0.8840592522082656,-0.7885644836355324,-0.8493861117004308,1.0999999999999999,-0.67479758919976,high,low,,ISIC_0011507.JPG,,ISIC_7450481.JPG,61,false,hl,keypress(j),0,true,768658.599999994,768658.5,762379.753,762381,762396.416,768675.401,1,40,19,
sequence,flow.Sequence,8_18,2023-11-15T21:42:16.805Z,,,,,,,,,,6262.084000000032,completion,,,,,,,high,low,,,,,,false,,,,true,768658.8000000119,768658.5,762379.753,762380.900000006,762396.416,768675.401,1,40,,
trial,html.Screen,8_19_0,2023-11-15T21:42:25.935Z,,,,2,-0.0546386976779619,0.0448724759283131,,true,hl,9112.599000000046,response,0.7264235830663913,0.8340592522082656,-0.7885644836355324,-0.6155807051660155,1.0999999999999999,-0.67479758919976,high,low,,ISIC_6722934.JPG,,ISIC_5530598.JPG,69,false,hl,keypress(j),0,true,777788.3000000119,777788,768658.631,768658.8000000119,768675.401,777792.877,1,40,20,
sequence,flow.Sequence,8_19,2023-11-15T21:42:25.936Z,,,,,,,,,,9112.599000000046,completion,,,,,,,high,low,,,,,,false,,,,true,777788.900000006,777788,768658.631,768658.8000000119,768675.401,777792.877,1,40,,
trial,html.Screen,8_20_0,2023-11-15T21:42:31.137Z,,,,2,0.0608867680161491,0.0206384042070211,,false,ll,5194.923000011942,response,-0.8994842416561404,0.8340592522082656,-0.7885644836355324,-0.6859121064133642,1.0999999999999999,-0.6247975891997599,low,low,,ISIC_0640806.JPG,,ISIC_5525765.JPG,332,false,lh,keypress(e),0,true,782988.099999994,782987.8000000119,777776.138,777789.099999994,777792.877,783003.259,1,40,21,
sequence,flow.Sequence,8_20,2023-11-15T21:42:31.137Z,,,,,,,,,,5194.923000011942,completion,,,,,,,low,low,,,,,,false,,,,true,782988.599999994,782987.8000000119,777776.138,777789.099999994,777792.877,783003.259,1,40,,
trial,html.Screen,8_21_0,2023-11-15T21:42:38.193Z,,,,2,-0.0688801591312476,-0.0185462113313342,,true,hl,7040.541000011959,response,0.9580096600137252,0.8340592522082656,-0.7885644836355324,-0.6337880611168651,1.0999999999999999,-0.67479758919976,high,low,,ISIC_0067723.JPG,,ISIC_0026008.JPG,69,false,hl,keypress(j),0,true,790044.099999994,790043.8000000119,782986.51,782988.900000006,783003.259,790050.081,1,40,22,
sequence,flow.Sequence,8_21,2023-11-15T21:42:38.193Z,,,,,,,,,,7040.541000011959,completion,,,,,,,high,low,,,,,,false,,,,true,790044.5,790043.8000000119,782986.51,782988.7000000179,783003.259,790050.081,1,40,,
trial,html.Screen,8_22_0,2023-11-15T21:42:47.209Z,,,,2,-0.0737104822171846,0.0725320314728604,,false,ll,9009.719000011915,response,-0.6415745866135654,0.7840592522082656,-0.7885644836355324,-0.6853913485096793,1.0999999999999999,-0.67479758919976,low,low,,ISIC_0002862.JPG,,ISIC_9354604.JPG,303,false,hh,keypress(i),0,true,799060.2000000179,799059.8000000119,790033.554,790044.7000000179,790050.081,799067.624,1,40,23,
sequence,flow.Sequence,8_22,2023-11-15T21:42:47.209Z,,,,,,,,,,9009.719000011915,completion,,,,,,,low,low,,,,,,false,,,,true,799060.7000000179,799059.8000000119,790033.554,790044.7000000179,790050.081,799067.624,1,40,,
trial,html.Screen,8_23_0,2023-11-15T21:42:53.561Z,,,,2,-0.040191644178716,0.0622582668671422,,true,hh,6344.676000011968,response,0.9262674596267249,0.7840592522082656,-0.8385644836355325,1.0275767908572495,1.0999999999999999,-0.72479758919976,high,high,,ISIC_6207688.JPG,,ISIC_5415749.JPG,166,false,hh,keypress(i),0,true,805412.599999994,805412.3000000119,799051.047,799060.900000006,799067.624,805430.271,1,40,24,
sequence,flow.Sequence,8_23,2023-11-15T21:42:53.562Z,,,,,,,,,,6344.676000011968,completion,,,,,,,high,high,,,,,,false,,,,true,805413.099999994,805412.3000000119,799051.047,799060.8000000119,799067.624,805430.271,1,40,,
trial,html.Screen,8_24_0,2023-11-15T21:43:04.568Z,,,,2,-0.0348234368746005,0.0236866303880924,,,,11021.339000000036,timeout,-0.730438854046586,0.7840592522082656,-0.8385644836355325,-0.5742804743271287,1.0999999999999999,-0.72479758919976,low,low,,ISIC_0011099.JPG,,ISIC_1477990.JPG,272,false,,,0,true,816419.3000000119,816419,805413.496,805413.400000006,805430.271,816451.61,1,40,25,
sequence,flow.Sequence,8_24,2023-11-15T21:43:04.569Z,,,,,,,,,,10988.72900000005,completion,,,,,,,low,low,,,,,,false,,,,true,816419.900000006,816419,805413.496,805413.3000000119,805430.271,816451.61,1,40,,
trial,html.Screen,8_25_0,2023-11-15T21:43:10.385Z,,,,2,0.0116094682222121,-0.0258434522530318,,false,lh,5784.390000000014,response,-0.640368147287078,0.7840592522082656,-0.8385644836355325,0.9390639372028852,1.0999999999999999,-0.72479758919976,low,high,,ISIC_9239632.JPG,,ISIC_0030393.JPG,29,false,hl,keypress(j),0,true,822236.400000006,822236,816434.871,816420.099999994,816451.61,822246.087,1,40,26,
sequence,flow.Sequence,8_25,2023-11-15T21:43:10.386Z,,,,,,,,,,5784.390000000014,completion,,,,,,,low,high,,,,,,false,,,,true,822236.900000006,822236,816434.871,816420,816451.61,822246.087,1,40,,
trial,html.Screen,8_26_0,2023-11-15T21:43:17.369Z,,,,2,,-0.0264544974620926,,true,ll,6973.713000011863,response,-0.7362700086564722,0.7840592522082656,-0.8885644836355325,-0.5421314102048214,1.15,-0.72479758919976,low,low,,ISIC_0056991.JPG,,ISIC_0003217.JPG,240,false,ll,keypress(f),0,true,829220.099999994,829219.8000000119,822229.441,822237.099999994,822246.087,829226.407,1,40,27,
sequence,flow.Sequence,8_26,2023-11-15T21:43:17.369Z,,,,,,,,,,6973.713000011863,completion,,,,,,,low,low,,,,,,false,,,,true,829220.7000000179,829219.8000000119,822229.441,822237,822246.087,829226.407,1,40,,
trial,html.Screen,8_27_0,2023-11-15T21:43:25.169Z,,,,2,0.0651705891246238,-0.0394586219902573,,false,lh,7793.793000017875,response,-0.8534691366511764,0.7840592522082656,-0.8885644836355325,1.03975580494588,1.15,-0.72479758919976,low,high,,ISIC_0013491.JPG,,ISIC_0056788.JPG,24,false,hl,keypress(j),0,true,837020.5,837020.2000000179,829209.729,829220.900000006,829226.407,837024.826,1,40,28,
sequence,flow.Sequence,8_27,2023-11-15T21:43:25.170Z,,,,,,,,,,7793.793000017875,completion,,,,,,,low,high,,,,,,false,,,,true,837021,837020.2000000179,829209.729,829220.8000000119,829226.407,837024.826,1,40,,
trial,html.Screen,8_28_0,2023-11-15T21:43:35.427Z,,,,2,-0.0021038737988857,0.0570427519488725,,false,ll,10251.173999999999,response,-1.1300649471963615,0.7840592522082656,-0.9385644836355326,-0.7120392009598421,1.15,-0.72479758919976,low,low,,ISIC_3596927.JPG,,ISIC_0065390.JPG,220,false,hh,keypress(i),0,true,847276.3000000119,847276,837008.314,837021.3000000119,837024.826,847295.421,1,40,29,
sequence,flow.Sequence,8_28,2023-11-15T21:43:35.427Z,,,,,,,,,,10251.173999999999,completion,,,,,,,low,low,,,,,,false,,,,true,847276.8000000119,847276,837008.314,837021.2000000179,837024.826,847295.421,1,40,,
trial,html.Screen,8_29_0,2023-11-15T21:43:41.587Z,,,,2,-0.0367218428225813,-0.0700576547090477,,true,lh,6140.279000017908,response,-0.7784583866003763,0.7340592522082655,-0.9385644836355326,0.9641514808986528,1.0999999999999999,-0.72479758919976,low,high,,ISIC_7212271.JPG,,ISIC_0011924.JPG,21,false,lh,keypress(e),0,true,853436.099999994,853435.7000000179,847261.566,847277.099999994,847295.421,853440.226,1,40,30,
sequence,flow.Sequence,8_29,2023-11-15T21:43:41.587Z,,,,,,,,,,6140.279000017908,completion,,,,,,,low,high,,,,,,false,,,,true,853436.599999994,853435.7000000179,847261.566,847277,847295.421,853440.226,1,40,,
trial,html.Screen,8_30_0,2023-11-15T21:43:46.434Z,,,,2,-0.0245585387483123,0.053462758614929,,true,ll,4842.574000011897,response,-0.753429670449437,0.7340592522082655,-0.9385644836355326,-0.7078263153196157,1.0999999999999999,-0.72479758919976,low,low,,ISIC_3389704.JPG,,ISIC_7517082.JPG,220,false,ll,keypress(f),0,true,858283,858282.8000000119,853423.396,853436.8000000119,853440.226,858299.632,1,40,31,
sequence,flow.Sequence,8_30,2023-11-15T21:43:46.434Z,,,,,,,,,,4842.574000011897,completion,,,,,,,low,low,,,,,,false,,,,true,858283.2000000179,858282.8000000119,853423.396,853436.8000000119,853440.226,858299.632,1,40,,
trial,html.Screen,8_31_0,2023-11-15T21:43:53.915Z,,,,2,-0.0245585387483123,0.053462758614929,,false,lh,7463.967999994056,response,-0.5946266402670454,0.7340592522082655,-0.6806279928845262,1.0906221698932466,1.0999999999999999,-0.72479758919976,low,high,,ISIC_3389704.JPG,,ISIC_0000072.JPG,35,false,ll,keypress(f),0,true,865763.900000006,865763.599999994,858283.106,858283.3000000119,858299.632,865780.972,1,40,32,
sequence,flow.Sequence,8_31,2023-11-15T21:43:53.915Z,,,,,,,,,,7463.967999994056,completion,,,,,,,low,high,,,,,,false,,,,true,865764.400000006,865763.599999994,858283.106,858283.2000000179,858299.632,865780.972,1,40,,
trial,html.Screen,8_32_0,2023-11-15T21:43:59.017Z,,,,2,0.0456515796420274,-0.0273567130070961,,false,hh,5085.42800000601,response,0.72202146737383,0.7340592522082655,-0.6806279928845262,1.0787754255210074,1.15,-0.72479758919976,high,high,,ISIC_0068610.JPG,,ISIC_0013618.JPG,153,false,ll,keypress(f),0,true,870866.599999994,870866.400000006,865764.165,865764.599999994,865780.972,870874.078,1,40,33,
sequence,flow.Sequence,8_32,2023-11-15T21:43:59.017Z,,,,,,,,,,5085.42800000601,completion,,,,,,,high,high,,,,,,false,,,,true,870866.7000000179,870866.400000006,865764.165,865764.599999994,865780.972,870874.078,1,40,,
trial,html.Screen,8_33_0,2023-11-15T21:44:07.683Z,,,,2,-0.0277178575053843,0.0395587463147856,,false,lh,8657.722000011941,response,-0.7133243033950115,0.7840592522082656,-0.6806279928845262,0.9575090175925351,1.15,-0.72479758919976,low,high,,ISIC_0010807.JPG,,ISIC_1369273.JPG,31,false,ll,keypress(f),0,true,879532.099999994,879531.8000000119,870857.527,870866.7000000179,870874.078,879540.953,1,40,34,
sequence,flow.Sequence,8_33,2023-11-15T21:44:07.683Z,,,,,,,,,,8657.722000011941,completion,,,,,,,low,high,,,,,,false,,,,true,879532.599999994,879531.8000000119,870857.527,870866.7000000179,870874.078,879540.953,1,40,,
trial,html.Screen,8_34_0,2023-11-15T21:44:14.475Z,,,,2,-0.0693466529227737,-0.044703434393184,,true,hh,6783.14699999406,response,0.7123344251569738,0.7840592522082656,-0.6039754718310284,1.061329542878903,1.15,-0.72479758919976,high,high,,ISIC_0004217.JPG,,ISIC_0065622.JPG,154,false,hh,keypress(i),0,true,886324.400000006,886324.099999994,879524.356,879532.8000000119,879540.953,886337.602,1,40,35,
sequence,flow.Sequence,8_34,2023-11-15T21:44:14.476Z,,,,,,,,,,6783.14699999406,completion,,,,,,,high,high,,,,,,false,,,,true,886324.900000006,886324.099999994,879524.356,879532.8000000119,879540.953,886337.602,1,40,,
trial,html.Screen,8_35_0,2023-11-15T21:44:20.555Z,,,,2,-0.0292059717970335,-0.0718256867525069,,true,hh,6065.997999994084,response,0.6568038821963815,0.7840592522082656,-0.6039754718310284,1.0724014419964838,1.15,-0.72479758919976,high,high,,ISIC_1114966.JPG,,ISIC_0059330.JPG,154,false,hh,keypress(i),0,true,892403.900000006,892403.599999994,886321.009,886325.099999994,886337.602,892416.008,1,40,36,
sequence,flow.Sequence,8_35,2023-11-15T21:44:20.555Z,,,,,,,,,,6065.997999994084,completion,,,,,,,high,high,,,,,,false,,,,true,892404.3000000119,892403.599999994,886321.009,886325.099999994,886337.602,892416.008,1,40,,
trial,html.Screen,8_36_0,2023-11-15T21:44:26.893Z,,,,2,0.0116094682222121,-0.0258434522530318,,true,hh,6324.091999994009,response,0.9612373733144064,1.0168654924376932,-0.6039754718310284,1.2155105349277993,1.0168654924376932,-0.72479758919976,high,high,,ISIC_9239632.JPG,,ISIC_0014883.JPG,127,false,hh,keypress(i),0,true,898740.400000006,898740.099999994,892399.521,892404.5,892416.008,898745.053,1,40,37,
sequence,flow.Sequence,8_36,2023-11-15T21:44:26.894Z,,,,,,,,,,6324.091999994009,completion,,,,,,,high,high,,,,,,false,,,,true,898741,898740.099999994,892399.521,892404.400000006,892416.008,898745.053,1,40,,
trial,html.Screen,8_37_0,2023-11-15T21:44:33.773Z,,,,2,0.0070725527271049,0.0049995141077508,,true,hh,6874.947000000044,response,1.0377676235641546,1.0168654924376932,-0.6039754718310284,1.0836906473836847,1.0168654924376932,-0.72479758919976,high,high,,ISIC_6124481.JPG,,ISIC_0010540.JPG,127,false,hh,keypress(i),0,true,905620.2000000179,905620,898728.471,898741.2000000179,898745.053,905625.11,1,40,38,
sequence,flow.Sequence,8_37,2023-11-15T21:44:33.773Z,,,,,,,,,,6874.947000000044,completion,,,,,,,high,high,,,,,,false,,,,true,905620.7000000179,905620,898728.471,898741.099999994,898745.053,905625.11,1,40,,
trial,html.Screen,8_38_0,2023-11-15T21:44:40.469Z,,,,2,-0.0188047466661863,0.0288346930436979,,false,ll,6690.790000005974,response,-0.4494889259959191,1.099600591155742,-0.6039754718310284,-0.7201569862431658,1.099600591155742,-0.72479758919976,low,low,,ISIC_0014157.JPG,,ISIC_8246858.JPG,346,false,hh,keypress(i),0,true,912316.2000000179,912315.900000006,905608.374,905620.900000006,905625.11,912321.398,1,40,39,
sequence,flow.Sequence,8_38,2023-11-15T21:44:40.469Z,,,,,,,,,,6690.790000005974,completion,,,,,,,low,low,,,,,,false,,,,true,912316.7000000179,912315.900000006,905608.374,905620.900000006,905625.11,912321.398,1,40,,
trial,html.Screen,8_39_0,2023-11-15T21:44:48.221Z,,,,2,-0.0348234368746005,0.0236866303880924,,false,lh,7746.402000011876,response,-0.6017691906435032,1.099600591155742,-0.6539754718310284,1.2033647433750492,1.099600591155742,-0.77479758919976,low,high,,ISIC_0011099.JPG,,ISIC_0061606.JPG,32,false,ll,keypress(f),0,true,920068.2000000179,920067.8000000119,912304.89,912317,912321.398,920103.257,1,40,40,
sequence,flow.Sequence,8_39,2023-11-15T21:44:48.221Z,,,,,,,,,,7746.402000011876,completion,,,,,,,low,high,,,,,,false,,,,true,920068.7000000179,920067.8000000119,912304.89,912317,912321.398,920103.257,1,40,,
stair_loop,flow.Loop,8,2023-11-15T21:44:48.222Z,,,,,,,,,,288575.9520000119,completion,,,,,,,,,,,,,,false,,,,true,920069,920067.8000000119,631458.318,631474.599999994,631491.848,920103.257,1,40,,
exp_instructions,html.Screen,9,2023-11-15T21:45:08.435Z,,,,,,,,,,20178.943000017898,response,,,,,,,,,,,,,,,continue,keypress(Space),,,940282.599999994,940282.2000000179,920086.743,920069.2000000179,920103.257,940292.542,,,,
trial,html.Screen,10_0_0,2023-11-15T21:45:12.818Z,,,,1,0.063045324701596,-0.0064789751878758,,true,ll,4372.658000017866,response,-0.7067626314728708,0.8338940101259562,-0.7594973064815301,-0.8796516667961567,1.109146608359343,-0.7172975891997598,low,low,,ISIC_5805349.JPG,9,ISIC_4808298.JPG,307,false,ll,keypress(f),0,false,944665.3000000119,944665.2000000179,940275.611,940282.7000000179,940292.542,944667.71,4,500,1,
break,html.Screen,10_0_1,2023-11-15T21:45:12.818Z,,,,,,,,,,NaN,,,,,,,,low,low,,,,,,false,,,,false,944665.8000000119,944665.7000000179,,944665.400000006,,944667.71,4,500,,
break_continue,html.Screen,10_0_2,2023-11-15T21:45:12.819Z,,,,,,,,,,NaN,,,,,,,,low,low,,,,,,false,,,,false,944666.099999994,944665.900000006,,944665.900000006,,944667.71,4,500,,
sequence,flow.Sequence,10_0,2023-11-15T21:45:12.819Z,,,,,,,,,,4373.358000005945,completion,,,,,,,low,low,,,,,,false,,,,false,944666.099999994,944665.900000006,940275.611,940282.7000000179,940292.542,944667.71,4,500,,
trial,html.Screen,10_1_0,2023-11-15T21:45:16.565Z,,,,1,0.0027483411352856,0.0100996915276271,,true,ll,3744.090000011958,response,-0.6909723186468711,0.8338940101259562,-0.7594973064815301,-0.5626770798213925,1.109146608359343,-0.7172975891997598,low,low,,ISIC_7364041.JPG,9,ISIC_3198731.JPG,307,false,ll,keypress(f),0,false,948412.099999994,948411.8000000119,944650.987,944666.2000000179,944667.71,948425.098,4,500,2,
break,html.Screen,10_1_1,2023-11-15T21:45:16.566Z,,,,,,,,,,NaN,,,,,,,,low,low,,,,,,false,,,,false,948413.5,948413,,948412.5,,948425.098,4,500,,
break_continue,html.Screen,10_1_2,2023-11-15T21:45:16.567Z,,,,,,,,,,NaN,,,,,,,,low,low,,,,,,false,,,,false,948414.3000000119,948414,,948413.8000000119,,948425.098,4,500,,
sequence,flow.Sequence,10_1,2023-11-15T21:45:16.567Z,,,,,,,,,,3746.2900000000373,completion,,,,,,,low,low,,,,,,false,,,,false,948414.599999994,948414,944650.987,944666.2000000179,944667.71,948425.098,4,500,,
trial,html.Screen,10_2_0,2023-11-15T21:45:20.461Z,,,,1,-0.0691769743257167,0.0638501824668941,,false,lh,3882.702000011923,response,-0.7401156491866404,0.8338940101259562,-0.7594973064815301,0.94165594025755,1.109146608359343,-0.7172975891997598,low,high,,ISIC_0031914.JPG,9,ISIC_0072429.JPG,37,false,ll,keypress(f),0,false,952308.099999994,952307.8000000119,948408.508,948414.8000000119,948425.098,952315.919,4,500,3,
break,html.Screen,10_2_1,2023-11-15T21:45:20.462Z,,,,,,,,,,NaN,,,,,,,,low,high,,,,,,false,,,,false,952309.2000000179,952309,,952308.5,,952315.919,4,500,,
break_continue,html.Screen,10_2_2,2023-11-15T21:45:20.462Z,,,,,,,,,,NaN,,,,,,,,low,high,,,,,,false,,,,false,952309.900000006,952309.599999994,,952309.5,,952315.919,4,500,,
sequence,flow.Sequence,10_2,2023-11-15T21:45:20.463Z,,,,,,,,,,3884.5019999940414,completion,,,,,,,low,high,,,,,,false,,,,false,952310.2000000179,952309.599999994,948408.508,948414.8000000119,948425.098,952315.919,4,500,,
trial,html.Screen,10_3_0,2023-11-15T21:45:25.685Z,,,,1,,-0.0264544974620926,,true,hh,5215.8810000119265,response,0.6550926226631195,0.8338940101259562,-0.7594973064815301,0.9153957865106056,1.109146608359343,-0.7172975891997598,high,high,,ISIC_0056991.JPG,9,ISIC_0072010.JPG,158,false,hh,keypress(i),0,false,957532.099999994,957531.8000000119,952299.417,952310.400000006,952315.919,957542.734,4,500,4,
break,html.Screen,10_3_1,2023-11-15T21:45:25.686Z,,,,,,,,,,NaN,,,,,,,,high,high,,,,,,false,,,,false,957533.400000006,957533.099999994,,957532.599999994,,957542.734,4,500,,
break_continue,html.Screen,10_3_2,2023-11-15T21:45:25.687Z,,,,,,,,,,NaN,,,,,,,,high,high,,,,,,false,,,,false,957534.2000000179,957534,,957533.7000000179,,957542.734,4,500,,
sequence,flow.Sequence,10_3,2023-11-15T21:45:25.687Z,,,,,,,,,,5218.081000000006,completion,,,,,,,high,high,,,,,,false,,,,false,957534.5,957534,952299.417,952310.400000006,952315.919,957542.734,4,500,,
trial,html.Screen,10_4_0,2023-11-15T21:45:30.415Z,,,,1,-0.0533723079251252,-0.0299718727255261,,false,lh,4717.066000011866,response,-0.6970565704787165,0.8338940101259562,-0.7594973064815301,1.189673590156875,1.109146608359343,-0.7172975891997598,low,high,,ISIC_6562871.JPG,9,ISIC_0032522.JPG,37,false,ll,keypress(f),0,false,962260.2000000179,962259.8000000119,957526.305,957534.8000000119,957542.734,962285.405,4,500,5,
break,html.Screen,10_4_1,2023-11-15T21:45:30.416Z,,,,,,,,,,NaN,,,,,,,,low,high,,,,,,false,,,,false,962261.3000000119,962261.099999994,,962260.5,,962285.405,4,500,,
break_continue,html.Screen,10_4_2,2023-11-15T21:45:30.417Z,,,,,,,,,,NaN,,,,,,,,low,high,,,,,,false,,,,false,962262,962261.8000000119,,962261.5,,962285.405,4,500,,
sequence,flow.Sequence,10_4,2023-11-15T21:45:30.417Z,,,,,,,,,,4719.066000011866,completion,,,,,,,low,high,,,,,,false,,,,false,962262.400000006,962261.8000000119,957526.305,957534.7000000179,957542.734,962285.405,4,500,,
trial,html.Screen,10_5_0,2023-11-15T21:45:35.717Z,,,,1,0.0027483411352856,0.0100996915276271,,false,lh,5277.295000017853,response,-0.7306047092126615,0.8338940101259562,-0.7594973064815301,0.9725548307155644,1.109146608359343,-0.7172975891997598,low,high,,ISIC_7364041.JPG,9,ISIC_0065469.JPG,37,false,ll,keypress(f),0,false,967562.8000000119,967562.7000000179,962268.765,962262.599999994,962285.405,967595.869,4,500,6,
break,html.Screen,10_5_1,2023-11-15T21:45:35.718Z,,,,,,,,,,NaN,,,,,,,,low,high,,,,,,false,,,,false,967563.2000000179,967563,,967562.900000006,,967595.869,4,500,,
break_continue,html.Screen,10_5_2,2023-11-15T21:45:35.718Z,,,,,,,,,,NaN,,,,,,,,low,high,,,,,,false,,,,false,967563.3000000119,967563.3000000119,,967563.2000000179,,967595.869,4,500,,
sequence,flow.Sequence,10_5,2023-11-15T21:45:35.718Z,,,,,,,,,,5277.895000011893,completion,,,,,,,low,high,,,,,,false,,,,false,967563.3000000119,967563.3000000119,962268.765,962262.5,962285.405,967595.869,4,500,,
trial,html.Screen,10_6_0,2023-11-15T21:45:41.415Z,,,,1,0.0608867680161491,0.0206384042070211,,true,ll,5664.031000006013,response,-0.6811261841091603,0.8338940101259562,-0.7594973064815301,-0.857279063906232,1.109146608359343,-0.7172975891997598,low,low,,ISIC_0640806.JPG,9,ISIC_1398618.JPG,307,false,ll,keypress(f),0,false,973260.2000000179,973259.900000006,967578.946,967563.5,967595.869,973273.468,4,500,7,
break,html.Screen,10_6_1,2023-11-15T21:45:41.416Z,,,,,,,,,,NaN,,,,,,,,low,low,,,,,,false,,,,false,973261.400000006,973261.2000000179,,973260.599999994,,973273.468,4,500,,
break_continue,html.Screen,10_6_2,2023-11-15T21:45:41.417Z,,,,,,,,,,NaN,,,,,,,,low,low,,,,,,false,,,,false,973262.2000000179,973261.900000006,,973261.7000000179,,973273.468,4,500,,
sequence,flow.Sequence,10_6,2023-11-15T21:45:41.417Z,,,,,,,,,,5666.031000006013,completion,,,,,,,low,low,,,,,,false,,,,false,973262.5,973261.900000006,967578.946,967563.400000006,967595.869,973273.468,4,500,,
trial,html.Screen,10_7_0,2023-11-15T21:45:46.943Z,,,,1,0.0116094682222121,-0.0258434522530318,,true,hl,5514.432000005967,response,0.8588102663741646,0.8338940101259562,-0.7594973064815301,-0.581477816398024,1.109146608359343,-0.7172975891997598,high,low,,ISIC_9239632.JPG,9,ISIC_0497390.JPG,63,false,hl,keypress(j),0,false,978788.3000000119,978787.900000006,973256.853,973262.7000000179,973273.468,978800.905,4,500,8,
break,html.Screen,10_7_1,2023-11-15T21:45:46.944Z,,,,,,,,,,NaN,,,,,,,,high,low,,,,,,false,,,,false,978789.5,978789.2000000179,,978788.7000000179,,978800.905,4,500,,
break_continue,html.Screen,10_7_2,2023-11-15T21:45:46.945Z,,,,,,,,,,NaN,,,,,,,,high,low,,,,,,false,,,,false,978790.2000000179,978789.900000006,,978789.7000000179,,978800.905,4,500,,
sequence,flow.Sequence,10_7,2023-11-15T21:45:46.945Z,,,,,,,,,,5516.432000005967,completion,,,,,,,high,low,,,,,,false,,,,false,978790.5,978789.900000006,973256.853,973262.599999994,973273.468,978800.905,4,500,,
trial,html.Screen,10_8_0,2023-11-15T21:45:55.271Z,,,,1,-0.0149482827359613,0.0661630859332833,,false,lh,8314.995000005933,response,-0.9454713230140772,0.8338940101259562,-0.7594973064815301,0.9245167441969216,1.109146608359343,-0.7172975891997598,low,high,,ISIC_6815524.JPG,8,ISIC_9101055.JPG,37,false,hh,keypress(i),0,false,987116.2000000179,987115.900000006,978784.092,978790.7000000179,978800.905,987133.964,4,500,9,
break,html.Screen,10_8_1,2023-11-15T21:45:55.272Z,,,,,,,,,,NaN,,,,,,,,low,high,,,,,,false,,,,false,987117.599999994,987117.2000000179,,987116.599999994,,987133.964,4,500,,
break_continue,html.Screen,10_8_2,2023-11-15T21:45:55.273Z,,,,,,,,,,NaN,,,,,,,,low,high,,,,,,false,,,,false,987118.400000006,987118.099999994,,987117.8000000119,,987133.964,4,500,,
sequence,flow.Sequence,10_8,2023-11-15T21:45:55.273Z,,,,,,,,,,8317.194999994012,completion,,,,,,,low,high,,,,,,false,,,,false,987118.7000000179,987118.099999994,978784.092,978790.7000000179,978800.905,987133.964,4,500,,
trial,html.Screen,10_9_0,2023-11-15T21:46:02.879Z,,,,1,0.0217698886732706,-0.0410870915161425,,true,lh,7590.035999999964,response,-0.879102500583965,0.8338940101259562,-0.7594973064815301,1.0933081951979773,1.109146608359343,-0.7172975891997598,low,high,,ISIC_0072173.JPG,9,ISIC_0046223.JPG,37,false,lh,keypress(e),0,false,994724.400000006,994724,987117.169,987118.900000006,987133.964,994731.817,4,500,10,
break,html.Screen,10_9_1,2023-11-15T21:46:02.880Z,,,,,,,,,,NaN,,,,,,,,low,high,,,,,,false,,,,false,994725.5,994725.3000000119,,994724.8000000119,,994731.817,4,500,,
break_continue,html.Screen,10_9_2,2023-11-15T21:46:02.881Z,,,,,,,,,,NaN,,,,,,,,low,high,,,,,,false,,,,false,994726.3000000119,994726,,994725.8000000119,,994731.817,4,500,,
sequence,flow.Sequence,10_9,2023-11-15T21:46:02.881Z,,,,,,,,,,7592.035999999964,completion,,,,,,,low,high,,,,,,false,,,,false,994726.5,994726,987117.169,987118.900000006,987133.964,994731.817,4,500,,
trial,html.Screen,10_10_0,2023-11-15T21:46:08.725Z,,,,1,0.0324770283903853,0.0249968632204382,,false,ll,5838.383000017842,response,-0.8867858784567559,0.8338940101259562,-0.7594973064815301,-0.5984012130079669,1.109146608359343,-0.7172975891997598,low,low,,ISIC_7266462.JPG,9,ISIC_0032494.JPG,307,false,hh,keypress(i),0,false,1000570.3000000119,1000570.2000000179,994715.057,994726.8000000119,994731.817,1000576.529,4,500,11,
break,html.Screen,10_10_1,2023-11-15T21:46:08.725Z,,,,,,,,,,NaN,,,,,,,,low,low,,,,,,false,,,,false,1000570.599999994,1000570.599999994,,1000570.400000006,,1000576.529,4,500,,
break_continue,html.Screen,10_10_2,2023-11-15T21:46:08.725Z,,,,,,,,,,NaN,,,,,,,,low,low,,,,,,false,,,,false,1000570.8000000119,1000570.7000000179,,1000570.7000000179,,1000576.529,4,500,,
sequence,flow.Sequence,10_10,2023-11-15T21:46:08.725Z,,,,,,,,,,5838.883000017842,completion,,,,,,,low,low,,,,,,false,,,,false,1000570.900000006,1000570.7000000179,994715.057,994726.8000000119,994731.817,1000576.529,4,500,,
trial,html.Screen,10_11_0,2023-11-15T21:46:17.415Z,,,,1,0.0660839342637046,-0.0657899819532072,,true,ll,8683.77100001194,response,-0.753429670449437,0.8338940101259562,-0.7594973064815301,-0.7078263153196157,1.109146608359343,-0.7172975891997598,low,low,,ISIC_0065477.JPG,10,ISIC_7517082.JPG,307,false,ll,keypress(f),0,false,1009260.599999994,1009260.3000000119,1000560.021,1000570.900000006,1000576.529,1009277.044,4,500,12,
break,html.Screen,10_11_1,2023-11-15T21:46:17.416Z,,,,,,,,,,NaN,,,,,,,,low,low,,,,,,false,,,,false,1009261.7000000179,1009261.5,,1009261,,1009277.044,4,500,,
break_continue,html.Screen,10_11_2,2023-11-15T21:46:17.417Z,,,,,,,,,,NaN,,,,,,,,low,low,,,,,,false,,,,false,1009262.400000006,1009262.3000000119,,1009262,,1009277.044,4,500,,
sequence,flow.Sequence,10_11,2023-11-15T21:46:17.417Z,,,,,,,,,,8685.77100001194,completion,,,,,,,low,low,,,,,,false,,,,false,1009262.8000000119,1009262.3000000119,1000560.021,1000570.900000006,1000576.529,1009277.044,4,500,,
trial,html.Screen,10_12_0,2023-11-15T21:46:22.471Z,,,,1,0.0363437082783146,0.0333332186217051,,false,lh,5038.856000005966,response,-0.6290784713565712,0.8338940101259562,-0.7594973064815301,0.9294537734479156,1.109146608359343,-0.7172975891997598,low,high,,ISIC_3314555.JPG,9,ISIC_0054770.JPG,37,false,hh,keypress(i),0,false,1014316.2000000179,1014315.900000006,1009260.196,1009263,1009277.044,1014320.045,4,500,13,
break,html.Screen,10_12_1,2023-11-15T21:46:22.472Z,,,,,,,,,,NaN,,,,,,,,low,high,,,,,,false,,,,false,1014317.400000006,1014317.2000000179,,1014316.599999994,,1014320.045,4,500,,
break_continue,html.Screen,10_12_2,2023-11-15T21:46:22.473Z,,,,,,,,,,NaN,,,,,,,,low,high,,,,,,false,,,,false,1014318.099999994,1014317.900000006,,1014317.599999994,,1014320.045,4,500,,
sequence,flow.Sequence,10_12,2023-11-15T21:46:22.473Z,,,,,,,,,,5040.856000005966,completion,,,,,,,low,high,,,,,,false,,,,false,1014318.400000006,1014317.900000006,1009260.196,1009263,1009277.044,1014320.045,4,500,,
trial,html.Screen,10_13_0,2023-11-15T21:46:27.153Z,,,,1,-0.059471106306043,0.0678292174694111,,true,ll,4676.554999993998,response,-0.58706205815658,0.8338940101259562,-0.7594973064815301,-0.8358409372866391,1.109146608359343,-0.7172975891997598,low,low,,ISIC_0015631.JPG,9,ISIC_7642500.JPG,307,false,ll,keypress(f),0,false,1018996.900000006,1018996.599999994,1014303.179,1014318.599999994,1014320.045,1019012.506,4,500,14,
break,html.Screen,10_13_1,2023-11-15T21:46:27.155Z,,,,,,,,,,NaN,,,,,,,,low,low,,,,,,false,,,,false,1018998.2000000179,1018997.8000000119,,1018997.400000006,,1019012.506,4,500,,
break_continue,html.Screen,10_13_2,2023-11-15T21:46:27.155Z,,,,,,,,,,NaN,,,,,,,,low,low,,,,,,false,,,,false,1018998.900000006,1018998.599999994,,1018998.400000006,,1019012.506,4,500,,
sequence,flow.Sequence,10_13,2023-11-15T21:46:27.156Z,,,,,,,,,,4678.554999993998,completion,,,,,,,low,low,,,,,,false,,,,false,1018999.2000000179,1018998.599999994,1014303.179,1014318.599999994,1014320.045,1019012.506,4,500,,
trial,html.Screen,10_14_0,2023-11-15T21:46:31.193Z,,,,1,0.007397293189458,0.0174716772037504,,true,hh,4023.8940000059083,response,0.934130994804294,0.8338940101259562,-0.7594973064815301,1.0454436589399478,1.109146608359343,-0.7172975891997598,high,high,,ISIC_0056226.JPG,9,ISIC_0053916.JPG,158,false,hh,keypress(i),0,false,1023036.599999994,1023036.400000006,1018995.803,1018999.5,1019012.506,1023053.881,4,500,15,
break,html.Screen,10_14_1,2023-11-15T21:46:31.194Z,,,,,,,,,,NaN,,,,,,,,high,high,,,,,,false,,,,false,1023037.8000000119,1023037.5,,1023037,,1023053.881,4,500,,
break_continue,html.Screen,10_14_2,2023-11-15T21:46:31.195Z,,,,,,,,,,NaN,,,,,,,,high,high,,,,,,false,,,,false,1023038.5,1023038.3000000119,,1023038,,1023053.881,4,500,,
sequence,flow.Sequence,10_14,2023-11-15T21:46:31.195Z,,,,,,,,,,4025.794000011869,completion,,,,,,,high,high,,,,,,false,,,,false,1023038.900000006,1023038.3000000119,1018995.803,1018999.400000006,1019012.506,1023053.881,4,500,,
trial,html.Screen,10_15_0,2023-11-15T21:46:36.207Z,,,,1,-0.0546386976779619,0.0448724759283131,,false,lh,4996.618999999948,response,-0.640368147287078,0.8338940101259562,-0.7594973064815301,0.9390639372028852,1.109146608359343,-0.7172975891997598,low,high,,ISIC_6722934.JPG,10,ISIC_0030393.JPG,37,false,hh,keypress(i),0,false,1028050.599999994,1028050.5,1023037.166,1023039.099999994,1023053.881,1028063.385,4,500,16,
break,html.Screen,10_15_1,2023-11-15T21:46:36.207Z,,,,,,,,,,NaN,,,,,,,,low,high,,,,,,false,,,,false,1028051,1028050.900000006,,1028050.7000000179,,1028063.385,4,500,,
break_continue,html.Screen,10_15_2,2023-11-15T21:46:36.208Z,,,,,,,,,,NaN,,,,,,,,low,high,,,,,,false,,,,false,1028051.3000000119,1028051.099999994,,1028051.099999994,,1028063.385,4,500,,
sequence,flow.Sequence,10_15,2023-11-15T21:46:36.208Z,,,,,,,,,,4997.218999993987,completion,,,,,,,low,high,,,,,,false,,,,false,1028051.3000000119,1028051.099999994,1023037.166,1023039,1023053.881,1028063.385,4,500,,
trial,html.Screen,10_16_0,2023-11-15T21:46:40.937Z,,,,1,0.0085520978188085,-0.0464691161264081,,true,ll,4716.815000017872,response,-0.8357863649703072,0.8338940101259562,-0.7594973064815301,-0.7360109695211967,1.109146608359343,-0.7172975891997598,low,low,,ISIC_0758797.JPG,9,ISIC_8357415.JPG,307,false,ll,keypress(f),0,false,1032780.5,1032780.2000000179,1028046.801,1028051.400000006,1028063.385,1032789.202,4,500,17,
break,html.Screen,10_16_1,2023-11-15T21:46:40.938Z,,,,,,,,,,NaN,,,,,,,,low,low,,,,,,false,,,,false,1032781.7000000179,1032781.400000006,,1032781,,1032789.202,4,500,,
break_continue,html.Screen,10_16_2,2023-11-15T21:46:40.939Z,,,,,,,,,,NaN,,,,,,,,low,low,,,,,,false,,,,false,1032782.5,1032782.2000000179,,1032781.900000006,,1032789.202,4,500,,
sequence,flow.Sequence,10_16,2023-11-15T21:46:40.939Z,,,,,,,,,,4718.815000017872,completion,,,,,,,low,low,,,,,,false,,,,false,1032782.7000000179,1032782.2000000179,1028046.801,1028051.3000000119,1028063.385,1032789.202,4,500,,
trial,html.Screen,10_17_0,2023-11-15T21:46:47.225Z,,,,1,0.0107854985447517,0.0478010417136109,,false,hl,6278.897999993991,response,0.7658868829280708,0.8338940101259562,-0.7594973064815301,-0.5933639813949443,1.109146608359343,-0.7172975891997598,high,low,,ISIC_0010500.JPG,9,ISIC_0000446.JPG,63,false,ll,keypress(f),0,false,1039068.400000006,1039068.099999994,1032772.745,1032783,1032789.202,1039085.084,4,500,18,
break,html.Screen,10_17_1,2023-11-15T21:46:47.226Z,,,,,,,,,,NaN,,,,,,,,high,low,,,,,,false,,,,false,1039069.599999994,1039069.3000000119,,1039068.8000000119,,1039085.084,4,500,,
break_continue,html.Screen,10_17_2,2023-11-15T21:46:47.227Z,,,,,,,,,,NaN,,,,,,,,high,low,,,,,,false,,,,false,1039070.2000000179,1039070,,1039069.900000006,,1039085.084,4,500,,
sequence,flow.Sequence,10_17,2023-11-15T21:46:47.227Z,,,,,,,,,,6280.797999999952,completion,,,,,,,high,low,,,,,,false,,,,false,1039070.5,1039070,1032772.745,1032783,1032789.202,1039085.084,4,500,,
trial,html.Screen,10_18_0,2023-11-15T21:46:52.121Z,,,,1,0.0651705891246238,-0.0394586219902573,,true,ll,4878.816000005929,response,-0.9010174762924352,0.8338940101259562,-0.7594973064815301,-0.7111651995310534,1.109146608359343,-0.7172975891997598,low,low,,ISIC_0013491.JPG,9,ISIC_0003132.JPG,307,false,ll,keypress(f),0,false,1043964.2000000179,1043963.900000006,1039068.269,1039070.7000000179,1039085.084,1043977.707,4,500,19,
break,html.Screen,10_18_1,2023-11-15T21:46:52.122Z,,,,,,,,,,NaN,,,,,,,,low,low,,,,,,false,,,,false,1043965.3000000119,1043965,,1043964.599999994,,1043977.707,4,500,,
break_continue,html.Screen,10_18_2,2023-11-15T21:46:52.122Z,,,,,,,,,,NaN,,,,,,,,low,low,,,,,,false,,,,false,1043966,1043965.8000000119,,1043965.599999994,,1043977.707,4,500,,
sequence,flow.Sequence,10_18,2023-11-15T21:46:52.123Z,,,,,,,,,,4880.716000011889,completion,,,,,,,low,low,,,,,,false,,,,false,1043966.3000000119,1043965.8000000119,1039068.269,1039070.7000000179,1039085.084,1043977.707,4,500,,
trial,html.Screen,10_19_0,2023-11-15T21:46:56.393Z,,,,1,-0.0265457942157377,-0.0704357137706731,,false,hl,4258.292999999947,response,0.8103021308201687,0.8338940101259562,-0.7594973064815301,-0.7042733963657423,1.109146608359343,-0.7172975891997598,high,low,,ISIC_3123377.JPG,9,ISIC_1496194.JPG,63,false,ll,keypress(f),0,false,1048236.3000000119,1048236,1043961.214,1043966.5,1043977.707,1048252.747,4,500,20,
break,html.Screen,10_19_1,2023-11-15T21:46:56.394Z,,,,,,,,,,NaN,,,,,,,,high,low,,,,,,false,,,,false,1048237.400000006,1048237.3000000119,,1048236.7000000179,,1048252.747,4,500,,
break_continue,html.Screen,10_19_2,2023-11-15T21:46:56.395Z,,,,,,,,,,NaN,,,,,,,,high,low,,,,,,false,,,,false,1048238.2000000179,1048237.900000006,,1048237.7000000179,,1048252.747,4,500,,
sequence,flow.Sequence,10_19,2023-11-15T21:46:56.395Z,,,,,,,,,,4260.193000005907,completion,,,,,,,high,low,,,,,,false,,,,false,1048238.5,1048237.900000006,1043961.214,1043966.5,1043977.707,1048252.747,4,500,,
trial,html.Screen,10_20_0,2023-11-15T21:47:06.073Z,,,,1,-0.0265457942157377,-0.0704357137706731,,true,lh,9663.553000011947,response,-0.9454713230140772,0.8338940101259562,-0.7594973064815301,0.9245167441969216,1.109146608359343,-0.7172975891997598,low,high,,ISIC_3123377.JPG,10,ISIC_9101055.JPG,37,false,lh,keypress(e),0,false,1057916.599999994,1057916.300000012,1048236.164,1048238.599999994,1048252.747,1057921.477,4,500,21,
break,html.Screen,10_20_1,2023-11-15T21:47:06.074Z,,,,,,,,,,NaN,,,,,,,,low,high,,,,,,false,,,,false,1057917.7000000179,1057917.5,,1057917,,1057921.477,4,500,,
break_continue,html.Screen,10_20_2,2023-11-15T21:47:06.075Z,,,,,,,,,,NaN,,,,,,,,low,high,,,,,,false,,,,false,1057918.5,1057918.2000000179,,1057918,,1057921.477,4,500,,
sequence,flow.Sequence,10_20,2023-11-15T21:47:06.075Z,,,,,,,,,,9665.453000017907,completion,,,,,,,low,high,,,,,,false,,,,false,1057918.800000012,1057918.2000000179,1048236.164,1048238.599999994,1048252.747,1057921.477,4,500,,
trial,html.Screen,10_21_0,2023-11-15T21:47:11.295Z,,,,1,0.0194167651857046,0.0726253809408601,,true,hh,5216.823000011966,response,1.007567553886196,0.8338940101259562,-0.7594973064815301,0.9379731610733476,1.109146608359343,-0.7172975891997598,high,high,,ISIC_0056692.JPG,9,ISIC_0030824.JPG,158,false,hh,keypress(i),0,false,1063138.400000006,1063138.300000012,1057904.747,1057919,1057921.477,1063148.346,4,500,22,
break,html.Screen,10_21_1,2023-11-15T21:47:11.295Z,,,,,,,,,,NaN,,,,,,,,high,high,,,,,,false,,,,false,1063138.7000000179,1063138.599999994,,1063138.5,,1063148.346,4,500,,
break_continue,html.Screen,10_21_2,2023-11-15T21:47:11.295Z,,,,,,,,,,NaN,,,,,,,,high,high,,,,,,false,,,,false,1063138.900000006,1063138.800000012,,1063138.800000012,,1063148.346,4,500,,
sequence,flow.Sequence,10_21,2023-11-15T21:47:11.295Z,,,,,,,,,,5217.323000011966,completion,,,,,,,high,high,,,,,,false,,,,false,1063138.900000006,1063138.800000012,1057904.747,1057919,1057921.477,1063148.346,4,500,,
trial,html.Screen,10_22_0,2023-11-15T21:47:17.785Z,,,,1,-0.0087912446525382,-0.0619041869188676,,false,hl,6479.854000017978,response,0.8623414234919863,0.8338940101259562,-0.7594973064815301,-0.782830143980698,1.109146608359343,-0.7172975891997598,high,low,,ISIC_7185913.JPG,9,ISIC_2727016.JPG,63,false,ll,keypress(f),0,false,1069628.599999994,1069628.2000000179,1063131.815,1063139,1063148.346,1069644.567,4,500,23,
break,html.Screen,10_22_1,2023-11-15T21:47:17.786Z,,,,,,,,,,NaN,,,,,,,,high,low,,,,,,false,,,,false,1069629.7000000179,1069629.400000006,,1069628.900000006,,1069644.567,4,500,,
break_continue,html.Screen,10_22_2,2023-11-15T21:47:17.787Z,,,,,,,,,,NaN,,,,,,,,high,low,,,,,,false,,,,false,1069630.300000012,1069630.2000000179,,1069629.900000006,,1069644.567,4,500,,
sequence,flow.Sequence,10_22,2023-11-15T21:47:17.787Z,,,,,,,,,,6481.854000017978,completion,,,,,,,high,low,,,,,,false,,,,false,1069630.7000000179,1069630.2000000179,1063131.815,1063139,1063148.346,1069644.567,4,500,,
trial,html.Screen,10_23_0,2023-11-15T21:47:28.275Z,,,,1,-0.0735635316240061,0.0537805418091709,,true,ll,10471.833000005921,response,-0.5923766877272827,0.8338940101259562,-0.7594973064815301,-0.6771163938042194,1.109146608359343,-0.7172975891997598,low,low,,ISIC_1761799.JPG,10,ISIC_0069944.JPG,307,false,ll,keypress(f),0,false,1080116.7000000179,1080116.400000006,1069627.734,1069630.900000006,1069644.567,1080131.483,4,500,24,
break,html.Screen,10_23_1,2023-11-15T21:47:28.276Z,,,,,,,,,,NaN,,,,,,,,low,low,,,,,,false,,,,false,1080118,1080117.599999994,,1080117.099999994,,1080131.483,4,500,,
break_continue,html.Screen,10_23_2,2023-11-15T21:47:28.277Z,,,,,,,,,,NaN,,,,,,,,low,low,,,,,,false,,,,false,1080118.7000000179,1080118.400000006,,1080118.2000000179,,1080131.483,4,500,,
sequence,flow.Sequence,10_23,2023-11-15T21:47:28.277Z,,,,,,,,,,10473.833000005921,completion,,,,,,,low,low,,,,,,false,,,,false,1080118.900000006,1080118.400000006,1069627.734,1069630.800000012,1069644.567,1080131.483,4,500,,
trial,html.Screen,10_24_0,2023-11-15T21:47:32.922Z,,,,1,-0.0531672914703651,0.0074883925434357,,false,hl,4631.917000005953,response,0.6829931324912223,0.8338940101259562,-0.7594973064815301,-0.6177402066684206,1.109146608359343,-0.7172975891997598,high,low,,ISIC_4177043.JPG,8,ISIC_0025648.JPG,63,false,hh,keypress(i),0,false,1084763.7000000179,1084763.400000006,1080114.937,1080119.2000000179,1080131.483,1084773.823,4,500,25,
break,html.Screen,10_24_1,2023-11-15T21:47:32.923Z,,,,,,,,,,NaN,,,,,,,,high,low,,,,,,false,,,,false,1084764.5,1084764.400000006,,1084764,,1084773.823,4,500,,
break_continue,html.Screen,10_24_2,2023-11-15T21:47:32.923Z,,,,,,,,,,NaN,,,,,,,,high,low,,,,,,false,,,,false,1084765,1084764.800000012,,1084764.599999994,,1084773.823,4,500,,
sequence,flow.Sequence,10_24,2023-11-15T21:47:32.923Z,,,,,,,,,,4633.3170000119135,completion,,,,,,,high,low,,,,,,false,,,,false,1084765.2000000179,1084764.800000012,1080114.937,1080119.099999994,1080131.483,1084773.823,4,500,,
trial,html.Screen,10_25_0,2023-11-15T21:47:41.905Z,,,,1,,-0.0264544974620926,,false,lh,8972.776999993948,response,-0.582329390280888,0.8338940101259562,-0.7594973064815301,1.018055659420043,1.109146608359343,-0.7172975891997598,low,high,,ISIC_0056991.JPG,9,ISIC_0027411.JPG,37,false,hl,keypress(j),0,false,1093746.800000012,1093746.599999994,1084757.039,1084765.400000006,1084773.823,1093757.911,4,500,26,
break,html.Screen,10_25_1,2023-11-15T21:47:41.905Z,,,,,,,,,,NaN,,,,,,,,low,high,,,,,,false,,,,false,1093747.099999994,1093747,,1093746.800000012,,1093757.911,4,500,,
break_continue,html.Screen,10_25_2,2023-11-15T21:47:41.906Z,,,,,,,,,,NaN,,,,,,,,low,high,,,,,,false,,,,false,1093747.2000000179,1093747.2000000179,,1093747.2000000179,,1093757.911,4,500,,
sequence,flow.Sequence,10_25,2023-11-15T21:47:41.906Z,,,,,,,,,,8973.37700001779,completion,,,,,,,low,high,,,,,,false,,,,false,1093747.300000012,1093747.2000000179,1084757.039,1084765.400000006,1084773.823,1093757.911,4,500,,
trial,html.Screen,10_26_0,2023-11-15T21:47:50.651Z,,,,1,0.0651705891246238,-0.0394586219902573,,true,hl,8734.18899999396,response,0.8588102663741646,0.8338940101259562,-0.7594973064815301,-0.581477816398024,1.109146608359343,-0.7172975891997598,high,low,,ISIC_0013491.JPG,9,ISIC_0497390.JPG,63,false,hl,keypress(j),0,false,1102492.400000006,1102492.099999994,1093741.348,1093747.400000006,1093757.911,1102508.514,4,500,27,
break,html.Screen,10_26_1,2023-11-15T21:47:50.652Z,,,,,,,,,,NaN,,,,,,,,high,low,,,,,,false,,,,false,1102493.599999994,1102493.300000012,,1102492.800000012,,1102508.514,4,500,,
break_continue,html.Screen,10_26_2,2023-11-15T21:47:50.653Z,,,,,,,,,,NaN,,,,,,,,high,low,,,,,,false,,,,false,1102494.5,1102494.2000000179,,1102493.900000006,,1102508.514,4,500,,
sequence,flow.Sequence,10_26,2023-11-15T21:47:50.653Z,,,,,,,,,,8736.289000017801,completion,,,,,,,high,low,,,,,,false,,,,false,1102494.900000006,1102494.2000000179,1093741.348,1093747.400000006,1093757.911,1102508.514,4,500,,
trial,html.Screen,10_27_0,2023-11-15T21:47:56.746Z,,,,1,-0.0409338693593207,0.0072462710499874,,false,ll,6079.4860000000335,response,-0.7342594090587033,0.8338940101259562,-0.7594973064815301,-0.5841727591176461,1.109146608359343,-0.7172975891997598,low,low,,ISIC_3608788.JPG,9,ISIC_0185918.JPG,307,false,hl,keypress(j),0,false,1108588.2000000179,1108588,1102491.719,1102495.300000012,1102508.514,1108603.547,4,500,28,
break,html.Screen,10_27_1,2023-11-15T21:47:56.748Z,,,,,,,,,,NaN,,,,,,,,low,low,,,,,,false,,,,false,1108589.300000012,1108589,,1108588.599999994,,1108603.547,4,500,,
break_continue,html.Screen,10_27_2,2023-11-15T21:47:56.748Z,,,,,,,,,,NaN,,,,,,,,low,low,,,,,,false,,,,false,1108590,1108589.800000012,,1108589.5,,1108603.547,4,500,,
sequence,flow.Sequence,10_27,2023-11-15T21:47:56.749Z,,,,,,,,,,6081.2860000119545,completion,,,,,,,low,low,,,,,,false,,,,false,1108590.2000000179,1108589.800000012,1102491.719,1102495.2000000179,1102508.514,1108603.547,4,500,,
trial,html.Screen,10_28_0,2023-11-15T21:48:03.185Z,,,,1,-0.0265457942157377,-0.0704357137706731,,false,lh,6423.052999994019,response,-0.7133243033950115,0.8338940101259562,-0.7594973064815301,0.9575090175925351,1.109146608359343,-0.7172975891997598,low,high,,ISIC_3123377.JPG,9,ISIC_1369273.JPG,37,false,ll,keypress(f),0,false,1115026.599999994,1115026.599999994,1108586.721,1108590.5,1108603.547,1115032.673,4,500,29,
break,html.Screen,10_28_1,2023-11-15T21:48:03.185Z,,,,,,,,,,NaN,,,,,,,,low,high,,,,,,false,,,,false,1115027,1115026.800000012,,1115026.7000000179,,1115032.673,4,500,,
break_continue,html.Screen,10_28_2,2023-11-15T21:48:03.185Z,,,,,,,,,,NaN,,,,,,,,low,high,,,,,,false,,,,false,1115027.2000000179,1115027.2000000179,,1115027,,1115032.673,4,500,,
sequence,flow.Sequence,10_28,2023-11-15T21:48:03.186Z,,,,,,,,,,6423.653000017861,completion,,,,,,,low,high,,,,,,false,,,,false,1115027.300000012,1115027.2000000179,1108586.721,1108590.5,1108603.547,1115032.673,4,500,,
trial,html.Screen,10_29_0,2023-11-15T21:48:12.779Z,,,,1,0.0324770283903853,0.0249968632204382,,false,lh,9587.827000000048,response,-0.8979276789594874,0.8338940101259562,-0.7594973064815301,0.925374811016654,1.109146608359343,-0.7172975891997598,low,high,,ISIC_7266462.JPG,10,ISIC_4208361.JPG,37,false,hl,keypress(j),0,false,1124620.800000012,1124620.5,1115016.207,1115027.300000012,1115032.673,1124634.862,4,500,30,
break,html.Screen,10_29_1,2023-11-15T21:48:12.780Z,,,,,,,,,,NaN,,,,,,,,low,high,,,,,,false,,,,false,1124621.900000006,1124621.7000000179,,1124621.2000000179,,1124634.862,4,500,,
break_continue,html.Screen,10_29_2,2023-11-15T21:48:12.781Z,,,,,,,,,,NaN,,,,,,,,low,high,,,,,,false,,,,false,1124622.599999994,1124622.400000006,,1124622.099999994,,1124634.862,4,500,,
sequence,flow.Sequence,10_29,2023-11-15T21:48:12.781Z,,,,,,,,,,9589.727000006009,completion,,,,,,,low,high,,,,,,false,,,,false,1124622.900000006,1124622.400000006,1115016.207,1115027.300000012,1115032.673,1124634.862,4,500,,
trial,html.Screen,10_30_0,2023-11-15T21:48:21.843Z,,,,1,0.0456515796420274,-0.0273567130070961,,false,hl,9049.338000017917,response,0.796241477082623,0.8338940101259562,-0.7594973064815301,-0.9017449335975743,1.109146608359343,-0.7172975891997598,high,low,,ISIC_0068610.JPG,9,ISIC_8588033.JPG,63,false,lh,keypress(e),0,false,1133684.5,1133684.2000000179,1124618.172,1124623.2000000179,1124634.862,1133702.306,4,500,31,
break,html.Screen,10_30_1,2023-11-15T21:48:21.844Z,,,,,,,,,,NaN,,,,,,,,high,low,,,,,,false,,,,false,1133685.7000000179,1133685.400000006,,1133684.900000006,,1133702.306,4,500,,
break_continue,html.Screen,10_30_2,2023-11-15T21:48:21.845Z,,,,,,,,,,NaN,,,,,,,,high,low,,,,,,false,,,,false,1133686.5,1133686.300000012,,1133685.900000006,,1133702.306,4,500,,
sequence,flow.Sequence,10_30,2023-11-15T21:48:21.845Z,,,,,,,,,,9051.438000011956,completion,,,,,,,high,low,,,,,,false,,,,false,1133686.800000012,1133686.300000012,1124618.172,1124623.099999994,1124634.862,1133702.306,4,500,,
trial,html.Screen,10_31_0,2023-11-15T21:48:30.005Z,,,,1,-0.0409338693593207,0.0072462710499874,,true,hh,8142.094000005862,response,0.8172719099003396,0.8338940101259562,-0.7594973064815301,1.2712431846334218,1.109146608359343,-0.7172975891997598,high,high,,ISIC_3608788.JPG,9,ISIC_0011794.JPG,158,false,hh,keypress(i),0,false,1141844.800000012,1141844.400000006,1133669.08,1133687.099999994,1133702.306,1141851.501,4,500,32,
break,html.Screen,10_31_1,2023-11-15T21:48:30.006Z,,,,,,,,,,NaN,,,,,,,,high,high,,,,,,false,,,,false,1141846.099999994,1141845.7000000179,,1141845.2000000179,,1141851.501,4,500,,
break_continue,html.Screen,10_31_2,2023-11-15T21:48:30.007Z,,,,,,,,,,NaN,,,,,,,,high,high,,,,,,false,,,,false,1141846.800000012,1141846.599999994,,1141846.400000006,,1141851.501,4,500,,
sequence,flow.Sequence,10_31,2023-11-15T21:48:30.007Z,,,,,,,,,,8144.293999993941,completion,,,,,,,high,high,,,,,,false,,,,false,1141847.2000000179,1141846.599999994,1133669.08,1133687,1133702.306,1141851.501,4,500,,
trial,html.Screen,10_32_0,2023-11-15T21:48:36.109Z,,,,1,0.0640778296621707,0.0387686079545705,,true,ll,6096.69900001795,response,-0.8994842416561404,0.8338940101259562,-0.7594973064815301,-0.6859121064133642,1.109146608359343,-0.7172975891997598,low,low,,ISIC_0010124.JPG,9,ISIC_5525765.JPG,307,false,ll,keypress(f),0,false,1147948.5,1147948.2000000179,1141835.025,1141847.300000012,1141851.501,1147963.603,4,500,33,
break,html.Screen,10_32_1,2023-11-15T21:48:36.110Z,,,,,,,,,,NaN,,,,,,,,low,low,,,,,,false,,,,false,1147949.7000000179,1147949.400000006,,1147948.900000006,,1147963.603,4,500,,
break_continue,html.Screen,10_32_2,2023-11-15T21:48:36.111Z,,,,,,,,,,NaN,,,,,,,,low,low,,,,,,false,,,,false,1147950.599999994,1147950.300000012,,1147950,,1147963.603,4,500,,
sequence,flow.Sequence,10_32,2023-11-15T21:48:36.111Z,,,,,,,,,,6098.79900001199,completion,,,,,,,low,low,,,,,,false,,,,false,1147950.800000012,1147950.300000012,1141835.025,1141847.2000000179,1141851.501,1147963.603,4,500,,
trial,html.Screen,10_33_0,2023-11-15T21:48:40.917Z,,,,1,-0.0737104822171846,0.0725320314728604,,false,lh,4792.697000012035,response,-0.6276303452161716,0.8338940101259562,-0.7594973064815301,0.9740596249572724,1.109146608359343,-0.7172975891997598,low,high,,ISIC_0002862.JPG,9,ISIC_9053910.JPG,37,false,hh,keypress(i),0,false,1152756.599999994,1152756.300000012,1147946.83,1147951,1147963.603,1152773.006,4,500,34,
break,html.Screen,10_33_1,2023-11-15T21:48:40.918Z,,,,,,,,,,NaN,,,,,,,,low,high,,,,,,false,,,,false,1152757.7000000179,1152757.5,,1152757,,1152773.006,4,500,,
break_continue,html.Screen,10_33_2,2023-11-15T21:48:40.918Z,,,,,,,,,,NaN,,,,,,,,low,high,,,,,,false,,,,false,1152758.400000006,1152758.2000000179,,1152757.900000006,,1152773.006,4,500,,
sequence,flow.Sequence,10_33,2023-11-15T21:48:40.919Z,,,,,,,,,,4794.597000017995,completion,,,,,,,low,high,,,,,,false,,,,false,1152758.7000000179,1152758.2000000179,1147946.83,1147950.900000006,1147963.603,1152773.006,4,500,,
trial,html.Screen,10_34_0,2023-11-15T21:48:46.213Z,,,,1,0.007397293189458,0.0174716772037504,,false,hl,5279.394000005908,response,0.7871162143493278,0.8338940101259562,-0.7594973064815301,-0.8429329800778957,1.109146608359343,-0.7172975891997598,high,low,,ISIC_0056226.JPG,9,ISIC_3439215.JPG,63,false,lh,keypress(e),0,false,1158052.7000000179,1158052.400000006,1152756.08,1152758.800000012,1152773.006,1158066.586,4,500,35,
break,html.Screen,10_34_1,2023-11-15T21:48:46.214Z,,,,,,,,,,NaN,,,,,,,,high,low,,,,,,false,,,,false,1158053.900000006,1158053.599999994,,1158053.099999994,,1158066.586,4,500,,
break_continue,html.Screen,10_34_2,2023-11-15T21:48:46.215Z,,,,,,,,,,NaN,,,,,,,,high,low,,,,,,false,,,,false,1158054.599999994,1158054.400000006,,1158054.099999994,,1158066.586,4,500,,
sequence,flow.Sequence,10_34,2023-11-15T21:48:46.215Z,,,,,,,,,,5281.394000005908,completion,,,,,,,high,low,,,,,,false,,,,false,1158054.900000006,1158054.400000006,1152756.08,1152758.800000012,1152773.006,1158066.586,4,500,,
trial,html.Screen,10_35_0,2023-11-15T21:48:54.517Z,,,,1,-0.0245376145053177,0.0436993426328401,,false,ll,8289.914000000106,response,-0.7033146667213788,0.8338940101259562,-0.7594973064815301,-0.7584502386393838,1.109146608359343,-0.7172975891997598,low,low,,ISIC_0056444.JPG,8,ISIC_9820910.JPG,307,false,hh,keypress(i),0,false,1166356.800000012,1166356.5,1158049.964,1158055.099999994,1158066.586,1166365.978,4,500,36,
break,html.Screen,10_35_1,2023-11-15T21:48:54.518Z,,,,,,,,,,NaN,,,,,,,,low,low,,,,,,false,,,,false,1166357.900000006,1166357.599999994,,1166357.2000000179,,1166365.978,4,500,,
break_continue,html.Screen,10_35_2,2023-11-15T21:48:54.519Z,,,,,,,,,,NaN,,,,,,,,low,low,,,,,,false,,,,false,1166358.800000012,1166358.5,,1166358.300000012,,1166365.978,4,500,,
sequence,flow.Sequence,10_35,2023-11-15T21:48:54.519Z,,,,,,,,,,8291.914000000106,completion,,,,,,,low,low,,,,,,false,,,,false,1166359.099999994,1166358.5,1158049.964,1158055.099999994,1158066.586,1166365.978,4,500,,
trial,html.Screen,10_36_0,2023-11-15T21:48:57.581Z,,,,1,0.0336891949856763,0.060314732178219,,true,hh,3054.422000006074,response,0.7123344251569738,0.8338940101259562,-0.7594973064815301,1.061329542878903,1.109146608359343,-0.7172975891997598,high,high,,ISIC_6192289.JPG,10,ISIC_0065622.JPG,158,false,hh,keypress(i),0,false,1169420.7000000179,1169420.400000006,1166349.362,1166359.300000012,1166365.978,1169438.783,4,500,37,
break,html.Screen,10_36_1,2023-11-15T21:48:57.582Z,,,,,,,,,,NaN,,,,,,,,high,high,,,,,,false,,,,false,1169421.800000012,1169421.599999994,,1169421.099999994,,1169438.783,4,500,,
break_continue,html.Screen,10_36_2,2023-11-15T21:48:57.583Z,,,,,,,,,,NaN,,,,,,,,high,high,,,,,,false,,,,false,1169422.599999994,1169422.300000012,,1169422,,1169438.783,4,500,,
sequence,flow.Sequence,10_36,2023-11-15T21:48:57.583Z,,,,,,,,,,3056.3220000120346,completion,,,,,,,high,high,,,,,,false,,,,false,1169422.800000012,1169422.300000012,1166349.362,1166359.2000000179,1166365.978,1169438.783,4,500,,
trial,html.Screen,10_37_0,2023-11-15T21:49:06.157Z,,,,1,-0.0735635316240061,0.0537805418091709,,false,ll,8557.917000017827,response,-0.7846842272132721,0.8338940101259562,-0.7594973064815301,-0.6077016477491108,1.109146608359343,-0.7172975891997598,low,low,,ISIC_1761799.JPG,9,ISIC_1777398.JPG,307,false,hl,keypress(j),0,false,1177997,1177996.7000000179,1169405.418,1169423,1169438.783,1178005.25,4,500,38,
break,html.Screen,10_37_1,2023-11-15T21:49:06.158Z,,,,,,,,,,NaN,,,,,,,,low,low,,,,,,false,,,,false,1177998.099999994,1177997.900000006,,1177997.400000006,,1178005.25,4,500,,
