sender,sender_type,sender_id,timestamp,meta,,age,blockNo,c1,c2,condition,correct,correctResponse,duration,ended_on,f1,f1_high,f1_low,f2,f2_high,f2_low,feature_level1,feature_level2,gender,img_left,img_reveal,img_right,n_target_images,practice,response,response_action,selection_duration,staircase,time_commit,time_end,time_render,time_run,time_show,time_switch,total_blocks,total_trials,trialNo,url
informed_consent,html.Screen,0,2023-11-15T19:41:15.475Z,"{""labjs_version"":""20.2.4"",""labjs_build"":{""flavor"":""development"",""commit"":""f5b4a49f956347addd546a832a3327688c2c0fef""},""location"":""https://labjs.felixhenninger.com/api/labjs_preview/index.html"",""userAgent"":""Mozilla/5.0 (Windows NT 10.0; Win64; x64) AppleWebKit/537.36 (KHTML, like Gecko) Chrome/119.0.0.0 Safari/537.36"",""platform"":""Win32"",""language"":""en-US"",""locale"":""en-US"",""timeZone"":""America/Chicago"",""timezoneOffset"":360,""screen_width"":1920,""screen_height"":1080,""scroll_width"":945,""scroll_height"":918,""window_innerWidth"":945,""window_innerHeight"":966,""devicePixelRatio"":1}",,,,,,,,,32246.11999997616,response,,,,,,,,,,,,,,,consent,click button,,,32679.099999964237,32672.399999976158,409.571,413.69999998807907,426.28,32676.213,,,,{}
Demography form,html.Form,1,2023-11-15T19:41:30.563Z,,,19,,,,,,,15091.087000011921,form submission,,,,,,,,,female,,,,,,,,,,47767.39999997616,47767.30000001192,32660.036,32679.19999998808,32676.213,47776.385,,,,
Welcome,html.Screen,2,2023-11-15T19:43:31.817Z,,,,,,,"[""asym"",""col""]",,,121240.71499996423,response,,,,,,,,,,,,,,,continue,click button,,,169017.89999997616,169017.09999996424,47759.645,47767.5,47776.385,169026.301,,,,
demo_instructions,html.Screen,3,2023-11-15T19:44:30.610Z,,,,,,,,,,58782.69899999999,response,,,,,,,,,,,,,,,continue,click button,,,227809.89999997616,227809,169009.667,169018.09999996424,169026.301,227826.219,,,,
trial,html.Screen,4_0_0,2023-11-15T19:44:42.127Z,,,,0,0.9225524349657857,-0.929746784178986,,true,lh,11500.581000011909,response,-0.8129823105338526,0.9999999999999998,-0.9999999999999998,0.9655386457143784,0.9999999999999998,-0.9999999999999998,low,high,,ISIC_0011077.JPG,,ISIC_8268025.JPG,24,true,lh,keypress(e),100,false,239327.09999996424,239326.80000001192,227809.524,227810,227826.219,239343.233,1,16,1,
sequence,flow.Sequence,4_0,2023-11-15T19:44:42.128Z,,,,,,,,,,11500.581000011909,completion,,,,,,,low,high,,,,,,true,,,,false,239327.30000001192,239326.80000001192,227809.524,227810,227826.219,239343.233,1,16,,
trial,html.Screen,4_1_0,2023-11-15T19:44:52.274Z,,,,0,1.127346631538643,-0.8080854255453543,,true,lh,10130.36699996423,response,-0.849847885203758,0.9999999999999998,-0.9999999999999998,0.973447384095442,0.9999999999999998,-0.9999999999999998,low,high,,ISIC_0011045.JPG,,ISIC_9612228.JPG,24,true,lh,keypress(e),100,false,249473.89999997616,249473.59999996424,239326.58,239327.30000001192,239343.233,249492.789,1,16,2,
sequence,flow.Sequence,4_1,2023-11-15T19:44:52.274Z,,,,,,,,,,10130.36699996423,completion,,,,,,,low,high,,,,,,true,,,,false,249474,249473.59999996424,239326.58,239327.30000001192,239343.233,249492.789,1,16,,
trial,html.Screen,4_2_0,2023-11-15T19:44:57.525Z,,,,0,1.1547137855907486,-1.0185275168641534,,true,lh,5231.8109999642475,response,-1.1890109863264902,0.9999999999999998,-0.9999999999999998,0.8867825318561365,0.9999999999999998,-0.9999999999999998,low,high,,ISIC_7604870.JPG,,ISIC_0072576.JPG,24,true,lh,keypress(e),100,false,254724.80000001192,254724.59999996424,249476.076,249474.09999996424,249492.789,254743.225,1,16,3,
sequence,flow.Sequence,4_2,2023-11-15T19:44:57.525Z,,,,,,,,,,5231.8109999642475,completion,,,,,,,low,high,,,,,,true,,,,false,254725,254724.59999996424,249476.076,249474.09999996424,249492.789,254743.225,1,16,,
trial,html.Screen,4_3_0,2023-11-15T19:45:11.417Z,,,,0,1.0088376543442317,-0.8023075994977575,,true,lh,13872.974999988073,response,-1.00615481805876,0.9999999999999998,-0.9999999999999998,0.8428903771195875,0.9999999999999998,-0.9999999999999998,low,high,,ISIC_7619234.JPG,,ISIC_0069970.JPG,24,true,lh,keypress(e),100,false,268616.5,268616.1999999881,254726.094,254725.09999996424,254743.225,268643.041,1,16,4,
sequence,flow.Sequence,4_3,2023-11-15T19:45:11.417Z,,,,,,,,,,13872.974999988073,completion,,,,,,,low,high,,,,,,true,,,,false,268616.59999996424,268616.1999999881,254726.094,254725.09999996424,254743.225,268643.041,1,16,,
trial,html.Screen,4_4_0,2023-11-15T19:45:27.628Z,,,,0,1.0215600067367807,0.8053078030017172,,true,ll,16184.858999976132,response,-0.9696118525781644,0.9999999999999998,-0.9999999999999998,-0.9712966348713286,0.9999999999999998,-0.9999999999999998,low,low,,ISIC_0000173.JPG,,ISIC_7927525.JPG,111,true,ll,keypress(f),100,false,284828,284827.89999997616,268626.548,268616.59999996424,268643.041,284859.864,1,16,5,
sequence,flow.Sequence,4_4,2023-11-15T19:45:27.629Z,,,,,,,,,,16184.858999976132,completion,,,,,,,low,low,,,,,,true,,,,false,284828.3000000119,284827.89999997616,268626.548,268616.59999996424,268643.041,284859.864,1,16,,
trial,html.Screen,4_5_0,2023-11-15T19:45:38.418Z,,,,0,1.1227373144244253,1.1886610799377713,,true,ll,10756.735999964236,response,-1.0730492496332733,0.9999999999999998,-0.9999999999999998,-1.0252626598876022,0.9999999999999998,-0.9999999999999998,low,low,,ISIC_0059506.JPG,,ISIC_0007029.JPG,111,true,ll,keypress(f),100,false,295616.8000000119,295616.59999996424,284843.034,284828.3000000119,284859.864,295642.739,1,16,6,
sequence,flow.Sequence,4_5,2023-11-15T19:45:38.418Z,,,,,,,,,,10756.735999964236,completion,,,,,,,low,low,,,,,,true,,,,false,295617,295616.59999996424,284843.034,284828.3000000119,284859.864,295642.739,1,16,,
trial,html.Screen,4_6_0,2023-11-15T19:45:44.326Z,,,,0,1.0103956367534752,0.9950817758087226,,true,ll,5881.360999964236,response,-0.967434313906551,0.9999999999999998,-0.9999999999999998,-0.9078292667476092,0.9999999999999998,-0.9999999999999998,low,low,,ISIC_0025267.JPG,,ISIC_0011668.JPG,111,true,ll,keypress(f),100,false,301524.1999999881,301524.09999996424,295626.532,295617,295642.739,301542.947,1,16,7,
sequence,flow.Sequence,4_6,2023-11-15T19:45:44.326Z,,,,,,,,,,5881.360999964236,completion,,,,,,,low,low,,,,,,true,,,,false,301524.3000000119,301524.09999996424,295626.532,295617,295642.739,301542.947,1,16,,
trial,html.Screen,4_7_0,2023-11-15T19:45:49.161Z,,,,0,0.9850572151440374,1.028720908260899,,true,ll,4816.553000000014,response,-0.9036177845601896,0.9999999999999998,-0.9999999999999998,-1.1504406797855629,0.9999999999999998,-0.9999999999999998,low,low,,ISIC_0068993.JPG,,ISIC_3947876.JPG,111,true,ll,keypress(f),100,false,306359.6999999881,306359.5,301526.059,301524.39999997616,301542.947,306376.518,1,16,8,
sequence,flow.Sequence,4_7,2023-11-15T19:45:49.161Z,,,,,,,,,,4816.553000000014,completion,,,,,,,low,low,,,,,,true,,,,false,306359.89999997616,306359.5,301526.059,301524.39999997616,301542.947,306376.518,1,16,,
trial,html.Screen,4_8_0,2023-11-15T19:46:04.396Z,,,,0,-0.8150886811691144,0.862416038462147,,true,hl,15217.982000000018,response,0.9670240379618178,0.9999999999999998,-0.9999999999999998,-1.1806404773220665,0.9999999999999998,-0.9999999999999998,high,low,,ISIC_0058079.JPG,,ISIC_0002288.JPG,24,true,hl,keypress(j),100,false,321594.59999996424,321594.5,306359.435,306360.09999996424,306376.518,321626.031,1,16,9,
sequence,flow.Sequence,4_8,2023-11-15T19:46:04.396Z,,,,,,,,,,15217.982000000018,completion,,,,,,,high,low,,,,,,true,,,,false,321594.89999997616,321594.5,306359.435,306360.09999996424,306376.518,321626.031,1,16,,
trial,html.Screen,4_9_0,2023-11-15T19:46:10.113Z,,,,0,-0.8152354890677903,1.10470584815077,,true,hl,5685.269000011904,response,1.0700930503975157,0.9999999999999998,-0.9999999999999998,-0.923753102263735,0.9999999999999998,-0.9999999999999998,high,low,,ISIC_0010283.JPG,,ISIC_0000022.JPG,24,true,hl,keypress(j),100,false,327311.39999997616,327311.3000000119,321609.759,321594.89999997616,321626.031,327343.174,1,16,10,
sequence,flow.Sequence,4_9,2023-11-15T19:46:10.113Z,,,,,,,,,,5685.269000011904,completion,,,,,,,high,low,,,,,,true,,,,false,327311.59999996424,327311.3000000119,321609.759,321594.89999997616,321626.031,327343.174,1,16,,
trial,html.Screen,4_10_0,2023-11-15T19:46:23.287Z,,,,0,-0.8069562753553525,0.9101764190105358,,true,hl,13141.925999964238,response,0.8688859182707874,0.9999999999999998,-0.9999999999999998,-0.9566733172438716,0.9999999999999998,-0.9999999999999998,high,low,,ISIC_0046596.JPG,,ISIC_0640770.JPG,24,true,hl,keypress(j),100,false,340485.1999999881,340485.09999996424,327326.51,327311.59999996424,327343.174,340509.363,1,16,11,
sequence,flow.Sequence,4_10,2023-11-15T19:46:23.287Z,,,,,,,,,,13141.925999964238,completion,,,,,,,high,low,,,,,,true,,,,false,340485.3000000119,340485.09999996424,327326.51,327311.59999996424,327343.174,340509.363,1,16,,
trial,html.Screen,4_11_0,2023-11-15T19:46:29.210Z,,,,0,-0.8069690440362255,0.8262727717500657,,true,hl,5898.736999964225,response,1.0822170028935367,0.9999999999999998,-0.9999999999999998,-1.1654796154432183,0.9999999999999998,-0.9999999999999998,high,low,,ISIC_0028469.JPG,,ISIC_7288818.JPG,24,true,hl,keypress(j),100,false,346408.3000000119,346408.09999996424,340493.031,340485.39999997616,340509.363,346426.228,1,16,12,
sequence,flow.Sequence,4_11,2023-11-15T19:46:29.210Z,,,,,,,,,,5898.736999964225,completion,,,,,,,high,low,,,,,,true,,,,false,346408.39999997616,346408.09999996424,340493.031,340485.39999997616,340509.363,346426.228,1,16,,
trial,html.Screen,4_12_0,2023-11-15T19:46:37.422Z,,,,0,-1.1569583426015195,-1.02258614327008,,true,hh,8193.671999976155,response,0.9009408285331614,0.9999999999999998,-0.9999999999999998,0.8985422901220989,0.9999999999999998,-0.9999999999999998,high,high,,ISIC_5705973.JPG,,ISIC_0033834.JPG,154,true,hh,keypress(i),100,false,354620.09999996424,354619.89999997616,346409.364,346408.5,346426.228,354642.878,1,16,13,
sequence,flow.Sequence,4_12,2023-11-15T19:46:37.422Z,,,,,,,,,,8193.671999976155,completion,,,,,,,high,high,,,,,,true,,,,false,354620.3000000119,354619.89999997616,346409.364,346408.5,346426.228,354642.878,1,16,,
trial,html.Screen,4_13_0,2023-11-15T19:46:47.025Z,,,,0,-1.1916474034036555,-0.9241960109301964,,true,hh,9579.821999988053,response,1.0441672988386008,0.9999999999999998,-0.9999999999999998,1.108916716139547,0.9999999999999998,-0.9999999999999998,high,high,,ISIC_0000297.JPG,,ISIC_0063243.JPG,154,true,hh,keypress(i),100,false,364222.8000000119,364222.6999999881,354626.493,354620.3000000119,354642.878,364242.693,1,16,14,
sequence,flow.Sequence,4_13,2023-11-15T19:46:47.025Z,,,,,,,,,,9579.821999988053,completion,,,,,,,high,high,,,,,,true,,,,false,364223,364222.6999999881,354626.493,354620.3000000119,354642.878,364242.693,1,16,,
trial,html.Screen,4_14_0,2023-11-15T19:46:49.749Z,,,,0,-0.8962405503857854,-1.1741471827707293,,true,hh,2704.2069999761297,response,0.8387460443597405,0.9999999999999998,-0.9999999999999998,0.8583167463787408,0.9999999999999998,-0.9999999999999998,high,high,,ISIC_9278685.JPG,,ISIC_0014189.JPG,154,true,hh,keypress(i),100,false,366947.3000000119,366946.89999997616,364226.138,364223.09999996424,364242.693,366976.206,1,16,15,
sequence,flow.Sequence,4_14,2023-11-15T19:46:49.749Z,,,,,,,,,,2704.2069999761297,completion,,,,,,,high,high,,,,,,true,,,,false,366947.39999997616,366946.89999997616,364226.138,364223.09999996424,364242.693,366976.206,1,16,,
trial,html.Screen,4_15_0,2023-11-15T19:46:59.449Z,,,,0,-1.0433307945145347,-0.8328447549795016,,true,hh,9670.493999988073,response,1.0857873435995111,0.9999999999999998,-0.9999999999999998,0.8502716010726371,0.9999999999999998,-0.9999999999999998,high,high,,ISIC_9104843.JPG,,ISIC_2784664.JPG,154,true,hh,keypress(i),100,false,376647,376646.6999999881,366959.826,366947.5,366976.206,376676.473,1,16,16,
sequence,flow.Sequence,4_15,2023-11-15T19:46:59.449Z,,,,,,,,,,9670.493999988073,completion,,,,,,,high,high,,,,,,true,,,,false,376647.09999996424,376646.6999999881,366959.826,366947.5,366976.206,376676.473,1,16,,
demonstration_loop,flow.Loop,4,2023-11-15T19:46:59.449Z,,,,,,,,,,148820.48099998807,completion,,,,,,,,,,,,,,true,,,,false,376647.1999999881,376646.6999999881,227809.524,227810,227826.219,376676.473,1,16,,
practice_instructions,html.Screen,5,2023-11-15T19:47:27.848Z,,,,,,,,,,28363.827000011923,response,,,,,,,,,,,,,,,continue,click button,,,405046.09999996424,405040.3000000119,376659.815,376647.1999999881,376676.473,405059.798,,,,
trial,html.Screen,6_0_0,2023-11-15T19:47:34.781Z,,,,1,-0.8152354890677903,1.10470584815077,,true,hl,6912.401999988069,response,0.9046170303418553,0.9999999999999998,-0.9999999999999998,-1.0063426986460375,0.9999999999999998,-0.9999999999999998,high,low,,ISIC_0010283.JPG,,ISIC_0055759.JPG,24,true,hl,keypress(j),0,false,411977.09999996424,411972.1999999881,405042.661,405046.1999999881,405059.798,411993.114,1,40,1,
sequence,flow.Sequence,6_0,2023-11-15T19:47:34.781Z,,,,,,,,,,6912.401999988069,completion,,,,,,,high,low,,,,,,true,,,,false,411977.3000000119,411972.1999999881,405042.661,405046.09999996424,405059.798,411993.114,1,40,,
trial,html.Screen,6_1_0,2023-11-15T19:47:45.780Z,,,,1,0.9046170303418553,-1.0063426986460375,,,,11016.242000000027,timeout,-1.0143509683988825,0.9999999999999998,-0.9999999999999998,1.0281980567462463,0.9999999999999998,-0.9999999999999998,low,high,,ISIC_0055759.JPG,,ISIC_0062031.JPG,24,true,,,0,false,422976.8000000119,422976.8000000119,411975.975,411977.3000000119,411993.114,423009.356,1,40,2,
sequence,flow.Sequence,6_1,2023-11-15T19:47:45.781Z,,,,,,,,,,10983.68600001192,completion,,,,,,,low,high,,,,,,true,,,,false,422977,422976.8000000119,411975.975,411977.3000000119,411993.114,423009.356,1,40,,
trial,html.Screen,6_2_0,2023-11-15T19:47:49.398Z,,,,1,1.0762260610050776,1.1184338818466155,,true,ll,3585.143999999971,response,-1.1990772227054871,0.9999999999999998,-0.9999999999999998,-1.1224329926844498,0.9999999999999998,-0.9999999999999998,low,low,,ISIC_0058666.JPG,,ISIC_3425388.JPG,111,true,ll,keypress(f),0,false,426594.5,426594.5,422993.106,422977,423009.356,426609.512,1,40,3,
sequence,flow.Sequence,6_2,2023-11-15T19:47:49.398Z,,,,,,,,,,3585.143999999971,completion,,,,,,,low,low,,,,,,true,,,,false,426594.6999999881,426594.5,422993.106,422977,423009.356,426609.512,1,40,,
trial,html.Screen,6_3_0,2023-11-15T19:47:55.174Z,,,,1,1.073353722471336,0.9464043043104888,,true,ll,5761.087999964249,response,-0.8329154010765664,0.9999999999999998,-0.9999999999999998,-1.086658647698992,0.9999999999999998,-0.9999999999999998,low,low,,ISIC_0055293.JPG,,ISIC_7407847.JPG,111,true,ll,keypress(f),0,false,432370.8000000119,432370.59999996424,426592.994,426594.6999999881,426609.512,432375.962,1,40,4,
sequence,flow.Sequence,6_3,2023-11-15T19:47:55.174Z,,,,,,,,,,5761.087999964249,completion,,,,,,,low,low,,,,,,true,,,,false,432370.89999997616,432370.59999996424,426592.994,426594.6999999881,426609.512,432375.962,1,40,,
trial,html.Screen,6_4_0,2023-11-15T19:48:00.485Z,,,,1,-1.1816316134800355,-0.9439295748587228,,true,hh,5305.637999964238,response,0.9286162906661966,0.9999999999999998,-0.9999999999999998,0.8993115431771105,0.9999999999999998,-0.9999999999999998,high,high,,ISIC_8002729.JPG,,ISIC_0011857.JPG,154,true,hh,keypress(i),0,false,437681.6999999881,437681.59999996424,432359.112,432370.89999997616,432375.962,437692.618,1,40,5,
sequence,flow.Sequence,6_4,2023-11-15T19:48:00.485Z,,,,,,,,,,5305.637999964238,completion,,,,,,,high,high,,,,,,true,,,,false,437681.8000000119,437681.59999996424,432359.112,432370.89999997616,432375.962,437692.618,1,40,,
trial,html.Screen,6_5_0,2023-11-15T19:48:10.134Z,,,,1,-1.071052731807262,-0.8412787617064144,,true,hh,9638.081999988062,response,1.0322039773226626,0.9999999999999998,-0.9999999999999998,0.864695074153971,0.9999999999999998,-0.9999999999999998,high,high,,ISIC_4269227.JPG,,ISIC_0013707.JPG,154,true,hh,keypress(i),0,false,447330.6999999881,447330.6999999881,437676.294,437681.89999997616,437692.618,447343.085,1,40,6,
sequence,flow.Sequence,6_5,2023-11-15T19:48:10.134Z,,,,,,,,,,9638.081999988062,completion,,,,,,,high,high,,,,,,true,,,,false,447330.8000000119,447330.6999999881,437676.294,437681.8000000119,437692.618,447343.085,1,40,,
trial,html.Screen,6_6_0,2023-11-15T19:48:14.726Z,,,,1,-0.9445114955578736,1.0054210059625863,,true,hl,4579.414999999979,response,1.1592423187534993,0.9999999999999998,-0.9999999999999998,-1.067128884093211,0.9999999999999998,-0.9999999999999998,high,low,,ISIC_0033807.JPG,,ISIC_6854940.JPG,24,true,hl,keypress(j),0,false,451922.6999999881,451922.5,447326.094,447330.8000000119,447343.085,451925.9,1,40,7,
sequence,flow.Sequence,6_6,2023-11-15T19:48:14.726Z,,,,,,,,,,4579.414999999979,completion,,,,,,,high,low,,,,,,true,,,,false,451922.6999999881,451922.5,447326.094,447330.8000000119,447343.085,451925.9,1,40,,
trial,html.Screen,6_7_0,2023-11-15T19:48:18.598Z,,,,1,-0.9191486333136276,-1.080719641270871,,true,hh,3868.499999976135,response,0.9693644437173125,0.9999999999999998,-0.9999999999999998,1.114502123877908,0.9999999999999998,-0.9999999999999998,high,high,,ISIC_0663941.JPG,,ISIC_0014795.JPG,154,true,hh,keypress(i),0,false,455794.59999996424,455794.39999997616,451909.352,451922.8000000119,451925.9,455809.752,1,40,8,
sequence,flow.Sequence,6_7,2023-11-15T19:48:18.598Z,,,,,,,,,,3868.499999976135,completion,,,,,,,high,high,,,,,,true,,,,false,455794.6999999881,455794.39999997616,451909.352,451922.8000000119,451925.9,455809.752,1,40,,
trial,html.Screen,6_8_0,2023-11-15T19:48:24.246Z,,,,1,0.8561946552009824,-0.9282171889213044,,true,lh,5632.64799997618,response,-0.8070820195894357,0.9999999999999998,-0.9999999999999998,0.8958120092147633,0.9999999999999998,-0.9999999999999998,low,high,,ISIC_3065032.JPG,,ISIC_0060585.JPG,24,true,lh,keypress(e),0,false,461442.5,461442.39999997616,455792.694,455794.6999999881,455809.752,461459.754,1,40,9,
sequence,flow.Sequence,6_8,2023-11-15T19:48:24.246Z,,,,,,,,,,5632.64799997618,completion,,,,,,,low,high,,,,,,true,,,,false,461442.59999996424,461442.39999997616,455792.694,455794.6999999881,455809.752,461459.754,1,40,,
trial,html.Screen,6_9_0,2023-11-15T19:48:30.407Z,,,,1,-1.0003671514840182,0.8992716557663581,,true,hl,6142.645999976143,response,0.8588347582642082,0.9999999999999998,-0.9999999999999998,-0.8899503828496784,0.9999999999999998,-0.9999999999999998,high,low,,ISIC_0061749.JPG,,ISIC_0174983.JPG,24,true,hl,keypress(j),0,false,467602.5,467602.39999997616,461442.905,461442.6999999881,461459.754,467609.391,1,40,10,
sequence,flow.Sequence,6_9,2023-11-15T19:48:30.407Z,,,,,,,,,,6142.645999976143,completion,,,,,,,high,low,,,,,,true,,,,false,467602.5,467602.39999997616,461442.905,461442.59999996424,461459.754,467609.391,1,40,,
trial,html.Screen,6_10_0,2023-11-15T19:48:33.911Z,,,,1,-0.8653812021405652,-0.8152936881018393,,true,hh,3496.808999988076,response,0.8330105500669435,0.9999999999999998,-0.9999999999999998,1.0795444519180726,0.9999999999999998,-0.9999999999999998,high,high,,ISIC_4631711.JPG,,ISIC_0030921.JPG,154,true,hh,keypress(i),0,false,471106.39999997616,471106.1999999881,467592.878,467602.5,467609.391,471109.337,1,40,11,
sequence,flow.Sequence,6_10,2023-11-15T19:48:33.911Z,,,,,,,,,,3496.808999988076,completion,,,,,,,high,high,,,,,,true,,,,false,471106.5,471106.1999999881,467592.878,467602.5,467609.391,471109.337,1,40,,
trial,html.Screen,6_11_0,2023-11-15T19:48:40.071Z,,,,1,-1.09666761087476,-0.9917482735105084,,true,hh,6156.8629999880795,response,0.838609817323933,0.9999999999999998,-0.9999999999999998,0.8422150101593281,0.9999999999999998,-0.9999999999999998,high,high,,ISIC_0071754.JPG,,ISIC_0009913.JPG,154,true,hh,keypress(i),0,false,477266.3000000119,477266.1999999881,471093.022,471106.5,471109.337,477276.122,1,40,12,
sequence,flow.Sequence,6_11,2023-11-15T19:48:40.071Z,,,,,,,,,,6156.8629999880795,completion,,,,,,,high,high,,,,,,true,,,,false,477266.39999997616,477266.1999999881,471093.022,471106.5,471109.337,477276.122,1,40,,
trial,html.Screen,6_12_0,2023-11-15T19:48:43.287Z,,,,1,1.155796217969438,-1.1646564121743912,,true,lh,3206.378000000026,response,-0.8591294258188253,0.9999999999999998,-0.9999999999999998,0.870797302150167,0.9999999999999998,-0.9999999999999998,low,high,,ISIC_2685523.JPG,,ISIC_0055841.JPG,24,true,lh,keypress(e),0,false,480482.59999996424,480482.5,477259.571,477266.5,477276.122,480492.814,1,40,13,
sequence,flow.Sequence,6_12,2023-11-15T19:48:43.287Z,,,,,,,,,,3206.378000000026,completion,,,,,,,low,high,,,,,,true,,,,false,480482.6999999881,480482.5,477259.571,477266.5,477276.122,480492.814,1,40,,
trial,html.Screen,6_13_0,2023-11-15T19:48:47.591Z,,,,1,1.0103956367534752,0.9950817758087226,,false,ll,4293.685999999987,response,-1.0275060871969903,0.9999999999999998,-0.9999999999999998,-0.9101747326852082,0.9999999999999998,-0.9999999999999998,low,low,,ISIC_0025267.JPG,,ISIC_9155028.JPG,111,true,lh,keypress(e),0,false,484786.59999996424,484786.5,480476.328,480482.8000000119,480492.814,484792.773,1,40,14,
sequence,flow.Sequence,6_13,2023-11-15T19:48:47.591Z,,,,,,,,,,4293.685999999987,completion,,,,,,,low,low,,,,,,true,,,,false,484786.6999999881,484786.5,480476.328,480482.8000000119,480492.814,484792.773,1,40,,
trial,html.Screen,6_14_0,2023-11-15T19:48:55.975Z,,,,1,0.9900831889164324,0.9119933515639294,,true,ll,8377.727000000014,response,-1.0275060871969903,0.9999999999999998,-0.9999999999999998,-0.9101747326852082,0.9999999999999998,-0.9999999999999998,low,low,,ISIC_0058033.JPG,,ISIC_9155028.JPG,111,true,ll,keypress(f),0,false,493170.59999996424,493170.5,484775.98,484786.8000000119,484792.773,493175.949,1,40,15,
sequence,flow.Sequence,6_14,2023-11-15T19:48:55.975Z,,,,,,,,,,8377.727000000014,completion,,,,,,,low,low,,,,,,true,,,,false,493170.6999999881,493170.5,484775.98,484786.6999999881,484792.773,493175.949,1,40,,
trial,html.Screen,6_15_0,2023-11-15T19:49:04.615Z,,,,1,0.8561946552009824,-0.9282171889213044,,true,lh,8634.450999976136,response,-0.8069690440362255,0.9999999999999998,-0.9999999999999998,0.8262727717500657,0.9999999999999998,-0.9999999999999998,low,high,,ISIC_3065032.JPG,,ISIC_0028469.JPG,24,true,lh,keypress(e),0,false,501810.5,501810.39999997616,493159.438,493170.8000000119,493175.949,501826.387,1,40,16,
sequence,flow.Sequence,6_15,2023-11-15T19:49:04.615Z,,,,,,,,,,8634.450999976136,completion,,,,,,,low,high,,,,,,true,,,,false,501810.59999996424,501810.39999997616,493159.438,493170.8000000119,493175.949,501826.387,1,40,,
trial,html.Screen,6_16_0,2023-11-15T19:49:08.039Z,,,,1,0.9448560599810628,-0.9099421612683488,,true,lh,3408.113000000012,response,-0.8644465729542988,0.9999999999999998,-0.9999999999999998,0.8679598285079457,0.9999999999999998,-0.9999999999999998,low,high,,ISIC_9684318.JPG,,ISIC_6718969.JPG,24,true,lh,keypress(e),0,false,505234.59999996424,505234.5,501809.439,501810.59999996424,501826.387,505242.711,1,40,17,
sequence,flow.Sequence,6_16,2023-11-15T19:49:08.039Z,,,,,,,,,,3408.113000000012,completion,,,,,,,low,high,,,,,,true,,,,false,505234.6999999881,505234.5,501809.439,501810.59999996424,501826.387,505242.711,1,40,,
trial,html.Screen,6_17_0,2023-11-15T19:49:16.455Z,,,,1,-1.1235224875125256,0.8641223012137988,,true,hl,8407.688999976148,response,1.0088376543442317,0.9999999999999998,-0.9999999999999998,-0.8023075994977575,0.9999999999999998,-0.9999999999999998,high,low,,ISIC_0033901.JPG,,ISIC_7619234.JPG,24,true,hl,keypress(j),0,false,513650.5,513650.39999997616,505225.928,505234.8000000119,505242.711,513659.357,1,40,18,
sequence,flow.Sequence,6_17,2023-11-15T19:49:16.455Z,,,,,,,,,,8407.688999976148,completion,,,,,,,high,low,,,,,,true,,,,false,513650.59999996424,513650.39999997616,505225.928,505234.6999999881,505242.711,513659.357,1,40,,
trial,html.Screen,6_18_0,2023-11-15T19:49:24.182Z,,,,1,-0.8069562753553525,0.9101764190105358,,true,hl,7718.443000011903,response,1.0264463986917702,0.9999999999999998,-0.9999999999999998,-1.171271535505083,0.9999999999999998,-0.9999999999999998,high,low,,ISIC_0046596.JPG,,ISIC_7889838.JPG,24,true,hl,keypress(j),0,false,521377.8000000119,521377.8000000119,513642.755,513650.59999996424,513659.357,521392.857,1,40,19,
sequence,flow.Sequence,6_18,2023-11-15T19:49:24.182Z,,,,,,,,,,7718.443000011903,completion,,,,,,,high,low,,,,,,true,,,,false,521378,521377.8000000119,513642.755,513650.59999996424,513659.357,521392.857,1,40,,
trial,html.Screen,6_19_0,2023-11-15T19:49:29.447Z,,,,1,-0.8997449990565672,-0.9792890899144426,,true,hh,5249.842999988061,response,0.8299064093289698,0.9999999999999998,-0.9999999999999998,0.8788083232111502,0.9999999999999998,-0.9999999999999998,high,high,,ISIC_0469314.JPG,,ISIC_0000398.JPG,154,true,hh,keypress(i),0,false,526642.6999999881,526642.6999999881,521375.679,521378,521392.857,526659.28,1,40,20,
sequence,flow.Sequence,6_19,2023-11-15T19:49:29.447Z,,,,,,,,,,5249.842999988061,completion,,,,,,,high,high,,,,,,true,,,,false,526642.8999999762,526642.6999999881,521375.679,521378,521392.857,526659.28,1,40,,
trial,html.Screen,6_20_0,2023-11-15T19:49:34.743Z,,,,1,1.0053183338862537,1.0383223796934642,,true,ll,5278.719999999972,response,-0.881950258866775,0.9999999999999998,-0.9999999999999998,-1.1045276933275867,0.9999999999999998,-0.9999999999999998,low,low,,ISIC_0000519.JPG,,ISIC_4718237.JPG,111,true,ll,keypress(f),0,false,531938.0999999642,531938,526642.879,526642.8999999762,526659.28,531942.604,1,40,21,
sequence,flow.Sequence,6_20,2023-11-15T19:49:34.744Z,,,,,,,,,,5278.719999999972,completion,,,,,,,low,low,,,,,,true,,,,false,531938.1999999881,531938,526642.879,526642.8999999762,526659.28,531942.604,1,40,,
trial,html.Screen,6_21_0,2023-11-15T19:49:40.216Z,,,,1,0.9566823908868002,-0.9602125665128364,,true,lh,5467.795999976108,response,-0.8070820195894357,0.9999999999999998,-0.9999999999999998,0.8958120092147633,0.9999999999999998,-0.9999999999999998,low,high,,ISIC_0056784.JPG,,ISIC_0060585.JPG,24,true,lh,keypress(e),0,false,537410.5,537410.3999999762,531925.928,531938.1999999881,531942.604,537426.365,1,40,22,
sequence,flow.Sequence,6_21,2023-11-15T19:49:40.216Z,,,,,,,,,,5467.795999976108,completion,,,,,,,low,high,,,,,,true,,,,false,537410.5,537410.3999999762,531925.928,531938.1999999881,531942.604,537426.365,1,40,,
trial,html.Screen,6_22_0,2023-11-15T19:49:46.952Z,,,,1,1.1534088124362896,0.8573197642156768,,true,ll,6720.2349999642465,response,-1.1808334052190257,0.9999999999999998,-0.9999999999999998,-0.8195185178266473,0.9999999999999998,-0.9999999999999998,low,low,,ISIC_8935085.JPG,,ISIC_0033950.JPG,111,true,ll,keypress(f),0,false,544146.6999999881,544146.5999999642,537409.137,537410.5999999642,537426.365,544159.699,1,40,23,
sequence,flow.Sequence,6_22,2023-11-15T19:49:46.952Z,,,,,,,,,,6720.2349999642465,completion,,,,,,,low,low,,,,,,true,,,,false,544146.8000000119,544146.5999999642,537409.137,537410.5999999642,537426.365,544159.699,1,40,,
trial,html.Screen,6_23_0,2023-11-15T19:49:57.464Z,,,,1,-1.0998890116382043,-0.8184581417483975,,true,hh,10498.800999999978,response,0.9453986743399044,0.9999999999999998,-0.9999999999999998,1.1220583709928147,0.9999999999999998,-0.9999999999999998,high,high,,ISIC_0002118.JPG,,ISIC_0068696.JPG,154,true,hh,keypress(i),0,false,554658.5999999642,554658.5,544142.801,544146.8000000119,544159.699,554692.849,1,40,24,
sequence,flow.Sequence,6_23,2023-11-15T19:49:57.464Z,,,,,,,,,,10498.800999999978,completion,,,,,,,high,high,,,,,,true,,,,false,554658.8000000119,554658.5,544142.801,544146.8000000119,544159.699,554692.849,1,40,,
trial,html.Screen,6_24_0,2023-11-15T19:50:07.880Z,,,,1,-0.8779374983479176,0.9745548032823428,,true,hl,10381.451000011875,response,0.8588347582642082,0.9999999999999998,-0.9999999999999998,-0.8899503828496784,0.9999999999999998,-0.9999999999999998,high,low,,ISIC_2991354.JPG,,ISIC_0174983.JPG,24,true,hl,keypress(j),0,false,565074.5,565074.3000000119,554676.072,554658.8999999762,554692.849,565093.109,1,40,25,
sequence,flow.Sequence,6_24,2023-11-15T19:50:07.880Z,,,,,,,,,,10381.451000011875,completion,,,,,,,high,low,,,,,,true,,,,false,565074.5999999642,565074.3000000119,554676.072,554658.8999999762,554692.849,565093.109,1,40,,
trial,html.Screen,6_25_0,2023-11-15T19:50:13.080Z,,,,1,1.033120591224746,0.9169816067930722,,true,ll,5180.990999964182,response,-1.0581281450494728,0.9999999999999998,-0.9999999999999998,-1.133169116569424,0.9999999999999998,-0.9999999999999998,low,low,,ISIC_0033027.JPG,,ISIC_5490352.JPG,111,true,ll,keypress(f),0,false,570274.0999999642,570274.0999999642,565059.097,565074.6999999881,565093.109,570275.878,1,40,26,
sequence,flow.Sequence,6_25,2023-11-15T19:50:13.080Z,,,,,,,,,,5180.990999964182,completion,,,,,,,low,low,,,,,,true,,,,false,570274.3000000119,570274.0999999642,565059.097,565074.6999999881,565093.109,570275.878,1,40,,
trial,html.Screen,6_26_0,2023-11-15T19:50:18.199Z,,,,1,0.8620516892494489,-1.1108509340502866,,true,lh,5118.021999976132,response,-0.8779374983479176,0.9999999999999998,-0.9999999999999998,0.9745548032823428,0.9999999999999998,-0.9999999999999998,low,high,,ISIC_5557806.JPG,,ISIC_2991354.JPG,24,true,lh,keypress(e),0,false,575394,575393.8999999762,570259.539,570274.3999999762,570275.878,575409.681,1,40,27,
sequence,flow.Sequence,6_26,2023-11-15T19:50:18.200Z,,,,,,,,,,5118.021999976132,completion,,,,,,,low,high,,,,,,true,,,,false,575394.0999999642,575393.8999999762,570259.539,570274.3999999762,570275.878,575409.681,1,40,,
trial,html.Screen,6_27_0,2023-11-15T19:50:24.968Z,,,,1,0.905313139676194,0.9966583050703528,,true,ll,6752.819000000018,response,-1.011737552725394,0.9999999999999998,-0.9999999999999998,-1.0893360711742854,0.9999999999999998,-0.9999999999999998,low,low,,ISIC_0070342.JPG,,ISIC_2998367.JPG,111,true,ll,keypress(f),0,false,582162.5999999642,582162.5,575392.883,575394.1999999881,575409.681,582176.123,1,40,28,
sequence,flow.Sequence,6_27,2023-11-15T19:50:24.968Z,,,,,,,,,,6752.819000000018,completion,,,,,,,low,low,,,,,,true,,,,false,582162.6999999881,582162.5,575392.883,575394.1999999881,575409.681,582176.123,1,40,,
trial,html.Screen,6_28_0,2023-11-15T19:50:32.040Z,,,,1,-1.0437497612294713,-0.93059645456522,,true,hh,7057.576999988058,response,0.8984767404401109,0.9999999999999998,-0.9999999999999998,1.0289479104867394,0.9999999999999998,-0.9999999999999998,high,high,,ISIC_0032357.JPG,,ISIC_0011458.JPG,154,true,hh,keypress(i),0,false,589233.8000000119,589233.6999999881,582159.477,582162.8000000119,582176.123,589242.582,1,40,29,
sequence,flow.Sequence,6_28,2023-11-15T19:50:32.040Z,,,,,,,,,,7057.576999988058,completion,,,,,,,high,high,,,,,,true,,,,false,589234,589233.6999999881,582159.477,582162.6999999881,582176.123,589242.582,1,40,,
trial,html.Screen,6_29_0,2023-11-15T19:50:41.977Z,,,,1,-0.8997449990565672,-0.9792890899144426,,true,hh,9927.718000011868,response,0.9106525024234248,0.9999999999999998,-0.9999999999999998,1.0361692964751965,0.9999999999999998,-0.9999999999999998,high,high,,ISIC_0469314.JPG,,ISIC_0058676.JPG,154,true,hh,keypress(i),0,false,599170.3999999762,599170.3000000119,589226.101,589234.0999999642,589242.582,599175.837,1,40,30,
sequence,flow.Sequence,6_29,2023-11-15T19:50:41.977Z,,,,,,,,,,9927.718000011868,completion,,,,,,,high,high,,,,,,true,,,,false,599170.3999999762,599170.3000000119,589226.101,589234.0999999642,589242.582,599175.837,1,40,,
trial,html.Screen,6_30_0,2023-11-15T19:50:48.649Z,,,,1,-0.9512444996401545,-0.9046053086219094,,true,hh,6666.662999999942,response,0.8145925452767395,0.9999999999999998,-0.9999999999999998,0.9895687497294692,0.9999999999999998,-0.9999999999999998,high,high,,ISIC_0059170.JPG,,ISIC_0027751.JPG,154,true,hh,keypress(i),0,false,605842.5999999642,605842.5,599159.317,599170.5999999642,599175.837,605859.66,1,40,31,
sequence,flow.Sequence,6_30,2023-11-15T19:50:48.649Z,,,,,,,,,,6666.662999999942,completion,,,,,,,high,high,,,,,,true,,,,false,605842.6999999881,605842.5,599159.317,599170.5,599175.837,605859.66,1,40,,
trial,html.Screen,6_31_0,2023-11-15T19:50:59.385Z,,,,1,0.8125930874051923,0.9001696721297474,,true,ll,10718.640000011888,response,-1.1655508270784471,0.9999999999999998,-0.9999999999999998,-1.1162776063248168,0.9999999999999998,-0.9999999999999998,low,low,,ISIC_0072748.JPG,,ISIC_5509946.JPG,111,true,ll,keypress(f),0,false,616578.3000000119,616578.3000000119,605842.78,605842.6999999881,605859.66,616592.728,1,40,32,
sequence,flow.Sequence,6_31,2023-11-15T19:50:59.385Z,,,,,,,,,,10718.640000011888,completion,,,,,,,low,low,,,,,,true,,,,false,616578.3999999762,616578.3000000119,605842.78,605842.6999999881,605859.66,616592.728,1,40,,
trial,html.Screen,6_32_0,2023-11-15T19:51:05.465Z,,,,1,0.9873794329144926,-0.9500689037516484,,true,lh,6065.671999976155,response,-1.1501717278509027,0.9999999999999998,-0.9999999999999998,0.8228936373136835,0.9999999999999998,-0.9999999999999998,low,high,,ISIC_0013498.JPG,,ISIC_8398000.JPG,24,true,lh,keypress(e),0,false,622658.5,622658.3999999762,616575.903,616578.5,616592.728,622677.115,1,40,33,
sequence,flow.Sequence,6_32,2023-11-15T19:51:05.465Z,,,,,,,,,,6065.671999976155,completion,,,,,,,low,high,,,,,,true,,,,false,622658.5999999642,622658.3999999762,616575.903,616578.5,616592.728,622677.115,1,40,,
trial,html.Screen,6_33_0,2023-11-15T19:51:12.089Z,,,,1,-1.00615481805876,0.8428903771195875,,true,hl,6605.2849999761675,response,0.9873794329144926,0.9999999999999998,-0.9999999999999998,-0.9500689037516484,0.9999999999999998,-0.9999999999999998,high,low,,ISIC_0069970.JPG,,ISIC_0013498.JPG,24,true,hl,keypress(j),0,false,629282.5999999642,629282.3999999762,622642.586,622658.6999999881,622677.115,629292.59,1,40,34,
sequence,flow.Sequence,6_33,2023-11-15T19:51:12.089Z,,,,,,,,,,6605.2849999761675,completion,,,,,,,high,low,,,,,,true,,,,false,629282.5999999642,629282.3999999762,622642.586,622658.6999999881,622677.115,629292.59,1,40,,
trial,html.Screen,6_34_0,2023-11-15T19:51:21.449Z,,,,1,0.9566823908868002,-0.9602125665128364,,true,lh,9349.710000011954,response,-1.0143509683988825,0.9999999999999998,-0.9999999999999998,1.0281980567462463,0.9999999999999998,-0.9999999999999998,low,high,,ISIC_0056784.JPG,,ISIC_0062031.JPG,24,true,lh,keypress(e),0,false,638642.3999999762,638642.3000000119,629276.15,629282.6999999881,629292.59,638659.398,1,40,35,
sequence,flow.Sequence,6_34,2023-11-15T19:51:21.449Z,,,,,,,,,,9349.710000011954,completion,,,,,,,low,high,,,,,,true,,,,false,638642.5999999642,638642.3000000119,629276.15,629282.6999999881,629292.59,638659.398,1,40,,
trial,html.Screen,6_35_0,2023-11-15T19:51:29.113Z,,,,1,-0.8479396253253069,1.011054319516718,,true,hl,7647.001999976113,response,0.8407642478899736,0.9999999999999998,-0.9999999999999998,-0.9542322753334054,0.9999999999999998,-0.9999999999999998,high,low,,ISIC_0063521.JPG,,ISIC_9090822.JPG,24,true,hl,keypress(j),0,false,646306.5,646306.3999999762,638642.638,638642.5999999642,638659.398,646309.127,1,40,36,
sequence,flow.Sequence,6_35,2023-11-15T19:51:29.113Z,,,,,,,,,,7647.001999976113,completion,,,,,,,high,low,,,,,,true,,,,false,646306.5999999642,646306.3999999762,638642.638,638642.5999999642,638659.398,646309.127,1,40,,
trial,html.Screen,6_36_0,2023-11-15T19:51:33.242Z,,,,1,0.8561946552009824,-0.9282171889213044,,true,lh,4125.173000011942,response,-0.9013888878932071,0.9999999999999998,-0.9999999999999998,0.9328095253308732,0.9999999999999998,-0.9999999999999998,low,high,,ISIC_3065032.JPG,,ISIC_0068259.JPG,24,true,lh,keypress(e),0,false,650434.3999999762,650434.3000000119,646292.445,646306.5999999642,646309.127,650442.529,1,40,37,
sequence,flow.Sequence,6_36,2023-11-15T19:51:33.242Z,,,,,,,,,,4125.173000011942,completion,,,,,,,low,high,,,,,,true,,,,false,650434.5999999642,650434.3000000119,646292.445,646306.5999999642,646309.127,650442.529,1,40,,
trial,html.Screen,6_37_0,2023-11-15T19:51:44.235Z,,,,1,-0.8923602890201078,0.8351700666074688,,,,11016.65399999998,timeout,1.1547137855907486,0.9999999999999998,-0.9999999999999998,-1.0185275168641534,0.9999999999999998,-0.9999999999999998,high,low,,ISIC_0033103.JPG,,ISIC_7604870.JPG,24,true,,,0,false,661428.0999999642,661428,650425.781,650434.5999999642,650442.529,661459.183,1,40,38,
sequence,flow.Sequence,6_37,2023-11-15T19:51:44.235Z,,,,,,,,,,10985.47100000002,completion,,,,,,,high,low,,,,,,true,,,,false,661428.1999999881,661428,650425.781,650434.5999999642,650442.529,661459.183,1,40,,
trial,html.Screen,6_38_0,2023-11-15T19:51:51.242Z,,,,1,0.813074172485943,0.8600171690954921,,true,ll,6975.016999988118,response,-1.1581797104086708,0.9999999999999998,-0.9999999999999998,-0.8335188945351617,0.9999999999999998,-0.9999999999999998,low,low,,ISIC_0068239.JPG,,ISIC_4168757.JPG,111,true,ll,keypress(f),0,false,668434.3000000119,668434.1999999881,661442.959,661428.3000000119,661459.183,668442.676,1,40,39,
sequence,flow.Sequence,6_38,2023-11-15T19:51:51.242Z,,,,,,,,,,6975.016999988118,completion,,,,,,,low,low,,,,,,true,,,,false,668434.3999999762,668434.1999999881,661442.959,661428.1999999881,661459.183,668442.676,1,40,,
trial,html.Screen,6_39_0,2023-11-15T19:51:58.985Z,,,,1,-0.8069562753553525,0.9101764190105358,,true,hl,7735.2239999761805,response,1.127346631538643,0.9999999999999998,-0.9999999999999998,-0.8080854255453543,0.9999999999999998,-0.9999999999999998,high,low,,ISIC_0046596.JPG,,ISIC_0011045.JPG,24,true,hl,keypress(j),0,false,676178.0999999642,676177.8999999762,668426.096,668434.5,668442.676,676192.947,1,40,40,
sequence,flow.Sequence,6_39,2023-11-15T19:51:58.985Z,,,,,,,,,,7735.2239999761805,completion,,,,,,,high,low,,,,,,true,,,,false,676178.0999999642,676177.8999999762,668426.096,668434.5,668442.676,676192.947,1,40,,
practice_loop,flow.Loop,6,2023-11-15T19:51:58.985Z,,,,,,,,,,271118.10199997615,completion,,,,,,,,,,,,,,true,,,,false,676178.1999999881,676177.8999999762,405042.661,405046.09999996424,405059.798,676192.947,1,40,,
stair_instructions,html.Screen,7,2023-11-15T19:52:34.848Z,,,,,,,,,,35847.052999999956,response,,,,,,,,,,,,,,,continue,click button,,,712040.5999999642,712040,676175.527,676178.1999999881,676192.947,712042.456,,,,
trial,html.Screen,8_0_0,2023-11-15T19:52:37.578Z,,,,2,-0.0361875505619981,0.0291457404567876,,false,ll,2727.7439999880735,response,-1.1808334052190257,0.9999999999999998,-0.9999999999999998,-0.8195185178266473,0.9999999999999998,-0.9999999999999998,low,low,,ISIC_0027480.JPG,,ISIC_0033950.JPG,111,false,lh,keypress(e),0,true,714770.3000000119,714770.1999999881,712025.816,712040.6999999881,712042.456,714792.929,1,40,1,
sequence,flow.Sequence,8_0,2023-11-15T19:52:37.578Z,,,,,,,,,,2727.7439999880735,completion,,,,,,,low,low,,,,,,false,,,,true,714770.3999999762,714770.1999999881,712025.816,712040.6999999881,712042.456,714792.929,1,40,,
trial,html.Screen,8_1_0,2023-11-15T19:52:44.538Z,,,,2,0.0023664502831079,0.0252784582169994,,false,hh,6937.371000011917,response,1.008094916937765,0.9999999999999998,-0.9999999999999998,0.8318935997015064,0.9999999999999998,-1.0499999999999998,high,high,,ISIC_4156010.JPG,,ISIC_0032751.JPG,154,false,ll,keypress(f),0,true,721730.3999999762,721730.3000000119,714776.259,714770.3999999762,714792.929,721742.917,1,40,2,
sequence,flow.Sequence,8_1,2023-11-15T19:52:44.538Z,,,,,,,,,,6937.371000011917,completion,,,,,,,high,high,,,,,,false,,,,true,721730.5,721730.3000000119,714776.259,714770.3999999762,714792.929,721742.917,1,40,,
trial,html.Screen,8_2_0,2023-11-15T19:52:51.867Z,,,,2,-0.0646883165340005,-0.0250974824557198,,true,ll,7316.682999964221,response,-0.9191486333136276,1.0499999999999998,-0.9999999999999998,-1.080719641270871,1.0499999999999998,-1.0499999999999998,low,low,,ISIC_0069515.JPG,,ISIC_0663941.JPG,100,false,ll,keypress(f),0,true,729059.6999999881,729059.5999999642,721726.027,721730.5999999642,721742.917,729075.815,1,40,3,
sequence,flow.Sequence,8_2,2023-11-15T19:52:51.868Z,,,,,,,,,,7316.682999964221,completion,,,,,,,low,low,,,,,,false,,,,true,729059.8000000119,729059.5999999642,721726.027,721730.5999999642,721742.917,729075.815,1,40,,
trial,html.Screen,8_3_0,2023-11-15T19:52:54.442Z,,,,2,-0.0488365673064833,0.0229344142397166,,true,lh,2558.485000011977,response,-0.9445114955578736,1.0499999999999998,-0.9499341372922493,1.0054210059625863,1.0499999999999998,-1.0499999999999998,low,high,,ISIC_0056915.JPG,,ISIC_0033807.JPG,24,false,lh,keypress(e),0,true,731634.3000000119,731634.3000000119,729059.355,729059.8000000119,729075.815,731642.921,1,40,4,
sequence,flow.Sequence,8_3,2023-11-15T19:52:54.442Z,,,,,,,,,,2558.485000011977,completion,,,,,,,low,high,,,,,,false,,,,true,731634.5,731634.3000000119,729059.355,729059.8000000119,729075.815,731642.921,1,40,,
trial,html.Screen,8_4_0,2023-11-15T19:53:03.674Z,,,,2,-0.0686816131231518,0.0045217849100701,,false,lh,9223.278999988106,response,-0.849847885203758,1.0499999999999998,-0.9499341372922493,0.973447384095442,1.0499999999999998,-1.0499999999999998,low,high,,ISIC_5707761.JPG,,ISIC_9612228.JPG,24,false,ll,keypress(f),0,true,740866.3000000119,740866.1999999881,731625.783,731634.5,731642.921,740875.889,1,40,5,
sequence,flow.Sequence,8_4,2023-11-15T19:53:03.674Z,,,,,,,,,,9223.278999988106,completion,,,,,,,low,high,,,,,,false,,,,true,740866.3000000119,740866.1999999881,731625.783,731634.5,731642.921,740875.889,1,40,,
trial,html.Screen,8_5_0,2023-11-15T19:53:11.259Z,,,,2,-0.0277178575053843,-0.0645068093068572,,false,lh,7574.710999964271,response,-0.6758442879554611,0.9999999999999998,-0.8499341372922492,0.9300496491364064,1.0499999999999998,-0.9999999999999998,low,high,,ISIC_0010807.JPG,,ISIC_0073119.JPG,33,false,ll,keypress(f),0,true,748450.8000000119,748450.5999999642,740858.996,740866.5,740875.889,748459.3,1,40,6,
sequence,flow.Sequence,8_5,2023-11-15T19:53:11.259Z,,,,,,,,,,7574.710999964271,completion,,,,,,,low,high,,,,,,false,,,,true,748450.8999999762,748450.5999999642,740858.996,740866.5,740875.889,748459.3,1,40,,
trial,html.Screen,8_6_0,2023-11-15T19:53:16.122Z,,,,2,0.0060934073440827,0.0279108145883031,,false,hl,4855.299999964191,response,0.9046170303418553,0.9999999999999998,-0.8499341372922492,-1.0063426986460375,1.0999999999999999,-0.9999999999999998,high,low,,ISIC_0032604.JPG,,ISIC_0055759.JPG,24,false,lh,keypress(e),0,true,753314.6999999881,753314.5999999642,748442.375,748450.8999999762,748459.3,753326.247,1,40,7,
sequence,flow.Sequence,8_6,2023-11-15T19:53:16.123Z,,,,,,,,,,4855.299999964191,completion,,,,,,,high,low,,,,,,false,,,,true,753314.8000000119,753314.5999999642,748442.375,748450.8999999762,748459.3,753326.247,1,40,,
trial,html.Screen,8_7_0,2023-11-15T19:53:24.762Z,,,,2,-0.019361072276763,-0.0523902345755568,,true,hl,8627.852999964263,response,0.9046170303418553,1.0499999999999998,-0.8499341372922492,-1.0063426986460375,1.0999999999999999,-1.0499999999999998,high,low,,ISIC_4066726.JPG,,ISIC_0055759.JPG,21,false,hl,keypress(j),0,true,761954.1999999881,761954.0999999642,753309.421,753314.8000000119,753326.247,761959.061,1,40,8,
sequence,flow.Sequence,8_7,2023-11-15T19:53:24.762Z,,,,,,,,,,8627.852999964263,completion,,,,,,,high,low,,,,,,false,,,,true,761954.3000000119,761954.0999999642,753309.421,753314.8000000119,753326.247,761959.061,1,40,,
trial,html.Screen,8_8_0,2023-11-15T19:53:35.752Z,,,,2,0.0742149355137113,0.0423516069066019,,,,11016.706000000006,timeout,1.02958055269592,1.0499999999999998,-0.8499341372922492,1.159278377691306,1.0999999999999999,-1.0499999999999998,high,high,,ISIC_0011483.JPG,,ISIC_0027190.JPG,124,false,,,0,true,772943.3000000119,772943.1999999881,761942.366,761954.3999999762,761959.061,772975.767,1,40,9,
sequence,flow.Sequence,8_8,2023-11-15T19:53:35.752Z,,,,,,,,,,10984.138999988092,completion,,,,,,,high,high,,,,,,false,,,,true,772943.3000000119,772943.1999999881,761942.366,761954.3999999762,761959.061,772975.767,1,40,,
trial,html.Screen,8_9_0,2023-11-15T19:53:39.483Z,,,,2,0.0534676262527691,0.0384996820289673,,true,hl,3698.5330000119284,response,1.1547137855907486,1.0499999999999998,-0.8499341372922492,-1.0185275168641534,1.0999999999999999,-1.0499999999999998,high,low,,ISIC_0030484.JPG,,ISIC_7604870.JPG,21,false,hl,keypress(j),0,true,776674.3999999762,776674.3000000119,772959.558,772943.3999999762,772975.767,776693.756,1,40,10,
sequence,flow.Sequence,8_9,2023-11-15T19:53:39.483Z,,,,,,,,,,3698.5330000119284,completion,,,,,,,high,low,,,,,,false,,,,true,776674.5,776674.3000000119,772959.558,772943.3999999762,772975.767,776693.756,1,40,,
trial,html.Screen,8_10_0,2023-11-15T19:53:44.155Z,,,,2,0.0534676262527691,0.0384996820289673,,true,hl,4652.343999964185,response,0.8087127179888679,0.9999999999999998,-0.8499341372922492,-0.8480635840272462,1.0999999999999999,-0.9624351077550954,high,low,,ISIC_0030484.JPG,,ISIC_3941147.JPG,28,false,hl,keypress(j),0,true,781346.0999999642,781346.0999999642,776659.141,776674.5,776693.756,781359.551,1,40,11,
sequence,flow.Sequence,8_10,2023-11-15T19:53:44.155Z,,,,,,,,,,4652.343999964185,completion,,,,,,,high,low,,,,,,false,,,,true,781346.3000000119,781346.0999999642,776659.141,776674.5,776693.756,781359.551,1,40,,
trial,html.Screen,8_11_0,2023-11-15T19:53:48.715Z,,,,2,0.0555511886677117,0.0134118039833958,,false,hl,4546.8489999761805,response,1.0700930503975157,0.9999999999999998,-0.8499341372922492,-0.923753102263735,1.0999999999999999,-0.9624351077550954,high,low,,ISIC_2228511.JPG,,ISIC_0000022.JPG,28,false,lh,keypress(e),0,true,785906.5,785906.3999999762,781342.601,781346.3000000119,781359.551,785909.103,1,40,12,
sequence,flow.Sequence,8_11,2023-11-15T19:53:48.716Z,,,,,,,,,,4546.8489999761805,completion,,,,,,,high,low,,,,,,false,,,,true,785906.5999999642,785906.3999999762,781342.601,781346.3000000119,781359.551,785909.103,1,40,,
trial,html.Screen,8_12_0,2023-11-15T19:53:54.411Z,,,,2,0.0420795830016583,-0.0226772711905177,,false,ll,5692.396999999997,response,-0.7667679012436769,1.0499999999999998,-0.8499341372922492,-0.8929810409888325,1.0999999999999999,-1.0124351077550955,low,low,,ISIC_0638857.JPG,,ISIC_0028976.JPG,143,false,lh,keypress(e),0,true,791601.5999999642,791601.5,785892.752,785906.5999999642,785909.103,791609.235,1,40,13,
sequence,flow.Sequence,8_12,2023-11-15T19:53:54.411Z,,,,,,,,,,5692.396999999997,completion,,,,,,,low,low,,,,,,false,,,,true,791601.6999999881,791601.5,785892.752,785906.5999999642,785909.103,791609.235,1,40,,
trial,html.Screen,8_13_0,2023-11-15T19:54:00.027Z,,,,2,0.0158987717472563,0.0292472192292015,,true,lh,5608.265000000014,response,-0.5736665472939146,1.0499999999999998,-0.7574157426354615,1.2048414268859475,1.0999999999999999,-1.0624351077550955,low,high,,ISIC_1366765.JPG,,ISIC_0058730.JPG,39,false,lh,keypress(e),0,true,797217.5,797217.5,791592.715,791601.8000000119,791609.235,797225.943,1,40,14,
sequence,flow.Sequence,8_13,2023-11-15T19:54:00.027Z,,,,,,,,,,5608.265000000014,completion,,,,,,,low,high,,,,,,false,,,,true,797217.6999999881,797217.5,791592.715,791601.8000000119,791609.235,797225.943,1,40,,
trial,html.Screen,8_14_0,2023-11-15T19:54:07.931Z,,,,2,0.0555511886677117,0.0134118039833958,,true,ll,7896.357000011951,response,-0.7109187087110639,1.0499999999999998,-0.7574157426354615,-1.15510728369746,1.0999999999999999,-1.0624351077550955,low,low,,ISIC_2228511.JPG,,ISIC_3328295.JPG,137,false,ll,keypress(f),0,true,805122.3999999762,805122.3000000119,797209.173,797217.6999999881,797225.943,805125.745,1,40,15,
sequence,flow.Sequence,8_14,2023-11-15T19:54:07.931Z,,,,,,,,,,7896.357000011951,completion,,,,,,,low,low,,,,,,false,,,,true,805122.5,805122.3000000119,797209.173,797217.6999999881,797225.943,805125.745,1,40,,
trial,html.Screen,8_15_0,2023-11-15T19:54:17.563Z,,,,2,-0.004212480280886,-0.0518491070608022,,true,hh,9628.654999976163,response,0.8888187899385174,1.0499999999999998,-0.8830129962042619,1.2022111230186514,1.0999999999999999,-1.0624351077550955,high,high,,ISIC_2945324.JPG,,ISIC_0070285.JPG,124,false,hh,keypress(i),0,true,814754.3999999762,814754.3999999762,805109.278,805122.5,805125.745,814759.057,1,40,16,
sequence,flow.Sequence,8_15,2023-11-15T19:54:17.564Z,,,,,,,,,,9628.654999976163,completion,,,,,,,high,high,,,,,,false,,,,true,814754.5999999642,814754.3999999762,805109.278,805122.5,805125.745,814759.057,1,40,,
trial,html.Screen,8_16_0,2023-11-15T19:54:23.147Z,,,,2,-0.0597592587797575,,,false,lh,5578.642999988049,response,-0.9087169856594104,1.0499999999999998,-0.8830129962042619,0.8835647084207277,0.9955149564785843,-1.0624351077550955,low,high,,ISIC_0071367.JPG,,ISIC_0000349.JPG,36,false,hl,keypress(j),0,true,820337.8000000119,820337.6999999881,814742.507,814754.5999999642,814759.057,820342.405,1,40,17,
sequence,flow.Sequence,8_16,2023-11-15T19:54:23.147Z,,,,,,,,,,5578.642999988049,completion,,,,,,,low,high,,,,,,false,,,,true,820338,820337.6999999881,814742.507,814754.5999999642,814759.057,820342.405,1,40,,
trial,html.Screen,8_17_0,2023-11-15T19:54:34.136Z,,,,2,-0.0372699196710335,0.0646614895271859,,,,11016.685999999987,timeout,-0.849847885203758,1.0499999999999998,-0.9330129962042619,0.973447384095442,1.0455149564785844,-1.0624351077550955,low,high,,ISIC_1175170.JPG,,ISIC_9612228.JPG,24,false,,,0,true,831326.6999999881,831326.5,820325.542,820338,820342.405,831359.091,1,40,18,
sequence,flow.Sequence,8_17,2023-11-15T19:54:34.136Z,,,,,,,,,,10984.094999999972,completion,,,,,,,low,high,,,,,,false,,,,true,831326.6999999881,831326.5,820325.542,820338,820342.405,831359.091,1,40,,
trial,html.Screen,8_18_0,2023-11-15T19:54:37.147Z,,,,2,-0.0127364719403411,-0.0549103570808099,,true,lh,2978.108999988064,response,-0.7622914383475332,1.0499999999999998,-0.9330129962042619,0.8883896910883083,1.0455149564785844,-1.0624351077550955,low,high,,ISIC_0054705.JPG,,ISIC_0032005.JPG,24,false,lh,keypress(e),0,true,834337.3000000119,834337.1999999881,831342.851,831326.6999999881,831359.091,834342.375,1,40,19,
sequence,flow.Sequence,8_18,2023-11-15T19:54:37.147Z,,,,,,,,,,2978.108999988064,completion,,,,,,,low,high,,,,,,false,,,,true,834337.3999999762,834337.1999999881,831342.851,831326.6999999881,831359.091,834342.375,1,40,,
trial,html.Screen,8_19_0,2023-11-15T19:54:43.900Z,,,,2,-0.0051046740562181,0.0178832721027728,,true,lh,6747.925000011921,response,-0.7622914383475332,1.0499999999999998,-0.9330129962042619,0.8883896910883083,1.0455149564785844,-1.0624351077550955,low,high,,ISIC_9545819.JPG,,ISIC_0032005.JPG,24,false,lh,keypress(e),0,true,841090.3999999762,841090.3000000119,834325.709,834337.5,834342.375,841092.373,1,40,20,
sequence,flow.Sequence,8_19,2023-11-15T19:54:43.900Z,,,,,,,,,,6747.925000011921,completion,,,,,,,low,high,,,,,,false,,,,true,841090.5,841090.3000000119,834325.709,834337.5,834342.375,841092.373,1,40,,
trial,html.Screen,8_20_0,2023-11-15T19:54:46.252Z,,,,2,0.0700745968706567,0.013891147856594,,true,lh,2349.8269999880577,response,-0.7401156491866404,1.0499999999999998,-0.8830129962042619,0.8169638598102704,0.8383896910883083,-1.0624351077550955,low,high,,ISIC_0054663.JPG,,ISIC_0072429.JPG,56,false,lh,keypress(e),0,true,843442.3000000119,843442.1999999881,841075.979,841090.5,841092.373,843475.955,1,40,21,
sequence,flow.Sequence,8_20,2023-11-15T19:54:46.252Z,,,,,,,,,,2349.8269999880577,completion,,,,,,,low,high,,,,,,false,,,,true,843442.3999999762,843442.1999999881,841075.979,841090.5,841092.373,843475.955,1,40,,
trial,html.Screen,8_21_0,2023-11-15T19:54:53.324Z,,,,2,0.0496743860812164,0.0010487105450318,,false,hl,7038.4449999762,response,0.9566823908868002,1.0499999999999998,-0.8830129962042619,-0.9602125665128364,0.8383896910883083,-1.0624351077550955,high,low,,ISIC_9312264.JPG,,ISIC_0056784.JPG,21,false,ll,keypress(f),0,true,850514.5,850514.3999999762,843459.496,843442.3999999762,843475.955,850525.724,1,40,22,
sequence,flow.Sequence,8_21,2023-11-15T19:54:53.324Z,,,,,,,,,,7038.4449999762,completion,,,,,,,high,low,,,,,,false,,,,true,850514.5,850514.3999999762,843459.496,843442.3999999762,843475.955,850525.724,1,40,,
trial,html.Screen,8_22_0,2023-11-15T19:54:55.756Z,,,,2,0.0458738008498492,0.0084690422621415,,true,lh,2419.9759999880334,response,-0.9087169856594104,1.0999999999999999,-0.8830129962042619,0.8835647084207277,0.8383896910883083,-1.0124351077550955,low,high,,ISIC_4026019.JPG,,ISIC_0000349.JPG,56,false,lh,keypress(e),0,true,852945.8000000119,852945.6999999881,850508.815,850514.5999999642,850525.724,852959.348,1,40,23,
sequence,flow.Sequence,8_22,2023-11-15T19:54:55.756Z,,,,,,,,,,2419.9759999880334,completion,,,,,,,low,high,,,,,,false,,,,true,852946,852945.6999999881,850508.815,850514.5999999642,850525.724,852959.348,1,40,,
trial,html.Screen,8_23_0,2023-11-15T19:55:01.820Z,,,,2,0.0742149355137113,0.0423516069066019,,true,ll,6050.751999964239,response,-1.011737552725394,1.0999999999999999,-0.8330129962042618,-1.0893360711742854,0.800264284115499,-1.0124351077550955,low,low,,ISIC_0011483.JPG,,ISIC_2998367.JPG,147,false,ll,keypress(f),0,true,859010.1999999881,859010.0999999642,852942.465,852946,852959.348,859026.166,1,40,24,
sequence,flow.Sequence,8_23,2023-11-15T19:55:01.820Z,,,,,,,,,,6050.751999964239,completion,,,,,,,low,low,,,,,,false,,,,true,859010.3000000119,859010.0999999642,852942.465,852946,852959.348,859026.166,1,40,,
trial,html.Screen,8_24_0,2023-11-15T19:55:05.660Z,,,,2,0.0350697500805515,0.0166617848231997,,true,hl,3823.933999964269,response,1.082730232773217,1.0499999999999998,-0.7830129962042618,-0.8833175387485132,0.750264284115499,-0.9624351077550954,high,low,,ISIC_0024423.JPG,,ISIC_0011933.JPG,24,false,hl,keypress(j),0,true,862850.3000000119,862850.0999999642,859009.309,859010.3999999762,859026.166,862859.497,1,40,25,
sequence,flow.Sequence,8_24,2023-11-15T19:55:05.660Z,,,,,,,,,,3823.933999964269,completion,,,,,,,high,low,,,,,,false,,,,true,862850.3000000119,862850.0999999642,859009.309,859010.3000000119,859026.166,862859.497,1,40,,
trial,html.Screen,8_25_0,2023-11-15T19:55:08.732Z,,,,2,-0.0189295602385628,-0.0128812415435153,,true,hl,3062.803000011947,response,0.9212323139676136,1.0499999999999998,-0.7830129962042618,-0.9882196642247332,0.750264284115499,-0.9124351077550954,high,low,,ISIC_0010372.JPG,,ISIC_0014255.JPG,27,false,hl,keypress(j),0,true,865922.3999999762,865922.3000000119,862842.728,862850.3999999762,862859.497,865925.688,1,40,26,
sequence,flow.Sequence,8_25,2023-11-15T19:55:08.732Z,,,,,,,,,,3062.803000011947,completion,,,,,,,high,low,,,,,,false,,,,true,865922.5,865922.3000000119,862842.728,862850.3999999762,862859.497,865925.688,1,40,,
trial,html.Screen,8_26_0,2023-11-15T19:55:14.828Z,,,,2,-0.0063515208248796,-0.0194177605767913,,true,hh,6092.612000011955,response,1.1049505474730683,0.9999999999999998,-0.7830129962042618,0.8802860499226653,0.750264284115499,-0.9124351077550954,high,high,,ISIC_5281908.JPG,,ISIC_0054395.JPG,186,false,hh,keypress(i),0,true,872018.3999999762,872018.3000000119,865909.007,865922.5999999642,865925.688,872025.723,1,40,27,
sequence,flow.Sequence,8_26,2023-11-15T19:55:14.828Z,,,,,,,,,,6092.612000011955,completion,,,,,,,high,high,,,,,,false,,,,true,872018.5,872018.3000000119,865909.007,865922.5999999642,865925.688,872025.723,1,40,,
trial,html.Screen,8_27_0,2023-11-15T19:55:19.100Z,,,,2,-0.0565575423757561,0.0536115913979284,,false,hh,4264.577000011923,response,0.9108703459682678,0.9999999999999998,-0.7830129962042618,0.7270596245995933,0.750264284115499,-0.9124351077550954,high,high,,ISIC_0046983.JPG,,ISIC_0026475.JPG,186,false,lh,keypress(e),0,true,876290.5,876290.3000000119,872009.296,872018.5999999642,872025.723,876292.331,1,40,28,
sequence,flow.Sequence,8_27,2023-11-15T19:55:19.100Z,,,,,,,,,,4264.577000011923,completion,,,,,,,high,high,,,,,,false,,,,true,876290.5999999642,876290.3000000119,872009.296,872018.5999999642,872025.723,876292.331,1,40,,
trial,html.Screen,8_28_0,2023-11-15T19:55:24.764Z,,,,2,0.0377791839943904,-0.0227626648172468,,true,hh,5661.768999964232,response,1.1049505474730683,1.0499999999999998,-0.7830129962042618,0.8802860499226653,0.7536728372611292,-0.9124351077550954,high,high,,ISIC_7167479.JPG,,ISIC_0054395.JPG,173,false,hh,keypress(i),0,true,881954.3000000119,881954.0999999642,876275.589,876290.6999999881,876292.331,881959.013,1,40,29,
sequence,flow.Sequence,8_28,2023-11-15T19:55:24.764Z,,,,,,,,,,5661.768999964232,completion,,,,,,,high,high,,,,,,false,,,,true,881954.3000000119,881954.0999999642,876275.589,876290.6999999881,876292.331,881959.013,1,40,,
trial,html.Screen,8_29_0,2023-11-15T19:55:34.989Z,,,,2,0.0420795830016583,-0.0226772711905177,,false,hh,10219.086999964202,response,1.2162074924693964,1.0499999999999998,-0.7830129962042618,0.5648797279460407,0.7536728372611292,-0.9124351077550954,high,high,,ISIC_0638857.JPG,,ISIC_0025305.JPG,173,false,lh,keypress(e),0,true,892178.1999999881,892178.0999999642,881942.649,881954.3999999762,881959.013,892192.826,1,40,30,
sequence,flow.Sequence,8_29,2023-11-15T19:55:34.989Z,,,,,,,,,,10219.086999964202,completion,,,,,,,high,high,,,,,,false,,,,true,892178.1999999881,892178.0999999642,881942.649,881954.3000000119,881959.013,892192.826,1,40,,
trial,html.Screen,8_30_0,2023-11-15T19:55:42.893Z,,,,2,-0.0029978997915594,0.0736178673732526,,true,ll,7889.373999988078,response,-0.7309491081422703,1.0999999999999999,-0.7830129962042618,-0.7836604137272715,0.672582888934353,-0.9124351077550954,low,low,,ISIC_9745038.JPG,,ISIC_8693637.JPG,189,false,ll,keypress(f),0,true,900082.3000000119,900082.1999999881,892175.803,892178.3000000119,892192.826,900092.352,1,40,31,
sequence,flow.Sequence,8_30,2023-11-15T19:55:42.893Z,,,,,,,,,,7889.373999988078,completion,,,,,,,low,low,,,,,,false,,,,true,900082.5,900082.1999999881,892175.803,892178.1999999881,892192.826,900092.352,1,40,,
trial,html.Screen,8_31_0,2023-11-15T19:55:49.533Z,,,,2,-0.0001106800768269,0.0404747734408496,,true,hh,6630.047999976203,response,1.15525476269123,1.0999999999999999,-0.7330129962042617,0.6305080084300541,0.672582888934353,-0.8624351077550954,high,high,,ISIC_5706192.JPG,,ISIC_0011704.JPG,165,false,hh,keypress(i),0,true,906722.5,906722.3999999762,900075.873,900082.5,900092.352,906725.686,1,40,32,
sequence,flow.Sequence,8_31,2023-11-15T19:55:49.533Z,,,,,,,,,,6630.047999976203,completion,,,,,,,high,high,,,,,,false,,,,true,906722.5999999642,906722.3999999762,900075.873,900082.5,900092.352,906725.686,1,40,,
trial,html.Screen,8_32_0,2023-11-15T19:55:56.813Z,,,,2,-0.0321039635696159,-0.020496766286318,,true,ll,7276.513999988092,response,-0.6725647784551114,1.0999999999999999,-0.7330129962042617,-0.7330322578228878,0.672582888934353,-0.8624351077550954,low,low,,ISIC_0058063.JPG,,ISIC_0026296.JPG,230,false,ll,keypress(f),0,true,914002.1999999881,914002.1999999881,906709.257,906722.5999999642,906725.686,914009.114,1,40,33,
sequence,flow.Sequence,8_32,2023-11-15T19:55:56.813Z,,,,,,,,,,7276.513999988092,completion,,,,,,,low,low,,,,,,false,,,,true,914002.3000000119,914002.1999999881,906709.257,906722.5999999642,906725.686,914009.114,1,40,,
trial,html.Screen,8_33_0,2023-11-15T19:56:03.437Z,,,,2,0.0077673378094614,0.0021810768579373,,false,ll,6617.186000011978,response,-0.7907773114177689,1.0999999999999999,-0.7330129962042617,-0.7022802230984072,0.672582888934353,-0.8624351077550954,low,low,,ISIC_0067621.JPG,,ISIC_0069398.JPG,230,false,hl,keypress(j),0,true,920626.5,920626.3000000119,913992.538,914002.3000000119,914009.114,920642.798,1,40,34,
sequence,flow.Sequence,8_33,2023-11-15T19:56:03.437Z,,,,,,,,,,6617.186000011978,completion,,,,,,,low,low,,,,,,false,,,,true,920626.5,920626.3000000119,913992.538,914002.3000000119,914009.114,920642.798,1,40,,
trial,html.Screen,8_34_0,2023-11-15T19:56:09.149Z,,,,2,0.0702697127166421,0.0314752704888287,,true,hh,5695.202000000048,response,1.2915523362516486,1.0999999999999999,-0.7830129962042618,0.7600515905550842,0.672582888934353,-0.6676562404606474,high,high,,ISIC_0033881.JPG,,ISIC_0502582.JPG,165,false,hh,keypress(i),0,true,926338,926338,920625.887,920626.5999999642,920642.798,926342.298,1,40,35,
sequence,flow.Sequence,8_34,2023-11-15T19:56:09.149Z,,,,,,,,,,5695.202000000048,completion,,,,,,,high,high,,,,,,false,,,,true,926338.1999999881,926338,920625.887,920626.5999999642,920642.798,926342.298,1,40,,
trial,html.Screen,8_35_0,2023-11-15T19:56:13.852Z,,,,2,-0.0311884318403233,0.0697810882761999,,true,hl,4699.301999964286,response,1.011242755434436,1.0499999999999998,-0.7830129962042618,-0.7314289497713841,0.622582888934353,-0.6676562404606474,high,low,,ISIC_4870676.JPG,,ISIC_0966527.JPG,49,false,hl,keypress(j),0,true,931041.6999999881,931041.5999999642,926325.74,926338.1999999881,926342.298,931059.195,1,40,36,
sequence,flow.Sequence,8_35,2023-11-15T19:56:13.852Z,,,,,,,,,,4699.301999964286,completion,,,,,,,high,low,,,,,,false,,,,true,931041.8000000119,931041.5999999642,926325.74,926338.1999999881,926342.298,931059.195,1,40,,
trial,html.Screen,8_36_0,2023-11-15T19:56:16.525Z,,,,2,0.0362472736315994,0.0492979048777824,,true,hl,2654.9049999642884,response,1.1381383875844098,1.0499999999999998,-0.7830129962042618,-0.5813106204791724,0.622582888934353,-0.6676562404606474,high,low,,ISIC_5312584.JPG,,ISIC_0027986.JPG,49,false,hl,keypress(j),0,true,933714.1999999881,933714.0999999642,931026.006,931041.8999999762,931059.195,933726.125,1,40,37,
sequence,flow.Sequence,8_36,2023-11-15T19:56:16.525Z,,,,,,,,,,2654.9049999642884,completion,,,,,,,high,low,,,,,,false,,,,true,933714.3000000119,933714.0999999642,931026.006,931041.8999999762,931059.195,933726.125,1,40,,
trial,html.Screen,8_37_0,2023-11-15T19:56:23.869Z,,,,2,0.0742149355137113,0.0423516069066019,,false,ll,7331.974999964237,response,-0.6403564137623353,0.9999999999999998,-0.7830129962042618,-0.7088111041106229,0.622582888934353,-0.6063697851252782,low,low,,ISIC_0011483.JPG,,ISIC_0027061.JPG,316,false,lh,keypress(e),0,true,941058.1999999881,941058.0999999642,933709.397,933714.3999999762,933726.125,941076.076,1,40,38,
sequence,flow.Sequence,8_37,2023-11-15T19:56:23.869Z,,,,,,,,,,7331.974999964237,completion,,,,,,,low,low,,,,,,false,,,,true,941058.3000000119,941058.0999999642,933709.397,933714.3999999762,933726.125,941076.076,1,40,,
trial,html.Screen,8_38_0,2023-11-15T19:56:31.613Z,,,,2,-0.0189295602385628,-0.0128812415435153,,true,ll,7726.023999964236,response,-0.7586428586835948,0.9999999999999998,-0.7830129962042618,-0.7191733201074071,0.622582888934353,-0.6563697851252782,low,low,,ISIC_0010372.JPG,,ISIC_1615485.JPG,290,false,ll,keypress(f),0,true,948802.1999999881,948802.0999999642,941042.49,941058.3000000119,941076.076,948809.074,1,40,39,
sequence,flow.Sequence,8_38,2023-11-15T19:56:31.613Z,,,,,,,,,,7726.023999964236,completion,,,,,,,low,low,,,,,,false,,,,true,948802.3000000119,948802.0999999642,941042.49,941058.3000000119,941076.076,948809.074,1,40,,
trial,html.Screen,8_39_0,2023-11-15T19:56:37.100Z,,,,2,-0.010035581303589,0.0100711721396864,,true,hh,5479.726000011899,response,0.9793567585680304,0.9999999999999998,-0.6889080893955009,0.6988275276136398,0.622582888934353,-0.6563697851252782,high,high,,ISIC_0030592.JPG,,ISIC_0071471.JPG,175,false,hh,keypress(i),0,true,954288.8000000119,954288.8000000119,948792.551,948802.3000000119,948809.074,954292.263,1,40,40,
sequence,flow.Sequence,8_39,2023-11-15T19:56:37.100Z,,,,,,,,,,5479.726000011899,completion,,,,,,,high,high,,,,,,false,,,,true,954289,954288.8000000119,948792.551,948802.3000000119,948809.074,954292.263,1,40,,
stair_loop,flow.Loop,8,2023-11-15T19:56:37.100Z,,,,,,,,,,242246.34400001192,completion,,,,,,,,,,,,,,false,,,,true,954289,954288.8000000119,712025.816,712040.6999999881,712042.456,954292.263,1,40,,
exp_instructions,html.Screen,9,2023-11-15T19:56:51.614Z,,,,,,,,,,14509.537000011886,response,,,,,,,,,,,,,,,continue,keypress(Space),,,968802.1999999881,968801.8000000119,954275.911,954289,954292.263,968809.004,,,,
trial,html.Screen,10_0_0,2023-11-15T19:56:57.263Z,,,,1,-0.019361072276763,-0.0523902345755568,,true,ll,5642.996000000043,response,-0.8641919449610089,1.055,-0.7883077508638237,-1.0259812523869525,0.7149832528854108,-0.8548084792664558,low,low,,ISIC_4066726.JPG,9,ISIC_7903838.JPG,213,false,ll,keypress(f),0,false,974452.0999999642,974452,968791.699,968802.1999999881,968809.004,974458.971,4,500,1,
break,html.Screen,10_0_1,2023-11-15T19:56:57.264Z,,,,,,,,,,NaN,,,,,,,,low,low,,,,,,false,,,,false,974452.5,974452.3999999762,,974452.1999999881,,974458.971,4,500,,
break_continue,html.Screen,10_0_2,2023-11-15T19:56:57.264Z,,,,,,,,,,NaN,,,,,,,,low,low,,,,,,false,,,,false,974452.6999999881,974452.5999999642,,974452.5,,974458.971,4,500,,
sequence,flow.Sequence,10_0,2023-11-15T19:56:57.264Z,,,,,,,,,,5643.59599996428,completion,,,,,,,low,low,,,,,,false,,,,false,974452.8000000119,974452.5999999642,968791.699,968802.1999999881,968809.004,974458.971,4,500,,
trial,html.Screen,10_1_0,2023-11-15T19:57:00.844Z,,,,1,0.040352316356354,0.0039626669358928,,true,lh,3573.8290000119014,response,-0.6278135334147718,1.055,-0.7883077508638237,0.6341645142460736,0.7149832528854108,-0.8548084792664558,low,high,,ISIC_3018550.JPG,8,ISIC_0058303.JPG,103,false,lh,keypress(e),0,false,978032.8999999762,978032.8000000119,974442.1,974452.8999999762,974458.971,978042.296,4,500,2,
break,html.Screen,10_1_1,2023-11-15T19:57:00.845Z,,,,,,,,,,NaN,,,,,,,,low,high,,,,,,false,,,,false,978033.3000000119,978033.1999999881,,978033.0999999642,,978042.296,4,500,,
break_continue,html.Screen,10_1_2,2023-11-15T19:57:00.845Z,,,,,,,,,,NaN,,,,,,,,low,high,,,,,,false,,,,false,978033.5,978033.5,,978033.3999999762,,978042.296,4,500,,
sequence,flow.Sequence,10_1,2023-11-15T19:57:00.845Z,,,,,,,,,,3574.5289999999804,completion,,,,,,,low,high,,,,,,false,,,,false,978033.5,978033.5,974442.1,974452.8000000119,974458.971,978042.296,4,500,,
trial,html.Screen,10_2_0,2023-11-15T19:57:06.478Z,,,,1,0.0310298232022856,0.0697438859399019,,false,lh,5624.103999976185,response,-0.8604385965670581,1.055,-0.7883077508638237,0.5562828006875083,0.7149832528854108,-0.8548084792664558,low,high,,ISIC_0027669.JPG,9,ISIC_4482610.JPG,103,false,ll,keypress(f),0,false,983666.5,983666.3999999762,978025.811,978033.5999999642,978042.296,983675.745,4,500,3,
break,html.Screen,10_2_1,2023-11-15T19:57:06.478Z,,,,,,,,,,NaN,,,,,,,,low,high,,,,,,false,,,,false,983666.8000000119,983666.6999999881,,983666.5999999642,,983675.745,4,500,,
break_continue,html.Screen,10_2_2,2023-11-15T19:57:06.478Z,,,,,,,,,,NaN,,,,,,,,low,high,,,,,,false,,,,false,983667,983666.8999999762,,983666.8999999762,,983675.745,4,500,,
sequence,flow.Sequence,10_2,2023-11-15T19:57:06.478Z,,,,,,,,,,5624.603999976185,completion,,,,,,,low,high,,,,,,false,,,,false,983667,983666.8999999762,978025.811,978033.5,978042.296,983675.745,4,500,,
trial,html.Screen,10_3_0,2023-11-15T19:57:13.630Z,,,,1,0.0523524458062335,-0.0048771624512062,,true,ll,7142.354999964242,response,-0.8039110078522389,1.055,-0.7883077508638237,-0.675121424197871,0.7149832528854108,-0.8548084792664558,low,low,,ISIC_0010379.JPG,8,ISIC_8366864.JPG,213,false,ll,keypress(f),0,false,990818.1999999881,990818.0999999642,983659.283,983667.0999999642,983675.745,990825.781,4,500,4,
break,html.Screen,10_3_1,2023-11-15T19:57:13.630Z,,,,,,,,,,NaN,,,,,,,,low,low,,,,,,false,,,,false,990818.5999999642,990818.3999999762,,990818.3000000119,,990825.781,4,500,,
break_continue,html.Screen,10_3_2,2023-11-15T19:57:13.630Z,,,,,,,,,,NaN,,,,,,,,low,low,,,,,,false,,,,false,990818.6999999881,990818.6999999881,,990818.5999999642,,990825.781,4,500,,
sequence,flow.Sequence,10_3,2023-11-15T19:57:13.630Z,,,,,,,,,,7142.954999988084,completion,,,,,,,low,low,,,,,,false,,,,false,990818.8000000119,990818.6999999881,983659.283,983667.0999999642,983675.745,990825.781,4,500,,
trial,html.Screen,10_4_0,2023-11-15T19:57:21.933Z,,,,1,0.0450282431170921,0.0102871556606504,,true,hl,8295.719000000041,response,1.011242755434436,1.055,-0.7883077508638237,-0.7314289497713841,0.7149832528854108,-0.8548084792664558,high,low,,ISIC_1805163.JPG,10,ISIC_0966527.JPG,32,false,hl,keypress(j),0,false,999121.5999999642,999121.5,990808.852,990818.8999999762,990825.781,999125.594,4,500,5,
break,html.Screen,10_4_1,2023-11-15T19:57:21.933Z,,,,,,,,,,NaN,,,,,,,,high,low,,,,,,false,,,,false,999121.8999999762,999121.8000000119,,999121.5999999642,,999125.594,4,500,,
break_continue,html.Screen,10_4_2,2023-11-15T19:57:21.934Z,,,,,,,,,,NaN,,,,,,,,high,low,,,,,,false,,,,false,999122.0999999642,999122.0999999642,,999121.8999999762,,999125.594,4,500,,
sequence,flow.Sequence,10_4,2023-11-15T19:57:21.934Z,,,,,,,,,,8296.318999964278,completion,,,,,,,high,low,,,,,,false,,,,false,999122.1999999881,999122.0999999642,990808.852,990818.8999999762,990825.781,999125.594,4,500,,
trial,html.Screen,10_5_0,2023-11-15T19:57:25.756Z,,,,1,0.012810673904807,-0.00400964452501,,false,lh,3819.405999999959,response,-0.9514031565526356,1.055,-0.7883077508638237,0.5958556817214221,0.7149832528854108,-0.8548084792664558,low,high,,ISIC_0064656.JPG,8,ISIC_0067412.JPG,103,false,hl,keypress(j),0,false,1002945.0999999642,1002945,999108.925,999122.1999999881,999125.594,1002958.984,4,500,6,
break,html.Screen,10_5_1,2023-11-15T19:57:25.757Z,,,,,,,,,,NaN,,,,,,,,low,high,,,,,,false,,,,false,1002945.3999999762,1002945.3000000119,,1002945.1999999881,,1002958.984,4,500,,
break_continue,html.Screen,10_5_2,2023-11-15T19:57:25.757Z,,,,,,,,,,NaN,,,,,,,,low,high,,,,,,false,,,,false,1002945.5999999642,1002945.5,,1002945.3999999762,,1002958.984,4,500,,
sequence,flow.Sequence,10_5,2023-11-15T19:57:25.757Z,,,,,,,,,,3819.905999999959,completion,,,,,,,low,high,,,,,,false,,,,false,1002945.6999999881,1002945.5,999108.925,999122.1999999881,999125.594,1002958.984,4,500,,
trial,html.Screen,10_6_0,2023-11-15T19:57:30.957Z,,,,1,0.040352316356354,0.0039626669358928,,false,ll,5186.915999976103,response,-0.7105073292284035,1.055,-0.7883077508638237,-0.7209093807328134,0.7149832528854108,-0.8548084792664558,low,low,,ISIC_3018550.JPG,9,ISIC_3058800.JPG,213,false,lh,keypress(e),0,false,1008146,1008145.8999999762,1002942.645,1002945.8000000119,1002958.984,1008159.411,4,500,7,
break,html.Screen,10_6_1,2023-11-15T19:57:30.958Z,,,,,,,,,,NaN,,,,,,,,low,low,,,,,,false,,,,false,1008146.3999999762,1008146.3000000119,,1008146.1999999881,,1008159.411,4,500,,
break_continue,html.Screen,10_6_2,2023-11-15T19:57:30.958Z,,,,,,,,,,NaN,,,,,,,,low,low,,,,,,false,,,,false,1008146.5999999642,1008146.5999999642,,1008146.3999999762,,1008159.411,4,500,,
sequence,flow.Sequence,10_6,2023-11-15T19:57:30.958Z,,,,,,,,,,5187.615999964182,completion,,,,,,,low,low,,,,,,false,,,,false,1008146.6999999881,1008146.5999999642,1002942.645,1002945.6999999881,1002958.984,1008159.411,4,500,,
trial,html.Screen,10_7_0,2023-11-15T19:57:38.799Z,,,,1,0.0420795830016583,-0.0226772711905177,,true,hh,7826.889000011957,response,1.2268183254476466,1.055,-0.7883077508638237,0.8828399683080101,0.7149832528854108,-0.8548084792664558,high,high,,ISIC_0638857.JPG,9,ISIC_0053541.JPG,176,false,hh,keypress(i),0,false,1015986.3999999762,1015986.3000000119,1008142.593,1008146.6999999881,1008159.411,1015992.365,4,500,8,
break,html.Screen,10_7_1,2023-11-15T19:57:38.799Z,,,,,,,,,,NaN,,,,,,,,high,high,,,,,,false,,,,false,1015986.5999999642,1015986.5,,1015986.3999999762,,1015992.365,4,500,,
break_continue,html.Screen,10_7_2,2023-11-15T19:57:38.799Z,,,,,,,,,,NaN,,,,,,,,high,high,,,,,,false,,,,false,1015986.8000000119,1015986.8000000119,,1015986.5999999642,,1015992.365,4,500,,
sequence,flow.Sequence,10_7,2023-11-15T19:57:38.799Z,,,,,,,,,,7827.389000011957,completion,,,,,,,high,high,,,,,,false,,,,false,1015986.8999999762,1015986.8000000119,1008142.593,1008146.6999999881,1008159.411,1015992.365,4,500,,
trial,html.Screen,10_8_0,2023-11-15T19:57:47.375Z,,,,1,-0.0488365673064833,0.0229344142397166,,true,lh,8569.93500001193,response,-0.5899072762459793,1.055,-0.7883077508638237,0.7993808609040723,0.7149832528854108,-0.8548084792664558,low,high,,ISIC_0056915.JPG,9,ISIC_0032510.JPG,103,false,lh,keypress(e),0,false,1024562.3000000119,1024562.3000000119,1015975.635,1015986.8999999762,1015992.365,1024575.828,4,500,9,
break,html.Screen,10_8_1,2023-11-15T19:57:47.375Z,,,,,,,,,,NaN,,,,,,,,low,high,,,,,,false,,,,false,1024562.5999999642,1024562.5999999642,,1024562.3999999762,,1024575.828,4,500,,
break_continue,html.Screen,10_8_2,2023-11-15T19:57:47.375Z,,,,,,,,,,NaN,,,,,,,,low,high,,,,,,false,,,,false,1024562.8000000119,1024562.6999999881,,1024562.5999999642,,1024575.828,4,500,,
sequence,flow.Sequence,10_8,2023-11-15T19:57:47.375Z,,,,,,,,,,8570.334999988088,completion,,,,,,,low,high,,,,,,false,,,,false,1024562.8999999762,1024562.6999999881,1015975.635,1015986.8999999762,1015992.365,1024575.828,4,500,,
trial,html.Screen,10_9_0,2023-11-15T19:57:53.038Z,,,,1,0.0085520978188085,-0.0535296539628673,,false,ll,5650.271999964258,response,-0.9416900312335138,1.055,-0.7883077508638237,-0.9485840589720004,0.7149832528854108,-0.8548084792664558,low,low,,ISIC_0758797.JPG,8,ISIC_2784686.JPG,213,false,hl,keypress(j),0,false,1030226.3000000119,1030226.0999999642,1024559.133,1024562.8999999762,1024575.828,1030242.52,4,500,10,
break,html.Screen,10_9_1,2023-11-15T19:57:53.039Z,,,,,,,,,,NaN,,,,,,,,low,low,,,,,,false,,,,false,1030226.5999999642,1030226.5,,1030226.3000000119,,1030242.52,4,500,,
break_continue,html.Screen,10_9_2,2023-11-15T19:57:53.039Z,,,,,,,,,,NaN,,,,,,,,low,low,,,,,,false,,,,false,1030226.8000000119,1030226.6999999881,,1030226.5999999642,,1030242.52,4,500,,
sequence,flow.Sequence,10_9,2023-11-15T19:57:53.039Z,,,,,,,,,,5650.8719999881,completion,,,,,,,low,low,,,,,,false,,,,false,1030226.8000000119,1030226.6999999881,1024559.133,1024562.8999999762,1024575.828,1030242.52,4,500,,
trial,html.Screen,10_10_0,2023-11-15T19:58:02.046Z,,,,1,0.0450282431170921,0.0102871556606504,,false,ll,8991.479999999981,response,-0.7033146667213788,1.055,-0.7883077508638237,-0.9825823454317724,0.7149832528854108,-0.8548084792664558,low,low,,ISIC_1805163.JPG,8,ISIC_9820910.JPG,213,false,hl,keypress(j),0,false,1039234.0999999642,1039234,1030225.709,1030226.8000000119,1030242.52,1039242.437,4,500,11,
break,html.Screen,10_10_1,2023-11-15T19:58:02.047Z,,,,,,,,,,NaN,,,,,,,,low,low,,,,,,false,,,,false,1039234.3999999762,1039234.3000000119,,1039234.1999999881,,1039242.437,4,500,,
break_continue,html.Screen,10_10_2,2023-11-15T19:58:02.047Z,,,,,,,,,,NaN,,,,,,,,low,low,,,,,,false,,,,false,1039234.5999999642,1039234.5,,1039234.3999999762,,1039242.437,4,500,,
sequence,flow.Sequence,10_10,2023-11-15T19:58:02.047Z,,,,,,,,,,8991.979999999981,completion,,,,,,,low,low,,,,,,false,,,,false,1039234.5999999642,1039234.5,1030225.709,1030226.8000000119,1030242.52,1039242.437,4,500,,
trial,html.Screen,10_11_0,2023-11-15T19:58:07.277Z,,,,1,0.0050679133050021,0.0174815595031679,,false,hh,5222.762999988045,response,1.0080386618190609,1.055,-0.7883077508638237,0.5712172246281478,0.7149832528854108,-0.8548084792664558,high,high,,ISIC_9848743.JPG,9,ISIC_0033905.JPG,176,false,hl,keypress(j),0,false,1044465.3000000119,1044465.1999999881,1039225.857,1039234.6999999881,1039242.437,1044475.589,4,500,12,
break,html.Screen,10_11_1,2023-11-15T19:58:07.278Z,,,,,,,,,,NaN,,,,,,,,high,high,,,,,,false,,,,false,1044465.5,1044465.5,,1044465.3999999762,,1044475.589,4,500,,
break_continue,html.Screen,10_11_2,2023-11-15T19:58:07.278Z,,,,,,,,,,NaN,,,,,,,,high,high,,,,,,false,,,,false,1044465.8000000119,1044465.6999999881,,1044465.5999999642,,1044475.589,4,500,,
sequence,flow.Sequence,10_11,2023-11-15T19:58:07.278Z,,,,,,,,,,5223.262999988045,completion,,,,,,,high,high,,,,,,false,,,,false,1044465.8999999762,1044465.6999999881,1039225.857,1039234.6999999881,1039242.437,1044475.589,4,500,,
trial,html.Screen,10_12_0,2023-11-15T19:58:10.334Z,,,,1,0.0158987717472563,0.0292472192292015,,true,lh,3046.6109999880427,response,-0.6278135334147718,1.055,-0.7883077508638237,0.6341645142460736,0.7149832528854108,-0.8548084792664558,low,high,,ISIC_1366765.JPG,8,ISIC_0058303.JPG,103,false,lh,keypress(e),0,false,1047522.3000000119,1047522.1999999881,1044459.227,1044465.8999999762,1044475.589,1047525.54,4,500,13,
break,html.Screen,10_12_1,2023-11-15T19:58:10.335Z,,,,,,,,,,NaN,,,,,,,,low,high,,,,,,false,,,,false,1047522.5999999642,1047522.5,,1047522.3999999762,,1047525.54,4,500,,
break_continue,html.Screen,10_12_2,2023-11-15T19:58:10.335Z,,,,,,,,,,NaN,,,,,,,,low,high,,,,,,false,,,,false,1047522.8000000119,1047522.6999999881,,1047522.5999999642,,1047525.54,4,500,,
sequence,flow.Sequence,10_12,2023-11-15T19:58:10.335Z,,,,,,,,,,3047.1109999880427,completion,,,,,,,low,high,,,,,,false,,,,false,1047522.8000000119,1047522.6999999881,1044459.227,1044465.8999999762,1044475.589,1047525.54,4,500,,
trial,html.Screen,10_13_0,2023-11-15T19:58:16.078Z,,,,1,0.0023664502831079,0.0252784582169994,,true,hh,5739.659999988042,response,0.9053396132028096,1.055,-0.7883077508638237,0.7313731866464421,0.7149832528854108,-0.8548084792664558,high,high,,ISIC_4156010.JPG,9,ISIC_0010729.JPG,176,false,hh,keypress(i),0,false,1053265.300000012,1053265.199999988,1047509.073,1047522.8000000119,1047525.54,1053275.595,4,500,14,
break,html.Screen,10_13_1,2023-11-15T19:58:16.078Z,,,,,,,,,,NaN,,,,,,,,high,high,,,,,,false,,,,false,1053265.5999999642,1053265.5999999642,,1053265.3999999762,,1053275.595,4,500,,
break_continue,html.Screen,10_13_2,2023-11-15T19:58:16.078Z,,,,,,,,,,NaN,,,,,,,,high,high,,,,,,false,,,,false,1053265.800000012,1053265.699999988,,1053265.5999999642,,1053275.595,4,500,,
sequence,flow.Sequence,10_13,2023-11-15T19:58:16.078Z,,,,,,,,,,5740.159999988042,completion,,,,,,,high,high,,,,,,false,,,,false,1053265.8999999762,1053265.699999988,1047509.073,1047522.8000000119,1047525.54,1053275.595,4,500,,
trial,html.Screen,10_14_0,2023-11-15T19:58:18.910Z,,,,1,0.0060934073440827,0.0279108145883031,,true,lh,2822.604999988107,response,-0.8591294258188253,1.055,-0.7883077508638237,0.870797302150167,0.7149832528854108,-0.8548084792664558,low,high,,ISIC_0032604.JPG,9,ISIC_0055841.JPG,103,false,lh,keypress(e),0,false,1056098.199999988,1056098.199999988,1053259.207,1053266,1053275.595,1056109.384,4,500,15,
break,html.Screen,10_14_1,2023-11-15T19:58:18.911Z,,,,,,,,,,NaN,,,,,,,,low,high,,,,,,false,,,,false,1056098.5,1056098.5,,1056098.300000012,,1056109.384,4,500,,
break_continue,html.Screen,10_14_2,2023-11-15T19:58:18.911Z,,,,,,,,,,NaN,,,,,,,,low,high,,,,,,false,,,,false,1056098.699999988,1056098.699999988,,1056098.5999999642,,1056109.384,4,500,,
sequence,flow.Sequence,10_14,2023-11-15T19:58:18.911Z,,,,,,,,,,2823.104999988107,completion,,,,,,,low,high,,,,,,false,,,,false,1056098.800000012,1056098.699999988,1053259.207,1053266,1053275.595,1056109.384,4,500,,
trial,html.Screen,10_15_0,2023-11-15T19:58:27.390Z,,,,1,-0.019361072276763,-0.0523902345755568,,false,ll,8468.315999988,response,-0.7369800228521473,1.055,-0.7883077508638237,-0.7263367239377666,0.7149832528854108,-0.8548084792664558,low,low,,ISIC_4066726.JPG,9,ISIC_2034687.JPG,213,false,hl,keypress(j),0,false,1064577.699999988,1064577.699999988,1056092.641,1056098.8999999762,1056109.384,1064592.705,4,500,16,
break,html.Screen,10_15_1,2023-11-15T19:58:27.390Z,,,,,,,,,,NaN,,,,,,,,low,low,,,,,,false,,,,false,1064578,1064578,,1064577.800000012,,1064592.705,4,500,,
break_continue,html.Screen,10_15_2,2023-11-15T19:58:27.390Z,,,,,,,,,,NaN,,,,,,,,low,low,,,,,,false,,,,false,1064578.300000012,1064578.199999988,,1064578.0999999642,,1064592.705,4,500,,
sequence,flow.Sequence,10_15,2023-11-15T19:58:27.391Z,,,,,,,,,,8468.815999988,completion,,,,,,,low,low,,,,,,false,,,,false,1064578.3999999762,1064578.199999988,1056092.641,1056098.8999999762,1056109.384,1064592.705,4,500,,
trial,html.Screen,10_16_0,2023-11-15T19:58:38.390Z,,,,1,-0.0474755744799381,-0.0692210794081785,,,,11016.195999999996,timeout,1.135372722680314,1.055,-0.7883077508638237,-0.7741624649032207,0.7149832528854108,-0.8548084792664558,high,low,,ISIC_8794567.JPG,8,ISIC_2355513.JPG,32,false,,,0,false,1075577.0999999642,1075577,1064575.546,1064578.3999999762,1064592.705,1075608.901,4,500,17,
break,html.Screen,10_16_1,2023-11-15T19:58:38.390Z,,,,,,,,,,NaN,,,,,,,,high,low,,,,,,false,,,,false,1075577.300000012,1075577.300000012,,1075577.199999988,,1075608.901,4,500,,
break_continue,html.Screen,10_16_2,2023-11-15T19:58:38.390Z,,,,,,,,,,NaN,,,,,,,,high,low,,,,,,false,,,,false,1075577.5999999642,1075577.5,,1075577.3999999762,,1075608.901,4,500,,
sequence,flow.Sequence,10_16,2023-11-15T19:58:38.391Z,,,,,,,,,,10984.794999999925,completion,,,,,,,high,low,,,,,,false,,,,false,1075577.5999999642,1075577.5,1064575.546,1064578.3999999762,1064592.705,1075608.901,4,500,,
trial,html.Screen,10_17_0,2023-11-15T19:58:44.207Z,,,,1,0.0668201703083464,-0.0222223530621927,,false,hh,5785.298999988008,response,0.9286162906661966,1.055,-0.7883077508638237,0.8993115431771105,0.7149832528854108,-0.8548084792664558,high,high,,ISIC_8321148.JPG,9,ISIC_0011857.JPG,176,false,lh,keypress(e),0,false,1081394.300000012,1081394.199999988,1075592.259,1075577.5999999642,1075608.901,1081409.366,4,500,18,
break,html.Screen,10_17_1,2023-11-15T19:58:44.208Z,,,,,,,,,,NaN,,,,,,,,high,high,,,,,,false,,,,false,1081394.5999999642,1081394.5,,1081394.3999999762,,1081409.366,4,500,,
break_continue,html.Screen,10_17_2,2023-11-15T19:58:44.208Z,,,,,,,,,,NaN,,,,,,,,high,high,,,,,,false,,,,false,1081394.800000012,1081394.800000012,,1081394.5999999642,,1081409.366,4,500,,
sequence,flow.Sequence,10_17,2023-11-15T19:58:44.208Z,,,,,,,,,,5785.89900001185,completion,,,,,,,high,high,,,,,,false,,,,false,1081394.8999999762,1081394.800000012,1075592.259,1075577.5999999642,1075608.901,1081409.366,4,500,,
trial,html.Screen,10_18_0,2023-11-15T19:58:49.327Z,,,,1,0.0450282431170921,0.0102871556606504,,true,hh,5104.733999964315,response,0.9166820634652196,1.055,-0.7883077508638237,0.7348428604291778,0.7149832528854108,-0.8548084792664558,high,high,,ISIC_1805163.JPG,8,ISIC_0028543.JPG,176,false,hh,keypress(i),0,false,1086514.300000012,1086514.0999999642,1081392.513,1081394.8999999762,1081409.366,1086526.028,4,500,19,
break,html.Screen,10_18_1,2023-11-15T19:58:49.327Z,,,,,,,,,,NaN,,,,,,,,high,high,,,,,,false,,,,false,1086514.5,1086514.3999999762,,1086514.300000012,,1086526.028,4,500,,
break_continue,html.Screen,10_18_2,2023-11-15T19:58:49.328Z,,,,,,,,,,NaN,,,,,,,,high,high,,,,,,false,,,,false,1086514.699999988,1086514.5999999642,,1086514.5999999642,,1086526.028,4,500,,
sequence,flow.Sequence,10_18,2023-11-15T19:58:49.328Z,,,,,,,,,,5105.233999964315,completion,,,,,,,high,high,,,,,,false,,,,false,1086514.699999988,1086514.5999999642,1081392.513,1081394.8999999762,1081409.366,1086526.028,4,500,,
trial,html.Screen,10_19_0,2023-11-15T19:58:57.967Z,,,,1,-0.0367218428225813,0.0026956749740767,,false,ll,8628.071999964304,response,-0.6362993040368018,1.055,-0.7883077508638237,-0.9300177618143236,0.7149832528854108,-0.8548084792664558,low,low,,ISIC_7212271.JPG,9,ISIC_4868926.JPG,213,false,hh,keypress(i),0,false,1095154.199999988,1095154.0999999642,1086509.104,1086514.800000012,1086526.028,1095158.963,4,500,20,
break,html.Screen,10_19_1,2023-11-15T19:58:57.968Z,,,,,,,,,,NaN,,,,,,,,low,low,,,,,,false,,,,false,1095154.5999999642,1095154.5,,1095154.300000012,,1095158.963,4,500,,
break_continue,html.Screen,10_19_2,2023-11-15T19:58:57.968Z,,,,,,,,,,NaN,,,,,,,,low,low,,,,,,false,,,,false,1095154.699999988,1095154.699999988,,1095154.5999999642,,1095158.963,4,500,,
sequence,flow.Sequence,10_19,2023-11-15T19:58:57.968Z,,,,,,,,,,8628.671999988146,completion,,,,,,,low,low,,,,,,false,,,,false,1095154.800000012,1095154.699999988,1086509.104,1086514.800000012,1086526.028,1095158.963,4,500,,
trial,html.Screen,10_20_0,2023-11-15T19:59:05.439Z,,,,1,0.0377791839943904,-0.0227626648172468,,true,ll,7467.037000000011,response,-0.9597587651037712,1.055,-0.7883077508638237,-0.8860066980618031,0.7149832528854108,-0.8548084792664558,low,low,,ISIC_7167479.JPG,9,ISIC_7534592.JPG,213,false,ll,keypress(f),0,false,1102626.0999999642,1102626,1095142.326,1095154.8999999762,1095158.963,1102642.683,4,500,21,
break,html.Screen,10_20_1,2023-11-15T19:59:05.439Z,,,,,,,,,,NaN,,,,,,,,low,low,,,,,,false,,,,false,1102626.3999999762,1102626.300000012,,1102626.199999988,,1102642.683,4,500,,
break_continue,html.Screen,10_20_2,2023-11-15T19:59:05.440Z,,,,,,,,,,NaN,,,,,,,,low,low,,,,,,false,,,,false,1102626.5999999642,1102626.5,,1102626.3999999762,,1102642.683,4,500,,
sequence,flow.Sequence,10_20,2023-11-15T19:59:05.440Z,,,,,,,,,,7467.537000000011,completion,,,,,,,low,low,,,,,,false,,,,false,1102626.699999988,1102626.5,1095142.326,1095154.8999999762,1095158.963,1102642.683,4,500,,
trial,html.Screen,10_21_0,2023-11-15T19:59:08.847Z,,,,1,-0.0191999585302269,0.0745789212985316,,false,ll,3391.516999988118,response,-0.8626849314423831,1.055,-0.7883077508638237,-1.0374085478567705,0.7149832528854108,-0.8548084792664558,low,low,,ISIC_4024062.JPG,8,ISIC_0026371.JPG,213,false,lh,keypress(e),0,false,1106034.300000012,1106034.199999988,1102625.761,1102626.699999988,1102642.683,1106042.327,4,500,22,
break,html.Screen,10_21_1,2023-11-15T19:59:08.848Z,,,,,,,,,,NaN,,,,,,,,low,low,,,,,,false,,,,false,1106034.5999999642,1106034.5,,1106034.3999999762,,1106042.327,4,500,,
break_continue,html.Screen,10_21_2,2023-11-15T19:59:08.848Z,,,,,,,,,,NaN,,,,,,,,low,low,,,,,,false,,,,false,1106034.699999988,1106034.699999988,,1106034.5999999642,,1106042.327,4,500,,
sequence,flow.Sequence,10_21,2023-11-15T19:59:08.848Z,,,,,,,,,,3392.016999988118,completion,,,,,,,low,low,,,,,,false,,,,false,1106034.800000012,1106034.699999988,1102625.761,1102626.699999988,1102642.683,1106042.327,4,500,,
trial,html.Screen,10_22_0,2023-11-15T19:59:16.799Z,,,,1,0.0118555311043871,0.0087774532070196,,false,hh,7943.872999988031,response,1.0497643411101587,1.055,-0.7883077508638237,0.6935460932130472,0.7149832528854108,-0.8548084792664558,high,high,,ISIC_6488658.JPG,10,ISIC_0032400.JPG,176,false,lh,keypress(e),0,false,1113986.300000012,1113986.199999988,1106025.966,1106034.800000012,1106042.327,1113992.327,4,500,23,
break,html.Screen,10_22_1,2023-11-15T19:59:16.799Z,,,,,,,,,,NaN,,,,,,,,high,high,,,,,,false,,,,false,1113986.5,1113986.3999999762,,1113986.3999999762,,1113992.327,4,500,,
break_continue,html.Screen,10_22_2,2023-11-15T19:59:16.800Z,,,,,,,,,,NaN,,,,,,,,high,high,,,,,,false,,,,false,1113986.699999988,1113986.699999988,,1113986.5999999642,,1113992.327,4,500,,
sequence,flow.Sequence,10_22,2023-11-15T19:59:16.800Z,,,,,,,,,,7944.372999988031,completion,,,,,,,high,high,,,,,,false,,,,false,1113986.800000012,1113986.699999988,1106025.966,1106034.800000012,1106042.327,1113992.327,4,500,,
trial,html.Screen,10_23_0,2023-11-15T19:59:19.103Z,,,,1,-0.0733425953790377,0.0558194585272655,,false,hl,2297.3729999880306,response,1.073191619565092,1.055,-0.7883077508638237,-0.6806289469379934,0.7149832528854108,-0.8548084792664558,high,low,,ISIC_0026756.JPG,9,ISIC_9386509.JPG,32,false,lh,keypress(e),0,false,1116289.800000012,1116289.699999988,1113975.556,1113986.800000012,1113992.327,1116292.186,4,500,24,
break,html.Screen,10_23_1,2023-11-15T19:59:19.103Z,,,,,,,,,,NaN,,,,,,,,high,low,,,,,,false,,,,false,1116290.0999999642,1116290,,1116289.8999999762,,1116292.186,4,500,,
break_continue,html.Screen,10_23_2,2023-11-15T19:59:19.103Z,,,,,,,,,,NaN,,,,,,,,high,low,,,,,,false,,,,false,1116290.199999988,1116290.199999988,,1116290.0999999642,,1116292.186,4,500,,
sequence,flow.Sequence,10_23,2023-11-15T19:59:19.103Z,,,,,,,,,,2297.8729999880306,completion,,,,,,,high,low,,,,,,false,,,,false,1116290.300000012,1116290.199999988,1113975.556,1113986.800000012,1113992.327,1116292.186,4,500,,
trial,html.Screen,10_24_0,2023-11-15T19:59:25.935Z,,,,1,-0.0380440426394326,-0.0685633753763444,,false,hh,6830.013999988092,response,0.9009408285331614,1.055,-0.7883077508638237,0.8985422901220989,0.7149832528854108,-0.8548084792664558,high,high,,ISIC_0032680.JPG,9,ISIC_0033834.JPG,176,false,lh,keypress(e),0,false,1123122.300000012,1123122.199999988,1116276.006,1116290.300000012,1116292.186,1123125.581,4,500,25,
break,html.Screen,10_24_1,2023-11-15T19:59:25.936Z,,,,,,,,,,NaN,,,,,,,,high,high,,,,,,false,,,,false,1123122.5,1123122.5,,1123122.300000012,,1123125.581,4,500,,
break_continue,html.Screen,10_24_2,2023-11-15T19:59:25.936Z,,,,,,,,,,NaN,,,,,,,,high,high,,,,,,false,,,,false,1123122.800000012,1123122.699999988,,1123122.5999999642,,1123125.581,4,500,,
sequence,flow.Sequence,10_24,2023-11-15T19:59:25.936Z,,,,,,,,,,6830.513999988092,completion,,,,,,,high,high,,,,,,false,,,,false,1123122.800000012,1123122.699999988,1116276.006,1116290.300000012,1116292.186,1123125.581,4,500,,
trial,html.Screen,10_25_0,2023-11-15T19:59:31.214Z,,,,1,-0.0001106800768269,0.0404747734408496,,true,lh,5275.818999976153,response,-0.6856825018721076,1.055,-0.7883077508638237,0.6579556026325135,0.7149832528854108,-0.8548084792664558,low,high,,ISIC_5706192.JPG,9,ISIC_0029481.JPG,103,false,lh,keypress(e),0,false,1128401.5,1128401.3999999762,1123109.105,1123122.800000012,1123125.581,1128409.01,4,500,26,
break,html.Screen,10_25_1,2023-11-15T19:59:31.215Z,,,,,,,,,,NaN,,,,,,,,low,high,,,,,,false,,,,false,1128401.800000012,1128401.699999988,,1128401.5999999642,,1128409.01,4,500,,
break_continue,html.Screen,10_25_2,2023-11-15T19:59:31.215Z,,,,,,,,,,NaN,,,,,,,,low,high,,,,,,false,,,,false,1128402,1128402,,1128401.800000012,,1128409.01,4,500,,
sequence,flow.Sequence,10_25,2023-11-15T19:59:31.215Z,,,,,,,,,,5276.418999999994,completion,,,,,,,low,high,,,,,,false,,,,false,1128402.0999999642,1128402,1123109.105,1123122.800000012,1123125.581,1128409.01,4,500,,
trial,html.Screen,10_26_0,2023-11-15T19:59:35.696Z,,,,1,0.0742149355137113,0.0423516069066019,,false,hl,4472.989999999991,response,0.9448560599810628,1.055,-0.7883077508638237,-0.9099421612683488,0.7149832528854108,-0.8548084792664558,high,low,,ISIC_0011483.JPG,9,ISIC_9684318.JPG,32,false,ll,keypress(f),0,false,1132882.0999999642,1132882,1128392.293,1128402.199999988,1128409.01,1132892.69,4,500,27,
break,html.Screen,10_26_1,2023-11-15T19:59:35.696Z,,,,,,,,,,NaN,,,,,,,,high,low,,,,,,false,,,,false,1132882.3999999762,1132882.300000012,,1132882.199999988,,1132892.69,4,500,,
break_continue,html.Screen,10_26_2,2023-11-15T19:59:35.696Z,,,,,,,,,,NaN,,,,,,,,high,low,,,,,,false,,,,false,1132882.5999999642,1132882.5,,1132882.5,,1132892.69,4,500,,
sequence,flow.Sequence,10_26,2023-11-15T19:59:35.696Z,,,,,,,,,,4473.489999999991,completion,,,,,,,high,low,,,,,,false,,,,false,1132882.699999988,1132882.5,1128392.293,1128402.0999999642,1128409.01,1132892.69,4,500,,
trial,html.Screen,10_27_0,2023-11-15T19:59:43.743Z,,,,1,0.0057914759495055,-0.018500200317654,,false,lh,8036.909999964293,response,-0.8177771921122365,1.055,-0.7883077508638237,0.6668515442923276,0.7149832528854108,-0.8548084792664558,low,high,,ISIC_0058723.JPG,8,ISIC_0031018.JPG,103,false,hl,keypress(j),0,false,1140929.699999988,1140929.5999999642,1132875.419,1132882.699999988,1132892.69,1140942.434,4,500,28,
break,html.Screen,10_27_1,2023-11-15T19:59:43.744Z,,,,,,,,,,NaN,,,,,,,,low,high,,,,,,false,,,,false,1140930,1140929.8999999762,,1140929.800000012,,1140942.434,4,500,,
break_continue,html.Screen,10_27_2,2023-11-15T19:59:43.744Z,,,,,,,,,,NaN,,,,,,,,low,high,,,,,,false,,,,false,1140930.199999988,1140930.0999999642,,1140930.0999999642,,1140942.434,4,500,,
sequence,flow.Sequence,10_27,2023-11-15T19:59:43.744Z,,,,,,,,,,8037.409999964293,completion,,,,,,,low,high,,,,,,false,,,,false,1140930.199999988,1140930.0999999642,1132875.419,1132882.699999988,1132892.69,1140942.434,4,500,,
trial,html.Screen,10_28_0,2023-11-15T19:59:49.791Z,,,,1,-0.0086413421586899,-0.0360184993500958,,true,hh,6034.765999988187,response,1.0884048535189497,1.055,-0.7883077508638237,0.8993771458752091,0.7149832528854108,-0.8548084792664558,high,high,,ISIC_0010767.JPG,9,ISIC_4564960.JPG,176,false,hh,keypress(i),0,false,1146977.300000012,1146977.199999988,1140925.884,1140930.300000012,1140942.434,1146992.273,4,500,29,
break,html.Screen,10_28_1,2023-11-15T19:59:49.791Z,,,,,,,,,,NaN,,,,,,,,high,high,,,,,,false,,,,false,1146977.5999999642,1146977.5,,1146977.3999999762,,1146992.273,4,500,,
break_continue,html.Screen,10_28_2,2023-11-15T19:59:49.792Z,,,,,,,,,,NaN,,,,,,,,high,high,,,,,,false,,,,false,1146977.8999999762,1146977.800000012,,1146977.699999988,,1146992.273,4,500,,
sequence,flow.Sequence,10_28,2023-11-15T19:59:49.792Z,,,,,,,,,,6035.366000012029,completion,,,,,,,high,high,,,,,,false,,,,false,1146977.8999999762,1146977.800000012,1140925.884,1140930.300000012,1140942.434,1146992.273,4,500,,
trial,html.Screen,10_29_0,2023-11-15T19:59:54.704Z,,,,1,0.0060934073440827,0.0279108145883031,,false,lh,4897.8269999641925,response,-0.6289407448622109,1.055,-0.7883077508638237,0.8371819698254004,0.7149832528854108,-0.8548084792664558,low,high,,ISIC_0032604.JPG,9,ISIC_9613570.JPG,103,false,ll,keypress(f),0,false,1151890.199999988,1151890.0999999642,1146975.679,1146977.8999999762,1146992.273,1151892.177,4,500,30,
break,html.Screen,10_29_1,2023-11-15T19:59:54.704Z,,,,,,,,,,NaN,,,,,,,,low,high,,,,,,false,,,,false,1151890.5,1151890.3999999762,,1151890.300000012,,1151892.177,4,500,,
break_continue,html.Screen,10_29_2,2023-11-15T19:59:54.704Z,,,,,,,,,,NaN,,,,,,,,low,high,,,,,,false,,,,false,1151890.699999988,1151890.5999999642,,1151890.5999999642,,1151892.177,4,500,,
sequence,flow.Sequence,10_29,2023-11-15T19:59:54.704Z,,,,,,,,,,4898.3269999641925,completion,,,,,,,low,high,,,,,,false,,,,false,1151890.699999988,1151890.5999999642,1146975.679,1146977.8999999762,1146992.273,1151892.177,4,500,,
trial,html.Screen,10_30_0,2023-11-15T19:59:59.984Z,,,,1,-0.0311884318403233,0.0697810882761999,,false,ll,5277.623000012012,response,-0.8093923499033241,1.055,-0.7883077508638237,-0.7592116102410887,0.7149832528854108,-0.8548084792664558,low,low,,ISIC_4870676.JPG,9,ISIC_1208705.JPG,213,false,hl,keypress(j),0,false,1157169.8999999762,1157169.800000012,1151875.488,1151890.800000012,1151892.177,1157175.481,4,500,31,
break,html.Screen,10_30_1,2023-11-15T19:59:59.984Z,,,,,,,,,,NaN,,,,,,,,low,low,,,,,,false,,,,false,1157170.199999988,1157170.199999988,,1157170,,1157175.481,4,500,,
break_continue,html.Screen,10_30_2,2023-11-15T19:59:59.984Z,,,,,,,,,,NaN,,,,,,,,low,low,,,,,,false,,,,false,1157170.3999999762,1157170.3999999762,,1157170.300000012,,1157175.481,4,500,,
sequence,flow.Sequence,10_30,2023-11-15T19:59:59.984Z,,,,,,,,,,5278.222999976249,completion,,,,,,,low,low,,,,,,false,,,,false,1157170.5,1157170.3999999762,1151875.488,1151890.800000012,1151892.177,1157175.481,4,500,,
trial,html.Screen,10_31_0,2023-11-15T20:00:06.720Z,,,,1,-0.0514357258480358,-0.006520984995476,,true,lh,6730.718999988167,response,-0.9394943755829636,1.055,-0.7883077508638237,0.7928025019302636,0.7149832528854108,-0.8548084792664558,low,high,,ISIC_0031386.JPG,9,ISIC_0071550.JPG,103,false,lh,keypress(e),0,false,1163906.300000012,1163906.199999988,1157159.304,1157170.5,1157175.481,1163908.841,4,500,32,
break,html.Screen,10_31_1,2023-11-15T20:00:06.720Z,,,,,,,,,,NaN,,,,,,,,low,high,,,,,,false,,,,false,1163906.5999999642,1163906.5,,1163906.300000012,,1163908.841,4,500,,
break_continue,html.Screen,10_31_2,2023-11-15T20:00:06.720Z,,,,,,,,,,NaN,,,,,,,,low,high,,,,,,false,,,,false,1163906.800000012,1163906.699999988,,1163906.699999988,,1163908.841,4,500,,
sequence,flow.Sequence,10_31,2023-11-15T20:00:06.721Z,,,,,,,,,,6731.218999988167,completion,,,,,,,low,high,,,,,,false,,,,false,1163906.800000012,1163906.699999988,1157159.304,1157170.5,1157175.481,1163908.841,4,500,,
trial,html.Screen,10_32_0,2023-11-15T20:00:14.096Z,,,,1,0.0534676262527691,0.0384996820289673,,false,lh,7373.258999964222,response,-0.8992797280914934,1.055,-0.7883077508638237,0.6402034354815018,0.7149832528854108,-0.8548084792664558,low,high,,ISIC_0030484.JPG,9,ISIC_7980339.JPG,103,false,hl,keypress(j),0,false,1171282.0999999642,1171282.0999999642,1163892.325,1163906.8999999762,1163908.841,1171292.311,4,500,33,
break,html.Screen,10_32_1,2023-11-15T20:00:14.096Z,,,,,,,,,,NaN,,,,,,,,low,high,,,,,,false,,,,false,1171282.3999999762,1171282.300000012,,1171282.199999988,,1171292.311,4,500,,
break_continue,html.Screen,10_32_2,2023-11-15T20:00:14.096Z,,,,,,,,,,NaN,,,,,,,,low,high,,,,,,false,,,,false,1171282.5999999642,1171282.5,,1171282.3999999762,,1171292.311,4,500,,
sequence,flow.Sequence,10_32,2023-11-15T20:00:14.096Z,,,,,,,,,,7373.658999999985,completion,,,,,,,low,high,,,,,,false,,,,false,1171282.699999988,1171282.5,1163892.325,1163906.800000012,1163908.841,1171292.311,4,500,,
trial,html.Screen,10_33_0,2023-11-15T20:00:22.960Z,,,,1,0.0523524458062335,-0.0048771624512062,,true,hh,8853.888999988092,response,0.8989536012553516,1.055,-0.7883077508638237,0.7316945136423088,0.7149832528854108,-0.8548084792664558,high,high,,ISIC_0010379.JPG,9,ISIC_0032903.JPG,176,false,hh,keypress(i),0,false,1180146.199999988,1180146.199999988,1171275.801,1171282.699999988,1171292.311,1180158.861,4,500,34,
break,html.Screen,10_33_1,2023-11-15T20:00:22.960Z,,,,,,,,,,NaN,,,,,,,,high,high,,,,,,false,,,,false,1180146.5999999642,1180146.5,,1180146.300000012,,1180158.861,4,500,,
break_continue,html.Screen,10_33_2,2023-11-15T20:00:22.961Z,,,,,,,,,,NaN,,,,,,,,high,high,,,,,,false,,,,false,1180146.800000012,1180146.699999988,,1180146.5999999642,,1180158.861,4,500,,
sequence,flow.Sequence,10_33,2023-11-15T20:00:22.961Z,,,,,,,,,,8854.388999988092,completion,,,,,,,high,high,,,,,,false,,,,false,1180146.8999999762,1180146.699999988,1171275.801,1171282.699999988,1171292.311,1180158.861,4,500,,
trial,html.Screen,10_34_0,2023-11-15T20:00:26.207Z,,,,1,0.0539169177295974,-0.039571352787207,,true,lh,3234.5389999761246,response,-0.5988876403407154,1.055,-0.7883077508638237,0.8029173639439272,0.7149832528854108,-0.8548084792664558,low,high,,ISIC_1076091.JPG,9,ISIC_2733043.JPG,103,false,lh,keypress(e),0,false,1183393.3999999762,1183393.3999999762,1180142.11,1180146.8999999762,1180158.861,1183409.156,4,500,35,
break,html.Screen,10_34_1,2023-11-15T20:00:26.207Z,,,,,,,,,,NaN,,,,,,,,low,high,,,,,,false,,,,false,1183393.699999988,1183393.5999999642,,1183393.5999999642,,1183409.156,4,500,,
break_continue,html.Screen,10_34_2,2023-11-15T20:00:26.208Z,,,,,,,,,,NaN,,,,,,,,low,high,,,,,,false,,,,false,1183393.8999999762,1183393.800000012,,1183393.699999988,,1183409.156,4,500,,
sequence,flow.Sequence,10_34,2023-11-15T20:00:26.208Z,,,,,,,,,,3234.9390000118874,completion,,,,,,,low,high,,,,,,false,,,,false,1183394,1183393.800000012,1180142.11,1180146.8999999762,1180158.861,1183409.156,4,500,,
trial,html.Screen,10_35_0,2023-11-15T20:00:32.864Z,,,,1,0.0560021488981517,-0.0058131881595011,,true,hh,6640.844000000041,response,1.2268183254476466,1.055,-0.7883077508638237,0.8828399683080101,0.7149832528854108,-0.8548084792664558,high,high,,ISIC_0000077.JPG,8,ISIC_0053541.JPG,176,false,hh,keypress(i),0,false,1190050.0999999642,1190050,1183392.535,1183394,1183409.156,1190075.967,4,500,36,
break,html.Screen,10_35_1,2023-11-15T20:00:32.864Z,,,,,,,,,,NaN,,,,,,,,high,high,,,,,,false,,,,false,1190050.300000012,1190050.300000012,,1190050.199999988,,1190075.967,4,500,,
break_continue,html.Screen,10_35_2,2023-11-15T20:00:32.864Z,,,,,,,,,,NaN,,,,,,,,high,high,,,,,,false,,,,false,1190050.5,1190050.3999999762,,1190050.300000012,,1190075.967,4,500,,
sequence,flow.Sequence,10_35,2023-11-15T20:00:32.864Z,,,,,,,,,,6641.243999976199,completion,,,,,,,high,high,,,,,,false,,,,false,1190050.5999999642,1190050.3999999762,1183392.535,1183394,1183409.156,1190075.967,4,500,,
trial,html.Screen,10_36_0,2023-11-15T20:00:40.305Z,,,,1,-0.0597592587797575,,,false,lh,7414.033000000054,response,-0.9087169856594104,1.055,-0.7883077508638237,0.8835647084207277,0.7149832528854108,-0.8548084792664558,low,high,,ISIC_0071367.JPG,9,ISIC_0000349.JPG,103,false,ll,keypress(f),0,false,1197490.199999988,1197490,1190059.286,1190050.5999999642,1190075.967,1197492.147,4,500,37,
break,html.Screen,10_36_1,2023-11-15T20:00:40.305Z,,,,,,,,,,NaN,,,,,,,,low,high,,,,,,false,,,,false,1197490.5,1197490.3999999762,,1197490.300000012,,1197492.147,4,500,,
break_continue,html.Screen,10_36_2,2023-11-15T20:00:40.305Z,,,,,,,,,,NaN,,,,,,,,low,high,,,,,,false,,,,false,1197490.800000012,1197490.699999988,,1197490.5999999642,,1197492.147,4,500,,
sequence,flow.Sequence,10_36,2023-11-15T20:00:40.305Z,,,,,,,,,,7414.732999988133,completion,,,,,,,low,high,,,,,,false,,,,false,1197490.800000012,1197490.699999988,1190059.286,1190050.5999999642,1190075.967,1197492.147,4,500,,
