pID,condition,block_no,trial_no,stimulus,response,correct,rt,age,gender
69,ac,1,1,hl,lh,FALSE,10150.3,19,male
69,ac,1,2,hh,hh,TRUE,5365.3,19,male
69,ac,1,3,hl,hl,TRUE,2206.5,19,male
69,ac,1,4,ll,ll,TRUE,2008.1999999999998,19,male
69,ac,1,5,hl,lh,FALSE,5473.6,19,male
69,ac,1,6,ll,ll,TRUE,4141.6,19,male
69,ac,1,7,lh,lh,TRUE,1207.9,19,male
69,ac,1,8,lh,lh,TRUE,5626.2,19,male
69,ac,1,9,lh,lh,TRUE,1488.4,19,male
69,ac,1,10,hh,lh,FALSE,7860.6,19,male
69,ac,1,11,hl,ll,FALSE,6594.1,19,male
69,ac,1,12,hl,hl,TRUE,10272.6,19,male
69,ac,1,13,hh,ll,FALSE,2697.1,19,male
69,ac,1,14,ll,hl,FALSE,4942.3,19,male
69,ac,1,15,ll,ll,TRUE,3617.1000000000004,19,male
69,ac,1,16,ll,ll,TRUE,6529.5,19,male
69,ac,1,17,ll,lh,FALSE,3554.1000000000004,19,male
69,ac,1,18,lh,lh,TRUE,6058.2,19,male
69,ac,1,19,hh,hh,TRUE,3008,19,male
69,ac,1,20,hh,hl,FALSE,11074,19,male
69,ac,1,21,hl,ll,FALSE,5495.8,19,male
69,ac,1,22,ll,hl,FALSE,10106.5,19,male
69,ac,1,23,lh,hh,FALSE,4724.4,19,male
69,ac,1,24,hh,hh,TRUE,4111.5,19,male
69,ac,1,25,hl,lh,FALSE,13491.5,19,male
69,ac,1,26,hl,ll,FALSE,6520,19,male
69,ac,1,27,ll,ll,TRUE,2907,19,male
69,ac,1,28,ll,ll,TRUE,3071.1,19,male
69,ac,1,29,hh,lh,FALSE,1677.1999999999998,19,male
69,ac,1,30,hl,ll,FALSE,5637,19,male
69,ac,1,31,hl,hl,TRUE,10801.7,19,male
69,ac,1,32,hh,lh,FALSE,10381.2,19,male
69,ac,1,33,ll,ll,TRUE,4392.7,19,male
69,ac,1,34,ll,ll,TRUE,4625.5,19,male
69,ac,1,35,ll,hh,FALSE,11080.6,19,male
69,ac,1,36,hh,lh,FALSE,1487.6,19,male
69,ac,1,37,hl,hl,TRUE,4667.7,19,male
69,ac,1,38,lh,lh,TRUE,1235.4,19,male
69,ac,1,39,lh,lh,TRUE,867.904,19,male
69,ac,1,40,hl,hh,FALSE,9586.1,19,male
69,ac,1,41,hh,hh,TRUE,1865.3000000000002,19,male
69,ac,1,42,hh,hh,TRUE,864.2,19,male
69,ac,1,43,hl,lh,FALSE,7385.700000000001,19,male
69,ac,1,44,ll,ll,TRUE,3807.268,19,male
69,ac,1,45,ll,hl,FALSE,9320.3,19,male
69,ac,1,46,hh,ll,FALSE,3748.6000000000004,19,male
69,ac,1,47,,,FALSE,15013.4,19,male
69,ac,1,48,ll,lh,FALSE,3821.8999999999996,19,male
69,ac,1,49,hl,ll,FALSE,3555,19,male
69,ac,1,50,ll,hh,FALSE,2647,19,male
69,ac,1,51,lh,lh,TRUE,1510.6999999999998,19,male
69,ac,1,52,hh,lh,FALSE,1212.5,19,male
69,ac,1,53,hl,hh,FALSE,1783.1,19,male
69,ac,1,54,ll,lh,FALSE,2747,19,male
69,ac,1,55,ll,ll,TRUE,5717.8,19,male
69,ac,1,56,hl,hh,FALSE,1912.4,19,male
69,ac,1,57,ll,ll,TRUE,2493.9,19,male
69,ac,1,58,ll,hh,FALSE,2836.3,19,male
69,ac,1,59,lh,lh,TRUE,1315.6999999999998,19,male
69,ac,1,60,hh,lh,FALSE,4802,19,male
69,ac,1,61,ll,hh,FALSE,3778,19,male
69,ac,1,62,lh,lh,TRUE,2899.348,19,male
69,ac,1,63,ll,lh,FALSE,4945,19,male
69,ac,1,64,hl,hh,FALSE,2560.3,19,male
69,ac,1,65,hh,lh,FALSE,4709.7,19,male
69,ac,1,66,lh,hl,FALSE,6985.5,19,male
69,ac,1,67,lh,hh,FALSE,5296.4,19,male
69,ac,1,68,hl,ll,FALSE,8539.8,19,male
69,ac,1,69,hl,hh,FALSE,6489.6,19,male
69,ac,1,70,hh,ll,FALSE,6772.8,19,male
69,ac,1,71,hh,hh,TRUE,2747.1,19,male
69,ac,1,72,ll,hh,FALSE,3766.8,19,male
69,ac,1,73,hh,hh,TRUE,3481.7,19,male
69,ac,1,74,ll,hh,FALSE,6439.1,19,male
69,ac,1,75,hh,ll,FALSE,5755.7,19,male
69,ac,1,76,ll,hl,FALSE,2571.4,19,male
69,ac,1,77,hh,lh,FALSE,3934.5,19,male
69,ac,1,78,hl,hl,TRUE,10644.52,19,male
69,ac,1,79,hl,hh,FALSE,6146.1,19,male
69,ac,1,80,ll,lh,FALSE,5529.7,19,male
69,ac,1,81,ll,lh,FALSE,2941.3,19,male
69,ac,1,82,lh,hh,FALSE,2928.4,19,male
69,ac,1,83,lh,hh,FALSE,4157.4,19,male
69,ac,1,84,hl,lh,FALSE,7254.4,19,male
69,ac,1,85,lh,ll,FALSE,6682.2,19,male
69,ac,1,86,hh,lh,FALSE,1541.6999999999998,19,male
69,ac,1,87,lh,hh,FALSE,2666.3,19,male
69,ac,1,88,hh,hh,TRUE,1079.5,19,male
69,ac,1,89,hh,lh,FALSE,2569,19,male
69,ac,1,90,lh,ll,FALSE,9947.2,19,male
69,ac,1,91,hh,hh,TRUE,3488.8999999999996,19,male
69,ac,1,92,ll,lh,FALSE,7454.1,19,male
69,ac,1,93,hh,hh,TRUE,2041.4,19,male
69,ac,1,94,hl,lh,FALSE,11074.1,19,male
69,ac,1,95,hh,lh,FALSE,8114.200000000001,19,male
69,ac,1,96,ll,hh,FALSE,3424.2,19,male
69,ac,1,97,ll,ll,TRUE,6714.5,19,male
69,ac,1,98,hl,hh,FALSE,2580.7,19,male
69,ac,1,99,ll,ll,TRUE,5518.8,19,male
69,ac,1,100,hl,lh,FALSE,5744.3,19,male
69,ac,1,101,ll,ll,TRUE,8393.7,19,male
69,ac,1,102,lh,hh,FALSE,3366.7,19,male
69,ac,1,103,ll,lh,FALSE,3909.8999999999996,19,male
69,ac,1,104,ll,ll,TRUE,4426.8,19,male
69,ac,1,105,hh,lh,FALSE,1016.8,19,male
69,ac,1,106,hh,hh,TRUE,1371.6999999999998,19,male
69,ac,1,107,ll,hh,FALSE,1041.1,19,male
69,ac,1,108,hh,hh,TRUE,1250.6,19,male
69,ac,1,109,lh,hh,FALSE,922.2,19,male
69,ac,1,110,hl,hl,TRUE,6790.17,19,male
69,ac,1,111,hh,hh,TRUE,3500.1000000000004,19,male
69,ac,1,112,lh,hl,FALSE,1868.9,19,male
69,ac,1,113,hh,hh,TRUE,3071.9,19,male
69,ac,1,114,hh,hh,TRUE,13329.7,19,male
69,ac,1,115,lh,hh,FALSE,3629.3,19,male
69,ac,1,116,lh,hh,FALSE,1590.6999999999998,19,male
69,ac,1,117,hh,lh,FALSE,2696.8,19,male
69,ac,1,118,lh,hh,FALSE,1661,19,male
69,ac,1,119,ll,ll,TRUE,5114.1,19,male
69,ac,1,120,hl,lh,FALSE,5624,19,male
69,ac,2,1,ll,hh,FALSE,3221.5,19,male
69,ac,2,2,ll,lh,FALSE,4221,19,male
69,ac,2,3,ll,hh,FALSE,1524.4,19,male
69,ac,2,4,ll,hh,FALSE,1322.3000000000002,19,male
69,ac,2,5,hl,hl,TRUE,1871.4,19,male
69,ac,2,6,hl,hh,FALSE,1422,19,male
69,ac,2,7,hh,lh,FALSE,2344.2,19,male
69,ac,2,8,hh,hh,TRUE,1059.6,19,male
69,ac,2,9,hh,hh,TRUE,1892.8000000000002,19,male
69,ac,2,10,hh,lh,FALSE,2723.2,19,male
69,ac,2,11,lh,lh,TRUE,1767.5,19,male
69,ac,2,12,lh,lh,TRUE,1257.3000000000002,19,male
69,ac,2,13,hl,lh,FALSE,6870.5,19,male
69,ac,2,14,hl,lh,FALSE,1277.1999999999998,19,male
69,ac,2,15,lh,ll,FALSE,5523.6,19,male
69,ac,2,16,hl,ll,FALSE,4909.9,19,male
69,ac,2,17,lh,hh,FALSE,2192.5,19,male
69,ac,2,18,hl,ll,FALSE,13395.1,19,male
69,ac,2,19,hl,ll,FALSE,3040.8,19,male
69,ac,2,20,hh,hl,FALSE,6371.7,19,male
69,ac,2,21,lh,hh,FALSE,2903.8,19,male
69,ac,2,22,hh,lh,FALSE,5078.7,19,male
69,ac,2,23,hh,hh,TRUE,4011.3999999999996,19,male
69,ac,2,24,hl,ll,FALSE,4443.6,19,male
69,ac,2,25,lh,hh,FALSE,2153.644,19,male
69,ac,2,26,ll,hh,FALSE,1237,19,male
69,ac,2,27,lh,hh,FALSE,805.8,19,male
69,ac,2,28,ll,ll,TRUE,2120.9,19,male
69,ac,2,29,hh,hh,TRUE,6534.3,19,male
69,ac,2,30,lh,hh,FALSE,798.2,19,male
69,ac,2,31,hh,lh,FALSE,1414.5,19,male
69,ac,2,32,lh,lh,TRUE,1755.1999999999998,19,male
69,ac,2,33,hl,ll,FALSE,4608.1,19,male
69,ac,2,34,ll,lh,FALSE,4405.6,19,male
69,ac,2,35,ll,hl,FALSE,9342.4,19,male
69,ac,2,36,ll,hh,FALSE,2156.5,19,male
69,ac,2,37,hh,hh,TRUE,1480.1,19,male
69,ac,2,38,ll,lh,FALSE,5647.7,19,male
69,ac,2,39,lh,ll,FALSE,5340.3,19,male
69,ac,2,40,lh,hh,FALSE,12720,19,male
69,ac,2,41,hh,lh,FALSE,1930.6999999999998,19,male
69,ac,2,42,hl,hh,FALSE,12056.3,19,male
69,ac,2,43,hl,hh,FALSE,1087.1,19,male
69,ac,2,44,hh,ll,FALSE,1767,19,male
69,ac,2,45,hh,hh,TRUE,1473,19,male
69,ac,2,46,ll,hl,FALSE,1192.4,19,male
69,ac,2,47,hh,hh,TRUE,1460.3000000000002,19,male
69,ac,2,48,hh,hl,FALSE,1236.5,19,male
69,ac,2,49,hl,lh,FALSE,1765.3000000000002,19,male
69,ac,2,50,ll,hh,FALSE,1998.8000000000002,19,male
69,ac,2,51,lh,hh,FALSE,3736.068,19,male
69,ac,2,52,hl,hl,TRUE,9253.4,19,male
69,ac,2,53,ll,ll,TRUE,2917.706,19,male
69,ac,2,54,ll,ll,TRUE,2957.7,19,male
69,ac,2,55,hh,hh,TRUE,3978.8,19,male
69,ac,2,56,hh,lh,FALSE,2465.3,19,male
69,ac,2,57,lh,hh,FALSE,3424.3999999999996,19,male
69,ac,2,58,hl,hl,TRUE,5897.2,19,male
69,ac,2,59,lh,hh,FALSE,3939.7,19,male
69,ac,2,60,lh,hh,FALSE,1574.3000000000002,19,male
69,ac,2,61,hl,hl,TRUE,3025.9,19,male
69,ac,2,62,lh,hh,FALSE,7146,19,male
69,ac,2,63,hl,hh,FALSE,889.2,19,male
69,ac,2,64,ll,ll,TRUE,4504.3,19,male
69,ac,2,65,hh,ll,FALSE,2748.5,19,male
69,ac,2,66,lh,ll,FALSE,8824.8,19,male
69,ac,2,67,,,FALSE,15013.5,19,male
69,ac,2,68,hh,hh,TRUE,1635.3000000000002,19,male
69,ac,2,69,lh,hh,FALSE,2823,19,male
69,ac,2,70,ll,lh,FALSE,3887.2,19,male
69,ac,2,71,hh,hh,TRUE,955.5,19,male
69,ac,2,72,hl,hh,FALSE,870.9000000000001,19,male
69,ac,2,73,hl,ll,FALSE,3456.1000000000004,19,male
69,ac,2,74,hl,hh,FALSE,8287,19,male
69,ac,2,75,hh,hh,TRUE,960.5,19,male
69,ac,2,76,hh,hl,FALSE,1549.1,19,male
69,ac,2,77,lh,hh,FALSE,2000.1,19,male
69,ac,2,78,hh,lh,FALSE,3107.2,19,male
69,ac,2,79,ll,hh,FALSE,2449.2,19,male
69,ac,2,80,hl,hh,FALSE,7176.876,19,male
69,ac,2,81,lh,hh,FALSE,1942.3000000000002,19,male
69,ac,2,82,hl,hl,TRUE,6587.6,19,male
69,ac,2,83,lh,hh,FALSE,1584.1999999999998,19,male
69,ac,2,84,hh,hh,TRUE,1259.6,19,male
69,ac,2,85,lh,hh,FALSE,1336.3000000000002,19,male
69,ac,2,86,hl,hh,FALSE,1075.1,19,male
69,ac,2,87,hh,hh,TRUE,818.8,19,male
69,ac,2,88,hl,ll,FALSE,3763.2,19,male
69,ac,2,89,ll,hh,FALSE,1868.1999999999998,19,male
69,ac,2,90,ll,hh,FALSE,7492.9,19,male
69,ac,2,91,ll,hl,FALSE,5516.5,19,male
69,ac,2,92,hh,ll,FALSE,2215.7,19,male
69,ac,2,93,lh,ll,FALSE,5354.1,19,male
69,ac,2,94,ll,ll,TRUE,2089.9,19,male
69,ac,2,95,hl,hh,FALSE,1353.1,19,male
69,ac,2,96,ll,hh,FALSE,1453,19,male
69,ac,2,97,hh,lh,FALSE,5701.5,19,male
69,ac,2,98,ll,hh,FALSE,1272.3000000000002,19,male
69,ac,2,99,lh,hh,FALSE,967.9000000000001,19,male
69,ac,2,100,hh,lh,FALSE,2246.9,19,male
69,ac,2,101,lh,hh,FALSE,1028,19,male
69,ac,2,102,hl,lh,FALSE,2061.4,19,male
69,ac,2,103,ll,ll,TRUE,1808.6999999999998,19,male
69,ac,2,104,ll,lh,FALSE,7917.700000000001,19,male
69,ac,2,105,hl,hh,FALSE,2023.1,19,male
69,ac,2,106,ll,hh,FALSE,1967.6,19,male
69,ac,2,107,ll,ll,TRUE,3618.5,19,male
69,ac,2,108,ll,hh,FALSE,1685.6,19,male
69,ac,2,109,lh,hh,FALSE,1056.4,19,male
69,ac,2,110,lh,hh,FALSE,2639.7,19,male
69,ac,2,111,hh,ll,FALSE,7809.9,19,male
69,ac,2,112,ll,hh,FALSE,1611.3000000000002,19,male
69,ac,2,113,ll,ll,TRUE,2447,19,male
69,ac,2,114,hh,hh,TRUE,919.5999999999999,19,male
69,ac,2,115,ll,ll,TRUE,1500.3000000000002,19,male
69,ac,2,116,hh,hh,TRUE,899.0999999999999,19,male
69,ac,2,117,ll,lh,FALSE,2155,19,male
69,ac,2,118,hl,lh,FALSE,1589.8000000000002,19,male
69,ac,2,119,lh,hh,FALSE,1330.6,19,male
69,ac,2,120,hl,hh,FALSE,2166.5,19,male
69,ac,3,1,hl,hh,FALSE,2710.6,19,male
69,ac,3,2,ll,hl,FALSE,3123.3999999999996,19,male
69,ac,3,3,ll,hh,FALSE,1553.4,19,male
69,ac,3,4,lh,ll,FALSE,3098.8999999999996,19,male
69,ac,3,5,hl,hh,FALSE,1785.1,19,male
69,ac,3,6,hh,hh,TRUE,851.2,19,male
69,ac,3,7,lh,hh,FALSE,1060.6,19,male
69,ac,3,8,ll,hh,FALSE,1915.882,19,male
69,ac,3,9,hh,ll,FALSE,2317.8,19,male
69,ac,3,10,lh,hh,FALSE,1246.8000000000002,19,male
69,ac,3,11,hh,hl,FALSE,3552.304,19,male
69,ac,3,12,lh,hh,FALSE,1604.6999999999998,19,male
69,ac,3,13,hl,hh,FALSE,3438.7,19,male
69,ac,3,14,hl,hh,FALSE,4004,19,male
69,ac,3,15,hl,hl,TRUE,1723.5,19,male
69,ac,3,16,lh,hh,FALSE,2312.9,19,male
69,ac,3,17,hl,hh,FALSE,1178.5,19,male
69,ac,3,18,lh,hh,FALSE,3801.8999999999996,19,male
69,ac,3,19,hl,ll,FALSE,2102.9,19,male
69,ac,3,20,hl,hh,FALSE,3519,19,male
69,ac,3,21,ll,hh,FALSE,4218.4,19,male
69,ac,3,22,ll,lh,FALSE,3230.8999999999996,19,male
69,ac,3,23,hh,hl,FALSE,5139,19,male
69,ac,3,24,hh,hh,TRUE,2675.7,19,male
69,ac,3,25,lh,hh,FALSE,3509.3,19,male
69,ac,3,26,hl,hh,FALSE,1870.6999999999998,19,male
69,ac,3,27,hl,hh,FALSE,2165.5,19,male
69,ac,3,28,ll,hh,FALSE,886.076,19,male
69,ac,3,29,hl,hh,FALSE,4640.4,19,male
69,ac,3,30,lh,hh,FALSE,2990.6,19,male
69,ac,3,31,ll,hl,FALSE,1340.8000000000002,19,male
69,ac,3,32,hh,hh,TRUE,884.2,19,male
69,ac,3,33,hl,hh,FALSE,1131.8000000000002,19,male
69,ac,3,34,lh,hh,FALSE,977.9000000000001,19,male
69,ac,3,35,lh,lh,TRUE,1404.3000000000002,19,male
69,ac,3,36,ll,ll,TRUE,2582.5,19,male
69,ac,3,37,ll,ll,TRUE,1145.1999999999998,19,male
69,ac,3,38,lh,hh,FALSE,2226.2,19,male
69,ac,3,39,hh,hh,TRUE,3838.7,19,male
69,ac,3,40,lh,hh,FALSE,877.5999999999999,19,male
69,ac,3,41,lh,hh,FALSE,4141.3,19,male
69,ac,3,42,lh,ll,FALSE,6263.4,19,male
69,ac,3,43,lh,ll,FALSE,1983.3000000000002,19,male
69,ac,3,44,hl,hh,FALSE,4149.3,19,male
69,ac,3,45,hl,hh,FALSE,2213.8,19,male
69,ac,3,46,hh,hh,TRUE,2869.4,19,male
69,ac,3,47,hh,lh,FALSE,4983.4,19,male
69,ac,3,48,hh,hh,TRUE,793.8,19,male
69,ac,3,49,lh,hh,FALSE,755.9000000000001,19,male
69,ac,3,50,hl,hh,FALSE,5587.5,19,male
69,ac,3,51,lh,hh,FALSE,759.9000000000001,19,male
69,ac,3,52,lh,lh,TRUE,363.4000000000001,19,male
69,ac,3,53,hl,hl,TRUE,208.9000000000001,19,male
69,ac,3,54,ll,hh,FALSE,3216.5699999999997,19,male
69,ac,3,55,hl,hh,FALSE,884.0999999999999,19,male
69,ac,3,56,lh,hh,FALSE,835.7,19,male
69,ac,3,57,hh,hh,TRUE,1163.6,19,male
69,ac,3,58,hl,lh,FALSE,1360.9,19,male
69,ac,3,59,ll,hh,FALSE,1109.1999999999998,19,male
69,ac,3,60,lh,hh,FALSE,1041.4,19,male
69,ac,3,61,hh,hh,TRUE,891,19,male
69,ac,3,62,hh,hl,FALSE,1482.2359999999999,19,male
69,ac,3,63,lh,hh,FALSE,954.5,19,male
69,ac,3,64,ll,lh,FALSE,892.5999999999999,19,male
69,ac,3,65,hl,hl,TRUE,1043.6,19,male
69,ac,3,66,lh,hh,FALSE,820.3,19,male
69,ac,3,67,hh,hh,TRUE,768.9000000000001,19,male
69,ac,3,68,ll,ll,TRUE,1835.4,19,male
69,ac,3,69,lh,hh,FALSE,1026.3,19,male
69,ac,3,70,hl,hh,FALSE,1107.1999999999998,19,male
69,ac,3,71,hh,lh,FALSE,2586.4,19,male
69,ac,3,72,lh,hh,FALSE,1111,19,male
69,ac,3,73,lh,hh,FALSE,1762.5,19,male
69,ac,3,74,hl,lh,FALSE,1552.04,19,male
69,ac,3,75,ll,hl,FALSE,1348.1,19,male
69,ac,3,76,hl,hh,FALSE,1927,19,male
69,ac,3,77,hl,hh,FALSE,1299.1999999999998,19,male
69,ac,3,78,hh,ll,FALSE,2646.6,19,male
69,ac,3,79,ll,hh,FALSE,1285.6999999999998,19,male
69,ac,3,80,ll,hh,FALSE,1305.3000000000002,19,male
69,ac,3,81,hh,hh,TRUE,2206.6,19,male
69,ac,3,82,lh,hh,FALSE,1157.5,19,male
69,ac,3,83,lh,hh,FALSE,1261.8000000000002,19,male
69,ac,3,84,lh,hh,FALSE,1252.8000000000002,19,male
69,ac,3,85,ll,ll,TRUE,1450.6999999999998,19,male
69,ac,3,86,ll,hl,FALSE,2468.2,19,male
69,ac,3,87,lh,hh,FALSE,6167.6,19,male
69,ac,3,88,lh,ll,FALSE,2204.9,19,male
69,ac,3,89,hh,hh,TRUE,971.5,19,male
69,ac,3,90,hl,hh,FALSE,2992.5,19,male
69,ac,3,91,hl,lh,FALSE,6714.5,19,male
69,ac,3,92,hl,lh,FALSE,3167.6000000000004,19,male
69,ac,3,93,hl,ll,FALSE,3202.7,19,male
69,ac,3,94,ll,hh,FALSE,3766.7,19,male
69,ac,3,95,hl,hh,FALSE,927,19,male
69,ac,3,96,lh,lh,TRUE,1379.8000000000002,19,male
69,ac,3,97,hl,hh,FALSE,2706,19,male
69,ac,3,98,ll,ll,TRUE,1815.8000000000002,19,male
69,ac,3,99,ll,hh,FALSE,1155.4,19,male
69,ac,3,100,hh,hh,TRUE,2092.8,19,male
69,ac,3,101,ll,ll,TRUE,1443.1999999999998,19,male
69,ac,3,102,lh,hh,FALSE,7732.27,19,male
69,ac,3,103,hl,hh,FALSE,924.5999999999999,19,male
69,ac,3,104,ll,hh,FALSE,985.8,19,male
69,ac,3,105,lh,ll,FALSE,1365.4,19,male
69,ac,3,106,lh,hh,FALSE,1298.5,19,male
69,ac,3,107,hh,lh,FALSE,2419.8,19,male
69,ac,3,108,ll,lh,FALSE,2584.5,19,male
69,ac,3,109,lh,ll,FALSE,4033.3999999999996,19,male
69,ac,3,110,hl,lh,FALSE,2754.9,19,male
69,ac,3,111,lh,ll,FALSE,4237.8,19,male
69,ac,3,112,ll,ll,TRUE,1561.5,19,male
69,ac,3,113,hl,lh,FALSE,8319.1,19,male
69,ac,3,114,hl,hl,TRUE,4343.6,19,male
69,ac,3,115,lh,ll,FALSE,1479.1,19,male
69,ac,3,116,ll,ll,TRUE,1225.3000000000002,19,male
69,ac,3,117,hh,lh,FALSE,1843.5,19,male
69,ac,3,118,lh,lh,TRUE,1746.1999999999998,19,male
69,ac,3,119,ll,hh,FALSE,1394.3000000000002,19,male
69,ac,3,120,hh,lh,FALSE,1666.3000000000002,19,male
69,ac,4,1,lh,hh,FALSE,3413.5,19,male
69,ac,4,2,hl,hh,FALSE,870.2,19,male
69,ac,4,3,ll,ll,TRUE,3957.6000000000004,19,male
69,ac,4,4,hl,lh,FALSE,1658.6,19,male
69,ac,4,5,hl,lh,FALSE,4103.5,19,male
69,ac,4,6,hl,lh,FALSE,947.7,19,male
69,ac,4,7,hh,hh,TRUE,768.0999999999999,19,male
69,ac,4,8,ll,hh,FALSE,1339.6,19,male
69,ac,4,9,hh,hh,TRUE,2544.6,19,male
69,ac,4,10,lh,lh,TRUE,8068.5,19,male
69,ac,4,11,hh,lh,FALSE,2512.3,19,male
69,ac,4,12,hl,hh,FALSE,1555.8000000000002,19,male
69,ac,4,13,hl,lh,FALSE,1896.5,19,male
69,ac,4,14,hh,hh,TRUE,1601.8000000000002,19,male
69,ac,4,15,hh,hh,TRUE,1384.1,19,male
69,ac,4,16,lh,hh,FALSE,975.5,19,male
69,ac,4,17,ll,lh,FALSE,7486.299999999999,19,male
69,ac,4,18,hl,lh,FALSE,1675,19,male
69,ac,4,19,lh,hh,FALSE,2033.9,19,male
69,ac,4,20,lh,ll,FALSE,1417,19,male
69,ac,4,21,lh,ll,FALSE,1492.252,19,male
69,ac,4,22,hh,ll,FALSE,5742.8,19,male
69,ac,4,23,ll,hh,FALSE,1003.0999999999999,19,male
69,ac,4,24,lh,hh,FALSE,842.3,19,male
69,ac,4,25,ll,ll,TRUE,1550.1,19,male
69,ac,4,26,lh,hh,FALSE,1306.6999999999998,19,male
69,ac,4,27,hh,ll,FALSE,1670.6999999999998,19,male
69,ac,4,28,hh,ll,FALSE,2090.7,19,male
69,ac,4,29,hl,ll,FALSE,2145.9,19,male
69,ac,4,30,hl,ll,FALSE,1677.6,19,male
69,ac,4,31,lh,hh,FALSE,1282.3000000000002,19,male
69,ac,4,32,hh,lh,FALSE,3689.8999999999996,19,male
69,ac,4,33,hl,hh,FALSE,1923.3000000000002,19,male
69,ac,4,34,lh,hh,FALSE,1002.5999999999999,19,male
69,ac,4,35,hl,ll,FALSE,1124.1,19,male
69,ac,4,36,hh,lh,FALSE,1523.1999999999998,19,male
69,ac,4,37,hl,ll,FALSE,2033.5,19,male
69,ac,4,38,hh,lh,FALSE,4138.4,19,male
69,ac,4,39,lh,lh,TRUE,3277.1000000000004,19,male
69,ac,4,40,hh,hh,TRUE,1091.5,19,male
69,ac,4,41,hl,lh,FALSE,8736.6,19,male
69,ac,4,42,lh,hh,FALSE,1113.1999999999998,19,male
69,ac,4,43,lh,lh,TRUE,1350.6999999999998,19,male
69,ac,4,44,ll,hh,FALSE,1011.8,19,male
69,ac,4,45,lh,hh,FALSE,3213.3999999999996,19,male
69,ac,4,46,hh,lh,FALSE,1166.8780000000002,19,male
69,ac,4,47,ll,hh,FALSE,3970.3999999999996,19,male
69,ac,4,48,ll,lh,FALSE,979.9000000000001,19,male
69,ac,4,49,ll,hh,FALSE,2912.5,19,male
69,ac,4,50,hl,ll,FALSE,9853.7,19,male
69,ac,4,51,hh,ll,FALSE,1359.5,19,male
69,ac,4,52,ll,hh,FALSE,1410.4,19,male
69,ac,4,53,hl,ll,FALSE,3292.3999999999996,19,male
69,ac,4,54,lh,hh,FALSE,851,19,male
69,ac,4,55,hl,ll,FALSE,1110.8000000000002,19,male
69,ac,4,56,hh,hh,TRUE,1105.5,19,male
69,ac,4,57,lh,hh,FALSE,2343,19,male
69,ac,4,58,hh,ll,FALSE,2597.1,19,male
69,ac,4,59,lh,hh,FALSE,1310.3000000000002,19,male
69,ac,4,60,lh,hh,FALSE,787,19,male
69,ac,4,61,hh,hh,TRUE,957.3,19,male
69,ac,4,62,ll,hh,FALSE,1786.4,19,male
69,ac,4,63,hl,lh,FALSE,3061.9,19,male
69,ac,4,64,ll,hh,FALSE,1859.1999999999998,19,male
69,ac,4,65,ll,ll,TRUE,1707.5,19,male
69,ac,4,66,hl,hh,FALSE,6962.3,19,male
69,ac,4,67,lh,hh,FALSE,3800,19,male
69,ac,4,68,lh,hh,FALSE,874.7,19,male
69,ac,4,69,hl,hh,FALSE,793.8,19,male
69,ac,4,70,ll,hh,FALSE,1700.1999999999998,19,male
69,ac,4,71,lh,hh,FALSE,2171.9,19,male
69,ac,4,72,hl,hh,FALSE,1453.3000000000002,19,male
69,ac,4,73,hl,hh,FALSE,1478.1,19,male
69,ac,4,74,ll,lh,FALSE,2756.5,19,male
69,ac,4,75,ll,hh,FALSE,1551.5,19,male
69,ac,4,76,ll,lh,FALSE,7907.700000000001,19,male
69,ac,4,77,lh,hh,FALSE,940.5999999999999,19,male
69,ac,4,78,hh,hh,TRUE,1225.4,19,male
69,ac,4,79,ll,hh,FALSE,3019.4,19,male
69,ac,4,80,ll,hh,FALSE,6363.8,19,male
69,ac,4,81,hh,ll,FALSE,2355.9,19,male
69,ac,4,82,hh,hl,FALSE,1214.4,19,male
69,ac,4,83,hh,hl,FALSE,1489.3000000000002,19,male
69,ac,4,84,lh,ll,FALSE,3330.3999999999996,19,male
69,ac,4,85,hl,hh,FALSE,1662,19,male
69,ac,4,86,lh,hh,FALSE,1802.6,19,male
69,ac,4,87,lh,hh,FALSE,1325.5,19,male
69,ac,4,88,hh,lh,FALSE,4584.2,19,male
69,ac,4,89,ll,hl,FALSE,3578.8,19,male
69,ac,4,90,hh,ll,FALSE,2657.7,19,male
69,ac,4,91,ll,hh,FALSE,1732.1999999999998,19,male
69,ac,4,92,hh,hl,FALSE,2368.2,19,male
69,ac,4,93,hh,hh,TRUE,1237.3000000000002,19,male
69,ac,4,94,hh,hh,TRUE,1275.5,19,male
69,ac,4,95,hh,hl,FALSE,1283.9,19,male
69,ac,4,96,lh,hh,FALSE,1058.6999999999998,19,male
69,ac,4,97,hl,hh,FALSE,5483.1,19,male
69,ac,4,98,ll,ll,TRUE,1415,19,male
69,ac,4,99,hl,ll,FALSE,2658.2,19,male
69,ac,4,100,lh,hh,FALSE,1272.6999999999998,19,male
69,ac,4,101,hh,ll,FALSE,3815,19,male
69,ac,4,102,ll,ll,TRUE,1608,19,male
69,ac,4,103,hh,hh,TRUE,962.4000000000001,19,male
69,ac,4,104,ll,ll,TRUE,2286.6,19,male
69,ac,4,105,hl,hh,FALSE,1292.1999999999998,19,male
69,ac,4,106,hh,hl,FALSE,1633.8000000000002,19,male
69,ac,4,107,hl,ll,FALSE,2620.1,19,male
69,ac,4,108,lh,hh,FALSE,1196.6,19,male
69,ac,4,109,lh,hh,FALSE,1046.98,19,male
69,ac,4,110,lh,lh,TRUE,1520.1039999999998,19,male
69,ac,4,111,hh,hh,TRUE,1125.3000000000002,19,male
69,ac,4,112,hl,ll,FALSE,2531.6,19,male
69,ac,4,113,ll,hh,FALSE,1006.77,19,male
69,ac,4,114,ll,hl,FALSE,1790.5,19,male
69,ac,4,115,lh,ll,FALSE,1390.6,19,male
69,ac,4,116,ll,ll,TRUE,3798.8,19,male
69,ac,4,117,hh,ll,FALSE,1302.8000000000002,19,male
69,ac,4,118,hl,ll,FALSE,2376.2,19,male
69,ac,4,119,hh,ll,FALSE,1855.6,19,male
69,ac,4,120,lh,ll,FALSE,1647.4,19,male
69,ac,5,1,hl,hh,FALSE,1960.5,19,male
69,ac,5,2,lh,hh,FALSE,877.5,19,male
69,ac,5,3,lh,hh,FALSE,5340,19,male
69,ac,5,4,lh,hh,FALSE,813.5999999999999,19,male
69,ac,5,5,hh,hh,TRUE,1352.1999999999998,19,male
69,ac,5,6,hh,hh,TRUE,691.3,19,male
69,ac,5,7,hl,hh,FALSE,2004.6,19,male
69,ac,5,8,ll,ll,TRUE,1421.6,19,male
69,ac,5,9,hl,ll,FALSE,1715.3000000000002,19,male
69,ac,5,10,ll,hl,FALSE,2404.5,19,male
69,ac,5,11,hl,hh,FALSE,2022.6,19,male
69,ac,5,12,lh,hh,FALSE,2333.1,19,male
69,ac,5,13,hh,ll,FALSE,5738.2,19,male
69,ac,5,14,hh,hh,TRUE,4523.1,19,male
69,ac,5,15,hh,hh,TRUE,854.9000000000001,19,male
69,ac,5,16,hh,hh,TRUE,743.9000000000001,19,male
69,ac,5,17,ll,lh,FALSE,2885.3,19,male
69,ac,5,18,hl,lh,FALSE,7962,19,male
69,ac,5,19,hl,hl,TRUE,1771,19,male
69,ac,5,20,ll,ll,TRUE,3068.6,19,male
69,ac,5,21,hl,hh,FALSE,7963.6,19,male
69,ac,5,22,hl,lh,FALSE,7178,19,male
69,ac,5,23,lh,hh,FALSE,7161.9,19,male
69,ac,5,24,hl,hh,FALSE,776.5999999999999,19,male
69,ac,5,25,lh,lh,TRUE,3148.3999999999996,19,male
69,ac,5,26,ll,hh,FALSE,903.2,19,male
69,ac,5,27,hh,hh,TRUE,3021.9,19,male
69,ac,5,28,hl,ll,FALSE,1760.5,19,male
69,ac,5,29,hl,hh,FALSE,1401,19,male
69,ac,5,30,hh,hh,TRUE,1283,19,male
69,ac,5,31,hh,ll,FALSE,11026.4,19,male
69,ac,5,32,hh,hh,TRUE,1267.5,19,male
69,ac,5,33,lh,hl,FALSE,3147.6000000000004,19,male
69,ac,5,34,hh,hl,FALSE,1878.5,19,male
69,ac,5,35,hh,hh,TRUE,1839.1999999999998,19,male
69,ac,5,36,lh,ll,FALSE,2230.1,19,male
69,ac,5,37,hl,hh,FALSE,975.3,19,male
69,ac,5,38,hh,hh,TRUE,754.0999999999999,19,male
69,ac,5,39,hh,lh,FALSE,1487.4,19,male
69,ac,5,40,hl,ll,FALSE,2094.5,19,male
69,ac,5,41,hl,hh,FALSE,1181.1,19,male
69,ac,5,42,hl,ll,FALSE,1328.1999999999998,19,male
69,ac,5,43,hh,hl,FALSE,4278,19,male
69,ac,5,44,ll,hl,FALSE,1949,19,male
69,ac,5,45,hl,ll,FALSE,7559.01,19,male
69,ac,5,46,lh,hh,FALSE,4734,19,male
69,ac,5,47,hl,hh,FALSE,1865,19,male
69,ac,5,48,ll,ll,TRUE,2264.6,19,male
69,ac,5,49,hh,hh,TRUE,1271.6,19,male
69,ac,5,50,ll,ll,TRUE,2147.2,19,male
69,ac,5,51,lh,hh,FALSE,1597.8000000000002,19,male
69,ac,5,52,hl,lh,FALSE,3110.6000000000004,19,male
69,ac,5,53,hl,hh,FALSE,1923,19,male
69,ac,5,54,hl,hh,FALSE,975.9000000000001,19,male
69,ac,5,55,lh,hh,FALSE,363.5,19,male
69,ac,5,56,hh,hh,TRUE,3446.8999999999996,19,male
69,ac,5,57,lh,hh,FALSE,898,19,male
69,ac,5,58,hh,hh,TRUE,1362.4,19,male
69,ac,5,59,ll,hl,FALSE,5933.8,19,male
69,ac,5,60,hh,hh,TRUE,3819.8999999999996,19,male
69,ac,5,61,lh,hh,FALSE,915.0999999999999,19,male
69,ac,5,62,ll,hh,FALSE,4299.1,19,male
69,ac,5,63,lh,hh,FALSE,4206.7,19,male
69,ac,5,64,ll,hh,FALSE,1118.1999999999998,19,male
69,ac,5,65,ll,ll,TRUE,5023.9,19,male
69,ac,5,66,lh,ll,FALSE,2129.8,19,male
69,ac,5,67,lh,hh,FALSE,2470.7,19,male
69,ac,5,68,hl,ll,FALSE,1525.1999999999998,19,male
69,ac,5,69,hl,hh,FALSE,5875.9,19,male
69,ac,5,70,ll,ll,TRUE,6006.7,19,male
69,ac,5,71,lh,hh,FALSE,1028.8,19,male
69,ac,5,72,lh,hh,FALSE,350.9000000000001,19,male
69,ac,5,73,hh,hl,FALSE,5091.9,19,male
69,ac,5,74,hl,hh,FALSE,1441,19,male
69,ac,5,75,hl,ll,FALSE,2449.6,19,male
69,ac,5,76,ll,hh,FALSE,3376.6000000000004,19,male
69,ac,5,77,hh,hh,TRUE,1516,19,male
69,ac,5,78,hl,ll,FALSE,2758.568,19,male
69,ac,5,79,hh,hh,TRUE,1657.3000000000002,19,male
69,ac,5,80,hh,hh,TRUE,1041.9,19,male
69,ac,5,81,ll,hh,FALSE,1554.6,19,male
69,ac,5,82,ll,ll,TRUE,4238.6,19,male
69,ac,5,83,lh,hh,FALSE,1438,19,male
69,ac,5,84,hh,lh,FALSE,2390.2,19,male
69,ac,5,85,hl,hh,FALSE,2216.7,19,male
69,ac,5,86,ll,hh,FALSE,1458.5,19,male
69,ac,5,87,ll,ll,TRUE,5968.6,19,male
69,ac,5,88,lh,hl,FALSE,2490.1,19,male
69,ac,5,89,ll,ll,TRUE,1750.1,19,male
69,ac,5,90,lh,hl,FALSE,4879.1,19,male
69,ac,5,91,ll,hh,FALSE,1269.9,19,male
69,ac,5,92,ll,hl,FALSE,1687.6999999999998,19,male
69,ac,5,93,hh,hh,TRUE,1112.1,19,male
69,ac,5,94,hh,hl,FALSE,1929.1999999999998,19,male
69,ac,5,95,hh,hh,TRUE,1154.1,19,male
69,ac,5,96,lh,hl,FALSE,1533.6,19,male
69,ac,5,97,lh,lh,TRUE,1766,19,male
69,ac,5,98,hl,hl,TRUE,8026.1,19,male
69,ac,5,99,hl,hh,FALSE,946.3,19,male
69,ac,5,100,hl,hh,FALSE,1591.1,19,male
69,ac,5,101,hh,hh,TRUE,3602.6000000000004,19,male
69,ac,5,102,hh,ll,FALSE,4352.3,19,male
69,ac,5,103,ll,hh,FALSE,2354.3,19,male
69,ac,5,104,hl,hh,FALSE,3998.8,19,male
69,ac,5,105,ll,hl,FALSE,3600.8999999999996,19,male
69,ac,5,106,hh,hh,TRUE,1130.1999999999998,19,male
69,ac,5,107,ll,ll,TRUE,3552,19,male
69,ac,5,108,lh,hh,FALSE,824.8,19,male
69,ac,5,109,hl,ll,FALSE,2660.3,19,male
69,ac,5,110,lh,hl,FALSE,3618,19,male
69,ac,5,111,lh,ll,FALSE,2352.8,19,male
69,ac,5,112,hl,hh,FALSE,3764.8,19,male
69,ac,5,113,hh,hh,TRUE,2125.1,19,male
69,ac,5,114,lh,hh,FALSE,2239.1,19,male
69,ac,5,115,ll,lh,FALSE,3476,19,male
69,ac,5,116,lh,hh,FALSE,5538.4,19,male
69,ac,5,117,hl,lh,FALSE,4443.5,19,male
69,ac,5,118,ll,ll,TRUE,1841.3000000000002,19,male
69,ac,5,119,lh,hh,FALSE,841.5999999999999,19,male
69,ac,5,120,ll,hh,FALSE,1682.9,19,male
