pID,condition,block_no,trial_no,stimulus,response,correct,rt,age,gender
48,bc,1,1,hl,lh,FALSE,4434.301,18,male
48,bc,1,2,ll,ll,TRUE,1654.2849999999999,18,male
48,bc,1,3,hl,hh,FALSE,2853.902,18,male
48,bc,1,4,hh,hh,TRUE,2077.025,18,male
48,bc,1,5,ll,ll,TRUE,2459.648,18,male
48,bc,1,6,hh,hl,FALSE,4594.036,18,male
48,bc,1,7,lh,lh,TRUE,6047.121,18,male
48,bc,1,8,hl,hh,FALSE,4263.414,18,male
48,bc,1,9,ll,hl,FALSE,3658.758,18,male
48,bc,1,10,lh,lh,TRUE,3615.1270000000004,18,male
48,bc,1,11,hl,hl,TRUE,6045.553,18,male
48,bc,1,12,hl,hh,FALSE,6687.31,18,male
48,bc,1,13,hh,hh,TRUE,1788.54,18,male
48,bc,1,14,ll,hl,FALSE,4630.346,18,male
48,bc,1,15,lh,hh,FALSE,4634.448,18,male
48,bc,1,16,hl,hl,TRUE,1973.603,18,male
48,bc,1,17,hl,lh,FALSE,4081.682,18,male
48,bc,1,18,ll,hl,FALSE,5371.752,18,male
48,bc,1,19,ll,hl,FALSE,5416.467,18,male
48,bc,1,20,hh,hh,TRUE,1939.567,18,male
48,bc,1,21,hl,lh,FALSE,3879.4700000000003,18,male
48,bc,1,22,hl,ll,FALSE,5898.243,18,male
48,bc,1,23,hh,hl,FALSE,4449.259,18,male
48,bc,1,24,ll,ll,TRUE,4828.462,18,male
48,bc,1,25,ll,hh,FALSE,2983.965,18,male
48,bc,1,26,hl,hh,FALSE,5128.9,18,male
48,bc,1,27,hh,hh,TRUE,4696.365,18,male
48,bc,1,28,hh,hh,TRUE,1616.2220000000002,18,male
48,bc,1,29,ll,ll,TRUE,3947.6850000000004,18,male
48,bc,1,30,hl,ll,FALSE,3739.5780000000004,18,male
48,bc,1,31,hh,ll,FALSE,6860.617,18,male
48,bc,1,32,hh,hh,TRUE,2531.07,18,male
48,bc,1,33,lh,ll,FALSE,4407.24,18,male
48,bc,1,34,hh,lh,FALSE,4228.302,18,male
48,bc,1,35,ll,ll,TRUE,4000.898,18,male
48,bc,1,36,hh,hh,TRUE,2119.169,18,male
48,bc,1,37,ll,hh,FALSE,1989.1950000000002,18,male
48,bc,1,38,ll,ll,TRUE,2286.506,18,male
48,bc,1,39,lh,hh,FALSE,2060.828,18,male
48,bc,1,40,lh,hh,FALSE,4476.24,18,male
48,bc,1,41,ll,ll,TRUE,3215.0029999999997,18,male
48,bc,1,42,hl,hh,FALSE,5125.275,18,male
48,bc,1,43,lh,lh,TRUE,3180.5280000000002,18,male
48,bc,1,44,hl,hl,TRUE,5125.329,18,male
48,bc,1,45,hl,ll,FALSE,5180.447,18,male
48,bc,1,46,hl,hl,TRUE,2769.542,18,male
48,bc,1,47,ll,ll,TRUE,3322.4309999999996,18,male
48,bc,1,48,hl,hl,TRUE,4150.354,18,male
48,bc,1,49,ll,ll,TRUE,5734.206,18,male
48,bc,1,50,hh,hh,TRUE,3539.566,18,male
48,bc,1,51,hl,ll,FALSE,2933.087,18,male
48,bc,1,52,lh,lh,TRUE,5207.537,18,male
48,bc,1,53,hl,hh,FALSE,2451.833,18,male
48,bc,1,54,ll,ll,TRUE,1914.685,18,male
48,bc,1,55,ll,ll,TRUE,3328.6980000000003,18,male
48,bc,1,56,hl,ll,FALSE,2298.868,18,male
48,bc,1,57,hh,hh,TRUE,1696.5410000000002,18,male
48,bc,1,58,lh,lh,TRUE,3599.562,18,male
48,bc,1,59,lh,lh,TRUE,3734.7439999999997,18,male
48,bc,1,60,hl,hh,FALSE,2392.131,18,male
48,bc,1,61,lh,ll,FALSE,5752.518,18,male
48,bc,1,62,ll,hh,FALSE,3237.798,18,male
48,bc,1,63,lh,hl,FALSE,6316.298,18,male
48,bc,1,64,ll,ll,TRUE,3553.205,18,male
48,bc,1,65,lh,lh,TRUE,2962.013,18,male
48,bc,1,66,hh,lh,FALSE,2156.7,18,male
48,bc,1,67,ll,ll,TRUE,8095.025,18,male
48,bc,1,68,hh,lh,FALSE,4617.993,18,male
48,bc,1,69,hl,lh,FALSE,4246.175,18,male
48,bc,1,70,ll,hl,FALSE,5482.223,18,male
48,bc,1,71,hl,hl,TRUE,4586.964,18,male
48,bc,1,72,lh,lh,TRUE,2648.024,18,male
48,bc,1,73,lh,hh,FALSE,2271.011,18,male
48,bc,1,74,ll,ll,TRUE,2790.105,18,male
48,bc,1,75,ll,ll,TRUE,1607.058,18,male
48,bc,1,76,hh,ll,FALSE,4585.2,18,male
48,bc,1,77,ll,ll,TRUE,1367.77,18,male
48,bc,1,78,ll,ll,TRUE,1492.185,18,male
48,bc,1,79,hl,lh,FALSE,5410.831,18,male
48,bc,1,80,hl,hl,TRUE,3764.384,18,male
48,bc,1,81,hl,lh,FALSE,3989.6139999999996,18,male
48,bc,1,82,hh,hh,TRUE,1773.6640000000002,18,male
48,bc,1,83,hh,hh,TRUE,871.502,18,male
48,bc,1,84,ll,hl,FALSE,3480.3990000000003,18,male
48,bc,1,85,ll,ll,TRUE,2293.115,18,male
48,bc,1,86,lh,hh,FALSE,1602.4119999999998,18,male
48,bc,1,87,hh,hh,TRUE,1853.5169999999998,18,male
48,bc,1,88,hl,ll,FALSE,2220.671,18,male
48,bc,1,89,ll,ll,TRUE,1582.864,18,male
48,bc,1,90,lh,ll,FALSE,2584.967,18,male
48,bc,1,91,hh,lh,FALSE,4044.9669999999996,18,male
48,bc,1,92,hh,hh,TRUE,2078.822,18,male
48,bc,1,93,lh,ll,FALSE,6734.199,18,male
48,bc,1,94,lh,hh,FALSE,2745.398,18,male
48,bc,1,95,hh,hh,TRUE,2884.843,18,male
48,bc,1,96,hh,hh,TRUE,1192.226,18,male
48,bc,1,97,lh,ll,FALSE,3052.629,18,male
48,bc,1,98,hh,hh,TRUE,5674.213,18,male
48,bc,1,99,ll,ll,TRUE,1010.867,18,male
48,bc,1,100,ll,ll,TRUE,1541.9609999999998,18,male
48,bc,1,101,hl,hl,TRUE,3387.455,18,male
48,bc,1,102,ll,ll,TRUE,2098.83,18,male
48,bc,1,103,ll,hl,FALSE,5050.455,18,male
48,bc,1,104,hh,hh,TRUE,2803.614,18,male
48,bc,1,105,lh,lh,TRUE,4371.097,18,male
48,bc,1,106,hh,hh,TRUE,1635.277,18,male
48,bc,1,107,lh,lh,TRUE,4171.643,18,male
48,bc,1,108,hl,hl,TRUE,4467.655,18,male
48,bc,1,109,ll,ll,TRUE,2655.007,18,male
48,bc,1,110,ll,ll,TRUE,3084.967,18,male
48,bc,1,111,lh,lh,TRUE,3961.9350000000004,18,male
48,bc,1,112,lh,hh,FALSE,2088.769,18,male
48,bc,1,113,hl,hl,TRUE,4998.349,18,male
48,bc,1,114,lh,hh,FALSE,1363.9499999999998,18,male
48,bc,1,115,hl,hl,TRUE,3423.6629999999996,18,male
48,bc,1,116,hl,hl,TRUE,6150.709,18,male
48,bc,1,117,ll,ll,TRUE,2106.638,18,male
48,bc,1,118,lh,ll,FALSE,3895.937,18,male
48,bc,1,119,hh,lh,FALSE,8019.876,18,male
48,bc,1,120,lh,hl,FALSE,5071.891,18,male
48,bc,2,1,hh,hh,TRUE,5958.407,18,male
48,bc,2,2,lh,ll,FALSE,9104.997,18,male
48,bc,2,3,hh,hh,TRUE,2128.803,18,male
48,bc,2,4,hh,hh,TRUE,1245.4430000000002,18,male
48,bc,2,5,lh,ll,FALSE,2911.2,18,male
48,bc,2,6,hh,hh,TRUE,1956.5529999999999,18,male
48,bc,2,7,ll,ll,TRUE,1023.7239999999999,18,male
48,bc,2,8,ll,lh,FALSE,4385.032,18,male
48,bc,2,9,ll,hl,FALSE,5089.069,18,male
48,bc,2,10,hh,hh,TRUE,1432.074,18,male
48,bc,2,11,ll,ll,TRUE,2890.569,18,male
48,bc,2,12,ll,ll,TRUE,2294.488,18,male
48,bc,2,13,hh,hh,TRUE,4163.906,18,male
48,bc,2,14,hl,hh,FALSE,1275.6350000000002,18,male
48,bc,2,15,hh,hh,TRUE,3563.281,18,male
48,bc,2,16,lh,hh,FALSE,1572.402,18,male
48,bc,2,17,hl,lh,FALSE,4600.008,18,male
48,bc,2,18,hl,lh,FALSE,3581.773,18,male
48,bc,2,19,lh,hl,FALSE,5061.822,18,male
48,bc,2,20,hh,hh,TRUE,1965.8629999999998,18,male
48,bc,2,21,ll,ll,TRUE,4386.926,18,male
48,bc,2,22,hl,hh,FALSE,4888.94,18,male
48,bc,2,23,hl,hh,FALSE,2153.729,18,male
48,bc,2,24,hh,ll,FALSE,2316.867,18,male
48,bc,2,25,lh,hh,FALSE,3529.785,18,male
48,bc,2,26,lh,hh,FALSE,4930.714,18,male
48,bc,2,27,hl,hl,TRUE,5900.055,18,male
48,bc,2,28,hh,hh,TRUE,1096.158,18,male
48,bc,2,29,lh,ll,FALSE,3816.3999999999996,18,male
48,bc,2,30,lh,hh,FALSE,3263.432,18,male
48,bc,2,31,hl,hh,FALSE,3379.2520000000004,18,male
48,bc,2,32,hl,ll,FALSE,1827.221,18,male
48,bc,2,33,ll,ll,TRUE,1270.2469999999998,18,male
48,bc,2,34,hl,hh,FALSE,1364.4,18,male
48,bc,2,35,hh,hh,TRUE,1025.457,18,male
48,bc,2,36,hl,lh,FALSE,3460.755,18,male
48,bc,2,37,lh,ll,FALSE,2785.039,18,male
48,bc,2,38,hl,ll,FALSE,2347.026,18,male
48,bc,2,39,ll,ll,TRUE,2534.26,18,male
48,bc,2,40,lh,ll,FALSE,1585.5279999999998,18,male
48,bc,2,41,hl,hh,FALSE,2022.7910000000002,18,male
48,bc,2,42,hh,hh,TRUE,2911.128,18,male
48,bc,2,43,hh,hh,TRUE,1785.6239999999998,18,male
48,bc,2,44,hl,lh,FALSE,4620.697,18,male
48,bc,2,45,lh,hh,FALSE,3374.804,18,male
48,bc,2,46,ll,lh,FALSE,5618.488,18,male
48,bc,2,47,hl,hl,TRUE,3332.883,18,male
48,bc,2,48,ll,ll,TRUE,1581.6799999999998,18,male
48,bc,2,49,lh,ll,FALSE,6081.623,18,male
48,bc,2,50,lh,ll,FALSE,2360.392,18,male
48,bc,2,51,ll,ll,TRUE,1346.913,18,male
48,bc,2,52,hl,hl,TRUE,3185.143,18,male
48,bc,2,53,lh,hh,FALSE,3729.7129999999997,18,male
48,bc,2,54,lh,lh,TRUE,3617.442,18,male
48,bc,2,55,lh,lh,TRUE,4304.39,18,male
48,bc,2,56,lh,hl,FALSE,4042.3459999999995,18,male
48,bc,2,57,ll,ll,TRUE,1318.967,18,male
48,bc,2,58,ll,ll,TRUE,3981.6360000000004,18,male
48,bc,2,59,hh,ll,FALSE,1899.6729999999998,18,male
48,bc,2,60,ll,ll,TRUE,5121.885,18,male
48,bc,2,61,ll,hl,FALSE,5041.595,18,male
48,bc,2,62,ll,ll,TRUE,5548.007,18,male
48,bc,2,63,hh,hh,TRUE,4747.55,18,male
48,bc,2,64,lh,hh,FALSE,2640.902,18,male
48,bc,2,65,hh,hh,TRUE,1183.7150000000001,18,male
48,bc,2,66,lh,hh,FALSE,2050.855,18,male
48,bc,2,67,hl,lh,FALSE,4292.926,18,male
48,bc,2,68,hl,ll,FALSE,2461.016,18,male
48,bc,2,69,ll,hl,FALSE,5051.332,18,male
48,bc,2,70,lh,ll,FALSE,2342.773,18,male
48,bc,2,71,lh,lh,TRUE,2968.709,18,male
48,bc,2,72,lh,lh,TRUE,3082.649,18,male
48,bc,2,73,lh,ll,FALSE,3272.9570000000003,18,male
48,bc,2,74,ll,ll,TRUE,4045.0379999999996,18,male
48,bc,2,75,ll,hh,FALSE,4360.284,18,male
48,bc,2,76,hl,hh,FALSE,2295.63,18,male
48,bc,2,77,hh,hh,TRUE,2293.036,18,male
48,bc,2,78,ll,ll,TRUE,4594.864,18,male
48,bc,2,79,lh,hl,FALSE,4520.604,18,male
48,bc,2,80,ll,ll,TRUE,2080.219,18,male
48,bc,2,81,hl,ll,FALSE,1838.6080000000002,18,male
48,bc,2,82,hh,lh,FALSE,5071.347,18,male
48,bc,2,83,lh,hh,FALSE,6146.466,18,male
48,bc,2,84,lh,hl,FALSE,4332.9,18,male
48,bc,2,85,lh,ll,FALSE,3087.027,18,male
48,bc,2,86,hl,hh,FALSE,8043.048000000001,18,male
48,bc,2,87,hh,hh,TRUE,894.9090000000001,18,male
48,bc,2,88,hh,hh,TRUE,815.9459999999999,18,male
48,bc,2,89,lh,ll,FALSE,4203.253,18,male
48,bc,2,90,hl,hl,TRUE,2633.32,18,male
48,bc,2,91,lh,lh,TRUE,3401.992,18,male
48,bc,2,92,lh,ll,FALSE,3711.732,18,male
48,bc,2,93,lh,ll,FALSE,2257.83,18,male
48,bc,2,94,hl,hh,FALSE,2341.723,18,male
48,bc,2,95,lh,ll,FALSE,3429.794,18,male
48,bc,2,96,hl,ll,FALSE,1371.7089999999998,18,male
48,bc,2,97,hl,ll,FALSE,1086.4189999999999,18,male
48,bc,2,98,hh,lh,FALSE,5957.064,18,male
48,bc,2,99,hh,lh,FALSE,3123.148,18,male
48,bc,2,100,hl,hh,FALSE,2535.544,18,male
48,bc,2,101,lh,hh,FALSE,2370.409,18,male
48,bc,2,102,ll,ll,TRUE,1479.2060000000001,18,male
48,bc,2,103,hh,hh,TRUE,1085.2759999999998,18,male
48,bc,2,104,hl,ll,FALSE,2286.608,18,male
48,bc,2,105,hl,ll,FALSE,2771.632,18,male
48,bc,2,106,ll,ll,TRUE,2220.766,18,male
48,bc,2,107,hh,hh,TRUE,1238.056,18,male
48,bc,2,108,hh,hh,TRUE,2471.74,18,male
48,bc,2,109,ll,lh,FALSE,6668.38,18,male
48,bc,2,110,lh,hh,FALSE,2644.585,18,male
48,bc,2,111,hh,hh,TRUE,1290.4789999999998,18,male
48,bc,2,112,ll,ll,TRUE,3201.884,18,male
48,bc,2,113,ll,hh,FALSE,6217.993,18,male
48,bc,2,114,hh,hh,TRUE,1468.045,18,male
48,bc,2,115,ll,ll,TRUE,5997.129,18,male
48,bc,2,116,lh,ll,FALSE,1350.4789999999998,18,male
48,bc,2,117,hl,ll,FALSE,2437.835,18,male
48,bc,2,118,ll,ll,TRUE,3437.446,18,male
48,bc,2,119,ll,ll,TRUE,1794.1460000000002,18,male
48,bc,2,120,hh,hh,TRUE,1483.864,18,male
48,bc,3,1,hh,hh,TRUE,3045.321,18,male
48,bc,3,2,hl,lh,FALSE,5292.002,18,male
48,bc,3,3,hh,hh,TRUE,1676.5120000000002,18,male
48,bc,3,4,lh,ll,FALSE,3188.1400000000003,18,male
48,bc,3,5,hl,ll,FALSE,1782.551,18,male
48,bc,3,6,lh,hl,FALSE,3577.1090000000004,18,male
48,bc,3,7,hh,hh,TRUE,2056.789,18,male
48,bc,3,8,ll,ll,TRUE,1382.5529999999999,18,male
48,bc,3,9,hh,hh,TRUE,954.733,18,male
48,bc,3,10,ll,ll,TRUE,3456.3410000000003,18,male
48,bc,3,11,hh,hh,TRUE,1541.245,18,male
48,bc,3,12,lh,ll,FALSE,1602.326,18,male
48,bc,3,13,hl,hh,FALSE,3349.5190000000002,18,male
48,bc,3,14,ll,ll,TRUE,3215.8239999999996,18,male
48,bc,3,15,ll,ll,TRUE,910.329,18,male
48,bc,3,16,ll,ll,TRUE,1622.5439999999999,18,male
48,bc,3,17,hh,hh,TRUE,1935.0300000000002,18,male
48,bc,3,18,hh,hh,TRUE,1228.134,18,male
48,bc,3,19,ll,ll,TRUE,1231.63,18,male
48,bc,3,20,hh,hh,TRUE,1569.0210000000002,18,male
48,bc,3,21,hl,lh,FALSE,3454.41,18,male
48,bc,3,22,hl,ll,FALSE,7290.933000000001,18,male
48,bc,3,23,hl,ll,FALSE,949.5519999999999,18,male
48,bc,3,24,ll,ll,TRUE,1612.7710000000002,18,male
48,bc,3,25,hh,hh,TRUE,1494.1909999999998,18,male
48,bc,3,26,hh,hh,TRUE,1661.1599999999999,18,male
48,bc,3,27,hh,hh,TRUE,943.944,18,male
48,bc,3,28,hh,ll,FALSE,1283.9409999999998,18,male
48,bc,3,29,lh,ll,FALSE,2061.087,18,male
48,bc,3,30,ll,ll,TRUE,1980.315,18,male
48,bc,3,31,hh,lh,FALSE,4583.009,18,male
48,bc,3,32,lh,ll,FALSE,1971.594,18,male
48,bc,3,33,hh,lh,FALSE,3046.519,18,male
48,bc,3,34,lh,ll,FALSE,1028.533,18,male
48,bc,3,35,hl,ll,FALSE,3745.0420000000004,18,male
48,bc,3,36,hl,ll,FALSE,1841.116,18,male
48,bc,3,37,hl,hh,FALSE,2298.454,18,male
48,bc,3,38,hl,ll,FALSE,1487.092,18,male
48,bc,3,39,hh,hh,TRUE,1390.3029999999999,18,male
48,bc,3,40,ll,hl,FALSE,3257.1980000000003,18,male
48,bc,3,41,hl,hh,FALSE,1876.7530000000002,18,male
48,bc,3,42,ll,hl,FALSE,4204.843,18,male
48,bc,3,43,hh,hh,TRUE,3874.3050000000003,18,male
48,bc,3,44,hl,hh,FALSE,1983.042,18,male
48,bc,3,45,ll,ll,TRUE,1811.263,18,male
48,bc,3,46,lh,ll,FALSE,2194.753,18,male
48,bc,3,47,hl,ll,FALSE,6885.514,18,male
48,bc,3,48,hl,ll,FALSE,1691.683,18,male
48,bc,3,49,lh,ll,FALSE,2626.383,18,male
48,bc,3,50,ll,ll,TRUE,1112.649,18,male
48,bc,3,51,hh,hh,TRUE,1283.2130000000002,18,male
48,bc,3,52,ll,ll,TRUE,1343.748,18,male
48,bc,3,53,ll,hl,FALSE,4308.926,18,male
48,bc,3,54,lh,hh,FALSE,2390.884,18,male
48,bc,3,55,lh,hh,FALSE,953.7819999999999,18,male
48,bc,3,56,hh,hh,TRUE,1429.176,18,male
48,bc,3,57,hh,hh,TRUE,2641.669,18,male
48,bc,3,58,hl,hh,FALSE,1197.5030000000002,18,male
48,bc,3,59,hl,hh,FALSE,1138.172,18,male
48,bc,3,60,hl,ll,FALSE,4567.426,18,male
48,bc,3,61,hh,hh,TRUE,1389.2420000000002,18,male
48,bc,3,62,lh,hh,FALSE,1120.185,18,male
48,bc,3,63,hh,hh,TRUE,1981.824,18,male
48,bc,3,64,ll,hl,FALSE,2945.823,18,male
48,bc,3,65,hh,hh,TRUE,1091.79,18,male
48,bc,3,66,hh,hh,TRUE,908.259,18,male
48,bc,3,67,hh,lh,FALSE,2939.013,18,male
48,bc,3,68,hh,hh,TRUE,1815.2469999999998,18,male
48,bc,3,69,hh,hh,TRUE,1048.6660000000002,18,male
48,bc,3,70,lh,ll,FALSE,1010.492,18,male
48,bc,3,71,lh,hh,FALSE,2501.646,18,male
48,bc,3,72,ll,ll,TRUE,890.9780000000001,18,male
48,bc,3,73,lh,hh,FALSE,1683.3809999999999,18,male
48,bc,3,74,lh,hh,FALSE,1626.7240000000002,18,male
48,bc,3,75,ll,ll,TRUE,886.1859999999999,18,male
48,bc,3,76,lh,ll,FALSE,2092.496,18,male
48,bc,3,77,hh,hh,TRUE,1828.9969999999998,18,male
48,bc,3,78,ll,ll,TRUE,3444.349,18,male
48,bc,3,79,ll,hh,FALSE,1168.819,18,male
48,bc,3,80,hh,hh,TRUE,3727.696,18,male
48,bc,3,81,hh,hh,TRUE,3839.6899999999996,18,male
48,bc,3,82,ll,hl,FALSE,2956.381,18,male
48,bc,3,83,hh,hh,TRUE,944.28,18,male
48,bc,3,84,hh,lh,FALSE,3774.8819999999996,18,male
48,bc,3,85,hl,ll,FALSE,1955.792,18,male
48,bc,3,86,hl,hl,TRUE,5622.914,18,male
48,bc,3,87,lh,lh,TRUE,3521.92,18,male
48,bc,3,88,hh,hh,TRUE,1109.7820000000002,18,male
48,bc,3,89,hl,hh,FALSE,4094.026,18,male
48,bc,3,90,lh,ll,FALSE,1165.4520000000002,18,male
48,bc,3,91,ll,ll,TRUE,2308.256,18,male
48,bc,3,92,lh,hh,FALSE,871.1869999999999,18,male
48,bc,3,93,ll,hh,FALSE,1424.4070000000002,18,male
48,bc,3,94,hh,hh,TRUE,1595.2040000000002,18,male
48,bc,3,95,hl,hh,FALSE,1309.2710000000002,18,male
48,bc,3,96,hh,hh,TRUE,757.2950000000001,18,male
48,bc,3,97,hl,hh,FALSE,1531.1509999999998,18,male
48,bc,3,98,lh,hh,FALSE,1055.899,18,male
48,bc,3,99,hl,hh,FALSE,745.633,18,male
48,bc,3,100,hh,hh,TRUE,864.675,18,male
48,bc,3,101,hl,hh,FALSE,1836.3760000000002,18,male
48,bc,3,102,lh,ll,FALSE,5114.757,18,male
48,bc,3,103,hh,hh,TRUE,1041.018,18,male
48,bc,3,104,hh,hh,TRUE,907.636,18,male
48,bc,3,105,ll,hl,FALSE,3986.9269999999997,18,male
48,bc,3,106,hh,hh,TRUE,986.451,18,male
48,bc,3,107,hl,hh,FALSE,1821.6239999999998,18,male
48,bc,3,108,lh,hh,FALSE,1452.4450000000002,18,male
48,bc,3,109,lh,hh,FALSE,1408.3629999999998,18,male
48,bc,3,110,ll,lh,FALSE,3666.782,18,male
48,bc,3,111,hh,lh,FALSE,3256.446,18,male
48,bc,3,112,hh,hh,TRUE,1421.3470000000002,18,male
48,bc,3,113,hl,ll,FALSE,2807.228,18,male
48,bc,3,114,lh,ll,FALSE,1112.4560000000001,18,male
48,bc,3,115,ll,ll,TRUE,1998.5929999999998,18,male
48,bc,3,116,lh,lh,TRUE,3120.531,18,male
48,bc,3,117,ll,ll,TRUE,1211.596,18,male
48,bc,3,118,hl,hh,FALSE,1134.978,18,male
48,bc,3,119,ll,ll,TRUE,765.4079999999999,18,male
48,bc,3,120,hl,hl,TRUE,4220.376,18,male
48,bc,4,1,lh,lh,TRUE,4092.83,18,male
48,bc,4,2,lh,ll,FALSE,4719.722,18,male
48,bc,4,3,hh,hh,TRUE,805.1500000000001,18,male
48,bc,4,4,lh,lh,TRUE,4041.643,18,male
48,bc,4,5,hh,hh,TRUE,2395.396,18,male
48,bc,4,6,hl,hh,FALSE,1262.699,18,male
48,bc,4,7,hh,hh,TRUE,543.906,18,male
48,bc,4,8,ll,ll,TRUE,1029.72,18,male
48,bc,4,9,hh,hh,TRUE,1426.9720000000002,18,male
48,bc,4,10,lh,hl,FALSE,6283.825,18,male
48,bc,4,11,lh,ll,FALSE,856.738,18,male
48,bc,4,12,hh,lh,FALSE,2618.501,18,male
48,bc,4,13,hl,hh,FALSE,1076.4940000000001,18,male
48,bc,4,14,hl,ll,FALSE,1286.377,18,male
48,bc,4,15,lh,lh,TRUE,3143.0510000000004,18,male
48,bc,4,16,ll,ll,TRUE,4518.156,18,male
48,bc,4,17,hl,hh,FALSE,1543.391,18,male
48,bc,4,18,lh,hh,FALSE,916.923,18,male
48,bc,4,19,ll,hl,FALSE,3442.51,18,male
48,bc,4,20,hl,ll,FALSE,1678.636,18,male
48,bc,4,21,ll,hl,FALSE,2967.479,18,male
48,bc,4,22,hh,hh,TRUE,768.8019999999999,18,male
48,bc,4,23,ll,ll,TRUE,3021.434,18,male
48,bc,4,24,lh,hh,FALSE,1068.8220000000001,18,male
48,bc,4,25,ll,ll,TRUE,1143.0149999999999,18,male
48,bc,4,26,hl,hl,TRUE,3763.2799999999997,18,male
48,bc,4,27,ll,hh,FALSE,1445.603,18,male
48,bc,4,28,lh,hh,FALSE,708.5820000000001,18,male
48,bc,4,29,hl,hh,FALSE,911.2090000000001,18,male
48,bc,4,30,lh,ll,FALSE,1868.516,18,male
48,bc,4,31,ll,ll,TRUE,1332.121,18,male
48,bc,4,32,hl,hl,TRUE,3227.9610000000002,18,male
48,bc,4,33,hl,hl,TRUE,4375.851,18,male
48,bc,4,34,hh,hh,TRUE,1621.8090000000002,18,male
48,bc,4,35,hh,hh,TRUE,2103.9,18,male
48,bc,4,36,lh,lh,TRUE,3150.7430000000004,18,male
48,bc,4,37,hh,hh,TRUE,737.674,18,male
48,bc,4,38,hl,hh,FALSE,1216.391,18,male
48,bc,4,39,hl,ll,FALSE,2426.989,18,male
48,bc,4,40,ll,ll,TRUE,2009.13,18,male
48,bc,4,41,hl,ll,FALSE,2043.5970000000002,18,male
48,bc,4,42,hl,hh,FALSE,977.999,18,male
48,bc,4,43,lh,hh,FALSE,1055.2399999999998,18,male
48,bc,4,44,hh,hh,TRUE,2249.207,18,male
48,bc,4,45,ll,hl,FALSE,2712.793,18,male
48,bc,4,46,hh,hh,TRUE,941.2570000000001,18,male
48,bc,4,47,hl,ll,FALSE,2140.046,18,male
48,bc,4,48,hl,hh,FALSE,2375.747,18,male
48,bc,4,49,hh,hh,TRUE,945.143,18,male
48,bc,4,50,lh,ll,FALSE,1730.134,18,male
48,bc,4,51,ll,ll,TRUE,971.9290000000001,18,male
48,bc,4,52,hl,hh,FALSE,3472.678,18,male
48,bc,4,53,lh,hh,FALSE,3837.044,18,male
48,bc,4,54,ll,ll,TRUE,1746.667,18,male
48,bc,4,55,ll,hl,FALSE,2759.507,18,male
48,bc,4,56,hl,hh,FALSE,1355.1999999999998,18,male
48,bc,4,57,hh,hh,TRUE,1133.9250000000002,18,male
48,bc,4,58,lh,ll,FALSE,1684.4340000000002,18,male
48,bc,4,59,hl,ll,FALSE,4251.987,18,male
48,bc,4,60,ll,ll,TRUE,2264.539,18,male
48,bc,4,61,ll,ll,TRUE,846.6320000000001,18,male
48,bc,4,62,lh,ll,FALSE,825.0060000000001,18,male
48,bc,4,63,hl,ll,FALSE,2460.621,18,male
48,bc,4,64,hl,ll,FALSE,1083.071,18,male
48,bc,4,65,hl,ll,FALSE,995.0999999999999,18,male
48,bc,4,66,lh,ll,FALSE,1102.9229999999998,18,male
48,bc,4,67,hh,hh,TRUE,608.847,18,male
48,bc,4,68,lh,hl,FALSE,2963.684,18,male
48,bc,4,69,lh,ll,FALSE,875.8610000000001,18,male
48,bc,4,70,lh,ll,FALSE,1069.087,18,male
48,bc,4,71,ll,ll,TRUE,1663.1889999999999,18,male
48,bc,4,72,ll,ll,TRUE,2310.329,18,male
48,bc,4,73,ll,hl,FALSE,3404.8779999999997,18,male
48,bc,4,74,lh,ll,FALSE,5498.282,18,male
48,bc,4,75,lh,lh,TRUE,2649.258,18,male
48,bc,4,76,hh,hh,TRUE,825.9480000000001,18,male
48,bc,4,77,hl,ll,FALSE,1532.23,18,male
48,bc,4,78,ll,lh,FALSE,3361.567,18,male
48,bc,4,79,ll,hl,FALSE,2682.167,18,male
48,bc,4,80,hl,ll,FALSE,1112.9029999999998,18,male
48,bc,4,81,lh,hh,FALSE,897.779,18,male
48,bc,4,82,lh,ll,FALSE,3168.0069999999996,18,male
48,bc,4,83,lh,hh,FALSE,1945.188,18,male
48,bc,4,84,lh,ll,FALSE,1644.728,18,male
48,bc,4,85,hl,lh,FALSE,3808.572,18,male
48,bc,4,86,lh,hh,FALSE,2140.069,18,male
48,bc,4,87,ll,ll,TRUE,1110.1419999999998,18,male
48,bc,4,88,hh,hh,TRUE,821.51,18,male
48,bc,4,89,lh,ll,FALSE,824.8340000000001,18,male
48,bc,4,90,hh,hh,TRUE,675.704,18,male
48,bc,4,91,hl,hh,FALSE,942.018,18,male
48,bc,4,92,ll,ll,TRUE,652.1659999999999,18,male
48,bc,4,93,ll,ll,TRUE,942.4780000000001,18,male
48,bc,4,94,ll,ll,TRUE,1005.5640000000001,18,male
48,bc,4,95,ll,ll,TRUE,632.2639999999999,18,male
48,bc,4,96,lh,hh,FALSE,758.031,18,male
48,bc,4,97,hh,hh,TRUE,584.3710000000001,18,male
48,bc,4,98,lh,hh,FALSE,966.9469999999999,18,male
48,bc,4,99,hh,ll,FALSE,1020.713,18,male
48,bc,4,100,lh,hh,FALSE,2119.281,18,male
48,bc,4,101,lh,ll,FALSE,3435.648,18,male
48,bc,4,102,ll,ll,TRUE,1274.2359999999999,18,male
48,bc,4,103,hl,hl,TRUE,2500.274,18,male
48,bc,4,104,hh,lh,FALSE,4286.787,18,male
48,bc,4,105,hh,hh,TRUE,1201.065,18,male
48,bc,4,106,ll,ll,TRUE,8869.438,18,male
48,bc,4,107,hl,hh,FALSE,3567.523,18,male
48,bc,4,108,hl,hh,FALSE,1015.9369999999999,18,male
48,bc,4,109,lh,ll,FALSE,1429.5439999999999,18,male
48,bc,4,110,hh,hh,TRUE,757.298,18,male
48,bc,4,111,lh,ll,FALSE,2451.116,18,male
48,bc,4,112,ll,ll,TRUE,1387.333,18,male
48,bc,4,113,hl,hh,FALSE,797.44,18,male
48,bc,4,114,ll,hl,FALSE,2633.797,18,male
48,bc,4,115,hl,lh,FALSE,3417.34,18,male
48,bc,4,116,lh,hh,FALSE,1911.757,18,male
48,bc,4,117,hl,ll,FALSE,1365.118,18,male
48,bc,4,118,hl,hl,TRUE,2636.471,18,male
48,bc,4,119,lh,hl,FALSE,2058.57,18,male
48,bc,4,120,lh,hh,FALSE,1441.772,18,male
48,bc,5,1,lh,ll,FALSE,2938.547,18,male
48,bc,5,2,hl,hl,TRUE,2318.664,18,male
48,bc,5,3,hh,hh,TRUE,835.441,18,male
48,bc,5,4,lh,ll,FALSE,1923.607,18,male
48,bc,5,5,ll,ll,TRUE,777.865,18,male
48,bc,5,6,hl,hl,TRUE,2382.237,18,male
48,bc,5,7,hh,hh,TRUE,897.3240000000001,18,male
48,bc,5,8,hl,ll,FALSE,832.018,18,male
48,bc,5,9,lh,hh,FALSE,1331.2420000000002,18,male
48,bc,5,10,lh,hh,FALSE,2153.554,18,male
48,bc,5,11,hl,ll,FALSE,2559.045,18,male
48,bc,5,12,ll,ll,TRUE,751.1890000000001,18,male
48,bc,5,13,ll,hl,FALSE,4743.298,18,male
48,bc,5,14,hh,hh,TRUE,725.038,18,male
48,bc,5,15,hl,hh,FALSE,1781.8319999999999,18,male
48,bc,5,16,lh,ll,FALSE,1007.3199999999999,18,male
48,bc,5,17,lh,hl,FALSE,2956.169,18,male
48,bc,5,18,ll,ll,TRUE,1508.984,18,male
48,bc,5,19,hl,hh,FALSE,2380.073,18,male
48,bc,5,20,hh,hh,TRUE,1029.702,18,male
48,bc,5,21,ll,ll,TRUE,1823.355,18,male
48,bc,5,22,hl,ll,FALSE,1896.81,18,male
48,bc,5,23,lh,ll,FALSE,744.251,18,male
48,bc,5,24,hl,hh,FALSE,4373.233,18,male
48,bc,5,25,hh,hh,TRUE,1428.306,18,male
48,bc,5,26,hh,hh,TRUE,893.108,18,male
48,bc,5,27,hl,hh,FALSE,613.8330000000001,18,male
48,bc,5,28,ll,ll,TRUE,1379.745,18,male
48,bc,5,29,hh,hh,TRUE,966.4739999999999,18,male
48,bc,5,30,hl,hh,FALSE,955.2049999999999,18,male
48,bc,5,31,hl,ll,FALSE,984.0740000000001,18,male
48,bc,5,32,lh,ll,FALSE,892.8209999999999,18,male
48,bc,5,33,hh,hh,TRUE,548.482,18,male
48,bc,5,34,hh,ll,FALSE,636.425,18,male
48,bc,5,35,ll,hl,FALSE,1734.337,18,male
48,bc,5,36,lh,hl,FALSE,1924.2620000000002,18,male
48,bc,5,37,hl,ll,FALSE,1952.466,18,male
48,bc,5,38,hh,lh,FALSE,5753.233,18,male
48,bc,5,39,lh,hh,FALSE,2609.572,18,male
48,bc,5,40,ll,ll,TRUE,1516.688,18,male
48,bc,5,41,lh,ll,FALSE,760.692,18,male
48,bc,5,42,ll,hh,FALSE,1302.8960000000002,18,male
48,bc,5,43,lh,ll,FALSE,1990.025,18,male
48,bc,5,44,hh,hh,TRUE,2088.218,18,male
48,bc,5,45,hh,hh,TRUE,2158.507,18,male
48,bc,5,46,hl,ll,FALSE,1179.272,18,male
48,bc,5,47,ll,ll,TRUE,860.531,18,male
48,bc,5,48,hh,hh,TRUE,949.6300000000001,18,male
48,bc,5,49,hl,hh,FALSE,1084.208,18,male
48,bc,5,50,hh,hh,TRUE,1212.6080000000002,18,male
48,bc,5,51,hh,hh,TRUE,745.6110000000001,18,male
48,bc,5,52,hl,hh,FALSE,1286.471,18,male
48,bc,5,53,hl,hh,FALSE,806.673,18,male
48,bc,5,54,hh,ll,FALSE,1165.335,18,male
48,bc,5,55,hl,hh,FALSE,720.2449999999999,18,male
48,bc,5,56,hh,hh,TRUE,935.0429999999999,18,male
48,bc,5,57,ll,hl,FALSE,2269.647,18,male
48,bc,5,58,ll,hl,FALSE,4279.138,18,male
48,bc,5,59,lh,hh,FALSE,2036.9569999999999,18,male
48,bc,5,60,hh,hh,TRUE,881.1099999999999,18,male
48,bc,5,61,ll,ll,TRUE,1072.5720000000001,18,male
48,bc,5,62,ll,ll,TRUE,730.969,18,male
48,bc,5,63,lh,hh,FALSE,2977.005,18,male
48,bc,5,64,lh,hh,FALSE,1275.5120000000002,18,male
48,bc,5,65,ll,ll,TRUE,1096.2469999999998,18,male
48,bc,5,66,hh,hh,TRUE,695.8810000000001,18,male
48,bc,5,67,hl,hh,FALSE,2184.505,18,male
48,bc,5,68,ll,ll,TRUE,955.2850000000001,18,male
48,bc,5,69,hh,hh,TRUE,2384.423,18,male
48,bc,5,70,ll,ll,TRUE,758.345,18,male
48,bc,5,71,ll,hh,FALSE,696.29,18,male
48,bc,5,72,hh,hh,TRUE,1601.681,18,male
48,bc,5,73,lh,hl,FALSE,2549.697,18,male
48,bc,5,74,lh,ll,FALSE,846.9169999999999,18,male
48,bc,5,75,lh,ll,FALSE,2916.754,18,male
48,bc,5,76,hh,hh,TRUE,1853.0720000000001,18,male
48,bc,5,77,lh,ll,FALSE,2053.956,18,male
48,bc,5,78,ll,ll,TRUE,750.75,18,male
48,bc,5,79,ll,hh,FALSE,1740.2199999999998,18,male
48,bc,5,80,ll,hl,FALSE,3197.477,18,male
48,bc,5,81,ll,hh,FALSE,1500.625,18,male
48,bc,5,82,lh,hh,FALSE,624.241,18,male
48,bc,5,83,lh,ll,FALSE,774.3209999999999,18,male
48,bc,5,84,hl,hl,TRUE,2436.06,18,male
48,bc,5,85,ll,ll,TRUE,2114.603,18,male
48,bc,5,86,ll,ll,TRUE,2117.002,18,male
48,bc,5,87,hl,hl,TRUE,4379.799,18,male
48,bc,5,88,hl,hh,FALSE,2784.483,18,male
48,bc,5,89,ll,hh,FALSE,2468.385,18,male
48,bc,5,90,lh,ll,FALSE,976.6980000000001,18,male
48,bc,5,91,hh,hh,TRUE,797.239,18,male
48,bc,5,92,hh,hh,TRUE,657.8230000000001,18,male
48,bc,5,93,ll,hl,FALSE,2028.395,18,male
48,bc,5,94,hl,ll,FALSE,2724.989,18,male
48,bc,5,95,lh,ll,FALSE,1360.982,18,male
48,bc,5,96,ll,ll,TRUE,924.921,18,male
48,bc,5,97,hl,ll,FALSE,763.306,18,male
48,bc,5,98,hl,hh,FALSE,1385.48,18,male
48,bc,5,99,hh,hh,TRUE,639.8130000000001,18,male
48,bc,5,100,ll,ll,TRUE,1176.129,18,male
48,bc,5,101,ll,ll,TRUE,731.385,18,male
48,bc,5,102,ll,ll,TRUE,723.444,18,male
48,bc,5,103,hl,hh,FALSE,915.2049999999999,18,male
48,bc,5,104,hh,hh,TRUE,572.2950000000001,18,male
48,bc,5,105,hh,hh,TRUE,784.261,18,male
48,bc,5,106,hl,hh,FALSE,1950.748,18,male
48,bc,5,107,hh,hh,TRUE,841.3820000000001,18,male
48,bc,5,108,lh,hh,FALSE,835.19,18,male
48,bc,5,109,hh,hh,TRUE,717.152,18,male
48,bc,5,110,hl,hl,TRUE,2249.09,18,male
48,bc,5,111,hl,hl,TRUE,3134.518,18,male
48,bc,5,112,lh,ll,FALSE,1162.1460000000002,18,male
48,bc,5,113,hh,hh,TRUE,2221.043,18,male
48,bc,5,114,hl,hh,FALSE,2710.244,18,male
48,bc,5,115,hh,hh,TRUE,1497.7979999999998,18,male
48,bc,5,116,hh,hh,TRUE,1027.807,18,male
48,bc,5,117,hl,hl,TRUE,2723.261,18,male
48,bc,5,118,hl,hl,TRUE,1370.393,18,male
48,bc,5,119,hh,hh,TRUE,627.231,18,male
48,bc,5,120,lh,ll,FALSE,857.185,18,male
