pID,condition,block_no,trial_no,stimulus,response,correct,rt,age,gender
49,ab,1,1,ll,lh,FALSE,6114.28,18,female
49,ab,1,2,hl,hh,FALSE,5205.988,18,female
49,ab,1,3,lh,hl,FALSE,5478.305,18,female
49,ab,1,4,ll,hh,FALSE,3474.885,18,female
49,ab,1,5,hl,lh,FALSE,4712.042,18,female
49,ab,1,6,hh,hl,FALSE,4843.863,18,female
49,ab,1,7,ll,ll,TRUE,3569.906,18,female
49,ab,1,8,hh,ll,FALSE,4452.415,18,female
49,ab,1,9,ll,hl,FALSE,8698.816,18,female
49,ab,1,10,lh,hh,FALSE,5917.362,18,female
49,ab,1,11,ll,hh,FALSE,5553.153,18,female
49,ab,1,12,ll,lh,FALSE,5051.558,18,female
49,ab,1,13,hh,ll,FALSE,1761.2730000000001,18,female
49,ab,1,14,ll,lh,FALSE,3652.1459999999997,18,female
49,ab,1,15,ll,ll,TRUE,7032.69,18,female
49,ab,1,16,hl,hl,TRUE,6879.924,18,female
49,ab,1,17,lh,hl,FALSE,2581.203,18,female
49,ab,1,18,ll,ll,TRUE,3972.5919999999996,18,female
49,ab,1,19,lh,hh,FALSE,4631.06,18,female
49,ab,1,20,lh,hh,FALSE,8597.04,18,female
49,ab,1,21,hh,hl,FALSE,7652.652,18,female
49,ab,1,22,hh,hl,FALSE,2771.572,18,female
49,ab,1,23,hh,hl,FALSE,6309.093,18,female
49,ab,1,24,hl,lh,FALSE,2968.821,18,female
49,ab,1,25,lh,hl,FALSE,7458.028,18,female
49,ab,1,26,hh,hh,TRUE,3127.638,18,female
49,ab,1,27,ll,hh,FALSE,3659.3770000000004,18,female
49,ab,1,28,lh,lh,TRUE,3232.876,18,female
49,ab,1,29,hh,hl,FALSE,7646.938,18,female
49,ab,1,30,hl,hh,FALSE,6038.513,18,female
49,ab,1,31,ll,lh,FALSE,7363.915000000001,18,female
49,ab,1,32,hl,ll,FALSE,2750.778,18,female
49,ab,1,33,lh,hl,FALSE,4215.496,18,female
49,ab,1,34,hh,hl,FALSE,6462.746,18,female
49,ab,1,35,ll,ll,TRUE,5644.531,18,female
49,ab,1,36,hl,hl,TRUE,7929.441000000001,18,female
49,ab,1,37,hh,hh,TRUE,2261.334,18,female
49,ab,1,38,ll,ll,TRUE,2673.16,18,female
49,ab,1,39,hl,hh,FALSE,3343.6639999999998,18,female
49,ab,1,40,hl,hh,FALSE,5347.412,18,female
49,ab,1,41,hl,lh,FALSE,3292.6409999999996,18,female
49,ab,1,42,ll,ll,TRUE,2544.736,18,female
49,ab,1,43,lh,ll,FALSE,7290.739,18,female
49,ab,1,44,hl,ll,FALSE,3240.3280000000004,18,female
49,ab,1,45,hh,lh,FALSE,2686.053,18,female
49,ab,1,46,lh,ll,FALSE,4794.824,18,female
49,ab,1,47,hh,hl,FALSE,5051.61,18,female
49,ab,1,48,lh,ll,FALSE,2449.904,18,female
49,ab,1,49,lh,lh,TRUE,2400.572,18,female
49,ab,1,50,hl,hh,FALSE,3927.871,18,female
49,ab,1,51,hl,hh,FALSE,1752.7289999999998,18,female
49,ab,1,52,lh,hh,FALSE,4316.064,18,female
49,ab,1,53,ll,ll,TRUE,13607.168,18,female
49,ab,1,54,hl,ll,FALSE,1646.9229999999998,18,female
49,ab,1,55,ll,ll,TRUE,4317.327,18,female
49,ab,1,56,hl,hl,TRUE,4673.901,18,female
49,ab,1,57,lh,hl,FALSE,3565.228,18,female
49,ab,1,58,hl,ll,FALSE,2710.545,18,female
49,ab,1,59,lh,hl,FALSE,3858.6499999999996,18,female
49,ab,1,60,hh,hh,TRUE,4913.32,18,female
49,ab,1,61,ll,ll,TRUE,5291.987,18,female
49,ab,1,62,hl,ll,FALSE,2329.341,18,female
49,ab,1,63,hl,ll,FALSE,13051.048,18,female
49,ab,1,64,lh,lh,TRUE,7088.961,18,female
49,ab,1,65,ll,ll,TRUE,4046.246,18,female
49,ab,1,66,hl,hh,FALSE,3452.316,18,female
49,ab,1,67,ll,lh,FALSE,5545.727,18,female
49,ab,1,68,hh,lh,FALSE,2210.565,18,female
49,ab,1,69,hh,hh,TRUE,2577.713,18,female
49,ab,1,70,lh,lh,TRUE,3668.17,18,female
49,ab,1,71,hh,lh,FALSE,1841.261,18,female
49,ab,1,72,hh,hh,TRUE,3480.892,18,female
49,ab,1,73,ll,ll,TRUE,2252.716,18,female
49,ab,1,74,hh,hl,FALSE,2994.329,18,female
49,ab,1,75,ll,ll,TRUE,2691.292,18,female
49,ab,1,76,hl,hl,TRUE,6776.786,18,female
49,ab,1,77,lh,hh,FALSE,7352.304,18,female
49,ab,1,78,hl,hl,TRUE,6475.802,18,female
49,ab,1,79,hh,hh,TRUE,1751.741,18,female
49,ab,1,80,ll,lh,FALSE,2010.906,18,female
49,ab,1,81,lh,lh,TRUE,1649.154,18,female
49,ab,1,82,ll,lh,FALSE,2246.774,18,female
49,ab,1,83,lh,ll,FALSE,2341.956,18,female
49,ab,1,84,hh,hl,FALSE,3008.368,18,female
49,ab,1,85,ll,lh,FALSE,2223.877,18,female
49,ab,1,86,ll,ll,TRUE,5271.156,18,female
49,ab,1,87,lh,lh,TRUE,2988.458,18,female
49,ab,1,88,lh,ll,FALSE,2470.125,18,female
49,ab,1,89,ll,hl,FALSE,6226.327,18,female
49,ab,1,90,ll,lh,FALSE,6666.164,18,female
49,ab,1,91,ll,hh,FALSE,1839.3159999999998,18,female
49,ab,1,92,hl,hh,FALSE,3150.0789999999997,18,female
49,ab,1,93,hl,ll,FALSE,8600.062,18,female
49,ab,1,94,hl,ll,FALSE,3569.4449999999997,18,female
49,ab,1,95,ll,ll,TRUE,5154.389,18,female
49,ab,1,96,lh,hh,FALSE,2467.202,18,female
49,ab,1,97,ll,ll,TRUE,2721.498,18,female
49,ab,1,98,hh,hh,TRUE,2499.859,18,female
49,ab,1,99,ll,ll,TRUE,6823.838,18,female
49,ab,1,100,ll,ll,TRUE,2703.127,18,female
49,ab,1,101,hh,lh,FALSE,2859.604,18,female
49,ab,1,102,hh,hh,TRUE,2009.3980000000001,18,female
49,ab,1,103,hl,ll,FALSE,1801.266,18,female
49,ab,1,104,lh,lh,TRUE,5681.418,18,female
49,ab,1,105,hh,lh,FALSE,942.2760000000001,18,female
49,ab,1,106,ll,ll,TRUE,3552.325,18,female
49,ab,1,107,ll,hl,FALSE,3986.4080000000004,18,female
49,ab,1,108,lh,hh,FALSE,3220.1180000000004,18,female
49,ab,1,109,lh,lh,TRUE,4795.806,18,female
49,ab,1,110,lh,ll,FALSE,2522.329,18,female
49,ab,1,111,lh,hl,FALSE,3190.6679999999997,18,female
49,ab,1,112,ll,hh,FALSE,7838.879000000001,18,female
49,ab,1,113,hh,hh,TRUE,2797.163,18,female
49,ab,1,114,hl,lh,FALSE,8420.904,18,female
49,ab,1,115,lh,hh,FALSE,3973.068,18,female
49,ab,1,116,hl,lh,FALSE,5885.897,18,female
49,ab,1,117,hl,hh,FALSE,4666.787,18,female
49,ab,1,118,lh,hl,FALSE,4081.906,18,female
49,ab,1,119,hl,lh,FALSE,4412.414,18,female
49,ab,1,120,hh,lh,FALSE,4540.001,18,female
49,ab,2,1,hl,lh,FALSE,14759.671,18,female
49,ab,2,2,hl,lh,FALSE,2657.862,18,female
49,ab,2,3,hl,hh,FALSE,3856.9080000000004,18,female
49,ab,2,4,lh,hh,FALSE,10077.833,18,female
49,ab,2,5,ll,ll,TRUE,2850.935,18,female
49,ab,2,6,lh,lh,TRUE,2369.904,18,female
49,ab,2,7,ll,hl,FALSE,4810.481,18,female
49,ab,2,8,hl,hh,FALSE,3522.183,18,female
49,ab,2,9,ll,lh,FALSE,7142.978,18,female
49,ab,2,10,hl,lh,FALSE,6592.97,18,female
49,ab,2,11,hh,hh,TRUE,4681.772,18,female
49,ab,2,12,hh,hl,FALSE,4061.102,18,female
49,ab,2,13,hl,hl,TRUE,2427.124,18,female
49,ab,2,14,ll,ll,TRUE,6124.023,18,female
49,ab,2,15,ll,ll,TRUE,2277.741,18,female
49,ab,2,16,hl,hl,TRUE,5954.861,18,female
49,ab,2,17,lh,ll,FALSE,2956.977,18,female
49,ab,2,18,ll,ll,TRUE,3744.008,18,female
49,ab,2,19,hh,hl,FALSE,5250.974,18,female
49,ab,2,20,hh,hh,TRUE,6551.535,18,female
49,ab,2,21,hh,hl,FALSE,3210.8190000000004,18,female
49,ab,2,22,ll,ll,TRUE,1522.029,18,female
49,ab,2,23,lh,lh,TRUE,9445.882,18,female
49,ab,2,24,ll,hh,FALSE,2124.18,18,female
49,ab,2,25,lh,ll,FALSE,934.8789999999999,18,female
49,ab,2,26,lh,hh,FALSE,2152.319,18,female
49,ab,2,27,ll,ll,TRUE,2475.134,18,female
49,ab,2,28,ll,ll,TRUE,1616.254,18,female
49,ab,2,29,ll,ll,TRUE,2486.685,18,female
49,ab,2,30,hh,ll,FALSE,4756.787,18,female
49,ab,2,31,ll,ll,TRUE,4373.215,18,female
49,ab,2,32,lh,hl,FALSE,5367.364,18,female
49,ab,2,33,hh,hl,FALSE,3711.991,18,female
49,ab,2,34,hl,hl,TRUE,2706.594,18,female
49,ab,2,35,hh,lh,FALSE,4272.995,18,female
49,ab,2,36,hl,lh,FALSE,1677.283,18,female
49,ab,2,37,hl,hh,FALSE,2019.77,18,female
49,ab,2,38,ll,hl,FALSE,5913.68,18,female
49,ab,2,39,lh,lh,TRUE,11437.809,18,female
49,ab,2,40,lh,hh,FALSE,2683.44,18,female
49,ab,2,41,hh,lh,FALSE,2512.052,18,female
49,ab,2,42,ll,ll,TRUE,1324.007,18,female
49,ab,2,43,ll,ll,TRUE,13575.614,18,female
49,ab,2,44,hl,hh,FALSE,2744.688,18,female
49,ab,2,45,lh,ll,FALSE,2396.049,18,female
49,ab,2,46,hl,lh,FALSE,2578.522,18,female
49,ab,2,47,hh,ll,FALSE,3091.838,18,female
49,ab,2,48,hl,hl,TRUE,2281.155,18,female
49,ab,2,49,hh,hh,TRUE,1373.4940000000001,18,female
49,ab,2,50,lh,ll,FALSE,1103.078,18,female
49,ab,2,51,lh,lh,TRUE,5306.524,18,female
49,ab,2,52,hh,lh,FALSE,1798.862,18,female
49,ab,2,53,ll,hl,FALSE,5247.141,18,female
49,ab,2,54,lh,ll,FALSE,4772.498,18,female
49,ab,2,55,hh,hh,TRUE,4166.203,18,female
49,ab,2,56,hh,lh,FALSE,862.6279999999999,18,female
49,ab,2,57,hl,hh,FALSE,4250.74,18,female
49,ab,2,58,lh,hh,FALSE,9344.677,18,female
49,ab,2,59,hh,lh,FALSE,2372.202,18,female
49,ab,2,60,hl,ll,FALSE,2117.774,18,female
49,ab,2,61,ll,ll,TRUE,2193.535,18,female
49,ab,2,62,ll,ll,TRUE,1520.614,18,female
49,ab,2,63,hh,lh,FALSE,4133.008,18,female
49,ab,2,64,hl,hh,FALSE,6902.841,18,female
49,ab,2,65,hl,ll,FALSE,3101.1809999999996,18,female
49,ab,2,66,hl,ll,FALSE,2151.461,18,female
49,ab,2,67,lh,ll,FALSE,1648.8609999999999,18,female
49,ab,2,68,lh,ll,FALSE,2056.238,18,female
49,ab,2,69,ll,ll,TRUE,1612.4589999999998,18,female
49,ab,2,70,lh,lh,TRUE,3205.237,18,female
49,ab,2,71,hh,lh,FALSE,1987.73,18,female
49,ab,2,72,ll,ll,TRUE,1757.815,18,female
49,ab,2,73,lh,ll,FALSE,1447.85,18,female
49,ab,2,74,ll,ll,TRUE,1246.2910000000002,18,female
49,ab,2,75,hh,ll,FALSE,1362.732,18,female
49,ab,2,76,hl,lh,FALSE,3076.33,18,female
49,ab,2,77,hl,lh,FALSE,1986.1709999999998,18,female
49,ab,2,78,ll,ll,TRUE,2866.805,18,female
49,ab,2,79,hl,ll,FALSE,1824.7890000000002,18,female
49,ab,2,80,hl,hh,FALSE,7134.534,18,female
49,ab,2,81,hh,hh,TRUE,2978.075,18,female
49,ab,2,82,hh,ll,FALSE,7191.949,18,female
49,ab,2,83,hl,hl,TRUE,3409.8950000000004,18,female
49,ab,2,84,hl,hh,FALSE,1713.721,18,female
49,ab,2,85,hl,hl,TRUE,6269.345,18,female
49,ab,2,86,ll,ll,TRUE,4650.671,18,female
49,ab,2,87,ll,ll,TRUE,1346.045,18,female
49,ab,2,88,hl,hh,FALSE,3235.3819999999996,18,female
49,ab,2,89,hh,lh,FALSE,7761.523999999999,18,female
49,ab,2,90,ll,ll,TRUE,1451.862,18,female
49,ab,2,91,hl,lh,FALSE,3962.0910000000003,18,female
49,ab,2,92,lh,lh,TRUE,2914.85,18,female
49,ab,2,93,ll,ll,TRUE,2566.98,18,female
49,ab,2,94,ll,ll,TRUE,6614.571,18,female
49,ab,2,95,hl,hl,TRUE,3655.875,18,female
49,ab,2,96,ll,hl,FALSE,3548.0299999999997,18,female
49,ab,2,97,ll,hl,FALSE,2495.382,18,female
49,ab,2,98,lh,hh,FALSE,2578.124,18,female
49,ab,2,99,hh,lh,FALSE,5532.944,18,female
49,ab,2,100,hh,hh,TRUE,3118.834,18,female
49,ab,2,101,lh,ll,FALSE,2641.659,18,female
49,ab,2,102,hh,ll,FALSE,1208.627,18,female
49,ab,2,103,lh,ll,FALSE,1559.3870000000002,18,female
49,ab,2,104,hl,hh,FALSE,2969.249,18,female
49,ab,2,105,ll,ll,TRUE,2698.768,18,female
49,ab,2,106,hh,lh,FALSE,4208.207,18,female
49,ab,2,107,lh,ll,FALSE,3352.0519999999997,18,female
49,ab,2,108,hh,lh,FALSE,1200.6889999999999,18,female
49,ab,2,109,ll,ll,TRUE,1048.1819999999998,18,female
49,ab,2,110,hl,ll,FALSE,2221.964,18,female
49,ab,2,111,hl,lh,FALSE,10437.978,18,female
49,ab,2,112,hl,hh,FALSE,1293.6350000000002,18,female
49,ab,2,113,lh,hl,FALSE,2234.547,18,female
49,ab,2,114,hh,ll,FALSE,1439.3220000000001,18,female
49,ab,2,115,hl,hl,TRUE,3607.1549999999997,18,female
49,ab,2,116,hl,hh,FALSE,1231.3629999999998,18,female
49,ab,2,117,ll,hl,FALSE,4164.739,18,female
49,ab,2,118,hh,hh,TRUE,1590.685,18,female
49,ab,2,119,lh,ll,FALSE,2670.11,18,female
49,ab,2,120,lh,hh,FALSE,1291.3649999999998,18,female
49,ab,3,1,hh,hh,TRUE,7314.9580000000005,18,female
49,ab,3,2,lh,lh,TRUE,2237.519,18,female
49,ab,3,3,lh,ll,FALSE,3139.996,18,female
49,ab,3,4,lh,lh,TRUE,3245.4080000000004,18,female
49,ab,3,5,lh,lh,TRUE,6028.53,18,female
49,ab,3,6,hl,ll,FALSE,3746.952,18,female
49,ab,3,7,ll,ll,TRUE,1654.1909999999998,18,female
49,ab,3,8,hh,hl,FALSE,3441.1890000000003,18,female
49,ab,3,9,hh,ll,FALSE,6569.643,18,female
49,ab,3,10,lh,ll,FALSE,6962.613,18,female
49,ab,3,11,hh,lh,FALSE,2817.92,18,female
49,ab,3,12,lh,lh,TRUE,2818.956,18,female
49,ab,3,13,hl,ll,FALSE,5704.355,18,female
49,ab,3,14,lh,ll,FALSE,2405.057,18,female
49,ab,3,15,ll,hl,FALSE,1773.978,18,female
49,ab,3,16,ll,ll,TRUE,2573.584,18,female
49,ab,3,17,lh,lh,TRUE,6119.549,18,female
49,ab,3,18,hl,hh,FALSE,9644.224,18,female
49,ab,3,19,hh,hh,TRUE,1282.7710000000002,18,female
49,ab,3,20,lh,ll,FALSE,7087.111,18,female
49,ab,3,21,lh,ll,FALSE,1202.8110000000001,18,female
49,ab,3,22,hh,hh,TRUE,4690.515,18,female
49,ab,3,23,hl,hl,TRUE,2257.188,18,female
49,ab,3,24,hh,hl,FALSE,2815.194,18,female
49,ab,3,25,lh,ll,FALSE,1301.7849999999999,18,female
49,ab,3,26,ll,ll,TRUE,961.5160000000001,18,female
49,ab,3,27,lh,ll,FALSE,1241.8159999999998,18,female
49,ab,3,28,hh,lh,FALSE,2409.457,18,female
49,ab,3,29,hh,lh,FALSE,1641.3519999999999,18,female
49,ab,3,30,lh,ll,FALSE,3343.6620000000003,18,female
49,ab,3,31,hl,hl,TRUE,2001.134,18,female
49,ab,3,32,hh,lh,FALSE,3410.5,18,female
49,ab,3,33,hl,lh,FALSE,2305.117,18,female
49,ab,3,34,ll,lh,FALSE,3911.8419999999996,18,female
49,ab,3,35,hh,lh,FALSE,1649.4499999999998,18,female
49,ab,3,36,hl,hh,FALSE,3032.565,18,female
49,ab,3,37,ll,ll,TRUE,8399.47,18,female
49,ab,3,38,lh,ll,FALSE,8453.588,18,female
49,ab,3,39,lh,lh,TRUE,5020.892,18,female
49,ab,3,40,ll,ll,TRUE,13978.81,18,female
49,ab,3,41,hl,hh,FALSE,7795.120000000001,18,female
49,ab,3,42,hl,hh,FALSE,4938.856,18,female
49,ab,3,43,hl,ll,FALSE,5519.015,18,female
49,ab,3,44,hh,lh,FALSE,3084.157,18,female
49,ab,3,45,ll,hl,FALSE,1222.721,18,female
49,ab,3,46,hl,hh,FALSE,1694.19,18,female
49,ab,3,47,hl,ll,FALSE,897.5930000000001,18,female
49,ab,3,48,ll,ll,TRUE,1134.451,18,female
49,ab,3,49,lh,lh,TRUE,2584.473,18,female
49,ab,3,50,hh,lh,FALSE,2296.322,18,female
49,ab,3,51,ll,hl,FALSE,2102.463,18,female
49,ab,3,52,ll,ll,TRUE,2032.304,18,female
49,ab,3,53,ll,ll,TRUE,1009.133,18,female
49,ab,3,54,lh,hh,FALSE,3255.349,18,female
49,ab,3,55,ll,hl,FALSE,1093.1689999999999,18,female
49,ab,3,56,hl,lh,FALSE,2841.617,18,female
49,ab,3,57,ll,ll,TRUE,14342.533,18,female
49,ab,3,58,ll,lh,FALSE,12353.255,18,female
49,ab,3,59,hl,lh,FALSE,2796.238,18,female
49,ab,3,60,lh,hh,FALSE,6164.65,18,female
49,ab,3,61,ll,ll,TRUE,1212.5390000000002,18,female
49,ab,3,62,hh,hh,TRUE,6483.295,18,female
49,ab,3,63,hh,lh,FALSE,6488.349,18,female
49,ab,3,64,ll,ll,TRUE,1501.7020000000002,18,female
49,ab,3,65,lh,ll,FALSE,972.3969999999999,18,female
49,ab,3,66,lh,hh,FALSE,3012.443,18,female
49,ab,3,67,ll,ll,TRUE,2482.092,18,female
49,ab,3,68,hh,hh,TRUE,6286.504,18,female
49,ab,3,69,lh,ll,FALSE,3165.3289999999997,18,female
49,ab,3,70,hl,hl,TRUE,12110.334,18,female
49,ab,3,71,lh,hh,FALSE,1056.712,18,female
49,ab,3,72,hh,hh,TRUE,966.6379999999999,18,female
49,ab,3,73,lh,ll,FALSE,1328.1239999999998,18,female
49,ab,3,74,lh,lh,TRUE,1504.5349999999999,18,female
49,ab,3,75,ll,ll,TRUE,1766.728,18,female
49,ab,3,76,lh,lh,TRUE,8094.946,18,female
49,ab,3,77,hh,hh,TRUE,4187.639,18,female
49,ab,3,78,hl,hh,FALSE,1014.1469999999999,18,female
49,ab,3,79,hh,hh,TRUE,1212.0230000000001,18,female
49,ab,3,80,ll,hl,FALSE,6490.701,18,female
49,ab,3,81,hl,hl,TRUE,4863.489,18,female
49,ab,3,82,ll,ll,TRUE,3180.798,18,female
49,ab,3,83,hh,hh,TRUE,2735.781,18,female
49,ab,3,84,hh,lh,FALSE,3930.3419999999996,18,female
49,ab,3,85,hl,ll,FALSE,1987.348,18,female
49,ab,3,86,hh,hh,TRUE,1540.0810000000001,18,female
49,ab,3,87,hh,hh,TRUE,2919.622,18,female
49,ab,3,88,hh,hh,TRUE,1921.8319999999999,18,female
49,ab,3,89,lh,ll,FALSE,2540.969,18,female
49,ab,3,90,hl,lh,FALSE,11490.235,18,female
49,ab,3,91,hl,lh,FALSE,2527.018,18,female
49,ab,3,92,ll,ll,TRUE,7551.799999999999,18,female
49,ab,3,93,lh,hl,FALSE,8219.499,18,female
49,ab,3,94,ll,ll,TRUE,2443.157,18,female
49,ab,3,95,lh,ll,FALSE,2498.199,18,female
49,ab,3,96,lh,ll,FALSE,1982.174,18,female
49,ab,3,97,ll,hl,FALSE,4582.509,18,female
49,ab,3,98,lh,ll,FALSE,2246.895,18,female
49,ab,3,99,hh,lh,FALSE,2458.837,18,female
49,ab,3,100,hh,lh,FALSE,3978.3940000000002,18,female
49,ab,3,101,lh,ll,FALSE,1587.062,18,female
49,ab,3,102,hl,hh,FALSE,1258.7469999999998,18,female
49,ab,3,103,hl,hh,FALSE,1616.399,18,female
49,ab,3,104,hh,hh,TRUE,5207.468,18,female
49,ab,3,105,hl,lh,FALSE,2775.634,18,female
49,ab,3,106,lh,ll,FALSE,1987.395,18,female
49,ab,3,107,lh,ll,FALSE,4115.954,18,female
49,ab,3,108,ll,ll,TRUE,2182.46,18,female
49,ab,3,109,ll,lh,FALSE,3070.696,18,female
49,ab,3,110,hh,hl,FALSE,3986.7160000000003,18,female
49,ab,3,111,ll,ll,TRUE,2587.999,18,female
49,ab,3,112,hh,hh,TRUE,3812.741,18,female
49,ab,3,113,lh,lh,TRUE,2181.597,18,female
49,ab,3,114,ll,lh,FALSE,4837.073,18,female
49,ab,3,115,hh,hh,TRUE,2899.72,18,female
49,ab,3,116,hh,hh,TRUE,1200.4389999999999,18,female
49,ab,3,117,hh,hh,TRUE,4018.3329999999996,18,female
49,ab,3,118,lh,ll,FALSE,3189.928,18,female
49,ab,3,119,hh,ll,FALSE,1369.444,18,female
49,ab,3,120,lh,ll,FALSE,1568.2310000000002,18,female
49,ab,4,1,ll,ll,TRUE,2240.899,18,female
49,ab,4,2,lh,ll,FALSE,1559.766,18,female
49,ab,4,3,ll,ll,TRUE,1191.1889999999999,18,female
49,ab,4,4,hh,hh,TRUE,1144.946,18,female
49,ab,4,5,ll,hl,FALSE,1305.4119999999998,18,female
49,ab,4,6,hh,hh,TRUE,1165.906,18,female
49,ab,4,7,hl,lh,FALSE,3393.138,18,female
49,ab,4,8,lh,lh,TRUE,2256.918,18,female
49,ab,4,9,hh,lh,FALSE,2021.8220000000001,18,female
49,ab,4,10,hl,lh,FALSE,1894.241,18,female
49,ab,4,11,ll,hl,FALSE,5147.611,18,female
49,ab,4,12,lh,hh,FALSE,12604.095,18,female
49,ab,4,13,ll,ll,TRUE,3523.201,18,female
49,ab,4,14,hh,lh,FALSE,12090.42,18,female
49,ab,4,15,hh,hl,FALSE,5020.812,18,female
49,ab,4,16,hl,hh,FALSE,2099.151,18,female
49,ab,4,17,hl,hh,FALSE,1222.9609999999998,18,female
49,ab,4,18,lh,hl,FALSE,3344.008,18,female
49,ab,4,19,hh,hl,FALSE,4938.944,18,female
49,ab,4,20,ll,ll,TRUE,1180.56,18,female
49,ab,4,21,lh,lh,TRUE,2246.782,18,female
49,ab,4,22,lh,ll,FALSE,1386.5990000000002,18,female
49,ab,4,23,ll,ll,TRUE,1404.2150000000001,18,female
49,ab,4,24,lh,hh,FALSE,6083.052,18,female
49,ab,4,25,hh,hh,TRUE,5425.735,18,female
49,ab,4,26,ll,ll,TRUE,8057.258,18,female
49,ab,4,27,hh,ll,FALSE,1237.147,18,female
49,ab,4,28,hl,ll,FALSE,1268.275,18,female
49,ab,4,29,hl,lh,FALSE,2841.893,18,female
49,ab,4,30,hh,hh,TRUE,4111.801,18,female
49,ab,4,31,ll,ll,TRUE,970.8399999999999,18,female
49,ab,4,32,hh,hh,TRUE,1044.104,18,female
49,ab,4,33,hl,hl,TRUE,3106.6180000000004,18,female
49,ab,4,34,ll,hh,FALSE,1944.592,18,female
49,ab,4,35,lh,hh,FALSE,2395.728,18,female
49,ab,4,36,ll,ll,TRUE,2544.548,18,female
49,ab,4,37,hh,hh,TRUE,8213.95,18,female
49,ab,4,38,lh,hh,FALSE,1316.7469999999998,18,female
49,ab,4,39,ll,lh,FALSE,1815.7640000000001,18,female
49,ab,4,40,lh,ll,FALSE,2198.914,18,female
49,ab,4,41,hl,lh,FALSE,2125.48,18,female
49,ab,4,42,lh,ll,FALSE,1299.147,18,female
49,ab,4,43,lh,hh,FALSE,5108.567,18,female
49,ab,4,44,hl,hh,FALSE,1032.86,18,female
49,ab,4,45,lh,lh,TRUE,4449.894,18,female
49,ab,4,46,lh,ll,FALSE,2480.283,18,female
49,ab,4,47,hh,hh,TRUE,2741.312,18,female
49,ab,4,48,ll,ll,TRUE,2476.516,18,female
49,ab,4,49,hh,ll,FALSE,10842.151,18,female
49,ab,4,50,lh,ll,FALSE,3139.009,18,female
49,ab,4,51,hl,hl,TRUE,8603.482,18,female
49,ab,4,52,lh,ll,FALSE,3107.749,18,female
49,ab,4,53,hl,ll,FALSE,4623.861,18,female
49,ab,4,54,hh,ll,FALSE,2566.68,18,female
49,ab,4,55,hl,hh,FALSE,943.8499999999999,18,female
49,ab,4,56,hh,hl,FALSE,3314.6760000000004,18,female
49,ab,4,57,lh,ll,FALSE,3864.5290000000005,18,female
49,ab,4,58,hl,hh,FALSE,2475.442,18,female
49,ab,4,59,hh,ll,FALSE,1496.373,18,female
49,ab,4,60,hl,lh,FALSE,3285.303,18,female
49,ab,4,61,ll,ll,TRUE,2433.633,18,female
49,ab,4,62,hl,ll,FALSE,1305.5949999999998,18,female
49,ab,4,63,hh,hh,TRUE,1966.779,18,female
49,ab,4,64,ll,ll,TRUE,1551.156,18,female
49,ab,4,65,ll,ll,TRUE,1377.699,18,female
49,ab,4,66,hh,hh,TRUE,2313.865,18,female
49,ab,4,67,hl,hh,FALSE,966.4159999999999,18,female
49,ab,4,68,lh,lh,TRUE,7133.93,18,female
49,ab,4,69,hh,lh,FALSE,1663.737,18,female
49,ab,4,70,ll,ll,TRUE,12504.655,18,female
49,ab,4,71,hl,hl,TRUE,2026.88,18,female
49,ab,4,72,hl,ll,FALSE,1162.922,18,female
49,ab,4,73,hl,hh,FALSE,4457.625,18,female
49,ab,4,74,lh,ll,FALSE,2033.563,18,female
49,ab,4,75,hl,ll,FALSE,3269.701,18,female
49,ab,4,76,ll,ll,TRUE,1403.373,18,female
49,ab,4,77,lh,lh,TRUE,7174.045,18,female
49,ab,4,78,hh,hh,TRUE,1988.953,18,female
49,ab,4,79,hl,hh,FALSE,2263.035,18,female
49,ab,4,80,ll,ll,TRUE,2340.136,18,female
49,ab,4,81,hh,hl,FALSE,1656.7759999999998,18,female
49,ab,4,82,lh,lh,TRUE,2013.018,18,female
49,ab,4,83,lh,ll,FALSE,1963.1480000000001,18,female
49,ab,4,84,hh,hh,TRUE,2695.368,18,female
49,ab,4,85,ll,ll,TRUE,1498.594,18,female
49,ab,4,86,ll,ll,TRUE,2149.496,18,female
49,ab,4,87,ll,ll,TRUE,2399.564,18,female
49,ab,4,88,hl,hh,FALSE,3373.758,18,female
49,ab,4,89,ll,hl,FALSE,2480.699,18,female
49,ab,4,90,ll,ll,TRUE,5540.443,18,female
49,ab,4,91,hh,ll,FALSE,1134.775,18,female
49,ab,4,92,lh,ll,FALSE,6121.58,18,female
49,ab,4,93,hl,hh,FALSE,1197.973,18,female
49,ab,4,94,hl,lh,FALSE,3348.2259999999997,18,female
49,ab,4,95,hl,ll,FALSE,3825.3990000000003,18,female
49,ab,4,96,lh,ll,FALSE,3101.7299999999996,18,female
49,ab,4,97,lh,hh,FALSE,2857.054,18,female
49,ab,4,98,ll,lh,FALSE,2547.843,18,female
49,ab,4,99,lh,hh,FALSE,2067.811,18,female
49,ab,4,100,lh,lh,TRUE,1553.0659999999998,18,female
49,ab,4,101,ll,ll,TRUE,1203.248,18,female
49,ab,4,102,ll,lh,FALSE,2473.413,18,female
49,ab,4,103,ll,hl,FALSE,2479.525,18,female
49,ab,4,104,ll,lh,FALSE,3785.749,18,female
49,ab,4,105,hh,lh,FALSE,3225.999,18,female
49,ab,4,106,hh,lh,FALSE,1738.1770000000001,18,female
49,ab,4,107,hl,ll,FALSE,1868.6109999999999,18,female
49,ab,4,108,hl,lh,FALSE,4114.84,18,female
49,ab,4,109,hl,ll,FALSE,1133.5569999999998,18,female
49,ab,4,110,hl,ll,FALSE,1336.1309999999999,18,female
49,ab,4,111,hl,ll,FALSE,2852.323,18,female
49,ab,4,112,hh,hh,TRUE,1450.085,18,female
49,ab,4,113,hl,ll,FALSE,2654.614,18,female
49,ab,4,114,hh,hh,TRUE,1452.5140000000001,18,female
49,ab,4,115,lh,hh,FALSE,1194.4119999999998,18,female
49,ab,4,116,hh,hh,TRUE,1179.067,18,female
49,ab,4,117,ll,ll,TRUE,2727.216,18,female
49,ab,4,118,ll,lh,FALSE,3440.108,18,female
49,ab,4,119,lh,ll,FALSE,7208.867,18,female
49,ab,4,120,hh,lh,FALSE,2089.831,18,female
49,ab,5,1,hl,lh,FALSE,4712.659,18,female
49,ab,5,2,hl,lh,FALSE,1382.3319999999999,18,female
49,ab,5,3,lh,ll,FALSE,2254.537,18,female
49,ab,5,4,hh,hl,FALSE,3395.946,18,female
49,ab,5,5,ll,ll,TRUE,2157.097,18,female
49,ab,5,6,hh,hl,FALSE,4768.057,18,female
49,ab,5,7,hl,ll,FALSE,1848.1689999999999,18,female
49,ab,5,8,hh,hh,TRUE,3100.906,18,female
49,ab,5,9,lh,hh,FALSE,983.153,18,female
49,ab,5,10,hh,hh,TRUE,1344.016,18,female
49,ab,5,11,lh,ll,FALSE,3055.407,18,female
49,ab,5,12,lh,ll,FALSE,5336.34,18,female
49,ab,5,13,lh,ll,FALSE,1187.5410000000002,18,female
49,ab,5,14,hl,lh,FALSE,1267.8020000000001,18,female
49,ab,5,15,hl,lh,FALSE,4794.858,18,female
49,ab,5,16,hl,hl,TRUE,8024.924000000001,18,female
49,ab,5,17,lh,ll,FALSE,3784.647,18,female
49,ab,5,18,hl,hh,FALSE,6532.749,18,female
49,ab,5,19,hl,lh,FALSE,2755.668,18,female
49,ab,5,20,hh,lh,FALSE,3293.742,18,female
49,ab,5,21,hh,hh,TRUE,1070.045,18,female
49,ab,5,22,hl,hl,TRUE,3569.2039999999997,18,female
49,ab,5,23,hh,ll,FALSE,3475.593,18,female
49,ab,5,24,hl,ll,FALSE,830.2539999999999,18,female
49,ab,5,25,hl,ll,FALSE,2357.037,18,female
49,ab,5,26,ll,lh,FALSE,2039.286,18,female
49,ab,5,27,hl,hh,FALSE,2982.634,18,female
49,ab,5,28,hh,hh,TRUE,896.28,18,female
49,ab,5,29,lh,ll,FALSE,3141.298,18,female
49,ab,5,30,ll,ll,TRUE,1469.292,18,female
49,ab,5,31,ll,ll,TRUE,8994.287,18,female
49,ab,5,32,hh,ll,FALSE,3290.938,18,female
49,ab,5,33,hh,hh,TRUE,996.3140000000001,18,female
49,ab,5,34,hh,hh,TRUE,1097.165,18,female
49,ab,5,35,ll,ll,TRUE,1462.2359999999999,18,female
49,ab,5,36,ll,ll,TRUE,3177.755,18,female
49,ab,5,37,ll,hl,FALSE,3930.932,18,female
49,ab,5,38,hl,ll,FALSE,2736.604,18,female
49,ab,5,39,hl,ll,FALSE,1464.661,18,female
49,ab,5,40,ll,ll,TRUE,1469.344,18,female
49,ab,5,41,ll,ll,TRUE,1674.996,18,female
49,ab,5,42,ll,lh,FALSE,2121.749,18,female
49,ab,5,43,hl,hh,FALSE,1243.085,18,female
49,ab,5,44,hl,lh,FALSE,2121.404,18,female
49,ab,5,45,lh,ll,FALSE,1124.138,18,female
49,ab,5,46,lh,ll,FALSE,1920.6509999999998,18,female
49,ab,5,47,ll,ll,TRUE,3971.3109999999997,18,female
49,ab,5,48,hh,hh,TRUE,2062.219,18,female
49,ab,5,49,ll,hl,FALSE,1385.81,18,female
49,ab,5,50,lh,ll,FALSE,1619.225,18,female
49,ab,5,51,ll,ll,TRUE,2173.789,18,female
49,ab,5,52,hl,hh,FALSE,10084.639,18,female
49,ab,5,53,lh,ll,FALSE,4091.791,18,female
49,ab,5,54,hh,hl,FALSE,10013.923,18,female
49,ab,5,55,ll,ll,TRUE,1046.852,18,female
49,ab,5,56,hl,hh,FALSE,764.6969999999999,18,female
49,ab,5,57,ll,lh,FALSE,2795.332,18,female
49,ab,5,58,hl,hh,FALSE,2098.243,18,female
49,ab,5,59,lh,hh,FALSE,1465.3069999999998,18,female
49,ab,5,60,hl,ll,FALSE,3295.2479999999996,18,female
49,ab,5,61,lh,ll,FALSE,1825.127,18,female
49,ab,5,62,hh,lh,FALSE,2947.694,18,female
49,ab,5,63,hh,lh,FALSE,2276.772,18,female
49,ab,5,64,hh,hl,FALSE,5408.212,18,female
49,ab,5,65,hh,hl,FALSE,2904.155,18,female
49,ab,5,66,lh,ll,FALSE,1030,18,female
49,ab,5,67,lh,hh,FALSE,909.9590000000001,18,female
49,ab,5,68,ll,hl,FALSE,6190.158,18,female
49,ab,5,69,ll,hl,FALSE,2558.714,18,female
49,ab,5,70,lh,hl,FALSE,1378.0120000000002,18,female
49,ab,5,71,hh,hh,TRUE,1192.9140000000002,18,female
49,ab,5,72,hh,hh,TRUE,1034.021,18,female
49,ab,5,73,hl,ll,FALSE,1242.8560000000002,18,female
49,ab,5,74,lh,hh,FALSE,1607.15,18,female
49,ab,5,75,hh,hh,TRUE,11158.79,18,female
49,ab,5,76,hh,hh,TRUE,2353.955,18,female
49,ab,5,77,lh,lh,TRUE,10835.531,18,female
49,ab,5,78,hl,lh,FALSE,1472.605,18,female
49,ab,5,79,hl,lh,FALSE,2030.357,18,female
49,ab,5,80,lh,hl,FALSE,4061.0379999999996,18,female
49,ab,5,81,hh,hh,TRUE,1859.2220000000002,18,female
49,ab,5,82,lh,hh,FALSE,1004.115,18,female
49,ab,5,83,hh,lh,FALSE,2488.768,18,female
49,ab,5,84,hl,ll,FALSE,5525.88,18,female
49,ab,5,85,hh,hl,FALSE,3554.986,18,female
49,ab,5,86,ll,ll,TRUE,3748.7,18,female
49,ab,5,87,lh,lh,TRUE,6133.049,18,female
49,ab,5,88,hl,hh,FALSE,1227.5100000000002,18,female
49,ab,5,89,ll,hl,FALSE,6711.16,18,female
49,ab,5,90,hh,hh,TRUE,1475.4720000000002,18,female
49,ab,5,91,lh,hh,FALSE,4363.296,18,female
49,ab,5,92,hh,hl,FALSE,5636.559,18,female
49,ab,5,93,hl,hh,FALSE,5096.056,18,female
49,ab,5,94,hh,lh,FALSE,7526.9619999999995,18,female
49,ab,5,95,hl,ll,FALSE,4753.078,18,female
49,ab,5,96,hl,lh,FALSE,2477.003,18,female
49,ab,5,97,ll,ll,TRUE,1873.1599999999999,18,female
49,ab,5,98,ll,ll,TRUE,9309.934,18,female
49,ab,5,99,hl,hl,TRUE,3480.124,18,female
49,ab,5,100,ll,ll,TRUE,1676.3939999999998,18,female
49,ab,5,101,lh,ll,FALSE,3996.3999999999996,18,female
49,ab,5,102,hh,hh,TRUE,4953.313,18,female
49,ab,5,103,hl,ll,FALSE,4067.742,18,female
49,ab,5,104,hh,lh,FALSE,6636.389,18,female
49,ab,5,105,hl,ll,FALSE,8890.138,18,female
49,ab,5,106,hh,lh,FALSE,2949.91,18,female
49,ab,5,107,hh,hh,TRUE,799.1949999999999,18,female
49,ab,5,108,lh,hh,FALSE,967.9179999999999,18,female
49,ab,5,109,lh,lh,TRUE,2553.623,18,female
49,ab,5,110,ll,lh,FALSE,1727.9569999999999,18,female
49,ab,5,111,hl,hl,TRUE,4508.691,18,female
49,ab,5,112,ll,ll,TRUE,2959.891,18,female
49,ab,5,113,hh,hl,FALSE,3557.161,18,female
49,ab,5,114,lh,hl,FALSE,2397.749,18,female
49,ab,5,115,lh,hh,FALSE,1176.0430000000001,18,female
49,ab,5,116,hl,ll,FALSE,1837.5169999999998,18,female
49,ab,5,117,hh,ll,FALSE,4357.182,18,female
49,ab,5,118,lh,hl,FALSE,4036.862,18,female
49,ab,5,119,hh,hh,TRUE,2180.876,18,female
49,ab,5,120,lh,ll,FALSE,3428.581,18,female
