pID,condition,block_no,trial_no,stimulus,response,correct,rt,age,gender
55,ab,1,1,ll,ll,TRUE,4899.8,19,female
55,ab,1,2,ll,ll,TRUE,1735.1,19,female
55,ab,1,3,hh,hl,FALSE,7434.1,19,female
55,ab,1,4,ll,hl,FALSE,4276.4,19,female
55,ab,1,5,ll,ll,TRUE,2674.2,19,female
55,ab,1,6,hh,hh,TRUE,750.5999999999999,19,female
55,ab,1,7,ll,ll,TRUE,3651.1000000000004,19,female
55,ab,1,8,lh,hh,FALSE,1472.8000000000002,19,female
55,ab,1,9,hh,hh,TRUE,1109.6999999999998,19,female
55,ab,1,10,ll,ll,TRUE,2060.1,19,female
55,ab,1,11,ll,ll,TRUE,2200.1,19,female
55,ab,1,12,lh,hl,FALSE,7296.1,19,female
55,ab,1,13,lh,hl,FALSE,3521.6000000000004,19,female
55,ab,1,14,hl,hl,TRUE,4022,19,female
55,ab,1,15,lh,hl,FALSE,5995.9,19,female
55,ab,1,16,lh,hl,FALSE,1706.9,19,female
55,ab,1,17,ll,ll,TRUE,1391.3000000000002,19,female
55,ab,1,18,hl,ll,FALSE,1624.3000000000002,19,female
55,ab,1,19,ll,hl,FALSE,7037.5,19,female
55,ab,1,20,lh,hh,FALSE,2027.5,19,female
55,ab,1,21,ll,ll,TRUE,4466,19,female
55,ab,1,22,ll,ll,TRUE,3357.3,19,female
55,ab,1,23,hl,hl,TRUE,2638.9,19,female
55,ab,1,24,hl,hh,FALSE,1550.3000000000002,19,female
55,ab,1,25,hh,hh,TRUE,1155.5,19,female
55,ab,1,26,hl,hh,FALSE,807.5999999999999,19,female
55,ab,1,27,hh,hh,TRUE,704.7,19,female
55,ab,1,28,ll,ll,TRUE,1446.6,19,female
55,ab,1,29,lh,hl,FALSE,4549.878,19,female
55,ab,1,30,ll,ll,TRUE,2366.4,19,female
55,ab,1,31,hh,hh,TRUE,920.8,19,female
55,ab,1,32,ll,ll,TRUE,2869.6,19,female
55,ab,1,33,lh,ll,FALSE,2755.9,19,female
55,ab,1,34,hl,hh,FALSE,1172.3000000000002,19,female
55,ab,1,35,hl,hh,FALSE,2648.7,19,female
55,ab,1,36,hl,hh,FALSE,1423.6999999999998,19,female
55,ab,1,37,ll,ll,TRUE,2286.9,19,female
55,ab,1,38,lh,hl,FALSE,4765.2,19,female
55,ab,1,39,ll,ll,TRUE,1565,19,female
55,ab,1,40,hh,hh,TRUE,7303.5,19,female
55,ab,1,41,lh,hh,FALSE,1327.8000000000002,19,female
55,ab,1,42,lh,ll,FALSE,1172,19,female
55,ab,1,43,hh,hh,TRUE,1221,19,female
55,ab,1,44,ll,hl,FALSE,8688.1,19,female
55,ab,1,45,hl,hh,FALSE,1271.9,19,female
55,ab,1,46,hl,ll,FALSE,5671.1,19,female
55,ab,1,47,ll,ll,TRUE,4537.7,19,female
55,ab,1,48,hh,hh,TRUE,2075.8,19,female
55,ab,1,49,ll,ll,TRUE,5952.7,19,female
55,ab,1,50,ll,ll,TRUE,1154.1,19,female
55,ab,1,51,hh,hh,TRUE,1300.1999999999998,19,female
55,ab,1,52,ll,ll,TRUE,2953.4,19,female
55,ab,1,53,lh,hh,FALSE,1356.6,19,female
55,ab,1,54,lh,hl,FALSE,3494.6000000000004,19,female
55,ab,1,55,hh,hh,TRUE,815.5999999999999,19,female
55,ab,1,56,hh,hl,FALSE,3499.2,19,female
55,ab,1,57,hl,hh,FALSE,1726.9,19,female
55,ab,1,58,ll,lh,FALSE,7527.9,19,female
55,ab,1,59,hh,hh,TRUE,1922.5,19,female
55,ab,1,60,lh,hh,FALSE,1006.7,19,female
55,ab,1,61,hh,hh,TRUE,1167.3000000000002,19,female
55,ab,1,62,ll,ll,TRUE,1754.8000000000002,19,female
55,ab,1,63,hl,hh,FALSE,1742.4,19,female
55,ab,1,64,hl,hh,FALSE,870.7,19,female
55,ab,1,65,lh,hh,FALSE,1222.1,19,female
55,ab,1,66,hh,hh,TRUE,1505.5,19,female
55,ab,1,67,hl,hl,TRUE,3926.6000000000004,19,female
55,ab,1,68,lh,hh,FALSE,3958,19,female
55,ab,1,69,hh,hh,TRUE,1049.3000000000002,19,female
55,ab,1,70,ll,hl,FALSE,3393.8999999999996,19,female
55,ab,1,71,hh,hh,TRUE,1929.1,19,female
55,ab,1,72,hl,hh,FALSE,1220.9,19,female
55,ab,1,73,lh,hh,FALSE,6806.2,19,female
55,ab,1,74,lh,hh,FALSE,2578.2,19,female
55,ab,1,75,ll,lh,FALSE,4499.2,19,female
55,ab,1,76,ll,ll,TRUE,2942.5,19,female
55,ab,1,77,hl,hh,FALSE,992.4000000000001,19,female
55,ab,1,78,hl,hh,FALSE,971.2,19,female
55,ab,1,79,hh,hh,TRUE,1069.6,19,female
55,ab,1,80,ll,ll,TRUE,3188.3,19,female
55,ab,1,81,hl,hh,FALSE,2628.7,19,female
55,ab,1,82,hh,hh,TRUE,3603.3,19,female
55,ab,1,83,ll,hl,FALSE,8068.200000000001,19,female
55,ab,1,84,ll,hl,FALSE,5948.3,19,female
55,ab,1,85,hl,hh,FALSE,1643.5,19,female
55,ab,1,86,lh,hh,FALSE,1458.1,19,female
55,ab,1,87,lh,hh,FALSE,5154.6,19,female
55,ab,1,88,lh,hh,FALSE,2969.8,19,female
55,ab,1,89,hl,hh,FALSE,2019.1,19,female
55,ab,1,90,hl,ll,FALSE,2611.5,19,female
55,ab,1,91,hl,hh,FALSE,4600.4,19,female
55,ab,1,92,hh,hh,TRUE,1578.8000000000002,19,female
55,ab,1,93,lh,ll,FALSE,8300.3,19,female
55,ab,1,94,ll,hl,FALSE,5715.2,19,female
55,ab,1,95,hh,hh,TRUE,8067.299999999999,19,female
55,ab,1,96,lh,ll,FALSE,2126.6,19,female
55,ab,1,97,lh,hh,FALSE,2038.1999999999998,19,female
55,ab,1,98,hh,hh,TRUE,1577.3000000000002,19,female
55,ab,1,99,ll,hl,FALSE,4896.1,19,female
55,ab,1,100,ll,ll,TRUE,1205.6999999999998,19,female
55,ab,1,101,ll,ll,TRUE,2198.3,19,female
55,ab,1,102,hl,ll,FALSE,3782.8,19,female
55,ab,1,103,ll,hh,FALSE,2551.1,19,female
55,ab,1,104,hh,hh,TRUE,1128.8000000000002,19,female
55,ab,1,105,hh,hh,TRUE,863.8,19,female
55,ab,1,106,hl,ll,FALSE,2933.1,19,female
55,ab,1,107,lh,hh,FALSE,5224.1,19,female
55,ab,1,108,hl,hh,FALSE,2756.3,19,female
55,ab,1,109,lh,hl,FALSE,5278.204,19,female
55,ab,1,110,ll,ll,TRUE,4505,19,female
55,ab,1,111,lh,hh,FALSE,1251.9,19,female
55,ab,1,112,hh,hl,FALSE,4571.8,19,female
55,ab,1,113,lh,ll,FALSE,915.7,19,female
55,ab,1,114,hh,hh,TRUE,961.0999999999999,19,female
55,ab,1,115,lh,ll,FALSE,4868.3,19,female
55,ab,1,116,hl,hh,FALSE,3262.3999999999996,19,female
55,ab,1,117,ll,hl,FALSE,4003.8999999999996,19,female
55,ab,1,118,hh,hh,TRUE,1467.1,19,female
55,ab,1,119,ll,lh,FALSE,4530.3,19,female
55,ab,1,120,hl,hh,FALSE,835.4000000000001,19,female
55,ab,2,1,hh,hh,TRUE,1011.9000000000001,19,female
55,ab,2,2,ll,hl,FALSE,6170.2,19,female
55,ab,2,3,hl,hh,FALSE,2979.3,19,female
55,ab,2,4,lh,hh,FALSE,776.3,19,female
55,ab,2,5,hh,hh,TRUE,822.0999999999999,19,female
55,ab,2,6,ll,ll,TRUE,1910.4,19,female
55,ab,2,7,hh,hh,TRUE,802.7,19,female
55,ab,2,8,lh,hl,FALSE,3708.2,19,female
55,ab,2,9,lh,ll,FALSE,1223.8000000000002,19,female
55,ab,2,10,hh,lh,FALSE,5039.9,19,female
55,ab,2,11,ll,ll,TRUE,9228.1,19,female
55,ab,2,12,lh,ll,FALSE,1126.1399999999999,19,female
55,ab,2,13,hh,hh,TRUE,1075.6,19,female
55,ab,2,14,lh,hh,FALSE,890.7,19,female
55,ab,2,15,ll,ll,TRUE,936.2,19,female
55,ab,2,16,hl,lh,FALSE,4220.9,19,female
55,ab,2,17,ll,ll,TRUE,6432.7,19,female
55,ab,2,18,hl,hh,FALSE,786.7,19,female
55,ab,2,19,hh,hh,TRUE,593.8,19,female
55,ab,2,20,lh,hh,FALSE,2016.1,19,female
55,ab,2,21,hl,lh,FALSE,4576.5,19,female
55,ab,2,22,ll,ll,TRUE,1547.6,19,female
55,ab,2,23,ll,hl,FALSE,7310.4,19,female
55,ab,2,24,ll,ll,TRUE,2079.3,19,female
55,ab,2,25,ll,ll,TRUE,964.0999999999999,19,female
55,ab,2,26,lh,hh,FALSE,750.2,19,female
55,ab,2,27,hh,hh,TRUE,1003.4000000000001,19,female
55,ab,2,28,lh,hh,FALSE,1414.1,19,female
55,ab,2,29,hh,hh,TRUE,1516.5,19,female
55,ab,2,30,lh,ll,FALSE,1330.3000000000002,19,female
55,ab,2,31,hl,hl,TRUE,4279.1,19,female
55,ab,2,32,ll,ll,TRUE,962.4000000000001,19,female
55,ab,2,33,hl,lh,FALSE,5613.5,19,female
55,ab,2,34,hh,hh,TRUE,785.9000000000001,19,female
55,ab,2,35,ll,ll,TRUE,2069.172,19,female
55,ab,2,36,hh,hh,TRUE,746.8,19,female
55,ab,2,37,hl,hh,FALSE,3751.3,19,female
55,ab,2,38,ll,hl,FALSE,3992.5,19,female
55,ab,2,39,lh,hh,FALSE,1471.5,19,female
55,ab,2,40,ll,ll,TRUE,2478.8,19,female
55,ab,2,41,hh,hh,TRUE,2180.8,19,female
55,ab,2,42,ll,ll,TRUE,4729.6,19,female
55,ab,2,43,lh,hh,FALSE,3583,19,female
55,ab,2,44,lh,lh,TRUE,6542.94,19,female
55,ab,2,45,ll,ll,TRUE,1358.1,19,female
55,ab,2,46,hl,ll,FALSE,2490.1,19,female
55,ab,2,47,hl,hh,FALSE,2701.3,19,female
55,ab,2,48,ll,ll,TRUE,1434.6999999999998,19,female
55,ab,2,49,lh,hh,FALSE,3662.8999999999996,19,female
55,ab,2,50,hh,hh,TRUE,1910.8000000000002,19,female
55,ab,2,51,lh,ll,FALSE,1796.6999999999998,19,female
55,ab,2,52,ll,ll,TRUE,1592.6999999999998,19,female
55,ab,2,53,ll,ll,TRUE,1573.8000000000002,19,female
55,ab,2,54,hh,ll,FALSE,5608.6,19,female
55,ab,2,55,lh,lh,TRUE,6021.7,19,female
55,ab,2,56,ll,hh,FALSE,3332.8999999999996,19,female
55,ab,2,57,hl,hh,FALSE,852,19,female
55,ab,2,58,hh,hh,TRUE,794.7,19,female
55,ab,2,59,lh,hh,FALSE,3566.6000000000004,19,female
55,ab,2,60,ll,ll,TRUE,1190.9,19,female
55,ab,2,61,ll,ll,TRUE,912.7,19,female
55,ab,2,62,hh,hh,TRUE,1227.1,19,female
55,ab,2,63,hh,hl,FALSE,3423,19,female
55,ab,2,64,hl,hh,FALSE,1409.9,19,female
55,ab,2,65,lh,hh,FALSE,2286.4,19,female
55,ab,2,66,hh,hh,TRUE,1491.3000000000002,19,female
55,ab,2,67,lh,hh,FALSE,959.5999999999999,19,female
55,ab,2,68,lh,hh,FALSE,2671.4,19,female
55,ab,2,69,ll,ll,TRUE,2062.4,19,female
55,ab,2,70,ll,ll,TRUE,1791.8000000000002,19,female
55,ab,2,71,hl,hh,FALSE,1928.4,19,female
55,ab,2,72,hl,hl,TRUE,4956.1,19,female
55,ab,2,73,lh,hh,FALSE,1756.1999999999998,19,female
55,ab,2,74,hh,hh,TRUE,1147.1999999999998,19,female
55,ab,2,75,ll,ll,TRUE,4034.3999999999996,19,female
55,ab,2,76,ll,ll,TRUE,3524.7,19,female
55,ab,2,77,hl,ll,FALSE,2161.8,19,female
55,ab,2,78,ll,ll,TRUE,4445.6,19,female
55,ab,2,79,hh,hh,TRUE,4570.6,19,female
55,ab,2,80,hl,hh,FALSE,1354.8000000000002,19,female
55,ab,2,81,hh,hh,TRUE,789.9000000000001,19,female
55,ab,2,82,hh,hh,TRUE,903.7,19,female
55,ab,2,83,hl,ll,FALSE,1531.1,19,female
55,ab,2,84,hl,lh,FALSE,4834,19,female
55,ab,2,85,lh,hh,FALSE,2410.602,19,female
55,ab,2,86,hl,hh,FALSE,1215,19,female
55,ab,2,87,lh,hh,FALSE,1143.4,19,female
55,ab,2,88,ll,ll,TRUE,1027.6,19,female
55,ab,2,89,ll,ll,TRUE,1091.4,19,female
55,ab,2,90,lh,hh,FALSE,964.5,19,female
55,ab,2,91,hh,hh,TRUE,2092.7,19,female
55,ab,2,92,hh,hh,TRUE,753.9000000000001,19,female
55,ab,2,93,hh,hh,TRUE,701.2,19,female
55,ab,2,94,hh,hh,TRUE,722.876,19,female
55,ab,2,95,ll,hh,FALSE,1648.1,19,female
55,ab,2,96,lh,hh,FALSE,2247.5,19,female
55,ab,2,97,hh,hh,TRUE,2007.6,19,female
55,ab,2,98,hl,ll,FALSE,1748.3000000000002,19,female
55,ab,2,99,hh,hh,TRUE,818.9000000000001,19,female
55,ab,2,100,ll,hh,FALSE,8635.1,19,female
55,ab,2,101,hl,hh,FALSE,1469.1999999999998,19,female
55,ab,2,102,ll,ll,TRUE,906.7,19,female
55,ab,2,103,hl,ll,FALSE,1480.6,19,female
55,ab,2,104,hl,hh,FALSE,1422.6999999999998,19,female
55,ab,2,105,lh,hh,FALSE,6230.9,19,female
55,ab,2,106,ll,hl,FALSE,4872.6,19,female
55,ab,2,107,lh,hh,FALSE,1551.1,19,female
55,ab,2,108,ll,ll,TRUE,5267,19,female
55,ab,2,109,ll,hl,FALSE,4294.5,19,female
55,ab,2,110,hh,hh,TRUE,1046.8,19,female
55,ab,2,111,hh,hh,TRUE,1160.5,19,female
55,ab,2,112,hh,hh,TRUE,708.5,19,female
55,ab,2,113,lh,hh,FALSE,2744.6,19,female
55,ab,2,114,hh,hl,FALSE,7259.6,19,female
55,ab,2,115,hh,hl,FALSE,2374.4,19,female
55,ab,2,116,hl,ll,FALSE,4367.1,19,female
55,ab,2,117,lh,hh,FALSE,1256.6,19,female
55,ab,2,118,ll,ll,TRUE,1718.8000000000002,19,female
55,ab,2,119,hh,hh,TRUE,851.0999999999999,19,female
55,ab,2,120,lh,hl,FALSE,6139.5,19,female
55,ab,3,1,ll,ll,TRUE,4622,19,female
55,ab,3,2,lh,ll,FALSE,1362.1,19,female
55,ab,3,3,hh,ll,FALSE,1480.1,19,female
55,ab,3,4,hl,hh,FALSE,1036.4,19,female
55,ab,3,5,hh,hh,TRUE,636.5,19,female
55,ab,3,6,lh,hh,FALSE,6700.9,19,female
55,ab,3,7,hl,ll,FALSE,1970.8000000000002,19,female
55,ab,3,8,hl,ll,FALSE,3539.6000000000004,19,female
55,ab,3,9,hh,hh,TRUE,4363,19,female
55,ab,3,10,lh,hh,FALSE,1395.6,19,female
55,ab,3,11,hl,hh,FALSE,1052.6,19,female
55,ab,3,12,hh,hh,TRUE,637.4000000000001,19,female
55,ab,3,13,hl,ll,FALSE,3997.7,19,female
55,ab,3,14,hh,hh,TRUE,820.4000000000001,19,female
55,ab,3,15,ll,hh,FALSE,1189.6080000000002,19,female
55,ab,3,16,ll,hl,FALSE,6503.9,19,female
55,ab,3,17,lh,hh,FALSE,1232.6999999999998,19,female
55,ab,3,18,ll,hl,FALSE,4392.8,19,female
55,ab,3,19,lh,hh,FALSE,5289.2,19,female
55,ab,3,20,lh,lh,TRUE,6314.5,19,female
55,ab,3,21,ll,hh,FALSE,2954.4,19,female
55,ab,3,22,hh,hh,TRUE,885.5,19,female
55,ab,3,23,hl,hh,FALSE,1220,19,female
55,ab,3,24,hl,hh,FALSE,893.0999999999999,19,female
55,ab,3,25,lh,hh,FALSE,659,19,female
55,ab,3,26,hl,hh,FALSE,2218.5,19,female
55,ab,3,27,ll,ll,TRUE,1594.1999999999998,19,female
55,ab,3,28,lh,lh,TRUE,4323.8,19,female
55,ab,3,29,ll,hl,FALSE,2678.6,19,female
55,ab,3,30,ll,hh,FALSE,4332.4,19,female
55,ab,3,31,hl,hl,TRUE,2914.4,19,female
55,ab,3,32,lh,ll,FALSE,288.5999999999999,19,female
55,ab,3,33,ll,ll,TRUE,10630.9,19,female
55,ab,3,34,hh,hh,TRUE,902.7,19,female
55,ab,3,35,hl,hh,FALSE,2740.9,19,female
55,ab,3,36,hl,hl,TRUE,2986.1,19,female
55,ab,3,37,hl,hl,TRUE,1369,19,female
55,ab,3,38,ll,hl,FALSE,3591,19,female
55,ab,3,39,hh,hh,TRUE,1804.8000000000002,19,female
55,ab,3,40,hl,hl,TRUE,4159.4,19,female
55,ab,3,41,hh,hl,FALSE,3509.5,19,female
55,ab,3,42,hl,hh,FALSE,1291.9,19,female
55,ab,3,43,hh,hh,TRUE,880.8,19,female
55,ab,3,44,ll,hh,FALSE,903.9000000000001,19,female
55,ab,3,45,hl,hh,FALSE,1664.5,19,female
55,ab,3,46,ll,hl,FALSE,3767,19,female
55,ab,3,47,hh,hh,TRUE,2480.3,19,female
55,ab,3,48,hl,hh,FALSE,906.7,19,female
55,ab,3,49,lh,hh,FALSE,1529.5,19,female
55,ab,3,50,hl,hh,FALSE,1534.6,19,female
55,ab,3,51,hl,hh,FALSE,1842.2399999999998,19,female
55,ab,3,52,lh,ll,FALSE,4580,19,female
55,ab,3,53,hh,hh,TRUE,879.8,19,female
55,ab,3,54,hh,hh,TRUE,714.7,19,female
55,ab,3,55,ll,ll,TRUE,1908.1999999999998,19,female
55,ab,3,56,hh,hh,TRUE,716,19,female
55,ab,3,57,hl,hh,FALSE,822.2,19,female
55,ab,3,58,hh,hh,TRUE,742.8,19,female
55,ab,3,59,hl,hh,FALSE,651.0999999999999,19,female
55,ab,3,60,hh,hh,TRUE,1371.9,19,female
55,ab,3,61,hh,hh,TRUE,653.5999999999999,19,female
55,ab,3,62,hl,ll,FALSE,3013.5,19,female
55,ab,3,63,ll,ll,TRUE,1365.6999999999998,19,female
55,ab,3,64,lh,hh,FALSE,1445.404,19,female
55,ab,3,65,hh,hh,TRUE,1030.8,19,female
55,ab,3,66,hl,hh,FALSE,871.8,19,female
55,ab,3,67,lh,hh,FALSE,3271.6000000000004,19,female
55,ab,3,68,hh,hh,TRUE,1027.6,19,female
55,ab,3,69,hl,hh,FALSE,811.3,19,female
55,ab,3,70,ll,hl,FALSE,6614.1,19,female
55,ab,3,71,lh,hh,FALSE,1273.5,19,female
55,ab,3,72,ll,hh,FALSE,1438.6999999999998,19,female
55,ab,3,73,hh,hh,TRUE,1095.6,19,female
55,ab,3,74,lh,ll,FALSE,2028.5,19,female
55,ab,3,75,lh,ll,FALSE,2452.9,19,female
55,ab,3,76,hh,hh,TRUE,2675.8,19,female
55,ab,3,77,hh,hh,TRUE,904.0999999999999,19,female
55,ab,3,78,lh,hl,FALSE,5150.1,19,female
55,ab,3,79,hl,ll,FALSE,2526.2,19,female
55,ab,3,80,hh,hh,TRUE,1217.6999999999998,19,female
55,ab,3,81,lh,hh,FALSE,3185.3,19,female
55,ab,3,82,hh,hh,TRUE,3143.3999999999996,19,female
55,ab,3,83,hl,ll,FALSE,4119.1,19,female
55,ab,3,84,lh,lh,TRUE,3912.2,19,female
55,ab,3,85,hl,hh,FALSE,897.2,19,female
55,ab,3,86,lh,hh,FALSE,2015,19,female
55,ab,3,87,hh,hh,TRUE,639,19,female
55,ab,3,88,lh,ll,FALSE,1182.6999999999998,19,female
55,ab,3,89,hh,hh,TRUE,676.5999999999999,19,female
55,ab,3,90,hl,lh,FALSE,9064.9,19,female
55,ab,3,91,lh,hh,FALSE,911.7,19,female
55,ab,3,92,lh,hh,FALSE,1141.4,19,female
55,ab,3,93,hh,hh,TRUE,1465,19,female
55,ab,3,94,hl,hh,FALSE,830.9000000000001,19,female
55,ab,3,95,hh,hh,TRUE,1038.1,19,female
55,ab,3,96,hh,hh,TRUE,3337.1000000000004,19,female
55,ab,3,97,lh,hh,FALSE,874.7,19,female
55,ab,3,98,lh,ll,FALSE,1241.5,19,female
55,ab,3,99,lh,ll,FALSE,2049.5,19,female
55,ab,3,100,ll,hh,FALSE,1176.8000000000002,19,female
55,ab,3,101,lh,hh,FALSE,793.7,19,female
55,ab,3,102,hh,hh,TRUE,771.7,19,female
55,ab,3,103,ll,hh,FALSE,4126.9,19,female
55,ab,3,104,hh,hh,TRUE,4523.7,19,female
55,ab,3,105,ll,ll,TRUE,2787.5,19,female
55,ab,3,106,hl,hh,FALSE,1476.8000000000002,19,female
55,ab,3,107,ll,lh,FALSE,6129.5,19,female
55,ab,3,108,lh,hh,FALSE,1826,19,female
55,ab,3,109,ll,hl,FALSE,4289.1,19,female
55,ab,3,110,lh,hh,FALSE,2512.5,19,female
55,ab,3,111,lh,hh,FALSE,914.3,19,female
55,ab,3,112,hl,hh,FALSE,1838.9,19,female
55,ab,3,113,ll,ll,TRUE,2206.7,19,female
55,ab,3,114,lh,hl,FALSE,6679.1,19,female
55,ab,3,115,hl,hh,FALSE,1163.1,19,female
55,ab,3,116,lh,lh,TRUE,7651.799999999999,19,female
55,ab,3,117,hl,hh,FALSE,3931.6000000000004,19,female
55,ab,3,118,ll,hh,FALSE,2687.3,19,female
55,ab,3,119,hh,hh,TRUE,821.0999999999999,19,female
55,ab,3,120,hh,hh,TRUE,845.7,19,female
55,ab,4,1,lh,hh,FALSE,1263.6999999999998,19,female
55,ab,4,2,hl,hh,FALSE,649,19,female
55,ab,4,3,ll,ll,TRUE,4319.1,19,female
55,ab,4,4,ll,ll,TRUE,1248.6,19,female
55,ab,4,5,hl,hh,FALSE,760.3,19,female
55,ab,4,6,hl,hh,FALSE,698.9000000000001,19,female
55,ab,4,7,hl,hh,FALSE,689.8,19,female
55,ab,4,8,hl,hl,TRUE,4473.8,19,female
55,ab,4,9,hl,hh,FALSE,2082.046,19,female
55,ab,4,10,hh,hh,TRUE,688.8,19,female
55,ab,4,11,ll,ll,TRUE,743.0999999999999,19,female
55,ab,4,12,hl,hh,FALSE,1026.9,19,female
55,ab,4,13,lh,ll,FALSE,874.7,19,female
55,ab,4,14,hl,hh,FALSE,844,19,female
55,ab,4,15,ll,ll,TRUE,3313.8,19,female
55,ab,4,16,ll,ll,TRUE,1300.4,19,female
55,ab,4,17,hl,hh,FALSE,882.702,19,female
55,ab,4,18,hh,hh,TRUE,1282.6999999999998,19,female
55,ab,4,19,lh,hh,FALSE,1351.1,19,female
55,ab,4,20,ll,ll,TRUE,2529.3,19,female
55,ab,4,21,hl,hh,FALSE,1605,19,female
55,ab,4,22,ll,lh,FALSE,5981.4,19,female
55,ab,4,23,ll,ll,TRUE,4014.7,19,female
55,ab,4,24,hh,hh,TRUE,4818.1,19,female
55,ab,4,25,hh,hh,TRUE,784.3,19,female
55,ab,4,26,hh,hh,TRUE,1028.1,19,female
55,ab,4,27,hl,hh,FALSE,1219.3000000000002,19,female
55,ab,4,28,lh,hh,FALSE,2285,19,female
55,ab,4,29,hh,hh,TRUE,1657.8000000000002,19,female
55,ab,4,30,hl,ll,FALSE,3119.6000000000004,19,female
55,ab,4,31,lh,hh,FALSE,1060.4,19,female
55,ab,4,32,ll,lh,FALSE,5322.9,19,female
55,ab,4,33,hh,hh,TRUE,660.7,19,female
55,ab,4,34,hl,hl,TRUE,580,19,female
55,ab,4,35,hh,hh,TRUE,879.0999999999999,19,female
55,ab,4,36,ll,hh,FALSE,963.7,19,female
55,ab,4,37,hl,hh,FALSE,1127.8000000000002,19,female
55,ab,4,38,hh,hh,TRUE,625.9000000000001,19,female
55,ab,4,39,ll,hh,FALSE,2420.7,19,female
55,ab,4,40,lh,hh,FALSE,677.5999999999999,19,female
55,ab,4,41,hl,hh,FALSE,820.0999999999999,19,female
55,ab,4,42,ll,ll,TRUE,3512.6000000000004,19,female
55,ab,4,43,hl,ll,FALSE,1399.6,19,female
55,ab,4,44,hl,hh,FALSE,1224,19,female
55,ab,4,45,hl,hh,FALSE,905.8,19,female
55,ab,4,46,hh,hh,TRUE,1167.8000000000002,19,female
55,ab,4,47,lh,lh,TRUE,3450.3,19,female
55,ab,4,48,ll,ll,TRUE,1240.8000000000002,19,female
55,ab,4,49,hl,ll,FALSE,1007,19,female
55,ab,4,50,hl,ll,FALSE,2232.9,19,female
55,ab,4,51,lh,hh,FALSE,1629.6999999999998,19,female
55,ab,4,52,lh,hh,FALSE,864.2,19,female
55,ab,4,53,hh,hh,TRUE,2111.9,19,female
55,ab,4,54,lh,hh,FALSE,1619.6999999999998,19,female
55,ab,4,55,ll,ll,TRUE,1948.1,19,female
55,ab,4,56,hl,ll,FALSE,944.9000000000001,19,female
55,ab,4,57,lh,hh,FALSE,634.0999999999999,19,female
55,ab,4,58,hl,ll,FALSE,868.2,19,female
55,ab,4,59,hl,hh,FALSE,1082.1999999999998,19,female
55,ab,4,60,hh,hl,FALSE,5869.5,19,female
55,ab,4,61,hh,hh,TRUE,620,19,female
55,ab,4,62,lh,hh,FALSE,645.5139999999999,19,female
55,ab,4,63,hl,hh,FALSE,570.8,19,female
55,ab,4,64,lh,hh,FALSE,1047.9,19,female
55,ab,4,65,lh,hh,FALSE,578.5999999999999,19,female
55,ab,4,66,lh,ll,FALSE,1146.1,19,female
55,ab,4,67,hh,hh,TRUE,974.2,19,female
55,ab,4,68,ll,ll,TRUE,1072.4,19,female
55,ab,4,69,ll,ll,TRUE,1194.1999999999998,19,female
55,ab,4,70,hh,hh,TRUE,881,19,female
55,ab,4,71,hl,hh,FALSE,762.5999999999999,19,female
55,ab,4,72,ll,ll,TRUE,865.3,19,female
55,ab,4,73,hl,hh,FALSE,785.4000000000001,19,female
55,ab,4,74,hl,ll,FALSE,1486.4,19,female
55,ab,4,75,hl,ll,FALSE,896.3,19,female
55,ab,4,76,hl,hh,FALSE,2655.4,19,female
55,ab,4,77,hl,ll,FALSE,942,19,female
55,ab,4,78,hh,hh,TRUE,NA,19,female
55,ab,4,79,hh,hh,TRUE,958.204,19,female
55,ab,4,80,lh,ll,FALSE,1560.1999999999998,19,female
55,ab,4,81,hh,hh,TRUE,837.8,19,female
55,ab,4,82,lh,ll,FALSE,924,19,female
55,ab,4,83,hh,hh,TRUE,1042.6,19,female
55,ab,4,84,hl,hl,TRUE,3088.6,19,female
55,ab,4,85,lh,hh,FALSE,1155.4,19,female
55,ab,4,86,hl,hh,FALSE,934.7,19,female
55,ab,4,87,hl,hh,FALSE,753.9000000000001,19,female
55,ab,4,88,hl,hl,TRUE,4608,19,female
55,ab,4,89,lh,hh,FALSE,966.5999999999999,19,female
55,ab,4,90,lh,lh,TRUE,4121.4,19,female
55,ab,4,91,hl,hh,FALSE,1042.8,19,female
55,ab,4,92,ll,hh,FALSE,994.4000000000001,19,female
55,ab,4,93,hl,hh,FALSE,3620.8,19,female
55,ab,4,94,lh,hh,FALSE,947.5,19,female
55,ab,4,95,hl,ll,FALSE,2080.3,19,female
55,ab,4,96,hh,hh,TRUE,692.9000000000001,19,female
55,ab,4,97,ll,ll,TRUE,1595.6,19,female
55,ab,4,98,hl,hh,FALSE,1068.1999999999998,19,female
55,ab,4,99,lh,ll,FALSE,1355.6999999999998,19,female
55,ab,4,100,hl,hh,FALSE,327.0999999999999,19,female
55,ab,4,101,lh,hh,FALSE,816.0999999999999,19,female
55,ab,4,102,lh,hl,FALSE,6454.4,19,female
55,ab,4,103,hh,hh,TRUE,808.3,19,female
55,ab,4,104,lh,hh,FALSE,785.8,19,female
55,ab,4,105,lh,hh,FALSE,488.0999999999999,19,female
55,ab,4,106,ll,hl,FALSE,3339,19,female
55,ab,4,107,lh,hh,FALSE,718.4000000000001,19,female
55,ab,4,108,lh,hh,FALSE,739.3,19,female
55,ab,4,109,ll,hh,FALSE,1487.5,19,female
55,ab,4,110,ll,hh,FALSE,1125,19,female
55,ab,4,111,ll,hl,FALSE,1057.3000000000002,19,female
55,ab,4,112,ll,hh,FALSE,1456.3000000000002,19,female
55,ab,4,113,lh,hh,FALSE,800.0999999999999,19,female
55,ab,4,114,ll,ll,TRUE,5554.4,19,female
55,ab,4,115,lh,hh,FALSE,1042,19,female
55,ab,4,116,hl,hh,FALSE,1330.5,19,female
55,ab,4,117,ll,lh,FALSE,3973.1000000000004,19,female
55,ab,4,118,ll,ll,TRUE,902.4000000000001,19,female
55,ab,4,119,hh,ll,FALSE,2692,19,female
55,ab,4,120,hh,ll,FALSE,1643.1,19,female
55,ab,5,1,lh,ll,FALSE,2836.2,19,female
55,ab,5,2,hh,hh,TRUE,794.8,19,female
55,ab,5,3,lh,hh,FALSE,730.5999999999999,19,female
55,ab,5,4,lh,hh,FALSE,546.2,19,female
55,ab,5,5,lh,hh,FALSE,499.5999999999999,19,female
55,ab,5,6,hh,hh,TRUE,569.0999999999999,19,female
55,ab,5,7,lh,hh,FALSE,685.5,19,female
55,ab,5,8,hh,hh,TRUE,635.5999999999999,19,female
55,ab,5,9,ll,ll,TRUE,1091.3000000000002,19,female
55,ab,5,10,ll,ll,TRUE,1429.1,19,female
55,ab,5,11,hh,hh,TRUE,506.5,19,female
55,ab,5,12,hh,hh,TRUE,650.5999999999999,19,female
55,ab,5,13,ll,ll,TRUE,1208.1,19,female
55,ab,5,14,ll,ll,TRUE,1664.1,19,female
55,ab,5,15,lh,hh,FALSE,1160,19,female
55,ab,5,16,hl,hh,FALSE,1634.9,19,female
55,ab,5,17,hh,hh,TRUE,4242.3,19,female
55,ab,5,18,hl,ll,FALSE,1390.9,19,female
55,ab,5,19,ll,ll,TRUE,1583,19,female
55,ab,5,20,lh,ll,FALSE,1025.4,19,female
55,ab,5,21,ll,hh,FALSE,3386.3,19,female
55,ab,5,22,hl,hl,TRUE,5412.7,19,female
55,ab,5,23,lh,hh,FALSE,1188.6,19,female
55,ab,5,24,ll,ll,TRUE,4351.7,19,female
55,ab,5,25,hh,hh,TRUE,1596.1999999999998,19,female
55,ab,5,26,hh,hh,TRUE,1317.1,19,female
55,ab,5,27,lh,hh,FALSE,2057.436,19,female
55,ab,5,28,ll,ll,TRUE,1362.8000000000002,19,female
55,ab,5,29,hl,ll,FALSE,1105.9,19,female
55,ab,5,30,ll,ll,TRUE,2409.6,19,female
55,ab,5,31,lh,hh,FALSE,1230.9,19,female
55,ab,5,32,ll,lh,FALSE,5238.9,19,female
55,ab,5,33,ll,hh,FALSE,1845.6,19,female
55,ab,5,34,hl,hh,FALSE,907,19,female
55,ab,5,35,hh,hh,TRUE,960.7,19,female
55,ab,5,36,hh,hh,TRUE,788.3,19,female
55,ab,5,37,ll,hh,FALSE,614.7,19,female
55,ab,5,38,hh,hh,TRUE,606.8,19,female
55,ab,5,39,ll,ll,TRUE,2833.5,19,female
55,ab,5,40,hl,hh,FALSE,767.9000000000001,19,female
55,ab,5,41,hl,hh,FALSE,731.6759999999999,19,female
55,ab,5,42,lh,hl,FALSE,4454.4,19,female
55,ab,5,43,lh,hh,FALSE,1812.8000000000002,19,female
55,ab,5,44,lh,hh,FALSE,2519.4,19,female
55,ab,5,45,lh,hh,FALSE,897.9000000000001,19,female
55,ab,5,46,ll,ll,TRUE,2014.1999999999998,19,female
55,ab,5,47,ll,ll,TRUE,2332.6,19,female
55,ab,5,48,hl,hh,FALSE,794.9000000000001,19,female
55,ab,5,49,ll,hh,FALSE,1803.1999999999998,19,female
55,ab,5,50,hl,hh,FALSE,700.5999999999999,19,female
55,ab,5,51,hl,hh,FALSE,1452,19,female
55,ab,5,52,hl,hh,FALSE,627.0999999999999,19,female
55,ab,5,53,hl,hh,FALSE,820.9000000000001,19,female
55,ab,5,54,ll,ll,TRUE,1084.1999999999998,19,female
55,ab,5,55,hh,hh,TRUE,663.9000000000001,19,female
55,ab,5,56,ll,ll,TRUE,1480.6,19,female
55,ab,5,57,ll,ll,TRUE,1297.3000000000002,19,female
55,ab,5,58,lh,hl,FALSE,5695.1,19,female
55,ab,5,59,hl,hl,TRUE,3021.5,19,female
55,ab,5,60,hh,hh,TRUE,1253.3000000000002,19,female
55,ab,5,61,hl,ll,FALSE,848,19,female
55,ab,5,62,lh,ll,FALSE,2676.4,19,female
55,ab,5,63,hl,ll,FALSE,1986.6,19,female
55,ab,5,64,hh,hh,TRUE,2762.7,19,female
55,ab,5,65,lh,ll,FALSE,1380.1999999999998,19,female
55,ab,5,66,lh,hh,FALSE,1088,19,female
55,ab,5,67,hh,hh,TRUE,733.7,19,female
55,ab,5,68,hh,ll,FALSE,1036,19,female
55,ab,5,69,hh,hh,TRUE,1752,19,female
55,ab,5,70,hh,hh,TRUE,741.7,19,female
55,ab,5,71,ll,ll,TRUE,946.7,19,female
55,ab,5,72,lh,hh,FALSE,3971.8,19,female
55,ab,5,73,ll,ll,TRUE,2461.2,19,female
55,ab,5,74,hh,hh,TRUE,1475.1,19,female
55,ab,5,75,lh,hh,FALSE,657.8,19,female
55,ab,5,76,lh,lh,TRUE,4082.3,19,female
55,ab,5,77,hh,hh,TRUE,1628.6999999999998,19,female
55,ab,5,78,hl,hh,FALSE,660.2,19,female
55,ab,5,79,ll,ll,TRUE,939.8,19,female
55,ab,5,80,lh,hh,FALSE,1359.1,19,female
55,ab,5,81,lh,hh,FALSE,1554.3000000000002,19,female
55,ab,5,82,ll,hh,FALSE,1445.1999999999998,19,female
55,ab,5,83,hl,hh,FALSE,831,19,female
55,ab,5,84,hl,hh,FALSE,1790.1,19,female
55,ab,5,85,hh,hh,TRUE,869.0999999999999,19,female
55,ab,5,86,ll,ll,TRUE,1459.3000000000002,19,female
55,ab,5,87,ll,ll,TRUE,1516.8000000000002,19,female
55,ab,5,88,ll,ll,TRUE,1258.5,19,female
55,ab,5,89,hh,hh,TRUE,1343.6999999999998,19,female
55,ab,5,90,hl,hh,FALSE,1067.6,19,female
55,ab,5,91,ll,ll,TRUE,2297.1,19,female
55,ab,5,92,hh,ll,FALSE,3928.1000000000004,19,female
55,ab,5,93,hh,hh,TRUE,1358.6999999999998,19,female
55,ab,5,94,hl,hh,FALSE,1378.1,19,female
55,ab,5,95,hl,hh,FALSE,3902.6000000000004,19,female
55,ab,5,96,hh,hh,TRUE,1122.9,19,female
55,ab,5,97,lh,hh,FALSE,1294.4,19,female
55,ab,5,98,hh,hh,TRUE,1947.4,19,female
55,ab,5,99,hh,hh,TRUE,1128.3000000000002,19,female
55,ab,5,100,hh,hh,TRUE,1640.9,19,female
55,ab,5,101,lh,hh,FALSE,1921,19,female
55,ab,5,102,lh,lh,TRUE,7015.48,19,female
55,ab,5,103,hl,hh,FALSE,3067.2,19,female
55,ab,5,104,hh,hh,TRUE,928.8,19,female
55,ab,5,105,lh,hh,FALSE,1091.9,19,female
55,ab,5,106,hl,ll,FALSE,6098.9,19,female
55,ab,5,107,hh,hh,TRUE,1072.8000000000002,19,female
55,ab,5,108,hh,hh,TRUE,777.0999999999999,19,female
55,ab,5,109,hl,hh,FALSE,2060.1,19,female
55,ab,5,110,hh,hh,TRUE,875,19,female
55,ab,5,111,lh,hh,FALSE,1283.1,19,female
55,ab,5,112,lh,hh,FALSE,1053,19,female
55,ab,5,113,hl,hh,FALSE,4613.5,19,female
55,ab,5,114,hh,hh,TRUE,1909.5,19,female
55,ab,5,115,hl,hh,FALSE,2250.2,19,female
55,ab,5,116,hh,hh,TRUE,951.2,19,female
55,ab,5,117,lh,hh,FALSE,1301.1,19,female
55,ab,5,118,hl,hh,FALSE,4809.7,19,female
55,ab,5,119,hl,ll,FALSE,1132.8000000000002,19,female
55,ab,5,120,ll,ll,TRUE,820,19,female
