pID,condition,block_no,trial_no,stimulus,response,correct,rt,age,gender
44,bc,1,1,lh,lh,TRUE,6436.821,21,male
44,bc,1,2,ll,hl,FALSE,7352.724,21,male
44,bc,1,3,lh,lh,TRUE,3945.978,21,male
44,bc,1,4,hh,hl,FALSE,7748.186,21,male
44,bc,1,5,hh,hh,TRUE,7589.995999999999,21,male
44,bc,1,6,hl,hl,TRUE,7326.111000000001,21,male
44,bc,1,7,hh,hl,FALSE,6240.873,21,male
44,bc,1,8,lh,lh,TRUE,5678.557,21,male
44,bc,1,9,hh,lh,FALSE,9730.959,21,male
44,bc,1,10,hh,hl,FALSE,9782.05,21,male
44,bc,1,11,lh,hl,FALSE,4933.428,21,male
44,bc,1,12,ll,hl,FALSE,5415.766,21,male
44,bc,1,13,lh,hl,FALSE,7462.503000000001,21,male
44,bc,1,14,hh,hh,TRUE,4324.385,21,male
44,bc,1,15,ll,lh,FALSE,5070.679,21,male
44,bc,1,16,hl,hh,FALSE,8843.419,21,male
44,bc,1,17,ll,ll,TRUE,13089.752,21,male
44,bc,1,18,lh,hh,FALSE,10989.342,21,male
44,bc,1,19,hh,hl,FALSE,11341.485,21,male
44,bc,1,20,hl,ll,FALSE,7775.582,21,male
44,bc,1,21,hl,hl,TRUE,4799.561,21,male
44,bc,1,22,ll,hl,FALSE,6661.602,21,male
44,bc,1,23,hh,hl,FALSE,3395.96,21,male
44,bc,1,24,hl,ll,FALSE,12948.286,21,male
44,bc,1,25,hh,lh,FALSE,4950.005,21,male
44,bc,1,26,lh,lh,TRUE,4055.2709999999997,21,male
44,bc,1,27,hl,lh,FALSE,7612.592000000001,21,male
44,bc,1,28,hh,hh,TRUE,7220.302,21,male
44,bc,1,29,hl,hh,FALSE,11226.712,21,male
44,bc,1,30,hl,hl,TRUE,11873.485,21,male
44,bc,1,31,ll,ll,TRUE,2398.108,21,male
44,bc,1,32,hl,hh,FALSE,7926.371999999999,21,male
44,bc,1,33,lh,hh,FALSE,7936.552,21,male
44,bc,1,34,hh,hh,TRUE,7130.415,21,male
44,bc,1,35,ll,ll,TRUE,12149.537,21,male
44,bc,1,36,hl,hl,TRUE,8982.422,21,male
44,bc,1,37,hh,hl,FALSE,8741.944,21,male
44,bc,1,38,hh,hl,FALSE,6384.298,21,male
44,bc,1,39,ll,hl,FALSE,8184.614,21,male
44,bc,1,40,hl,hl,TRUE,7560.825000000001,21,male
44,bc,1,41,hl,lh,FALSE,4866.191,21,male
44,bc,1,42,lh,lh,TRUE,9606.626,21,male
44,bc,1,43,lh,ll,FALSE,11326.111,21,male
44,bc,1,44,hh,lh,FALSE,5328.67,21,male
44,bc,1,45,ll,ll,TRUE,6115.001,21,male
44,bc,1,46,lh,hl,FALSE,4758.781,21,male
44,bc,1,47,hh,hl,FALSE,4048.3100000000004,21,male
44,bc,1,48,lh,hh,FALSE,10469.921,21,male
44,bc,1,49,ll,ll,TRUE,2730.641,21,male
44,bc,1,50,lh,hh,FALSE,10917.567,21,male
44,bc,1,51,ll,hl,FALSE,6135.992,21,male
44,bc,1,52,hh,hl,FALSE,4745.7,21,male
44,bc,1,53,hl,hh,FALSE,10596.278,21,male
44,bc,1,54,lh,lh,TRUE,7316.683999999999,21,male
44,bc,1,55,ll,lh,FALSE,4150.517,21,male
44,bc,1,56,hl,lh,FALSE,11384.14,21,male
44,bc,1,57,ll,hh,FALSE,9048.236,21,male
44,bc,1,58,ll,ll,TRUE,4838.426,21,male
44,bc,1,59,hl,hl,TRUE,4620.024,21,male
44,bc,1,60,ll,lh,FALSE,3674.7569999999996,21,male
44,bc,1,61,ll,ll,TRUE,2655.454,21,male
44,bc,1,62,lh,lh,TRUE,11628.041,21,male
44,bc,1,63,hh,lh,FALSE,6899.501,21,male
44,bc,1,64,ll,ll,TRUE,1814.618,21,male
44,bc,1,65,hh,hl,FALSE,5781.885,21,male
44,bc,1,66,hh,hh,TRUE,6133.673,21,male
44,bc,1,67,hl,hl,TRUE,6184.043,21,male
44,bc,1,68,ll,lh,FALSE,5512.169,21,male
44,bc,1,69,hh,lh,FALSE,4275.439,21,male
44,bc,1,70,hl,hl,TRUE,5855.676,21,male
44,bc,1,71,hh,lh,FALSE,3053.158,21,male
44,bc,1,72,lh,lh,TRUE,3754.7380000000003,21,male
44,bc,1,73,hh,hh,TRUE,5739.875,21,male
44,bc,1,74,ll,ll,TRUE,1278.1779999999999,21,male
44,bc,1,75,ll,hl,FALSE,8098.998,21,male
44,bc,1,76,lh,hh,FALSE,12517.999,21,male
44,bc,1,77,hh,hh,TRUE,4520.864,21,male
44,bc,1,78,lh,lh,TRUE,4395.64,21,male
44,bc,1,79,hl,hl,TRUE,4195.483,21,male
44,bc,1,80,lh,hh,FALSE,10611.447,21,male
44,bc,1,81,hh,hh,TRUE,2370.57,21,male
44,bc,1,82,lh,lh,TRUE,6859.335,21,male
44,bc,1,83,lh,ll,FALSE,12960.285,21,male
44,bc,1,84,ll,lh,FALSE,3842.1589999999997,21,male
44,bc,1,85,hl,hl,TRUE,8784.149,21,male
44,bc,1,86,lh,lh,TRUE,3879.557,21,male
44,bc,1,87,hl,hl,TRUE,4372.209,21,male
44,bc,1,88,hl,hl,TRUE,10589.701,21,male
44,bc,1,89,hl,hl,TRUE,5389.657,21,male
44,bc,1,90,lh,lh,TRUE,5965.449,21,male
44,bc,1,91,lh,lh,TRUE,4052.7439999999997,21,male
44,bc,1,92,ll,ll,TRUE,2427.63,21,male
44,bc,1,93,ll,lh,FALSE,3506.5029999999997,21,male
44,bc,1,94,hl,lh,FALSE,3757.3909999999996,21,male
44,bc,1,95,hh,hl,FALSE,3230.7309999999998,21,male
44,bc,1,96,hl,ll,FALSE,9029.667,21,male
44,bc,1,97,ll,ll,TRUE,5203.429,21,male
44,bc,1,98,hh,hh,TRUE,7450.91,21,male
44,bc,1,99,ll,lh,FALSE,5816.154,21,male
44,bc,1,100,lh,lh,TRUE,6070.472,21,male
44,bc,1,101,hh,lh,FALSE,5275.452,21,male
44,bc,1,102,hh,hl,FALSE,4048.3729999999996,21,male
44,bc,1,103,lh,hl,FALSE,4981.9,21,male
44,bc,1,104,ll,hl,FALSE,13829.85,21,male
44,bc,1,105,ll,lh,FALSE,6501.176,21,male
44,bc,1,106,hl,hl,TRUE,9576.357,21,male
44,bc,1,107,hh,lh,FALSE,11840.798,21,male
44,bc,1,108,hl,lh,FALSE,3247.5290000000005,21,male
44,bc,1,109,hl,ll,FALSE,4676.825,21,male
44,bc,1,110,lh,lh,TRUE,4576.96,21,male
44,bc,1,111,hl,hl,TRUE,7569.584000000001,21,male
44,bc,1,112,lh,ll,FALSE,3882.1270000000004,21,male
44,bc,1,113,ll,lh,FALSE,7253.045,21,male
44,bc,1,114,hh,lh,FALSE,5067.574,21,male
44,bc,1,115,lh,hh,FALSE,5079.957,21,male
44,bc,1,116,ll,lh,FALSE,6052.578,21,male
44,bc,1,117,hh,hh,TRUE,4281.373,21,male
44,bc,1,118,ll,hh,FALSE,3670.91,21,male
44,bc,1,119,hl,lh,FALSE,4282.749,21,male
44,bc,1,120,ll,lh,FALSE,11735.108,21,male
44,bc,2,1,,,FALSE,15016.741,21,male
44,bc,2,2,lh,lh,TRUE,NA,21,male
44,bc,2,3,hl,hh,FALSE,4214.608,21,male
44,bc,2,4,hl,lh,FALSE,3990.0950000000003,21,male
44,bc,2,5,hl,ll,FALSE,4605.896,21,male
44,bc,2,6,hl,hh,FALSE,3245.5389999999998,21,male
44,bc,2,7,ll,lh,FALSE,2210.956,21,male
44,bc,2,8,hh,hh,TRUE,3986.2129999999997,21,male
44,bc,2,9,lh,hl,FALSE,2026.1370000000002,21,male
44,bc,2,10,hl,hh,FALSE,2784.984,21,male
44,bc,2,11,hl,hl,TRUE,4296.542,21,male
44,bc,2,12,hl,hh,FALSE,1892.6970000000001,21,male
44,bc,2,13,hh,hl,FALSE,3088.836,21,male
44,bc,2,14,hl,hh,FALSE,1100.625,21,male
44,bc,2,15,hl,hh,FALSE,2007.781,21,male
44,bc,2,16,lh,hh,FALSE,7582.707,21,male
44,bc,2,17,ll,hl,FALSE,2119.49,21,male
44,bc,2,18,ll,hh,FALSE,3018.026,21,male
44,bc,2,19,lh,hl,FALSE,3064.586,21,male
44,bc,2,20,lh,hl,FALSE,2998.298,21,male
44,bc,2,21,ll,hh,FALSE,3942.1589999999997,21,male
44,bc,2,22,hh,hl,FALSE,2576.195,21,male
44,bc,2,23,hh,lh,FALSE,5920.81,21,male
44,bc,2,24,lh,ll,FALSE,2107.283,21,male
44,bc,2,25,hl,hh,FALSE,1006.6590000000001,21,male
44,bc,2,26,lh,lh,TRUE,765.9280000000001,21,male
44,bc,2,27,hh,ll,FALSE,1238.446,21,male
44,bc,2,28,hh,hh,TRUE,1804.3629999999998,21,male
44,bc,2,29,hh,lh,FALSE,764.238,21,male
44,bc,2,30,ll,hl,FALSE,965.645,21,male
44,bc,2,31,lh,hh,FALSE,1285.6680000000001,21,male
44,bc,2,32,hl,hl,TRUE,1161.942,21,male
44,bc,2,33,hl,hh,FALSE,579.723,21,male
44,bc,2,34,ll,hl,FALSE,676.212,21,male
44,bc,2,35,hl,hh,FALSE,736.47,21,male
44,bc,2,36,hl,hl,TRUE,714.0429999999999,21,male
44,bc,2,37,hl,hl,TRUE,821.731,21,male
44,bc,2,38,hh,hh,TRUE,1372.991,21,male
44,bc,2,39,lh,hl,FALSE,861.5989999999999,21,male
44,bc,2,40,lh,hl,FALSE,658.981,21,male
44,bc,2,41,hh,hl,FALSE,688.238,21,male
44,bc,2,42,hh,hh,TRUE,2572.068,21,male
44,bc,2,43,lh,hh,FALSE,1948.2649999999999,21,male
44,bc,2,44,hl,hh,FALSE,1398.1480000000001,21,male
44,bc,2,45,ll,hl,FALSE,1030.548,21,male
44,bc,2,46,lh,hh,FALSE,1989.1190000000001,21,male
44,bc,2,47,hh,hl,FALSE,1724.8159999999998,21,male
44,bc,2,48,hh,hh,TRUE,1535.607,21,male
44,bc,2,49,hh,ll,FALSE,953.4269999999999,21,male
44,bc,2,50,hh,lh,FALSE,747.2280000000001,21,male
44,bc,2,51,ll,ll,TRUE,1108.554,21,male
44,bc,2,52,hh,lh,FALSE,432.16499999999996,21,male
44,bc,2,53,lh,lh,TRUE,1429.976,21,male
44,bc,2,54,hl,ll,FALSE,836.6300000000001,21,male
44,bc,2,55,ll,lh,FALSE,618.873,21,male
44,bc,2,56,hh,ll,FALSE,473.126,21,male
44,bc,2,57,ll,lh,FALSE,1918.188,21,male
44,bc,2,58,hl,ll,FALSE,1144.402,21,male
44,bc,2,59,hl,lh,FALSE,851.1510000000001,21,male
44,bc,2,60,hl,lh,FALSE,2552.202,21,male
44,bc,2,61,hh,hh,TRUE,1337.2379999999998,21,male
44,bc,2,62,hl,hh,FALSE,4762.763,21,male
44,bc,2,63,lh,hh,FALSE,4500.299,21,male
44,bc,2,64,ll,hh,FALSE,1367.4650000000001,21,male
44,bc,2,65,lh,hh,FALSE,3960.549,21,male
44,bc,2,66,hh,hh,TRUE,6001.531,21,male
44,bc,2,67,lh,hh,FALSE,2425.041,21,male
44,bc,2,68,hl,hl,TRUE,3695.839,21,male
44,bc,2,69,ll,hh,FALSE,2627.822,21,male
44,bc,2,70,ll,hl,FALSE,546.3399999999999,21,male
44,bc,2,71,hh,lh,FALSE,947.761,21,male
44,bc,2,72,hl,ll,FALSE,517.652,21,male
44,bc,2,73,hl,lh,FALSE,1128.17,21,male
44,bc,2,74,ll,ll,TRUE,802.7650000000001,21,male
44,bc,2,75,lh,lh,TRUE,666.386,21,male
44,bc,2,76,ll,ll,TRUE,421.69399999999996,21,male
44,bc,2,77,lh,ll,FALSE,892.8030000000001,21,male
44,bc,2,78,hh,hh,TRUE,496.7829999999999,21,male
44,bc,2,79,lh,hl,FALSE,373.0250000000001,21,male
44,bc,2,80,ll,hh,FALSE,476.741,21,male
44,bc,2,81,lh,hh,FALSE,738.4459999999999,21,male
44,bc,2,82,lh,hl,FALSE,1324.4189999999999,21,male
44,bc,2,83,ll,hh,FALSE,735.133,21,male
44,bc,2,84,hh,hh,TRUE,1944.864,21,male
44,bc,2,85,ll,hh,FALSE,2274.922,21,male
44,bc,2,86,ll,hh,FALSE,1374.924,21,male
44,bc,2,87,ll,hh,FALSE,2832.553,21,male
44,bc,2,88,hh,hh,TRUE,3141.843,21,male
44,bc,2,89,ll,hh,FALSE,1472.143,21,male
44,bc,2,90,lh,hh,FALSE,4173.039,21,male
44,bc,2,91,hh,hh,TRUE,2589.745,21,male
44,bc,2,92,hh,hl,FALSE,2493.586,21,male
44,bc,2,93,lh,hl,FALSE,1441.8049999999998,21,male
44,bc,2,94,hl,lh,FALSE,367.76700000000005,21,male
44,bc,2,95,hl,ll,FALSE,664.143,21,male
44,bc,2,96,hl,lh,FALSE,1109.741,21,male
44,bc,2,97,hh,lh,FALSE,576.335,21,male
44,bc,2,98,ll,ll,TRUE,497.76099999999997,21,male
44,bc,2,99,hh,lh,FALSE,438.153,21,male
44,bc,2,100,lh,ll,FALSE,747.5340000000001,21,male
44,bc,2,101,ll,ll,TRUE,1045.629,21,male
44,bc,2,102,ll,hh,FALSE,355.68399999999997,21,male
44,bc,2,103,ll,lh,FALSE,348.462,21,male
44,bc,2,104,hh,hl,FALSE,468.64599999999996,21,male
44,bc,2,105,hh,hh,TRUE,378.74800000000005,21,male
44,bc,2,106,hl,hl,TRUE,291.769,21,male
44,bc,2,107,ll,hh,FALSE,911.674,21,male
44,bc,2,108,lh,ll,FALSE,738.5429999999999,21,male
44,bc,2,109,hh,lh,FALSE,588.9359999999999,21,male
44,bc,2,110,hl,ll,FALSE,732.6610000000001,21,male
44,bc,2,111,hl,lh,FALSE,758.1690000000001,21,male
44,bc,2,112,ll,hh,FALSE,319.24800000000005,21,male
44,bc,2,113,hl,ll,FALSE,378.28600000000006,21,male
44,bc,2,114,ll,hh,FALSE,419.135,21,male
44,bc,2,115,ll,lh,FALSE,393.374,21,male
44,bc,2,116,ll,hl,FALSE,545.613,21,male
44,bc,2,117,ll,ll,TRUE,547.5540000000001,21,male
44,bc,2,118,lh,hh,FALSE,501.41599999999994,21,male
44,bc,2,119,lh,hl,FALSE,841.22,21,male
44,bc,2,120,ll,lh,FALSE,910.6659999999999,21,male
44,bc,3,1,lh,hh,FALSE,950.712,21,male
44,bc,3,2,ll,hl,FALSE,NA,21,male
44,bc,3,3,hh,hh,TRUE,588.287,21,male
44,bc,3,4,hh,hl,FALSE,716.1110000000001,21,male
44,bc,3,5,hl,hh,FALSE,502.9079999999999,21,male
44,bc,3,6,hl,hl,TRUE,586.412,21,male
44,bc,3,7,hl,hl,TRUE,602.229,21,male
44,bc,3,8,lh,hh,FALSE,1033.364,21,male
44,bc,3,9,lh,hh,FALSE,4231.559,21,male
44,bc,3,10,hl,hl,TRUE,662.229,21,male
44,bc,3,11,hl,hh,FALSE,371.72299999999996,21,male
44,bc,3,12,hl,hh,FALSE,5948.506,21,male
44,bc,3,13,hl,hl,TRUE,1509.212,21,male
44,bc,3,14,hl,hh,FALSE,2417.222,21,male
44,bc,3,15,lh,hl,FALSE,2407.484,21,male
44,bc,3,16,ll,hh,FALSE,1230.743,21,male
44,bc,3,17,hl,hl,TRUE,1333.757,21,male
44,bc,3,18,ll,hl,FALSE,1463.449,21,male
44,bc,3,19,hh,hl,FALSE,4773.25,21,male
44,bc,3,20,lh,hl,FALSE,925.5909999999999,21,male
44,bc,3,21,lh,hl,FALSE,1792.246,21,male
44,bc,3,22,lh,hl,FALSE,1872.3229999999999,21,male
44,bc,3,23,hl,hl,TRUE,2621.095,21,male
44,bc,3,24,ll,hl,FALSE,1243.681,21,male
44,bc,3,25,ll,hl,FALSE,3425.6980000000003,21,male
44,bc,3,26,hl,hl,TRUE,2256.303,21,male
44,bc,3,27,ll,hl,FALSE,989.085,21,male
44,bc,3,28,lh,hl,FALSE,1629.176,21,male
44,bc,3,29,hh,hl,FALSE,1795.6999999999998,21,male
44,bc,3,30,hh,hl,FALSE,1059.7939999999999,21,male
44,bc,3,31,lh,hl,FALSE,3537.0690000000004,21,male
44,bc,3,32,ll,hl,FALSE,2411.404,21,male
44,bc,3,33,ll,hl,FALSE,4385.484,21,male
44,bc,3,34,lh,hl,FALSE,2442.046,21,male
44,bc,3,35,lh,hl,FALSE,3727.826,21,male
44,bc,3,36,ll,hl,FALSE,1618.5079999999998,21,male
44,bc,3,37,lh,hl,FALSE,1481.192,21,male
44,bc,3,38,ll,hl,FALSE,3652.99,21,male
44,bc,3,39,hh,hl,FALSE,2138.418,21,male
44,bc,3,40,lh,hl,FALSE,1676.6190000000001,21,male
44,bc,3,41,hl,hl,TRUE,1873.15,21,male
44,bc,3,42,hh,hl,FALSE,1581.1970000000001,21,male
44,bc,3,43,ll,hl,FALSE,3158.5200000000004,21,male
44,bc,3,44,ll,hl,FALSE,1519.8200000000002,21,male
44,bc,3,45,hl,hl,TRUE,2282.252,21,male
44,bc,3,46,hh,hl,FALSE,1766.3629999999998,21,male
44,bc,3,47,hl,hl,TRUE,4086.5559999999996,21,male
44,bc,3,48,lh,hl,FALSE,4635.009,21,male
44,bc,3,49,hh,hl,FALSE,5896.771,21,male
44,bc,3,50,hl,hl,TRUE,3589.429,21,male
44,bc,3,51,ll,hl,FALSE,3165.0190000000002,21,male
44,bc,3,52,hl,hl,TRUE,1300.9560000000001,21,male
44,bc,3,53,hl,hl,TRUE,6248.597,21,male
44,bc,3,54,hl,hl,TRUE,3925.9219999999996,21,male
44,bc,3,55,hl,hl,TRUE,1553.237,21,male
44,bc,3,56,lh,hl,FALSE,2026.6019999999999,21,male
44,bc,3,57,hl,hl,TRUE,2001.234,21,male
44,bc,3,58,hh,hl,FALSE,3080.206,21,male
44,bc,3,59,hh,hl,FALSE,2068.775,21,male
44,bc,3,60,hl,hl,TRUE,2201.567,21,male
44,bc,3,61,hl,hl,TRUE,1993.2399999999998,21,male
44,bc,3,62,hl,hl,TRUE,2273.26,21,male
44,bc,3,63,ll,hl,FALSE,765.684,21,male
44,bc,3,64,lh,hl,FALSE,1318.0839999999998,21,male
44,bc,3,65,hl,hl,TRUE,1944.9389999999999,21,male
44,bc,3,66,hl,hl,TRUE,2515.495,21,male
44,bc,3,67,lh,hl,FALSE,2053.433,21,male
44,bc,3,68,hl,hl,TRUE,1131.1260000000002,21,male
44,bc,3,69,ll,hl,FALSE,2277.239,21,male
44,bc,3,70,lh,hl,FALSE,1858.6309999999999,21,male
44,bc,3,71,hl,hl,TRUE,991.392,21,male
44,bc,3,72,ll,hl,FALSE,815.4670000000001,21,male
44,bc,3,73,lh,hh,FALSE,982.2760000000001,21,male
44,bc,3,74,lh,lh,TRUE,1797.5410000000002,21,male
44,bc,3,75,hl,lh,FALSE,629.529,21,male
44,bc,3,76,ll,ll,TRUE,980.6220000000001,21,male
44,bc,3,77,hl,lh,FALSE,1077.1950000000002,21,male
44,bc,3,78,hh,ll,FALSE,1217.8780000000002,21,male
44,bc,3,79,ll,ll,TRUE,1336.4229999999998,21,male
44,bc,3,80,lh,ll,FALSE,1082.3180000000002,21,male
44,bc,3,81,hl,ll,FALSE,2262.019,21,male
44,bc,3,82,ll,ll,TRUE,1218.799,21,male
44,bc,3,83,lh,lh,TRUE,472.79600000000005,21,male
44,bc,3,84,hl,hh,FALSE,1102.1060000000002,21,male
44,bc,3,85,hl,hh,FALSE,1929.0990000000002,21,male
44,bc,3,86,lh,hh,FALSE,3908.031,21,male
44,bc,3,87,ll,lh,FALSE,1662.632,21,male
44,bc,3,88,lh,hl,FALSE,307.78999999999996,21,male
44,bc,3,89,hh,hh,TRUE,399.0630000000001,21,male
44,bc,3,90,hh,lh,FALSE,214.2550000000001,21,male
44,bc,3,91,ll,ll,TRUE,373.932,21,male
44,bc,3,92,hh,hh,TRUE,286.4090000000001,21,male
44,bc,3,93,hh,lh,FALSE,281.7260000000001,21,male
44,bc,3,94,ll,ll,TRUE,213.45299999999997,21,male
44,bc,3,95,lh,hh,FALSE,294.0129999999999,21,male
44,bc,3,96,hh,lh,FALSE,226.0250000000001,21,male
44,bc,3,97,ll,hl,FALSE,256.7829999999999,21,male
44,bc,3,98,lh,hl,FALSE,269.10699999999997,21,male
44,bc,3,99,hh,hh,TRUE,346.23199999999997,21,male
44,bc,3,100,hh,lh,FALSE,308.6859999999999,21,male
44,bc,3,101,lh,ll,FALSE,464.0530000000001,21,male
44,bc,3,102,hh,lh,FALSE,357.27,21,male
44,bc,3,103,hh,hh,TRUE,222.32600000000002,21,male
44,bc,3,104,lh,hh,FALSE,221.21000000000004,21,male
44,bc,3,105,lh,lh,TRUE,587.925,21,male
44,bc,3,106,hh,hl,FALSE,219.78099999999995,21,male
44,bc,3,107,ll,lh,FALSE,474.577,21,male
44,bc,3,108,ll,hh,FALSE,351.02099999999996,21,male
44,bc,3,109,hl,ll,FALSE,407.9369999999999,21,male
44,bc,3,110,hh,hh,TRUE,303.7840000000001,21,male
44,bc,3,111,hh,lh,FALSE,346.9269999999999,21,male
44,bc,3,112,hl,lh,FALSE,325.6790000000001,21,male
44,bc,3,113,hl,lh,FALSE,351.80600000000004,21,male
44,bc,3,114,lh,hh,FALSE,280.94399999999996,21,male
44,bc,3,115,lh,hh,FALSE,277.8710000000001,21,male
44,bc,3,116,lh,lh,TRUE,370.6189999999999,21,male
44,bc,3,117,hl,ll,FALSE,266.8019999999999,21,male
44,bc,3,118,ll,hh,FALSE,247.69900000000007,21,male
44,bc,3,119,hl,hl,TRUE,NA,21,male
44,bc,3,120,lh,hl,FALSE,793.2760000000001,21,male
44,bc,4,1,hl,lh,FALSE,815.4770000000001,21,male
44,bc,4,2,ll,lh,FALSE,1095.0729999999999,21,male
44,bc,4,3,ll,lh,FALSE,1187.308,21,male
44,bc,4,4,hh,lh,FALSE,715.156,21,male
44,bc,4,5,lh,ll,FALSE,709.575,21,male
44,bc,4,6,ll,ll,TRUE,577.1389999999999,21,male
44,bc,4,7,ll,ll,TRUE,801.8689999999999,21,male
44,bc,4,8,lh,ll,FALSE,632.646,21,male
44,bc,4,9,hl,ll,FALSE,453.529,21,male
44,bc,4,10,ll,ll,TRUE,620.029,21,male
44,bc,4,11,hl,lh,FALSE,857.742,21,male
44,bc,4,12,ll,hh,FALSE,718.8040000000001,21,male
44,bc,4,13,hh,hl,FALSE,649.4749999999999,21,male
44,bc,4,14,ll,lh,FALSE,486.5830000000001,21,male
44,bc,4,15,hl,hl,TRUE,345.914,21,male
44,bc,4,16,ll,hh,FALSE,340.376,21,male
44,bc,4,17,hh,ll,FALSE,222.53600000000006,21,male
44,bc,4,18,hl,lh,FALSE,269.25199999999995,21,male
44,bc,4,19,ll,hh,FALSE,266.105,21,male
44,bc,4,20,lh,ll,FALSE,646.617,21,male
44,bc,4,21,ll,hh,FALSE,292.5640000000001,21,male
44,bc,4,22,hh,hl,FALSE,240.16599999999994,21,male
44,bc,4,23,ll,lh,FALSE,253.914,21,male
44,bc,4,24,hh,hl,FALSE,251.7460000000001,21,male
44,bc,4,25,hh,hh,TRUE,232.73299999999995,21,male
44,bc,4,26,ll,ll,TRUE,279.02099999999996,21,male
44,bc,4,27,hl,hh,FALSE,244.15300000000002,21,male
44,bc,4,28,hh,lh,FALSE,241.913,21,male
44,bc,4,29,ll,hl,FALSE,NA,21,male
44,bc,4,30,lh,ll,FALSE,306.6479999999999,21,male
44,bc,4,31,lh,hh,FALSE,622.1569999999999,21,male
44,bc,4,32,lh,lh,TRUE,332.46399999999994,21,male
44,bc,4,33,hl,hl,TRUE,341.5920000000001,21,male
44,bc,4,34,hl,hl,TRUE,368.9860000000001,21,male
44,bc,4,35,hh,lh,FALSE,329.3420000000001,21,male
44,bc,4,36,hl,ll,FALSE,307.6569999999999,21,male
44,bc,4,37,ll,hh,FALSE,302.7449999999999,21,male
44,bc,4,38,hh,lh,FALSE,282.58400000000006,21,male
44,bc,4,39,hh,ll,FALSE,NA,21,male
44,bc,4,40,hh,hh,TRUE,631.874,21,male
44,bc,4,41,ll,hl,FALSE,309.356,21,male
44,bc,4,42,hl,lh,FALSE,NA,21,male
44,bc,4,43,lh,hl,FALSE,833.4590000000001,21,male
44,bc,4,44,hl,ll,FALSE,1175.0639999999999,21,male
44,bc,4,45,ll,lh,FALSE,304.02,21,male
44,bc,4,46,hh,hh,TRUE,1099.2330000000002,21,male
44,bc,4,47,hh,hh,TRUE,534.1089999999999,21,male
44,bc,4,48,lh,hh,FALSE,984.6479999999999,21,male
44,bc,4,49,ll,lh,FALSE,520.472,21,male
44,bc,4,50,hl,hl,TRUE,459.14599999999996,21,male
44,bc,4,51,hh,ll,FALSE,687.1610000000001,21,male
44,bc,4,52,hh,hh,TRUE,428.11799999999994,21,male
44,bc,4,53,lh,lh,TRUE,482.69900000000007,21,male
44,bc,4,54,hl,hl,TRUE,422.0930000000001,21,male
44,bc,4,55,hl,ll,FALSE,429.4760000000001,21,male
44,bc,4,56,ll,hh,FALSE,NA,21,male
44,bc,4,57,hl,hh,FALSE,323.8800000000001,21,male
44,bc,4,58,hh,hl,FALSE,NA,21,male
44,bc,4,59,lh,lh,TRUE,293.52600000000007,21,male
44,bc,4,60,hh,ll,FALSE,336.624,21,male
44,bc,4,61,hh,hh,TRUE,267.1590000000001,21,male
44,bc,4,62,ll,hl,FALSE,295.876,21,male
44,bc,4,63,hl,lh,FALSE,NA,21,male
44,bc,4,64,hl,hl,TRUE,292.4860000000001,21,male
44,bc,4,65,hl,ll,FALSE,320.4580000000001,21,male
44,bc,4,66,hl,hh,FALSE,283.192,21,male
44,bc,4,67,hl,ll,FALSE,326.4939999999999,21,male
44,bc,4,68,hl,hh,FALSE,369.81899999999996,21,male
44,bc,4,69,lh,lh,TRUE,250.59400000000005,21,male
44,bc,4,70,hh,hl,FALSE,NA,21,male
44,bc,4,71,lh,ll,FALSE,409.01800000000003,21,male
44,bc,4,72,hl,hh,FALSE,384.5429999999999,21,male
44,bc,4,73,lh,lh,TRUE,296.6089999999999,21,male
44,bc,4,74,hh,hh,TRUE,532.298,21,male
44,bc,4,75,lh,hh,FALSE,1621.7399999999998,21,male
44,bc,4,76,hl,hl,TRUE,1277.1619999999998,21,male
44,bc,4,77,lh,hl,FALSE,1266.268,21,male
44,bc,4,78,hl,hh,FALSE,374.5060000000001,21,male
44,bc,4,79,ll,hl,FALSE,1119.0189999999998,21,male
44,bc,4,80,lh,hh,FALSE,521.287,21,male
44,bc,4,81,ll,hh,FALSE,524.5219999999999,21,male
44,bc,4,82,lh,hl,FALSE,655.0039999999999,21,male
44,bc,4,83,ll,hh,FALSE,700.3019999999999,21,male
44,bc,4,84,hh,hl,FALSE,679.972,21,male
44,bc,4,85,hh,hh,TRUE,1412.6080000000002,21,male
44,bc,4,86,hh,hh,TRUE,1028.025,21,male
44,bc,4,87,lh,hl,FALSE,1154.7849999999999,21,male
44,bc,4,88,ll,hl,FALSE,780.1510000000001,21,male
44,bc,4,89,hl,hh,FALSE,948.906,21,male
44,bc,4,90,lh,hl,FALSE,453.904,21,male
44,bc,4,91,hh,hh,TRUE,1242.442,21,male
44,bc,4,92,lh,hh,FALSE,3264.9939999999997,21,male
44,bc,4,93,ll,hh,FALSE,1926.065,21,male
44,bc,4,94,hl,hl,TRUE,1040.647,21,male
44,bc,4,95,lh,hh,FALSE,830.5840000000001,21,male
44,bc,4,96,ll,hl,FALSE,2165.608,21,male
44,bc,4,97,lh,hl,FALSE,3077.548,21,male
44,bc,4,98,lh,hh,FALSE,1330.605,21,male
44,bc,4,99,lh,hl,FALSE,804.892,21,male
44,bc,4,100,lh,hh,FALSE,748.6980000000001,21,male
44,bc,4,101,lh,hl,FALSE,2534.221,21,male
44,bc,4,102,lh,hh,FALSE,4472.042,21,male
44,bc,4,103,lh,hl,FALSE,508.70900000000006,21,male
44,bc,4,104,lh,hl,FALSE,1951.741,21,male
44,bc,4,105,ll,hl,FALSE,2776.776,21,male
44,bc,4,106,hl,hh,FALSE,2177.337,21,male
44,bc,4,107,lh,hl,FALSE,945.249,21,male
44,bc,4,108,hh,hh,TRUE,2035.525,21,male
44,bc,4,109,hh,hh,TRUE,3657.098,21,male
44,bc,4,110,hl,hl,TRUE,1070.654,21,male
44,bc,4,111,ll,hh,FALSE,602.8820000000001,21,male
44,bc,4,112,hh,ll,FALSE,746.855,21,male
44,bc,4,113,hh,lh,FALSE,532.894,21,male
44,bc,4,114,ll,ll,TRUE,1014.721,21,male
44,bc,4,115,hh,ll,FALSE,709.7159999999999,21,male
44,bc,4,116,hh,ll,FALSE,961.5799999999999,21,male
44,bc,4,117,ll,ll,TRUE,1346.8829999999998,21,male
44,bc,4,118,ll,ll,TRUE,837.021,21,male
44,bc,4,119,lh,lh,TRUE,457.88300000000004,21,male
44,bc,4,120,ll,hh,FALSE,671.011,21,male
44,bc,5,1,hh,lh,FALSE,NA,21,male
44,bc,5,2,ll,hh,FALSE,586.2470000000001,21,male
44,bc,5,3,lh,lh,TRUE,554.953,21,male
44,bc,5,4,lh,ll,FALSE,299.317,21,male
44,bc,5,5,hl,hh,FALSE,279.1310000000001,21,male
44,bc,5,6,lh,lh,TRUE,420.192,21,male
44,bc,5,7,lh,hl,FALSE,314.7750000000001,21,male
44,bc,5,8,lh,ll,FALSE,278.174,21,male
44,bc,5,9,hh,hh,TRUE,338.8219999999999,21,male
44,bc,5,10,hh,hh,TRUE,604.778,21,male
44,bc,5,11,lh,hh,FALSE,956.1679999999999,21,male
44,bc,5,12,hh,hh,TRUE,2573.516,21,male
44,bc,5,13,hh,hh,TRUE,1326.0100000000002,21,male
44,bc,5,14,lh,hh,FALSE,1776.6770000000001,21,male
44,bc,5,15,hh,hh,TRUE,1985.5230000000001,21,male
44,bc,5,16,hl,hl,TRUE,553.5429999999999,21,male
44,bc,5,17,hh,hl,FALSE,314.6189999999999,21,male
44,bc,5,18,hl,hh,FALSE,4118.33,21,male
44,bc,5,19,hl,hl,TRUE,4680.789,21,male
44,bc,5,20,ll,hl,FALSE,1397.7310000000002,21,male
44,bc,5,21,ll,hh,FALSE,581.512,21,male
44,bc,5,22,hh,hl,FALSE,2182.42,21,male
44,bc,5,23,ll,hh,FALSE,6420.991,21,male
44,bc,5,24,hl,hl,TRUE,3132.8779999999997,21,male
44,bc,5,25,hl,hh,FALSE,1110.8049999999998,21,male
44,bc,5,26,hh,hh,TRUE,4866.881,21,male
44,bc,5,27,ll,hh,FALSE,5206.857,21,male
44,bc,5,28,hh,hl,FALSE,1710.2869999999998,21,male
44,bc,5,29,ll,hh,FALSE,3745.527,21,male
44,bc,5,30,lh,hl,FALSE,675.492,21,male
44,bc,5,31,ll,hh,FALSE,656.143,21,male
44,bc,5,32,hl,hl,TRUE,301.29099999999994,21,male
44,bc,5,33,hh,hh,TRUE,232.46800000000007,21,male
44,bc,5,34,hh,hl,FALSE,294.8989999999999,21,male
44,bc,5,35,hh,hh,TRUE,290.80999999999995,21,male
44,bc,5,36,lh,hh,FALSE,2494.947,21,male
44,bc,5,37,hl,hl,TRUE,2066.945,21,male
44,bc,5,38,hh,hl,FALSE,423.1389999999999,21,male
44,bc,5,39,hh,hh,TRUE,765.904,21,male
44,bc,5,40,hh,hl,FALSE,1078.857,21,male
44,bc,5,41,hl,hl,TRUE,819.6210000000001,21,male
44,bc,5,42,lh,hh,FALSE,2138.12,21,male
44,bc,5,43,lh,hh,FALSE,1164.143,21,male
44,bc,5,44,lh,hl,FALSE,501.529,21,male
44,bc,5,45,hh,lh,FALSE,488.67499999999995,21,male
44,bc,5,46,hh,ll,FALSE,332.8910000000001,21,male
44,bc,5,47,ll,lh,FALSE,566.682,21,male
44,bc,5,48,lh,ll,FALSE,424.2070000000001,21,male
44,bc,5,49,ll,lh,FALSE,574.095,21,male
44,bc,5,50,lh,lh,TRUE,558.838,21,male
44,bc,5,51,ll,hh,FALSE,496.22,21,male
44,bc,5,52,lh,hh,FALSE,676.1379999999999,21,male
44,bc,5,53,hh,hl,FALSE,496.70000000000005,21,male
44,bc,5,54,lh,hl,FALSE,340.97299999999996,21,male
44,bc,5,55,ll,hh,FALSE,494.7650000000001,21,male
44,bc,5,56,hl,hh,FALSE,498.779,21,male
44,bc,5,57,hh,lh,FALSE,405.4549999999999,21,male
44,bc,5,58,hh,ll,FALSE,428.7729999999999,21,male
44,bc,5,59,hl,ll,FALSE,387.9100000000001,21,male
44,bc,5,60,hh,ll,FALSE,524.365,21,male
44,bc,5,61,ll,ll,TRUE,382.77600000000007,21,male
44,bc,5,62,hh,ll,FALSE,422.932,21,male
44,bc,5,63,hh,lh,FALSE,365.39300000000003,21,male
44,bc,5,64,hl,lh,FALSE,325.8800000000001,21,male
44,bc,5,65,hl,ll,FALSE,832.0609999999999,21,male
44,bc,5,66,lh,ll,FALSE,389.9200000000001,21,male
44,bc,5,67,ll,ll,TRUE,366.1099999999999,21,male
44,bc,5,68,hl,ll,FALSE,341.6790000000001,21,male
44,bc,5,69,ll,ll,TRUE,352.173,21,male
44,bc,5,70,hh,hh,TRUE,825.5799999999999,21,male
44,bc,5,71,ll,hh,FALSE,448.31899999999996,21,male
44,bc,5,72,ll,hh,FALSE,822.3119999999999,21,male
44,bc,5,73,hh,hh,TRUE,685.2070000000001,21,male
44,bc,5,74,hl,hl,TRUE,617.0039999999999,21,male
44,bc,5,75,lh,hh,FALSE,551.751,21,male
44,bc,5,76,hl,hl,TRUE,1256.94,21,male
44,bc,5,77,lh,hh,FALSE,750.4090000000001,21,male
44,bc,5,78,hh,hh,TRUE,503.6189999999999,21,male
44,bc,5,79,ll,hh,FALSE,2330.6,21,male
44,bc,5,80,ll,lh,FALSE,581.694,21,male
44,bc,5,81,lh,ll,FALSE,518.3510000000001,21,male
44,bc,5,82,hl,lh,FALSE,601.252,21,male
44,bc,5,83,hl,ll,FALSE,440.19399999999996,21,male
44,bc,5,84,ll,ll,TRUE,846.2070000000001,21,male
44,bc,5,85,lh,ll,FALSE,644.1020000000001,21,male
44,bc,5,86,ll,hh,FALSE,466.1010000000001,21,male
44,bc,5,87,ll,lh,FALSE,1158.757,21,male
44,bc,5,88,lh,hh,FALSE,560.415,21,male
44,bc,5,89,hh,ll,FALSE,305.722,21,male
44,bc,5,90,ll,lh,FALSE,379.616,21,male
44,bc,5,91,ll,hh,FALSE,484.134,21,male
44,bc,5,92,hh,lh,FALSE,NA,21,male
44,bc,5,93,hh,hl,FALSE,265.6020000000001,21,male
44,bc,5,94,hh,lh,FALSE,NA,21,male
44,bc,5,95,hh,lh,FALSE,251.94499999999994,21,male
44,bc,5,96,hl,ll,FALSE,297.37300000000005,21,male
44,bc,5,97,hl,lh,FALSE,629.6569999999999,21,male
44,bc,5,98,ll,ll,TRUE,244.59699999999998,21,male
44,bc,5,99,lh,lh,TRUE,290.3589999999999,21,male
44,bc,5,100,hl,hh,FALSE,382.172,21,male
44,bc,5,101,ll,lh,FALSE,437.105,21,male
44,bc,5,102,hh,ll,FALSE,NA,21,male
44,bc,5,103,hl,ll,FALSE,223.85899999999992,21,male
44,bc,5,104,lh,hl,FALSE,302.51199999999994,21,male
44,bc,5,105,lh,hl,FALSE,265.76099999999997,21,male
44,bc,5,106,ll,ll,TRUE,245.94000000000005,21,male
44,bc,5,107,hl,lh,FALSE,292.39300000000003,21,male
44,bc,5,108,hh,hh,TRUE,207.81500000000005,21,male
44,bc,5,109,ll,hl,FALSE,335.49299999999994,21,male
44,bc,5,110,hh,hh,TRUE,409.33799999999997,21,male
44,bc,5,111,ll,hh,FALSE,560.903,21,male
44,bc,5,112,hh,hh,TRUE,593.874,21,male
44,bc,5,113,hl,hl,TRUE,530.5070000000001,21,male
44,bc,5,114,lh,hh,FALSE,1492.295,21,male
44,bc,5,115,ll,hl,FALSE,511.48800000000006,21,male
44,bc,5,116,lh,hh,FALSE,355.28,21,male
44,bc,5,117,ll,hl,FALSE,284.192,21,male
44,bc,5,118,lh,hh,FALSE,343.95399999999995,21,male
44,bc,5,119,hl,hh,FALSE,466.54099999999994,21,male
44,bc,5,120,lh,lh,TRUE,390.6010000000001,21,male
