pID,condition,block_no,trial_no,stimulus,response,correct,rt,age,gender
23,ac,1,1,lh,hh,FALSE,8659.753,18,female
23,ac,1,2,hh,hh,TRUE,2825.414,18,female
23,ac,1,3,ll,ll,TRUE,4455.892,18,female
23,ac,1,4,lh,ll,FALSE,1724.442,18,female
23,ac,1,5,hl,ll,FALSE,4279.015,18,female
23,ac,1,6,lh,hh,FALSE,4700.4,18,female
23,ac,1,7,ll,ll,TRUE,3183.791,18,female
23,ac,1,8,ll,hl,FALSE,5157.713,18,female
23,ac,1,9,hl,hl,TRUE,6336.566,18,female
23,ac,1,10,hl,ll,FALSE,1857.2330000000002,18,female
23,ac,1,11,hh,hh,TRUE,4919.317,18,female
23,ac,1,12,lh,lh,TRUE,10185.624,18,female
23,ac,1,13,hh,hh,TRUE,2955.142,18,female
23,ac,1,14,hl,lh,FALSE,7875.012000000001,18,female
23,ac,1,15,lh,ll,FALSE,1568.366,18,female
23,ac,1,16,hh,ll,FALSE,913.6990000000001,18,female
23,ac,1,17,hh,hh,TRUE,292.63599999999997,18,female
23,ac,1,18,hl,lh,FALSE,272.471,18,female
23,ac,1,19,hl,hl,TRUE,429.202,18,female
23,ac,1,20,lh,hh,FALSE,419.37799999999993,18,female
23,ac,1,21,ll,lh,FALSE,224.90599999999995,18,female
23,ac,1,22,ll,ll,TRUE,8056.155000000001,18,female
23,ac,1,23,ll,hh,FALSE,4582.083,18,female
23,ac,1,24,hl,ll,FALSE,1069.047,18,female
23,ac,1,25,hh,hl,FALSE,12121.628,18,female
23,ac,1,26,hl,hh,FALSE,2876.68,18,female
23,ac,1,27,hl,ll,FALSE,6370.445,18,female
23,ac,1,28,ll,lh,FALSE,9625.99,18,female
23,ac,1,29,hl,hl,TRUE,14312.825,18,female
23,ac,1,30,hl,hh,FALSE,5051.705,18,female
23,ac,1,31,hh,hh,TRUE,2081.01,18,female
23,ac,1,32,hl,hh,FALSE,2430.775,18,female
23,ac,1,33,ll,ll,TRUE,8660.942,18,female
23,ac,1,34,hh,hh,TRUE,1650.8159999999998,18,female
23,ac,1,35,hh,lh,FALSE,7142.445,18,female
23,ac,1,36,hl,ll,FALSE,3593.4539999999997,18,female
23,ac,1,37,ll,ll,TRUE,1369.3400000000001,18,female
23,ac,1,38,hl,hl,TRUE,5618.69,18,female
23,ac,1,39,ll,ll,TRUE,3160.5190000000002,18,female
23,ac,1,40,hl,hl,TRUE,11810.444,18,female
23,ac,1,41,hh,hh,TRUE,2634.008,18,female
23,ac,1,42,ll,ll,TRUE,4509.88,18,female
23,ac,1,43,ll,ll,TRUE,1425.393,18,female
23,ac,1,44,hl,lh,FALSE,9153.639,18,female
23,ac,1,45,hl,lh,FALSE,4226.94,18,female
23,ac,1,46,hl,hh,FALSE,3904.785,18,female
23,ac,1,47,lh,lh,TRUE,2533.753,18,female
23,ac,1,48,ll,lh,FALSE,3247.2619999999997,18,female
23,ac,1,49,hh,hh,TRUE,1379.7930000000001,18,female
23,ac,1,50,hl,hh,FALSE,4980.151,18,female
23,ac,1,51,hl,hl,TRUE,12054.436,18,female
23,ac,1,52,hl,hh,FALSE,13067.593,18,female
23,ac,1,53,ll,ll,TRUE,2055.874,18,female
23,ac,1,54,ll,hh,FALSE,6380.269,18,female
23,ac,1,55,ll,ll,TRUE,7182.119,18,female
23,ac,1,56,lh,lh,TRUE,4980.847,18,female
23,ac,1,57,lh,hh,FALSE,3221.5190000000002,18,female
23,ac,1,58,hl,hl,TRUE,9181.729,18,female
23,ac,1,59,hh,hh,TRUE,1532.7199999999998,18,female
23,ac,1,60,hl,hl,TRUE,5286.12,18,female
23,ac,1,61,ll,hl,FALSE,5163.587,18,female
23,ac,1,62,lh,hh,FALSE,1460.942,18,female
23,ac,1,63,lh,hl,FALSE,6161.94,18,female
23,ac,1,64,lh,hh,FALSE,3578.718,18,female
23,ac,1,65,hh,hh,TRUE,2675.267,18,female
23,ac,1,66,lh,hh,FALSE,5145.848,18,female
23,ac,1,67,lh,lh,TRUE,12201.395,18,female
23,ac,1,68,hh,hh,TRUE,970.778,18,female
23,ac,1,69,ll,hh,FALSE,3226.624,18,female
23,ac,1,70,ll,ll,TRUE,1920.826,18,female
23,ac,1,71,hl,hl,TRUE,5100.439,18,female
23,ac,1,72,ll,hl,FALSE,5063.635,18,female
23,ac,1,73,lh,hh,FALSE,6123.387,18,female
23,ac,1,74,ll,hl,FALSE,1606.826,18,female
23,ac,1,75,hh,hh,TRUE,2390.712,18,female
23,ac,1,76,hl,ll,FALSE,1255.9989999999998,18,female
23,ac,1,77,ll,lh,FALSE,1580.3739999999998,18,female
23,ac,1,78,hh,lh,FALSE,8669.871,18,female
23,ac,1,79,hl,hh,FALSE,3378.897,18,female
23,ac,1,80,hh,hh,TRUE,2178.181,18,female
23,ac,1,81,hl,hl,TRUE,10379.986,18,female
23,ac,1,82,lh,hh,FALSE,1068.667,18,female
23,ac,1,83,lh,lh,TRUE,2529.503,18,female
23,ac,1,84,hh,ll,FALSE,3025.839,18,female
23,ac,1,85,ll,hh,FALSE,736.319,18,female
23,ac,1,86,hh,hl,FALSE,1706.107,18,female
23,ac,1,87,hl,hh,FALSE,3167.799,18,female
23,ac,1,88,hl,ll,FALSE,1918.092,18,female
23,ac,1,89,hl,lh,FALSE,1530.6689999999999,18,female
23,ac,1,90,ll,hl,FALSE,2236.089,18,female
23,ac,1,91,ll,ll,TRUE,3953.5950000000003,18,female
23,ac,1,92,ll,hh,FALSE,6357.41,18,female
23,ac,1,93,hl,ll,FALSE,1333.958,18,female
23,ac,1,94,hl,hh,FALSE,2735.438,18,female
23,ac,1,95,hh,hh,TRUE,1384.402,18,female
23,ac,1,96,lh,hh,FALSE,2058.533,18,female
23,ac,1,97,lh,hh,FALSE,2221.389,18,female
23,ac,1,98,lh,ll,FALSE,3022.557,18,female
23,ac,1,99,ll,ll,TRUE,2053.371,18,female
23,ac,1,100,hl,hh,FALSE,4273.852,18,female
23,ac,1,101,hl,ll,FALSE,3207.4970000000003,18,female
23,ac,1,102,lh,ll,FALSE,3606.843,18,female
23,ac,1,103,hl,hl,TRUE,6731.508,18,female
23,ac,1,104,hl,hh,FALSE,2264.394,18,female
23,ac,1,105,ll,hl,FALSE,3445.693,18,female
23,ac,1,106,hl,hl,TRUE,3467.2259999999997,18,female
23,ac,1,107,ll,ll,TRUE,2159.907,18,female
23,ac,1,108,hl,hl,TRUE,4154.158,18,female
23,ac,1,109,hl,ll,FALSE,2906.734,18,female
23,ac,1,110,ll,ll,TRUE,2741.956,18,female
23,ac,1,111,ll,ll,TRUE,1520.149,18,female
23,ac,1,112,hl,ll,FALSE,1867.4209999999998,18,female
23,ac,1,113,lh,ll,FALSE,1445.516,18,female
23,ac,1,114,lh,hh,FALSE,2540.513,18,female
23,ac,1,115,hl,ll,FALSE,1855.938,18,female
23,ac,1,116,hh,hl,FALSE,2316.905,18,female
23,ac,1,117,lh,ll,FALSE,2247.384,18,female
23,ac,1,118,lh,ll,FALSE,2005.3780000000002,18,female
23,ac,1,119,hl,ll,FALSE,509.317,18,female
23,ac,1,120,hl,hh,FALSE,1728.826,18,female
23,ac,2,1,lh,hh,FALSE,3882.809,18,female
23,ac,2,2,ll,hh,FALSE,4361.028,18,female
23,ac,2,3,ll,ll,TRUE,10304.222,18,female
23,ac,2,4,ll,ll,TRUE,2027.4789999999998,18,female
23,ac,2,5,hl,ll,FALSE,5004.263,18,female
23,ac,2,6,hh,hh,TRUE,1196.5859999999998,18,female
23,ac,2,7,ll,lh,FALSE,841.855,18,female
23,ac,2,8,lh,hl,FALSE,2440.218,18,female
23,ac,2,9,hh,hh,TRUE,1111.0169999999998,18,female
23,ac,2,10,lh,lh,TRUE,6938.696,18,female
23,ac,2,11,hh,hh,TRUE,3124.6319999999996,18,female
23,ac,2,12,ll,lh,FALSE,4535.453,18,female
23,ac,2,13,ll,ll,TRUE,3754.602,18,female
23,ac,2,14,ll,ll,TRUE,1280.154,18,female
23,ac,2,15,lh,lh,TRUE,3742.402,18,female
23,ac,2,16,lh,lh,TRUE,6521.512,18,female
23,ac,2,17,hh,hh,TRUE,3301.041,18,female
23,ac,2,18,ll,ll,TRUE,3800.4350000000004,18,female
23,ac,2,19,hl,hl,TRUE,4237.324,18,female
23,ac,2,20,ll,ll,TRUE,5858.862,18,female
23,ac,2,21,hh,hh,TRUE,2536.502,18,female
23,ac,2,22,hl,hl,TRUE,4147.6,18,female
23,ac,2,23,lh,hh,FALSE,6187.746,18,female
23,ac,2,24,ll,ll,TRUE,3262.4610000000002,18,female
23,ac,2,25,hl,hh,FALSE,3403.889,18,female
23,ac,2,26,hh,hh,TRUE,1002.181,18,female
23,ac,2,27,lh,lh,TRUE,5586.224,18,female
23,ac,2,28,ll,lh,FALSE,9241.458,18,female
23,ac,2,29,hh,hh,TRUE,2200.212,18,female
23,ac,2,30,hh,hh,TRUE,1406.897,18,female
23,ac,2,31,hl,hh,FALSE,2479.138,18,female
23,ac,2,32,hl,ll,FALSE,1619.272,18,female
23,ac,2,33,lh,lh,TRUE,3127.7200000000003,18,female
23,ac,2,34,hh,hh,TRUE,2034.31,18,female
23,ac,2,35,hh,hh,TRUE,3714.3940000000002,18,female
23,ac,2,36,ll,ll,TRUE,9517.627,18,female
23,ac,2,37,hl,ll,FALSE,2790.013,18,female
23,ac,2,38,hh,lh,FALSE,4296.162,18,female
23,ac,2,39,hh,hh,TRUE,1979.937,18,female
23,ac,2,40,hl,lh,FALSE,3604.84,18,female
23,ac,2,41,ll,hl,FALSE,5028.034,18,female
23,ac,2,42,ll,ll,TRUE,4634.307,18,female
23,ac,2,43,lh,hh,FALSE,3146.001,18,female
23,ac,2,44,hl,ll,FALSE,4451.464,18,female
23,ac,2,45,ll,ll,TRUE,1696.404,18,female
23,ac,2,46,ll,hh,FALSE,2085.19,18,female
23,ac,2,47,lh,hh,FALSE,3760.2340000000004,18,female
23,ac,2,48,ll,ll,TRUE,2377.03,18,female
23,ac,2,49,lh,lh,TRUE,5584.766,18,female
23,ac,2,50,hh,hh,TRUE,887.5840000000001,18,female
23,ac,2,51,ll,hh,FALSE,2302.043,18,female
23,ac,2,52,hl,hh,FALSE,5105.205,18,female
23,ac,2,53,hh,hh,TRUE,1861.125,18,female
23,ac,2,54,lh,hl,FALSE,1434.279,18,female
23,ac,2,55,hh,hh,TRUE,1776.4560000000001,18,female
23,ac,2,56,hh,hh,TRUE,1809.007,18,female
23,ac,2,57,ll,lh,FALSE,5789.537,18,female
23,ac,2,58,hh,hh,TRUE,2133.881,18,female
23,ac,2,59,hh,hh,TRUE,2063.422,18,female
23,ac,2,60,ll,ll,TRUE,2284.738,18,female
23,ac,2,61,hl,ll,FALSE,2584.424,18,female
23,ac,2,62,ll,ll,TRUE,4127.76,18,female
23,ac,2,63,ll,ll,TRUE,3667.3819999999996,18,female
23,ac,2,64,lh,hh,FALSE,3966.7340000000004,18,female
23,ac,2,65,hl,hh,FALSE,3759.818,18,female
23,ac,2,66,lh,hh,FALSE,1121.0149999999999,18,female
23,ac,2,67,ll,ll,TRUE,1246.533,18,female
23,ac,2,68,ll,lh,FALSE,7721.755999999999,18,female
23,ac,2,69,hl,hl,TRUE,3446.5209999999997,18,female
23,ac,2,70,ll,ll,TRUE,3115.3500000000004,18,female
23,ac,2,71,hl,hl,TRUE,6590.518,18,female
23,ac,2,72,hl,hh,FALSE,1733.7440000000001,18,female
23,ac,2,73,lh,hh,FALSE,950.9000000000001,18,female
23,ac,2,74,hh,hh,TRUE,1114.408,18,female
23,ac,2,75,lh,ll,FALSE,1334.967,18,female
23,ac,2,76,lh,hh,FALSE,1248.98,18,female
23,ac,2,77,hl,ll,FALSE,3166.08,18,female
23,ac,2,78,lh,hh,FALSE,1382.402,18,female
23,ac,2,79,hh,hh,TRUE,6859.791,18,female
23,ac,2,80,hh,hh,TRUE,1731.2379999999998,18,female
23,ac,2,81,lh,lh,TRUE,3246.169,18,female
23,ac,2,82,lh,ll,FALSE,1257.643,18,female
23,ac,2,83,lh,hh,FALSE,1104.6,18,female
23,ac,2,84,hl,hl,TRUE,1956.4140000000002,18,female
23,ac,2,85,hh,hh,TRUE,1269.4050000000002,18,female
23,ac,2,86,lh,lh,TRUE,3199.344,18,female
23,ac,2,87,hh,hh,TRUE,2017.4319999999998,18,female
23,ac,2,88,hh,hh,TRUE,1423.495,18,female
23,ac,2,89,hh,hh,TRUE,894.565,18,female
23,ac,2,90,lh,ll,FALSE,2120.635,18,female
23,ac,2,91,ll,ll,TRUE,1589.085,18,female
23,ac,2,92,hl,lh,FALSE,3603.05,18,female
23,ac,2,93,hl,hl,TRUE,4770.351,18,female
23,ac,2,94,hl,hl,TRUE,4883.157,18,female
23,ac,2,95,hh,lh,FALSE,3050.048,18,female
23,ac,2,96,lh,lh,TRUE,1655.0770000000002,18,female
23,ac,2,97,lh,lh,TRUE,2924.485,18,female
23,ac,2,98,hl,hl,TRUE,4366.563,18,female
23,ac,2,99,hl,ll,FALSE,2871.972,18,female
23,ac,2,100,hh,hh,TRUE,2476.99,18,female
23,ac,2,101,hh,hl,FALSE,3759.126,18,female
23,ac,2,102,ll,ll,TRUE,1050.545,18,female
23,ac,2,103,lh,ll,FALSE,1519.641,18,female
23,ac,2,104,hl,hh,FALSE,2887.568,18,female
23,ac,2,105,lh,hh,FALSE,1749.942,18,female
23,ac,2,106,hh,hh,TRUE,1631.886,18,female
23,ac,2,107,ll,ll,TRUE,3685.157,18,female
23,ac,2,108,hh,hh,TRUE,2353.004,18,female
23,ac,2,109,ll,ll,TRUE,1627.0059999999999,18,female
23,ac,2,110,lh,ll,FALSE,2608.438,18,female
23,ac,2,111,ll,lh,FALSE,6352.076,18,female
23,ac,2,112,hl,hh,FALSE,1631.063,18,female
23,ac,2,113,hl,lh,FALSE,1655.243,18,female
23,ac,2,114,hh,hh,TRUE,1309.226,18,female
23,ac,2,115,ll,ll,TRUE,1792.321,18,female
23,ac,2,116,hh,hh,TRUE,1744.0720000000001,18,female
23,ac,2,117,ll,ll,TRUE,1176.859,18,female
23,ac,2,118,lh,hh,FALSE,1547.205,18,female
23,ac,2,119,lh,ll,FALSE,1677.721,18,female
23,ac,2,120,hh,hh,TRUE,855.49,18,female
23,ac,3,1,hl,hl,TRUE,3969.643,18,female
23,ac,3,2,hl,hl,TRUE,3628.1989999999996,18,female
23,ac,3,3,lh,lh,TRUE,3755.5600000000004,18,female
23,ac,3,4,hh,hh,TRUE,1452.1460000000002,18,female
23,ac,3,5,hl,hl,TRUE,2230.288,18,female
23,ac,3,6,ll,hh,FALSE,2047.5529999999999,18,female
23,ac,3,7,ll,hh,FALSE,3356.175,18,female
23,ac,3,8,lh,hl,FALSE,7876.972,18,female
23,ac,3,9,hl,ll,FALSE,5523.864,18,female
23,ac,3,10,ll,hh,FALSE,3070.514,18,female
23,ac,3,11,lh,ll,FALSE,1244.069,18,female
23,ac,3,12,hh,hh,TRUE,1057.5300000000002,18,female
23,ac,3,13,hh,hh,TRUE,3806.794,18,female
23,ac,3,14,hl,hh,FALSE,3854.1369999999997,18,female
23,ac,3,15,hl,hh,FALSE,1067.3049999999998,18,female
23,ac,3,16,hh,hh,TRUE,2480.686,18,female
23,ac,3,17,hh,lh,FALSE,1596.3980000000001,18,female
23,ac,3,18,hh,hl,FALSE,1674.0459999999998,18,female
23,ac,3,19,hh,hh,TRUE,1313.971,18,female
23,ac,3,20,ll,ll,TRUE,1228.6399999999999,18,female
23,ac,3,21,hl,hh,FALSE,3752.6099999999997,18,female
23,ac,3,22,ll,hh,FALSE,1477.199,18,female
23,ac,3,23,hl,ll,FALSE,1537.129,18,female
23,ac,3,24,lh,ll,FALSE,4248.667,18,female
23,ac,3,25,lh,hh,FALSE,1581.4830000000002,18,female
23,ac,3,26,hh,hh,TRUE,1478.0479999999998,18,female
23,ac,3,27,hl,hh,FALSE,1949.6570000000002,18,female
23,ac,3,28,hl,hh,FALSE,1515.891,18,female
23,ac,3,29,hh,hh,TRUE,1134.317,18,female
23,ac,3,30,hh,hh,TRUE,1194.9270000000001,18,female
23,ac,3,31,hh,hh,TRUE,1930.913,18,female
23,ac,3,32,hh,hh,TRUE,2005.8020000000001,18,female
23,ac,3,33,hl,hh,FALSE,4141.117,18,female
23,ac,3,34,lh,ll,FALSE,1254.915,18,female
23,ac,3,35,lh,lh,TRUE,5821.483,18,female
23,ac,3,36,ll,ll,TRUE,3056.859,18,female
23,ac,3,37,lh,ll,FALSE,3601.108,18,female
23,ac,3,38,hl,hh,FALSE,2064.962,18,female
23,ac,3,39,hl,hh,FALSE,10140.925,18,female
23,ac,3,40,hl,hh,FALSE,1972.2310000000002,18,female
23,ac,3,41,hh,hh,TRUE,1286.92,18,female
23,ac,3,42,ll,ll,TRUE,1410.9540000000002,18,female
23,ac,3,43,ll,ll,TRUE,7019.396,18,female
23,ac,3,44,hl,ll,FALSE,3994.1629999999996,18,female
23,ac,3,45,hh,hh,TRUE,3083.064,18,female
23,ac,3,46,hh,hh,TRUE,1517.7220000000002,18,female
23,ac,3,47,hh,hh,TRUE,1576.949,18,female
23,ac,3,48,hl,hl,TRUE,4288.725,18,female
23,ac,3,49,hl,hl,TRUE,5900.981,18,female
23,ac,3,50,lh,ll,FALSE,1320.8200000000002,18,female
23,ac,3,51,hh,hh,TRUE,1250.4470000000001,18,female
23,ac,3,52,lh,ll,FALSE,3368.874,18,female
23,ac,3,53,lh,ll,FALSE,2485.821,18,female
23,ac,3,54,ll,ll,TRUE,4244.37,18,female
23,ac,3,55,hh,hh,TRUE,1026.807,18,female
23,ac,3,56,hh,hh,TRUE,1330.371,18,female
23,ac,3,57,lh,ll,FALSE,4603.753,18,female
23,ac,3,58,lh,hh,FALSE,4307.818,18,female
23,ac,3,59,hl,hl,TRUE,8046.411,18,female
23,ac,3,60,ll,hh,FALSE,4052.304,18,female
23,ac,3,61,ll,ll,TRUE,962.3789999999999,18,female
23,ac,3,62,lh,ll,FALSE,1035.112,18,female
23,ac,3,63,ll,hl,FALSE,5361.474,18,female
23,ac,3,64,hh,hh,TRUE,2463.764,18,female
23,ac,3,65,lh,hh,FALSE,2415.18,18,female
23,ac,3,66,hh,hh,TRUE,1603.663,18,female
23,ac,3,67,lh,lh,TRUE,5266.803,18,female
23,ac,3,68,lh,ll,FALSE,1767.7779999999998,18,female
23,ac,3,69,hh,hh,TRUE,843.527,18,female
23,ac,3,70,hl,hh,FALSE,2001.1729999999998,18,female
23,ac,3,71,hh,hh,TRUE,1856.7350000000001,18,female
23,ac,3,72,hl,hl,TRUE,4749.205,18,female
23,ac,3,73,hh,hh,TRUE,1126.9859999999999,18,female
23,ac,3,74,hh,hh,TRUE,1009.2729999999999,18,female
23,ac,3,75,hl,hl,TRUE,4566.104,18,female
23,ac,3,76,ll,ll,TRUE,2818.442,18,female
23,ac,3,77,hl,hl,TRUE,4312.462,18,female
23,ac,3,78,ll,hl,FALSE,4352.094,18,female
23,ac,3,79,ll,ll,TRUE,4739.983,18,female
23,ac,3,80,lh,lh,TRUE,3711.4399999999996,18,female
23,ac,3,81,hh,hh,TRUE,1049.4830000000002,18,female
23,ac,3,82,hh,hh,TRUE,1534.9389999999999,18,female
23,ac,3,83,hh,hh,TRUE,1009.585,18,female
23,ac,3,84,lh,hh,FALSE,1405.348,18,female
23,ac,3,85,ll,ll,TRUE,3096.6009999999997,18,female
23,ac,3,86,hh,hl,FALSE,1580.0010000000002,18,female
23,ac,3,87,ll,lh,FALSE,3530.8770000000004,18,female
23,ac,3,88,ll,lh,FALSE,3404.456,18,female
23,ac,3,89,hh,hh,TRUE,934.0799999999999,18,female
23,ac,3,90,hh,hh,TRUE,4181.977,18,female
23,ac,3,91,lh,hh,FALSE,1023.6980000000001,18,female
23,ac,3,92,hh,hh,TRUE,727.192,18,female
23,ac,3,93,hl,lh,FALSE,6898.055,18,female
23,ac,3,94,ll,ll,TRUE,1573.808,18,female
23,ac,3,95,hl,ll,FALSE,1621.4270000000001,18,female
23,ac,3,96,ll,ll,TRUE,1177.8159999999998,18,female
23,ac,3,97,hh,hh,TRUE,917.846,18,female
23,ac,3,98,ll,ll,TRUE,3101.2650000000003,18,female
23,ac,3,99,ll,ll,TRUE,2866.677,18,female
23,ac,3,100,hl,lh,FALSE,5327.024,18,female
23,ac,3,101,lh,lh,TRUE,7179.378,18,female
23,ac,3,102,lh,hh,FALSE,2503.706,18,female
23,ac,3,103,lh,hh,FALSE,834.923,18,female
23,ac,3,104,ll,hh,FALSE,1481.5300000000002,18,female
23,ac,3,105,hl,lh,FALSE,4265.338,18,female
23,ac,3,106,hh,hh,TRUE,2278.45,18,female
23,ac,3,107,ll,ll,TRUE,1474.891,18,female
23,ac,3,108,lh,hh,FALSE,4238.406,18,female
23,ac,3,109,hh,lh,FALSE,3509.6980000000003,18,female
23,ac,3,110,ll,ll,TRUE,1582.152,18,female
23,ac,3,111,ll,ll,TRUE,1680.6260000000002,18,female
23,ac,3,112,hh,hh,TRUE,1010.501,18,female
23,ac,3,113,ll,hl,FALSE,6524.718,18,female
23,ac,3,114,hl,hh,FALSE,976.318,18,female
23,ac,3,115,lh,ll,FALSE,1056.884,18,female
23,ac,3,116,ll,lh,FALSE,3346.375,18,female
23,ac,3,117,ll,lh,FALSE,4428.147,18,female
23,ac,3,118,hl,lh,FALSE,2189.546,18,female
23,ac,3,119,hl,ll,FALSE,1254.971,18,female
23,ac,3,120,lh,ll,FALSE,3488.1989999999996,18,female
23,ac,4,1,ll,ll,TRUE,3655.0110000000004,18,female
23,ac,4,2,ll,ll,TRUE,4532.452,18,female
23,ac,4,3,ll,ll,TRUE,1303.5010000000002,18,female
23,ac,4,4,hl,ll,FALSE,3054.839,18,female
23,ac,4,5,hh,lh,FALSE,3676.603,18,female
23,ac,4,6,lh,lh,TRUE,3074.171,18,female
23,ac,4,7,ll,ll,TRUE,3485.7969999999996,18,female
23,ac,4,8,hl,ll,FALSE,1988.4720000000002,18,female
23,ac,4,9,ll,ll,TRUE,1772.665,18,female
23,ac,4,10,hl,hh,FALSE,1908.498,18,female
23,ac,4,11,lh,hh,FALSE,989.7539999999999,18,female
23,ac,4,12,hh,hh,TRUE,3512.6400000000003,18,female
23,ac,4,13,ll,hh,FALSE,2180.23,18,female
23,ac,4,14,hl,hh,FALSE,3004.536,18,female
23,ac,4,15,lh,lh,TRUE,2733.719,18,female
23,ac,4,16,hl,hh,FALSE,4068.0330000000004,18,female
23,ac,4,17,hl,hh,FALSE,4436.02,18,female
23,ac,4,18,hl,hl,TRUE,3088.8,18,female
23,ac,4,19,lh,hh,FALSE,908.6099999999999,18,female
23,ac,4,20,lh,hh,FALSE,895.8489999999999,18,female
23,ac,4,21,hh,hh,TRUE,1300.038,18,female
23,ac,4,22,lh,lh,TRUE,2639.696,18,female
23,ac,4,23,hl,ll,FALSE,1116.929,18,female
23,ac,4,24,hl,hh,FALSE,1487.4180000000001,18,female
23,ac,4,25,ll,ll,TRUE,2411.182,18,female
23,ac,4,26,ll,ll,TRUE,5496.307,18,female
23,ac,4,27,lh,hh,FALSE,878.673,18,female
23,ac,4,28,ll,ll,TRUE,3264.5330000000004,18,female
23,ac,4,29,ll,ll,TRUE,2680.607,18,female
23,ac,4,30,ll,ll,TRUE,3270.259,18,female
23,ac,4,31,ll,hl,FALSE,2818.165,18,female
23,ac,4,32,hl,hl,TRUE,4847.358,18,female
23,ac,4,33,ll,hl,FALSE,2591.726,18,female
23,ac,4,34,hl,hl,TRUE,3019.951,18,female
23,ac,4,35,hh,hh,TRUE,1877.362,18,female
23,ac,4,36,hh,hh,TRUE,1810.2730000000001,18,female
23,ac,4,37,hh,hh,TRUE,3450.553,18,female
23,ac,4,38,ll,ll,TRUE,3654.3999999999996,18,female
23,ac,4,39,hl,hl,TRUE,3449.4539999999997,18,female
23,ac,4,40,lh,lh,TRUE,2888.639,18,female
23,ac,4,41,lh,lh,TRUE,3179.76,18,female
23,ac,4,42,hh,hh,TRUE,1013.4000000000001,18,female
23,ac,4,43,hh,hh,TRUE,4484.628,18,female
23,ac,4,44,lh,hh,FALSE,2089.582,18,female
23,ac,4,45,hh,lh,FALSE,4373.872,18,female
23,ac,4,46,ll,ll,TRUE,1791.0169999999998,18,female
23,ac,4,47,lh,hh,FALSE,1893.476,18,female
23,ac,4,48,hl,hl,TRUE,4601.542,18,female
23,ac,4,49,ll,ll,TRUE,1825.587,18,female
23,ac,4,50,lh,lh,TRUE,2975.588,18,female
23,ac,4,51,hh,hh,TRUE,1097.187,18,female
23,ac,4,52,lh,hh,FALSE,3093.749,18,female
23,ac,4,53,ll,ll,TRUE,3712.3770000000004,18,female
23,ac,4,54,hl,ll,FALSE,2940.835,18,female
23,ac,4,55,lh,lh,TRUE,3826.816,18,female
23,ac,4,56,ll,hl,FALSE,4504.924,18,female
23,ac,4,57,lh,hh,FALSE,1571.937,18,female
23,ac,4,58,hl,hh,FALSE,3720.312,18,female
23,ac,4,59,hh,hh,TRUE,802.6279999999999,18,female
23,ac,4,60,lh,lh,TRUE,4425.836,18,female
23,ac,4,61,hh,hh,TRUE,2141.739,18,female
23,ac,4,62,hl,hl,TRUE,3087.577,18,female
23,ac,4,63,ll,ll,TRUE,4736.762,18,female
23,ac,4,64,hh,hh,TRUE,2142.126,18,female
23,ac,4,65,hl,lh,FALSE,4952.003,18,female
23,ac,4,66,hh,hh,TRUE,893.1300000000001,18,female
23,ac,4,67,ll,ll,TRUE,1992.659,18,female
23,ac,4,68,ll,ll,TRUE,1817.6039999999998,18,female
23,ac,4,69,ll,ll,TRUE,1686.42,18,female
23,ac,4,70,lh,lh,TRUE,4139.39,18,female
23,ac,4,71,ll,lh,FALSE,6429.758,18,female
23,ac,4,72,hl,hh,FALSE,2341.233,18,female
23,ac,4,73,lh,hl,FALSE,1902.0189999999998,18,female
23,ac,4,74,lh,lh,TRUE,1137.4769999999999,18,female
23,ac,4,75,lh,ll,FALSE,1538.714,18,female
23,ac,4,76,hh,ll,FALSE,3234.9449999999997,18,female
23,ac,4,77,hl,hh,FALSE,1650.629,18,female
23,ac,4,78,ll,ll,TRUE,3341.193,18,female
23,ac,4,79,lh,lh,TRUE,4466.477,18,female
23,ac,4,80,lh,lh,TRUE,2447.184,18,female
23,ac,4,81,lh,hl,FALSE,6835.559,18,female
23,ac,4,82,lh,ll,FALSE,3651.2690000000002,18,female
23,ac,4,83,ll,ll,TRUE,1569.487,18,female
23,ac,4,84,hh,hh,TRUE,930.0440000000001,18,female
23,ac,4,85,hh,hh,TRUE,899.942,18,female
23,ac,4,86,hl,ll,FALSE,1759.114,18,female
23,ac,4,87,ll,ll,TRUE,952.819,18,female
23,ac,4,88,lh,ll,FALSE,1146.185,18,female
23,ac,4,89,hh,hh,TRUE,2449.27,18,female
23,ac,4,90,ll,ll,TRUE,1088.6819999999998,18,female
23,ac,4,91,hl,lh,FALSE,6156.624,18,female
23,ac,4,92,lh,hh,FALSE,2351.711,18,female
23,ac,4,93,lh,ll,FALSE,5607.862,18,female
23,ac,4,94,hl,hl,TRUE,2271.53,18,female
23,ac,4,95,hh,hh,TRUE,962.3610000000001,18,female
23,ac,4,96,hh,hh,TRUE,853.2449999999999,18,female
23,ac,4,97,hh,hh,TRUE,881.8009999999999,18,female
23,ac,4,98,hl,ll,FALSE,2982.176,18,female
23,ac,4,99,hh,hh,TRUE,1702.1039999999998,18,female
23,ac,4,100,hl,hl,TRUE,3985.5870000000004,18,female
23,ac,4,101,lh,lh,TRUE,3817.844,18,female
23,ac,4,102,ll,ll,TRUE,1703.723,18,female
23,ac,4,103,lh,hh,FALSE,866.902,18,female
23,ac,4,104,hh,hh,TRUE,1655.7730000000001,18,female
23,ac,4,105,hh,lh,FALSE,3513.192,18,female
23,ac,4,106,lh,lh,TRUE,3116.344,18,female
23,ac,4,107,lh,hh,FALSE,1290.817,18,female
23,ac,4,108,hh,hh,TRUE,1438.5770000000002,18,female
23,ac,4,109,lh,ll,FALSE,5410.664,18,female
23,ac,4,110,lh,ll,FALSE,833.1479999999999,18,female
23,ac,4,111,lh,lh,TRUE,4982.548,18,female
23,ac,4,112,ll,hh,FALSE,5186.008,18,female
23,ac,4,113,hh,hh,TRUE,1170.556,18,female
23,ac,4,114,lh,hh,FALSE,1603.835,18,female
23,ac,4,115,hl,hl,TRUE,2378.284,18,female
23,ac,4,116,hl,hl,TRUE,1506.6970000000001,18,female
23,ac,4,117,lh,ll,FALSE,2894.187,18,female
23,ac,4,118,hh,lh,FALSE,3524.0690000000004,18,female
23,ac,4,119,hl,hh,FALSE,5597.558,18,female
23,ac,4,120,lh,hl,FALSE,5401.268,18,female
23,ac,5,1,lh,ll,FALSE,1797.3519999999999,18,female
23,ac,5,2,lh,hh,FALSE,933.837,18,female
23,ac,5,3,lh,ll,FALSE,943.375,18,female
23,ac,5,4,hh,hl,FALSE,4241.875,18,female
23,ac,5,5,hl,hl,TRUE,1291.746,18,female
23,ac,5,6,hh,hh,TRUE,2023.1799999999998,18,female
23,ac,5,7,hh,hh,TRUE,1217.7910000000002,18,female
23,ac,5,8,ll,hh,FALSE,2655.827,18,female
23,ac,5,9,hh,hh,TRUE,1534.63,18,female
23,ac,5,10,hl,ll,FALSE,5128.331,18,female
23,ac,5,11,ll,ll,TRUE,2290.735,18,female
23,ac,5,12,ll,hl,FALSE,4125.767,18,female
23,ac,5,13,hh,hh,TRUE,3430.121,18,female
23,ac,5,14,hh,lh,FALSE,3876.4889999999996,18,female
23,ac,5,15,lh,hh,FALSE,1552.176,18,female
23,ac,5,16,hh,hh,TRUE,2010.1280000000002,18,female
23,ac,5,17,lh,hh,FALSE,2499.263,18,female
23,ac,5,18,ll,ll,TRUE,3700.7219999999998,18,female
23,ac,5,19,lh,hh,FALSE,1283.7710000000002,18,female
23,ac,5,20,hh,hh,TRUE,1224.085,18,female
23,ac,5,21,lh,ll,FALSE,6131.552,18,female
23,ac,5,22,hl,hl,TRUE,3696.514,18,female
23,ac,5,23,hh,hh,TRUE,1590.4319999999998,18,female
23,ac,5,24,hh,hh,TRUE,1245.625,18,female
23,ac,5,25,lh,hh,FALSE,2032.167,18,female
23,ac,5,26,hl,ll,FALSE,2751.729,18,female
23,ac,5,27,hl,ll,FALSE,2823.161,18,female
23,ac,5,28,hl,hl,TRUE,1872.848,18,female
23,ac,5,29,lh,hh,FALSE,1254.5010000000002,18,female
23,ac,5,30,hl,hl,TRUE,2739.625,18,female
23,ac,5,31,ll,ll,TRUE,2616.682,18,female
23,ac,5,32,hl,hl,TRUE,2556.877,18,female
23,ac,5,33,hh,hh,TRUE,940.9760000000001,18,female
23,ac,5,34,hh,hh,TRUE,3231.2569999999996,18,female
23,ac,5,35,hl,hh,FALSE,2597.153,18,female
23,ac,5,36,lh,lh,TRUE,3725.349,18,female
23,ac,5,37,lh,ll,FALSE,3884.33,18,female
23,ac,5,38,ll,ll,TRUE,1067.962,18,female
23,ac,5,39,hh,hh,TRUE,4197.435,18,female
23,ac,5,40,hh,hh,TRUE,1824.4140000000002,18,female
23,ac,5,41,hh,hh,TRUE,2003.129,18,female
23,ac,5,42,ll,ll,TRUE,1894.4270000000001,18,female
23,ac,5,43,lh,hh,FALSE,2614.353,18,female
23,ac,5,44,lh,hh,FALSE,1225.8000000000002,18,female
23,ac,5,45,lh,hh,FALSE,3264.334,18,female
23,ac,5,46,ll,ll,TRUE,1141.516,18,female
23,ac,5,47,hh,hh,TRUE,1528.346,18,female
23,ac,5,48,hh,hh,TRUE,762.2840000000001,18,female
23,ac,5,49,hl,ll,FALSE,1929.629,18,female
23,ac,5,50,hl,ll,FALSE,2059.1,18,female
23,ac,5,51,hl,hl,TRUE,2715.774,18,female
23,ac,5,52,hh,lh,FALSE,871.346,18,female
23,ac,5,53,lh,ll,FALSE,1412.147,18,female
23,ac,5,54,hl,hl,TRUE,3386.933,18,female
23,ac,5,55,hl,hh,FALSE,4747.96,18,female
23,ac,5,56,lh,lh,TRUE,5444.089,18,female
23,ac,5,57,ll,ll,TRUE,1065.7089999999998,18,female
23,ac,5,58,lh,ll,FALSE,1406.734,18,female
23,ac,5,59,ll,lh,FALSE,4250.815,18,female
23,ac,5,60,hh,hh,TRUE,2060.015,18,female
23,ac,5,61,hl,hl,TRUE,3712.4040000000005,18,female
23,ac,5,62,hl,hl,TRUE,4171.962,18,female
23,ac,5,63,lh,lh,TRUE,2923.587,18,female
23,ac,5,64,lh,lh,TRUE,1854.3490000000002,18,female
23,ac,5,65,ll,ll,TRUE,2544.14,18,female
23,ac,5,66,ll,ll,TRUE,2207.119,18,female
23,ac,5,67,ll,lh,FALSE,4229.713,18,female
23,ac,5,68,hl,hh,FALSE,3060.536,18,female
23,ac,5,69,ll,hh,FALSE,1757.9569999999999,18,female
23,ac,5,70,ll,ll,TRUE,3034.713,18,female
23,ac,5,71,lh,ll,FALSE,1048.6080000000002,18,female
23,ac,5,72,hh,hh,TRUE,3569.54,18,female
23,ac,5,73,hl,lh,FALSE,6254.876,18,female
23,ac,5,74,hl,lh,FALSE,3885.3680000000004,18,female
23,ac,5,75,hh,hh,TRUE,1160.06,18,female
23,ac,5,76,hh,hl,FALSE,3314.6369999999997,18,female
23,ac,5,77,lh,ll,FALSE,2909.496,18,female
23,ac,5,78,ll,ll,TRUE,1400.3780000000002,18,female
23,ac,5,79,lh,hh,FALSE,1639.3359999999998,18,female
23,ac,5,80,hl,hl,TRUE,3289.782,18,female
23,ac,5,81,hl,lh,FALSE,4429.428,18,female
23,ac,5,82,lh,ll,FALSE,1185.2040000000002,18,female
23,ac,5,83,hh,hh,TRUE,2380.626,18,female
23,ac,5,84,hh,ll,FALSE,3904.4840000000004,18,female
23,ac,5,85,ll,ll,TRUE,1677.502,18,female
23,ac,5,86,hl,hl,TRUE,3297.072,18,female
23,ac,5,87,lh,hh,FALSE,1935.9940000000001,18,female
23,ac,5,88,hh,hh,TRUE,1437.8719999999998,18,female
23,ac,5,89,lh,hh,FALSE,2373.276,18,female
23,ac,5,90,hh,hh,TRUE,1016.768,18,female
23,ac,5,91,lh,lh,TRUE,3363.0209999999997,18,female
23,ac,5,92,ll,ll,TRUE,2045.2330000000002,18,female
23,ac,5,93,hh,hl,FALSE,3123.129,18,female
23,ac,5,94,hl,hl,TRUE,3165.9709999999995,18,female
23,ac,5,95,lh,ll,FALSE,1206.9740000000002,18,female
23,ac,5,96,ll,ll,TRUE,3509.969,18,female
23,ac,5,97,hl,hh,FALSE,2101.275,18,female
23,ac,5,98,hh,hh,TRUE,836.654,18,female
23,ac,5,99,ll,ll,TRUE,2231.971,18,female
23,ac,5,100,ll,ll,TRUE,2998.885,18,female
23,ac,5,101,ll,ll,TRUE,2331.785,18,female
23,ac,5,102,ll,ll,TRUE,1536.13,18,female
23,ac,5,103,ll,ll,TRUE,1171.091,18,female
23,ac,5,104,ll,hl,FALSE,4680.954,18,female
23,ac,5,105,lh,lh,TRUE,4156.692,18,female
23,ac,5,106,ll,ll,TRUE,4021.9750000000004,18,female
23,ac,5,107,ll,ll,TRUE,2935.685,18,female
23,ac,5,108,hh,hh,TRUE,2210.112,18,female
23,ac,5,109,ll,lh,FALSE,3394.139,18,female
23,ac,5,110,lh,hh,FALSE,9341.981,18,female
23,ac,5,111,lh,hh,FALSE,2403.604,18,female
23,ac,5,112,hh,hh,TRUE,1336.375,18,female
23,ac,5,113,ll,hl,FALSE,3233.237,18,female
23,ac,5,114,hl,hl,TRUE,2311.306,18,female
23,ac,5,115,hl,lh,FALSE,5673.613,18,female
23,ac,5,116,hh,hh,TRUE,2626.414,18,female
23,ac,5,117,lh,lh,TRUE,4269.2,18,female
23,ac,5,118,hh,hh,TRUE,837.9570000000001,18,female
23,ac,5,119,lh,ll,FALSE,2316.081,18,female
23,ac,5,120,hh,hh,TRUE,1166.8870000000002,18,female
