pID,condition,block_no,trial_no,stimulus,response,correct,rt,age,gender
18,bc,1,1,hl,ll,FALSE,4885.168,18,female
18,bc,1,2,hl,hh,FALSE,3452.9359999999997,18,female
18,bc,1,3,hl,lh,FALSE,6900.053,18,female
18,bc,1,4,hl,hl,TRUE,4954.463,18,female
18,bc,1,5,hh,lh,FALSE,5461.91,18,female
18,bc,1,6,ll,hl,FALSE,7597.1849999999995,18,female
18,bc,1,7,hh,hh,TRUE,4872.176,18,female
18,bc,1,8,hl,hh,FALSE,1645.3580000000002,18,female
18,bc,1,9,hh,lh,FALSE,4213.201,18,female
18,bc,1,10,hh,hl,FALSE,9863.495,18,female
18,bc,1,11,hh,hl,FALSE,3997.871,18,female
18,bc,1,12,lh,ll,FALSE,13920.897,18,female
18,bc,1,13,hh,lh,FALSE,5453.853,18,female
18,bc,1,14,lh,lh,TRUE,4781.599,18,female
18,bc,1,15,ll,ll,TRUE,2631.836,18,female
18,bc,1,16,ll,ll,TRUE,1225.5459999999998,18,female
18,bc,1,17,lh,ll,FALSE,11521.257,18,female
18,bc,1,18,hl,hl,TRUE,7613.736000000001,18,female
18,bc,1,19,lh,lh,TRUE,4384.161,18,female
18,bc,1,20,ll,hl,FALSE,11330.036,18,female
18,bc,1,21,lh,ll,FALSE,2062.868,18,female
18,bc,1,22,hl,lh,FALSE,11357.814,18,female
18,bc,1,23,hl,lh,FALSE,10586.51,18,female
18,bc,1,24,lh,ll,FALSE,9588.034,18,female
18,bc,1,25,hl,hl,TRUE,5742.943,18,female
18,bc,1,26,hl,lh,FALSE,4097.674,18,female
18,bc,1,27,hh,lh,FALSE,9879.687,18,female
18,bc,1,28,hh,lh,FALSE,6774.812,18,female
18,bc,1,29,,,FALSE,14783.335,18,female
18,bc,1,30,lh,lh,TRUE,7450.307000000001,18,female
18,bc,1,31,ll,ll,TRUE,1561.886,18,female
18,bc,1,32,ll,hl,FALSE,6836.398,18,female
18,bc,1,33,hl,ll,FALSE,3693.696,18,female
18,bc,1,34,hl,hl,TRUE,8499.39,18,female
18,bc,1,35,hh,hl,FALSE,5281.296,18,female
18,bc,1,36,hh,lh,FALSE,11248.165,18,female
18,bc,1,37,ll,ll,TRUE,3585.134,18,female
18,bc,1,38,lh,hl,FALSE,10250.005,18,female
18,bc,1,39,ll,ll,TRUE,2577.813,18,female
18,bc,1,40,lh,lh,TRUE,8845.672,18,female
18,bc,1,41,hl,ll,FALSE,6036.347,18,female
18,bc,1,42,hl,hh,FALSE,2068.739,18,female
18,bc,1,43,hh,lh,FALSE,7260.412,18,female
18,bc,1,44,lh,ll,FALSE,3290.92,18,female
18,bc,1,45,,,FALSE,14783.299,18,female
18,bc,1,46,hl,lh,FALSE,6827.33,18,female
18,bc,1,47,hl,lh,FALSE,2921.911,18,female
18,bc,1,48,hh,lh,FALSE,5311.948,18,female
18,bc,1,49,ll,ll,TRUE,8316.308,18,female
18,bc,1,50,hl,hl,TRUE,3377.901,18,female
18,bc,1,51,hl,lh,FALSE,6036.646,18,female
18,bc,1,52,lh,lh,TRUE,2333.217,18,female
18,bc,1,53,ll,ll,TRUE,5602.71,18,female
18,bc,1,54,lh,lh,TRUE,5611.416,18,female
18,bc,1,55,hl,hl,TRUE,4572.272,18,female
18,bc,1,56,lh,hl,FALSE,5031.855,18,female
18,bc,1,57,ll,ll,TRUE,7080.464,18,female
18,bc,1,58,hl,hl,TRUE,6336.089,18,female
18,bc,1,59,hl,hl,TRUE,3330.8199999999997,18,female
18,bc,1,60,lh,hl,FALSE,2677.963,18,female
18,bc,1,61,hl,hl,TRUE,6325.658,18,female
18,bc,1,62,lh,lh,TRUE,3969.7690000000002,18,female
18,bc,1,63,hl,lh,FALSE,2876.862,18,female
18,bc,1,64,hh,lh,FALSE,2468.055,18,female
18,bc,1,65,lh,lh,TRUE,2490.841,18,female
18,bc,1,66,hl,hl,TRUE,2936.195,18,female
18,bc,1,67,ll,ll,TRUE,1764.656,18,female
18,bc,1,68,hl,hh,FALSE,6536.171,18,female
18,bc,1,69,lh,ll,FALSE,1276.62,18,female
18,bc,1,70,hl,hl,TRUE,3659.2969999999996,18,female
18,bc,1,71,ll,ll,TRUE,1122.1619999999998,18,female
18,bc,1,72,hl,lh,FALSE,10719.562,18,female
18,bc,1,73,hl,hl,TRUE,3476.349,18,female
18,bc,1,74,hh,lh,FALSE,2419.599,18,female
18,bc,1,75,ll,lh,FALSE,10003.721,18,female
18,bc,1,76,hl,ll,FALSE,1286.6260000000002,18,female
18,bc,1,77,hl,hh,FALSE,1555.63,18,female
18,bc,1,78,hh,ll,FALSE,3376.411,18,female
18,bc,1,79,hl,hl,TRUE,4874.447,18,female
18,bc,1,80,hl,ll,FALSE,1953.536,18,female
18,bc,1,81,hl,hl,TRUE,2933.456,18,female
18,bc,1,82,ll,lh,FALSE,2825.672,18,female
18,bc,1,83,lh,lh,TRUE,6946.277,18,female
18,bc,1,84,hl,hl,TRUE,3846.879,18,female
18,bc,1,85,hl,hh,FALSE,2366.464,18,female
18,bc,1,86,ll,ll,TRUE,1392.9299999999998,18,female
18,bc,1,87,lh,ll,FALSE,3835.584,18,female
18,bc,1,88,hh,lh,FALSE,3187.9350000000004,18,female
18,bc,1,89,ll,ll,TRUE,5022.511,18,female
18,bc,1,90,hl,ll,FALSE,1511.1219999999998,18,female
18,bc,1,91,ll,ll,TRUE,1204.728,18,female
18,bc,1,92,hh,hl,FALSE,12551.754,18,female
18,bc,1,93,lh,lh,TRUE,3691.0069999999996,18,female
18,bc,1,94,hh,lh,FALSE,2192.328,18,female
18,bc,1,95,ll,hl,FALSE,7074.057,18,female
18,bc,1,96,ll,ll,TRUE,1289.5549999999998,18,female
18,bc,1,97,ll,ll,TRUE,989.671,18,female
18,bc,1,98,ll,ll,TRUE,1073.295,18,female
18,bc,1,99,ll,ll,TRUE,846.5989999999999,18,female
18,bc,1,100,hh,lh,FALSE,2983.83,18,female
18,bc,1,101,lh,lh,TRUE,2339.055,18,female
18,bc,1,102,hh,hl,FALSE,2487.286,18,female
18,bc,1,103,hl,lh,FALSE,12982.419,18,female
18,bc,1,104,lh,lh,TRUE,1992.6640000000002,18,female
18,bc,1,105,ll,hl,FALSE,3250.4120000000003,18,female
18,bc,1,106,lh,hl,FALSE,6313.408,18,female
18,bc,1,107,hh,lh,FALSE,2279.296,18,female
18,bc,1,108,hh,hl,FALSE,5132.69,18,female
18,bc,1,109,hl,hl,TRUE,9177.634,18,female
18,bc,1,110,hh,lh,FALSE,2349.064,18,female
18,bc,1,111,ll,hh,FALSE,4088.3990000000003,18,female
18,bc,1,112,hh,lh,FALSE,6767.04,18,female
18,bc,1,113,lh,hl,FALSE,12179.564,18,female
18,bc,1,114,hh,lh,FALSE,3533.9889999999996,18,female
18,bc,1,115,hl,lh,FALSE,2080.148,18,female
18,bc,1,116,hh,lh,FALSE,1590.7040000000002,18,female
18,bc,1,117,hl,hl,TRUE,4186.399,18,female
18,bc,1,118,lh,lh,TRUE,2522.828,18,female
18,bc,1,119,hl,lh,FALSE,6264.059,18,female
18,bc,1,120,lh,lh,TRUE,1744.585,18,female
18,bc,2,1,lh,lh,TRUE,7433.446,18,female
18,bc,2,2,hl,hl,TRUE,3368.6719999999996,18,female
18,bc,2,3,ll,hl,FALSE,4612.118,18,female
18,bc,2,4,lh,lh,TRUE,5693.312,18,female
18,bc,2,5,ll,lh,FALSE,3211.62,18,female
18,bc,2,6,hh,lh,FALSE,4534,18,female
18,bc,2,7,ll,lh,FALSE,4201.899,18,female
18,bc,2,8,hl,hl,TRUE,6435.519,18,female
18,bc,2,9,hl,lh,FALSE,5396.845,18,female
18,bc,2,10,lh,ll,FALSE,5245.497,18,female
18,bc,2,11,lh,lh,TRUE,13590.773,18,female
18,bc,2,12,ll,ll,TRUE,7264.593999999999,18,female
18,bc,2,13,ll,ll,TRUE,2958.77,18,female
18,bc,2,14,hh,hh,TRUE,6810.776,18,female
18,bc,2,15,lh,hl,FALSE,10892.967,18,female
18,bc,2,16,ll,ll,TRUE,1651.1750000000002,18,female
18,bc,2,17,hh,ll,FALSE,4658.527,18,female
18,bc,2,18,ll,ll,TRUE,1008.655,18,female
18,bc,2,19,hh,lh,FALSE,4690.057,18,female
18,bc,2,20,hh,lh,FALSE,3680.6310000000003,18,female
18,bc,2,21,,,FALSE,14766.704,18,female
18,bc,2,22,hh,lh,FALSE,3360.335,18,female
18,bc,2,23,lh,ll,FALSE,2347.18,18,female
18,bc,2,24,hl,hl,TRUE,3808.566,18,female
18,bc,2,25,hl,hl,TRUE,4640.619,18,female
18,bc,2,26,hh,hl,FALSE,2056.729,18,female
18,bc,2,27,ll,ll,TRUE,2073.107,18,female
18,bc,2,28,hh,hh,TRUE,3693.9579999999996,18,female
18,bc,2,29,lh,ll,FALSE,1252.962,18,female
18,bc,2,30,lh,lh,TRUE,4044.7889999999998,18,female
18,bc,2,31,hl,lh,FALSE,3396.5190000000002,18,female
18,bc,2,32,ll,hl,FALSE,3613.2749999999996,18,female
18,bc,2,33,hl,lh,FALSE,4623.327,18,female
18,bc,2,34,hh,lh,FALSE,7159.81,18,female
18,bc,2,35,hh,hl,FALSE,2523.443,18,female
18,bc,2,36,hl,hl,TRUE,2910.877,18,female
18,bc,2,37,hh,lh,FALSE,5500.451,18,female
18,bc,2,38,lh,hl,FALSE,3546.8500000000004,18,female
18,bc,2,39,hl,hl,TRUE,1456.1080000000002,18,female
18,bc,2,40,lh,lh,TRUE,5085.631,18,female
18,bc,2,41,hh,ll,FALSE,1973.495,18,female
18,bc,2,42,hh,hh,TRUE,2542.937,18,female
18,bc,2,43,lh,ll,FALSE,1147.0569999999998,18,female
18,bc,2,44,hl,hl,TRUE,5792.279,18,female
18,bc,2,45,hh,hl,FALSE,2249.506,18,female
18,bc,2,46,lh,lh,TRUE,1330.0390000000002,18,female
18,bc,2,47,hl,lh,FALSE,4270.098,18,female
18,bc,2,48,hl,hh,FALSE,2917.063,18,female
18,bc,2,49,lh,ll,FALSE,1338.629,18,female
18,bc,2,50,hh,hh,TRUE,1391.1399999999999,18,female
18,bc,2,51,hh,lh,FALSE,3385.3329999999996,18,female
18,bc,2,52,ll,ll,TRUE,1460.101,18,female
18,bc,2,53,hl,ll,FALSE,1123.004,18,female
18,bc,2,54,lh,hl,FALSE,5118.151,18,female
18,bc,2,55,lh,ll,FALSE,1258.857,18,female
18,bc,2,56,hh,hl,FALSE,8332.985,18,female
18,bc,2,57,ll,ll,TRUE,1960.3899999999999,18,female
18,bc,2,58,lh,hl,FALSE,5492.286,18,female
18,bc,2,59,ll,lh,FALSE,5457.94,18,female
18,bc,2,60,hl,hl,TRUE,2360.571,18,female
18,bc,2,61,hl,ll,FALSE,2316.243,18,female
18,bc,2,62,hh,hh,TRUE,1514.636,18,female
18,bc,2,63,lh,hh,FALSE,1152.4810000000002,18,female
18,bc,2,64,ll,lh,FALSE,2698.31,18,female
18,bc,2,65,hl,ll,FALSE,4010.384,18,female
18,bc,2,66,hh,hh,TRUE,4026.374,18,female
18,bc,2,67,hl,hh,FALSE,5867.247,18,female
18,bc,2,68,lh,lh,TRUE,2761.599,18,female
18,bc,2,69,hl,lh,FALSE,3358.1440000000002,18,female
18,bc,2,70,hl,hh,FALSE,4408.376,18,female
18,bc,2,71,hh,hl,FALSE,4009.4089999999997,18,female
18,bc,2,72,lh,hl,FALSE,3131.526,18,female
18,bc,2,73,lh,hl,FALSE,1894.9569999999999,18,female
18,bc,2,74,ll,ll,TRUE,1197.431,18,female
18,bc,2,75,lh,hl,FALSE,6863.294,18,female
18,bc,2,76,ll,ll,TRUE,1654.7910000000002,18,female
18,bc,2,77,hl,hh,FALSE,2574.46,18,female
18,bc,2,78,hh,ll,FALSE,11066.958,18,female
18,bc,2,79,ll,ll,TRUE,1258.0079999999998,18,female
18,bc,2,80,hh,lh,FALSE,2896.76,18,female
18,bc,2,81,hh,hl,FALSE,1718.3829999999998,18,female
18,bc,2,82,ll,ll,TRUE,1139.3490000000002,18,female
18,bc,2,83,ll,lh,FALSE,2057.409,18,female
18,bc,2,84,ll,ll,TRUE,1248.0970000000002,18,female
18,bc,2,85,lh,lh,TRUE,4352.135,18,female
18,bc,2,86,hl,hl,TRUE,3883.661,18,female
18,bc,2,87,lh,ll,FALSE,4586.848,18,female
18,bc,2,88,ll,ll,TRUE,1381.3029999999999,18,female
18,bc,2,89,ll,ll,TRUE,935.3779999999999,18,female
18,bc,2,90,hl,hl,TRUE,8595.839,18,female
18,bc,2,91,hl,lh,FALSE,2283.557,18,female
18,bc,2,92,lh,ll,FALSE,1243.1239999999998,18,female
18,bc,2,93,ll,ll,TRUE,2098.39,18,female
18,bc,2,94,lh,lh,TRUE,5120.723,18,female
18,bc,2,95,hl,lh,FALSE,1453.871,18,female
18,bc,2,96,lh,ll,FALSE,7572.59,18,female
18,bc,2,97,hl,lh,FALSE,2143.983,18,female
18,bc,2,98,hh,hh,TRUE,1468.9279999999999,18,female
18,bc,2,99,ll,hl,FALSE,4234.439,18,female
18,bc,2,100,ll,ll,TRUE,963.944,18,female
18,bc,2,101,hl,ll,FALSE,3079.376,18,female
18,bc,2,102,ll,ll,TRUE,2237.699,18,female
18,bc,2,103,hh,hl,FALSE,2814.382,18,female
18,bc,2,104,lh,hl,FALSE,1639.4409999999998,18,female
18,bc,2,105,lh,hh,FALSE,3422.763,18,female
18,bc,2,106,hl,hl,TRUE,1809.011,18,female
18,bc,2,107,hl,hl,TRUE,4049.2209999999995,18,female
18,bc,2,108,hh,hl,FALSE,2297.767,18,female
18,bc,2,109,ll,ll,TRUE,2656.426,18,female
18,bc,2,110,lh,lh,TRUE,5046.311,18,female
18,bc,2,111,hh,lh,FALSE,4670.74,18,female
18,bc,2,112,lh,hl,FALSE,3030.772,18,female
18,bc,2,113,hh,hl,FALSE,1485.9969999999998,18,female
18,bc,2,114,hh,ll,FALSE,3612.6319999999996,18,female
18,bc,2,115,ll,ll,TRUE,974.7070000000001,18,female
18,bc,2,116,hl,lh,FALSE,3960.91,18,female
18,bc,2,117,ll,ll,TRUE,1581.37,18,female
18,bc,2,118,hl,hl,TRUE,2703.495,18,female
18,bc,2,119,hh,lh,FALSE,2773.301,18,female
18,bc,2,120,hl,hl,TRUE,2902.947,18,female
18,bc,3,1,hl,hl,TRUE,3584.2690000000002,18,female
18,bc,3,2,hh,hl,FALSE,1124.6660000000002,18,female
18,bc,3,3,hh,hl,FALSE,1337.583,18,female
18,bc,3,4,hl,lh,FALSE,5988.995,18,female
18,bc,3,5,lh,lh,TRUE,1817.676,18,female
18,bc,3,6,hl,lh,FALSE,2258.692,18,female
18,bc,3,7,lh,lh,TRUE,3392.385,18,female
18,bc,3,8,lh,lh,TRUE,4876.315,18,female
18,bc,3,9,lh,hl,FALSE,5098.152,18,female
18,bc,3,10,hh,lh,FALSE,5735.788,18,female
18,bc,3,11,lh,ll,FALSE,1142.415,18,female
18,bc,3,12,hh,lh,FALSE,6471.772,18,female
18,bc,3,13,hl,hl,TRUE,1416.1599999999999,18,female
18,bc,3,14,hl,hh,FALSE,1704.6889999999999,18,female
18,bc,3,15,lh,hl,FALSE,2598.098,18,female
18,bc,3,16,hl,ll,FALSE,5367.384,18,female
18,bc,3,17,lh,hh,FALSE,4202.905,18,female
18,bc,3,18,hh,lh,FALSE,5181.908,18,female
18,bc,3,19,hh,lh,FALSE,2671.748,18,female
18,bc,3,20,hl,hl,TRUE,10455.02,18,female
18,bc,3,21,lh,hl,FALSE,1510.1480000000001,18,female
18,bc,3,22,hl,hl,TRUE,2091.764,18,female
18,bc,3,23,lh,lh,TRUE,2385.086,18,female
18,bc,3,24,lh,lh,TRUE,7286.5380000000005,18,female
18,bc,3,25,lh,hl,FALSE,4490.303,18,female
18,bc,3,26,lh,hl,FALSE,1096.7150000000001,18,female
18,bc,3,27,ll,ll,TRUE,1174.185,18,female
18,bc,3,28,lh,lh,TRUE,1225.0749999999998,18,female
18,bc,3,29,hh,hl,FALSE,1267.074,18,female
18,bc,3,30,hh,lh,FALSE,1466.9540000000002,18,female
18,bc,3,31,lh,hl,FALSE,1577.505,18,female
18,bc,3,32,lh,ll,FALSE,3372.8370000000004,18,female
18,bc,3,33,ll,ll,TRUE,902.357,18,female
18,bc,3,34,hh,lh,FALSE,1355.58,18,female
18,bc,3,35,hl,lh,FALSE,2874.727,18,female
18,bc,3,36,ll,lh,FALSE,4622.433,18,female
18,bc,3,37,lh,hl,FALSE,4151.498,18,female
18,bc,3,38,hh,lh,FALSE,2052.282,18,female
18,bc,3,39,hh,lh,FALSE,1419.6770000000001,18,female
18,bc,3,40,ll,hl,FALSE,2008.531,18,female
18,bc,3,41,ll,ll,TRUE,2366.268,18,female
18,bc,3,42,hh,hl,FALSE,4536.664,18,female
18,bc,3,43,ll,lh,FALSE,2535.644,18,female
18,bc,3,44,hl,hl,TRUE,2610.094,18,female
18,bc,3,45,lh,hh,FALSE,1923.4540000000002,18,female
18,bc,3,46,hh,lh,FALSE,4066.076,18,female
18,bc,3,47,hh,hl,FALSE,1417.0839999999998,18,female
18,bc,3,48,hl,hh,FALSE,1511.5439999999999,18,female
18,bc,3,49,ll,hl,FALSE,3476.6949999999997,18,female
18,bc,3,50,hh,ll,FALSE,2629.735,18,female
18,bc,3,51,hh,hh,TRUE,2389.1,18,female
18,bc,3,52,lh,lh,TRUE,2430.081,18,female
18,bc,3,53,hl,hl,TRUE,5016.139,18,female
18,bc,3,54,hl,hh,FALSE,2007.192,18,female
18,bc,3,55,hh,lh,FALSE,4687.96,18,female
18,bc,3,56,hl,lh,FALSE,2311.72,18,female
18,bc,3,57,ll,lh,FALSE,877.6600000000001,18,female
18,bc,3,58,ll,ll,TRUE,1610.8739999999998,18,female
18,bc,3,59,hl,hh,FALSE,1749.864,18,female
18,bc,3,60,hl,hh,FALSE,1504.7640000000001,18,female
18,bc,3,61,ll,ll,TRUE,1407.476,18,female
18,bc,3,62,hh,hh,TRUE,2654.763,18,female
18,bc,3,63,ll,ll,TRUE,1104.0970000000002,18,female
18,bc,3,64,ll,ll,TRUE,917.423,18,female
18,bc,3,65,lh,lh,TRUE,4100.616,18,female
18,bc,3,66,hl,lh,FALSE,3882.0469999999996,18,female
18,bc,3,67,hh,lh,FALSE,1408.2710000000002,18,female
18,bc,3,68,lh,ll,FALSE,1792.937,18,female
18,bc,3,69,hh,hl,FALSE,3513.486,18,female
18,bc,3,70,hh,lh,FALSE,3671.773,18,female
18,bc,3,71,hh,hl,FALSE,2726.155,18,female
18,bc,3,72,lh,lh,TRUE,2308.883,18,female
18,bc,3,73,lh,ll,FALSE,1170.228,18,female
18,bc,3,74,ll,ll,TRUE,941.5619999999999,18,female
18,bc,3,75,hh,hl,FALSE,1936.594,18,female
18,bc,3,76,hh,hl,FALSE,1964.2779999999998,18,female
18,bc,3,77,ll,ll,TRUE,1360.018,18,female
18,bc,3,78,hh,hl,FALSE,2380.227,18,female
18,bc,3,79,ll,ll,TRUE,1350.7800000000002,18,female
18,bc,3,80,lh,lh,TRUE,2778.705,18,female
18,bc,3,81,hh,ll,FALSE,3957.068,18,female
18,bc,3,82,hh,hl,FALSE,4273.259,18,female
18,bc,3,83,hl,ll,FALSE,1061.839,18,female
18,bc,3,84,ll,ll,TRUE,11461.888,18,female
18,bc,3,85,lh,hl,FALSE,2060.511,18,female
18,bc,3,86,hl,ll,FALSE,2843.92,18,female
18,bc,3,87,lh,ll,FALSE,1508.033,18,female
18,bc,3,88,ll,ll,TRUE,1075.667,18,female
18,bc,3,89,lh,ll,FALSE,936.0719999999999,18,female
18,bc,3,90,lh,ll,FALSE,862.78,18,female
18,bc,3,91,hh,hl,FALSE,6581.341,18,female
18,bc,3,92,lh,lh,TRUE,2817.967,18,female
18,bc,3,93,hh,lh,FALSE,4752.59,18,female
18,bc,3,94,ll,ll,TRUE,1579.8780000000002,18,female
18,bc,3,95,ll,ll,TRUE,880.636,18,female
18,bc,3,96,hl,hl,TRUE,2052.934,18,female
18,bc,3,97,lh,ll,FALSE,6548.752,18,female
18,bc,3,98,lh,ll,FALSE,1552.562,18,female
18,bc,3,99,ll,hl,FALSE,4883.94,18,female
18,bc,3,100,lh,lh,TRUE,5884.04,18,female
18,bc,3,101,ll,ll,TRUE,1106.2040000000002,18,female
18,bc,3,102,lh,lh,TRUE,5608.586,18,female
18,bc,3,103,lh,hh,FALSE,2376.993,18,female
18,bc,3,104,lh,hh,FALSE,1979.482,18,female
18,bc,3,105,ll,ll,TRUE,1336.4810000000002,18,female
18,bc,3,106,hh,lh,FALSE,2460.825,18,female
18,bc,3,107,lh,hh,FALSE,5676.335,18,female
18,bc,3,108,lh,lh,TRUE,4921.08,18,female
18,bc,3,109,lh,hl,FALSE,12871.687,18,female
18,bc,3,110,hl,hh,FALSE,2141.536,18,female
18,bc,3,111,hh,lh,FALSE,5771.191,18,female
18,bc,3,112,lh,lh,TRUE,3963.7309999999998,18,female
18,bc,3,113,hh,lh,FALSE,6537.481,18,female
18,bc,3,114,lh,lh,TRUE,4046.4089999999997,18,female
18,bc,3,115,ll,hl,FALSE,4971.569,18,female
18,bc,3,116,ll,ll,TRUE,1134.513,18,female
18,bc,3,117,hl,hl,TRUE,3827.398,18,female
18,bc,3,118,hl,hh,FALSE,2525.248,18,female
18,bc,3,119,hl,ll,FALSE,3216.5969999999998,18,female
18,bc,3,120,hh,hh,TRUE,1627.558,18,female
18,bc,4,1,ll,hh,FALSE,2834.408,18,female
18,bc,4,2,hl,lh,FALSE,4059.545,18,female
18,bc,4,3,lh,lh,TRUE,3370.74,18,female
18,bc,4,4,ll,lh,FALSE,1704.1770000000001,18,female
18,bc,4,5,ll,hl,FALSE,1671.013,18,female
18,bc,4,6,hh,hl,FALSE,1205.4029999999998,18,female
18,bc,4,7,hh,hl,FALSE,1245.2399999999998,18,female
18,bc,4,8,hh,hl,FALSE,3790.933,18,female
18,bc,4,9,lh,ll,FALSE,4010.626,18,female
18,bc,4,10,hl,hh,FALSE,1170.0030000000002,18,female
18,bc,4,11,hh,ll,FALSE,2187.803,18,female
18,bc,4,12,ll,lh,FALSE,5065.599,18,female
18,bc,4,13,hh,hl,FALSE,3302.3019999999997,18,female
18,bc,4,14,hh,hh,TRUE,5403.92,18,female
18,bc,4,15,hl,hl,TRUE,4271.822,18,female
18,bc,4,16,lh,lh,TRUE,2429.069,18,female
18,bc,4,17,lh,lh,TRUE,1837.286,18,female
18,bc,4,18,hl,lh,FALSE,1837.2379999999998,18,female
18,bc,4,19,hh,hl,FALSE,3007.105,18,female
18,bc,4,20,hh,lh,FALSE,1760.5169999999998,18,female
18,bc,4,21,ll,hh,FALSE,2180.517,18,female
18,bc,4,22,hh,lh,FALSE,1990.3339999999998,18,female
18,bc,4,23,ll,ll,TRUE,1128.013,18,female
18,bc,4,24,hl,hl,TRUE,6521.888,18,female
18,bc,4,25,lh,lh,TRUE,1424.7109999999998,18,female
18,bc,4,26,ll,ll,TRUE,1050.0189999999998,18,female
18,bc,4,27,hl,hl,TRUE,927.4939999999999,18,female
18,bc,4,28,hh,hl,FALSE,1278.1129999999998,18,female
18,bc,4,29,ll,lh,FALSE,1322.828,18,female
18,bc,4,30,ll,ll,TRUE,1178.3670000000002,18,female
18,bc,4,31,lh,lh,TRUE,2586.705,18,female
18,bc,4,32,hh,hl,FALSE,1733.29,18,female
18,bc,4,33,ll,ll,TRUE,1052.234,18,female
18,bc,4,34,hl,ll,FALSE,1618.259,18,female
18,bc,4,35,ll,ll,TRUE,956.2650000000001,18,female
18,bc,4,36,hl,hl,TRUE,2717.031,18,female
18,bc,4,37,ll,lh,FALSE,926.3720000000001,18,female
18,bc,4,38,hh,hl,FALSE,4145.74,18,female
18,bc,4,39,lh,lh,TRUE,6752.39,18,female
18,bc,4,40,hh,hl,FALSE,1488.703,18,female
18,bc,4,41,hl,hl,TRUE,2206.877,18,female
18,bc,4,42,hh,hl,FALSE,1328.15,18,female
18,bc,4,43,hh,lh,FALSE,2812.358,18,female
18,bc,4,44,hl,hh,FALSE,2117.706,18,female
18,bc,4,45,ll,lh,FALSE,2355.47,18,female
18,bc,4,46,hl,lh,FALSE,2767.073,18,female
18,bc,4,47,lh,lh,TRUE,1915.516,18,female
18,bc,4,48,lh,ll,FALSE,1279.7620000000002,18,female
18,bc,4,49,ll,ll,TRUE,949.316,18,female
18,bc,4,50,ll,ll,TRUE,785.358,18,female
18,bc,4,51,hh,lh,FALSE,2164.577,18,female
18,bc,4,52,lh,ll,FALSE,2545.531,18,female
18,bc,4,53,ll,ll,TRUE,835.5909999999999,18,female
18,bc,4,54,ll,ll,TRUE,820.6610000000001,18,female
18,bc,4,55,hl,hh,FALSE,3270.3280000000004,18,female
18,bc,4,56,ll,ll,TRUE,1053.5659999999998,18,female
18,bc,4,57,hl,hh,FALSE,1452.984,18,female
18,bc,4,58,hh,ll,FALSE,2765.484,18,female
18,bc,4,59,ll,ll,TRUE,1024.258,18,female
18,bc,4,60,hl,hh,FALSE,1672.2710000000002,18,female
18,bc,4,61,hl,hh,FALSE,9969.542,18,female
18,bc,4,62,,,FALSE,14766.678,18,female
18,bc,4,63,hl,hl,TRUE,1794.476,18,female
18,bc,4,64,ll,hh,FALSE,1788.3220000000001,18,female
18,bc,4,65,ll,hh,FALSE,1376.344,18,female
18,bc,4,66,lh,hh,FALSE,1097.9560000000001,18,female
18,bc,4,67,lh,hh,FALSE,904.0999999999999,18,female
18,bc,4,68,hl,lh,FALSE,5839.243,18,female
18,bc,4,69,ll,ll,TRUE,1375.942,18,female
18,bc,4,70,ll,hl,FALSE,5712.588,18,female
18,bc,4,71,ll,ll,TRUE,1072.127,18,female
18,bc,4,72,hl,ll,FALSE,6046.935,18,female
18,bc,4,73,hl,ll,FALSE,7950.446,18,female
18,bc,4,74,hh,ll,FALSE,2473.599,18,female
18,bc,4,75,ll,ll,TRUE,1304.5390000000002,18,female
18,bc,4,76,hh,ll,FALSE,1341.8310000000001,18,female
18,bc,4,77,hh,lh,FALSE,6941.836,18,female
18,bc,4,78,ll,ll,TRUE,1006.8889999999999,18,female
18,bc,4,79,hl,hh,FALSE,1637.719,18,female
18,bc,4,80,ll,ll,TRUE,953.162,18,female
18,bc,4,81,hh,hh,TRUE,4165.613,18,female
18,bc,4,82,lh,hh,FALSE,2125.809,18,female
18,bc,4,83,hh,lh,FALSE,9163.248,18,female
18,bc,4,84,hl,ll,FALSE,1941.042,18,female
18,bc,4,85,hl,ll,FALSE,2964.031,18,female
18,bc,4,86,hh,hh,TRUE,4998.998,18,female
18,bc,4,87,ll,ll,TRUE,950.991,18,female
18,bc,4,88,hh,hh,TRUE,1934.8400000000001,18,female
18,bc,4,89,ll,ll,TRUE,1081.257,18,female
18,bc,4,90,hh,ll,FALSE,4416.938,18,female
18,bc,4,91,hh,lh,FALSE,7295.126,18,female
18,bc,4,92,ll,lh,FALSE,2853.157,18,female
18,bc,4,93,lh,lh,TRUE,2496.914,18,female
18,bc,4,94,lh,ll,FALSE,1059.676,18,female
18,bc,4,95,hl,hl,TRUE,6556.514,18,female
18,bc,4,96,hl,hl,TRUE,1485.181,18,female
18,bc,4,97,ll,ll,TRUE,1989.123,18,female
18,bc,4,98,hl,lh,FALSE,3031.893,18,female
18,bc,4,99,hh,hh,TRUE,2171.177,18,female
18,bc,4,100,hh,ll,FALSE,2002.902,18,female
18,bc,4,101,lh,hl,FALSE,1903.6129999999998,18,female
18,bc,4,102,hl,lh,FALSE,2917.705,18,female
18,bc,4,103,lh,lh,TRUE,8735.108,18,female
18,bc,4,104,lh,ll,FALSE,1116.4070000000002,18,female
18,bc,4,105,ll,ll,TRUE,1721.5659999999998,18,female
18,bc,4,106,hh,hh,TRUE,1398.25,18,female
18,bc,4,107,hh,hh,TRUE,1320.511,18,female
18,bc,4,108,lh,ll,FALSE,1237.696,18,female
18,bc,4,109,hh,lh,FALSE,5199.47,18,female
18,bc,4,110,ll,ll,TRUE,2296.184,18,female
18,bc,4,111,hl,lh,FALSE,3199.742,18,female
18,bc,4,112,lh,lh,TRUE,9684.533,18,female
18,bc,4,113,hl,lh,FALSE,8122.805,18,female
18,bc,4,114,ll,ll,TRUE,1420.9050000000002,18,female
18,bc,4,115,lh,hl,FALSE,1854.1970000000001,18,female
18,bc,4,116,lh,lh,TRUE,5156.504,18,female
18,bc,4,117,ll,hl,FALSE,4263.156,18,female
18,bc,4,118,hl,hh,FALSE,2176.162,18,female
18,bc,4,119,ll,ll,TRUE,1057.058,18,female
18,bc,4,120,hl,hl,TRUE,3873.5910000000003,18,female
18,bc,5,1,hl,ll,FALSE,3133,18,female
18,bc,5,2,hh,lh,FALSE,2996.864,18,female
18,bc,5,3,ll,ll,TRUE,1790.94,18,female
18,bc,5,4,hl,lh,FALSE,2981.492,18,female
18,bc,5,5,lh,hl,FALSE,1335.6260000000002,18,female
18,bc,5,6,hh,hl,FALSE,1677.511,18,female
18,bc,5,7,ll,ll,TRUE,3491.5339999999997,18,female
18,bc,5,8,lh,hh,FALSE,4587.07,18,female
18,bc,5,9,lh,ll,FALSE,2525.133,18,female
18,bc,5,10,ll,ll,TRUE,919.347,18,female
18,bc,5,11,ll,ll,TRUE,853.8520000000001,18,female
18,bc,5,12,hl,hh,FALSE,1902.384,18,female
18,bc,5,13,hl,hl,TRUE,2730.513,18,female
18,bc,5,14,ll,ll,TRUE,1145.5010000000002,18,female
18,bc,5,15,hl,ll,FALSE,1131.507,18,female
18,bc,5,16,hh,hh,TRUE,2054.374,18,female
18,bc,5,17,lh,lh,TRUE,3102.084,18,female
18,bc,5,18,lh,hh,FALSE,1516.1619999999998,18,female
18,bc,5,19,lh,lh,TRUE,4315.002,18,female
18,bc,5,20,hl,hh,FALSE,2665.124,18,female
18,bc,5,21,ll,ll,TRUE,1181.944,18,female
18,bc,5,22,ll,ll,TRUE,1056.734,18,female
18,bc,5,23,hl,hl,TRUE,2823.475,18,female
18,bc,5,24,lh,ll,FALSE,931.441,18,female
18,bc,5,25,ll,ll,TRUE,1016.107,18,female
18,bc,5,26,ll,ll,TRUE,1585.946,18,female
18,bc,5,27,hl,ll,FALSE,1061.1930000000002,18,female
18,bc,5,28,hl,lh,FALSE,1884.024,18,female
18,bc,5,29,hh,lh,FALSE,2102.924,18,female
18,bc,5,30,ll,hl,FALSE,3452.7960000000003,18,female
18,bc,5,31,hl,ll,FALSE,1143.1190000000001,18,female
18,bc,5,32,hl,lh,FALSE,2917.452,18,female
18,bc,5,33,ll,ll,TRUE,873.441,18,female
18,bc,5,34,lh,hl,FALSE,4715.656,18,female
18,bc,5,35,lh,hh,FALSE,3843.124,18,female
18,bc,5,36,hh,lh,FALSE,7243.803,18,female
18,bc,5,37,ll,hl,FALSE,3780.4449999999997,18,female
18,bc,5,38,hl,ll,FALSE,1292.17,18,female
18,bc,5,39,ll,lh,FALSE,5669.488,18,female
18,bc,5,40,ll,ll,TRUE,1764.3290000000002,18,female
18,bc,5,41,ll,ll,TRUE,932.7750000000001,18,female
18,bc,5,42,lh,lh,TRUE,3868.8100000000004,18,female
18,bc,5,43,ll,hh,FALSE,3836.545,18,female
18,bc,5,44,hl,ll,FALSE,3685.0060000000003,18,female
18,bc,5,45,ll,hl,FALSE,4360.29,18,female
18,bc,5,46,hl,ll,FALSE,2124.094,18,female
18,bc,5,47,hh,lh,FALSE,2903.83,18,female
18,bc,5,48,hl,lh,FALSE,4997.868,18,female
18,bc,5,49,lh,lh,TRUE,6271.856,18,female
18,bc,5,50,lh,ll,FALSE,1770.1080000000002,18,female
18,bc,5,51,lh,ll,FALSE,1857.7330000000002,18,female
18,bc,5,52,hh,hh,TRUE,1690.632,18,female
18,bc,5,53,hh,hh,TRUE,3679.79,18,female
18,bc,5,54,hh,hh,TRUE,967.0899999999999,18,female
18,bc,5,55,lh,hl,FALSE,9248.664,18,female
18,bc,5,56,hh,hl,FALSE,4848.881,18,female
18,bc,5,57,hl,lh,FALSE,4400.643,18,female
18,bc,5,58,ll,lh,FALSE,858.9269999999999,18,female
18,bc,5,59,lh,hl,FALSE,3042.201,18,female
18,bc,5,60,lh,hh,FALSE,4273.973,18,female
18,bc,5,61,ll,ll,TRUE,1087.721,18,female
18,bc,5,62,hh,hl,FALSE,6151.784,18,female
18,bc,5,63,ll,hl,FALSE,1276.6599999999999,18,female
18,bc,5,64,lh,lh,TRUE,7916.838,18,female
18,bc,5,65,ll,ll,TRUE,1218.88,18,female
18,bc,5,66,hh,lh,FALSE,5280.771,18,female
18,bc,5,67,hh,hl,FALSE,4570.837,18,female
18,bc,5,68,lh,ll,FALSE,1333.098,18,female
18,bc,5,69,lh,lh,TRUE,3399.0950000000003,18,female
18,bc,5,70,hh,lh,FALSE,7718.561,18,female
18,bc,5,71,lh,ll,FALSE,1128.976,18,female
18,bc,5,72,hl,lh,FALSE,4980.166,18,female
18,bc,5,73,hh,lh,FALSE,1933.2420000000002,18,female
18,bc,5,74,ll,lh,FALSE,1473.8580000000002,18,female
18,bc,5,75,ll,lh,FALSE,1800.1100000000001,18,female
18,bc,5,76,lh,hl,FALSE,1293.034,18,female
18,bc,5,77,ll,hl,FALSE,1866.6480000000001,18,female
18,bc,5,78,lh,hl,FALSE,1281.8890000000001,18,female
18,bc,5,79,hh,hh,TRUE,1776.382,18,female
18,bc,5,80,hl,hl,TRUE,4491.825,18,female
18,bc,5,81,lh,ll,FALSE,1562.6109999999999,18,female
18,bc,5,82,lh,ll,FALSE,923.027,18,female
18,bc,5,83,ll,ll,TRUE,880.8209999999999,18,female
18,bc,5,84,ll,lh,FALSE,2341.591,18,female
18,bc,5,85,ll,lh,FALSE,1331.241,18,female
18,bc,5,86,lh,ll,FALSE,1158.9389999999999,18,female
18,bc,5,87,ll,ll,TRUE,891.242,18,female
18,bc,5,88,ll,hl,FALSE,1919.534,18,female
18,bc,5,89,lh,ll,FALSE,1304.696,18,female
18,bc,5,90,ll,ll,TRUE,1014.8320000000001,18,female
18,bc,5,91,hl,ll,FALSE,808.816,18,female
18,bc,5,92,ll,ll,TRUE,989.191,18,female
18,bc,5,93,hl,lh,FALSE,3271.673,18,female
18,bc,5,94,hh,lh,FALSE,4638.481,18,female
18,bc,5,95,lh,ll,FALSE,1313.143,18,female
18,bc,5,96,ll,ll,TRUE,868.653,18,female
18,bc,5,97,hh,hl,FALSE,6460.042,18,female
18,bc,5,98,hh,hl,FALSE,4853.246,18,female
18,bc,5,99,hh,ll,FALSE,1846.2440000000001,18,female
18,bc,5,100,hh,lh,FALSE,4675.978,18,female
18,bc,5,101,hh,lh,FALSE,3060.933,18,female
18,bc,5,102,hl,ll,FALSE,5665.395,18,female
18,bc,5,103,hh,lh,FALSE,2017.7489999999998,18,female
18,bc,5,104,hh,hl,FALSE,2595.988,18,female
18,bc,5,105,lh,hh,FALSE,5044.12,18,female
18,bc,5,106,lh,hl,FALSE,7622.3279999999995,18,female
18,bc,5,107,hl,ll,FALSE,1350.895,18,female
18,bc,5,108,hl,lh,FALSE,5000.82,18,female
18,bc,5,109,hl,hh,FALSE,1906.688,18,female
18,bc,5,110,hh,hh,TRUE,3382.9170000000004,18,female
18,bc,5,111,hh,lh,FALSE,2419.676,18,female
18,bc,5,112,ll,ll,TRUE,1157.487,18,female
18,bc,5,113,lh,hh,FALSE,9964.235,18,female
18,bc,5,114,ll,ll,TRUE,1066.391,18,female
18,bc,5,115,hh,lh,FALSE,14003.281,18,female
18,bc,5,116,lh,ll,FALSE,3723.7470000000003,18,female
18,bc,5,117,hh,lh,FALSE,5795.179,18,female
18,bc,5,118,lh,ll,FALSE,4095.1099999999997,18,female
18,bc,5,119,ll,ll,TRUE,1948.263,18,female
18,bc,5,120,ll,ll,TRUE,4037.036,18,female
