pID,condition,block_no,trial_no,stimulus,response,correct,rt,age,gender
40,ac,1,1,hh,hl,FALSE,8266.763,18,male
40,ac,1,2,hh,hl,FALSE,2781.228,18,male
40,ac,1,3,hl,ll,FALSE,3679.178,18,male
40,ac,1,4,lh,lh,TRUE,3378.727,18,male
40,ac,1,5,ll,ll,TRUE,3163.0510000000004,18,male
40,ac,1,6,hl,ll,FALSE,3572.585,18,male
40,ac,1,7,hl,lh,FALSE,4140.894,18,male
40,ac,1,8,hl,lh,FALSE,4981.379,18,male
40,ac,1,9,ll,ll,TRUE,2282.539,18,male
40,ac,1,10,hh,hl,FALSE,7736.912,18,male
40,ac,1,11,lh,ll,FALSE,8978.364,18,male
40,ac,1,12,lh,ll,FALSE,3912.3459999999995,18,male
40,ac,1,13,lh,hh,FALSE,1864.83,18,male
40,ac,1,14,lh,ll,FALSE,3657.2889999999998,18,male
40,ac,1,15,hh,hh,TRUE,1909.775,18,male
40,ac,1,16,lh,hh,FALSE,6579.074,18,male
40,ac,1,17,lh,lh,TRUE,4501.476,18,male
40,ac,1,18,lh,hh,FALSE,3830.683,18,male
40,ac,1,19,hh,ll,FALSE,7132.29,18,male
40,ac,1,20,lh,hl,FALSE,11151.32,18,male
40,ac,1,21,hl,ll,FALSE,2417.948,18,male
40,ac,1,22,ll,lh,FALSE,6955.13,18,male
40,ac,1,23,hl,hh,FALSE,5093.471,18,male
40,ac,1,24,ll,lh,FALSE,8324.742,18,male
40,ac,1,25,hl,hl,TRUE,4326.235,18,male
40,ac,1,26,hl,hh,FALSE,2878.428,18,male
40,ac,1,27,ll,ll,TRUE,5940.288,18,male
40,ac,1,28,hl,hl,TRUE,8641.173,18,male
40,ac,1,29,hh,hh,TRUE,5829.434,18,male
40,ac,1,30,hh,lh,FALSE,8790.202,18,male
40,ac,1,31,hh,ll,FALSE,3396.714,18,male
40,ac,1,32,lh,ll,FALSE,4075.116,18,male
40,ac,1,33,hh,lh,FALSE,4996.705,18,male
40,ac,1,34,ll,ll,TRUE,2186.709,18,male
40,ac,1,35,hh,lh,FALSE,3621.133,18,male
40,ac,1,36,lh,ll,FALSE,2523.351,18,male
40,ac,1,37,hh,hh,TRUE,4143.345,18,male
40,ac,1,38,hl,hl,TRUE,2135.031,18,male
40,ac,1,39,hh,hh,TRUE,2115.302,18,male
40,ac,1,40,hl,hl,TRUE,4288.599,18,male
40,ac,1,41,hl,ll,FALSE,3307.0730000000003,18,male
40,ac,1,42,lh,ll,FALSE,5508.353,18,male
40,ac,1,43,lh,ll,FALSE,6493.314,18,male
40,ac,1,44,lh,lh,TRUE,8707.263,18,male
40,ac,1,45,ll,ll,TRUE,11316.424,18,male
40,ac,1,46,hh,hh,TRUE,1800.4099999999999,18,male
40,ac,1,47,hh,hl,FALSE,3370.9889999999996,18,male
40,ac,1,48,hh,ll,FALSE,4131.784,18,male
40,ac,1,49,lh,ll,FALSE,4220.296,18,male
40,ac,1,50,hh,hh,TRUE,2905.541,18,male
40,ac,1,51,ll,hl,FALSE,5950.022,18,male
40,ac,1,52,ll,ll,TRUE,7491.044,18,male
40,ac,1,53,hl,hl,TRUE,13102.674,18,male
40,ac,1,54,ll,ll,TRUE,3023.216,18,male
40,ac,1,55,hl,ll,FALSE,5350.436,18,male
40,ac,1,56,ll,lh,FALSE,5964.205,18,male
40,ac,1,57,lh,lh,TRUE,1295.5439999999999,18,male
40,ac,1,58,hl,hh,FALSE,3040.071,18,male
40,ac,1,59,hl,ll,FALSE,3157.446,18,male
40,ac,1,60,lh,ll,FALSE,1878.5369999999998,18,male
40,ac,1,61,hl,ll,FALSE,2614.285,18,male
40,ac,1,62,hl,hl,TRUE,5605.731,18,male
40,ac,1,63,lh,lh,TRUE,2553.523,18,male
40,ac,1,64,hl,ll,FALSE,10900.343,18,male
40,ac,1,65,ll,lh,FALSE,7146.863,18,male
40,ac,1,66,hl,hh,FALSE,3308.907,18,male
40,ac,1,67,hl,ll,FALSE,5984.108,18,male
40,ac,1,68,hh,hh,TRUE,1996.3980000000001,18,male
40,ac,1,69,hl,hl,TRUE,4572.099,18,male
40,ac,1,70,hl,hh,FALSE,4683.419,18,male
40,ac,1,71,lh,hh,FALSE,3116.0550000000003,18,male
40,ac,1,72,hh,hh,TRUE,3103.5959999999995,18,male
40,ac,1,73,hl,ll,FALSE,2683.917,18,male
40,ac,1,74,ll,lh,FALSE,2544.746,18,male
40,ac,1,75,ll,ll,TRUE,1491.902,18,male
40,ac,1,76,lh,lh,TRUE,1362.868,18,male
40,ac,1,77,ll,lh,FALSE,4119.788,18,male
40,ac,1,78,hh,ll,FALSE,10272.539,18,male
40,ac,1,79,ll,lh,FALSE,2607.923,18,male
40,ac,1,80,ll,ll,TRUE,1704.277,18,male
40,ac,1,81,ll,ll,TRUE,7702.27,18,male
40,ac,1,82,lh,lh,TRUE,7698.037,18,male
40,ac,1,83,ll,lh,FALSE,8701.051,18,male
40,ac,1,84,lh,lh,TRUE,3077.159,18,male
40,ac,1,85,ll,ll,TRUE,1819.344,18,male
40,ac,1,86,ll,ll,TRUE,3517.7879999999996,18,male
40,ac,1,87,hl,hl,TRUE,4144.182,18,male
40,ac,1,88,hl,hh,FALSE,6376.37,18,male
40,ac,1,89,hh,hh,TRUE,2106.685,18,male
40,ac,1,90,hl,ll,FALSE,6159.784,18,male
40,ac,1,91,lh,hl,FALSE,5836.735,18,male
40,ac,1,92,ll,ll,TRUE,3485.4440000000004,18,male
40,ac,1,93,ll,ll,TRUE,12521.179,18,male
40,ac,1,94,hl,ll,FALSE,3154.2870000000003,18,male
40,ac,1,95,lh,hh,FALSE,3804.616,18,male
40,ac,1,96,lh,hh,FALSE,1579.054,18,male
40,ac,1,97,hl,hl,TRUE,1982.402,18,male
40,ac,1,98,ll,lh,FALSE,7217.776,18,male
40,ac,1,99,hl,hh,FALSE,3016.553,18,male
40,ac,1,100,hl,ll,FALSE,7424.325999999999,18,male
40,ac,1,101,ll,ll,TRUE,1278.9389999999999,18,male
40,ac,1,102,hl,hl,TRUE,3951.0600000000004,18,male
40,ac,1,103,lh,lh,TRUE,3760.4210000000003,18,male
40,ac,1,104,hl,hl,TRUE,5432.462,18,male
40,ac,1,105,hh,hl,FALSE,2235.152,18,male
40,ac,1,106,hh,hh,TRUE,8434.369,18,male
40,ac,1,107,ll,ll,TRUE,2735.476,18,male
40,ac,1,108,hh,hh,TRUE,3553.8999999999996,18,male
40,ac,1,109,hh,hl,FALSE,2123.83,18,male
40,ac,1,110,ll,ll,TRUE,10679.44,18,male
40,ac,1,111,hh,hh,TRUE,3638.4790000000003,18,male
40,ac,1,112,hl,hl,TRUE,8700.048,18,male
40,ac,1,113,ll,hl,FALSE,1855.5259999999998,18,male
40,ac,1,114,hh,hh,TRUE,4693.418,18,male
40,ac,1,115,hh,hl,FALSE,1702.083,18,male
40,ac,1,116,lh,hh,FALSE,1444.991,18,male
40,ac,1,117,lh,lh,TRUE,4550.45,18,male
40,ac,1,118,hl,hh,FALSE,8606.258,18,male
40,ac,1,119,hl,hl,TRUE,4044.6310000000003,18,male
40,ac,1,120,ll,lh,FALSE,3062.645,18,male
40,ac,2,1,hh,lh,FALSE,2963.966,18,male
40,ac,2,2,ll,ll,TRUE,2501.412,18,male
40,ac,2,3,ll,lh,FALSE,3091.085,18,male
40,ac,2,4,hl,hh,FALSE,3039.853,18,male
40,ac,2,5,ll,lh,FALSE,5396.412,18,male
40,ac,2,6,hl,ll,FALSE,4464.343,18,male
40,ac,2,7,hl,ll,FALSE,3812.643,18,male
40,ac,2,8,hl,hh,FALSE,5985.256,18,male
40,ac,2,9,hl,hh,FALSE,2036.196,18,male
40,ac,2,10,lh,lh,TRUE,2764.302,18,male
40,ac,2,11,hl,hh,FALSE,9333.532,18,male
40,ac,2,12,lh,lh,TRUE,2876.74,18,male
40,ac,2,13,hl,hl,TRUE,3770.4610000000002,18,male
40,ac,2,14,lh,lh,TRUE,3250.4849999999997,18,male
40,ac,2,15,hl,ll,FALSE,4672.571,18,male
40,ac,2,16,lh,lh,TRUE,2817.344,18,male
40,ac,2,17,ll,ll,TRUE,4001.9170000000004,18,male
40,ac,2,18,hh,hh,TRUE,3055.628,18,male
40,ac,2,19,hh,hh,TRUE,2206.24,18,male
40,ac,2,20,hl,hh,FALSE,2295.441,18,male
40,ac,2,21,ll,ll,TRUE,5964.463,18,male
40,ac,2,22,hh,hh,TRUE,1776.583,18,male
40,ac,2,23,hl,lh,FALSE,9180.753,18,male
40,ac,2,24,hh,hh,TRUE,1913.065,18,male
40,ac,2,25,hh,hh,TRUE,2303.397,18,male
40,ac,2,26,hl,hl,TRUE,1277.8919999999998,18,male
40,ac,2,27,lh,hh,FALSE,1837.7620000000002,18,male
40,ac,2,28,lh,lh,TRUE,5037.443,18,male
40,ac,2,29,ll,ll,TRUE,2903.458,18,male
40,ac,2,30,hl,hh,FALSE,6555.244,18,male
40,ac,2,31,hh,hl,FALSE,2047.1660000000002,18,male
40,ac,2,32,ll,ll,TRUE,3182.224,18,male
40,ac,2,33,ll,ll,TRUE,2392.229,18,male
40,ac,2,34,hl,hl,TRUE,2328.563,18,male
40,ac,2,35,ll,hl,FALSE,7020.754,18,male
40,ac,2,36,hh,hh,TRUE,1380.092,18,male
40,ac,2,37,lh,hl,FALSE,4160.927,18,male
40,ac,2,38,lh,hl,FALSE,1679.569,18,male
40,ac,2,39,hh,ll,FALSE,3496.24,18,male
40,ac,2,40,ll,hh,FALSE,1275.1170000000002,18,male
40,ac,2,41,hl,hl,TRUE,2427.313,18,male
40,ac,2,42,lh,lh,TRUE,1844.4589999999998,18,male
40,ac,2,43,ll,ll,TRUE,2076.063,18,male
40,ac,2,44,lh,lh,TRUE,2569.425,18,male
40,ac,2,45,lh,hh,FALSE,2620.049,18,male
40,ac,2,46,lh,hh,FALSE,1724.234,18,male
40,ac,2,47,lh,hh,FALSE,4585.249,18,male
40,ac,2,48,lh,lh,TRUE,2095.376,18,male
40,ac,2,49,ll,hl,FALSE,3260.629,18,male
40,ac,2,50,hl,hh,FALSE,3618.2439999999997,18,male
40,ac,2,51,hh,hh,TRUE,1112.246,18,male
40,ac,2,52,ll,ll,TRUE,2799.269,18,male
40,ac,2,53,hh,hh,TRUE,1440.1190000000001,18,male
40,ac,2,54,lh,hh,FALSE,1449.6080000000002,18,male
40,ac,2,55,lh,lh,TRUE,1578.908,18,male
40,ac,2,56,ll,ll,TRUE,6493.461,18,male
40,ac,2,57,hh,hh,TRUE,2099.74,18,male
40,ac,2,58,hl,hl,TRUE,4219.098,18,male
40,ac,2,59,hh,hl,FALSE,1727.038,18,male
40,ac,2,60,ll,lh,FALSE,1628.6770000000001,18,male
40,ac,2,61,lh,hh,FALSE,1463.5810000000001,18,male
40,ac,2,62,hh,hh,TRUE,2894.417,18,male
40,ac,2,63,hl,hl,TRUE,4843.679,18,male
40,ac,2,64,hh,hl,FALSE,5781.416,18,male
40,ac,2,65,lh,lh,TRUE,1160.7179999999998,18,male
40,ac,2,66,ll,lh,FALSE,2725.697,18,male
40,ac,2,67,hl,hl,TRUE,1920.982,18,male
40,ac,2,68,lh,ll,FALSE,3732.6040000000003,18,male
40,ac,2,69,lh,lh,TRUE,4192.154,18,male
40,ac,2,70,lh,lh,TRUE,1084.842,18,male
40,ac,2,71,ll,ll,TRUE,2797.427,18,male
40,ac,2,72,lh,hh,FALSE,1694.5810000000001,18,male
40,ac,2,73,lh,hl,FALSE,3404.928,18,male
40,ac,2,74,ll,lh,FALSE,1963.9560000000001,18,male
40,ac,2,75,hl,hl,TRUE,6864.484,18,male
40,ac,2,76,hl,hh,FALSE,2726.141,18,male
40,ac,2,77,ll,lh,FALSE,3449.5950000000003,18,male
40,ac,2,78,hh,ll,FALSE,3734.617,18,male
40,ac,2,79,lh,hh,FALSE,3969.688,18,male
40,ac,2,80,ll,lh,FALSE,2856.776,18,male
40,ac,2,81,hh,ll,FALSE,3174.4660000000003,18,male
40,ac,2,82,lh,lh,TRUE,1334.027,18,male
40,ac,2,83,ll,ll,TRUE,3164.072,18,male
40,ac,2,84,lh,hh,FALSE,2951.556,18,male
40,ac,2,85,hl,hl,TRUE,2007.348,18,male
40,ac,2,86,hh,hl,FALSE,1745.022,18,male
40,ac,2,87,ll,ll,TRUE,2766.608,18,male
40,ac,2,88,hl,hh,FALSE,1441.397,18,male
40,ac,2,89,lh,hl,FALSE,1817.8870000000002,18,male
40,ac,2,90,hl,hl,TRUE,3954.6180000000004,18,male
40,ac,2,91,lh,hh,FALSE,1059.7930000000001,18,male
40,ac,2,92,hh,ll,FALSE,2948.971,18,male
40,ac,2,93,ll,ll,TRUE,3543.3819999999996,18,male
40,ac,2,94,ll,ll,TRUE,3328.2839999999997,18,male
40,ac,2,95,ll,lh,FALSE,2466.897,18,male
40,ac,2,96,hl,hl,TRUE,2208.658,18,male
40,ac,2,97,ll,hl,FALSE,1284.1100000000001,18,male
40,ac,2,98,hl,lh,FALSE,1874.719,18,male
40,ac,2,99,ll,ll,TRUE,7081.912,18,male
40,ac,2,100,ll,ll,TRUE,1671.77,18,male
40,ac,2,101,ll,lh,FALSE,1550.996,18,male
40,ac,2,102,hh,hh,TRUE,2458.628,18,male
40,ac,2,103,hl,hl,TRUE,1208.8919999999998,18,male
40,ac,2,104,hl,hh,FALSE,2094.598,18,male
40,ac,2,105,lh,lh,TRUE,1202.359,18,male
40,ac,2,106,lh,lh,TRUE,3367.6400000000003,18,male
40,ac,2,107,hh,ll,FALSE,6103.8,18,male
40,ac,2,108,lh,lh,TRUE,1100.911,18,male
40,ac,2,109,lh,lh,TRUE,5868.615,18,male
40,ac,2,110,lh,hh,FALSE,2533.84,18,male
40,ac,2,111,lh,ll,FALSE,3529.7079999999996,18,male
40,ac,2,112,lh,hh,FALSE,2323.477,18,male
40,ac,2,113,hh,hh,TRUE,4622.478,18,male
40,ac,2,114,hh,hl,FALSE,2330.63,18,male
40,ac,2,115,lh,lh,TRUE,1094.783,18,male
40,ac,2,116,lh,ll,FALSE,3422.4350000000004,18,male
40,ac,2,117,hh,hh,TRUE,1277.659,18,male
40,ac,2,118,hl,hl,TRUE,2221.325,18,male
40,ac,2,119,hh,hh,TRUE,1077.8649999999998,18,male
40,ac,2,120,hl,hl,TRUE,1389.8180000000002,18,male
40,ac,3,1,hl,hh,FALSE,2373.511,18,male
40,ac,3,2,ll,ll,TRUE,2256.152,18,male
40,ac,3,3,hl,lh,FALSE,4119.166,18,male
40,ac,3,4,ll,lh,FALSE,1226.1709999999998,18,male
40,ac,3,5,ll,ll,TRUE,2306.482,18,male
40,ac,3,6,lh,lh,TRUE,767.0999999999999,18,male
40,ac,3,7,ll,lh,FALSE,1487.281,18,male
40,ac,3,8,hh,hh,TRUE,1060.6819999999998,18,male
40,ac,3,9,lh,hl,FALSE,2375.715,18,male
40,ac,3,10,ll,lh,FALSE,1383.824,18,male
40,ac,3,11,hl,lh,FALSE,1876.6060000000002,18,male
40,ac,3,12,hl,hh,FALSE,2203.4,18,male
40,ac,3,13,ll,ll,TRUE,4991.705,18,male
40,ac,3,14,ll,hl,FALSE,3313.919,18,male
40,ac,3,15,ll,ll,TRUE,11572.855,18,male
40,ac,3,16,lh,ll,FALSE,2957.551,18,male
40,ac,3,17,hl,hh,FALSE,1774.9830000000002,18,male
40,ac,3,18,hl,hl,TRUE,1762.3049999999998,18,male
40,ac,3,19,hl,hl,TRUE,4038.6499999999996,18,male
40,ac,3,20,lh,hh,FALSE,1187.44,18,male
40,ac,3,21,lh,lh,TRUE,1919.9389999999999,18,male
40,ac,3,22,hh,hl,FALSE,3349.6459999999997,18,male
40,ac,3,23,lh,lh,TRUE,1246.004,18,male
40,ac,3,24,hl,lh,FALSE,2679.639,18,male
40,ac,3,25,hl,lh,FALSE,2757.648,18,male
40,ac,3,26,ll,ll,TRUE,3735.7259999999997,18,male
40,ac,3,27,ll,ll,TRUE,2568.538,18,male
40,ac,3,28,hh,lh,FALSE,5380.724,18,male
40,ac,3,29,hh,hh,TRUE,1542.319,18,male
40,ac,3,30,ll,ll,TRUE,2059.78,18,male
40,ac,3,31,lh,hh,FALSE,2338.942,18,male
40,ac,3,32,hh,hl,FALSE,1984.147,18,male
40,ac,3,33,hh,hh,TRUE,2610.488,18,male
40,ac,3,34,hh,hl,FALSE,2993.737,18,male
40,ac,3,35,ll,ll,TRUE,2753.375,18,male
40,ac,3,36,hl,ll,FALSE,11188.378,18,male
40,ac,3,37,lh,hh,FALSE,1093.1680000000001,18,male
40,ac,3,38,hl,hh,FALSE,3692.866,18,male
40,ac,3,39,lh,lh,TRUE,1072.5030000000002,18,male
40,ac,3,40,hl,hh,FALSE,3371.1139999999996,18,male
40,ac,3,41,lh,lh,TRUE,858.887,18,male
40,ac,3,42,ll,ll,TRUE,5354.218,18,male
40,ac,3,43,hl,hl,TRUE,2888.032,18,male
40,ac,3,44,hl,hh,FALSE,4141.39,18,male
40,ac,3,45,ll,ll,TRUE,3390.152,18,male
40,ac,3,46,lh,lh,TRUE,1902.7779999999998,18,male
40,ac,3,47,hh,hh,TRUE,964.223,18,male
40,ac,3,48,lh,hh,FALSE,4153.745,18,male
40,ac,3,49,ll,lh,FALSE,1803.3180000000002,18,male
40,ac,3,50,ll,ll,TRUE,3452.6670000000004,18,male
40,ac,3,51,hh,ll,FALSE,1577.0639999999999,18,male
40,ac,3,52,lh,lh,TRUE,1075.9270000000001,18,male
40,ac,3,53,hl,hl,TRUE,3125.224,18,male
40,ac,3,54,ll,ll,TRUE,5504.396,18,male
40,ac,3,55,lh,lh,TRUE,1839.7350000000001,18,male
40,ac,3,56,ll,hl,FALSE,2112.133,18,male
40,ac,3,57,hh,hh,TRUE,1732.48,18,male
40,ac,3,58,ll,ll,TRUE,1962.4940000000001,18,male
40,ac,3,59,hl,hl,TRUE,4470.54,18,male
40,ac,3,60,ll,ll,TRUE,4610.698,18,male
40,ac,3,61,lh,lh,TRUE,3404.571,18,male
40,ac,3,62,hh,hh,TRUE,1690.9879999999998,18,male
40,ac,3,63,hl,ll,FALSE,2987.775,18,male
40,ac,3,64,hh,hl,FALSE,1580.783,18,male
40,ac,3,65,ll,ll,TRUE,2877.961,18,male
40,ac,3,66,lh,lh,TRUE,3763.5020000000004,18,male
40,ac,3,67,lh,lh,TRUE,2675.885,18,male
40,ac,3,68,ll,ll,TRUE,1736.9140000000002,18,male
40,ac,3,69,ll,hh,FALSE,4389.337,18,male
40,ac,3,70,lh,lh,TRUE,2627.573,18,male
40,ac,3,71,ll,ll,TRUE,2235.243,18,male
40,ac,3,72,lh,lh,TRUE,2723.814,18,male
40,ac,3,73,lh,hl,FALSE,2071.257,18,male
40,ac,3,74,ll,ll,TRUE,4663.209,18,male
40,ac,3,75,ll,ll,TRUE,3145.9170000000004,18,male
40,ac,3,76,hh,hh,TRUE,2137.91,18,male
40,ac,3,77,ll,ll,TRUE,1950.571,18,male
40,ac,3,78,hh,hh,TRUE,4386.817,18,male
40,ac,3,79,hh,ll,FALSE,5482.961,18,male
40,ac,3,80,lh,hh,FALSE,1275.0430000000001,18,male
40,ac,3,81,hh,hl,FALSE,1889.531,18,male
40,ac,3,82,hh,hh,TRUE,1111.1080000000002,18,male
40,ac,3,83,ll,lh,FALSE,8568.101,18,male
40,ac,3,84,lh,lh,TRUE,2077.064,18,male
40,ac,3,85,ll,ll,TRUE,1219.792,18,male
40,ac,3,86,hh,hl,FALSE,2925.339,18,male
40,ac,3,87,hl,hh,FALSE,2571.635,18,male
40,ac,3,88,ll,lh,FALSE,1627.6419999999998,18,male
40,ac,3,89,hl,ll,FALSE,3068.731,18,male
40,ac,3,90,lh,lh,TRUE,1754.991,18,male
40,ac,3,91,hl,hl,TRUE,1455.06,18,male
40,ac,3,92,ll,ll,TRUE,1966.507,18,male
40,ac,3,93,hh,hh,TRUE,1105.9940000000001,18,male
40,ac,3,94,hl,hh,FALSE,1074.1399999999999,18,male
40,ac,3,95,hl,hl,TRUE,1209.549,18,male
40,ac,3,96,lh,lh,TRUE,2405.247,18,male
40,ac,3,97,ll,ll,TRUE,1572.1660000000002,18,male
40,ac,3,98,hl,hh,FALSE,3266.6009999999997,18,male
40,ac,3,99,hl,ll,FALSE,3016.597,18,male
40,ac,3,100,hl,ll,FALSE,3904.0389999999998,18,male
40,ac,3,101,hh,hl,FALSE,2490.249,18,male
40,ac,3,102,hl,hh,FALSE,11399.844,18,male
40,ac,3,103,lh,lh,TRUE,1799.8400000000001,18,male
40,ac,3,104,hh,ll,FALSE,4152.51,18,male
40,ac,3,105,hl,hl,TRUE,3000.325,18,male
40,ac,3,106,ll,ll,TRUE,2296.552,18,male
40,ac,3,107,hl,hh,FALSE,14390.864,18,male
40,ac,3,108,lh,hl,FALSE,1393.5770000000002,18,male
40,ac,3,109,hh,hl,FALSE,1310.7779999999998,18,male
40,ac,3,110,hl,hl,TRUE,4716.017,18,male
40,ac,3,111,ll,ll,TRUE,1540.4479999999999,18,male
40,ac,3,112,lh,ll,FALSE,2474.403,18,male
40,ac,3,113,hh,hh,TRUE,967.0899999999999,18,male
40,ac,3,114,hh,hh,TRUE,988.241,18,male
40,ac,3,115,hh,hh,TRUE,920.079,18,male
40,ac,3,116,lh,lh,TRUE,2511.014,18,male
40,ac,3,117,ll,ll,TRUE,1715.3690000000001,18,male
40,ac,3,118,hh,ll,FALSE,3402.254,18,male
40,ac,3,119,hl,hh,FALSE,4473.116,18,male
40,ac,3,120,lh,lh,TRUE,3403.2160000000003,18,male
40,ac,4,1,lh,lh,TRUE,2993.121,18,male
40,ac,4,2,lh,lh,TRUE,994.377,18,male
40,ac,4,3,hh,hh,TRUE,1543.281,18,male
40,ac,4,4,lh,ll,FALSE,1930.188,18,male
40,ac,4,5,lh,lh,TRUE,1056.4679999999998,18,male
40,ac,4,6,hl,hh,FALSE,1848.563,18,male
40,ac,4,7,hl,hl,TRUE,2720.436,18,male
40,ac,4,8,ll,hl,FALSE,3751.3810000000003,18,male
40,ac,4,9,hh,hh,TRUE,2414.236,18,male
40,ac,4,10,hh,hh,TRUE,950.508,18,male
40,ac,4,11,hh,hh,TRUE,847.796,18,male
40,ac,4,12,lh,lh,TRUE,871.0640000000001,18,male
40,ac,4,13,ll,ll,TRUE,1336.906,18,male
40,ac,4,14,ll,ll,TRUE,1612.891,18,male
40,ac,4,15,hl,lh,FALSE,2751.521,18,male
40,ac,4,16,hh,hh,TRUE,978.462,18,male
40,ac,4,17,lh,lh,TRUE,4033.349,18,male
40,ac,4,18,ll,ll,TRUE,1523.85,18,male
40,ac,4,19,hl,ll,FALSE,3345.6049999999996,18,male
40,ac,4,20,hh,lh,FALSE,2604.435,18,male
40,ac,4,21,ll,lh,FALSE,2244.421,18,male
40,ac,4,22,hl,hl,TRUE,3292.553,18,male
40,ac,4,23,lh,hh,FALSE,1127.7469999999998,18,male
40,ac,4,24,hh,hh,TRUE,2726.608,18,male
40,ac,4,25,lh,lh,TRUE,3010.854,18,male
40,ac,4,26,lh,lh,TRUE,2608.508,18,male
40,ac,4,27,lh,lh,TRUE,2312.58,18,male
40,ac,4,28,hl,ll,FALSE,3440.1809999999996,18,male
40,ac,4,29,lh,hl,FALSE,1402.446,18,male
40,ac,4,30,ll,ll,TRUE,3269.077,18,male
40,ac,4,31,hh,hh,TRUE,1090.5729999999999,18,male
40,ac,4,32,lh,lh,TRUE,1364.4389999999999,18,male
40,ac,4,33,hh,hh,TRUE,2448.529,18,male
40,ac,4,34,lh,hh,FALSE,2031.1950000000002,18,male
40,ac,4,35,ll,ll,TRUE,1991.5529999999999,18,male
40,ac,4,36,lh,lh,TRUE,4017.035,18,male
40,ac,4,37,hh,lh,FALSE,3017.308,18,male
40,ac,4,38,ll,ll,TRUE,1565.8850000000002,18,male
40,ac,4,39,hl,hl,TRUE,2627.784,18,male
40,ac,4,40,ll,lh,FALSE,3506.777,18,male
40,ac,4,41,lh,lh,TRUE,1304.105,18,male
40,ac,4,42,lh,hl,FALSE,4118.407,18,male
40,ac,4,43,lh,lh,TRUE,1662.973,18,male
40,ac,4,44,lh,lh,TRUE,1663.3890000000001,18,male
40,ac,4,45,hh,lh,FALSE,6733.909,18,male
40,ac,4,46,hl,hl,TRUE,1960.9540000000002,18,male
40,ac,4,47,hl,hl,TRUE,2590.219,18,male
40,ac,4,48,hl,ll,FALSE,3041.208,18,male
40,ac,4,49,lh,ll,FALSE,1694.4409999999998,18,male
40,ac,4,50,hl,lh,FALSE,3482.9269999999997,18,male
40,ac,4,51,lh,ll,FALSE,2743.656,18,male
40,ac,4,52,hh,hh,TRUE,5346.839,18,male
40,ac,4,53,hl,lh,FALSE,1833.0549999999998,18,male
40,ac,4,54,ll,hl,FALSE,2624.62,18,male
40,ac,4,55,hh,ll,FALSE,3600.557,18,male
40,ac,4,56,hl,hh,FALSE,2528.428,18,male
40,ac,4,57,lh,lh,TRUE,1122.799,18,male
40,ac,4,58,hh,hh,TRUE,8057.861999999999,18,male
40,ac,4,59,lh,lh,TRUE,2161.622,18,male
40,ac,4,60,hh,hh,TRUE,1169.6280000000002,18,male
40,ac,4,61,hl,ll,FALSE,2156.184,18,male
40,ac,4,62,lh,hh,FALSE,2242.373,18,male
40,ac,4,63,hh,hh,TRUE,1538.5520000000001,18,male
40,ac,4,64,hh,hl,FALSE,3348.865,18,male
40,ac,4,65,hh,hh,TRUE,1238.1770000000001,18,male
40,ac,4,66,hl,lh,FALSE,3082.616,18,male
40,ac,4,67,hl,hl,TRUE,1662.344,18,male
40,ac,4,68,hl,lh,FALSE,4821.365,18,male
40,ac,4,69,ll,ll,TRUE,2641.14,18,male
40,ac,4,70,hh,hh,TRUE,1642.3690000000001,18,male
40,ac,4,71,hl,hh,FALSE,5240.339,18,male
40,ac,4,72,lh,hl,FALSE,3918.46,18,male
40,ac,4,73,ll,lh,FALSE,2125.886,18,male
40,ac,4,74,hl,hh,FALSE,2137.289,18,male
40,ac,4,75,hl,ll,FALSE,3229.965,18,male
40,ac,4,76,hl,hl,TRUE,1910.116,18,male
40,ac,4,77,ll,hl,FALSE,7308.852999999999,18,male
40,ac,4,78,lh,lh,TRUE,1926.0770000000002,18,male
40,ac,4,79,lh,lh,TRUE,2243.467,18,male
40,ac,4,80,lh,lh,TRUE,6250.408,18,male
40,ac,4,81,hl,hh,FALSE,1778.8670000000002,18,male
40,ac,4,82,hl,hh,FALSE,3229.5550000000003,18,male
40,ac,4,83,ll,lh,FALSE,3814.121,18,male
40,ac,4,84,ll,ll,TRUE,4643.418,18,male
40,ac,4,85,lh,hl,FALSE,3549.575,18,male
40,ac,4,86,hh,hl,FALSE,1566.143,18,male
40,ac,4,87,hl,ll,FALSE,3274.3940000000002,18,male
40,ac,4,88,hh,hl,FALSE,1568.509,18,male
40,ac,4,89,ll,ll,TRUE,4292.295,18,male
40,ac,4,90,hh,hh,TRUE,932.113,18,male
40,ac,4,91,ll,hl,FALSE,2764.322,18,male
40,ac,4,92,lh,hh,FALSE,2182.404,18,male
40,ac,4,93,hh,hh,TRUE,744.3030000000001,18,male
40,ac,4,94,hh,hh,TRUE,767.028,18,male
40,ac,4,95,lh,ll,FALSE,1780.8470000000002,18,male
40,ac,4,96,lh,hh,FALSE,1408.038,18,male
40,ac,4,97,hh,hl,FALSE,3207.0649999999996,18,male
40,ac,4,98,ll,ll,TRUE,3236.576,18,male
40,ac,4,99,hh,hl,FALSE,1448.348,18,male
40,ac,4,100,hh,hh,TRUE,1429.7869999999998,18,male
40,ac,4,101,ll,ll,TRUE,1587.4279999999999,18,male
40,ac,4,102,lh,lh,TRUE,1021.0360000000001,18,male
40,ac,4,103,hh,ll,FALSE,4528.773,18,male
40,ac,4,104,ll,lh,FALSE,1153.9050000000002,18,male
40,ac,4,105,lh,lh,TRUE,975.6020000000001,18,male
40,ac,4,106,lh,lh,TRUE,1834.42,18,male
40,ac,4,107,ll,ll,TRUE,3100.6800000000003,18,male
40,ac,4,108,lh,ll,FALSE,1631.5100000000002,18,male
40,ac,4,109,ll,ll,TRUE,2081.76,18,male
40,ac,4,110,hl,hl,TRUE,4023.8590000000004,18,male
40,ac,4,111,ll,ll,TRUE,1725.547,18,male
40,ac,4,112,hh,hh,TRUE,2443.922,18,male
40,ac,4,113,hl,lh,FALSE,3499.8999999999996,18,male
40,ac,4,114,hh,hh,TRUE,2166.048,18,male
40,ac,4,115,hh,hh,TRUE,4251.433,18,male
40,ac,4,116,hh,hh,TRUE,1508.2310000000002,18,male
40,ac,4,117,ll,ll,TRUE,2794.547,18,male
40,ac,4,118,hh,hh,TRUE,1435.3690000000001,18,male
40,ac,4,119,hh,hh,TRUE,1037.471,18,male
40,ac,4,120,ll,lh,FALSE,1871.33,18,male
40,ac,5,1,ll,ll,TRUE,2263.09,18,male
40,ac,5,2,hh,hl,FALSE,1446.5410000000002,18,male
40,ac,5,3,hl,hl,TRUE,2367.074,18,male
40,ac,5,4,hl,ll,FALSE,2173.122,18,male
40,ac,5,5,hh,hh,TRUE,1022.444,18,male
40,ac,5,6,lh,lh,TRUE,2631.232,18,male
40,ac,5,7,hh,hh,TRUE,961.5640000000001,18,male
40,ac,5,8,lh,hl,FALSE,3092.243,18,male
40,ac,5,9,ll,hh,FALSE,2032.732,18,male
40,ac,5,10,hl,lh,FALSE,4090.8379999999997,18,male
40,ac,5,11,hl,hh,FALSE,2331.578,18,male
40,ac,5,12,ll,ll,TRUE,3609.2749999999996,18,male
40,ac,5,13,hh,hh,TRUE,3174.2,18,male
40,ac,5,14,hh,ll,FALSE,3630.384,18,male
40,ac,5,15,ll,lh,FALSE,5212.367,18,male
40,ac,5,16,hh,hh,TRUE,1273.4789999999998,18,male
40,ac,5,17,hh,hh,TRUE,777.4190000000001,18,male
40,ac,5,18,ll,ll,TRUE,3117.5969999999998,18,male
40,ac,5,19,hl,hh,FALSE,3168.697,18,male
40,ac,5,20,ll,ll,TRUE,10137.525,18,male
40,ac,5,21,ll,lh,FALSE,4089.0550000000003,18,male
40,ac,5,22,hh,hh,TRUE,1009.278,18,male
40,ac,5,23,hh,hh,TRUE,1940.969,18,male
40,ac,5,24,ll,ll,TRUE,3384.8990000000003,18,male
40,ac,5,25,hh,hh,TRUE,2641.36,18,male
40,ac,5,26,lh,ll,FALSE,1609.1689999999999,18,male
40,ac,5,27,lh,hh,FALSE,1138.4450000000002,18,male
40,ac,5,28,hl,hl,TRUE,2362.467,18,male
40,ac,5,29,hh,ll,FALSE,1813.755,18,male
40,ac,5,30,hl,ll,FALSE,3070.626,18,male
40,ac,5,31,ll,lh,FALSE,1698.7579999999998,18,male
40,ac,5,32,hh,hh,TRUE,889.2539999999999,18,male
40,ac,5,33,hl,hl,TRUE,1954.931,18,male
40,ac,5,34,hl,ll,FALSE,2300.13,18,male
40,ac,5,35,hl,ll,FALSE,4705.984,18,male
40,ac,5,36,hh,hh,TRUE,941.0519999999999,18,male
40,ac,5,37,ll,lh,FALSE,1417.2910000000002,18,male
40,ac,5,38,lh,hl,FALSE,1597.373,18,male
40,ac,5,39,hl,ll,FALSE,4825.282,18,male
40,ac,5,40,lh,hh,FALSE,1188.976,18,male
40,ac,5,41,ll,ll,TRUE,3287.129,18,male
40,ac,5,42,hh,hh,TRUE,1038.34,18,male
40,ac,5,43,ll,ll,TRUE,5927.127,18,male
40,ac,5,44,hh,hh,TRUE,794.6099999999999,18,male
40,ac,5,45,lh,ll,FALSE,2328.051,18,male
40,ac,5,46,ll,ll,TRUE,1813.161,18,male
40,ac,5,47,ll,ll,TRUE,3301.589,18,male
40,ac,5,48,hl,lh,FALSE,3585.6229999999996,18,male
40,ac,5,49,hl,ll,FALSE,3185.4530000000004,18,male
40,ac,5,50,hh,hh,TRUE,1996.4609999999998,18,male
40,ac,5,51,hh,hh,TRUE,979.703,18,male
40,ac,5,52,hh,hl,FALSE,1521.826,18,male
40,ac,5,53,lh,lh,TRUE,989.2080000000001,18,male
40,ac,5,54,ll,ll,TRUE,5033.704,18,male
40,ac,5,55,hh,hl,FALSE,1462.507,18,male
40,ac,5,56,ll,hh,FALSE,2621.85,18,male
40,ac,5,57,hl,lh,FALSE,1059.431,18,male
40,ac,5,58,ll,ll,TRUE,2360.785,18,male
40,ac,5,59,hl,lh,FALSE,3641.5730000000003,18,male
40,ac,5,60,hh,hh,TRUE,714.2349999999999,18,male
40,ac,5,61,lh,hl,FALSE,7528.030000000001,18,male
40,ac,5,62,ll,lh,FALSE,954.5350000000001,18,male
40,ac,5,63,lh,hh,FALSE,968.319,18,male
40,ac,5,64,ll,lh,FALSE,1226.6689999999999,18,male
40,ac,5,65,hh,ll,FALSE,2029.462,18,male
40,ac,5,66,ll,lh,FALSE,2238.209,18,male
40,ac,5,67,ll,ll,TRUE,1039.678,18,male
40,ac,5,68,lh,hh,FALSE,855.268,18,male
40,ac,5,69,ll,lh,FALSE,1459.569,18,male
40,ac,5,70,hl,ll,FALSE,1323.9810000000002,18,male
40,ac,5,71,hh,hl,FALSE,2383.513,18,male
40,ac,5,72,hh,hh,TRUE,1201.7240000000002,18,male
40,ac,5,73,ll,ll,TRUE,1241.413,18,male
40,ac,5,74,ll,ll,TRUE,1135.784,18,male
40,ac,5,75,hl,lh,FALSE,1420.5810000000001,18,male
40,ac,5,76,hl,ll,FALSE,2759.785,18,male
40,ac,5,77,hh,hl,FALSE,2744.915,18,male
40,ac,5,78,hh,hh,TRUE,1796.1329999999998,18,male
40,ac,5,79,lh,lh,TRUE,1045.568,18,male
40,ac,5,80,hh,hh,TRUE,4384.64,18,male
40,ac,5,81,hl,hh,FALSE,4469.398,18,male
40,ac,5,82,hl,hh,FALSE,1224.475,18,male
40,ac,5,83,hh,hl,FALSE,3234.4089999999997,18,male
40,ac,5,84,ll,ll,TRUE,4057.3370000000004,18,male
40,ac,5,85,lh,lh,TRUE,823.2570000000001,18,male
40,ac,5,86,hl,ll,FALSE,1674.1660000000002,18,male
40,ac,5,87,hl,ll,FALSE,2633.142,18,male
40,ac,5,88,ll,ll,TRUE,4624.68,18,male
40,ac,5,89,lh,ll,FALSE,2523.748,18,male
40,ac,5,90,hl,hh,FALSE,3503.272,18,male
40,ac,5,91,hl,hl,TRUE,2019.384,18,male
40,ac,5,92,hl,hl,TRUE,2613.224,18,male
40,ac,5,93,lh,lh,TRUE,1076.6080000000002,18,male
40,ac,5,94,hl,lh,FALSE,1823.3829999999998,18,male
40,ac,5,95,hl,hh,FALSE,3393.032,18,male
40,ac,5,96,hl,hl,TRUE,1122.966,18,male
40,ac,5,97,lh,lh,TRUE,701.377,18,male
40,ac,5,98,hl,lh,FALSE,1874.467,18,male
40,ac,5,99,hh,hh,TRUE,706.7270000000001,18,male
40,ac,5,100,hh,hl,FALSE,1615.5349999999999,18,male
40,ac,5,101,hh,hl,FALSE,2149.648,18,male
40,ac,5,102,ll,lh,FALSE,1930.6480000000001,18,male
40,ac,5,103,hh,hl,FALSE,2234.083,18,male
40,ac,5,104,lh,hh,FALSE,960.22,18,male
40,ac,5,105,lh,lh,TRUE,964.828,18,male
40,ac,5,106,hh,hh,TRUE,3465.9530000000004,18,male
40,ac,5,107,hh,hl,FALSE,4622.269,18,male
40,ac,5,108,ll,ll,TRUE,1572.4789999999998,18,male
40,ac,5,109,lh,lh,TRUE,2718.684,18,male
40,ac,5,110,ll,lh,FALSE,1194.873,18,male
40,ac,5,111,ll,ll,TRUE,1573.8449999999998,18,male
40,ac,5,112,ll,ll,TRUE,2731.277,18,male
40,ac,5,113,ll,ll,TRUE,912.463,18,male
40,ac,5,114,hh,hh,TRUE,1013.815,18,male
40,ac,5,115,hh,hl,FALSE,1705.4,18,male
40,ac,5,116,hh,hh,TRUE,901.7909999999999,18,male
40,ac,5,117,hh,hh,TRUE,8494.591,18,male
40,ac,5,118,lh,lh,TRUE,865.2660000000001,18,male
40,ac,5,119,hh,hl,FALSE,1508.739,18,male
40,ac,5,120,lh,lh,TRUE,2752.655,18,male
