pID,condition,block_no,trial_no,stimulus,response,correct,rt,age,gender
67,ac,1,1,lh,lh,TRUE,4774.421,19,male
67,ac,1,2,hh,hh,TRUE,3452.9660000000003,19,male
67,ac,1,3,hh,lh,FALSE,3088.362,19,male
67,ac,1,4,ll,ll,TRUE,1730.7579999999998,19,male
67,ac,1,5,lh,ll,FALSE,2330.241,19,male
67,ac,1,6,lh,lh,TRUE,4189.738,19,male
67,ac,1,7,hl,lh,FALSE,3506.6229999999996,19,male
67,ac,1,8,lh,hh,FALSE,2515.793,19,male
67,ac,1,9,hh,hh,TRUE,1580.071,19,male
67,ac,1,10,hl,hl,TRUE,3996.8140000000003,19,male
67,ac,1,11,hh,hh,TRUE,4154.159,19,male
67,ac,1,12,hh,hh,TRUE,1936.129,19,male
67,ac,1,13,lh,lh,TRUE,4992.487,19,male
67,ac,1,14,ll,lh,FALSE,8886.1,19,male
67,ac,1,15,ll,ll,TRUE,2569.226,19,male
67,ac,1,16,lh,hh,FALSE,12063.934,19,male
67,ac,1,17,ll,ll,TRUE,1686.1999999999998,19,male
67,ac,1,18,hh,hh,TRUE,5903.72,19,male
67,ac,1,19,lh,lh,TRUE,4334.726,19,male
67,ac,1,20,ll,hh,FALSE,8269.218,19,male
67,ac,1,21,lh,ll,FALSE,2010.527,19,male
67,ac,1,22,lh,ll,FALSE,4538.157,19,male
67,ac,1,23,hh,hh,TRUE,2927.774,19,male
67,ac,1,24,hh,hh,TRUE,2682.245,19,male
67,ac,1,25,ll,ll,TRUE,1547.949,19,male
67,ac,1,26,hl,hl,TRUE,5613.386,19,male
67,ac,1,27,ll,ll,TRUE,1319.005,19,male
67,ac,1,28,lh,lh,TRUE,6673.552,19,male
67,ac,1,29,hh,hh,TRUE,2529.108,19,male
67,ac,1,30,hl,lh,FALSE,3531.5959999999995,19,male
67,ac,1,31,hl,ll,FALSE,6636.216,19,male
67,ac,1,32,lh,lh,TRUE,4827.904,19,male
67,ac,1,33,hh,hh,TRUE,2631.795,19,male
67,ac,1,34,hl,ll,FALSE,3355.5780000000004,19,male
67,ac,1,35,ll,ll,TRUE,4946.349,19,male
67,ac,1,36,hh,hh,TRUE,7913.876,19,male
67,ac,1,37,hl,hl,TRUE,14949.211,19,male
67,ac,1,38,hl,hh,FALSE,1586.5680000000002,19,male
67,ac,1,39,lh,hh,FALSE,2240.696,19,male
67,ac,1,40,hh,hh,TRUE,1590.3110000000001,19,male
67,ac,1,41,hh,hl,FALSE,6519.682,19,male
67,ac,1,42,lh,ll,FALSE,1435.9,19,male
67,ac,1,43,hl,hl,TRUE,10275.494,19,male
67,ac,1,44,hl,ll,FALSE,3405.3469999999998,19,male
67,ac,1,45,hl,ll,FALSE,10180.485,19,male
67,ac,1,46,hl,hl,TRUE,3347.6139999999996,19,male
67,ac,1,47,hh,hh,TRUE,5083.482,19,male
67,ac,1,48,lh,ll,FALSE,4988.608,19,male
67,ac,1,49,lh,ll,FALSE,2464.664,19,male
67,ac,1,50,hl,hl,TRUE,3419.2870000000003,19,male
67,ac,1,51,hl,hl,TRUE,10481.361,19,male
67,ac,1,52,ll,ll,TRUE,1700.8629999999998,19,male
67,ac,1,53,lh,hh,FALSE,3695.241,19,male
67,ac,1,54,lh,ll,FALSE,2425.504,19,male
67,ac,1,55,hl,hl,TRUE,3894.6090000000004,19,male
67,ac,1,56,hh,lh,FALSE,12360.334,19,male
67,ac,1,57,lh,ll,FALSE,1518.2040000000002,19,male
67,ac,1,58,hl,ll,FALSE,4014.7790000000005,19,male
67,ac,1,59,lh,hh,FALSE,1693.1930000000002,19,male
67,ac,1,60,hh,hh,TRUE,1928.7759999999998,19,male
67,ac,1,61,hl,ll,FALSE,1306.7150000000001,19,male
67,ac,1,62,ll,ll,TRUE,1238.08,19,male
67,ac,1,63,lh,hh,FALSE,1796.107,19,male
67,ac,1,64,ll,hh,FALSE,4939.812,19,male
67,ac,1,65,lh,hh,FALSE,8961.812,19,male
67,ac,1,66,lh,hh,FALSE,1922.6129999999998,19,male
67,ac,1,67,hh,hl,FALSE,5029.228,19,male
67,ac,1,68,hh,hh,TRUE,1414.8829999999998,19,male
67,ac,1,69,hh,hh,TRUE,1165.8310000000001,19,male
67,ac,1,70,ll,hl,FALSE,5983.671,19,male
67,ac,1,71,ll,ll,TRUE,1323.5700000000002,19,male
67,ac,1,72,ll,ll,TRUE,1366.049,19,male
67,ac,1,73,hl,hh,FALSE,1710.408,19,male
67,ac,1,74,ll,ll,TRUE,1895.866,19,male
67,ac,1,75,ll,ll,TRUE,2653.269,19,male
67,ac,1,76,lh,hl,FALSE,5920.591,19,male
67,ac,1,77,ll,ll,TRUE,1196.737,19,male
67,ac,1,78,hh,hl,FALSE,4255.038,19,male
67,ac,1,79,hh,hh,TRUE,2095.706,19,male
67,ac,1,80,hh,hh,TRUE,1452.362,19,male
67,ac,1,81,lh,hh,FALSE,1921.4099999999999,19,male
67,ac,1,82,lh,hh,FALSE,2211.645,19,male
67,ac,1,83,hl,hh,FALSE,2345.912,19,male
67,ac,1,84,hl,hh,FALSE,4090.986,19,male
67,ac,1,85,ll,ll,TRUE,1218.1799999999998,19,male
67,ac,1,86,hl,hl,TRUE,3666.9660000000003,19,male
67,ac,1,87,hh,hh,TRUE,1755.9789999999998,19,male
67,ac,1,88,hl,hl,TRUE,2388.928,19,male
67,ac,1,89,hl,hh,FALSE,2468,19,male
67,ac,1,90,lh,ll,FALSE,1199.6329999999998,19,male
67,ac,1,91,hl,hl,TRUE,2094.645,19,male
67,ac,1,92,lh,ll,FALSE,6953.593,19,male
67,ac,1,93,,,FALSE,14782.478,19,male
67,ac,1,94,hl,hh,FALSE,4805.82,19,male
67,ac,1,95,hh,hh,TRUE,1729.4430000000002,19,male
67,ac,1,96,lh,ll,FALSE,3131.634,19,male
67,ac,1,97,ll,ll,TRUE,1996.411,19,male
67,ac,1,98,ll,ll,TRUE,1130.071,19,male
67,ac,1,99,hl,hh,FALSE,2942.41,19,male
67,ac,1,100,ll,ll,TRUE,1351.255,19,male
67,ac,1,101,hh,hh,TRUE,1390.978,19,male
67,ac,1,102,hh,hh,TRUE,1894.384,19,male
67,ac,1,103,hl,hh,FALSE,6842.531,19,male
67,ac,1,104,hh,hh,TRUE,4003.798,19,male
67,ac,1,105,hl,hh,FALSE,2800.142,19,male
67,ac,1,106,ll,ll,TRUE,4430.531,19,male
67,ac,1,107,ll,ll,TRUE,2233.878,19,male
67,ac,1,108,ll,ll,TRUE,1628.819,19,male
67,ac,1,109,hl,hh,FALSE,2412.768,19,male
67,ac,1,110,hh,hh,TRUE,6360.932,19,male
67,ac,1,111,ll,ll,TRUE,1397.1109999999999,19,male
67,ac,1,112,hl,hl,TRUE,8573.373,19,male
67,ac,1,113,ll,ll,TRUE,8046.445,19,male
67,ac,1,114,ll,ll,TRUE,2438.926,19,male
67,ac,1,115,ll,ll,TRUE,3268.1899999999996,19,male
67,ac,1,116,hh,hh,TRUE,2061.137,19,male
67,ac,1,117,ll,ll,TRUE,2523.787,19,male
67,ac,1,118,hh,hh,TRUE,1540.7930000000001,19,male
67,ac,1,119,hh,hh,TRUE,4326.588,19,male
67,ac,1,120,hh,hh,TRUE,1974.5059999999999,19,male
67,ac,2,1,ll,hh,FALSE,5788.755,19,male
67,ac,2,2,hl,hl,TRUE,5712.31,19,male
67,ac,2,3,hl,hh,FALSE,1607.163,19,male
67,ac,2,4,ll,ll,TRUE,1988.3220000000001,19,male
67,ac,2,5,ll,ll,TRUE,1445.2069999999999,19,male
67,ac,2,6,ll,ll,TRUE,1339.183,19,male
67,ac,2,7,hl,hh,FALSE,1299.4540000000002,19,male
67,ac,2,8,hh,hh,TRUE,1440.321,19,male
67,ac,2,9,ll,ll,TRUE,5046.155,19,male
67,ac,2,10,hl,hh,FALSE,7654.625,19,male
67,ac,2,11,ll,ll,TRUE,1372.726,19,male
67,ac,2,12,lh,hh,FALSE,6487.857,19,male
67,ac,2,13,hl,hl,TRUE,4830.689,19,male
67,ac,2,14,ll,ll,TRUE,1592.2640000000001,19,male
67,ac,2,15,hl,hh,FALSE,1575.083,19,male
67,ac,2,16,ll,ll,TRUE,7242.045,19,male
67,ac,2,17,ll,ll,TRUE,1490.3899999999999,19,male
67,ac,2,18,hl,hh,FALSE,6965.304,19,male
67,ac,2,19,hl,hh,FALSE,2520.951,19,male
67,ac,2,20,ll,hl,FALSE,3777.8590000000004,19,male
67,ac,2,21,hh,hh,TRUE,1655.993,19,male
67,ac,2,22,hh,hh,TRUE,2115.239,19,male
67,ac,2,23,lh,ll,FALSE,2862.569,19,male
67,ac,2,24,hh,lh,FALSE,271.2929999999999,19,male
67,ac,2,25,hl,hl,TRUE,7533.709999999999,19,male
67,ac,2,26,hl,hh,FALSE,1866.1889999999999,19,male
67,ac,2,27,hl,ll,FALSE,1902.1350000000002,19,male
67,ac,2,28,hl,ll,FALSE,1792.8829999999998,19,male
67,ac,2,29,lh,hh,FALSE,2184.128,19,male
67,ac,2,30,lh,ll,FALSE,1519.4,19,male
67,ac,2,31,hl,hl,TRUE,3169.5730000000003,19,male
67,ac,2,32,lh,hh,FALSE,2706.68,19,male
67,ac,2,33,hl,hl,TRUE,2580.913,19,male
67,ac,2,34,hl,ll,FALSE,1307.7849999999999,19,male
67,ac,2,35,lh,ll,FALSE,997.347,19,male
67,ac,2,36,hh,hh,TRUE,1230.1280000000002,19,male
67,ac,2,37,hh,hh,TRUE,1084.2959999999998,19,male
67,ac,2,38,ll,ll,TRUE,2241.088,19,male
67,ac,2,39,hh,hl,FALSE,5334.058,19,male
67,ac,2,40,ll,ll,TRUE,1244.5300000000002,19,male
67,ac,2,41,hh,hh,TRUE,7562.831,19,male
67,ac,2,42,hl,ll,FALSE,1205.7399999999998,19,male
67,ac,2,43,hl,hl,TRUE,5188.992,19,male
67,ac,2,44,ll,ll,TRUE,944.8699999999999,19,male
67,ac,2,45,hh,hh,TRUE,1339.7649999999999,19,male
67,ac,2,46,hh,hh,TRUE,2052.312,19,male
67,ac,2,47,hl,hl,TRUE,5855.335,19,male
67,ac,2,48,lh,ll,FALSE,1600.1619999999998,19,male
67,ac,2,49,hl,hh,FALSE,1713.522,19,male
67,ac,2,50,hl,hl,TRUE,3628.492,19,male
67,ac,2,51,ll,ll,TRUE,1401.853,19,male
67,ac,2,52,ll,ll,TRUE,2256.13,19,male
67,ac,2,53,hl,hh,FALSE,4468.176,19,male
67,ac,2,54,ll,ll,TRUE,1180.6129999999998,19,male
67,ac,2,55,lh,lh,TRUE,7854.614,19,male
67,ac,2,56,ll,ll,TRUE,1292.321,19,male
67,ac,2,57,hl,hh,FALSE,1976.4940000000001,19,male
67,ac,2,58,ll,lh,FALSE,3864.3050000000003,19,male
67,ac,2,59,hh,ll,FALSE,6699.563,19,male
67,ac,2,60,hh,hh,TRUE,1623.7060000000001,19,male
67,ac,2,61,ll,ll,TRUE,1079.886,19,male
67,ac,2,62,hh,hh,TRUE,1306.922,19,male
67,ac,2,63,hh,hh,TRUE,2247.38,19,male
67,ac,2,64,hh,hh,TRUE,5868.748,19,male
67,ac,2,65,,,FALSE,14782.584,19,male
67,ac,2,66,ll,ll,TRUE,1046.872,19,male
67,ac,2,67,lh,hh,FALSE,1083.7820000000002,19,male
67,ac,2,68,hh,hh,TRUE,1680.069,19,male
67,ac,2,69,hl,hl,TRUE,4316.849,19,male
67,ac,2,70,ll,ll,TRUE,4120.102,19,male
67,ac,2,71,lh,hh,FALSE,3124.0550000000003,19,male
67,ac,2,72,ll,ll,TRUE,1477.641,19,male
67,ac,2,73,hh,hh,TRUE,1897.239,19,male
67,ac,2,74,ll,ll,TRUE,3308.9669999999996,19,male
67,ac,2,75,lh,ll,FALSE,1317.9140000000002,19,male
67,ac,2,76,ll,hh,FALSE,5758.735,19,male
67,ac,2,77,lh,hh,FALSE,1829.7089999999998,19,male
67,ac,2,78,ll,ll,TRUE,1131.4299999999998,19,male
67,ac,2,79,lh,ll,FALSE,1597.569,19,male
67,ac,2,80,hh,lh,FALSE,3721.2200000000003,19,male
67,ac,2,81,lh,hh,FALSE,5412.847,19,male
67,ac,2,82,hh,hh,TRUE,1797.437,19,male
67,ac,2,83,hl,ll,FALSE,4557.281,19,male
67,ac,2,84,lh,hh,FALSE,2517.621,19,male
67,ac,2,85,hl,hl,TRUE,3614.682,19,male
67,ac,2,86,hh,hh,TRUE,1323.654,19,male
67,ac,2,87,lh,hh,FALSE,1603.9560000000001,19,male
67,ac,2,88,ll,lh,FALSE,10853.254,19,male
67,ac,2,89,hh,hh,TRUE,1625.643,19,male
67,ac,2,90,ll,hl,FALSE,10344.193,19,male
67,ac,2,91,lh,hh,FALSE,5039.643,19,male
67,ac,2,92,lh,hh,FALSE,1555.1309999999999,19,male
67,ac,2,93,lh,ll,FALSE,5076.655,19,male
67,ac,2,94,hl,ll,FALSE,980.9949999999999,19,male
67,ac,2,95,hl,hh,FALSE,1292.909,19,male
67,ac,2,96,hl,hh,FALSE,1448.324,19,male
67,ac,2,97,ll,ll,TRUE,1309.761,19,male
67,ac,2,98,hl,hh,FALSE,2057.099,19,male
67,ac,2,99,hl,hl,TRUE,3075.417,19,male
67,ac,2,100,hl,hl,TRUE,2648.259,19,male
67,ac,2,101,ll,ll,TRUE,2089.268,19,male
67,ac,2,102,lh,hh,FALSE,1367.2510000000002,19,male
67,ac,2,103,ll,ll,TRUE,1660.7109999999998,19,male
67,ac,2,104,hl,hh,FALSE,1964.8739999999998,19,male
67,ac,2,105,lh,hh,FALSE,1672.4450000000002,19,male
67,ac,2,106,hl,hl,TRUE,3289.2039999999997,19,male
67,ac,2,107,ll,lh,FALSE,7619.0509999999995,19,male
67,ac,2,108,hl,hl,TRUE,6380.249,19,male
67,ac,2,109,hl,hh,FALSE,1831.5189999999998,19,male
67,ac,2,110,lh,hh,FALSE,2073.846,19,male
67,ac,2,111,hh,hh,TRUE,1816.819,19,male
67,ac,2,112,hh,hh,TRUE,1390.886,19,male
67,ac,2,113,lh,lh,TRUE,3926.63,19,male
67,ac,2,114,lh,ll,FALSE,3798.4660000000003,19,male
67,ac,2,115,lh,hh,FALSE,1772.3359999999998,19,male
67,ac,2,116,hh,hh,TRUE,1505.9099999999999,19,male
67,ac,2,117,ll,ll,TRUE,1221.786,19,male
67,ac,2,118,lh,lh,TRUE,5286.254,19,male
67,ac,2,119,lh,lh,TRUE,3630.04,19,male
67,ac,2,120,lh,lh,TRUE,4202.583,19,male
67,ac,3,1,lh,hh,FALSE,4288.707,19,male
67,ac,3,2,ll,ll,TRUE,1041.676,19,male
67,ac,3,3,lh,ll,FALSE,1176.342,19,male
67,ac,3,4,hh,ll,FALSE,1596.045,19,male
67,ac,3,5,hh,hh,TRUE,1147.2199999999998,19,male
67,ac,3,6,ll,ll,TRUE,1228.2199999999998,19,male
67,ac,3,7,lh,hh,FALSE,1339.4360000000001,19,male
67,ac,3,8,ll,ll,TRUE,1109.214,19,male
67,ac,3,9,ll,ll,TRUE,1097.31,19,male
67,ac,3,10,ll,ll,TRUE,4587.94,19,male
67,ac,3,11,ll,hh,FALSE,2784.86,19,male
67,ac,3,12,hl,ll,FALSE,1135.324,19,male
67,ac,3,13,lh,hh,FALSE,2046.6280000000002,19,male
67,ac,3,14,lh,hh,FALSE,974.837,19,male
67,ac,3,15,hh,hh,TRUE,2100.853,19,male
67,ac,3,16,hl,ll,FALSE,1087.214,19,male
67,ac,3,17,lh,hh,FALSE,2277.835,19,male
67,ac,3,18,ll,ll,TRUE,1350.7559999999999,19,male
67,ac,3,19,ll,ll,TRUE,1155.4389999999999,19,male
67,ac,3,20,lh,ll,FALSE,5427.976,19,male
67,ac,3,21,lh,lh,TRUE,2534.903,19,male
67,ac,3,22,lh,hh,FALSE,1359.7199999999998,19,male
67,ac,3,23,ll,lh,FALSE,4502.199,19,male
67,ac,3,24,ll,ll,TRUE,2368.243,19,male
67,ac,3,25,hl,hl,TRUE,3900.6769999999997,19,male
67,ac,3,26,ll,ll,TRUE,5964.571,19,male
67,ac,3,27,lh,ll,FALSE,5275.221,19,male
67,ac,3,28,lh,lh,TRUE,7014.042,19,male
67,ac,3,29,lh,lh,TRUE,3288.0330000000004,19,male
67,ac,3,30,hh,hh,TRUE,2065.579,19,male
67,ac,3,31,ll,ll,TRUE,2061.265,19,male
67,ac,3,32,hl,hh,FALSE,3002.239,19,male
67,ac,3,33,hl,hl,TRUE,2863.12,19,male
67,ac,3,34,lh,hh,FALSE,2331.127,19,male
67,ac,3,35,hl,ll,FALSE,1180.7730000000001,19,male
67,ac,3,36,hl,hl,TRUE,3788.465,19,male
67,ac,3,37,hh,hh,TRUE,1425.953,19,male
67,ac,3,38,hh,hh,TRUE,1304.5459999999998,19,male
67,ac,3,39,hh,hh,TRUE,1348.0120000000002,19,male
67,ac,3,40,lh,ll,FALSE,3228.9179999999997,19,male
67,ac,3,41,hh,hh,TRUE,2121.763,19,male
67,ac,3,42,hh,hh,TRUE,1699.612,19,male
67,ac,3,43,lh,hh,FALSE,1662.4140000000002,19,male
67,ac,3,44,hh,hh,TRUE,1531.768,19,male
67,ac,3,45,hl,hl,TRUE,4220.983,19,male
67,ac,3,46,hl,hl,TRUE,1869.6309999999999,19,male
67,ac,3,47,ll,ll,TRUE,1236.632,19,male
67,ac,3,48,hl,hh,FALSE,3955.1540000000005,19,male
67,ac,3,49,lh,ll,FALSE,1265.522,19,male
67,ac,3,50,ll,ll,TRUE,4603.175,19,male
67,ac,3,51,hh,hh,TRUE,2514.564,19,male
67,ac,3,52,lh,hh,FALSE,2620.541,19,male
67,ac,3,53,hl,hh,FALSE,2735.548,19,male
67,ac,3,54,lh,ll,FALSE,1087.409,19,male
67,ac,3,55,hh,hh,TRUE,2547.255,19,male
67,ac,3,56,hh,hh,TRUE,1966.8870000000002,19,male
67,ac,3,57,lh,lh,TRUE,3822.718,19,male
67,ac,3,58,hl,lh,FALSE,2323.181,19,male
67,ac,3,59,hl,hh,FALSE,4932.675,19,male
67,ac,3,60,hh,hh,TRUE,1143.866,19,male
67,ac,3,61,hh,hh,TRUE,1419.924,19,male
67,ac,3,62,lh,lh,TRUE,3011.926,19,male
67,ac,3,63,hl,hl,TRUE,6249.178,19,male
67,ac,3,64,hl,hh,FALSE,2954.484,19,male
67,ac,3,65,lh,ll,FALSE,1377.444,19,male
67,ac,3,66,hh,hh,TRUE,1002.309,19,male
67,ac,3,67,lh,ll,FALSE,1969.659,19,male
67,ac,3,68,hl,hh,FALSE,2190.675,19,male
67,ac,3,69,hl,ll,FALSE,1001.19,19,male
67,ac,3,70,ll,ll,TRUE,1631.998,19,male
67,ac,3,71,hl,hh,FALSE,4125.329,19,male
67,ac,3,72,hh,hh,TRUE,1333.6309999999999,19,male
67,ac,3,73,lh,lh,TRUE,14606.5,19,male
67,ac,3,74,hl,hh,FALSE,1354.487,19,male
67,ac,3,75,hl,hh,FALSE,2179.785,19,male
67,ac,3,76,ll,ll,TRUE,1047.856,19,male
67,ac,3,77,hl,hh,FALSE,1196.819,19,male
67,ac,3,78,hl,hh,FALSE,1709.399,19,male
67,ac,3,79,hl,lh,FALSE,4328.229,19,male
67,ac,3,80,hl,ll,FALSE,2759.886,19,male
67,ac,3,81,hl,hl,TRUE,3191.679,19,male
67,ac,3,82,hh,hh,TRUE,1765.732,19,male
67,ac,3,83,lh,ll,FALSE,1149.487,19,male
67,ac,3,84,ll,ll,TRUE,1183.252,19,male
67,ac,3,85,hh,hh,TRUE,2066.732,19,male
67,ac,3,86,hh,hh,TRUE,1838.975,19,male
67,ac,3,87,ll,ll,TRUE,1699.792,19,male
67,ac,3,88,hh,hh,TRUE,1069.9789999999998,19,male
67,ac,3,89,lh,ll,FALSE,3648.2470000000003,19,male
67,ac,3,90,ll,ll,TRUE,1035.906,19,male
67,ac,3,91,ll,ll,TRUE,1026.879,19,male
67,ac,3,92,ll,ll,TRUE,1305.299,19,male
67,ac,3,93,ll,ll,TRUE,1300.0680000000002,19,male
67,ac,3,94,hh,hh,TRUE,2771.121,19,male
67,ac,3,95,hh,hh,TRUE,1490.4009999999998,19,male
67,ac,3,96,hh,hh,TRUE,1365.306,19,male
67,ac,3,97,ll,ll,TRUE,3050.134,19,male
67,ac,3,98,hh,hh,TRUE,1262.576,19,male
67,ac,3,99,lh,hh,FALSE,1804.355,19,male
67,ac,3,100,lh,hh,FALSE,1494.379,19,male
67,ac,3,101,lh,hh,FALSE,1433.9850000000001,19,male
67,ac,3,102,hl,hh,FALSE,5500.019,19,male
67,ac,3,103,hh,hh,TRUE,7483.975,19,male
67,ac,3,104,hl,hl,TRUE,4430.514,19,male
67,ac,3,105,hl,hh,FALSE,2405.929,19,male
67,ac,3,106,hl,hh,FALSE,4103.724,19,male
67,ac,3,107,ll,hh,FALSE,2272.286,19,male
67,ac,3,108,lh,hh,FALSE,1539.8829999999998,19,male
67,ac,3,109,lh,ll,FALSE,945.5930000000001,19,male
67,ac,3,110,hl,ll,FALSE,1612.621,19,male
67,ac,3,111,hh,hh,TRUE,1083.06,19,male
67,ac,3,112,hh,hh,TRUE,1298.779,19,male
67,ac,3,113,hh,hh,TRUE,1119.411,19,male
67,ac,3,114,hl,hh,FALSE,1597.2240000000002,19,male
67,ac,3,115,ll,ll,TRUE,1116.9810000000002,19,male
67,ac,3,116,ll,ll,TRUE,864.3720000000001,19,male
67,ac,3,117,lh,ll,FALSE,2718.076,19,male
67,ac,3,118,lh,ll,FALSE,1181.7489999999998,19,male
67,ac,3,119,lh,ll,FALSE,2460.946,19,male
67,ac,3,120,hh,hh,TRUE,2237.856,19,male
67,ac,4,1,hh,hh,TRUE,2132.242,19,male
67,ac,4,2,hl,ll,FALSE,1577.9409999999998,19,male
67,ac,4,3,ll,ll,TRUE,972.567,19,male
67,ac,4,4,lh,ll,FALSE,881.4860000000001,19,male
67,ac,4,5,lh,ll,FALSE,846.0840000000001,19,male
67,ac,4,6,hl,lh,FALSE,5084.327,19,male
67,ac,4,7,ll,ll,TRUE,2366.238,19,male
67,ac,4,8,hh,hh,TRUE,1261.35,19,male
67,ac,4,9,hl,hh,FALSE,1470.342,19,male
67,ac,4,10,ll,ll,TRUE,1182.6239999999998,19,male
67,ac,4,11,hl,lh,FALSE,4610.639,19,male
67,ac,4,12,hl,hh,FALSE,1575.192,19,male
67,ac,4,13,hh,hh,TRUE,1155.1439999999998,19,male
67,ac,4,14,hh,hh,TRUE,2392.409,19,male
67,ac,4,15,hh,hh,TRUE,1299.9520000000002,19,male
67,ac,4,16,hh,hh,TRUE,2034.375,19,male
67,ac,4,17,hl,hl,TRUE,3789.126,19,male
67,ac,4,18,lh,ll,FALSE,2353.759,19,male
67,ac,4,19,hh,ll,FALSE,4917.456,19,male
67,ac,4,20,ll,ll,TRUE,1132.2179999999998,19,male
67,ac,4,21,hh,hh,TRUE,1087.6019999999999,19,male
67,ac,4,22,lh,ll,FALSE,1920.3980000000001,19,male
67,ac,4,23,lh,ll,FALSE,1280.9229999999998,19,male
67,ac,4,24,ll,ll,TRUE,881.415,19,male
67,ac,4,25,hl,hl,TRUE,6398.102,19,male
67,ac,4,26,lh,hh,FALSE,1640.623,19,male
67,ac,4,27,lh,hh,FALSE,3106.045,19,male
67,ac,4,28,ll,hh,FALSE,1428.185,19,male
67,ac,4,29,lh,hh,FALSE,2718.452,19,male
67,ac,4,30,hh,hh,TRUE,2975.911,19,male
67,ac,4,31,hl,ll,FALSE,4374.225,19,male
67,ac,4,32,hh,hh,TRUE,1889.011,19,male
67,ac,4,33,,,FALSE,14782.339,19,male
67,ac,4,34,lh,hh,FALSE,3361.1850000000004,19,male
67,ac,4,35,hl,ll,FALSE,1096.2600000000002,19,male
67,ac,4,36,hl,hh,FALSE,1736.9119999999998,19,male
67,ac,4,37,lh,hl,FALSE,4370.197,19,male
67,ac,4,38,lh,ll,FALSE,1987.6060000000002,19,male
67,ac,4,39,ll,ll,TRUE,1074.2689999999998,19,male
67,ac,4,40,ll,ll,TRUE,2184.068,19,male
67,ac,4,41,hl,ll,FALSE,1966.1860000000001,19,male
67,ac,4,42,hh,hh,TRUE,1134.2579999999998,19,male
67,ac,4,43,hh,hh,TRUE,1152.475,19,male
67,ac,4,44,hh,hh,TRUE,1617.585,19,male
67,ac,4,45,hh,hh,TRUE,1023.6600000000001,19,male
67,ac,4,46,hh,hh,TRUE,1235.571,19,male
67,ac,4,47,hh,hh,TRUE,2161.104,19,male
67,ac,4,48,lh,hh,FALSE,1117.6840000000002,19,male
67,ac,4,49,hl,hh,FALSE,1167.409,19,male
67,ac,4,50,hh,hh,TRUE,2684.486,19,male
67,ac,4,51,hl,ll,FALSE,1283.297,19,male
67,ac,4,52,hh,hh,TRUE,907.1469999999999,19,male
67,ac,4,53,lh,lh,TRUE,3899.4709999999995,19,male
67,ac,4,54,lh,ll,FALSE,3436.6809999999996,19,male
67,ac,4,55,ll,ll,TRUE,2192.41,19,male
67,ac,4,56,lh,lh,TRUE,4727.936,19,male
67,ac,4,57,hh,hh,TRUE,1250.716,19,male
67,ac,4,58,lh,lh,TRUE,3203.8630000000003,19,male
67,ac,4,59,ll,ll,TRUE,1329.5819999999999,19,male
67,ac,4,60,hl,hl,TRUE,5623.696,19,male
67,ac,4,61,hl,hh,FALSE,1554.1640000000002,19,male
67,ac,4,62,hl,ll,FALSE,4562.992,19,male
67,ac,4,63,hh,hh,TRUE,1517.5390000000002,19,male
67,ac,4,64,hh,hh,TRUE,1455.897,19,male
67,ac,4,65,ll,ll,TRUE,1668.942,19,male
67,ac,4,66,hl,hh,FALSE,2333.664,19,male
67,ac,4,67,ll,ll,TRUE,1933.6529999999998,19,male
67,ac,4,68,hh,hh,TRUE,4015.5330000000004,19,male
67,ac,4,69,hh,hh,TRUE,2911.858,19,male
67,ac,4,70,lh,hh,FALSE,1190.1039999999998,19,male
67,ac,4,71,ll,ll,TRUE,1749.2689999999998,19,male
67,ac,4,72,hl,ll,FALSE,7342.3060000000005,19,male
67,ac,4,73,hl,hl,TRUE,3446.3950000000004,19,male
67,ac,4,74,hl,hh,FALSE,1817.9810000000002,19,male
67,ac,4,75,lh,ll,FALSE,4496.107,19,male
67,ac,4,76,lh,ll,FALSE,1496.9250000000002,19,male
67,ac,4,77,hl,hl,TRUE,4333.178,19,male
67,ac,4,78,hh,hh,TRUE,1548.359,19,male
67,ac,4,79,lh,ll,FALSE,1244.7379999999998,19,male
67,ac,4,80,lh,ll,FALSE,2154.799,19,male
67,ac,4,81,hh,lh,FALSE,3859.099,19,male
67,ac,4,82,ll,ll,TRUE,1317.8249999999998,19,male
67,ac,4,83,hl,hl,TRUE,4224.662,19,male
67,ac,4,84,hh,lh,FALSE,4499.767,19,male
67,ac,4,85,ll,ll,TRUE,1048.4609999999998,19,male
67,ac,4,86,lh,hh,FALSE,1917.851,19,male
67,ac,4,87,hh,hh,TRUE,1300.487,19,male
67,ac,4,88,lh,hh,FALSE,2843.107,19,male
67,ac,4,89,hh,hh,TRUE,1336.6599999999999,19,male
67,ac,4,90,hl,hl,TRUE,3157.858,19,male
67,ac,4,91,hh,ll,FALSE,3361.6580000000004,19,male
67,ac,4,92,ll,ll,TRUE,2380.787,19,male
67,ac,4,93,hh,hh,TRUE,1580.217,19,male
67,ac,4,94,lh,hh,FALSE,2952.546,19,male
67,ac,4,95,ll,ll,TRUE,1092.1840000000002,19,male
67,ac,4,96,ll,hh,FALSE,2056.447,19,male
67,ac,4,97,ll,ll,TRUE,3444.6540000000005,19,male
67,ac,4,98,hl,hh,FALSE,1108.0439999999999,19,male
67,ac,4,99,ll,hh,FALSE,3687.9030000000002,19,male
67,ac,4,100,ll,ll,TRUE,1157.2640000000001,19,male
67,ac,4,101,lh,ll,FALSE,930.6569999999999,19,male
67,ac,4,102,hl,hh,FALSE,5074.193,19,male
67,ac,4,103,ll,ll,TRUE,1027.614,19,male
67,ac,4,104,ll,ll,TRUE,1129.975,19,male
67,ac,4,105,hl,ll,FALSE,1354.46,19,male
67,ac,4,106,ll,ll,TRUE,1365.8020000000001,19,male
67,ac,4,107,lh,hl,FALSE,6959.499,19,male
67,ac,4,108,hl,hl,TRUE,3501.6760000000004,19,male
67,ac,4,109,hl,hh,FALSE,2547.189,19,male
67,ac,4,110,ll,ll,TRUE,1992.513,19,male
67,ac,4,111,lh,hl,FALSE,12331.251,19,male
67,ac,4,112,hl,hl,TRUE,2126.463,19,male
67,ac,4,113,ll,ll,TRUE,1096.1750000000002,19,male
67,ac,4,114,ll,ll,TRUE,908.404,19,male
67,ac,4,115,hh,hh,TRUE,1447.788,19,male
67,ac,4,116,ll,ll,TRUE,914.376,19,male
67,ac,4,117,lh,hh,FALSE,2248.086,19,male
67,ac,4,118,ll,ll,TRUE,1261.8760000000002,19,male
67,ac,4,119,ll,ll,TRUE,1183.5839999999998,19,male
67,ac,4,120,lh,ll,FALSE,4159.755,19,male
67,ac,5,1,ll,hl,FALSE,5075.385,19,male
67,ac,5,2,ll,ll,TRUE,2883.869,19,male
67,ac,5,3,hl,hh,FALSE,1721.489,19,male
67,ac,5,4,hl,hl,TRUE,5171.687,19,male
67,ac,5,5,hl,hh,FALSE,1509.7060000000001,19,male
67,ac,5,6,lh,hh,FALSE,1608.1970000000001,19,male
67,ac,5,7,hh,hh,TRUE,1154.433,19,male
67,ac,5,8,ll,ll,TRUE,1352.132,19,male
67,ac,5,9,lh,lh,TRUE,4961.216,19,male
67,ac,5,10,lh,ll,FALSE,898.826,19,male
67,ac,5,11,hh,hh,TRUE,1267.299,19,male
67,ac,5,12,hl,hl,TRUE,2736.248,19,male
67,ac,5,13,hl,hh,FALSE,2768.048,19,male
67,ac,5,14,hh,ll,FALSE,1232.0279999999998,19,male
67,ac,5,15,lh,lh,TRUE,3673.6319999999996,19,male
67,ac,5,16,lh,ll,FALSE,1735.4569999999999,19,male
67,ac,5,17,lh,lh,TRUE,8556.449,19,male
67,ac,5,18,hl,hh,FALSE,2062.178,19,male
67,ac,5,19,lh,lh,TRUE,2987.53,19,male
67,ac,5,20,lh,lh,TRUE,3684.968,19,male
67,ac,5,21,hh,hh,TRUE,1039.389,19,male
67,ac,5,22,ll,ll,TRUE,1136.9940000000001,19,male
67,ac,5,23,hh,hh,TRUE,3800.031,19,male
67,ac,5,24,lh,lh,TRUE,5321.003,19,male
67,ac,5,25,hh,hh,TRUE,2911.071,19,male
67,ac,5,26,hl,hh,FALSE,1512.7530000000002,19,male
67,ac,5,27,ll,ll,TRUE,972.6410000000001,19,male
67,ac,5,28,ll,ll,TRUE,949.058,19,male
67,ac,5,29,ll,ll,TRUE,1278.545,19,male
67,ac,5,30,hl,hh,FALSE,1274.9899999999998,19,male
67,ac,5,31,hl,hl,TRUE,4135.735,19,male
67,ac,5,32,ll,hh,FALSE,2398.948,19,male
67,ac,5,33,hh,hh,TRUE,1596.6309999999999,19,male
67,ac,5,34,ll,hh,FALSE,2796.67,19,male
67,ac,5,35,lh,hh,FALSE,1423.6350000000002,19,male
67,ac,5,36,hh,hh,TRUE,1478.4560000000001,19,male
67,ac,5,37,hl,hh,FALSE,2917.939,19,male
67,ac,5,38,hh,hh,TRUE,1710.996,19,male
67,ac,5,39,lh,hl,FALSE,5070.58,19,male
67,ac,5,40,hl,hl,TRUE,2735.047,19,male
67,ac,5,41,ll,lh,FALSE,4447.965,19,male
67,ac,5,42,hl,hl,TRUE,3419.133,19,male
67,ac,5,43,ll,ll,TRUE,3454.9939999999997,19,male
67,ac,5,44,hl,ll,FALSE,1230.0479999999998,19,male
67,ac,5,45,hl,hh,FALSE,2449.255,19,male
67,ac,5,46,hh,hh,TRUE,1836.8400000000001,19,male
67,ac,5,47,hh,hh,TRUE,1537.788,19,male
67,ac,5,48,hh,hl,FALSE,5039.307,19,male
67,ac,5,49,hh,hh,TRUE,1843.399,19,male
67,ac,5,50,ll,hl,FALSE,4086.3720000000003,19,male
67,ac,5,51,lh,lh,TRUE,3408.156,19,male
67,ac,5,52,hh,hh,TRUE,1220.7959999999998,19,male
67,ac,5,53,lh,hh,FALSE,1416.274,19,male
67,ac,5,54,lh,ll,FALSE,1017.405,19,male
67,ac,5,55,ll,ll,TRUE,854.028,19,male
67,ac,5,56,lh,lh,TRUE,3075.425,19,male
67,ac,5,57,ll,ll,TRUE,1126.397,19,male
67,ac,5,58,ll,ll,TRUE,2616.621,19,male
67,ac,5,59,hh,ll,FALSE,3902.4269999999997,19,male
67,ac,5,60,hh,hh,TRUE,2383.088,19,male
67,ac,5,61,hh,hh,TRUE,1565.049,19,male
67,ac,5,62,ll,ll,TRUE,2013.4299999999998,19,male
67,ac,5,63,hh,hh,TRUE,1099.4180000000001,19,male
67,ac,5,64,ll,ll,TRUE,2303.517,19,male
67,ac,5,65,lh,hh,FALSE,1410.038,19,male
67,ac,5,66,hl,hh,FALSE,2229.731,19,male
67,ac,5,67,hh,hh,TRUE,1982.5120000000002,19,male
67,ac,5,68,ll,ll,TRUE,1502.0189999999998,19,male
67,ac,5,69,hh,hh,TRUE,1757.2669999999998,19,male
67,ac,5,70,ll,ll,TRUE,1017.575,19,male
67,ac,5,71,ll,ll,TRUE,944.1320000000001,19,male
67,ac,5,72,ll,ll,TRUE,762.731,19,male
67,ac,5,73,ll,ll,TRUE,989.056,19,male
67,ac,5,74,lh,lh,TRUE,3429.263,19,male
67,ac,5,75,ll,hl,FALSE,4313.116,19,male
67,ac,5,76,lh,hh,FALSE,1578.058,19,male
67,ac,5,77,hl,hh,FALSE,5594.397,19,male
67,ac,5,78,lh,hh,FALSE,1302.255,19,male
67,ac,5,79,hl,hl,TRUE,3809.066,19,male
67,ac,5,80,lh,ll,FALSE,2068.945,19,male
67,ac,5,81,hh,hh,TRUE,1025.093,19,male
67,ac,5,82,hh,hl,FALSE,4600.329,19,male
67,ac,5,83,lh,ll,FALSE,1608.3670000000002,19,male
67,ac,5,84,ll,hh,FALSE,6348.649,19,male
67,ac,5,85,ll,ll,TRUE,2281.603,19,male
67,ac,5,86,hh,ll,FALSE,3706.3019999999997,19,male
67,ac,5,87,ll,ll,TRUE,1973.0729999999999,19,male
67,ac,5,88,lh,hh,FALSE,2229.132,19,male
67,ac,5,89,hl,hh,FALSE,2505.934,19,male
67,ac,5,90,hl,hh,FALSE,3460.678,19,male
67,ac,5,91,hh,hh,TRUE,1975.8029999999999,19,male
67,ac,5,92,lh,hh,FALSE,1911.44,19,male
67,ac,5,93,hh,ll,FALSE,2373.778,19,male
67,ac,5,94,hh,hh,TRUE,1094.4050000000002,19,male
67,ac,5,95,hh,hh,TRUE,1150.444,19,male
67,ac,5,96,lh,ll,FALSE,4415.353,19,male
67,ac,5,97,hl,hh,FALSE,8572.575,19,male
67,ac,5,98,hh,hh,TRUE,3036.242,19,male
67,ac,5,99,lh,hh,FALSE,1600.8359999999998,19,male
67,ac,5,100,ll,ll,TRUE,1648.1439999999998,19,male
67,ac,5,101,hl,hl,TRUE,4060.7960000000003,19,male
67,ac,5,102,hl,hl,TRUE,4358.929,19,male
67,ac,5,103,lh,hh,FALSE,1588.8609999999999,19,male
67,ac,5,104,hh,hh,TRUE,863.799,19,male
67,ac,5,105,lh,hl,FALSE,5506.833,19,male
67,ac,5,106,hl,hh,FALSE,1296.9009999999998,19,male
67,ac,5,107,lh,ll,FALSE,5547.829,19,male
67,ac,5,108,ll,ll,TRUE,2262.359,19,male
67,ac,5,109,lh,lh,TRUE,3532.063,19,male
67,ac,5,110,ll,lh,FALSE,4752.044,19,male
67,ac,5,111,ll,lh,FALSE,3114.294,19,male
67,ac,5,112,lh,ll,FALSE,1662.656,19,male
67,ac,5,113,lh,hh,FALSE,1383.592,19,male
67,ac,5,114,hl,hh,FALSE,1523.437,19,male
67,ac,5,115,ll,hl,FALSE,3734.5699999999997,19,male
67,ac,5,116,hh,hh,TRUE,1225.123,19,male
67,ac,5,117,ll,ll,TRUE,1623.737,19,male
67,ac,5,118,hl,hh,FALSE,1018.384,19,male
67,ac,5,119,lh,ll,FALSE,3121.8019999999997,19,male
67,ac,5,120,ll,ll,TRUE,1729.748,19,male
