pID,condition,block_no,trial_no,stimulus,response,correct,rt,age,gender
37,bc,1,1,hl,hh,FALSE,13005.505,18,female
37,bc,1,2,hl,lh,FALSE,3824.541,18,female
37,bc,1,3,hl,hh,FALSE,2182.859,18,female
37,bc,1,4,hl,ll,FALSE,3614.639,18,female
37,bc,1,5,hh,hh,TRUE,1542.9119999999998,18,female
37,bc,1,6,hl,hl,TRUE,3784.2799999999997,18,female
37,bc,1,7,hl,hl,TRUE,8768.974,18,female
37,bc,1,8,lh,lh,TRUE,5946.39,18,female
37,bc,1,9,hh,hh,TRUE,2772.187,18,female
37,bc,1,10,hh,ll,FALSE,4004.4030000000002,18,female
37,bc,1,11,ll,ll,TRUE,2093.047,18,female
37,bc,1,12,hh,hl,FALSE,3865.5119999999997,18,female
37,bc,1,13,ll,hh,FALSE,2094.532,18,female
37,bc,1,14,hh,lh,FALSE,3953.9440000000004,18,female
37,bc,1,15,hh,ll,FALSE,3236.237,18,female
37,bc,1,16,hl,hh,FALSE,8435.695,18,female
37,bc,1,17,lh,hh,FALSE,1354.011,18,female
37,bc,1,18,hh,hh,TRUE,1380.8110000000001,18,female
37,bc,1,19,hl,hl,TRUE,3236.5330000000004,18,female
37,bc,1,20,lh,hh,FALSE,3386.8379999999997,18,female
37,bc,1,21,lh,lh,TRUE,3180.343,18,female
37,bc,1,22,lh,ll,FALSE,3052.233,18,female
37,bc,1,23,ll,ll,TRUE,1146.676,18,female
37,bc,1,24,hh,lh,FALSE,5484.913,18,female
37,bc,1,25,ll,ll,TRUE,2441.21,18,female
37,bc,1,26,lh,hl,FALSE,5622.712,18,female
37,bc,1,27,lh,hh,FALSE,4901.405,18,female
37,bc,1,28,hh,ll,FALSE,3977.478,18,female
37,bc,1,29,lh,hh,FALSE,4866.334,18,female
37,bc,1,30,hh,lh,FALSE,5199.389,18,female
37,bc,1,31,hh,ll,FALSE,2463.345,18,female
37,bc,1,32,lh,hl,FALSE,3445.7920000000004,18,female
37,bc,1,33,hl,hh,FALSE,3082.789,18,female
37,bc,1,34,lh,hl,FALSE,1975.3159999999998,18,female
37,bc,1,35,hh,ll,FALSE,2064.165,18,female
37,bc,1,36,lh,ll,FALSE,2149.534,18,female
37,bc,1,37,hl,lh,FALSE,4983.538,18,female
37,bc,1,38,hl,hl,TRUE,11504.178,18,female
37,bc,1,39,hl,ll,FALSE,3821.3720000000003,18,female
37,bc,1,40,hh,hl,FALSE,4329.826,18,female
37,bc,1,41,hl,hl,TRUE,2893.871,18,female
37,bc,1,42,lh,hh,FALSE,4864.643,18,female
37,bc,1,43,hh,hl,FALSE,3862.1710000000003,18,female
37,bc,1,44,hh,hl,FALSE,5307.548,18,female
37,bc,1,45,lh,ll,FALSE,2982.496,18,female
37,bc,1,46,hl,ll,FALSE,4239.148,18,female
37,bc,1,47,ll,ll,TRUE,4365.97,18,female
37,bc,1,48,hh,hh,TRUE,3407.8559999999998,18,female
37,bc,1,49,ll,lh,FALSE,3686.0299999999997,18,female
37,bc,1,50,hl,hl,TRUE,5682.99,18,female
37,bc,1,51,hl,hh,FALSE,6831.203,18,female
37,bc,1,52,hh,ll,FALSE,1894.022,18,female
37,bc,1,53,hh,ll,FALSE,6106.203,18,female
37,bc,1,54,hl,hl,TRUE,11485.538,18,female
37,bc,1,55,hl,ll,FALSE,4553.658,18,female
37,bc,1,56,hh,hl,FALSE,6556.978,18,female
37,bc,1,57,hh,hl,FALSE,1909.5880000000002,18,female
37,bc,1,58,lh,ll,FALSE,5936.416,18,female
37,bc,1,59,lh,hl,FALSE,6507.567,18,female
37,bc,1,60,ll,hl,FALSE,3318.6409999999996,18,female
37,bc,1,61,hl,ll,FALSE,10347.308,18,female
37,bc,1,62,ll,hl,FALSE,8348.947,18,female
37,bc,1,63,ll,ll,TRUE,5870.209,18,female
37,bc,1,64,lh,hh,FALSE,1868.034,18,female
37,bc,1,65,ll,ll,TRUE,3281.116,18,female
37,bc,1,66,ll,hl,FALSE,1437.096,18,female
37,bc,1,67,hl,ll,FALSE,3204.0649999999996,18,female
37,bc,1,68,hl,hl,TRUE,4437.384,18,female
37,bc,1,69,hl,hh,FALSE,2833.339,18,female
37,bc,1,70,ll,ll,TRUE,3001.404,18,female
37,bc,1,71,hl,hl,TRUE,3567.714,18,female
37,bc,1,72,lh,hh,FALSE,2184.989,18,female
37,bc,1,73,ll,hl,FALSE,5697.772,18,female
37,bc,1,74,lh,hh,FALSE,3782.4219999999996,18,female
37,bc,1,75,ll,lh,FALSE,5991.278,18,female
37,bc,1,76,ll,ll,TRUE,2222.148,18,female
37,bc,1,77,hh,hl,FALSE,7854.213,18,female
37,bc,1,78,lh,lh,TRUE,4946.132,18,female
37,bc,1,79,hh,ll,FALSE,3477.8770000000004,18,female
37,bc,1,80,lh,hl,FALSE,3169.452,18,female
37,bc,1,81,hh,lh,FALSE,3755.6279999999997,18,female
37,bc,1,82,lh,ll,FALSE,6597.2,18,female
37,bc,1,83,hh,ll,FALSE,4156.3,18,female
37,bc,1,84,hl,hh,FALSE,4942.345,18,female
37,bc,1,85,lh,hh,FALSE,5559.046,18,female
37,bc,1,86,hh,lh,FALSE,3072.538,18,female
37,bc,1,87,hh,lh,FALSE,3396.982,18,female
37,bc,1,88,hh,hh,TRUE,2357.188,18,female
37,bc,1,89,lh,hl,FALSE,3334.599,18,female
37,bc,1,90,ll,ll,TRUE,2801.255,18,female
37,bc,1,91,lh,hh,FALSE,4593.268,18,female
37,bc,1,92,hl,ll,FALSE,1650.1129999999998,18,female
37,bc,1,93,hh,lh,FALSE,4416.248,18,female
37,bc,1,94,lh,ll,FALSE,7214.736999999999,18,female
37,bc,1,95,hl,hl,TRUE,4687.493,18,female
37,bc,1,96,hh,hl,FALSE,3169.335,18,female
37,bc,1,97,lh,lh,TRUE,4803.291,18,female
37,bc,1,98,hh,lh,FALSE,3243.898,18,female
37,bc,1,99,hh,hh,TRUE,1720.995,18,female
37,bc,1,100,hh,hh,TRUE,1971.0520000000001,18,female
37,bc,1,101,ll,lh,FALSE,5164.704,18,female
37,bc,1,102,hl,lh,FALSE,4902.139,18,female
37,bc,1,103,lh,hh,FALSE,3761.115,18,female
37,bc,1,104,hh,lh,FALSE,8771.157,18,female
37,bc,1,105,hh,ll,FALSE,5417.849,18,female
37,bc,1,106,ll,ll,TRUE,3084.47,18,female
37,bc,1,107,hl,lh,FALSE,7662.66,18,female
37,bc,1,108,ll,ll,TRUE,3899.548,18,female
37,bc,1,109,ll,ll,TRUE,4584.673,18,female
37,bc,1,110,ll,lh,FALSE,2576.295,18,female
37,bc,1,111,hh,hl,FALSE,3744.9350000000004,18,female
37,bc,1,112,ll,ll,TRUE,2275.222,18,female
37,bc,1,113,hl,hl,TRUE,5672.879,18,female
37,bc,1,114,lh,hh,FALSE,11222.016,18,female
37,bc,1,115,hh,lh,FALSE,12291.05,18,female
37,bc,1,116,hh,hh,TRUE,9294.874,18,female
37,bc,1,117,hl,lh,FALSE,3307.041,18,female
37,bc,1,118,lh,hh,FALSE,2031.1399999999999,18,female
37,bc,1,119,hl,lh,FALSE,4902.4,18,female
37,bc,1,120,ll,lh,FALSE,4353.096,18,female
37,bc,2,1,,,FALSE,14849.938,18,female
37,bc,2,2,lh,ll,FALSE,4803.082,18,female
37,bc,2,3,lh,hl,FALSE,14051.24,18,female
37,bc,2,4,ll,lh,FALSE,2242.631,18,female
37,bc,2,5,lh,hh,FALSE,479.7180000000001,18,female
37,bc,2,6,ll,hl,FALSE,3820.032,18,female
37,bc,2,7,hh,hh,TRUE,371.62200000000007,18,female
37,bc,2,8,ll,lh,FALSE,747.5899999999999,18,female
37,bc,2,9,hh,ll,FALSE,429.47800000000007,18,female
37,bc,2,10,ll,hh,FALSE,3220.2920000000004,18,female
37,bc,2,11,lh,hl,FALSE,3132.5959999999995,18,female
37,bc,2,12,ll,ll,TRUE,3151.035,18,female
37,bc,2,13,,,FALSE,14801.23,18,female
37,bc,2,14,lh,lh,TRUE,2608.706,18,female
37,bc,2,15,hh,hl,FALSE,847.297,18,female
37,bc,2,16,ll,ll,TRUE,773.326,18,female
37,bc,2,17,hl,hh,FALSE,918.5609999999999,18,female
37,bc,2,18,hh,lh,FALSE,1729.6979999999999,18,female
37,bc,2,19,lh,hh,FALSE,917.6700000000001,18,female
37,bc,2,20,hl,lh,FALSE,687.636,18,female
37,bc,2,21,hh,hl,FALSE,565.502,18,female
37,bc,2,22,hh,lh,FALSE,3461.415,18,female
37,bc,2,23,ll,ll,TRUE,3355.848,18,female
37,bc,2,24,hh,hl,FALSE,2757.188,18,female
37,bc,2,25,ll,hl,FALSE,5367.372,18,female
37,bc,2,26,hh,lh,FALSE,3286.7349999999997,18,female
37,bc,2,27,ll,lh,FALSE,2221.4,18,female
37,bc,2,28,hl,hh,FALSE,1945.2040000000002,18,female
37,bc,2,29,lh,hh,FALSE,2109.163,18,female
37,bc,2,30,hl,lh,FALSE,2753.849,18,female
37,bc,2,31,hl,lh,FALSE,5897.882,18,female
37,bc,2,32,hh,hl,FALSE,2510.948,18,female
37,bc,2,33,hl,lh,FALSE,4296.946,18,female
37,bc,2,34,hh,hl,FALSE,1556.841,18,female
37,bc,2,35,hh,hh,TRUE,502.038,18,female
37,bc,2,36,hl,lh,FALSE,370.2080000000001,18,female
37,bc,2,37,ll,ll,TRUE,716.932,18,female
37,bc,2,38,lh,hh,FALSE,542.685,18,female
37,bc,2,39,lh,ll,FALSE,3240.661,18,female
37,bc,2,40,ll,lh,FALSE,847.3,18,female
37,bc,2,41,hl,ll,FALSE,1853.6,18,female
37,bc,2,42,hh,hl,FALSE,4923.614,18,female
37,bc,2,43,hl,hl,TRUE,4324.93,18,female
37,bc,2,44,hh,lh,FALSE,392.66100000000006,18,female
37,bc,2,45,hl,hl,TRUE,888.577,18,female
37,bc,2,46,hh,hh,TRUE,659.4749999999999,18,female
37,bc,2,47,lh,ll,FALSE,786.299,18,female
37,bc,2,48,ll,hh,FALSE,585.556,18,female
37,bc,2,49,ll,ll,TRUE,730.4559999999999,18,female
37,bc,2,50,hl,lh,FALSE,580.9069999999999,18,female
37,bc,2,51,ll,hl,FALSE,574.1089999999999,18,female
37,bc,2,52,lh,lh,TRUE,1575.3719999999998,18,female
37,bc,2,53,lh,hl,FALSE,1232.922,18,female
37,bc,2,54,hh,ll,FALSE,2006.308,18,female
37,bc,2,55,hl,lh,FALSE,1118.2469999999998,18,female
37,bc,2,56,hh,hl,FALSE,2248.51,18,female
37,bc,2,57,lh,hh,FALSE,639.4169999999999,18,female
37,bc,2,58,hh,ll,FALSE,1348.408,18,female
37,bc,2,59,hl,lh,FALSE,989.923,18,female
37,bc,2,60,lh,hl,FALSE,3118.3280000000004,18,female
37,bc,2,61,hh,hl,FALSE,4194.157,18,female
37,bc,2,62,hl,lh,FALSE,641.79,18,female
37,bc,2,63,hh,ll,FALSE,991.317,18,female
37,bc,2,64,hh,hh,TRUE,536.3119999999999,18,female
37,bc,2,65,ll,hl,FALSE,595.712,18,female
37,bc,2,66,ll,lh,FALSE,515.229,18,female
37,bc,2,67,hl,hh,FALSE,397.4839999999999,18,female
37,bc,2,68,hl,ll,FALSE,614.412,18,female
37,bc,2,69,hl,lh,FALSE,420.6569999999999,18,female
37,bc,2,70,lh,hl,FALSE,509.509,18,female
37,bc,2,71,hh,hh,TRUE,936.6669999999999,18,female
37,bc,2,72,ll,ll,TRUE,499.058,18,female
37,bc,2,73,ll,lh,FALSE,518.0699999999999,18,female
37,bc,2,74,hl,hl,TRUE,411.0329999999999,18,female
37,bc,2,75,hl,hh,FALSE,585.258,18,female
37,bc,2,76,ll,ll,TRUE,418.53600000000006,18,female
37,bc,2,77,hh,lh,FALSE,376.826,18,female
37,bc,2,78,hl,hl,TRUE,441.5709999999999,18,female
37,bc,2,79,hl,hh,FALSE,496.70900000000006,18,female
37,bc,2,80,ll,ll,TRUE,348.461,18,female
37,bc,2,81,lh,lh,TRUE,774.576,18,female
37,bc,2,82,ll,hl,FALSE,486.049,18,female
37,bc,2,83,lh,hh,FALSE,506.749,18,female
37,bc,2,84,ll,ll,TRUE,1238.743,18,female
37,bc,2,85,ll,hh,FALSE,445.35400000000004,18,female
37,bc,2,86,hl,hl,TRUE,697.7929999999999,18,female
37,bc,2,87,hh,lh,FALSE,430.0160000000001,18,female
37,bc,2,88,lh,hh,FALSE,509.66499999999996,18,female
37,bc,2,89,hh,hl,FALSE,615.626,18,female
37,bc,2,90,hh,lh,FALSE,3528.2349999999997,18,female
37,bc,2,91,hh,ll,FALSE,2698.916,18,female
37,bc,2,92,hl,hh,FALSE,1478.3899999999999,18,female
37,bc,2,93,hl,ll,FALSE,1730.127,18,female
37,bc,2,94,lh,hl,FALSE,2344.515,18,female
37,bc,2,95,hh,lh,FALSE,566.979,18,female
37,bc,2,96,hl,hh,FALSE,816.2529999999999,18,female
37,bc,2,97,hl,lh,FALSE,1471.6680000000001,18,female
37,bc,2,98,hl,lh,FALSE,666.53,18,female
37,bc,2,99,hl,ll,FALSE,377.17100000000005,18,female
37,bc,2,100,lh,hh,FALSE,1435.58,18,female
37,bc,2,101,hl,lh,FALSE,2977.001,18,female
37,bc,2,102,lh,hl,FALSE,3337.3900000000003,18,female
37,bc,2,103,lh,ll,FALSE,1557.426,18,female
37,bc,2,104,ll,hl,FALSE,7703.445,18,female
37,bc,2,105,lh,hh,FALSE,8041.409,18,female
37,bc,2,106,hl,hl,TRUE,8663.251,18,female
37,bc,2,107,ll,ll,TRUE,4741.773,18,female
37,bc,2,108,hh,lh,FALSE,2727.712,18,female
37,bc,2,109,ll,lh,FALSE,1824.9180000000001,18,female
37,bc,2,110,ll,ll,TRUE,2513.442,18,female
37,bc,2,111,hh,hl,FALSE,683.0730000000001,18,female
37,bc,2,112,hl,ll,FALSE,480.02,18,female
37,bc,2,113,ll,hh,FALSE,1043.726,18,female
37,bc,2,114,ll,hl,FALSE,4659.526,18,female
37,bc,2,115,ll,hl,FALSE,2791.586,18,female
37,bc,2,116,ll,hl,FALSE,3831.665,18,female
37,bc,2,117,hh,ll,FALSE,3349.871,18,female
37,bc,2,118,hh,lh,FALSE,3640.8329999999996,18,female
37,bc,2,119,hl,hl,TRUE,2679.705,18,female
37,bc,2,120,lh,lh,TRUE,2196.383,18,female
37,bc,3,1,ll,hl,FALSE,3892.1859999999997,18,female
37,bc,3,2,lh,ll,FALSE,1265.9189999999999,18,female
37,bc,3,3,lh,lh,TRUE,829.748,18,female
37,bc,3,4,ll,ll,TRUE,2667.472,18,female
37,bc,3,5,hl,hh,FALSE,1729.255,18,female
37,bc,3,6,hh,hh,TRUE,891.3499999999999,18,female
37,bc,3,7,ll,ll,TRUE,695.239,18,female
37,bc,3,8,hh,hl,FALSE,460.749,18,female
37,bc,3,9,lh,lh,TRUE,321.818,18,female
37,bc,3,10,hl,lh,FALSE,1148.716,18,female
37,bc,3,11,lh,hl,FALSE,1165.4229999999998,18,female
37,bc,3,12,ll,hh,FALSE,598.636,18,female
37,bc,3,13,ll,lh,FALSE,336.0630000000001,18,female
37,bc,3,14,lh,hl,FALSE,826.297,18,female
37,bc,3,15,hl,hh,FALSE,680.76,18,female
37,bc,3,16,hh,lh,FALSE,748.511,18,female
37,bc,3,17,hl,hl,TRUE,976.1179999999999,18,female
37,bc,3,18,ll,hh,FALSE,664.373,18,female
37,bc,3,19,hl,lh,FALSE,900.7819999999999,18,female
37,bc,3,20,ll,hh,FALSE,792.604,18,female
37,bc,3,21,hh,hl,FALSE,994.519,18,female
37,bc,3,22,ll,lh,FALSE,769.0730000000001,18,female
37,bc,3,23,hl,hl,TRUE,699.4359999999999,18,female
37,bc,3,24,lh,ll,FALSE,830.5440000000001,18,female
37,bc,3,25,ll,hh,FALSE,623.3679999999999,18,female
37,bc,3,26,ll,hl,FALSE,955.4179999999999,18,female
37,bc,3,27,ll,lh,FALSE,566.221,18,female
37,bc,3,28,lh,ll,FALSE,552.579,18,female
37,bc,3,29,hh,hh,TRUE,585.029,18,female
37,bc,3,30,ll,ll,TRUE,394.2650000000001,18,female
37,bc,3,31,lh,hl,FALSE,465.5160000000001,18,female
37,bc,3,32,lh,lh,TRUE,527.1099999999999,18,female
37,bc,3,33,ll,lh,FALSE,593.7850000000001,18,female
37,bc,3,34,hl,lh,FALSE,616.616,18,female
37,bc,3,35,lh,lh,TRUE,544.345,18,female
37,bc,3,36,ll,hl,FALSE,388.9280000000001,18,female
37,bc,3,37,hl,lh,FALSE,458.8019999999999,18,female
37,bc,3,38,lh,hl,FALSE,1127.453,18,female
37,bc,3,39,ll,lh,FALSE,636.6790000000001,18,female
37,bc,3,40,hh,hh,TRUE,625.077,18,female
37,bc,3,41,ll,hh,FALSE,367.1020000000001,18,female
37,bc,3,42,hh,ll,FALSE,634.6030000000001,18,female
37,bc,3,43,ll,hh,FALSE,1247.179,18,female
37,bc,3,44,hl,lh,FALSE,341.655,18,female
37,bc,3,45,lh,hl,FALSE,313.731,18,female
37,bc,3,46,lh,ll,FALSE,1316.4769999999999,18,female
37,bc,3,47,lh,hh,FALSE,704.3679999999999,18,female
37,bc,3,48,hl,hh,FALSE,904.115,18,female
37,bc,3,49,hh,lh,FALSE,462.29999999999995,18,female
37,bc,3,50,lh,hl,FALSE,691.0139999999999,18,female
37,bc,3,51,hl,hl,TRUE,1014.374,18,female
37,bc,3,52,ll,ll,TRUE,718.693,18,female
37,bc,3,53,lh,hh,FALSE,930.71,18,female
37,bc,3,54,hh,hh,TRUE,788.443,18,female
37,bc,3,55,hl,lh,FALSE,394.2270000000001,18,female
37,bc,3,56,ll,hh,FALSE,899.579,18,female
37,bc,3,57,hh,hh,TRUE,263.25800000000004,18,female
37,bc,3,58,lh,ll,FALSE,286.75800000000004,18,female
37,bc,3,59,hl,lh,FALSE,897.451,18,female
37,bc,3,60,hh,lh,FALSE,1061.87,18,female
37,bc,3,61,lh,hl,FALSE,251.75,18,female
37,bc,3,62,ll,hh,FALSE,1025.345,18,female
37,bc,3,63,ll,ll,TRUE,423.201,18,female
37,bc,3,64,ll,hh,FALSE,559.403,18,female
37,bc,3,65,hl,lh,FALSE,255.558,18,female
37,bc,3,66,ll,hl,FALSE,604.6310000000001,18,female
37,bc,3,67,lh,hh,FALSE,797.4459999999999,18,female
37,bc,3,68,ll,ll,TRUE,475.98299999999995,18,female
37,bc,3,69,ll,lh,FALSE,248.88699999999994,18,female
37,bc,3,70,ll,hl,FALSE,686.904,18,female
37,bc,3,71,hl,hh,FALSE,539.097,18,female
37,bc,3,72,hh,hl,FALSE,643.624,18,female
37,bc,3,73,lh,hl,FALSE,580.45,18,female
37,bc,3,74,hl,lh,FALSE,493.6669999999999,18,female
37,bc,3,75,lh,hh,FALSE,830.512,18,female
37,bc,3,76,ll,hl,FALSE,1420.4699999999998,18,female
37,bc,3,77,hl,lh,FALSE,453.0799999999999,18,female
37,bc,3,78,lh,hl,FALSE,444.22800000000007,18,female
37,bc,3,79,ll,hh,FALSE,489.6010000000001,18,female
37,bc,3,80,hh,ll,FALSE,308.0899999999999,18,female
37,bc,3,81,hl,hl,TRUE,234.21900000000005,18,female
37,bc,3,82,hh,lh,FALSE,534.316,18,female
37,bc,3,83,ll,hl,FALSE,647.836,18,female
37,bc,3,84,hl,hl,TRUE,272.68499999999995,18,female
37,bc,3,85,hh,lh,FALSE,460.31899999999996,18,female
37,bc,3,86,lh,hh,FALSE,425.06600000000003,18,female
37,bc,3,87,ll,hh,FALSE,1105.194,18,female
37,bc,3,88,hl,lh,FALSE,548.5239999999999,18,female
37,bc,3,89,ll,hl,FALSE,566.6310000000001,18,female
37,bc,3,90,ll,hl,FALSE,310.8299999999999,18,female
37,bc,3,91,lh,lh,TRUE,907.646,18,female
37,bc,3,92,hh,lh,FALSE,391.26700000000005,18,female
37,bc,3,93,lh,lh,TRUE,1101.576,18,female
37,bc,3,94,hh,hh,TRUE,3699.956,18,female
37,bc,3,95,lh,hl,FALSE,5277.566,18,female
37,bc,3,96,lh,ll,FALSE,1690.647,18,female
37,bc,3,97,ll,ll,TRUE,2485.78,18,female
37,bc,3,98,lh,hh,FALSE,3626.6310000000003,18,female
37,bc,3,99,hh,hl,FALSE,2528.302,18,female
37,bc,3,100,hl,lh,FALSE,3891.272,18,female
37,bc,3,101,hl,ll,FALSE,2552.946,18,female
37,bc,3,102,ll,ll,TRUE,1338.5720000000001,18,female
37,bc,3,103,hh,hl,FALSE,5076.432,18,female
37,bc,3,104,hl,hh,FALSE,1783.2530000000002,18,female
37,bc,3,105,lh,lh,TRUE,2962.153,18,female
37,bc,3,106,ll,ll,TRUE,4994.112,18,female
37,bc,3,107,hh,hl,FALSE,3408.5910000000003,18,female
37,bc,3,108,lh,lh,TRUE,3312.572,18,female
37,bc,3,109,lh,ll,FALSE,2284.842,18,female
37,bc,3,110,lh,ll,FALSE,3328.6670000000004,18,female
37,bc,3,111,hl,hl,TRUE,1019.4469999999999,18,female
37,bc,3,112,hh,hh,TRUE,1171.3049999999998,18,female
37,bc,3,113,hh,hl,FALSE,3267.1890000000003,18,female
37,bc,3,114,hh,ll,FALSE,3936.9719999999998,18,female
37,bc,3,115,hl,hl,TRUE,5213.651,18,female
37,bc,3,116,lh,hh,FALSE,1442.824,18,female
37,bc,3,117,hl,ll,FALSE,3864.687,18,female
37,bc,3,118,lh,hh,FALSE,1478.4769999999999,18,female
37,bc,3,119,ll,ll,TRUE,2019.1419999999998,18,female
37,bc,3,120,hl,hl,TRUE,5361.995,18,female
37,bc,4,1,hl,hl,TRUE,8606.301,18,female
37,bc,4,2,lh,ll,FALSE,5046.308,18,female
37,bc,4,3,hh,lh,FALSE,3123.709,18,female
37,bc,4,4,lh,hl,FALSE,3025.244,18,female
37,bc,4,5,ll,ll,TRUE,581.7639999999999,18,female
37,bc,4,6,hl,hh,FALSE,654.3969999999999,18,female
37,bc,4,7,ll,hh,FALSE,508.09799999999996,18,female
37,bc,4,8,ll,ll,TRUE,255.06400000000008,18,female
37,bc,4,9,hh,lh,FALSE,429.5150000000001,18,female
37,bc,4,10,ll,hh,FALSE,427.962,18,female
37,bc,4,11,ll,hl,FALSE,809.9000000000001,18,female
37,bc,4,12,hh,ll,FALSE,434.5530000000001,18,female
37,bc,4,13,hh,lh,FALSE,336.5630000000001,18,female
37,bc,4,14,ll,lh,FALSE,348.8430000000001,18,female
37,bc,4,15,ll,hh,FALSE,926.174,18,female
37,bc,4,16,hl,hh,FALSE,999.5260000000001,18,female
37,bc,4,17,hh,ll,FALSE,761.893,18,female
37,bc,4,18,ll,lh,FALSE,864.3820000000001,18,female
37,bc,4,19,hl,hh,FALSE,949.798,18,female
37,bc,4,20,lh,lh,TRUE,866.94,18,female
37,bc,4,21,lh,lh,TRUE,1125.478,18,female
37,bc,4,22,ll,ll,TRUE,968.3109999999999,18,female
37,bc,4,23,hh,lh,FALSE,769.2739999999999,18,female
37,bc,4,24,lh,hh,FALSE,1130.498,18,female
37,bc,4,25,ll,hl,FALSE,1941.288,18,female
37,bc,4,26,lh,hh,FALSE,5586.357,18,female
37,bc,4,27,hh,lh,FALSE,3202.249,18,female
37,bc,4,28,lh,ll,FALSE,3530.068,18,female
37,bc,4,29,ll,ll,TRUE,231.04999999999995,18,female
37,bc,4,30,hh,hh,TRUE,682.511,18,female
37,bc,4,31,hh,lh,FALSE,1944.08,18,female
37,bc,4,32,hh,lh,FALSE,232.81099999999992,18,female
37,bc,4,33,hh,hl,FALSE,688.7929999999999,18,female
37,bc,4,34,hl,hl,TRUE,220.35699999999997,18,female
37,bc,4,35,hh,ll,FALSE,457.99700000000007,18,female
37,bc,4,36,hl,hh,FALSE,624.7919999999999,18,female
37,bc,4,37,lh,lh,TRUE,957.028,18,female
37,bc,4,38,lh,hh,FALSE,1230.5639999999999,18,female
37,bc,4,39,hl,hh,FALSE,234.32600000000002,18,female
37,bc,4,40,hh,ll,FALSE,241.28700000000003,18,female
37,bc,4,41,lh,hl,FALSE,825.675,18,female
37,bc,4,42,lh,lh,TRUE,890.123,18,female
37,bc,4,43,lh,hh,FALSE,2012.0500000000002,18,female
37,bc,4,44,hl,ll,FALSE,1989.848,18,female
37,bc,4,45,lh,lh,TRUE,876.9079999999999,18,female
37,bc,4,46,ll,hh,FALSE,522.2280000000001,18,female
37,bc,4,47,ll,lh,FALSE,701.0429999999999,18,female
37,bc,4,48,ll,lh,FALSE,1278.254,18,female
37,bc,4,49,hh,lh,FALSE,787.5340000000001,18,female
37,bc,4,50,lh,lh,TRUE,1572.489,18,female
37,bc,4,51,ll,ll,TRUE,4900.733,18,female
37,bc,4,52,hh,hl,FALSE,5329.255,18,female
37,bc,4,53,hh,lh,FALSE,4243.772,18,female
37,bc,4,54,lh,ll,FALSE,2682.147,18,female
37,bc,4,55,ll,hl,FALSE,4406.663,18,female
37,bc,4,56,ll,hh,FALSE,423.27,18,female
37,bc,4,57,hl,lh,FALSE,667.5709999999999,18,female
37,bc,4,58,ll,ll,TRUE,809.06,18,female
37,bc,4,59,lh,hh,FALSE,745.7819999999999,18,female
37,bc,4,60,lh,hl,FALSE,4330.47,18,female
37,bc,4,61,hl,lh,FALSE,3590.88,18,female
37,bc,4,62,hl,ll,FALSE,1453.1799999999998,18,female
37,bc,4,63,hh,hl,FALSE,939.5360000000001,18,female
37,bc,4,64,lh,ll,FALSE,765.711,18,female
37,bc,4,65,hl,hh,FALSE,529.278,18,female
37,bc,4,66,lh,lh,TRUE,938.998,18,female
37,bc,4,67,lh,ll,FALSE,795.9069999999999,18,female
37,bc,4,68,hl,ll,FALSE,765.527,18,female
37,bc,4,69,hl,ll,FALSE,719.068,18,female
37,bc,4,70,hh,hh,TRUE,560.076,18,female
37,bc,4,71,hl,hl,TRUE,585.011,18,female
37,bc,4,72,lh,hl,FALSE,821.396,18,female
37,bc,4,73,hl,lh,FALSE,735.6569999999999,18,female
37,bc,4,74,ll,lh,FALSE,739.5070000000001,18,female
37,bc,4,75,ll,ll,TRUE,3447.7740000000003,18,female
37,bc,4,76,hh,lh,FALSE,8469.223,18,female
37,bc,4,77,hh,hh,TRUE,1584.632,18,female
37,bc,4,78,lh,ll,FALSE,7697.723,18,female
37,bc,4,79,,,FALSE,14783.36,18,female
37,bc,4,80,hl,hl,TRUE,4111.522,18,female
37,bc,4,81,hl,hl,TRUE,10216.974,18,female
37,bc,4,82,hl,lh,FALSE,10203.293,18,female
37,bc,4,83,hh,hl,FALSE,4202.103,18,female
37,bc,4,84,ll,ll,TRUE,1905.4209999999998,18,female
37,bc,4,85,lh,hl,FALSE,2974.081,18,female
37,bc,4,86,lh,ll,FALSE,2967.27,18,female
37,bc,4,87,hh,hh,TRUE,4189.648,18,female
37,bc,4,88,hl,hl,TRUE,2949.91,18,female
37,bc,4,89,lh,lh,TRUE,2816.588,18,female
37,bc,4,90,hl,ll,FALSE,3271.08,18,female
37,bc,4,91,hl,hl,TRUE,3532.9049999999997,18,female
37,bc,4,92,hh,hh,TRUE,1719.4940000000001,18,female
37,bc,4,93,lh,lh,TRUE,1212.0259999999998,18,female
37,bc,4,94,lh,hl,FALSE,660.9110000000001,18,female
37,bc,4,95,ll,ll,TRUE,1745.524,18,female
37,bc,4,96,ll,hl,FALSE,3265.407,18,female
37,bc,4,97,hh,lh,FALSE,5951.318,18,female
37,bc,4,98,lh,hl,FALSE,6531.672,18,female
37,bc,4,99,hh,hl,FALSE,1035.208,18,female
37,bc,4,100,ll,ll,TRUE,1521.846,18,female
37,bc,4,101,hh,lh,FALSE,2515.174,18,female
37,bc,4,102,lh,lh,TRUE,2530.297,18,female
37,bc,4,103,lh,hl,FALSE,3468.9660000000003,18,female
37,bc,4,104,lh,hh,FALSE,1017.413,18,female
37,bc,4,105,hl,lh,FALSE,2433.489,18,female
37,bc,4,106,lh,ll,FALSE,2180.393,18,female
37,bc,4,107,lh,hl,FALSE,1441.833,18,female
37,bc,4,108,ll,ll,TRUE,3676.5200000000004,18,female
37,bc,4,109,hl,hh,FALSE,2691.602,18,female
37,bc,4,110,hl,hl,TRUE,2446.864,18,female
37,bc,4,111,lh,lh,TRUE,3557.0209999999997,18,female
37,bc,4,112,hh,hh,TRUE,1485.1,18,female
37,bc,4,113,hl,hl,TRUE,545.2729999999999,18,female
37,bc,4,114,ll,ll,TRUE,237.7349999999999,18,female
37,bc,4,115,ll,lh,FALSE,881.5050000000001,18,female
37,bc,4,116,lh,lh,TRUE,2814.531,18,female
37,bc,4,117,lh,hh,FALSE,4134.369,18,female
37,bc,4,118,hh,ll,FALSE,2057.71,18,female
37,bc,4,119,ll,lh,FALSE,703.1199999999999,18,female
37,bc,4,120,ll,hl,FALSE,546.0029999999999,18,female
37,bc,5,1,ll,hl,FALSE,9613.342,18,female
37,bc,5,2,hh,lh,FALSE,10089.323,18,female
37,bc,5,3,lh,hl,FALSE,787.066,18,female
37,bc,5,4,hh,hh,TRUE,590.5619999999999,18,female
37,bc,5,5,lh,ll,FALSE,308.7360000000001,18,female
37,bc,5,6,hl,hh,FALSE,376.77099999999996,18,female
37,bc,5,7,hh,lh,FALSE,1258.299,18,female
37,bc,5,8,lh,ll,FALSE,958.8019999999999,18,female
37,bc,5,9,hh,hh,TRUE,1158.3939999999998,18,female
37,bc,5,10,hl,hl,TRUE,1727.5859999999998,18,female
37,bc,5,11,ll,lh,FALSE,1202.487,18,female
37,bc,5,12,hh,ll,FALSE,1933.33,18,female
37,bc,5,13,lh,hh,FALSE,919.0250000000001,18,female
37,bc,5,14,lh,hh,FALSE,1352.2579999999998,18,female
37,bc,5,15,hh,lh,FALSE,2921.158,18,female
37,bc,5,16,ll,ll,TRUE,1052.897,18,female
37,bc,5,17,lh,lh,TRUE,1227.9859999999999,18,female
37,bc,5,18,ll,hh,FALSE,2185.003,18,female
37,bc,5,19,hl,ll,FALSE,1595.7359999999999,18,female
37,bc,5,20,hl,hl,TRUE,2490.584,18,female
37,bc,5,21,ll,lh,FALSE,1446.862,18,female
37,bc,5,22,hh,hl,FALSE,370.01700000000005,18,female
37,bc,5,23,lh,lh,TRUE,916.365,18,female
37,bc,5,24,hh,lh,FALSE,584.5,18,female
37,bc,5,25,ll,lh,FALSE,1098.6529999999998,18,female
37,bc,5,26,lh,hh,FALSE,2629.067,18,female
37,bc,5,27,lh,hl,FALSE,1051.7489999999998,18,female
37,bc,5,28,hh,lh,FALSE,1241.266,18,female
37,bc,5,29,hl,hh,FALSE,3584.648,18,female
37,bc,5,30,hh,hh,TRUE,1631.8359999999998,18,female
37,bc,5,31,hh,hl,FALSE,1026.12,18,female
37,bc,5,32,ll,lh,FALSE,589.04,18,female
37,bc,5,33,hl,lh,FALSE,989.9939999999999,18,female
37,bc,5,34,hl,ll,FALSE,3333.7520000000004,18,female
37,bc,5,35,hh,hl,FALSE,999.7919999999999,18,female
37,bc,5,36,hh,lh,FALSE,498.59400000000005,18,female
37,bc,5,37,ll,hh,FALSE,1334.5439999999999,18,female
37,bc,5,38,hl,ll,FALSE,795.05,18,female
37,bc,5,39,ll,lh,FALSE,1373.9879999999998,18,female
37,bc,5,40,hh,hl,FALSE,513.844,18,female
37,bc,5,41,hh,hl,FALSE,549.7149999999999,18,female
37,bc,5,42,ll,hh,FALSE,1173.7510000000002,18,female
37,bc,5,43,ll,ll,TRUE,702.0360000000001,18,female
37,bc,5,44,lh,hh,FALSE,833.8900000000001,18,female
37,bc,5,45,hh,hl,FALSE,504.75199999999995,18,female
37,bc,5,46,lh,hh,FALSE,436.36799999999994,18,female
37,bc,5,47,lh,ll,FALSE,554.887,18,female
37,bc,5,48,lh,hl,FALSE,580.377,18,female
37,bc,5,49,ll,lh,FALSE,340.16200000000003,18,female
37,bc,5,50,lh,hh,FALSE,784.335,18,female
37,bc,5,51,ll,ll,TRUE,597.395,18,female
37,bc,5,52,hl,hl,TRUE,320.73900000000003,18,female
37,bc,5,53,hh,hh,TRUE,599.221,18,female
37,bc,5,54,lh,lh,TRUE,834.393,18,female
37,bc,5,55,hh,hh,TRUE,886.2639999999999,18,female
37,bc,5,56,hh,lh,FALSE,420.654,18,female
37,bc,5,57,hl,ll,FALSE,964.4590000000001,18,female
37,bc,5,58,hl,hh,FALSE,1646.159,18,female
37,bc,5,59,ll,lh,FALSE,755.364,18,female
37,bc,5,60,ll,ll,TRUE,1148.4340000000002,18,female
37,bc,5,61,hh,lh,FALSE,2164.301,18,female
37,bc,5,62,hl,hh,FALSE,600.829,18,female
37,bc,5,63,hh,hl,FALSE,672.45,18,female
37,bc,5,64,hl,lh,FALSE,474.202,18,female
37,bc,5,65,ll,lh,FALSE,422.9269999999999,18,female
37,bc,5,66,hh,hl,FALSE,855.0550000000001,18,female
37,bc,5,67,hl,ll,FALSE,577.7750000000001,18,female
37,bc,5,68,lh,hh,FALSE,903.992,18,female
37,bc,5,69,lh,ll,FALSE,1544.507,18,female
37,bc,5,70,hl,lh,FALSE,462.9459999999999,18,female
37,bc,5,71,hh,hl,FALSE,1103.1840000000002,18,female
37,bc,5,72,hl,hh,FALSE,594.7439999999999,18,female
37,bc,5,73,ll,lh,FALSE,962.7470000000001,18,female
37,bc,5,74,ll,hh,FALSE,597.499,18,female
37,bc,5,75,ll,lh,FALSE,669.2429999999999,18,female
37,bc,5,76,hl,hl,TRUE,610.9860000000001,18,female
37,bc,5,77,hl,ll,FALSE,536.5229999999999,18,female
37,bc,5,78,hl,hh,FALSE,619.0039999999999,18,female
37,bc,5,79,lh,hh,FALSE,810.4649999999999,18,female
37,bc,5,80,hl,lh,FALSE,443.6590000000001,18,female
37,bc,5,81,lh,hl,FALSE,447.558,18,female
37,bc,5,82,hh,ll,FALSE,622.7750000000001,18,female
37,bc,5,83,hl,hh,FALSE,572.941,18,female
37,bc,5,84,hl,lh,FALSE,615.204,18,female
37,bc,5,85,hl,hl,TRUE,421.874,18,female
37,bc,5,86,hl,ll,FALSE,554.962,18,female
37,bc,5,87,ll,ll,TRUE,1940.6799999999998,18,female
37,bc,5,88,hl,hh,FALSE,1134.799,18,female
37,bc,5,89,hl,hl,TRUE,1225.879,18,female
37,bc,5,90,hl,hl,TRUE,3330.58,18,female
37,bc,5,91,lh,lh,TRUE,4298.7,18,female
37,bc,5,92,hl,hl,TRUE,1912.596,18,female
37,bc,5,93,hh,ll,FALSE,2163.533,18,female
37,bc,5,94,lh,hh,FALSE,1028.98,18,female
37,bc,5,95,hl,lh,FALSE,1820.8429999999998,18,female
37,bc,5,96,ll,hl,FALSE,2623.317,18,female
37,bc,5,97,ll,hl,FALSE,5831.23,18,female
37,bc,5,98,hh,lh,FALSE,3919.1360000000004,18,female
37,bc,5,99,ll,hh,FALSE,1377.1660000000002,18,female
37,bc,5,100,hh,ll,FALSE,1441.967,18,female
37,bc,5,101,lh,hh,FALSE,1353.813,18,female
37,bc,5,102,lh,lh,TRUE,8227.293,18,female
37,bc,5,103,lh,hl,FALSE,3219.566,18,female
37,bc,5,104,hh,hh,TRUE,1490.0030000000002,18,female
37,bc,5,105,lh,ll,FALSE,3909.3,18,female
37,bc,5,106,hl,ll,FALSE,1961.8850000000002,18,female
37,bc,5,107,lh,lh,TRUE,3538.943,18,female
37,bc,5,108,ll,ll,TRUE,2964.111,18,female
37,bc,5,109,ll,hl,FALSE,1819.6660000000002,18,female
37,bc,5,110,ll,hl,FALSE,4371.504,18,female
37,bc,5,111,ll,hl,FALSE,3603.0280000000002,18,female
37,bc,5,112,hh,lh,FALSE,3227.9530000000004,18,female
37,bc,5,113,hl,hl,TRUE,2698.584,18,female
37,bc,5,114,ll,ll,TRUE,2374.303,18,female
37,bc,5,115,hl,hh,FALSE,1094.563,18,female
37,bc,5,116,hh,hl,FALSE,2852.839,18,female
37,bc,5,117,hh,hl,FALSE,9973.404,18,female
37,bc,5,118,ll,hl,FALSE,4313.948,18,female
37,bc,5,119,ll,ll,TRUE,5752.335,18,female
37,bc,5,120,ll,hl,FALSE,3158.969,18,female
