pID,condition,block_no,trial_no,stimulus,response,correct,rt,age,gender
61,bc,1,1,ll,hh,FALSE,11427.07,19,female
61,bc,1,2,lh,ll,FALSE,6925.696,19,female
61,bc,1,3,hl,hh,FALSE,10008.1,19,female
61,bc,1,4,lh,hh,FALSE,9979.8,19,female
61,bc,1,5,hl,ll,FALSE,6208,19,female
61,bc,1,6,ll,hl,FALSE,12351.1,19,female
61,bc,1,7,lh,ll,FALSE,7858.700000000001,19,female
61,bc,1,8,hh,ll,FALSE,3556.41,19,female
61,bc,1,9,lh,lh,TRUE,13321,19,female
61,bc,1,10,ll,ll,TRUE,15060.6,19,female
61,bc,1,11,lh,ll,FALSE,12266.1,19,female
61,bc,1,12,,,FALSE,15013.2,19,female
61,bc,1,13,ll,ll,TRUE,2387.5,19,female
61,bc,1,14,hl,ll,FALSE,7776.436,19,female
61,bc,1,15,hh,hh,TRUE,3514.8999999999996,19,female
61,bc,1,16,,,FALSE,15013.3,19,female
61,bc,1,17,lh,lh,TRUE,11243.6,19,female
61,bc,1,18,hl,hh,FALSE,5436.7,19,female
61,bc,1,19,ll,hh,FALSE,5979.1,19,female
61,bc,1,20,lh,hh,FALSE,11794.7,19,female
61,bc,1,21,lh,ll,FALSE,8285.4,19,female
61,bc,1,22,ll,ll,TRUE,6886.6,19,female
61,bc,1,23,hl,hh,FALSE,3976.8,19,female
61,bc,1,24,ll,lh,FALSE,7843.1,19,female
61,bc,1,25,lh,hh,FALSE,14350.1,19,female
61,bc,1,26,ll,ll,TRUE,8096.6,19,female
61,bc,1,27,ll,ll,TRUE,2450.9,19,female
61,bc,1,28,,,FALSE,15015.094,19,female
61,bc,1,29,ll,ll,TRUE,4284,19,female
61,bc,1,30,lh,hh,FALSE,10521.7,19,female
61,bc,1,31,hh,hh,TRUE,1447.9,19,female
61,bc,1,32,,,FALSE,15013.3,19,female
61,bc,1,33,ll,ll,TRUE,4939.9,19,female
61,bc,1,34,hl,ll,FALSE,13341.3,19,female
61,bc,1,35,ll,ll,TRUE,12377.2,19,female
61,bc,1,36,ll,ll,TRUE,12172.4,19,female
61,bc,1,37,lh,hl,FALSE,5191.2,19,female
61,bc,1,38,lh,ll,FALSE,7581.700000000001,19,female
61,bc,1,39,ll,hl,FALSE,7282.5,19,female
61,bc,1,40,hl,hl,TRUE,6184.4,19,female
61,bc,1,41,hl,hl,TRUE,13079.4,19,female
61,bc,1,42,lh,hh,FALSE,8174.299999999999,19,female
61,bc,1,43,ll,ll,TRUE,1755.9,19,female
61,bc,1,44,,,FALSE,15013,19,female
61,bc,1,45,ll,hl,FALSE,5681.6,19,female
61,bc,1,46,ll,hh,FALSE,10981.5,19,female
61,bc,1,47,ll,lh,FALSE,7712.299999999999,19,female
61,bc,1,48,ll,ll,TRUE,7601.9,19,female
61,bc,1,49,ll,lh,FALSE,7767,19,female
61,bc,1,50,hh,lh,FALSE,9702.3,19,female
61,bc,1,51,hh,hh,TRUE,1894.3000000000002,19,female
61,bc,1,52,ll,ll,TRUE,9349,19,female
61,bc,1,53,hh,hh,TRUE,3586.8,19,female
61,bc,1,54,hl,hl,TRUE,5727.206,19,female
61,bc,1,55,lh,hh,FALSE,3581.3999999999996,19,female
61,bc,1,56,ll,hl,FALSE,10567.6,19,female
61,bc,1,57,hl,hh,FALSE,3763.6000000000004,19,female
61,bc,1,58,hl,hh,FALSE,6070.5,19,female
61,bc,1,59,lh,ll,FALSE,6361.7,19,female
61,bc,1,60,ll,ll,TRUE,8369.3,19,female
61,bc,1,61,ll,ll,TRUE,4168.7,19,female
61,bc,1,62,hl,hh,FALSE,13147.2,19,female
61,bc,1,63,lh,hl,FALSE,14737.296,19,female
61,bc,1,64,ll,ll,TRUE,4191.8,19,female
61,bc,1,65,,,FALSE,15013.3,19,female
61,bc,1,66,hh,hh,TRUE,2464.3,19,female
61,bc,1,67,ll,ll,TRUE,8298.4,19,female
61,bc,1,68,ll,ll,TRUE,10164,19,female
61,bc,1,69,ll,ll,TRUE,7920.6,19,female
61,bc,1,70,lh,hh,FALSE,3785.6000000000004,19,female
61,bc,1,71,ll,ll,TRUE,11946.8,19,female
61,bc,1,72,hl,lh,FALSE,14622.3,19,female
61,bc,1,73,,,FALSE,15013.5,19,female
61,bc,1,74,lh,ll,FALSE,3785.1000000000004,19,female
61,bc,1,75,lh,lh,TRUE,10554.9,19,female
61,bc,1,76,hl,ll,FALSE,4999.8,19,female
61,bc,1,77,,,FALSE,15013.2,19,female
61,bc,1,78,lh,lh,TRUE,7191.3,19,female
61,bc,1,79,ll,ll,TRUE,9889.6,19,female
61,bc,1,80,hl,hh,FALSE,4265.3,19,female
61,bc,1,81,hh,hh,TRUE,1366.5,19,female
61,bc,1,82,lh,ll,FALSE,3803.7,19,female
61,bc,1,83,lh,ll,FALSE,7660.852000000001,19,female
61,bc,1,84,ll,ll,TRUE,12142.6,19,female
61,bc,1,85,ll,hl,FALSE,7274.5,19,female
61,bc,1,86,hl,hh,FALSE,2772.92,19,female
61,bc,1,87,lh,ll,FALSE,8504.1,19,female
61,bc,1,88,lh,hh,FALSE,14697.6,19,female
61,bc,1,89,,,FALSE,15013.6,19,female
61,bc,1,90,lh,ll,FALSE,7808.4,19,female
61,bc,1,91,hh,ll,FALSE,7550.1,19,female
61,bc,1,92,hl,ll,FALSE,8051.6,19,female
61,bc,1,93,ll,lh,FALSE,7592.799999999999,19,female
61,bc,1,94,lh,ll,FALSE,9110.2,19,female
61,bc,1,95,lh,ll,FALSE,4806.1,19,female
61,bc,1,96,,,FALSE,15013.1,19,female
61,bc,1,97,lh,ll,FALSE,14785.1,19,female
61,bc,1,98,hh,hh,TRUE,10577.5,19,female
61,bc,1,99,hl,ll,FALSE,11821.7,19,female
61,bc,1,100,ll,ll,TRUE,8519.2,19,female
61,bc,1,101,hl,ll,FALSE,2807.6,19,female
61,bc,1,102,ll,ll,TRUE,3518.3999999999996,19,female
61,bc,1,103,,,FALSE,15013.6,19,female
61,bc,1,104,hl,hh,FALSE,9840,19,female
61,bc,1,105,lh,ll,FALSE,7561.700000000001,19,female
61,bc,1,106,lh,hh,FALSE,8160.700000000001,19,female
61,bc,1,107,ll,ll,TRUE,5019.6,19,female
61,bc,1,108,,,FALSE,15013.3,19,female
61,bc,1,109,hh,hh,TRUE,2030,19,female
61,bc,1,110,hl,hh,FALSE,11082.4,19,female
61,bc,1,111,ll,ll,TRUE,5345.4,19,female
61,bc,1,112,hl,hl,TRUE,12869.4,19,female
61,bc,1,113,ll,ll,TRUE,1567.8000000000002,19,female
61,bc,1,114,hh,hh,TRUE,4986.7,19,female
61,bc,1,115,ll,lh,FALSE,7933.6,19,female
61,bc,1,116,lh,hh,FALSE,4131.8,19,female
61,bc,1,117,,,FALSE,15013.4,19,female
61,bc,1,118,hl,lh,FALSE,10153,19,female
61,bc,1,119,lh,ll,FALSE,2712,19,female
61,bc,1,120,hl,ll,FALSE,14423.2,19,female
61,bc,2,1,hl,ll,FALSE,8984.9,19,female
61,bc,2,2,hl,ll,FALSE,8104.932000000001,19,female
61,bc,2,3,hl,hl,TRUE,6562.5,19,female
61,bc,2,4,ll,hh,FALSE,12230.1,19,female
61,bc,2,5,hh,hh,TRUE,3087.2,19,female
61,bc,2,6,lh,lh,TRUE,13165.1,19,female
61,bc,2,7,lh,ll,FALSE,6539.4,19,female
61,bc,2,8,hl,lh,FALSE,7968.1,19,female
61,bc,2,9,ll,ll,TRUE,2983,19,female
61,bc,2,10,hl,hh,FALSE,2293.7,19,female
61,bc,2,11,,,FALSE,15013.1,19,female
61,bc,2,12,ll,ll,TRUE,10585.7,19,female
61,bc,2,13,lh,hh,FALSE,9205.3,19,female
61,bc,2,14,ll,lh,FALSE,8633.938,19,female
61,bc,2,15,,,FALSE,15013.3,19,female
61,bc,2,16,ll,hl,FALSE,3881.2,19,female
61,bc,2,17,lh,hh,FALSE,4642,19,female
61,bc,2,18,hl,hh,FALSE,15043.2,19,female
61,bc,2,19,hl,ll,FALSE,4329.3,19,female
61,bc,2,20,lh,ll,FALSE,4804.7,19,female
61,bc,2,21,hl,ll,FALSE,5692.4,19,female
61,bc,2,22,hl,ll,FALSE,6303.8,19,female
61,bc,2,23,ll,ll,TRUE,9978.1,19,female
61,bc,2,24,lh,hh,FALSE,2446.8,19,female
61,bc,2,25,hl,hl,TRUE,5014.9,19,female
61,bc,2,26,hl,ll,FALSE,3222,19,female
61,bc,2,27,hl,hh,FALSE,6989.402,19,female
61,bc,2,28,hh,hh,TRUE,3500.3999999999996,19,female
61,bc,2,29,ll,ll,TRUE,7657.5,19,female
61,bc,2,30,hh,hh,TRUE,7373.4,19,female
61,bc,2,31,lh,hh,FALSE,4833.04,19,female
61,bc,2,32,,,FALSE,15013.1,19,female
61,bc,2,33,ll,hh,FALSE,7525.6,19,female
61,bc,2,34,ll,ll,TRUE,7534,19,female
61,bc,2,35,hl,hh,FALSE,3140.5,19,female
61,bc,2,36,hl,hh,FALSE,2641.1,19,female
61,bc,2,37,hh,ll,FALSE,3233.3999999999996,19,female
61,bc,2,38,ll,ll,TRUE,4218,19,female
61,bc,2,39,hh,hh,TRUE,8505.1,19,female
61,bc,2,40,,,FALSE,15013.5,19,female
61,bc,2,41,hl,hh,FALSE,4156.9,19,female
61,bc,2,42,hh,lh,FALSE,14239.7,19,female
61,bc,2,43,hl,ll,FALSE,6070.7,19,female
61,bc,2,44,hh,hh,TRUE,14074.4,19,female
61,bc,2,45,hh,hh,TRUE,6711.3,19,female
61,bc,2,46,hl,ll,FALSE,4658.2,19,female
61,bc,2,47,lh,ll,FALSE,8895.5,19,female
61,bc,2,48,hl,ll,FALSE,6785.2,19,female
61,bc,2,49,hh,hh,TRUE,2582.3,19,female
61,bc,2,50,hl,hh,FALSE,8009.9,19,female
61,bc,2,51,ll,ll,TRUE,5867.9,19,female
61,bc,2,52,hh,hh,TRUE,4908.1,19,female
61,bc,2,53,hh,ll,FALSE,12990.4,19,female
61,bc,2,54,hl,lh,FALSE,7192.4,19,female
61,bc,2,55,lh,lh,TRUE,7860.316000000001,19,female
61,bc,2,56,,,FALSE,15013.2,19,female
61,bc,2,57,ll,lh,FALSE,11261.3,19,female
61,bc,2,58,hl,hh,FALSE,6220.9,19,female
61,bc,2,59,lh,ll,FALSE,8059.5,19,female
61,bc,2,60,hh,hh,TRUE,4171.8,19,female
61,bc,2,61,,,FALSE,15013.4,19,female
61,bc,2,62,hh,hh,TRUE,3830,19,female
61,bc,2,63,hl,hh,FALSE,4195.1,19,female
61,bc,2,64,ll,ll,TRUE,4803.7,19,female
61,bc,2,65,lh,ll,FALSE,8584.2,19,female
61,bc,2,66,hh,hh,TRUE,13576.9,19,female
61,bc,2,67,ll,ll,TRUE,10186.5,19,female
61,bc,2,68,lh,ll,FALSE,5142.8,19,female
61,bc,2,69,hl,hh,FALSE,3553.5,19,female
61,bc,2,70,hh,hh,TRUE,1527.6,19,female
61,bc,2,71,lh,hh,FALSE,5960.9,19,female
61,bc,2,72,hl,hh,FALSE,12605.8,19,female
61,bc,2,73,ll,ll,TRUE,10474.4,19,female
61,bc,2,74,ll,lh,FALSE,4203.4,19,female
61,bc,2,75,lh,hh,FALSE,2606.664,19,female
61,bc,2,76,hh,hh,TRUE,1324.9,19,female
61,bc,2,77,hh,hh,TRUE,5533.6,19,female
61,bc,2,78,ll,lh,FALSE,9659.8,19,female
61,bc,2,79,ll,ll,TRUE,10974.1,19,female
61,bc,2,80,hl,ll,FALSE,3498.6000000000004,19,female
61,bc,2,81,lh,lh,TRUE,6503.7,19,female
61,bc,2,82,hh,hh,TRUE,9306.4,19,female
61,bc,2,83,lh,hh,FALSE,8042.799999999999,19,female
61,bc,2,84,,,FALSE,15013.4,19,female
61,bc,2,85,hh,hh,TRUE,6385.7,19,female
61,bc,2,86,ll,ll,TRUE,4024,19,female
61,bc,2,87,lh,hh,FALSE,9839.8,19,female
61,bc,2,88,lh,hh,FALSE,3194.3999999999996,19,female
61,bc,2,89,hl,ll,FALSE,8084.4,19,female
61,bc,2,90,lh,hh,FALSE,9686.1,19,female
61,bc,2,91,lh,hh,FALSE,3478,19,female
61,bc,2,92,hl,hh,FALSE,1680.6,19,female
61,bc,2,93,,,FALSE,15013.6,19,female
61,bc,2,94,hl,lh,FALSE,8894.2,19,female
61,bc,2,95,ll,hl,FALSE,6349.5,19,female
61,bc,2,96,hl,lh,FALSE,3493.3,19,female
61,bc,2,97,,,FALSE,15013.6,19,female
61,bc,2,98,hl,hl,TRUE,4595.7,19,female
61,bc,2,99,hh,hh,TRUE,1255.9,19,female
61,bc,2,100,ll,ll,TRUE,2207,19,female
61,bc,2,101,hl,hh,FALSE,4897.3,19,female
61,bc,2,102,ll,ll,TRUE,2437,19,female
61,bc,2,103,hl,ll,FALSE,6221.9,19,female
61,bc,2,104,lh,lh,TRUE,14620.1,19,female
61,bc,2,105,,,FALSE,15013.6,19,female
61,bc,2,106,hl,ll,FALSE,8101.5,19,female
61,bc,2,107,lh,hh,FALSE,3671.2,19,female
61,bc,2,108,ll,ll,TRUE,1774,19,female
61,bc,2,109,hh,hh,TRUE,5376.1,19,female
61,bc,2,110,lh,ll,FALSE,4768.3,19,female
61,bc,2,111,ll,ll,TRUE,11114.2,19,female
61,bc,2,112,lh,hh,FALSE,3135.8999999999996,19,female
61,bc,2,113,ll,lh,FALSE,7708.1,19,female
61,bc,2,114,lh,hh,FALSE,6702.206,19,female
61,bc,2,115,hh,hh,TRUE,9911.8,19,female
61,bc,2,116,ll,ll,TRUE,12509.9,19,female
61,bc,2,117,ll,hl,FALSE,6171.9,19,female
61,bc,2,118,ll,ll,TRUE,7511.799999999999,19,female
61,bc,2,119,lh,ll,FALSE,14517.7,19,female
61,bc,2,120,hl,hh,FALSE,4768.4,19,female
61,bc,3,1,hl,hh,FALSE,2851,19,female
61,bc,3,2,ll,hh,FALSE,5723.3,19,female
61,bc,3,3,hh,hh,TRUE,3944.8,19,female
61,bc,3,4,hl,hh,FALSE,3207.7,19,female
61,bc,3,5,hl,ll,FALSE,6401.7,19,female
61,bc,3,6,hh,hh,TRUE,8866.8,19,female
61,bc,3,7,hl,hh,FALSE,2628,19,female
61,bc,3,8,hl,lh,FALSE,7496.6,19,female
61,bc,3,9,,,FALSE,15013.2,19,female
61,bc,3,10,hh,hh,TRUE,3283.3999999999996,19,female
61,bc,3,11,hl,hh,FALSE,6875,19,female
61,bc,3,12,hh,hh,TRUE,2367.5,19,female
61,bc,3,13,ll,hl,FALSE,6025.9,19,female
61,bc,3,14,hl,ll,FALSE,9115.8,19,female
61,bc,3,15,hh,hh,TRUE,3574.5,19,female
61,bc,3,16,hl,hh,FALSE,5780.2,19,female
61,bc,3,17,hl,hh,FALSE,2604.6,19,female
61,bc,3,18,hh,ll,FALSE,6978.374,19,female
61,bc,3,19,ll,ll,TRUE,4945.4,19,female
61,bc,3,20,ll,ll,TRUE,6405.9,19,female
61,bc,3,21,ll,ll,TRUE,14329.9,19,female
61,bc,3,22,hh,hh,TRUE,3593.5,19,female
61,bc,3,23,hh,hh,TRUE,1670,19,female
61,bc,3,24,hh,hh,TRUE,3384.8999999999996,19,female
61,bc,3,25,hh,hh,TRUE,1642.8000000000002,19,female
61,bc,3,26,lh,hh,FALSE,3748.8,19,female
61,bc,3,27,lh,hl,FALSE,3608.7,19,female
61,bc,3,28,hh,hh,TRUE,2098.6,19,female
61,bc,3,29,ll,hh,FALSE,10954.2,19,female
61,bc,3,30,hl,hh,FALSE,2694.9,19,female
61,bc,3,31,hh,hl,FALSE,4452.2,19,female
61,bc,3,32,hh,ll,FALSE,5161.8,19,female
61,bc,3,33,hl,hh,FALSE,4819.6,19,female
61,bc,3,34,lh,ll,FALSE,6923,19,female
61,bc,3,35,lh,ll,FALSE,4025.6000000000004,19,female
61,bc,3,36,lh,ll,FALSE,9731.5,19,female
61,bc,3,37,lh,ll,FALSE,14850.1,19,female
61,bc,3,38,lh,lh,TRUE,3887.9359999999997,19,female
61,bc,3,39,ll,lh,FALSE,3661.2,19,female
61,bc,3,40,lh,hh,FALSE,2660.1,19,female
61,bc,3,41,ll,ll,TRUE,3934.6000000000004,19,female
61,bc,3,42,lh,hl,FALSE,10719.6,19,female
61,bc,3,43,lh,hh,FALSE,6976,19,female
61,bc,3,44,hl,hh,FALSE,11876.7,19,female
61,bc,3,45,,,FALSE,15013.5,19,female
61,bc,3,46,ll,ll,TRUE,7453.5,19,female
61,bc,3,47,ll,hl,FALSE,5082.6,19,female
61,bc,3,48,hh,hh,TRUE,3079,19,female
61,bc,3,49,ll,ll,TRUE,2547.8,19,female
61,bc,3,50,hl,ll,FALSE,3479.8,19,female
61,bc,3,51,ll,ll,TRUE,1413.4,19,female
61,bc,3,52,hl,lh,FALSE,7927.1,19,female
61,bc,3,53,ll,hl,FALSE,9407.4,19,female
61,bc,3,54,ll,ll,TRUE,4710.9,19,female
61,bc,3,55,hh,hh,TRUE,6103.5,19,female
61,bc,3,56,hh,hh,TRUE,3034.5,19,female
61,bc,3,57,hh,hh,TRUE,7097.6,19,female
61,bc,3,58,ll,ll,TRUE,4916.2,19,female
61,bc,3,59,ll,hl,FALSE,11239.4,19,female
61,bc,3,60,lh,hh,FALSE,3385.3,19,female
61,bc,3,61,hh,hh,TRUE,4170.2,19,female
61,bc,3,62,lh,ll,FALSE,12413,19,female
61,bc,3,63,,,FALSE,15013.3,19,female
61,bc,3,64,,,FALSE,15013.1,19,female
61,bc,3,65,hh,lh,FALSE,7844.1,19,female
61,bc,3,66,ll,ll,TRUE,9182.8,19,female
61,bc,3,67,hh,hh,TRUE,7475.5,19,female
61,bc,3,68,lh,ll,FALSE,2282,19,female
61,bc,3,69,hl,lh,FALSE,5628.8,19,female
61,bc,3,70,hh,hh,TRUE,2354.3,19,female
61,bc,3,71,lh,lh,TRUE,5597.802,19,female
61,bc,3,72,hl,lh,FALSE,8034.4,19,female
61,bc,3,73,ll,ll,TRUE,8277.4,19,female
61,bc,3,74,hh,hh,TRUE,14437.3,19,female
61,bc,3,75,ll,ll,TRUE,1922.4,19,female
61,bc,3,76,lh,hh,FALSE,10867.4,19,female
61,bc,3,77,hh,hh,TRUE,2237,19,female
61,bc,3,78,hh,hh,TRUE,3711.3,19,female
61,bc,3,79,lh,hh,FALSE,5847,19,female
61,bc,3,80,hl,hh,FALSE,2545.9,19,female
61,bc,3,81,ll,hl,FALSE,14792.2,19,female
61,bc,3,82,ll,ll,TRUE,6871.2,19,female
61,bc,3,83,lh,hh,FALSE,5083.4,19,female
61,bc,3,84,lh,ll,FALSE,1880,19,female
61,bc,3,85,hl,ll,FALSE,3318.7,19,female
61,bc,3,86,hl,hh,FALSE,2982.4,19,female
61,bc,3,87,hl,hh,FALSE,3853.5,19,female
61,bc,3,88,hh,hh,TRUE,2668.1,19,female
61,bc,3,89,hh,hh,TRUE,4345.2,19,female
61,bc,3,90,hh,hh,TRUE,6372.9,19,female
61,bc,3,91,lh,hh,FALSE,6574,19,female
61,bc,3,92,ll,ll,TRUE,9248.3,19,female
61,bc,3,93,ll,ll,TRUE,12043.5,19,female
61,bc,3,94,hh,hh,TRUE,2001.5,19,female
61,bc,3,95,ll,hl,FALSE,3482.8999999999996,19,female
61,bc,3,96,hl,hh,FALSE,2824.3,19,female
61,bc,3,97,ll,ll,TRUE,6795.6,19,female
61,bc,3,98,lh,hh,FALSE,3287.6000000000004,19,female
61,bc,3,99,hh,hh,TRUE,3368.2,19,female
61,bc,3,100,hh,hh,TRUE,1709.8000000000002,19,female
61,bc,3,101,hh,hh,TRUE,1061.1999999999998,19,female
61,bc,3,102,hh,hl,FALSE,4870.2,19,female
61,bc,3,103,hh,hh,TRUE,4363.046,19,female
61,bc,3,104,hh,hh,TRUE,3716.2,19,female
61,bc,3,105,hl,ll,FALSE,3049.4,19,female
61,bc,3,106,hl,hh,FALSE,3560,19,female
61,bc,3,107,hl,hh,FALSE,6546.7,19,female
61,bc,3,108,lh,ll,FALSE,7694.200000000001,19,female
61,bc,3,109,lh,hh,FALSE,2611.8,19,female
61,bc,3,110,ll,ll,TRUE,3092.6,19,female
61,bc,3,111,hl,hh,FALSE,3171,19,female
61,bc,3,112,hh,hh,TRUE,6728.2,19,female
61,bc,3,113,ll,ll,TRUE,1846.6,19,female
61,bc,3,114,ll,lh,FALSE,7654.200000000001,19,female
61,bc,3,115,hh,hh,TRUE,1332.4,19,female
61,bc,3,116,lh,hh,FALSE,1834.6999999999998,19,female
61,bc,3,117,hh,hh,TRUE,1745.1,19,female
61,bc,3,118,ll,lh,FALSE,3381.6000000000004,19,female
61,bc,3,119,hl,lh,FALSE,9384.9,19,female
61,bc,3,120,,,FALSE,15013.1,19,female
61,bc,4,1,hh,hh,TRUE,9176.2,19,female
61,bc,4,2,lh,hh,FALSE,2878.2,19,female
61,bc,4,3,hh,hh,TRUE,4766.3,19,female
61,bc,4,4,hh,hh,TRUE,1836.1999999999998,19,female
61,bc,4,5,hh,hh,TRUE,2201.2,19,female
61,bc,4,6,lh,hl,FALSE,5344.2,19,female
61,bc,4,7,hh,hh,TRUE,2321.4,19,female
61,bc,4,8,lh,hh,FALSE,2606.9,19,female
61,bc,4,9,hh,hh,TRUE,9871.6,19,female
61,bc,4,10,ll,ll,TRUE,1909.1,19,female
61,bc,4,11,lh,hh,FALSE,7412.799999999999,19,female
61,bc,4,12,hl,ll,FALSE,5198.5,19,female
61,bc,4,13,ll,lh,FALSE,3156.5,19,female
61,bc,4,14,hh,hh,TRUE,2358.872,19,female
61,bc,4,15,hh,hh,TRUE,10273.6,19,female
61,bc,4,16,hl,ll,FALSE,12011.9,19,female
61,bc,4,17,hh,hh,TRUE,2060.9,19,female
61,bc,4,18,ll,ll,TRUE,2382.5,19,female
61,bc,4,19,hh,hh,TRUE,5742.4,19,female
61,bc,4,20,ll,hl,FALSE,11104.4,19,female
61,bc,4,21,lh,hh,FALSE,2839.3,19,female
61,bc,4,22,hl,hh,FALSE,1534.9,19,female
61,bc,4,23,hl,hl,TRUE,7290.700000000001,19,female
61,bc,4,24,ll,hl,FALSE,3402.3,19,female
61,bc,4,25,ll,ll,TRUE,8753.2,19,female
61,bc,4,26,hl,hh,FALSE,8087.1,19,female
61,bc,4,27,lh,lh,TRUE,10393.1,19,female
61,bc,4,28,hh,hh,TRUE,1885.3000000000002,19,female
61,bc,4,29,ll,ll,TRUE,9820,19,female
61,bc,4,30,lh,ll,FALSE,10342.2,19,female
61,bc,4,31,hl,hh,FALSE,6141.2,19,female
61,bc,4,32,hl,ll,FALSE,3250.9080000000004,19,female
61,bc,4,33,lh,ll,FALSE,14182.2,19,female
61,bc,4,34,hh,hl,FALSE,4302.7,19,female
61,bc,4,35,hh,hh,TRUE,1450.6,19,female
61,bc,4,36,hh,hh,TRUE,3996.5,19,female
61,bc,4,37,ll,ll,TRUE,4036.8,19,female
61,bc,4,38,ll,ll,TRUE,12245.004,19,female
61,bc,4,39,hl,hh,FALSE,4964.3,19,female
61,bc,4,40,lh,lh,TRUE,14197.3,19,female
61,bc,4,41,hl,lh,FALSE,8175.200000000001,19,female
61,bc,4,42,lh,hl,FALSE,3981,19,female
61,bc,4,43,lh,lh,TRUE,13031.1,19,female
61,bc,4,44,ll,hh,FALSE,3725.8,19,female
61,bc,4,45,lh,hh,FALSE,4002,19,female
61,bc,4,46,hh,hh,TRUE,5388,19,female
61,bc,4,47,,,FALSE,15013.5,19,female
61,bc,4,48,lh,hh,FALSE,8825.8,19,female
61,bc,4,49,hh,hh,TRUE,1569.1,19,female
61,bc,4,50,ll,ll,TRUE,7934.299999999999,19,female
61,bc,4,51,hl,ll,FALSE,9311.7,19,female
61,bc,4,52,hh,hh,TRUE,1109.9,19,female
61,bc,4,53,hl,hh,FALSE,1683.3000000000002,19,female
61,bc,4,54,hh,hh,TRUE,2741.1,19,female
61,bc,4,55,ll,ll,TRUE,2839.3,19,female
61,bc,4,56,ll,ll,TRUE,1662.5,19,female
61,bc,4,57,hl,ll,FALSE,2467.4,19,female
61,bc,4,58,hl,hl,TRUE,2775,19,female
61,bc,4,59,hh,hl,FALSE,2567,19,female
61,bc,4,60,hl,ll,FALSE,12059.9,19,female
61,bc,4,61,hh,hh,TRUE,1240.1,19,female
61,bc,4,62,hl,hl,TRUE,7348,19,female
61,bc,4,63,hh,hh,TRUE,4354.2,19,female
61,bc,4,64,hh,hh,TRUE,1390.1,19,female
61,bc,4,65,hh,hh,TRUE,1872.4,19,female
61,bc,4,66,lh,hl,FALSE,5822.7,19,female
61,bc,4,67,hl,hh,FALSE,1438.8000000000002,19,female
61,bc,4,68,,,FALSE,14879.73,19,female
61,bc,4,69,lh,ll,FALSE,8377.07,19,female
61,bc,4,70,lh,lh,TRUE,9908.564,19,female
61,bc,4,71,hh,hh,TRUE,1295.6999999999998,19,female
61,bc,4,72,hl,lh,FALSE,4077,19,female
61,bc,4,73,ll,ll,TRUE,1297.5,19,female
61,bc,4,74,hl,hh,FALSE,1721.6,19,female
61,bc,4,75,hh,hh,TRUE,4174.402,19,female
61,bc,4,76,hh,hh,TRUE,7050.2,19,female
61,bc,4,77,lh,hh,FALSE,2875.3,19,female
61,bc,4,78,ll,ll,TRUE,3553.8,19,female
61,bc,4,79,hl,hh,FALSE,3309.7,19,female
61,bc,4,80,ll,ll,TRUE,12050.2,19,female
61,bc,4,81,hh,hh,TRUE,1056.6,19,female
61,bc,4,82,hh,hh,TRUE,1809.9,19,female
61,bc,4,83,hl,ll,FALSE,3314.8,19,female
61,bc,4,84,hl,ll,FALSE,4504.8,19,female
61,bc,4,85,hh,hh,TRUE,1259.6,19,female
61,bc,4,86,hh,hh,TRUE,3043.9,19,female
61,bc,4,87,hh,hh,TRUE,1220.6999999999998,19,female
61,bc,4,88,lh,ll,FALSE,3770.6000000000004,19,female
61,bc,4,89,ll,hl,FALSE,10876.7,19,female
61,bc,4,90,lh,hh,FALSE,7264.9,19,female
61,bc,4,91,hh,hh,TRUE,3934.8999999999996,19,female
61,bc,4,92,ll,ll,TRUE,8463.8,19,female
61,bc,4,93,ll,ll,TRUE,7154,19,female
61,bc,4,94,hh,hh,TRUE,2408,19,female
61,bc,4,95,ll,lh,FALSE,3282.3999999999996,19,female
61,bc,4,96,ll,ll,TRUE,1544.6,19,female
61,bc,4,97,lh,lh,TRUE,4707.9,19,female
61,bc,4,98,,,FALSE,15011.9,19,female
61,bc,4,99,hh,hh,TRUE,1711.9,19,female
61,bc,4,100,ll,ll,TRUE,4360.3,19,female
61,bc,4,101,hl,hh,FALSE,4993,19,female
61,bc,4,102,hh,hh,TRUE,6225.4,19,female
61,bc,4,103,,,FALSE,15013.1,19,female
61,bc,4,104,hl,hl,TRUE,13586.9,19,female
61,bc,4,105,hh,lh,FALSE,4276.7,19,female
61,bc,4,106,ll,ll,TRUE,4465.8,19,female
61,bc,4,107,ll,ll,TRUE,2392,19,female
61,bc,4,108,lh,hh,FALSE,4481.8,19,female
61,bc,4,109,hh,hh,TRUE,1045.8,19,female
61,bc,4,110,lh,hh,FALSE,3494.7,19,female
61,bc,4,111,lh,ll,FALSE,3060.4,19,female
61,bc,4,112,hl,hh,FALSE,1860.1,19,female
61,bc,4,113,ll,ll,TRUE,1458.5,19,female
61,bc,4,114,ll,hh,FALSE,4963.6,19,female
61,bc,4,115,lh,ll,FALSE,1972.1999999999998,19,female
61,bc,4,116,hl,hh,FALSE,2576.8,19,female
61,bc,4,117,lh,hh,FALSE,1682,19,female
61,bc,4,118,lh,ll,FALSE,9095.1,19,female
61,bc,4,119,hh,hh,TRUE,1551.6,19,female
61,bc,4,120,hl,hh,FALSE,10351.2,19,female
61,bc,5,1,hl,lh,FALSE,4591.7,19,female
61,bc,5,2,lh,ll,FALSE,6710.4,19,female
61,bc,5,3,lh,hl,FALSE,3614.3,19,female
61,bc,5,4,hh,lh,FALSE,4622.1,19,female
61,bc,5,5,ll,ll,TRUE,4048.2,19,female
61,bc,5,6,lh,lh,TRUE,6216,19,female
61,bc,5,7,hl,hh,FALSE,3178.3999999999996,19,female
61,bc,5,8,hh,hh,TRUE,1892.8000000000002,19,female
61,bc,5,9,hh,hh,TRUE,2020.1,19,female
61,bc,5,10,lh,hh,FALSE,1916.4,19,female
61,bc,5,11,lh,hh,FALSE,3208.8999999999996,19,female
61,bc,5,12,ll,ll,TRUE,8738.8,19,female
61,bc,5,13,lh,lh,TRUE,8057.700000000001,19,female
61,bc,5,14,hl,hl,TRUE,4556,19,female
61,bc,5,15,hl,hh,FALSE,2144,19,female
61,bc,5,16,lh,ll,FALSE,13956.2,19,female
61,bc,5,17,hh,hh,TRUE,1429.6,19,female
61,bc,5,18,ll,ll,TRUE,7688.200000000001,19,female
61,bc,5,19,ll,ll,TRUE,1971.8000000000002,19,female
61,bc,5,20,,,FALSE,15013.3,19,female
61,bc,5,21,hh,hh,TRUE,1560.3000000000002,19,female
61,bc,5,22,hl,ll,FALSE,2222.4,19,female
61,bc,5,23,hh,hh,TRUE,1679.5,19,female
61,bc,5,24,hl,ll,FALSE,2877,19,female
61,bc,5,25,hh,hh,TRUE,1219.6,19,female
61,bc,5,26,hl,hh,FALSE,1773.4,19,female
61,bc,5,27,hl,ll,FALSE,943.8,19,female
61,bc,5,28,ll,ll,TRUE,3076.5,19,female
61,bc,5,29,ll,ll,TRUE,4916,19,female
61,bc,5,30,lh,ll,FALSE,1587.536,19,female
61,bc,5,31,hh,hh,TRUE,946.7,19,female
61,bc,5,32,lh,lh,TRUE,2838.972,19,female
61,bc,5,33,hl,hh,FALSE,2560.3,19,female
61,bc,5,34,ll,hh,FALSE,1712.1999999999998,19,female
61,bc,5,35,hl,hh,FALSE,1512.9,19,female
61,bc,5,36,ll,ll,TRUE,1568.5,19,female
61,bc,5,37,hl,hh,FALSE,1303.5,19,female
61,bc,5,38,lh,lh,TRUE,8073.200000000001,19,female
61,bc,5,39,hl,hh,FALSE,4846.3,19,female
61,bc,5,40,hh,hh,TRUE,1260.1,19,female
61,bc,5,41,lh,ll,FALSE,3049.9,19,female
61,bc,5,42,hl,ll,FALSE,4889.4,19,female
61,bc,5,43,hh,hh,TRUE,973.5,19,female
61,bc,5,44,ll,lh,FALSE,5456.4,19,female
61,bc,5,45,hh,hh,TRUE,1070.6,19,female
61,bc,5,46,hh,hh,TRUE,5598.7,19,female
61,bc,5,47,lh,ll,FALSE,8867,19,female
61,bc,5,48,hl,lh,FALSE,3784.3,19,female
61,bc,5,49,ll,ll,TRUE,1786,19,female
61,bc,5,50,hh,hh,TRUE,1212.6999999999998,19,female
61,bc,5,51,hh,hh,TRUE,1767.6999999999998,19,female
61,bc,5,52,hh,hh,TRUE,1531.5,19,female
61,bc,5,53,hh,hh,TRUE,2038.8000000000002,19,female
61,bc,5,54,ll,ll,TRUE,1377.304,19,female
61,bc,5,55,lh,hh,FALSE,1520.844,19,female
61,bc,5,56,,,FALSE,15013.1,19,female
61,bc,5,57,hh,hh,TRUE,1301,19,female
61,bc,5,58,hh,hh,TRUE,1003.8,19,female
61,bc,5,59,ll,ll,TRUE,3198.8,19,female
61,bc,5,60,lh,hh,FALSE,5304.1,19,female
61,bc,5,61,hh,hh,TRUE,2230.2,19,female
61,bc,5,62,hl,ll,FALSE,8652.6,19,female
61,bc,5,63,ll,lh,FALSE,5622.8,19,female
61,bc,5,64,lh,ll,FALSE,2173.6,19,female
61,bc,5,65,lh,hh,FALSE,1424.4,19,female
61,bc,5,66,hl,hh,FALSE,2978.8,19,female
61,bc,5,67,hh,hh,TRUE,1476.1,19,female
61,bc,5,68,ll,ll,TRUE,2291.9,19,female
61,bc,5,69,hh,hh,TRUE,881.7,19,female
61,bc,5,70,hh,hh,TRUE,1097.6,19,female
61,bc,5,71,hl,lh,FALSE,4376.4,19,female
61,bc,5,72,hh,hh,TRUE,1297.1999999999998,19,female
61,bc,5,73,lh,lh,TRUE,3272.3,19,female
61,bc,5,74,hh,hh,TRUE,894.7,19,female
61,bc,5,75,lh,lh,TRUE,9206.1,19,female
61,bc,5,76,hl,hl,TRUE,4457.704,19,female
61,bc,5,77,hh,hh,TRUE,1951.6999999999998,19,female
61,bc,5,78,lh,hh,FALSE,2621.2,19,female
61,bc,5,79,hh,hh,TRUE,927.7,19,female
61,bc,5,80,hl,ll,FALSE,2211.6,19,female
61,bc,5,81,hh,hh,TRUE,1524.3000000000002,19,female
61,bc,5,82,lh,ll,FALSE,1602.4,19,female
61,bc,5,83,hl,hh,FALSE,1101.404,19,female
61,bc,5,84,hh,hh,TRUE,2747.3,19,female
61,bc,5,85,hh,hh,TRUE,1638.6,19,female
61,bc,5,86,lh,hh,FALSE,12750.9,19,female
61,bc,5,87,ll,ll,TRUE,1650.3000000000002,19,female
61,bc,5,88,lh,hh,FALSE,1419.8000000000002,19,female
61,bc,5,89,ll,ll,TRUE,9951.1,19,female
61,bc,5,90,lh,ll,FALSE,5490.4,19,female
61,bc,5,91,hh,hh,TRUE,2314.3,19,female
61,bc,5,92,hh,hh,TRUE,1005.0999999999999,19,female
61,bc,5,93,hl,hh,FALSE,1616.5,19,female
61,bc,5,94,ll,ll,TRUE,1044.4,19,female
61,bc,5,95,hl,ll,FALSE,4810,19,female
61,bc,5,96,hh,hh,TRUE,1074.4,19,female
61,bc,5,97,lh,hh,FALSE,924.4000000000001,19,female
61,bc,5,98,hh,lh,FALSE,6088.8,19,female
61,bc,5,99,,,FALSE,15013.4,19,female
61,bc,5,100,hl,hh,FALSE,3374.5,19,female
61,bc,5,101,lh,hh,FALSE,4080.8999999999996,19,female
61,bc,5,102,hl,hl,TRUE,4132.9,19,female
61,bc,5,103,hh,hh,TRUE,3096.2,19,female
61,bc,5,104,lh,hh,FALSE,1829,19,female
61,bc,5,105,ll,ll,TRUE,1570,19,female
61,bc,5,106,lh,hh,FALSE,5491.2,19,female
61,bc,5,107,hh,hh,TRUE,878.7,19,female
61,bc,5,108,lh,ll,FALSE,5574.8,19,female
61,bc,5,109,hh,hh,TRUE,1103.5,19,female
61,bc,5,110,hl,hh,FALSE,2329,19,female
61,bc,5,111,hl,ll,FALSE,1498.8000000000002,19,female
61,bc,5,112,hl,hh,FALSE,936.3,19,female
61,bc,5,113,ll,ll,TRUE,1119.1,19,female
61,bc,5,114,hl,hh,FALSE,814.3,19,female
61,bc,5,115,hl,hh,FALSE,2184.5,19,female
61,bc,5,116,hl,ll,FALSE,2374,19,female
61,bc,5,117,hl,hh,FALSE,5172.7,19,female
61,bc,5,118,hl,hh,FALSE,1081.8000000000002,19,female
61,bc,5,119,hh,hh,TRUE,4766.7,19,female
61,bc,5,120,lh,hh,FALSE,14871.2,19,female
