pID,condition,block_no,trial_no,stimulus,response,correct,rt,age,gender
36,ab,1,1,lh,hl,FALSE,7097.619,18,female
36,ab,1,2,hl,ll,FALSE,5124.854,18,female
36,ab,1,3,hh,hh,TRUE,2078.478,18,female
36,ab,1,4,hl,hl,TRUE,3875.6850000000004,18,female
36,ab,1,5,hl,hl,TRUE,3703.581,18,female
36,ab,1,6,hh,ll,FALSE,5940.997,18,female
36,ab,1,7,hl,hh,FALSE,2719.102,18,female
36,ab,1,8,hh,ll,FALSE,9427.419,18,female
36,ab,1,9,hl,hh,FALSE,3177.817,18,female
36,ab,1,10,hl,hh,FALSE,1930.5030000000002,18,female
36,ab,1,11,hh,hl,FALSE,5676.943,18,female
36,ab,1,12,hh,hh,TRUE,7585.768,18,female
36,ab,1,13,lh,ll,FALSE,3163.1499999999996,18,female
36,ab,1,14,lh,lh,TRUE,7131.179,18,female
36,ab,1,15,lh,ll,FALSE,2413.96,18,female
36,ab,1,16,ll,ll,TRUE,6228.817,18,female
36,ab,1,17,hh,hh,TRUE,2491.586,18,female
36,ab,1,18,lh,hl,FALSE,3736.416,18,female
36,ab,1,19,lh,ll,FALSE,1946.656,18,female
36,ab,1,20,hh,ll,FALSE,1461.5120000000002,18,female
36,ab,1,21,ll,lh,FALSE,2523.56,18,female
36,ab,1,22,lh,hh,FALSE,3966.2039999999997,18,female
36,ab,1,23,hl,lh,FALSE,5831.076,18,female
36,ab,1,24,lh,hh,FALSE,7382.118,18,female
36,ab,1,25,lh,lh,TRUE,10622.543,18,female
36,ab,1,26,hh,hh,TRUE,5933.868,18,female
36,ab,1,27,ll,hh,FALSE,238.8030000000001,18,female
36,ab,1,28,hl,hh,FALSE,232.4280000000001,18,female
36,ab,1,29,ll,hh,FALSE,254.2729999999999,18,female
36,ab,1,30,ll,hh,FALSE,203.1679999999999,18,female
36,ab,1,31,hh,ll,FALSE,5610.547,18,female
36,ab,1,32,lh,ll,FALSE,4610.239,18,female
36,ab,1,33,lh,hl,FALSE,2329.306,18,female
36,ab,1,34,lh,lh,TRUE,2859.776,18,female
36,ab,1,35,lh,hl,FALSE,7104.355,18,female
36,ab,1,36,hl,hh,FALSE,2148.196,18,female
36,ab,1,37,lh,hh,FALSE,7790.221,18,female
36,ab,1,38,hh,hl,FALSE,3663.9530000000004,18,female
36,ab,1,39,hl,ll,FALSE,4292.242,18,female
36,ab,1,40,hl,ll,FALSE,12335.525,18,female
36,ab,1,41,lh,ll,FALSE,1147.3180000000002,18,female
36,ab,1,42,lh,lh,TRUE,3325.499,18,female
36,ab,1,43,hl,hh,FALSE,1814.2060000000001,18,female
36,ab,1,44,ll,hl,FALSE,4240.097,18,female
36,ab,1,45,ll,hh,FALSE,1750.7420000000002,18,female
36,ab,1,46,hl,hh,FALSE,1975.6,18,female
36,ab,1,47,hl,hh,FALSE,1119.27,18,female
36,ab,1,48,hl,hh,FALSE,1851.527,18,female
36,ab,1,49,hh,hh,TRUE,11721.781,18,female
36,ab,1,50,ll,lh,FALSE,3173.781,18,female
36,ab,1,51,hh,hl,FALSE,3926.902,18,female
36,ab,1,52,ll,hl,FALSE,232.721,18,female
36,ab,1,53,hl,hl,TRUE,260.18499999999995,18,female
36,ab,1,54,hh,hl,FALSE,248.94000000000005,18,female
36,ab,1,55,hl,ll,FALSE,2882.7,18,female
36,ab,1,56,lh,hl,FALSE,3671.602,18,female
36,ab,1,57,lh,ll,FALSE,2012.3719999999998,18,female
36,ab,1,58,hl,hh,FALSE,2019.3519999999999,18,female
36,ab,1,59,lh,lh,TRUE,6883.24,18,female
36,ab,1,60,lh,hl,FALSE,6335.705,18,female
36,ab,1,61,ll,lh,FALSE,2898.184,18,female
36,ab,1,62,hh,hh,TRUE,5111.082,18,female
36,ab,1,63,hh,lh,FALSE,3681.0870000000004,18,female
36,ab,1,64,lh,ll,FALSE,3087.454,18,female
36,ab,1,65,lh,hl,FALSE,8395.104,18,female
36,ab,1,66,ll,hh,FALSE,4683.095,18,female
36,ab,1,67,ll,ll,TRUE,3488.8860000000004,18,female
36,ab,1,68,lh,ll,FALSE,1525.5369999999998,18,female
36,ab,1,69,hh,hh,TRUE,2501.853,18,female
36,ab,1,70,lh,ll,FALSE,2019.1619999999998,18,female
36,ab,1,71,lh,ll,FALSE,1618.219,18,female
36,ab,1,72,ll,hl,FALSE,3649.6319999999996,18,female
36,ab,1,73,ll,ll,TRUE,4303.301,18,female
36,ab,1,74,lh,hh,FALSE,4252.71,18,female
36,ab,1,75,,,FALSE,14783.296,18,female
36,ab,1,76,ll,ll,TRUE,2571.538,18,female
36,ab,1,77,ll,ll,TRUE,3387.379,18,female
36,ab,1,78,ll,hh,FALSE,2269.486,18,female
36,ab,1,79,hh,ll,FALSE,2474.079,18,female
36,ab,1,80,ll,hh,FALSE,2238.591,18,female
36,ab,1,81,hl,hl,TRUE,6094.949,18,female
36,ab,1,82,hh,hh,TRUE,2866.855,18,female
36,ab,1,83,hh,hh,TRUE,3472.357,18,female
36,ab,1,84,hh,lh,FALSE,2397.414,18,female
36,ab,1,85,ll,ll,TRUE,13819.985,18,female
36,ab,1,86,lh,ll,FALSE,4996.81,18,female
36,ab,1,87,ll,lh,FALSE,2027.659,18,female
36,ab,1,88,lh,lh,TRUE,2994.596,18,female
36,ab,1,89,lh,hl,FALSE,5915.647,18,female
36,ab,1,90,ll,hl,FALSE,4717.501,18,female
36,ab,1,91,lh,hh,FALSE,1768.8490000000002,18,female
36,ab,1,92,hh,hh,TRUE,1449.991,18,female
36,ab,1,93,lh,ll,FALSE,1600.0300000000002,18,female
36,ab,1,94,hh,hh,TRUE,2904.845,18,female
36,ab,1,95,hl,hl,TRUE,7172.936,18,female
36,ab,1,96,ll,ll,TRUE,3541.5290000000005,18,female
36,ab,1,97,lh,hh,FALSE,2296.034,18,female
36,ab,1,98,ll,hl,FALSE,12692.924,18,female
36,ab,1,99,hl,lh,FALSE,3721.0609999999997,18,female
36,ab,1,100,ll,hl,FALSE,3619.4669999999996,18,female
36,ab,1,101,lh,ll,FALSE,1354.7510000000002,18,female
36,ab,1,102,ll,hl,FALSE,4069.1800000000003,18,female
36,ab,1,103,hl,hh,FALSE,1778.2489999999998,18,female
36,ab,1,104,hl,lh,FALSE,2475.331,18,female
36,ab,1,105,hl,hh,FALSE,2088.67,18,female
36,ab,1,106,hh,ll,FALSE,1669.6329999999998,18,female
36,ab,1,107,hl,ll,FALSE,3084.488,18,female
36,ab,1,108,hl,hh,FALSE,4335.708,18,female
36,ab,1,109,hl,hh,FALSE,1314.886,18,female
36,ab,1,110,hh,lh,FALSE,4436.817,18,female
36,ab,1,111,hh,hl,FALSE,3612.3100000000004,18,female
36,ab,1,112,hl,lh,FALSE,2130.512,18,female
36,ab,1,113,hl,hh,FALSE,10958.549,18,female
36,ab,1,114,lh,ll,FALSE,2229.41,18,female
36,ab,1,115,lh,ll,FALSE,1142.2020000000002,18,female
36,ab,1,116,hh,lh,FALSE,6270.425,18,female
36,ab,1,117,hl,hh,FALSE,5725.786,18,female
36,ab,1,118,,,FALSE,14800.133,18,female
36,ab,1,119,hh,ll,FALSE,2055.178,18,female
36,ab,1,120,hl,ll,FALSE,2326.191,18,female
36,ab,2,1,hh,hh,TRUE,6607.287,18,female
36,ab,2,2,hl,hh,FALSE,2967.462,18,female
36,ab,2,3,ll,hh,FALSE,2977.88,18,female
36,ab,2,4,lh,hh,FALSE,1953.7759999999998,18,female
36,ab,2,5,ll,ll,TRUE,2228.295,18,female
36,ab,2,6,ll,hl,FALSE,4042.7309999999998,18,female
36,ab,2,7,hh,hh,TRUE,3376.6949999999997,18,female
36,ab,2,8,hh,lh,FALSE,11313.492,18,female
36,ab,2,9,ll,ll,TRUE,2620.472,18,female
36,ab,2,10,lh,lh,TRUE,8299.462,18,female
36,ab,2,11,ll,hl,FALSE,4328.373,18,female
36,ab,2,12,hl,ll,FALSE,3186.809,18,female
36,ab,2,13,lh,hh,FALSE,3099.643,18,female
36,ab,2,14,hl,hh,FALSE,2438.224,18,female
36,ab,2,15,hh,hl,FALSE,4933.397,18,female
36,ab,2,16,hl,hh,FALSE,3905.009,18,female
36,ab,2,17,lh,hl,FALSE,5955.731,18,female
36,ab,2,18,hl,ll,FALSE,6454.138,18,female
36,ab,2,19,ll,ll,TRUE,1027.533,18,female
36,ab,2,20,hh,hh,TRUE,4882.528,18,female
36,ab,2,21,ll,ll,TRUE,6648.297,18,female
36,ab,2,22,ll,ll,TRUE,1143.319,18,female
36,ab,2,23,lh,hl,FALSE,3144.6049999999996,18,female
36,ab,2,24,ll,ll,TRUE,3072.919,18,female
36,ab,2,25,ll,ll,TRUE,12070.544,18,female
36,ab,2,26,ll,ll,TRUE,2428.051,18,female
36,ab,2,27,hl,ll,FALSE,7035.991,18,female
36,ab,2,28,lh,hl,FALSE,2626.466,18,female
36,ab,2,29,lh,lh,TRUE,3671.974,18,female
36,ab,2,30,lh,ll,FALSE,11557.933,18,female
36,ab,2,31,hl,lh,FALSE,9439.898,18,female
36,ab,2,32,lh,ll,FALSE,12351.751,18,female
36,ab,2,33,lh,lh,TRUE,4191.445,18,female
36,ab,2,34,hl,lh,FALSE,3248.562,18,female
36,ab,2,35,hh,hh,TRUE,4799.166,18,female
36,ab,2,36,hh,hh,TRUE,3224.2389999999996,18,female
36,ab,2,37,lh,ll,FALSE,1366.911,18,female
36,ab,2,38,hl,hh,FALSE,4831.429,18,female
36,ab,2,39,hl,lh,FALSE,3614.8410000000003,18,female
36,ab,2,40,hl,hh,FALSE,2030.3270000000002,18,female
36,ab,2,41,lh,ll,FALSE,3067.646,18,female
36,ab,2,42,ll,ll,TRUE,1561.583,18,female
36,ab,2,43,lh,hh,FALSE,2362.522,18,female
36,ab,2,44,hl,hh,FALSE,2059.866,18,female
36,ab,2,45,ll,ll,TRUE,1530.1149999999998,18,female
36,ab,2,46,hh,hl,FALSE,3965.0339999999997,18,female
36,ab,2,47,lh,ll,FALSE,1286.576,18,female
36,ab,2,48,hl,hh,FALSE,1849.6329999999998,18,female
36,ab,2,49,hl,hh,FALSE,1559.5140000000001,18,female
36,ab,2,50,lh,hl,FALSE,8104.111999999999,18,female
36,ab,2,51,hh,hh,TRUE,3029.074,18,female
36,ab,2,52,lh,ll,FALSE,6795.661,18,female
36,ab,2,53,hl,hh,FALSE,2324.745,18,female
36,ab,2,54,ll,ll,TRUE,12032.763,18,female
36,ab,2,55,hh,hh,TRUE,3757.321,18,female
36,ab,2,56,lh,hl,FALSE,8183.759,18,female
36,ab,2,57,lh,ll,FALSE,3633.812,18,female
36,ab,2,58,hh,ll,FALSE,1368.46,18,female
36,ab,2,59,lh,ll,FALSE,1281.728,18,female
36,ab,2,60,hl,hh,FALSE,1044.955,18,female
36,ab,2,61,hl,hh,FALSE,1050.846,18,female
36,ab,2,62,hl,hl,TRUE,2858.351,18,female
36,ab,2,63,lh,ll,FALSE,2071.982,18,female
36,ab,2,64,hh,ll,FALSE,10868.158,18,female
36,ab,2,65,hh,ll,FALSE,2257.654,18,female
36,ab,2,66,hh,hh,TRUE,2153.564,18,female
36,ab,2,67,hh,hl,FALSE,2938.24,18,female
36,ab,2,68,hh,hh,TRUE,1357.453,18,female
36,ab,2,69,lh,hl,FALSE,8383.125,18,female
36,ab,2,70,hh,ll,FALSE,1367.7649999999999,18,female
36,ab,2,71,hl,hh,FALSE,1465.882,18,female
36,ab,2,72,ll,hl,FALSE,8677.714,18,female
36,ab,2,73,hl,lh,FALSE,9554.076,18,female
36,ab,2,74,hl,hl,TRUE,3701.5820000000003,18,female
36,ab,2,75,hh,hh,TRUE,3184.2380000000003,18,female
36,ab,2,76,hl,hh,FALSE,1289.1619999999998,18,female
36,ab,2,77,ll,ll,TRUE,1165.777,18,female
36,ab,2,78,hl,hh,FALSE,1007.0360000000001,18,female
36,ab,2,79,ll,lh,FALSE,2335.547,18,female
36,ab,2,80,hh,hh,TRUE,1273.629,18,female
36,ab,2,81,ll,hh,FALSE,2056.947,18,female
36,ab,2,82,ll,ll,TRUE,1205.2130000000002,18,female
36,ab,2,83,hl,lh,FALSE,2788.807,18,female
36,ab,2,84,lh,ll,FALSE,3373.38,18,female
36,ab,2,85,ll,lh,FALSE,4703.612,18,female
36,ab,2,86,hh,ll,FALSE,1394.8899999999999,18,female
36,ab,2,87,ll,ll,TRUE,1572.112,18,female
36,ab,2,88,hh,hh,TRUE,8078.098,18,female
36,ab,2,89,lh,ll,FALSE,9570.604,18,female
36,ab,2,90,hh,hh,TRUE,1554.438,18,female
36,ab,2,91,hh,hh,TRUE,1189.2930000000001,18,female
36,ab,2,92,hh,hh,TRUE,2549.914,18,female
36,ab,2,93,hl,hh,FALSE,1240.4250000000002,18,female
36,ab,2,94,lh,ll,FALSE,1821.6599999999999,18,female
36,ab,2,95,ll,ll,TRUE,4350.568,18,female
36,ab,2,96,hl,hh,FALSE,1518.926,18,female
36,ab,2,97,lh,hl,FALSE,2898.314,18,female
36,ab,2,98,hl,hh,FALSE,1118.2849999999999,18,female
36,ab,2,99,hl,hh,FALSE,1065.388,18,female
36,ab,2,100,hh,lh,FALSE,2064.271,18,female
36,ab,2,101,lh,ll,FALSE,1196.1399999999999,18,female
36,ab,2,102,hh,hh,TRUE,3453.135,18,female
36,ab,2,103,lh,hl,FALSE,6482.871,18,female
36,ab,2,104,ll,hl,FALSE,3167.0959999999995,18,female
36,ab,2,105,hh,hh,TRUE,1746.6260000000002,18,female
36,ab,2,106,hl,lh,FALSE,2426.157,18,female
36,ab,2,107,lh,ll,FALSE,2209.45,18,female
36,ab,2,108,ll,ll,TRUE,1287.895,18,female
36,ab,2,109,ll,lh,FALSE,6444.822,18,female
36,ab,2,110,ll,lh,FALSE,231.36300000000006,18,female
36,ab,2,111,lh,lh,TRUE,209.95299999999997,18,female
36,ab,2,112,ll,lh,FALSE,237.92499999999995,18,female
36,ab,2,113,hh,lh,FALSE,231.5039999999999,18,female
36,ab,2,114,lh,lh,TRUE,222.673,18,female
36,ab,2,115,hl,lh,FALSE,214.3030000000001,18,female
36,ab,2,116,hl,lh,FALSE,222.56799999999998,18,female
36,ab,2,117,hh,lh,FALSE,215.37699999999995,18,female
36,ab,2,118,ll,lh,FALSE,253.39200000000005,18,female
36,ab,2,119,hl,hh,FALSE,4303.755,18,female
36,ab,2,120,ll,ll,TRUE,2196.469,18,female
36,ab,3,1,hh,ll,FALSE,5941.991,18,female
36,ab,3,2,ll,ll,TRUE,2386.32,18,female
36,ab,3,3,hh,hl,FALSE,6265.454,18,female
36,ab,3,4,hh,hl,FALSE,3302.924,18,female
36,ab,3,5,lh,ll,FALSE,3979.626,18,female
36,ab,3,6,hh,hh,TRUE,4483.879,18,female
36,ab,3,7,ll,ll,TRUE,7400.258,18,female
36,ab,3,8,ll,hl,FALSE,6434.145,18,female
36,ab,3,9,ll,ll,TRUE,1447.721,18,female
36,ab,3,10,ll,hh,FALSE,2166.18,18,female
36,ab,3,11,ll,hh,FALSE,2574.424,18,female
36,ab,3,12,ll,hh,FALSE,1969.636,18,female
36,ab,3,13,lh,hh,FALSE,10081.486,18,female
36,ab,3,14,ll,hl,FALSE,2959.423,18,female
36,ab,3,15,lh,ll,FALSE,1254.3829999999998,18,female
36,ab,3,16,hh,hh,TRUE,1788.531,18,female
36,ab,3,17,ll,ll,TRUE,10637.711,18,female
36,ab,3,18,hh,hh,TRUE,1619.955,18,female
36,ab,3,19,lh,ll,FALSE,1709.964,18,female
36,ab,3,20,hl,hh,FALSE,6166.847,18,female
36,ab,3,21,hl,hh,FALSE,8056.132,18,female
36,ab,3,22,hl,hh,FALSE,1430.1239999999998,18,female
36,ab,3,23,hh,hh,TRUE,9367.006,18,female
36,ab,3,24,lh,hh,FALSE,8446.99,18,female
36,ab,3,25,,,FALSE,14800.19,18,female
36,ab,3,26,ll,hl,FALSE,3835.7079999999996,18,female
36,ab,3,27,ll,ll,TRUE,4004.5739999999996,18,female
36,ab,3,28,ll,hh,FALSE,4290.817,18,female
36,ab,3,29,ll,lh,FALSE,3712.514,18,female
36,ab,3,30,hl,hh,FALSE,1194.6640000000002,18,female
36,ab,3,31,hl,hh,FALSE,1036.271,18,female
36,ab,3,32,hh,ll,FALSE,1433.442,18,female
36,ab,3,33,ll,ll,TRUE,4778.742,18,female
36,ab,3,34,hl,ll,FALSE,1826.8519999999999,18,female
36,ab,3,35,ll,hl,FALSE,2119.285,18,female
36,ab,3,36,hh,hh,TRUE,8003.031999999999,18,female
36,ab,3,37,lh,ll,FALSE,2532.595,18,female
36,ab,3,38,hl,ll,FALSE,1285.1840000000002,18,female
36,ab,3,39,ll,ll,TRUE,1018.5630000000001,18,female
36,ab,3,40,ll,hh,FALSE,2409.564,18,female
36,ab,3,41,lh,ll,FALSE,1033.554,18,female
36,ab,3,42,ll,hl,FALSE,2160.605,18,female
36,ab,3,43,hl,hh,FALSE,1576.467,18,female
36,ab,3,44,hh,hh,TRUE,3156.1800000000003,18,female
36,ab,3,45,hl,hh,FALSE,1699.6509999999998,18,female
36,ab,3,46,lh,ll,FALSE,5471.314,18,female
36,ab,3,47,hh,ll,FALSE,246.24,18,female
36,ab,3,48,hl,ll,FALSE,2705.992,18,female
36,ab,3,49,ll,ll,TRUE,1270.5169999999998,18,female
36,ab,3,50,hh,hh,TRUE,9788.929,18,female
36,ab,3,51,hl,hl,TRUE,2517.365,18,female
36,ab,3,52,hh,ll,FALSE,12454.88,18,female
36,ab,3,53,ll,ll,TRUE,1213.601,18,female
36,ab,3,54,hl,hh,FALSE,2740.597,18,female
36,ab,3,55,hh,hh,TRUE,14048.417,18,female
36,ab,3,56,hh,hl,FALSE,2253.836,18,female
36,ab,3,57,hh,hl,FALSE,2482.438,18,female
36,ab,3,58,lh,hl,FALSE,4440.801,18,female
36,ab,3,59,hl,hl,TRUE,6222.252,18,female
36,ab,3,60,lh,hh,FALSE,1903.005,18,female
36,ab,3,61,hl,lh,FALSE,10065.742,18,female
36,ab,3,62,hh,hh,TRUE,1742.489,18,female
36,ab,3,63,hl,hh,FALSE,11263.612,18,female
36,ab,3,64,hh,hh,TRUE,10037.86,18,female
36,ab,3,65,lh,ll,FALSE,3150.7839999999997,18,female
36,ab,3,66,hh,ll,FALSE,10799.327,18,female
36,ab,3,67,ll,hl,FALSE,5710.811,18,female
36,ab,3,68,hh,hh,TRUE,1818.5390000000002,18,female
36,ab,3,69,,,FALSE,14833.394,18,female
36,ab,3,70,ll,hh,FALSE,3705.532,18,female
36,ab,3,71,hh,hh,TRUE,1252.4099999999999,18,female
36,ab,3,72,hh,hh,TRUE,1634.8380000000002,18,female
36,ab,3,73,ll,hh,FALSE,7784.817999999999,18,female
36,ab,3,74,hl,hh,FALSE,2401.655,18,female
36,ab,3,75,hl,hh,FALSE,1282.576,18,female
36,ab,3,76,hh,ll,FALSE,1093.877,18,female
36,ab,3,77,hh,hh,TRUE,1283.6309999999999,18,female
36,ab,3,78,ll,hh,FALSE,2151.445,18,female
36,ab,3,79,hl,hh,FALSE,2154.758,18,female
36,ab,3,80,ll,ll,TRUE,4098.223,18,female
36,ab,3,81,hl,lh,FALSE,2446.55,18,female
36,ab,3,82,hl,lh,FALSE,5862.636,18,female
36,ab,3,83,lh,lh,TRUE,5289.687,18,female
36,ab,3,84,hl,ll,FALSE,4655.341,18,female
36,ab,3,85,hl,hh,FALSE,1062.5189999999998,18,female
36,ab,3,86,hh,hh,TRUE,1497.993,18,female
36,ab,3,87,lh,hh,FALSE,1439.487,18,female
36,ab,3,88,ll,lh,FALSE,2174.432,18,female
36,ab,3,89,ll,ll,TRUE,1741.9160000000002,18,female
36,ab,3,90,hh,hh,TRUE,1362.538,18,female
36,ab,3,91,hh,hh,TRUE,1258.498,18,female
36,ab,3,92,hh,hh,TRUE,1032.84,18,female
36,ab,3,93,hh,hh,TRUE,1758.228,18,female
36,ab,3,94,hl,ll,FALSE,12450.64,18,female
36,ab,3,95,lh,lh,TRUE,4472.479,18,female
36,ab,3,96,lh,ll,FALSE,14556.246,18,female
36,ab,3,97,hl,ll,FALSE,10596.714,18,female
36,ab,3,98,hh,hh,TRUE,4215.55,18,female
36,ab,3,99,lh,hh,FALSE,233.36400000000003,18,female
36,ab,3,100,lh,hh,FALSE,288.51800000000003,18,female
36,ab,3,101,hh,hh,TRUE,227.59300000000007,18,female
36,ab,3,102,hl,hh,FALSE,2417.639,18,female
36,ab,3,103,hh,ll,FALSE,1325.8339999999998,18,female
36,ab,3,104,hl,lh,FALSE,2400.645,18,female
36,ab,3,105,ll,ll,TRUE,1544.594,18,female
36,ab,3,106,ll,ll,TRUE,908.623,18,female
36,ab,3,107,lh,hl,FALSE,5404.568,18,female
36,ab,3,108,hl,ll,FALSE,845.96,18,female
36,ab,3,109,hh,ll,FALSE,1363.538,18,female
36,ab,3,110,lh,ll,FALSE,1414.165,18,female
36,ab,3,111,hl,hl,TRUE,2743.798,18,female
36,ab,3,112,hh,hh,TRUE,1112.266,18,female
36,ab,3,113,hl,hh,FALSE,2945.201,18,female
36,ab,3,114,ll,ll,TRUE,1141.1129999999998,18,female
36,ab,3,115,,,FALSE,14783.329,18,female
36,ab,3,116,hh,ll,FALSE,496.0450000000001,18,female
36,ab,3,117,ll,ll,TRUE,1076.1439999999998,18,female
36,ab,3,118,lh,ll,FALSE,1250.534,18,female
36,ab,3,119,ll,ll,TRUE,878.047,18,female
36,ab,3,120,lh,hh,FALSE,1692.1190000000001,18,female
36,ab,4,1,hl,hh,FALSE,1385.799,18,female
36,ab,4,2,ll,hl,FALSE,3211.759,18,female
36,ab,4,3,ll,hl,FALSE,1578.489,18,female
36,ab,4,4,hl,hh,FALSE,1467.6080000000002,18,female
36,ab,4,5,hl,hl,TRUE,2267.344,18,female
36,ab,4,6,lh,lh,TRUE,5422.847,18,female
36,ab,4,7,hh,hh,TRUE,3046.538,18,female
36,ab,4,8,ll,hl,FALSE,1644.5479999999998,18,female
36,ab,4,9,ll,ll,TRUE,5841.589,18,female
36,ab,4,10,ll,hl,FALSE,2303.621,18,female
36,ab,4,11,lh,hh,FALSE,4315.924,18,female
36,ab,4,12,ll,hl,FALSE,1335.0549999999998,18,female
36,ab,4,13,hh,hh,TRUE,2161.817,18,female
36,ab,4,14,hh,hh,TRUE,1660.7820000000002,18,female
36,ab,4,15,hh,hh,TRUE,1303.998,18,female
36,ab,4,16,lh,hl,FALSE,2550.595,18,female
36,ab,4,17,hh,hh,TRUE,1063.5349999999999,18,female
36,ab,4,18,lh,ll,FALSE,4068.55,18,female
36,ab,4,19,hh,hl,FALSE,3729.3239999999996,18,female
36,ab,4,20,hl,hh,FALSE,2149.106,18,female
36,ab,4,21,ll,ll,TRUE,3573.7749999999996,18,female
36,ab,4,22,hh,ll,FALSE,3674.2929999999997,18,female
36,ab,4,23,hh,ll,FALSE,3636.3779999999997,18,female
36,ab,4,24,hl,lh,FALSE,6042.874,18,female
36,ab,4,25,ll,hl,FALSE,4424.214,18,female
36,ab,4,26,hl,hh,FALSE,1632.3960000000002,18,female
36,ab,4,27,hl,hh,FALSE,1177,18,female
36,ab,4,28,ll,hh,FALSE,1096.683,18,female
36,ab,4,29,hh,hl,FALSE,3012.874,18,female
36,ab,4,30,lh,ll,FALSE,2060.671,18,female
36,ab,4,31,hl,hh,FALSE,1425.4560000000001,18,female
36,ab,4,32,ll,ll,TRUE,2270.737,18,female
36,ab,4,33,hl,ll,FALSE,1478.9679999999998,18,female
36,ab,4,34,hh,hl,FALSE,4040.992,18,female
36,ab,4,35,hh,hh,TRUE,1192.116,18,female
36,ab,4,36,ll,ll,TRUE,2155.455,18,female
36,ab,4,37,lh,hh,FALSE,1244.694,18,female
36,ab,4,38,hl,hh,FALSE,1368.094,18,female
36,ab,4,39,ll,hl,FALSE,3378.331,18,female
36,ab,4,40,hh,hh,TRUE,2052.309,18,female
36,ab,4,41,ll,lh,FALSE,3691.5919999999996,18,female
36,ab,4,42,lh,hh,FALSE,3839.076,18,female
36,ab,4,43,hl,hl,TRUE,3619.7120000000004,18,female
36,ab,4,44,hh,hh,TRUE,1005.029,18,female
36,ab,4,45,hl,ll,FALSE,5890.847,18,female
36,ab,4,46,lh,lh,TRUE,2255.215,18,female
36,ab,4,47,ll,ll,TRUE,4533.859,18,female
36,ab,4,48,lh,ll,FALSE,1128.255,18,female
36,ab,4,49,hh,hh,TRUE,1154.46,18,female
36,ab,4,50,ll,ll,TRUE,1189.5810000000001,18,female
36,ab,4,51,hl,hl,TRUE,2999.46,18,female
36,ab,4,52,lh,hl,FALSE,2006.449,18,female
36,ab,4,53,hh,hl,FALSE,2428.712,18,female
36,ab,4,54,lh,hh,FALSE,1451.6309999999999,18,female
36,ab,4,55,ll,lh,FALSE,1788.75,18,female
36,ab,4,56,hl,hh,FALSE,1346.0010000000002,18,female
36,ab,4,57,lh,ll,FALSE,1419.4360000000001,18,female
36,ab,4,58,ll,hh,FALSE,1492.458,18,female
36,ab,4,59,hl,hh,FALSE,1109.94,18,female
36,ab,4,60,hl,hl,TRUE,4668.394,18,female
36,ab,4,61,hh,hl,FALSE,4990.821,18,female
36,ab,4,62,ll,lh,FALSE,2831.806,18,female
36,ab,4,63,hh,ll,FALSE,1063.1329999999998,18,female
36,ab,4,64,hl,hl,TRUE,4619.336,18,female
36,ab,4,65,hl,hh,FALSE,1501.1170000000002,18,female
36,ab,4,66,hh,lh,FALSE,3338.1229999999996,18,female
36,ab,4,67,ll,ll,TRUE,1393.7109999999998,18,female
36,ab,4,68,lh,ll,FALSE,4233.802,18,female
36,ab,4,69,lh,ll,FALSE,2432.416,18,female
36,ab,4,70,lh,hh,FALSE,2270.875,18,female
36,ab,4,71,hl,lh,FALSE,4070.416,18,female
36,ab,4,72,lh,ll,FALSE,1546.9119999999998,18,female
36,ab,4,73,lh,hl,FALSE,2636.011,18,female
36,ab,4,74,lh,ll,FALSE,1186.1750000000002,18,female
36,ab,4,75,ll,ll,TRUE,2396.707,18,female
36,ab,4,76,hl,hh,FALSE,1979.152,18,female
36,ab,4,77,hh,hl,FALSE,3621.661,18,female
36,ab,4,78,hl,hh,FALSE,1188.2620000000002,18,female
36,ab,4,79,hh,hh,TRUE,1980.1260000000002,18,female
36,ab,4,80,ll,hh,FALSE,947.7090000000001,18,female
36,ab,4,81,hl,lh,FALSE,3407.9790000000003,18,female
36,ab,4,82,hh,hh,TRUE,2695.454,18,female
36,ab,4,83,hl,hh,FALSE,1394.534,18,female
36,ab,4,84,lh,hh,FALSE,1139.246,18,female
36,ab,4,85,hh,hh,TRUE,1109.196,18,female
36,ab,4,86,hh,hh,TRUE,5487.089,18,female
36,ab,4,87,lh,hh,FALSE,1813.125,18,female
36,ab,4,88,ll,hl,FALSE,1510.65,18,female
36,ab,4,89,hl,hl,TRUE,2864.048,18,female
36,ab,4,90,hl,hh,FALSE,2549.373,18,female
36,ab,4,91,hh,hh,TRUE,1009.434,18,female
36,ab,4,92,hh,lh,FALSE,3024.17,18,female
36,ab,4,93,ll,hh,FALSE,4094.098,18,female
36,ab,4,94,hh,ll,FALSE,2705.265,18,female
36,ab,4,95,lh,ll,FALSE,1255.56,18,female
36,ab,4,96,lh,lh,TRUE,3539.929,18,female
36,ab,4,97,ll,hl,FALSE,2008.7869999999998,18,female
36,ab,4,98,lh,hh,FALSE,4516.101,18,female
36,ab,4,99,hl,hh,FALSE,3201.068,18,female
36,ab,4,100,ll,hl,FALSE,1739.8319999999999,18,female
36,ab,4,101,hl,hh,FALSE,1108.8600000000001,18,female
36,ab,4,102,hl,hh,FALSE,1416.0169999999998,18,female
36,ab,4,103,hh,hh,TRUE,1985.3490000000002,18,female
36,ab,4,104,hl,hl,TRUE,3230.9530000000004,18,female
36,ab,4,105,hh,hh,TRUE,2037.205,18,female
36,ab,4,106,ll,hl,FALSE,2404.182,18,female
36,ab,4,107,ll,hl,FALSE,2035.859,18,female
36,ab,4,108,hl,hh,FALSE,1939.886,18,female
36,ab,4,109,hl,hl,TRUE,11902.388,18,female
36,ab,4,110,lh,ll,FALSE,1553.1660000000002,18,female
36,ab,4,111,hl,hl,TRUE,4180.785,18,female
36,ab,4,112,lh,ll,FALSE,3429.385,18,female
36,ab,4,113,ll,ll,TRUE,1027.493,18,female
36,ab,4,114,lh,lh,TRUE,4568.825,18,female
36,ab,4,115,hl,hh,FALSE,1146.0839999999998,18,female
36,ab,4,116,ll,hh,FALSE,1108.301,18,female
36,ab,4,117,hl,hh,FALSE,952.6210000000001,18,female
36,ab,4,118,lh,hh,FALSE,1579.9940000000001,18,female
36,ab,4,119,hh,lh,FALSE,4589.374,18,female
36,ab,4,120,lh,ll,FALSE,3427.666,18,female
36,ab,5,1,hl,ll,FALSE,2326.842,18,female
36,ab,5,2,ll,hh,FALSE,1463.6260000000002,18,female
36,ab,5,3,lh,ll,FALSE,2427.851,18,female
36,ab,5,4,lh,ll,FALSE,1006.8710000000001,18,female
36,ab,5,5,hl,hh,FALSE,1022.232,18,female
36,ab,5,6,hh,lh,FALSE,3618.272,18,female
36,ab,5,7,hh,ll,FALSE,7276.808999999999,18,female
36,ab,5,8,lh,ll,FALSE,2617.307,18,female
36,ab,5,9,hl,hl,TRUE,3192.2030000000004,18,female
36,ab,5,10,lh,ll,FALSE,1644.409,18,female
36,ab,5,11,hh,hh,TRUE,1237.9769999999999,18,female
36,ab,5,12,ll,hl,FALSE,2275.224,18,female
36,ab,5,13,hl,hh,FALSE,1440.6709999999998,18,female
36,ab,5,14,lh,hl,FALSE,3880.669,18,female
36,ab,5,15,lh,ll,FALSE,1322.96,18,female
36,ab,5,16,ll,ll,TRUE,2928.653,18,female
36,ab,5,17,ll,ll,TRUE,1985.7600000000002,18,female
36,ab,5,18,ll,hh,FALSE,4298.977,18,female
36,ab,5,19,ll,hh,FALSE,1976.2240000000002,18,female
36,ab,5,20,ll,ll,TRUE,1262.7779999999998,18,female
36,ab,5,21,lh,ll,FALSE,2739.759,18,female
36,ab,5,22,lh,hl,FALSE,3158.2200000000003,18,female
36,ab,5,23,lh,hh,FALSE,3457.8509999999997,18,female
36,ab,5,24,hl,hh,FALSE,3406.8379999999997,18,female
36,ab,5,25,lh,hl,FALSE,2527.201,18,female
36,ab,5,26,lh,ll,FALSE,1019.5630000000001,18,female
36,ab,5,27,ll,ll,TRUE,1409.4299999999998,18,female
36,ab,5,28,ll,hl,FALSE,6058.362,18,female
36,ab,5,29,ll,hh,FALSE,1224.525,18,female
36,ab,5,30,ll,ll,TRUE,1039.86,18,female
36,ab,5,31,lh,hh,FALSE,1526.855,18,female
36,ab,5,32,hh,hh,TRUE,1630.688,18,female
36,ab,5,33,hh,ll,FALSE,1469.73,18,female
36,ab,5,34,lh,hh,FALSE,2011.505,18,female
36,ab,5,35,ll,hh,FALSE,2777.268,18,female
36,ab,5,36,hh,hh,TRUE,1226.121,18,female
36,ab,5,37,hl,hl,TRUE,2266.222,18,female
36,ab,5,38,hh,ll,FALSE,1439.8649999999998,18,female
36,ab,5,39,lh,hl,FALSE,2455.305,18,female
36,ab,5,40,ll,hl,FALSE,2474.637,18,female
36,ab,5,41,lh,ll,FALSE,1105.4609999999998,18,female
36,ab,5,42,hl,hh,FALSE,5171.881,18,female
36,ab,5,43,lh,lh,TRUE,4925.584,18,female
36,ab,5,44,hl,hh,FALSE,1311.5439999999999,18,female
36,ab,5,45,ll,ll,TRUE,3818.831,18,female
36,ab,5,46,hl,hh,FALSE,6202.907,18,female
36,ab,5,47,lh,ll,FALSE,9786.605,18,female
36,ab,5,48,ll,ll,TRUE,3235.135,18,female
36,ab,5,49,ll,ll,TRUE,6778.732,18,female
36,ab,5,50,hh,hl,FALSE,3139.41,18,female
36,ab,5,51,hl,hl,TRUE,4981.816,18,female
36,ab,5,52,hh,hh,TRUE,1743.944,18,female
36,ab,5,53,ll,ll,TRUE,1360.911,18,female
36,ab,5,54,lh,hh,FALSE,1554.0900000000001,18,female
36,ab,5,55,hl,ll,FALSE,10582.883,18,female
36,ab,5,56,lh,lh,TRUE,3700.666,18,female
36,ab,5,57,ll,ll,TRUE,3282.8689999999997,18,female
36,ab,5,58,hh,hh,TRUE,2007.9070000000002,18,female
36,ab,5,59,hl,hh,FALSE,2404.75,18,female
36,ab,5,60,lh,ll,FALSE,1460.819,18,female
36,ab,5,61,hl,hh,FALSE,1907.1660000000002,18,female
36,ab,5,62,hl,hh,FALSE,1535.8049999999998,18,female
36,ab,5,63,ll,ll,TRUE,3994.746,18,female
36,ab,5,64,hh,ll,FALSE,2104.242,18,female
36,ab,5,65,hl,hh,FALSE,1078.5720000000001,18,female
36,ab,5,66,lh,ll,FALSE,1121.167,18,female
36,ab,5,67,ll,hl,FALSE,7055.602,18,female
36,ab,5,68,hl,hh,FALSE,1299.937,18,female
36,ab,5,69,hh,lh,FALSE,2744.823,18,female
36,ab,5,70,ll,hl,FALSE,4491.855,18,female
36,ab,5,71,lh,hl,FALSE,2445.396,18,female
36,ab,5,72,ll,ll,TRUE,1133.933,18,female
36,ab,5,73,lh,ll,FALSE,1110.6930000000002,18,female
36,ab,5,74,lh,ll,FALSE,860.0640000000001,18,female
36,ab,5,75,ll,ll,TRUE,4551.075,18,female
36,ab,5,76,ll,hl,FALSE,4433.784,18,female
36,ab,5,77,ll,hl,FALSE,6385.795,18,female
36,ab,5,78,lh,hh,FALSE,2383.973,18,female
36,ab,5,79,ll,lh,FALSE,2479.864,18,female
36,ab,5,80,lh,hh,FALSE,1524.5569999999998,18,female
36,ab,5,81,hh,hh,TRUE,2551.633,18,female
36,ab,5,82,ll,lh,FALSE,6788.47,18,female
36,ab,5,83,hh,hh,TRUE,5020.802,18,female
36,ab,5,84,ll,ll,TRUE,2195.941,18,female
36,ab,5,85,hl,hl,TRUE,2115.213,18,female
36,ab,5,86,hh,hl,FALSE,3924.9700000000003,18,female
36,ab,5,87,hh,hh,TRUE,3505.5739999999996,18,female
36,ab,5,88,hh,hh,TRUE,1999.853,18,female
36,ab,5,89,lh,ll,FALSE,6964.604,18,female
36,ab,5,90,hh,hh,TRUE,1464.2869999999998,18,female
36,ab,5,91,,,FALSE,14799.958,18,female
36,ab,5,92,hl,hl,TRUE,4870.681,18,female
36,ab,5,93,hh,ll,FALSE,1336.279,18,female
36,ab,5,94,lh,ll,FALSE,1267.471,18,female
36,ab,5,95,hh,hh,TRUE,2048.435,18,female
36,ab,5,96,hh,hl,FALSE,4174.431,18,female
36,ab,5,97,lh,hh,FALSE,4304.325,18,female
36,ab,5,98,hh,hh,TRUE,2814.808,18,female
36,ab,5,99,hl,hh,FALSE,1291.4569999999999,18,female
36,ab,5,100,hl,hl,TRUE,5447.639,18,female
36,ab,5,101,lh,ll,FALSE,5038.104,18,female
36,ab,5,102,hh,hh,TRUE,3648.3540000000003,18,female
36,ab,5,103,ll,ll,TRUE,7770.214,18,female
36,ab,5,104,hh,hh,TRUE,1079.6799999999998,18,female
36,ab,5,105,hh,ll,FALSE,4747.603,18,female
36,ab,5,106,lh,hh,FALSE,1852.2579999999998,18,female
36,ab,5,107,hl,hh,FALSE,985.031,18,female
36,ab,5,108,ll,ll,TRUE,1282.719,18,female
36,ab,5,109,ll,ll,TRUE,2101.382,18,female
36,ab,5,110,hh,hh,TRUE,2061.254,18,female
36,ab,5,111,lh,ll,FALSE,1303.4560000000001,18,female
36,ab,5,112,hl,hl,TRUE,9814.875,18,female
36,ab,5,113,hh,hh,TRUE,2091.229,18,female
36,ab,5,114,lh,hl,FALSE,3183.7439999999997,18,female
36,ab,5,115,ll,hl,FALSE,2760.721,18,female
36,ab,5,116,hl,ll,FALSE,3217.5780000000004,18,female
36,ab,5,117,lh,hh,FALSE,1360.5,18,female
36,ab,5,118,hl,ll,FALSE,2949.518,18,female
36,ab,5,119,lh,ll,FALSE,3324.34,18,female
36,ab,5,120,ll,lh,FALSE,2873.551,18,female
