pID,condition,block_no,trial_no,stimulus,response,correct,rt,age,gender
33,bc,1,1,hl,ll,FALSE,6059.418,18,female
33,bc,1,2,hl,lh,FALSE,4024.952,18,female
33,bc,1,3,ll,hl,FALSE,7523.661,18,female
33,bc,1,4,hl,ll,FALSE,6080.258,18,female
33,bc,1,5,hl,hl,TRUE,3951.1400000000003,18,female
33,bc,1,6,ll,hh,FALSE,2981,18,female
33,bc,1,7,hh,ll,FALSE,6010.354,18,female
33,bc,1,8,hl,hh,FALSE,6092.21,18,female
33,bc,1,9,ll,ll,TRUE,4874.482,18,female
33,bc,1,10,ll,ll,TRUE,7298.83,18,female
33,bc,1,11,hh,lh,FALSE,5568.165,18,female
33,bc,1,12,hl,hh,FALSE,7323.494000000001,18,female
33,bc,1,13,ll,ll,TRUE,2879.372,18,female
33,bc,1,14,hh,lh,FALSE,7890.5599999999995,18,female
33,bc,1,15,hh,hh,TRUE,6870.54,18,female
33,bc,1,16,lh,lh,TRUE,5964.614,18,female
33,bc,1,17,ll,ll,TRUE,3010.269,18,female
33,bc,1,18,hh,hh,TRUE,1821.9699999999998,18,female
33,bc,1,19,ll,lh,FALSE,4395.292,18,female
33,bc,1,20,hl,hl,TRUE,4783.445,18,female
33,bc,1,21,hl,hl,TRUE,5259.197,18,female
33,bc,1,22,lh,lh,TRUE,6363.693,18,female
33,bc,1,23,hh,hh,TRUE,3904.1499999999996,18,female
33,bc,1,24,ll,hl,FALSE,6919.099,18,female
33,bc,1,25,lh,ll,FALSE,7451.048000000001,18,female
33,bc,1,26,ll,ll,TRUE,2562.635,18,female
33,bc,1,27,hh,hl,FALSE,4266.05,18,female
33,bc,1,28,lh,hh,FALSE,8474.973,18,female
33,bc,1,29,ll,ll,TRUE,5335.273,18,female
33,bc,1,30,hh,ll,FALSE,5812.961,18,female
33,bc,1,31,hl,ll,FALSE,3782.8599999999997,18,female
33,bc,1,32,hl,hh,FALSE,5075.986,18,female
33,bc,1,33,hh,hl,FALSE,10451.885,18,female
33,bc,1,34,ll,ll,TRUE,5240.281,18,female
33,bc,1,35,ll,ll,TRUE,3369.0690000000004,18,female
33,bc,1,36,ll,lh,FALSE,6391.185,18,female
33,bc,1,37,ll,ll,TRUE,2617.612,18,female
33,bc,1,38,lh,lh,TRUE,6525.586,18,female
33,bc,1,39,hh,hh,TRUE,3211.416,18,female
33,bc,1,40,hl,hl,TRUE,5039.087,18,female
33,bc,1,41,hl,ll,FALSE,5481.251,18,female
33,bc,1,42,hl,ll,FALSE,6616.858,18,female
33,bc,1,43,hh,lh,FALSE,12610.118,18,female
33,bc,1,44,ll,ll,TRUE,6780.975,18,female
33,bc,1,45,lh,ll,FALSE,2672.469,18,female
33,bc,1,46,hh,ll,FALSE,8259.149,18,female
33,bc,1,47,lh,lh,TRUE,10303.955,18,female
33,bc,1,48,hh,lh,FALSE,9281.438,18,female
33,bc,1,49,ll,ll,TRUE,2997.077,18,female
33,bc,1,50,hl,hl,TRUE,10368.859,18,female
33,bc,1,51,hh,hh,TRUE,4129.777,18,female
33,bc,1,52,ll,ll,TRUE,2240.751,18,female
33,bc,1,53,hh,hh,TRUE,3597.0159999999996,18,female
33,bc,1,54,lh,lh,TRUE,5202.156,18,female
33,bc,1,55,hh,hh,TRUE,1141.261,18,female
33,bc,1,56,lh,lh,TRUE,6598.089,18,female
33,bc,1,57,hl,hh,FALSE,6775.876,18,female
33,bc,1,58,hl,lh,FALSE,8770.837,18,female
33,bc,1,59,hl,ll,FALSE,4763.744,18,female
33,bc,1,60,lh,lh,TRUE,6328.212,18,female
33,bc,1,61,lh,lh,TRUE,4532.642,18,female
33,bc,1,62,hl,lh,FALSE,4442.788,18,female
33,bc,1,63,ll,hl,FALSE,4500.315,18,female
33,bc,1,64,hl,hh,FALSE,7011.542,18,female
33,bc,1,65,hh,lh,FALSE,5140.359,18,female
33,bc,1,66,ll,ll,TRUE,9258.349,18,female
33,bc,1,67,hl,lh,FALSE,8710.627,18,female
33,bc,1,68,lh,lh,TRUE,4923.4,18,female
33,bc,1,69,lh,hh,FALSE,2056.159,18,female
33,bc,1,70,hh,hh,TRUE,1851.6599999999999,18,female
33,bc,1,71,hh,hh,TRUE,1591.797,18,female
33,bc,1,72,ll,lh,FALSE,3159.9309999999996,18,female
33,bc,1,73,hh,hh,TRUE,1934.7530000000002,18,female
33,bc,1,74,ll,ll,TRUE,5134.291,18,female
33,bc,1,75,lh,lh,TRUE,4884.099,18,female
33,bc,1,76,hh,hh,TRUE,3330.915,18,female
33,bc,1,77,hl,ll,FALSE,7224.769,18,female
33,bc,1,78,ll,ll,TRUE,5082.33,18,female
33,bc,1,79,hh,hh,TRUE,2425.148,18,female
33,bc,1,80,ll,hh,FALSE,5509.942,18,female
33,bc,1,81,hh,hh,TRUE,997.2370000000001,18,female
33,bc,1,82,lh,lh,TRUE,7283.495000000001,18,female
33,bc,1,83,lh,lh,TRUE,4721.858,18,female
33,bc,1,84,hh,lh,FALSE,4655.785,18,female
33,bc,1,85,ll,ll,TRUE,3945.389,18,female
33,bc,1,86,hl,hl,TRUE,8640.147,18,female
33,bc,1,87,ll,lh,FALSE,8325.439,18,female
33,bc,1,88,hl,ll,FALSE,6496.763,18,female
33,bc,1,89,ll,ll,TRUE,1463.524,18,female
33,bc,1,90,hh,hh,TRUE,9003.67,18,female
33,bc,1,91,hl,hh,FALSE,2928.959,18,female
33,bc,1,92,lh,lh,TRUE,12058.212,18,female
33,bc,1,93,hl,lh,FALSE,9859.385,18,female
33,bc,1,94,hh,hh,TRUE,1567.1329999999998,18,female
33,bc,1,95,ll,ll,TRUE,3422.9970000000003,18,female
33,bc,1,96,lh,hh,FALSE,3138.781,18,female
33,bc,1,97,lh,ll,FALSE,5314.858,18,female
33,bc,1,98,ll,ll,TRUE,4058.3199999999997,18,female
33,bc,1,99,ll,hl,FALSE,13058.955,18,female
33,bc,1,100,hl,hl,TRUE,6092.009,18,female
33,bc,1,101,ll,hl,FALSE,8682.194,18,female
33,bc,1,102,ll,ll,TRUE,1390.7399999999998,18,female
33,bc,1,103,hh,hl,FALSE,6742.295,18,female
33,bc,1,104,hh,hh,TRUE,1473.9189999999999,18,female
33,bc,1,105,hl,hh,FALSE,7853.25,18,female
33,bc,1,106,hh,hh,TRUE,1035.017,18,female
33,bc,1,107,hh,hh,TRUE,945.8810000000001,18,female
33,bc,1,108,lh,ll,FALSE,3321.6130000000003,18,female
33,bc,1,109,hl,ll,FALSE,7993.459999999999,18,female
33,bc,1,110,hh,hh,TRUE,3106.428,18,female
33,bc,1,111,lh,ll,FALSE,5434.844,18,female
33,bc,1,112,ll,ll,TRUE,5164.416,18,female
33,bc,1,113,lh,lh,TRUE,3953.6530000000002,18,female
33,bc,1,114,lh,hh,FALSE,1246.7089999999998,18,female
33,bc,1,115,lh,hh,FALSE,2700.007,18,female
33,bc,1,116,hl,hl,TRUE,6606.833,18,female
33,bc,1,117,hh,hh,TRUE,1685.7179999999998,18,female
33,bc,1,118,lh,hh,FALSE,1200.4119999999998,18,female
33,bc,1,119,hh,hh,TRUE,2279.744,18,female
33,bc,1,120,hh,hh,TRUE,3481.9120000000003,18,female
33,bc,2,1,hl,hh,FALSE,3048.826,18,female
33,bc,2,2,hl,ll,FALSE,4892.336,18,female
33,bc,2,3,ll,hh,FALSE,3387.169,18,female
33,bc,2,4,lh,ll,FALSE,3464.642,18,female
33,bc,2,5,ll,lh,FALSE,4289.498,18,female
33,bc,2,6,hh,hh,TRUE,6331.729,18,female
33,bc,2,7,hh,lh,FALSE,5561.105,18,female
33,bc,2,8,lh,lh,TRUE,3979.7120000000004,18,female
33,bc,2,9,hl,hh,FALSE,2688.793,18,female
33,bc,2,10,lh,lh,TRUE,11995.096,18,female
33,bc,2,11,hl,hh,FALSE,5911.987,18,female
33,bc,2,12,ll,ll,TRUE,3253.272,18,female
33,bc,2,13,lh,lh,TRUE,10505.404,18,female
33,bc,2,14,lh,lh,TRUE,4017.125,18,female
33,bc,2,15,hh,hh,TRUE,2948.486,18,female
33,bc,2,16,hl,ll,FALSE,5227.505,18,female
33,bc,2,17,hl,lh,FALSE,3757.558,18,female
33,bc,2,18,hh,ll,FALSE,1923.973,18,female
33,bc,2,19,hh,lh,FALSE,7981.855,18,female
33,bc,2,20,hl,hh,FALSE,2319.206,18,female
33,bc,2,21,ll,ll,TRUE,1110.6619999999998,18,female
33,bc,2,22,ll,ll,TRUE,1361.795,18,female
33,bc,2,23,hh,hh,TRUE,1250.243,18,female
33,bc,2,24,lh,lh,TRUE,5639.446,18,female
33,bc,2,25,hh,hh,TRUE,3455.638,18,female
33,bc,2,26,hl,lh,FALSE,4586.768,18,female
33,bc,2,27,ll,ll,TRUE,1942.0430000000001,18,female
33,bc,2,28,ll,lh,FALSE,6360.757,18,female
33,bc,2,29,ll,ll,TRUE,3931.035,18,female
33,bc,2,30,lh,hh,FALSE,4232.809,18,female
33,bc,2,31,lh,ll,FALSE,5212.559,18,female
33,bc,2,32,hh,hh,TRUE,1230.047,18,female
33,bc,2,33,lh,hh,FALSE,5179.911,18,female
33,bc,2,34,ll,ll,TRUE,1071.0610000000001,18,female
33,bc,2,35,hl,hh,FALSE,6156.338,18,female
33,bc,2,36,ll,ll,TRUE,7854.906999999999,18,female
33,bc,2,37,lh,hh,FALSE,4501.785,18,female
33,bc,2,38,lh,ll,FALSE,1260.667,18,female
33,bc,2,39,lh,hh,FALSE,6961.378,18,female
33,bc,2,40,ll,ll,TRUE,1380.4029999999998,18,female
33,bc,2,41,hl,hh,FALSE,6947.126,18,female
33,bc,2,42,hl,hh,FALSE,9288.269,18,female
33,bc,2,43,lh,ll,FALSE,1186.4009999999998,18,female
33,bc,2,44,ll,ll,TRUE,1713.8000000000002,18,female
33,bc,2,45,hl,lh,FALSE,5659.222,18,female
33,bc,2,46,ll,hh,FALSE,6474.93,18,female
33,bc,2,47,lh,ll,FALSE,4874.823,18,female
33,bc,2,48,hl,lh,FALSE,6811.853,18,female
33,bc,2,49,hl,ll,FALSE,1244.453,18,female
33,bc,2,50,ll,ll,TRUE,2297.711,18,female
33,bc,2,51,ll,ll,TRUE,866.24,18,female
33,bc,2,52,ll,ll,TRUE,3247.4759999999997,18,female
33,bc,2,53,ll,ll,TRUE,3257.437,18,female
33,bc,2,54,hh,hl,FALSE,5109.109,18,female
33,bc,2,55,hh,hh,TRUE,5186.854,18,female
33,bc,2,56,lh,lh,TRUE,7471.073,18,female
33,bc,2,57,hh,hh,TRUE,1835.208,18,female
33,bc,2,58,lh,ll,FALSE,2464.106,18,female
33,bc,2,59,hh,hh,TRUE,4267.012,18,female
33,bc,2,60,lh,hh,FALSE,2372.533,18,female
33,bc,2,61,ll,ll,TRUE,1114.239,18,female
33,bc,2,62,hl,hh,FALSE,3716.728,18,female
33,bc,2,63,ll,ll,TRUE,1035.783,18,female
33,bc,2,64,hl,lh,FALSE,5987.024,18,female
33,bc,2,65,ll,ll,TRUE,5091.991,18,female
33,bc,2,66,hl,ll,FALSE,3867.486,18,female
33,bc,2,67,hl,ll,FALSE,1637.018,18,female
33,bc,2,68,hh,hh,TRUE,4721.998,18,female
33,bc,2,69,lh,hh,FALSE,4256.973,18,female
33,bc,2,70,lh,hh,FALSE,3418.406,18,female
33,bc,2,71,hh,hh,TRUE,3414.327,18,female
33,bc,2,72,hl,lh,FALSE,4856.766,18,female
33,bc,2,73,hh,hh,TRUE,1690.862,18,female
33,bc,2,74,hl,ll,FALSE,1165.799,18,female
33,bc,2,75,hh,hh,TRUE,2589.593,18,female
33,bc,2,76,hl,ll,FALSE,2836.082,18,female
33,bc,2,77,hl,hh,FALSE,3135.937,18,female
33,bc,2,78,hl,ll,FALSE,8614.883,18,female
33,bc,2,79,ll,ll,TRUE,1894.346,18,female
33,bc,2,80,ll,ll,TRUE,4329.836,18,female
33,bc,2,81,hl,ll,FALSE,1264.112,18,female
33,bc,2,82,hl,lh,FALSE,10187.897,18,female
33,bc,2,83,hh,hh,TRUE,2601.689,18,female
33,bc,2,84,hl,ll,FALSE,6495.174,18,female
33,bc,2,85,hl,hl,TRUE,10205.334,18,female
33,bc,2,86,hl,hh,FALSE,3059.607,18,female
33,bc,2,87,ll,ll,TRUE,9943.85,18,female
33,bc,2,88,ll,ll,TRUE,5230.262,18,female
33,bc,2,89,hl,hh,FALSE,1713.212,18,female
33,bc,2,90,ll,ll,TRUE,1049.813,18,female
33,bc,2,91,lh,ll,FALSE,5806.512,18,female
33,bc,2,92,lh,ll,FALSE,1889.1999999999998,18,female
33,bc,2,93,ll,ll,TRUE,940.99,18,female
33,bc,2,94,lh,lh,TRUE,4343.409,18,female
33,bc,2,95,hh,hh,TRUE,2219.768,18,female
33,bc,2,96,lh,ll,FALSE,6209.86,18,female
33,bc,2,97,hl,ll,FALSE,2297.812,18,female
33,bc,2,98,lh,hh,FALSE,2083.205,18,female
33,bc,2,99,hh,hh,TRUE,1118.272,18,female
33,bc,2,100,ll,ll,TRUE,1264.813,18,female
33,bc,2,101,lh,ll,FALSE,1756.71,18,female
33,bc,2,102,hh,hh,TRUE,1708.27,18,female
33,bc,2,103,ll,lh,FALSE,6982.331,18,female
33,bc,2,104,ll,hh,FALSE,2960.776,18,female
33,bc,2,105,lh,ll,FALSE,1376.187,18,female
33,bc,2,106,hl,ll,FALSE,4735.617,18,female
33,bc,2,107,hh,hh,TRUE,2374.187,18,female
33,bc,2,108,lh,hh,FALSE,2132.161,18,female
33,bc,2,109,hl,hh,FALSE,6508.405,18,female
33,bc,2,110,lh,ll,FALSE,7441.987999999999,18,female
33,bc,2,111,hh,hh,TRUE,4593.028,18,female
33,bc,2,112,ll,ll,TRUE,1158.77,18,female
33,bc,2,113,lh,ll,FALSE,5860.986,18,female
33,bc,2,114,lh,ll,FALSE,2957.097,18,female
33,bc,2,115,lh,hh,FALSE,2836.615,18,female
33,bc,2,116,hh,ll,FALSE,4543.603,18,female
33,bc,2,117,lh,ll,FALSE,1262.382,18,female
33,bc,2,118,ll,ll,TRUE,986.6869999999999,18,female
33,bc,2,119,lh,lh,TRUE,10856.985,18,female
33,bc,2,120,hh,hh,TRUE,1652.3580000000002,18,female
33,bc,3,1,hl,hh,FALSE,2499.51,18,female
33,bc,3,2,hl,lh,FALSE,1301.17,18,female
33,bc,3,3,hh,hh,TRUE,1609.1170000000002,18,female
33,bc,3,4,ll,ll,TRUE,4269.404,18,female
33,bc,3,5,lh,lh,TRUE,6583.72,18,female
33,bc,3,6,hl,ll,FALSE,3671.8360000000002,18,female
33,bc,3,7,ll,hh,FALSE,1970.638,18,female
33,bc,3,8,lh,hh,FALSE,3025.629,18,female
33,bc,3,9,hh,hh,TRUE,3549.615,18,female
33,bc,3,10,hl,hh,FALSE,2029.29,18,female
33,bc,3,11,ll,ll,TRUE,1312.7269999999999,18,female
33,bc,3,12,hh,hh,TRUE,1251.446,18,female
33,bc,3,13,lh,lh,TRUE,6359.639,18,female
33,bc,3,14,ll,ll,TRUE,1562.484,18,female
33,bc,3,15,ll,ll,TRUE,2944.532,18,female
33,bc,3,16,hh,hh,TRUE,1233.942,18,female
33,bc,3,17,hl,hh,FALSE,2129.445,18,female
33,bc,3,18,lh,ll,FALSE,1270.536,18,female
33,bc,3,19,lh,lh,TRUE,6356.411,18,female
33,bc,3,20,hl,hh,FALSE,1159.15,18,female
33,bc,3,21,ll,lh,FALSE,5632.18,18,female
33,bc,3,22,ll,ll,TRUE,1361.4340000000002,18,female
33,bc,3,23,ll,ll,TRUE,1057.705,18,female
33,bc,3,24,hl,hh,FALSE,8430.549,18,female
33,bc,3,25,lh,lh,TRUE,5157.394,18,female
33,bc,3,26,ll,ll,TRUE,1186.196,18,female
33,bc,3,27,ll,ll,TRUE,1529.795,18,female
33,bc,3,28,lh,lh,TRUE,6570.523,18,female
33,bc,3,29,hl,ll,FALSE,7980.91,18,female
33,bc,3,30,hh,hh,TRUE,3096.4629999999997,18,female
33,bc,3,31,hl,hh,FALSE,1302.6909999999998,18,female
33,bc,3,32,hl,hh,FALSE,1537.8020000000001,18,female
33,bc,3,33,hl,ll,FALSE,7652.114,18,female
33,bc,3,34,hl,hh,FALSE,5569.736,18,female
33,bc,3,35,lh,lh,TRUE,4220.713,18,female
33,bc,3,36,hh,hh,TRUE,1032.11,18,female
33,bc,3,37,hl,hh,FALSE,1444.442,18,female
33,bc,3,38,hh,hh,TRUE,1385.413,18,female
33,bc,3,39,hl,lh,FALSE,8648.396,18,female
33,bc,3,40,hl,lh,FALSE,3534.697,18,female
33,bc,3,41,hl,ll,FALSE,6975.005,18,female
33,bc,3,42,lh,hh,FALSE,1119.813,18,female
33,bc,3,43,hh,hh,TRUE,5290.692,18,female
33,bc,3,44,ll,ll,TRUE,3184.3590000000004,18,female
33,bc,3,45,hl,ll,FALSE,2031.0859999999998,18,female
33,bc,3,46,hh,hh,TRUE,2224.677,18,female
33,bc,3,47,ll,ll,TRUE,4903.663,18,female
33,bc,3,48,ll,ll,TRUE,1015.008,18,female
33,bc,3,49,hh,ll,FALSE,7127.261,18,female
33,bc,3,50,hh,hh,TRUE,1992.937,18,female
33,bc,3,51,lh,hh,FALSE,1207.3870000000002,18,female
33,bc,3,52,lh,lh,TRUE,7766.563,18,female
33,bc,3,53,hh,hh,TRUE,2008.8339999999998,18,female
33,bc,3,54,ll,ll,TRUE,1911.2150000000001,18,female
33,bc,3,55,hh,hh,TRUE,944.1300000000001,18,female
33,bc,3,56,ll,ll,TRUE,1022.8320000000001,18,female
33,bc,3,57,hh,hh,TRUE,1321.27,18,female
33,bc,3,58,ll,ll,TRUE,2410.094,18,female
33,bc,3,59,hh,hh,TRUE,2272.98,18,female
33,bc,3,60,lh,hh,FALSE,2292.036,18,female
33,bc,3,61,hh,hh,TRUE,4013.8199999999997,18,female
33,bc,3,62,ll,ll,TRUE,1184.2440000000001,18,female
33,bc,3,63,lh,lh,TRUE,4345.647,18,female
33,bc,3,64,ll,ll,TRUE,4613.958,18,female
33,bc,3,65,hh,lh,FALSE,3713.2079999999996,18,female
33,bc,3,66,hh,hh,TRUE,1194.02,18,female
33,bc,3,67,hl,hh,FALSE,3472.8370000000004,18,female
33,bc,3,68,ll,ll,TRUE,1299.761,18,female
33,bc,3,69,hl,hl,TRUE,6944.016,18,female
33,bc,3,70,hh,hh,TRUE,1657.158,18,female
33,bc,3,71,hl,ll,FALSE,1117.219,18,female
33,bc,3,72,lh,lh,TRUE,4902.84,18,female
33,bc,3,73,hl,hh,FALSE,3550.1580000000004,18,female
33,bc,3,74,hh,hh,TRUE,2965.338,18,female
33,bc,3,75,hl,hl,TRUE,5922.666,18,female
33,bc,3,76,ll,ll,TRUE,1505.0100000000002,18,female
33,bc,3,77,lh,hh,FALSE,3243.633,18,female
33,bc,3,78,ll,ll,TRUE,1183.67,18,female
33,bc,3,79,hl,hl,TRUE,6172.81,18,female
33,bc,3,80,ll,lh,FALSE,7080.879,18,female
33,bc,3,81,hl,hh,FALSE,2677.431,18,female
33,bc,3,82,ll,ll,TRUE,3848.933,18,female
33,bc,3,83,hh,hh,TRUE,1931.1909999999998,18,female
33,bc,3,84,ll,ll,TRUE,1275.496,18,female
33,bc,3,85,hl,hh,FALSE,2454.569,18,female
33,bc,3,86,ll,ll,TRUE,1977.8339999999998,18,female
33,bc,3,87,ll,ll,TRUE,1131.462,18,female
33,bc,3,88,hl,lh,FALSE,5964.664,18,female
33,bc,3,89,lh,ll,FALSE,3007.497,18,female
33,bc,3,90,lh,hh,FALSE,4883.542,18,female
33,bc,3,91,lh,hh,FALSE,6012.653,18,female
33,bc,3,92,hh,hh,TRUE,1382.25,18,female
33,bc,3,93,lh,hh,FALSE,1420.949,18,female
33,bc,3,94,hl,ll,FALSE,6082.27,18,female
33,bc,3,95,ll,ll,TRUE,977.0809999999999,18,female
33,bc,3,96,ll,ll,TRUE,986.5419999999999,18,female
33,bc,3,97,hh,hh,TRUE,4112.526,18,female
33,bc,3,98,hh,hh,TRUE,1384.8670000000002,18,female
33,bc,3,99,ll,ll,TRUE,4416.527,18,female
33,bc,3,100,hh,hh,TRUE,2866.965,18,female
33,bc,3,101,hh,hh,TRUE,2149.902,18,female
33,bc,3,102,ll,ll,TRUE,1102.5700000000002,18,female
33,bc,3,103,hh,lh,FALSE,7631.734,18,female
33,bc,3,104,hh,hh,TRUE,1118.757,18,female
33,bc,3,105,hl,ll,FALSE,3017.347,18,female
33,bc,3,106,ll,ll,TRUE,1038.606,18,female
33,bc,3,107,hl,hh,FALSE,1373.0569999999998,18,female
33,bc,3,108,hl,lh,FALSE,4923.226,18,female
33,bc,3,109,hh,hh,TRUE,1073.0729999999999,18,female
33,bc,3,110,hl,hl,TRUE,6173.742,18,female
33,bc,3,111,hl,lh,FALSE,5641.88,18,female
33,bc,3,112,lh,hh,FALSE,5105.808,18,female
33,bc,3,113,lh,hh,FALSE,1048.382,18,female
33,bc,3,114,lh,ll,FALSE,6286.478,18,female
33,bc,3,115,hl,hh,FALSE,1060.799,18,female
33,bc,3,116,hl,hh,FALSE,1560.3180000000002,18,female
33,bc,3,117,ll,ll,TRUE,1610.69,18,female
33,bc,3,118,lh,ll,FALSE,4998.537,18,female
33,bc,3,119,ll,ll,TRUE,1240.125,18,female
33,bc,3,120,hh,hh,TRUE,3784.3729999999996,18,female
33,bc,4,1,lh,hh,FALSE,3688.291,18,female
33,bc,4,2,lh,hh,FALSE,4008.456,18,female
33,bc,4,3,hh,hl,FALSE,4635.605,18,female
33,bc,4,4,lh,ll,FALSE,4749.659,18,female
33,bc,4,5,hh,hh,TRUE,1458.79,18,female
33,bc,4,6,ll,ll,TRUE,3497.0280000000002,18,female
33,bc,4,7,hl,ll,FALSE,2678.107,18,female
33,bc,4,8,hl,ll,FALSE,6378.446,18,female
33,bc,4,9,lh,ll,FALSE,1604.8919999999998,18,female
33,bc,4,10,ll,ll,TRUE,939.7529999999999,18,female
33,bc,4,11,lh,ll,FALSE,5117.59,18,female
33,bc,4,12,ll,ll,TRUE,2924.093,18,female
33,bc,4,13,hl,hh,FALSE,3395.26,18,female
33,bc,4,14,hl,ll,FALSE,3218.696,18,female
33,bc,4,15,hh,hh,TRUE,1629.446,18,female
33,bc,4,16,hh,lh,FALSE,6304.355,18,female
33,bc,4,17,ll,ll,TRUE,2168.385,18,female
33,bc,4,18,lh,ll,FALSE,3984.532,18,female
33,bc,4,19,hh,hh,TRUE,2378.373,18,female
33,bc,4,20,lh,ll,FALSE,4945.634,18,female
33,bc,4,21,hh,hh,TRUE,2943.86,18,female
33,bc,4,22,hl,lh,FALSE,10512.581,18,female
33,bc,4,23,hl,ll,FALSE,3441.205,18,female
33,bc,4,24,hl,hh,FALSE,2498.9,18,female
33,bc,4,25,hh,lh,FALSE,6829.681,18,female
33,bc,4,26,hh,hh,TRUE,1117.058,18,female
33,bc,4,27,ll,ll,TRUE,1015.8230000000001,18,female
33,bc,4,28,ll,lh,FALSE,7469.639999999999,18,female
33,bc,4,29,lh,lh,TRUE,7002.75,18,female
33,bc,4,30,hl,ll,FALSE,3861.6189999999997,18,female
33,bc,4,31,hh,ll,FALSE,8078.004999999999,18,female
33,bc,4,32,hl,ll,FALSE,1738.725,18,female
33,bc,4,33,lh,ll,FALSE,1164.5639999999999,18,female
33,bc,4,34,ll,ll,TRUE,1099.6729999999998,18,female
33,bc,4,35,ll,ll,TRUE,3807.634,18,female
33,bc,4,36,lh,hh,FALSE,7300.117,18,female
33,bc,4,37,lh,hh,FALSE,2727.681,18,female
33,bc,4,38,hh,ll,FALSE,6024.805,18,female
33,bc,4,39,ll,ll,TRUE,1562.3200000000002,18,female
33,bc,4,40,lh,ll,FALSE,3415.571,18,female
33,bc,4,41,hh,hh,TRUE,1268.953,18,female
33,bc,4,42,hl,ll,FALSE,2417.667,18,female
33,bc,4,43,hh,hh,TRUE,1581.092,18,female
33,bc,4,44,lh,ll,FALSE,2108.139,18,female
33,bc,4,45,lh,hh,FALSE,4342.511,18,female
33,bc,4,46,hl,ll,FALSE,1475.8980000000001,18,female
33,bc,4,47,ll,ll,TRUE,1393.694,18,female
33,bc,4,48,lh,hh,FALSE,1327.9140000000002,18,female
33,bc,4,49,ll,ll,TRUE,1184.1329999999998,18,female
33,bc,4,50,hh,hh,TRUE,6087.229,18,female
33,bc,4,51,hl,ll,FALSE,1566.888,18,female
33,bc,4,52,lh,hh,FALSE,1141.8429999999998,18,female
33,bc,4,53,ll,ll,TRUE,1279.0010000000002,18,female
33,bc,4,54,lh,hh,FALSE,5625.437,18,female
33,bc,4,55,lh,ll,FALSE,1589.3609999999999,18,female
33,bc,4,56,ll,ll,TRUE,1180.3380000000002,18,female
33,bc,4,57,hh,ll,FALSE,1300.065,18,female
33,bc,4,58,hh,ll,FALSE,2374.041,18,female
33,bc,4,59,lh,lh,TRUE,4356.379,18,female
33,bc,4,60,ll,lh,FALSE,6722.946,18,female
33,bc,4,61,hl,ll,FALSE,4502.212,18,female
33,bc,4,62,hl,ll,FALSE,3581.4120000000003,18,female
33,bc,4,63,lh,lh,TRUE,4186.722,18,female
33,bc,4,64,hl,hh,FALSE,4176.276,18,female
33,bc,4,65,lh,hh,FALSE,1493.341,18,female
33,bc,4,66,hh,ll,FALSE,4047.46,18,female
33,bc,4,67,hl,hh,FALSE,5330.103,18,female
33,bc,4,68,hh,hh,TRUE,1759.5210000000002,18,female
33,bc,4,69,hl,ll,FALSE,2840.902,18,female
33,bc,4,70,lh,ll,FALSE,2388.72,18,female
33,bc,4,71,hl,ll,FALSE,1083.5749999999998,18,female
33,bc,4,72,lh,lh,TRUE,5765.714,18,female
33,bc,4,73,lh,ll,FALSE,9889.661,18,female
33,bc,4,74,hh,hh,TRUE,1318.2440000000001,18,female
33,bc,4,75,hl,hh,FALSE,1654.0059999999999,18,female
33,bc,4,76,hl,hh,FALSE,2673.895,18,female
33,bc,4,77,hl,hh,FALSE,1924.77,18,female
33,bc,4,78,hl,ll,FALSE,3327.88,18,female
33,bc,4,79,hh,ll,FALSE,6679.589,18,female
33,bc,4,80,lh,hh,FALSE,5789.493,18,female
33,bc,4,81,ll,ll,TRUE,1814.9850000000001,18,female
33,bc,4,82,lh,ll,FALSE,3573.548,18,female
33,bc,4,83,hh,hh,TRUE,1201.455,18,female
33,bc,4,84,lh,ll,FALSE,1440.1999999999998,18,female
33,bc,4,85,lh,ll,FALSE,8789.905,18,female
33,bc,4,86,hh,hh,TRUE,1125.5949999999998,18,female
33,bc,4,87,ll,ll,TRUE,1177.8600000000001,18,female
33,bc,4,88,lh,hh,FALSE,2046.8939999999998,18,female
33,bc,4,89,ll,ll,TRUE,3498.2749999999996,18,female
33,bc,4,90,ll,ll,TRUE,1253.504,18,female
33,bc,4,91,ll,ll,TRUE,871.194,18,female
33,bc,4,92,hl,lh,FALSE,5099.888,18,female
33,bc,4,93,ll,hh,FALSE,3162.7,18,female
33,bc,4,94,hl,hh,FALSE,1003.883,18,female
33,bc,4,95,ll,ll,TRUE,2056.433,18,female
33,bc,4,96,hl,ll,FALSE,1772.708,18,female
33,bc,4,97,ll,ll,TRUE,1275.58,18,female
33,bc,4,98,hh,hh,TRUE,1496.4099999999999,18,female
33,bc,4,99,hl,ll,FALSE,3524.867,18,female
33,bc,4,100,hh,hh,TRUE,1073.6480000000001,18,female
33,bc,4,101,ll,ll,TRUE,1320.3899999999999,18,female
33,bc,4,102,lh,ll,FALSE,9993.872,18,female
33,bc,4,103,lh,hh,FALSE,6153.836,18,female
33,bc,4,104,hl,lh,FALSE,5308.667,18,female
33,bc,4,105,hh,ll,FALSE,2106.242,18,female
33,bc,4,106,lh,lh,TRUE,4547.435,18,female
33,bc,4,107,hh,hh,TRUE,952.819,18,female
33,bc,4,108,ll,ll,TRUE,1026.906,18,female
33,bc,4,109,ll,ll,TRUE,1584.821,18,female
33,bc,4,110,hh,lh,FALSE,3831.888,18,female
33,bc,4,111,ll,ll,TRUE,985.156,18,female
33,bc,4,112,lh,hh,FALSE,2325.377,18,female
33,bc,4,113,hh,hh,TRUE,1068.125,18,female
33,bc,4,114,lh,lh,TRUE,3961.059,18,female
33,bc,4,115,lh,ll,FALSE,1875.8690000000001,18,female
33,bc,4,116,lh,lh,TRUE,7399.284,18,female
33,bc,4,117,lh,hh,FALSE,2235.158,18,female
33,bc,4,118,ll,ll,TRUE,1509.7669999999998,18,female
33,bc,4,119,lh,hl,FALSE,8271.005,18,female
33,bc,4,120,hh,hh,TRUE,2212.369,18,female
33,bc,5,1,hl,hh,FALSE,2812.11,18,female
33,bc,5,2,hh,lh,FALSE,9519.715,18,female
33,bc,5,3,hl,hh,FALSE,2328.548,18,female
33,bc,5,4,lh,lh,TRUE,3946.6400000000003,18,female
33,bc,5,5,hh,lh,FALSE,5587.145,18,female
33,bc,5,6,hl,hh,FALSE,1986.895,18,female
33,bc,5,7,hl,hh,FALSE,4524.336,18,female
33,bc,5,8,hh,hh,TRUE,1192.391,18,female
33,bc,5,9,hh,lh,FALSE,8481.02,18,female
33,bc,5,10,hh,hh,TRUE,2070.037,18,female
33,bc,5,11,lh,lh,TRUE,2871.881,18,female
33,bc,5,12,ll,ll,TRUE,5058.983,18,female
33,bc,5,13,hl,lh,FALSE,7117.526,18,female
33,bc,5,14,ll,lh,FALSE,5270.448,18,female
33,bc,5,15,lh,ll,FALSE,1389.8339999999998,18,female
33,bc,5,16,hh,hh,TRUE,2573.184,18,female
33,bc,5,17,lh,lh,TRUE,6740.395,18,female
33,bc,5,18,hh,hh,TRUE,6690.921,18,female
33,bc,5,19,lh,ll,FALSE,4141.641,18,female
33,bc,5,20,ll,ll,TRUE,1348.48,18,female
33,bc,5,21,lh,ll,FALSE,1620.4789999999998,18,female
33,bc,5,22,hh,hh,TRUE,2081.762,18,female
33,bc,5,23,hl,hh,FALSE,2459.701,18,female
33,bc,5,24,lh,ll,FALSE,6055.681,18,female
33,bc,5,25,hh,hh,TRUE,1175.0610000000001,18,female
33,bc,5,26,hh,hh,TRUE,2359.845,18,female
33,bc,5,27,hh,hh,TRUE,1479.203,18,female
33,bc,5,28,hh,hh,TRUE,1672.464,18,female
33,bc,5,29,lh,ll,FALSE,3430.8819999999996,18,female
33,bc,5,30,hl,hh,FALSE,1960.9270000000001,18,female
33,bc,5,31,ll,hl,FALSE,4584.829,18,female
33,bc,5,32,hh,hh,TRUE,1500.554,18,female
33,bc,5,33,ll,ll,TRUE,1744.976,18,female
33,bc,5,34,hh,hh,TRUE,1061.364,18,female
33,bc,5,35,hl,hh,FALSE,1051.9319999999998,18,female
33,bc,5,36,lh,hh,FALSE,3793.6530000000002,18,female
33,bc,5,37,lh,ll,FALSE,6612.896,18,female
33,bc,5,38,hh,hh,TRUE,5094.267,18,female
33,bc,5,39,hl,ll,FALSE,2909.372,18,female
33,bc,5,40,hl,hh,FALSE,3329.1130000000003,18,female
33,bc,5,41,lh,lh,TRUE,3534.415,18,female
33,bc,5,42,hh,hh,TRUE,1662.219,18,female
33,bc,5,43,lh,lh,TRUE,3954.17,18,female
33,bc,5,44,hh,hh,TRUE,1054.897,18,female
33,bc,5,45,hl,hh,FALSE,7894.012000000001,18,female
33,bc,5,46,lh,lh,TRUE,2954.363,18,female
33,bc,5,47,hh,hh,TRUE,2632.67,18,female
33,bc,5,48,ll,hh,FALSE,2917.478,18,female
33,bc,5,49,ll,ll,TRUE,4603.55,18,female
33,bc,5,50,hl,hl,TRUE,10063.825,18,female
33,bc,5,51,lh,lh,TRUE,5003.268,18,female
33,bc,5,52,hh,hh,TRUE,2405.294,18,female
33,bc,5,53,lh,ll,FALSE,2066.947,18,female
33,bc,5,54,hl,ll,FALSE,3776.785,18,female
33,bc,5,55,hl,hh,FALSE,1813.663,18,female
33,bc,5,56,hl,ll,FALSE,10939.499,18,female
33,bc,5,57,ll,ll,TRUE,2928.724,18,female
33,bc,5,58,hl,hh,FALSE,5562.292,18,female
33,bc,5,59,ll,ll,TRUE,2660.989,18,female
33,bc,5,60,hl,hh,FALSE,2177.553,18,female
33,bc,5,61,ll,ll,TRUE,1495.0929999999998,18,female
33,bc,5,62,hh,hh,TRUE,1374.1950000000002,18,female
33,bc,5,63,hh,lh,FALSE,4338.607,18,female
33,bc,5,64,hh,hh,TRUE,5889.189,18,female
33,bc,5,65,hh,ll,FALSE,6584.506,18,female
33,bc,5,66,ll,ll,TRUE,3274.834,18,female
33,bc,5,67,hl,ll,FALSE,3397.331,18,female
33,bc,5,68,lh,hh,FALSE,1255.324,18,female
33,bc,5,69,ll,ll,TRUE,1611.7440000000001,18,female
33,bc,5,70,ll,ll,TRUE,4059.135,18,female
33,bc,5,71,hh,hh,TRUE,1038.748,18,female
33,bc,5,72,hl,hh,FALSE,3618.741,18,female
33,bc,5,73,hl,hh,FALSE,7901.539000000001,18,female
33,bc,5,74,hl,hh,FALSE,2717.316,18,female
33,bc,5,75,lh,lh,TRUE,5979.044,18,female
33,bc,5,76,lh,lh,TRUE,3997.7290000000003,18,female
33,bc,5,77,lh,lh,TRUE,3796.304,18,female
33,bc,5,78,hl,ll,FALSE,7810.451999999999,18,female
33,bc,5,79,ll,ll,TRUE,2175.263,18,female
33,bc,5,80,ll,ll,TRUE,1007.565,18,female
33,bc,5,81,ll,hl,FALSE,5926.446,18,female
33,bc,5,82,hh,hh,TRUE,2410.143,18,female
33,bc,5,83,hh,hh,TRUE,1576.524,18,female
33,bc,5,84,ll,hh,FALSE,2415.669,18,female
33,bc,5,85,lh,ll,FALSE,4916.448,18,female
33,bc,5,86,ll,hh,FALSE,2699.759,18,female
33,bc,5,87,lh,hh,FALSE,3175.1459999999997,18,female
33,bc,5,88,ll,ll,TRUE,2090.796,18,female
33,bc,5,89,ll,ll,TRUE,1735.511,18,female
33,bc,5,90,ll,ll,TRUE,4293.765,18,female
33,bc,5,91,lh,ll,FALSE,4864.977,18,female
33,bc,5,92,hl,hh,FALSE,1454.5120000000002,18,female
33,bc,5,93,lh,lh,TRUE,4916.154,18,female
33,bc,5,94,ll,ll,TRUE,1253.167,18,female
33,bc,5,95,ll,ll,TRUE,5631.619,18,female
33,bc,5,96,lh,lh,TRUE,6327.922,18,female
33,bc,5,97,ll,ll,TRUE,1175.5349999999999,18,female
33,bc,5,98,lh,ll,FALSE,3070.075,18,female
33,bc,5,99,hl,ll,FALSE,1887.489,18,female
33,bc,5,100,hh,hh,TRUE,1131.1419999999998,18,female
33,bc,5,101,ll,hh,FALSE,4154.621,18,female
33,bc,5,102,hh,hh,TRUE,1561.2469999999998,18,female
33,bc,5,103,hl,ll,FALSE,2665.859,18,female
33,bc,5,104,hl,ll,FALSE,4043.3599999999997,18,female
33,bc,5,105,lh,lh,TRUE,5888.191,18,female
33,bc,5,106,hh,hh,TRUE,1094.2359999999999,18,female
33,bc,5,107,ll,lh,FALSE,3207.8950000000004,18,female
33,bc,5,108,hl,hh,FALSE,1629.7890000000002,18,female
33,bc,5,109,hh,hh,TRUE,1057.042,18,female
33,bc,5,110,hl,ll,FALSE,1448.3310000000001,18,female
33,bc,5,111,lh,ll,FALSE,1372.1419999999998,18,female
33,bc,5,112,ll,ll,TRUE,1154.774,18,female
33,bc,5,113,lh,lh,TRUE,3269.615,18,female
33,bc,5,114,hh,hh,TRUE,1126.44,18,female
33,bc,5,115,lh,hh,FALSE,1120.0810000000001,18,female
33,bc,5,116,hh,hh,TRUE,1104.8719999999998,18,female
33,bc,5,117,hh,hh,TRUE,1555.0010000000002,18,female
33,bc,5,118,hh,hh,TRUE,1956.1109999999999,18,female
33,bc,5,119,lh,ll,FALSE,7380.214,18,female
33,bc,5,120,lh,ll,FALSE,14944.38,18,female
