pID,condition,block_no,trial_no,stimulus,response,correct,rt,age,gender
43,ab,1,1,ll,hl,FALSE,8772.629,18,male
43,ab,1,2,hl,hl,TRUE,5773.285,18,male
43,ab,1,3,hl,hh,FALSE,2350.607,18,male
43,ab,1,4,ll,lh,FALSE,4206.873,18,male
43,ab,1,5,hh,hl,FALSE,3486.277,18,male
43,ab,1,6,hh,hl,FALSE,4227.45,18,male
43,ab,1,7,lh,hl,FALSE,11865.205,18,male
43,ab,1,8,hh,ll,FALSE,3173.6189999999997,18,male
43,ab,1,9,ll,ll,TRUE,5454.856,18,male
43,ab,1,10,hh,hl,FALSE,5123.64,18,male
43,ab,1,11,hh,hh,TRUE,7350.634,18,male
43,ab,1,12,hl,hh,FALSE,6768.623,18,male
43,ab,1,13,ll,lh,FALSE,13320.595,18,male
43,ab,1,14,lh,hh,FALSE,8083.769,18,male
43,ab,1,15,hh,lh,FALSE,7255.161,18,male
43,ab,1,16,hh,hl,FALSE,4356.785,18,male
43,ab,1,17,lh,hl,FALSE,12317.848,18,male
43,ab,1,18,lh,hh,FALSE,4656.637,18,male
43,ab,1,19,,,FALSE,15016.828,18,male
43,ab,1,20,lh,ll,FALSE,6309.099,18,male
43,ab,1,21,ll,lh,FALSE,3697.3540000000003,18,male
43,ab,1,22,hh,hl,FALSE,9508.442,18,male
43,ab,1,23,hh,hh,TRUE,10545.066,18,male
43,ab,1,24,hh,ll,FALSE,7841.387000000001,18,male
43,ab,1,25,hl,hh,FALSE,4407.763,18,male
43,ab,1,26,ll,hh,FALSE,5998.979,18,male
43,ab,1,27,hh,hh,TRUE,5197.82,18,male
43,ab,1,28,lh,ll,FALSE,3437.3860000000004,18,male
43,ab,1,29,hh,hh,TRUE,4108.493,18,male
43,ab,1,30,ll,ll,TRUE,4543.143,18,male
43,ab,1,31,hh,hh,TRUE,6961.089,18,male
43,ab,1,32,hh,hh,TRUE,5123.363,18,male
43,ab,1,33,hh,ll,FALSE,9085.162,18,male
43,ab,1,34,ll,ll,TRUE,7969.164000000001,18,male
43,ab,1,35,hl,hh,FALSE,4465.677,18,male
43,ab,1,36,hh,hh,TRUE,3046.11,18,male
43,ab,1,37,lh,hh,FALSE,1996.2820000000002,18,male
43,ab,1,38,lh,hh,FALSE,3197.6130000000003,18,male
43,ab,1,39,hl,hh,FALSE,2580.184,18,male
43,ab,1,40,lh,hl,FALSE,6677.078,18,male
43,ab,1,41,ll,ll,TRUE,4073.4660000000003,18,male
43,ab,1,42,hl,lh,FALSE,5470.135,18,male
43,ab,1,43,hl,hl,TRUE,8067.049000000001,18,male
43,ab,1,44,lh,ll,FALSE,6120.465,18,male
43,ab,1,45,ll,ll,TRUE,5970.575,18,male
43,ab,1,46,lh,hh,FALSE,5018.724,18,male
43,ab,1,47,hh,hl,FALSE,9505.983,18,male
43,ab,1,48,hh,hl,FALSE,5340.869,18,male
43,ab,1,49,hh,hh,TRUE,1775.6779999999999,18,male
43,ab,1,50,hl,ll,FALSE,7303.859,18,male
43,ab,1,51,hh,hh,TRUE,1995.274,18,male
43,ab,1,52,hl,lh,FALSE,6412.453,18,male
43,ab,1,53,hl,ll,FALSE,7522.715,18,male
43,ab,1,54,hl,hh,FALSE,3197.116,18,male
43,ab,1,55,hh,hh,TRUE,2332.443,18,male
43,ab,1,56,hl,hh,FALSE,2382.822,18,male
43,ab,1,57,ll,ll,TRUE,9472.075,18,male
43,ab,1,58,hh,hh,TRUE,3035.739,18,male
43,ab,1,59,ll,ll,TRUE,3449.718,18,male
43,ab,1,60,hh,hh,TRUE,1815.6729999999998,18,male
43,ab,1,61,hl,ll,FALSE,5957.47,18,male
43,ab,1,62,hh,hh,TRUE,1799.58,18,male
43,ab,1,63,lh,ll,FALSE,5118.78,18,male
43,ab,1,64,ll,ll,TRUE,5817.061,18,male
43,ab,1,65,ll,ll,TRUE,2839.608,18,male
43,ab,1,66,hl,ll,FALSE,5262.344,18,male
43,ab,1,67,ll,ll,TRUE,7355.071,18,male
43,ab,1,68,hl,hh,FALSE,8980.176,18,male
43,ab,1,69,hh,hl,FALSE,5373.094,18,male
43,ab,1,70,lh,hh,FALSE,4774.208,18,male
43,ab,1,71,hl,hh,FALSE,2206.441,18,male
43,ab,1,72,ll,ll,TRUE,8070.2919999999995,18,male
43,ab,1,73,ll,lh,FALSE,10593.494,18,male
43,ab,1,74,lh,lh,TRUE,6201.954,18,male
43,ab,1,75,hh,hh,TRUE,5673.417,18,male
43,ab,1,76,hl,hh,FALSE,9133.216,18,male
43,ab,1,77,lh,lh,TRUE,9888.609,18,male
43,ab,1,78,hl,hh,FALSE,9443.703,18,male
43,ab,1,79,hl,hh,FALSE,3098.2790000000005,18,male
43,ab,1,80,hl,hh,FALSE,5235.749,18,male
43,ab,1,81,hh,hh,TRUE,6602.421,18,male
43,ab,1,82,,,FALSE,15016.511,18,male
43,ab,1,83,hh,hh,TRUE,2985.688,18,male
43,ab,1,84,lh,hh,FALSE,2145.322,18,male
43,ab,1,85,ll,hh,FALSE,3043.138,18,male
43,ab,1,86,hh,ll,FALSE,4977.376,18,male
43,ab,1,87,hh,hh,TRUE,1010.818,18,male
43,ab,1,88,ll,hl,FALSE,5865.655,18,male
43,ab,1,89,hh,hh,TRUE,2948.847,18,male
43,ab,1,90,hl,ll,FALSE,3014.202,18,male
43,ab,1,91,ll,lh,FALSE,11598.888,18,male
43,ab,1,92,hl,ll,FALSE,4853.062,18,male
43,ab,1,93,ll,lh,FALSE,4315.624,18,male
43,ab,1,94,hl,hh,FALSE,9908.961,18,male
43,ab,1,95,hl,hh,FALSE,5681.902,18,male
43,ab,1,96,ll,ll,TRUE,5739.358,18,male
43,ab,1,97,hh,hh,TRUE,1878.2620000000002,18,male
43,ab,1,98,lh,hl,FALSE,6795.943,18,male
43,ab,1,99,hh,hh,TRUE,1948.6329999999998,18,male
43,ab,1,100,ll,hh,FALSE,8131.725,18,male
43,ab,1,101,ll,ll,TRUE,3128.254,18,male
43,ab,1,102,hl,lh,FALSE,5145.306,18,male
43,ab,1,103,hl,ll,FALSE,4515.905,18,male
43,ab,1,104,lh,hh,FALSE,7711.128000000001,18,male
43,ab,1,105,hl,ll,FALSE,3281.4129999999996,18,male
43,ab,1,106,hh,hh,TRUE,6038.18,18,male
43,ab,1,107,lh,hh,FALSE,5548.445,18,male
43,ab,1,108,hl,hh,FALSE,12835.986,18,male
43,ab,1,109,ll,hl,FALSE,5868.651,18,male
43,ab,1,110,hh,lh,FALSE,6937.601,18,male
43,ab,1,111,ll,ll,TRUE,9618.885,18,male
43,ab,1,112,hl,ll,FALSE,14818.329,18,male
43,ab,1,113,lh,hl,FALSE,11743.369,18,male
43,ab,1,114,ll,hh,FALSE,1185.681,18,male
43,ab,1,115,hl,hh,FALSE,2657.131,18,male
43,ab,1,116,hh,hh,TRUE,1839.4160000000002,18,male
43,ab,1,117,ll,ll,TRUE,8868.317,18,male
43,ab,1,118,hh,hh,TRUE,5224.114,18,male
43,ab,1,119,hh,hh,TRUE,872.059,18,male
43,ab,1,120,hl,lh,FALSE,3861.093,18,male
43,ab,2,1,hl,hh,FALSE,3828.5950000000003,18,male
43,ab,2,2,hh,lh,FALSE,3500.093,18,male
43,ab,2,3,hl,lh,FALSE,3438.7070000000003,18,male
43,ab,2,4,lh,ll,FALSE,4580.407,18,male
43,ab,2,5,hh,hh,TRUE,4646.693,18,male
43,ab,2,6,hh,hh,TRUE,2690.992,18,male
43,ab,2,7,hl,hh,FALSE,1279.2959999999998,18,male
43,ab,2,8,hh,hh,TRUE,6133.454,18,male
43,ab,2,9,hl,ll,FALSE,1997.9720000000002,18,male
43,ab,2,10,hh,hh,TRUE,2142.008,18,male
43,ab,2,11,hl,lh,FALSE,4776.18,18,male
43,ab,2,12,ll,hh,FALSE,5025.259,18,male
43,ab,2,13,lh,hl,FALSE,5344.504,18,male
43,ab,2,14,hl,hh,FALSE,2809.669,18,male
43,ab,2,15,,,FALSE,15016.647,18,male
43,ab,2,16,hl,hh,FALSE,3161.3599999999997,18,male
43,ab,2,17,hl,lh,FALSE,8362.831,18,male
43,ab,2,18,ll,ll,TRUE,3571.9129999999996,18,male
43,ab,2,19,hl,hh,FALSE,5339.547,18,male
43,ab,2,20,lh,ll,FALSE,2853.347,18,male
43,ab,2,21,ll,ll,TRUE,4626.148,18,male
43,ab,2,22,ll,hl,FALSE,7489.245000000001,18,male
43,ab,2,23,hl,ll,FALSE,4101.223,18,male
43,ab,2,24,hl,hh,FALSE,8073.459000000001,18,male
43,ab,2,25,ll,hh,FALSE,1070.5790000000002,18,male
43,ab,2,26,ll,hl,FALSE,5097.634,18,male
43,ab,2,27,hh,hh,TRUE,862.2729999999999,18,male
43,ab,2,28,hh,hh,TRUE,1315.13,18,male
43,ab,2,29,hh,hl,FALSE,5719.459,18,male
43,ab,2,30,hl,hh,FALSE,1641.9740000000002,18,male
43,ab,2,31,ll,hh,FALSE,888.124,18,male
43,ab,2,32,lh,ll,FALSE,3211.1009999999997,18,male
43,ab,2,33,hh,hh,TRUE,834.404,18,male
43,ab,2,34,ll,ll,TRUE,2528.475,18,male
43,ab,2,35,hh,hh,TRUE,811.7650000000001,18,male
43,ab,2,36,ll,hl,FALSE,8114.174000000001,18,male
43,ab,2,37,lh,ll,FALSE,9893.643,18,male
43,ab,2,38,hl,hh,FALSE,1505.7199999999998,18,male
43,ab,2,39,hh,hh,TRUE,781.48,18,male
43,ab,2,40,hl,hh,FALSE,2388.105,18,male
43,ab,2,41,hh,hh,TRUE,902.605,18,male
43,ab,2,42,hl,hh,FALSE,5200.682,18,male
43,ab,2,43,hh,hl,FALSE,6191.354,18,male
43,ab,2,44,ll,hh,FALSE,2775.795,18,male
43,ab,2,45,hh,hh,TRUE,985.192,18,male
43,ab,2,46,lh,ll,FALSE,7640.755999999999,18,male
43,ab,2,47,hl,hh,FALSE,4758.123,18,male
43,ab,2,48,ll,hl,FALSE,2487.651,18,male
43,ab,2,49,lh,hl,FALSE,8564.568,18,male
43,ab,2,50,hl,hh,FALSE,1493.636,18,male
43,ab,2,51,hh,hh,TRUE,977.74,18,male
43,ab,2,52,lh,hl,FALSE,6057.517,18,male
43,ab,2,53,hl,hh,FALSE,7560.870999999999,18,male
43,ab,2,54,hh,hh,TRUE,3322.571,18,male
43,ab,2,55,hl,hh,FALSE,1266.495,18,male
43,ab,2,56,lh,hh,FALSE,6328.398,18,male
43,ab,2,57,ll,lh,FALSE,4259.223,18,male
43,ab,2,58,hh,ll,FALSE,10343.774,18,male
43,ab,2,59,hl,ll,FALSE,5858.57,18,male
43,ab,2,60,hl,hh,FALSE,2625.177,18,male
43,ab,2,61,ll,ll,TRUE,9102.165,18,male
43,ab,2,62,hh,hh,TRUE,896.838,18,male
43,ab,2,63,hl,hh,FALSE,6909.16,18,male
43,ab,2,64,ll,ll,TRUE,3256.843,18,male
43,ab,2,65,ll,ll,TRUE,1509.138,18,male
43,ab,2,66,hh,hh,TRUE,2193.044,18,male
43,ab,2,67,hh,lh,FALSE,7689.046,18,male
43,ab,2,68,ll,ll,TRUE,1788.775,18,male
43,ab,2,69,hh,lh,FALSE,7420.888000000001,18,male
43,ab,2,70,hh,hl,FALSE,11028.604,18,male
43,ab,2,71,ll,ll,TRUE,3322.6499999999996,18,male
43,ab,2,72,hl,hh,FALSE,1068.0479999999998,18,male
43,ab,2,73,ll,hh,FALSE,2392.921,18,male
43,ab,2,74,lh,ll,FALSE,7483.394,18,male
43,ab,2,75,lh,ll,FALSE,5461.862,18,male
43,ab,2,76,lh,hh,FALSE,4458.205,18,male
43,ab,2,77,lh,hh,FALSE,3089.874,18,male
43,ab,2,78,hl,hh,FALSE,3003.547,18,male
43,ab,2,79,lh,ll,FALSE,5805.137,18,male
43,ab,2,80,lh,hh,FALSE,4682.93,18,male
43,ab,2,81,ll,ll,TRUE,6413.984,18,male
43,ab,2,82,hh,hl,FALSE,11341.1,18,male
43,ab,2,83,hh,hh,TRUE,1159.9,18,male
43,ab,2,84,hh,hh,TRUE,1848.545,18,male
43,ab,2,85,ll,lh,FALSE,7902.745000000001,18,male
43,ab,2,86,hl,hh,FALSE,4105.482,18,male
43,ab,2,87,hl,hh,FALSE,4548.857,18,male
43,ab,2,88,ll,ll,TRUE,5557.55,18,male
43,ab,2,89,hl,hh,FALSE,7359.627,18,male
43,ab,2,90,ll,lh,FALSE,7064.557,18,male
43,ab,2,91,ll,ll,TRUE,10526.984,18,male
43,ab,2,92,ll,ll,TRUE,4241.322,18,male
43,ab,2,93,lh,hh,FALSE,4520.618,18,male
43,ab,2,94,hh,hh,TRUE,2995.951,18,male
43,ab,2,95,lh,ll,FALSE,2106.499,18,male
43,ab,2,96,hh,lh,FALSE,12165.464,18,male
43,ab,2,97,lh,ll,FALSE,212.3900000000001,18,male
43,ab,2,98,lh,ll,FALSE,8452.786,18,male
43,ab,2,99,lh,hh,FALSE,5578.904,18,male
43,ab,2,100,lh,hh,FALSE,6730.694,18,male
43,ab,2,101,hh,hh,TRUE,6807.824,18,male
43,ab,2,102,lh,ll,FALSE,5710.225,18,male
43,ab,2,103,ll,ll,TRUE,1433.145,18,male
43,ab,2,104,hl,ll,FALSE,8389.674,18,male
43,ab,2,105,ll,ll,TRUE,8941.874,18,male
43,ab,2,106,hh,hh,TRUE,5167.051,18,male
43,ab,2,107,lh,ll,FALSE,5816.924,18,male
43,ab,2,108,hh,hh,TRUE,4526.844,18,male
43,ab,2,109,hl,ll,FALSE,5954.33,18,male
43,ab,2,110,hl,hh,FALSE,5731.908,18,male
43,ab,2,111,hl,hh,FALSE,12804.58,18,male
43,ab,2,112,lh,ll,FALSE,8124.648999999999,18,male
43,ab,2,113,lh,hh,FALSE,6577.841,18,male
43,ab,2,114,hh,lh,FALSE,5831.522,18,male
43,ab,2,115,ll,hh,FALSE,9685.863,18,male
43,ab,2,116,hh,ll,FALSE,7153.367,18,male
43,ab,2,117,hh,hh,TRUE,2682.935,18,male
43,ab,2,118,ll,hh,FALSE,5335.321,18,male
43,ab,2,119,lh,lh,TRUE,4586.966,18,male
43,ab,2,120,ll,ll,TRUE,12650.217,18,male
43,ab,3,1,lh,hh,FALSE,1715.9499999999998,18,male
43,ab,3,2,lh,lh,TRUE,5253.565,18,male
43,ab,3,3,hl,lh,FALSE,7155.874,18,male
43,ab,3,4,ll,ll,TRUE,9421.27,18,male
43,ab,3,5,ll,ll,TRUE,1795.701,18,male
43,ab,3,6,ll,hl,FALSE,7419.9349999999995,18,male
43,ab,3,7,lh,hh,FALSE,4123.659,18,male
43,ab,3,8,lh,ll,FALSE,7844.971,18,male
43,ab,3,9,lh,hh,FALSE,1739.219,18,male
43,ab,3,10,ll,hh,FALSE,1298.3629999999998,18,male
43,ab,3,11,hh,hh,TRUE,1800.4450000000002,18,male
43,ab,3,12,ll,ll,TRUE,5183.824,18,male
43,ab,3,13,ll,hl,FALSE,6777.419,18,male
43,ab,3,14,lh,hl,FALSE,8801.555,18,male
43,ab,3,15,lh,hh,FALSE,1736.62,18,male
43,ab,3,16,hh,hh,TRUE,1147.476,18,male
43,ab,3,17,lh,hh,FALSE,1339.375,18,male
43,ab,3,18,lh,hh,FALSE,1118.7379999999998,18,male
43,ab,3,19,hl,hh,FALSE,1633.1799999999998,18,male
43,ab,3,20,hl,ll,FALSE,3487.7659999999996,18,male
43,ab,3,21,hh,hh,TRUE,1308.1729999999998,18,male
43,ab,3,22,ll,hh,FALSE,775.181,18,male
43,ab,3,23,lh,hh,FALSE,2767.799,18,male
43,ab,3,24,lh,ll,FALSE,7264.433999999999,18,male
43,ab,3,25,hl,hh,FALSE,9127.123,18,male
43,ab,3,26,lh,lh,TRUE,6920.475,18,male
43,ab,3,27,lh,hh,FALSE,3818.322,18,male
43,ab,3,28,lh,hh,FALSE,1136.2130000000002,18,male
43,ab,3,29,hl,hl,TRUE,6962.456,18,male
43,ab,3,30,ll,hh,FALSE,4444.05,18,male
43,ab,3,31,ll,hh,FALSE,1803.136,18,male
43,ab,3,32,ll,hh,FALSE,2179.832,18,male
43,ab,3,33,hh,hl,FALSE,4570.539,18,male
43,ab,3,34,hl,hl,TRUE,6058.26,18,male
43,ab,3,35,hh,hh,TRUE,1968.848,18,male
43,ab,3,36,hl,hh,FALSE,1609.183,18,male
43,ab,3,37,hl,hl,TRUE,9544.735,18,male
43,ab,3,38,lh,lh,TRUE,6996.989,18,male
43,ab,3,39,hh,hh,TRUE,5538.317,18,male
43,ab,3,40,hh,lh,FALSE,9363.785,18,male
43,ab,3,41,lh,ll,FALSE,8197.002,18,male
43,ab,3,42,lh,hh,FALSE,3006.524,18,male
43,ab,3,43,,,FALSE,15016.778,18,male
43,ab,3,44,ll,ll,TRUE,2388.688,18,male
43,ab,3,45,ll,ll,TRUE,2076.904,18,male
43,ab,3,46,lh,hh,FALSE,2576.081,18,male
43,ab,3,47,lh,ll,FALSE,4296.857,18,male
43,ab,3,48,hh,hh,TRUE,1261.339,18,male
43,ab,3,49,lh,hh,FALSE,860.0989999999999,18,male
43,ab,3,50,hl,hh,FALSE,1713.6219999999998,18,male
43,ab,3,51,hl,lh,FALSE,5597.913,18,male
43,ab,3,52,lh,lh,TRUE,3392.4840000000004,18,male
43,ab,3,53,hl,hh,FALSE,3802.594,18,male
43,ab,3,54,ll,hh,FALSE,3161.6899999999996,18,male
43,ab,3,55,ll,ll,TRUE,9140.894,18,male
43,ab,3,56,hl,hl,TRUE,9598.399,18,male
43,ab,3,57,lh,hh,FALSE,5650.147,18,male
43,ab,3,58,hh,hh,TRUE,1104.739,18,male
43,ab,3,59,lh,hh,FALSE,4508.036,18,male
43,ab,3,60,hl,hh,FALSE,1089.1480000000001,18,male
43,ab,3,61,hh,hh,TRUE,3517.7389999999996,18,male
43,ab,3,62,ll,ll,TRUE,4815.069,18,male
43,ab,3,63,lh,hh,FALSE,1644.659,18,male
43,ab,3,64,ll,hh,FALSE,1114.721,18,male
43,ab,3,65,hh,hh,TRUE,1494.272,18,male
43,ab,3,66,hl,ll,FALSE,4850.453,18,male
43,ab,3,67,hl,ll,FALSE,4103.203,18,male
43,ab,3,68,hh,hh,TRUE,1188.7040000000002,18,male
43,ab,3,69,hl,lh,FALSE,5805.594,18,male
43,ab,3,70,hh,hh,TRUE,1065.7869999999998,18,male
43,ab,3,71,lh,hh,FALSE,6224.476,18,male
43,ab,3,72,hh,hh,TRUE,6293.555,18,male
43,ab,3,73,hl,ll,FALSE,3841.251,18,male
43,ab,3,74,lh,lh,TRUE,6889.855,18,male
43,ab,3,75,hl,hh,FALSE,13013.841,18,male
43,ab,3,76,lh,ll,FALSE,7469.975,18,male
43,ab,3,77,hl,hh,FALSE,3271.4799999999996,18,male
43,ab,3,78,ll,hh,FALSE,5964.095,18,male
43,ab,3,79,lh,ll,FALSE,3039.081,18,male
43,ab,3,80,hh,hh,TRUE,4676.333,18,male
43,ab,3,81,ll,hh,FALSE,2064.308,18,male
43,ab,3,82,hl,ll,FALSE,4469.463,18,male
43,ab,3,83,hh,hh,TRUE,4227.318,18,male
43,ab,3,84,ll,ll,TRUE,2548.7,18,male
43,ab,3,85,ll,ll,TRUE,1219.63,18,male
43,ab,3,86,lh,ll,FALSE,1161.136,18,male
43,ab,3,87,hh,hh,TRUE,2154.699,18,male
43,ab,3,88,hh,hh,TRUE,2894.691,18,male
43,ab,3,89,ll,ll,TRUE,3369.746,18,male
43,ab,3,90,ll,ll,TRUE,2769.847,18,male
43,ab,3,91,lh,ll,FALSE,3328.527,18,male
43,ab,3,92,ll,hh,FALSE,5470.524,18,male
43,ab,3,93,ll,ll,TRUE,4682.916,18,male
43,ab,3,94,hh,hh,TRUE,4084.849,18,male
43,ab,3,95,lh,hl,FALSE,4751.876,18,male
43,ab,3,96,ll,ll,TRUE,8067.834000000001,18,male
43,ab,3,97,hh,hh,TRUE,2174.097,18,male
43,ab,3,98,hh,ll,FALSE,7358.825000000001,18,male
43,ab,3,99,hh,hh,TRUE,1920.371,18,male
43,ab,3,100,hh,hh,TRUE,1162.859,18,male
43,ab,3,101,hh,lh,FALSE,4941.211,18,male
43,ab,3,102,lh,hh,FALSE,13518.302,18,male
43,ab,3,103,hh,hh,TRUE,1041.857,18,male
43,ab,3,104,hl,hl,TRUE,5823.413,18,male
43,ab,3,105,ll,hh,FALSE,4485.783,18,male
43,ab,3,106,ll,hh,FALSE,1938.719,18,male
43,ab,3,107,ll,hl,FALSE,7251.0869999999995,18,male
43,ab,3,108,hh,hh,TRUE,2048.836,18,male
43,ab,3,109,hl,hl,TRUE,10254.962,18,male
43,ab,3,110,lh,ll,FALSE,7283.463,18,male
43,ab,3,111,lh,ll,FALSE,3712.5290000000005,18,male
43,ab,3,112,hh,hh,TRUE,2525.048,18,male
43,ab,3,113,hh,hh,TRUE,2909.585,18,male
43,ab,3,114,lh,ll,FALSE,4403.087,18,male
43,ab,3,115,ll,ll,TRUE,4481.894,18,male
43,ab,3,116,hl,hh,FALSE,3291.2120000000004,18,male
43,ab,3,117,hh,hh,TRUE,5235.078,18,male
43,ab,3,118,hl,ll,FALSE,4998.875,18,male
43,ab,3,119,lh,hh,FALSE,4542.504,18,male
43,ab,3,120,hh,hl,FALSE,6543.754,18,male
43,ab,4,1,ll,ll,TRUE,2409.69,18,male
43,ab,4,2,hh,hh,TRUE,1754.7040000000002,18,male
43,ab,4,3,lh,lh,TRUE,5933.676,18,male
43,ab,4,4,hl,ll,FALSE,5878.503,18,male
43,ab,4,5,hl,ll,FALSE,1434.15,18,male
43,ab,4,6,lh,hh,FALSE,1831.7179999999998,18,male
43,ab,4,7,hh,hh,TRUE,1052.0639999999999,18,male
43,ab,4,8,hh,hh,TRUE,3003.156,18,male
43,ab,4,9,hl,ll,FALSE,1059.799,18,male
43,ab,4,10,ll,lh,FALSE,4647.324,18,male
43,ab,4,11,hl,ll,FALSE,1949.0459999999998,18,male
43,ab,4,12,ll,ll,TRUE,1590.6060000000002,18,male
43,ab,4,13,hh,hh,TRUE,2025.3159999999998,18,male
43,ab,4,14,hh,ll,FALSE,6400.012,18,male
43,ab,4,15,ll,lh,FALSE,6463.248,18,male
43,ab,4,16,lh,ll,FALSE,1716.1219999999998,18,male
43,ab,4,17,lh,ll,FALSE,2669.208,18,male
43,ab,4,18,hl,hl,TRUE,6962.117,18,male
43,ab,4,19,hl,hh,FALSE,9493.556,18,male
43,ab,4,20,ll,ll,TRUE,9830.689,18,male
43,ab,4,21,ll,ll,TRUE,2957.537,18,male
43,ab,4,22,hl,ll,FALSE,4446.36,18,male
43,ab,4,23,ll,ll,TRUE,1206.652,18,male
43,ab,4,24,hl,hl,TRUE,5341.975,18,male
43,ab,4,25,hl,hh,FALSE,3584.223,18,male
43,ab,4,26,hh,hl,FALSE,3550.044,18,male
43,ab,4,27,ll,ll,TRUE,2840.836,18,male
43,ab,4,28,hl,hh,FALSE,3476.9939999999997,18,male
43,ab,4,29,hl,lh,FALSE,6138.853,18,male
43,ab,4,30,ll,ll,TRUE,4475.682,18,male
43,ab,4,31,hl,hh,FALSE,2552.536,18,male
43,ab,4,32,hl,hl,TRUE,7537.93,18,male
43,ab,4,33,lh,hl,FALSE,6933.745,18,male
43,ab,4,34,lh,hh,FALSE,3767.8370000000004,18,male
43,ab,4,35,ll,ll,TRUE,4694.503,18,male
43,ab,4,36,hh,hh,TRUE,2093.909,18,male
43,ab,4,37,hl,ll,FALSE,6337.426,18,male
43,ab,4,38,hl,lh,FALSE,9155.141,18,male
43,ab,4,39,ll,hl,FALSE,6842.163,18,male
43,ab,4,40,ll,ll,TRUE,8970.569,18,male
43,ab,4,41,lh,ll,FALSE,9607.669,18,male
43,ab,4,42,hl,ll,FALSE,7262.875,18,male
43,ab,4,43,lh,hh,FALSE,3013.513,18,male
43,ab,4,44,ll,ll,TRUE,4292.923,18,male
43,ab,4,45,ll,ll,TRUE,3624.513,18,male
43,ab,4,46,hl,hh,FALSE,3193.0510000000004,18,male
43,ab,4,47,hl,hl,TRUE,9663.516,18,male
43,ab,4,48,hl,hh,FALSE,5555.613,18,male
43,ab,4,49,hl,lh,FALSE,7974.481,18,male
43,ab,4,50,ll,ll,TRUE,1909.5680000000002,18,male
43,ab,4,51,ll,ll,TRUE,2688.564,18,male
43,ab,4,52,,,FALSE,15016.761,18,male
43,ab,4,53,ll,ll,TRUE,5268.669,18,male
43,ab,4,54,lh,ll,FALSE,2473.51,18,male
43,ab,4,55,ll,ll,TRUE,2533.977,18,male
43,ab,4,56,lh,hl,FALSE,5143.099,18,male
43,ab,4,57,ll,ll,TRUE,4129.18,18,male
43,ab,4,58,ll,ll,TRUE,1035.621,18,male
43,ab,4,59,lh,hh,FALSE,3747.6130000000003,18,male
43,ab,4,60,lh,hh,FALSE,4723.093,18,male
43,ab,4,61,hl,lh,FALSE,11297.399,18,male
43,ab,4,62,ll,ll,TRUE,3396.4939999999997,18,male
43,ab,4,63,hh,hh,TRUE,3019.264,18,male
43,ab,4,64,lh,ll,FALSE,2120.803,18,male
43,ab,4,65,hh,hh,TRUE,1395.547,18,male
43,ab,4,66,lh,ll,FALSE,1294.112,18,male
43,ab,4,67,hl,hh,FALSE,1511.2040000000002,18,male
43,ab,4,68,hh,hl,FALSE,6613.322,18,male
43,ab,4,69,hl,hh,FALSE,5105.971,18,male
43,ab,4,70,hh,hh,TRUE,2836.992,18,male
43,ab,4,71,ll,hl,FALSE,6308.435,18,male
43,ab,4,72,lh,hh,FALSE,4647.201,18,male
43,ab,4,73,ll,ll,TRUE,1058.7420000000002,18,male
43,ab,4,74,lh,hh,FALSE,7794.984,18,male
43,ab,4,75,hh,hh,TRUE,1752.167,18,male
43,ab,4,76,hh,hl,FALSE,6513.678,18,male
43,ab,4,77,ll,ll,TRUE,1575.4099999999999,18,male
43,ab,4,78,hh,hh,TRUE,2901.607,18,male
43,ab,4,79,ll,hh,FALSE,10091.347,18,male
43,ab,4,80,hh,hh,TRUE,1653.667,18,male
43,ab,4,81,lh,hh,FALSE,5788.492,18,male
43,ab,4,82,hl,hh,FALSE,7435.397999999999,18,male
43,ab,4,83,hl,lh,FALSE,8272.986,18,male
43,ab,4,84,hl,hh,FALSE,4269.036,18,male
43,ab,4,85,lh,ll,FALSE,2473.426,18,male
43,ab,4,86,lh,ll,FALSE,2712.584,18,male
43,ab,4,87,hh,hh,TRUE,1545.9009999999998,18,male
43,ab,4,88,ll,ll,TRUE,1901.4899999999998,18,male
43,ab,4,89,hh,hh,TRUE,2511.354,18,male
43,ab,4,90,lh,ll,FALSE,1754.266,18,male
43,ab,4,91,hl,hh,FALSE,2083.872,18,male
43,ab,4,92,lh,hh,FALSE,1335.5349999999999,18,male
43,ab,4,93,hl,hh,FALSE,1249.692,18,male
43,ab,4,94,ll,ll,TRUE,967.5820000000001,18,male
43,ab,4,95,ll,lh,FALSE,5418.043,18,male
43,ab,4,96,hl,ll,FALSE,12774.93,18,male
43,ab,4,97,hh,hh,TRUE,1040.984,18,male
43,ab,4,98,lh,lh,TRUE,12852.958,18,male
43,ab,4,99,hh,ll,FALSE,3819.758,18,male
43,ab,4,100,ll,ll,TRUE,1376.397,18,male
43,ab,4,101,hh,lh,FALSE,3042.453,18,male
43,ab,4,102,ll,ll,TRUE,4723.01,18,male
43,ab,4,103,ll,ll,TRUE,3148.9700000000003,18,male
43,ab,4,104,hl,hh,FALSE,4037.5150000000003,18,male
43,ab,4,105,hh,hh,TRUE,1355.0990000000002,18,male
43,ab,4,106,hh,hh,TRUE,3154.942,18,male
43,ab,4,107,lh,ll,FALSE,2437.822,18,male
43,ab,4,108,ll,ll,TRUE,793.787,18,male
43,ab,4,109,lh,ll,FALSE,3209.559,18,male
43,ab,4,110,hl,ll,FALSE,2536.924,18,male
43,ab,4,111,hh,hl,FALSE,6637.417,18,male
43,ab,4,112,lh,ll,FALSE,1960.4810000000002,18,male
43,ab,4,113,lh,ll,FALSE,3210.41,18,male
43,ab,4,114,ll,hh,FALSE,5235.924,18,male
43,ab,4,115,hl,ll,FALSE,3335.652,18,male
43,ab,4,116,lh,ll,FALSE,3002.467,18,male
43,ab,4,117,hl,hl,TRUE,7780.263000000001,18,male
43,ab,4,118,hl,hl,TRUE,3090.744,18,male
43,ab,4,119,ll,ll,TRUE,4767.293,18,male
43,ab,4,120,hl,hh,FALSE,2013.6529999999998,18,male
43,ab,5,1,ll,ll,TRUE,8580.899,18,male
43,ab,5,2,hh,hh,TRUE,946.9659999999999,18,male
43,ab,5,3,hh,ll,FALSE,4927.594,18,male
43,ab,5,4,ll,ll,TRUE,11079.489,18,male
43,ab,5,5,lh,lh,TRUE,3269.4129999999996,18,male
43,ab,5,6,hl,ll,FALSE,3448.853,18,male
43,ab,5,7,hh,hh,TRUE,2048.743,18,male
43,ab,5,8,lh,hl,FALSE,8099.498,18,male
43,ab,5,9,ll,hh,FALSE,7566.882,18,male
43,ab,5,10,hl,hh,FALSE,926.76,18,male
43,ab,5,11,ll,ll,TRUE,6897.414,18,male
43,ab,5,12,hh,hh,TRUE,2976.886,18,male
43,ab,5,13,hh,hh,TRUE,1710.7620000000002,18,male
43,ab,5,14,hh,hh,TRUE,1139.167,18,male
43,ab,5,15,hh,lh,FALSE,5027.557,18,male
43,ab,5,16,lh,ll,FALSE,1089.634,18,male
43,ab,5,17,lh,hl,FALSE,5960.435,18,male
43,ab,5,18,hl,hl,TRUE,7856.803,18,male
43,ab,5,19,hh,hl,FALSE,5324.478,18,male
43,ab,5,20,hh,hh,TRUE,1583.431,18,male
43,ab,5,21,lh,lh,TRUE,8896.139,18,male
43,ab,5,22,hh,lh,FALSE,8315.656,18,male
43,ab,5,23,hh,hh,TRUE,1718.7440000000001,18,male
43,ab,5,24,hl,hh,FALSE,7929.273999999999,18,male
43,ab,5,25,hh,hh,TRUE,1734.8020000000001,18,male
43,ab,5,26,hl,hh,FALSE,2367.532,18,male
43,ab,5,27,hl,hl,TRUE,9821.659,18,male
43,ab,5,28,lh,hh,FALSE,1159.248,18,male
43,ab,5,29,hl,hh,FALSE,3462.5029999999997,18,male
43,ab,5,30,lh,ll,FALSE,3682.992,18,male
43,ab,5,31,lh,ll,FALSE,2249.18,18,male
43,ab,5,32,hl,hh,FALSE,10243.94,18,male
43,ab,5,33,ll,ll,TRUE,2441.893,18,male
43,ab,5,34,hl,hl,TRUE,8648.788,18,male
43,ab,5,35,hh,ll,FALSE,6132.917,18,male
43,ab,5,36,ll,hl,FALSE,6594.558,18,male
43,ab,5,37,hl,hl,TRUE,8528.799,18,male
43,ab,5,38,lh,ll,FALSE,6121.642,18,male
43,ab,5,39,ll,hh,FALSE,1780.7199999999998,18,male
43,ab,5,40,hl,lh,FALSE,6701.344,18,male
43,ab,5,41,ll,ll,TRUE,5079.687,18,male
43,ab,5,42,lh,hh,FALSE,9484.208,18,male
43,ab,5,43,hl,hh,FALSE,1105.9609999999998,18,male
43,ab,5,44,ll,ll,TRUE,3061.936,18,male
43,ab,5,45,ll,ll,TRUE,1465.3939999999998,18,male
43,ab,5,46,lh,ll,FALSE,4799.615,18,male
43,ab,5,47,hl,lh,FALSE,4413.24,18,male
43,ab,5,48,lh,ll,FALSE,3612.643,18,male
43,ab,5,49,ll,ll,TRUE,5374.32,18,male
43,ab,5,50,lh,ll,FALSE,13207.484,18,male
43,ab,5,51,hl,hh,FALSE,5842.869,18,male
43,ab,5,52,hl,hh,FALSE,3337.1639999999998,18,male
43,ab,5,53,ll,ll,TRUE,1724.0720000000001,18,male
43,ab,5,54,hh,hl,FALSE,4056.2799999999997,18,male
43,ab,5,55,ll,ll,TRUE,1083.13,18,male
43,ab,5,56,lh,hh,FALSE,3256.9089999999997,18,male
43,ab,5,57,hl,hh,FALSE,823.288,18,male
43,ab,5,58,ll,ll,TRUE,6931.157,18,male
43,ab,5,59,hh,hh,TRUE,1589.9969999999998,18,male
43,ab,5,60,ll,ll,TRUE,4790.08,18,male
43,ab,5,61,hh,hh,TRUE,1319.8069999999998,18,male
43,ab,5,62,ll,ll,TRUE,1570.716,18,male
43,ab,5,63,lh,hh,FALSE,8616.842,18,male
43,ab,5,64,hl,hh,FALSE,3841.8509999999997,18,male
43,ab,5,65,lh,ll,FALSE,8013.871999999999,18,male
43,ab,5,66,hh,hh,TRUE,1278.6779999999999,18,male
43,ab,5,67,lh,hh,FALSE,5753.765,18,male
43,ab,5,68,hh,lh,FALSE,6458.998,18,male
43,ab,5,69,ll,ll,TRUE,1272.3760000000002,18,male
43,ab,5,70,ll,hh,FALSE,12408.271,18,male
43,ab,5,71,ll,lh,FALSE,7062.143,18,male
43,ab,5,72,hl,hh,FALSE,1148.746,18,male
43,ab,5,73,lh,hh,FALSE,1555.159,18,male
43,ab,5,74,ll,ll,TRUE,4804.461,18,male
43,ab,5,75,hh,hh,TRUE,2021.987,18,male
43,ab,5,76,ll,ll,TRUE,9314.42,18,male
43,ab,5,77,hl,ll,FALSE,1871.962,18,male
43,ab,5,78,hl,ll,FALSE,4861.401,18,male
43,ab,5,79,lh,ll,FALSE,1544.538,18,male
43,ab,5,80,hh,hl,FALSE,5004.328,18,male
43,ab,5,81,ll,ll,TRUE,5570.44,18,male
43,ab,5,82,lh,ll,FALSE,5162.946,18,male
43,ab,5,83,ll,ll,TRUE,4079.5559999999996,18,male
43,ab,5,84,lh,lh,TRUE,4388.1,18,male
43,ab,5,85,hl,hh,FALSE,1975.502,18,male
43,ab,5,86,hh,hh,TRUE,1729.2600000000002,18,male
43,ab,5,87,hl,ll,FALSE,6731.24,18,male
43,ab,5,88,lh,lh,TRUE,4752.688,18,male
43,ab,5,89,ll,lh,FALSE,9266.141,18,male
43,ab,5,90,lh,ll,FALSE,4115.495,18,male
43,ab,5,91,ll,hh,FALSE,4913.161,18,male
43,ab,5,92,hl,hh,FALSE,2002.531,18,male
43,ab,5,93,lh,ll,FALSE,2545.495,18,male
43,ab,5,94,lh,hh,FALSE,3532.791,18,male
43,ab,5,95,lh,ll,FALSE,5445.848,18,male
43,ab,5,96,lh,hl,FALSE,6796.641,18,male
43,ab,5,97,lh,ll,FALSE,8371.727,18,male
43,ab,5,98,ll,ll,TRUE,1581.933,18,male
43,ab,5,99,ll,ll,TRUE,1834.1819999999998,18,male
43,ab,5,100,hl,lh,FALSE,9811.523,18,male
43,ab,5,101,hl,hh,FALSE,2147.576,18,male
43,ab,5,102,lh,ll,FALSE,8261.839,18,male
43,ab,5,103,hh,hh,TRUE,6864.275,18,male
43,ab,5,104,lh,hl,FALSE,11038.007,18,male
43,ab,5,105,lh,lh,TRUE,10861.43,18,male
43,ab,5,106,hl,hh,FALSE,1450.042,18,male
43,ab,5,107,hl,hl,TRUE,5790.146,18,male
43,ab,5,108,lh,ll,FALSE,7720.504000000001,18,male
43,ab,5,109,lh,ll,FALSE,1282.0410000000002,18,male
43,ab,5,110,hh,hl,FALSE,6189.897,18,male
43,ab,5,111,hh,hh,TRUE,1116.875,18,male
43,ab,5,112,hl,hh,FALSE,1610.5140000000001,18,male
43,ab,5,113,lh,ll,FALSE,5671.323,18,male
43,ab,5,114,lh,ll,FALSE,3559.5069999999996,18,male
43,ab,5,115,ll,ll,TRUE,1165.3310000000001,18,male
43,ab,5,116,hh,hh,TRUE,1430.837,18,male
43,ab,5,117,lh,hl,FALSE,3503.41,18,male
43,ab,5,118,lh,hh,FALSE,1635.7510000000002,18,male
43,ab,5,119,lh,hl,FALSE,9972.792,18,male
43,ab,5,120,lh,hl,FALSE,4550.365,18,male
