pID,condition,block_no,trial_no,stimulus,response,correct,rt,age,gender
39,ab,1,1,hl,ll,FALSE,6831.084,19,male
39,ab,1,2,hh,hl,FALSE,7395.754000000001,19,male
39,ab,1,3,lh,hh,FALSE,3847.635,19,male
39,ab,1,4,lh,lh,TRUE,10471.558,19,male
39,ab,1,5,lh,lh,TRUE,9072.949,19,male
39,ab,1,6,hh,hh,TRUE,6215.341,19,male
39,ab,1,7,hh,hh,TRUE,1707.464,19,male
39,ab,1,8,lh,ll,FALSE,9590.161,19,male
39,ab,1,9,hl,hh,FALSE,3780.642,19,male
39,ab,1,10,ll,hl,FALSE,6544.604,19,male
39,ab,1,11,ll,ll,TRUE,5902.608,19,male
39,ab,1,12,hl,lh,FALSE,4210.426,19,male
39,ab,1,13,hl,hh,FALSE,6395.355,19,male
39,ab,1,14,hl,hh,FALSE,7504.009,19,male
39,ab,1,15,lh,lh,TRUE,10062.407,19,male
39,ab,1,16,hh,lh,FALSE,7403.0740000000005,19,male
39,ab,1,17,,,FALSE,14680.527,19,male
39,ab,1,18,lh,ll,FALSE,8058.691999999999,19,male
39,ab,1,19,ll,ll,TRUE,4820.212,19,male
39,ab,1,20,hh,hh,TRUE,1811.799,19,male
39,ab,1,21,hh,hh,TRUE,1353.2559999999999,19,male
39,ab,1,22,lh,lh,TRUE,8224.938,19,male
39,ab,1,23,lh,hh,FALSE,4090.4849999999997,19,male
39,ab,1,24,ll,lh,FALSE,8176.682000000001,19,male
39,ab,1,25,lh,ll,FALSE,4291.804,19,male
39,ab,1,26,hl,ll,FALSE,8344.639,19,male
39,ab,1,27,hh,hh,TRUE,1458.888,19,male
39,ab,1,28,hh,hh,TRUE,1743.266,19,male
39,ab,1,29,lh,lh,TRUE,5320.994,19,male
39,ab,1,30,hh,hh,TRUE,1731.4899999999998,19,male
39,ab,1,31,lh,ll,FALSE,2370.829,19,male
39,ab,1,32,lh,lh,TRUE,9675.466,19,male
39,ab,1,33,lh,ll,FALSE,5454.978,19,male
39,ab,1,34,ll,ll,TRUE,9355.852,19,male
39,ab,1,35,hh,hh,TRUE,1933.145,19,male
39,ab,1,36,ll,hl,FALSE,6444.947,19,male
39,ab,1,37,hl,hh,FALSE,6006.121,19,male
39,ab,1,38,hl,ll,FALSE,8277.562,19,male
39,ab,1,39,hl,ll,FALSE,4868.299,19,male
39,ab,1,40,hl,lh,FALSE,10561.146,19,male
39,ab,1,41,ll,ll,TRUE,6591.939,19,male
39,ab,1,42,lh,lh,TRUE,9971.953,19,male
39,ab,1,43,hh,lh,FALSE,5836.457,19,male
39,ab,1,44,hh,hh,TRUE,5041.49,19,male
39,ab,1,45,hh,hh,TRUE,2367.695,19,male
39,ab,1,46,lh,hh,FALSE,3830.215,19,male
39,ab,1,47,hh,hh,TRUE,2324.658,19,male
39,ab,1,48,ll,ll,TRUE,5829.039,19,male
39,ab,1,49,hl,lh,FALSE,12650.823,19,male
39,ab,1,50,hh,lh,FALSE,7041.462,19,male
39,ab,1,51,lh,ll,FALSE,4563.617,19,male
39,ab,1,52,hl,hl,TRUE,6293.086,19,male
39,ab,1,53,hh,ll,FALSE,9863.611,19,male
39,ab,1,54,ll,ll,TRUE,5322.093,19,male
39,ab,1,55,hh,hh,TRUE,2924.322,19,male
39,ab,1,56,lh,ll,FALSE,5411.191,19,male
39,ab,1,57,lh,ll,FALSE,3296.817,19,male
39,ab,1,58,hh,hh,TRUE,2394.152,19,male
39,ab,1,59,hl,ll,FALSE,4398.825,19,male
39,ab,1,60,lh,ll,FALSE,2175.965,19,male
39,ab,1,61,ll,ll,TRUE,9541.731,19,male
39,ab,1,62,ll,ll,TRUE,3591.544,19,male
39,ab,1,63,ll,hh,FALSE,10219.189,19,male
39,ab,1,64,lh,hh,FALSE,2509.95,19,male
39,ab,1,65,hh,hl,FALSE,7623.593999999999,19,male
39,ab,1,66,hl,hh,FALSE,1969.598,19,male
39,ab,1,67,lh,lh,TRUE,8375.824,19,male
39,ab,1,68,ll,ll,TRUE,7201.867,19,male
39,ab,1,69,hh,hh,TRUE,2102.565,19,male
39,ab,1,70,lh,hl,FALSE,10223.59,19,male
39,ab,1,71,hh,hh,TRUE,2667.945,19,male
39,ab,1,72,lh,hh,FALSE,7597.585999999999,19,male
39,ab,1,73,hl,hh,FALSE,5264.781,19,male
39,ab,1,74,ll,ll,TRUE,4612.968,19,male
39,ab,1,75,hl,ll,FALSE,7716.521000000001,19,male
39,ab,1,76,hl,hl,TRUE,11768.633,19,male
39,ab,1,77,lh,hh,FALSE,11751.747,19,male
39,ab,1,78,hl,hl,TRUE,4372.759,19,male
39,ab,1,79,lh,ll,FALSE,5542.821,19,male
39,ab,1,80,hl,hh,FALSE,2110.504,19,male
39,ab,1,81,ll,hl,FALSE,3048.813,19,male
39,ab,1,82,lh,hh,FALSE,1434.513,19,male
39,ab,1,83,ll,lh,FALSE,7576.011,19,male
39,ab,1,84,ll,lh,FALSE,4644.314,19,male
39,ab,1,85,lh,hh,FALSE,5803.375,19,male
39,ab,1,86,hl,ll,FALSE,4113.283,19,male
39,ab,1,87,lh,hh,FALSE,12733.216,19,male
39,ab,1,88,hl,hh,FALSE,3138.2700000000004,19,male
39,ab,1,89,lh,ll,FALSE,9951.958,19,male
39,ab,1,90,ll,hh,FALSE,4568.636,19,male
39,ab,1,91,lh,ll,FALSE,10947.027,19,male
39,ab,1,92,ll,hl,FALSE,9768.21,19,male
39,ab,1,93,lh,hh,FALSE,2985.707,19,male
39,ab,1,94,lh,ll,FALSE,6029.991,19,male
39,ab,1,95,hl,hh,FALSE,2194.517,19,male
39,ab,1,96,lh,lh,TRUE,10761.149,19,male
39,ab,1,97,ll,hh,FALSE,9687.138,19,male
39,ab,1,98,hh,hh,TRUE,1593.192,19,male
39,ab,1,99,hl,hh,FALSE,1624.027,19,male
39,ab,1,100,hl,hl,TRUE,9245.733,19,male
39,ab,1,101,lh,hh,FALSE,1435.12,19,male
39,ab,1,102,hl,hl,TRUE,7080.815,19,male
39,ab,1,103,hh,hh,TRUE,1393.6129999999998,19,male
39,ab,1,104,hl,hh,FALSE,3166.496,19,male
39,ab,1,105,ll,ll,TRUE,2477.787,19,male
39,ab,1,106,lh,lh,TRUE,10223.124,19,male
39,ab,1,107,hh,hh,TRUE,2355.468,19,male
39,ab,1,108,lh,hh,FALSE,3056.691,19,male
39,ab,1,109,hh,hh,TRUE,2098.983,19,male
39,ab,1,110,hl,hh,FALSE,4549.008,19,male
39,ab,1,111,lh,lh,TRUE,11103.466,19,male
39,ab,1,112,hl,lh,FALSE,6494.245,19,male
39,ab,1,113,lh,lh,TRUE,7775.826999999999,19,male
39,ab,1,114,hl,hh,FALSE,5059.409,19,male
39,ab,1,115,lh,ll,FALSE,10374.382,19,male
39,ab,1,116,hl,hh,FALSE,1287.435,19,male
39,ab,1,117,lh,hh,FALSE,3393.723,19,male
39,ab,1,118,hl,ll,FALSE,2162.811,19,male
39,ab,1,119,hl,hh,FALSE,3075.632,19,male
39,ab,1,120,ll,ll,TRUE,6003.459,19,male
39,ab,2,1,hl,ll,FALSE,5665.148,19,male
39,ab,2,2,ll,ll,TRUE,5549.396,19,male
39,ab,2,3,ll,ll,TRUE,5053.723,19,male
39,ab,2,4,hh,hh,TRUE,1291.534,19,male
39,ab,2,5,lh,ll,FALSE,6982.928,19,male
39,ab,2,6,lh,hl,FALSE,7323.391,19,male
39,ab,2,7,hl,ll,FALSE,9722.49,19,male
39,ab,2,8,ll,hl,FALSE,6828.308,19,male
39,ab,2,9,hh,hh,TRUE,3240.165,19,male
39,ab,2,10,ll,ll,TRUE,2104.537,19,male
39,ab,2,11,hl,hh,FALSE,1416.759,19,male
39,ab,2,12,hh,hh,TRUE,1520.1799999999998,19,male
39,ab,2,13,hh,hh,TRUE,1184.2779999999998,19,male
39,ab,2,14,ll,ll,TRUE,1810.522,19,male
39,ab,2,15,hl,lh,FALSE,9382.786,19,male
39,ab,2,16,hh,hh,TRUE,2695.865,19,male
39,ab,2,17,hl,hh,FALSE,4775.437,19,male
39,ab,2,18,ll,lh,FALSE,10617.138,19,male
39,ab,2,19,hl,ll,FALSE,6245.356,19,male
39,ab,2,20,lh,hh,FALSE,10393.191,19,male
39,ab,2,21,hl,hh,FALSE,3926.7219999999998,19,male
39,ab,2,22,lh,ll,FALSE,3355.464,19,male
39,ab,2,23,ll,ll,TRUE,2585.055,19,male
39,ab,2,24,ll,ll,TRUE,2115.507,19,male
39,ab,2,25,ll,ll,TRUE,2646.729,19,male
39,ab,2,26,hh,hh,TRUE,2128.921,19,male
39,ab,2,27,hl,hh,FALSE,8641.228,19,male
39,ab,2,28,ll,ll,TRUE,2062.22,19,male
39,ab,2,29,hh,hh,TRUE,1219.284,19,male
39,ab,2,30,ll,lh,FALSE,7912.563,19,male
39,ab,2,31,ll,ll,TRUE,3839.678,19,male
39,ab,2,32,hh,hh,TRUE,1285.3890000000001,19,male
39,ab,2,33,lh,lh,TRUE,1969.737,19,male
39,ab,2,34,lh,lh,TRUE,11602.853,19,male
39,ab,2,35,hl,hl,TRUE,9238.554,19,male
39,ab,2,36,ll,ll,TRUE,4949.351,19,male
39,ab,2,37,ll,hh,FALSE,4118.753,19,male
39,ab,2,38,hh,ll,FALSE,4209.642,19,male
39,ab,2,39,hl,ll,FALSE,2754.982,19,male
39,ab,2,40,hl,hl,TRUE,4474.072,19,male
39,ab,2,41,lh,lh,TRUE,5112.075,19,male
39,ab,2,42,hh,ll,FALSE,5560.447,19,male
39,ab,2,43,hh,hh,TRUE,3923.5519999999997,19,male
39,ab,2,44,lh,lh,TRUE,12296.401,19,male
39,ab,2,45,hl,hl,TRUE,10526.957,19,male
39,ab,2,46,lh,ll,FALSE,3020.582,19,male
39,ab,2,47,hh,hh,TRUE,2663.784,19,male
39,ab,2,48,hl,hl,TRUE,4067.527,19,male
39,ab,2,49,lh,hl,FALSE,12154.439,19,male
39,ab,2,50,hh,hh,TRUE,3366.7790000000005,19,male
39,ab,2,51,hl,hh,FALSE,1233.074,19,male
39,ab,2,52,hh,hl,FALSE,4550.46,19,male
39,ab,2,53,ll,ll,TRUE,5203.906,19,male
39,ab,2,54,ll,ll,TRUE,6723.594,19,male
39,ab,2,55,hh,hl,FALSE,8475.305,19,male
39,ab,2,56,hh,hh,TRUE,5535.703,19,male
39,ab,2,57,lh,hl,FALSE,7403.227999999999,19,male
39,ab,2,58,lh,ll,FALSE,12398.603,19,male
39,ab,2,59,lh,lh,TRUE,5927.858,19,male
39,ab,2,60,ll,hl,FALSE,3385.429,19,male
39,ab,2,61,hl,hh,FALSE,9300.861,19,male
39,ab,2,62,hl,hh,FALSE,2321.352,19,male
39,ab,2,63,hh,hh,TRUE,1711.317,19,male
39,ab,2,64,ll,ll,TRUE,4779.235,19,male
39,ab,2,65,hh,hh,TRUE,1324.6750000000002,19,male
39,ab,2,66,hh,hh,TRUE,2214.027,19,male
39,ab,2,67,hl,hh,FALSE,6890.493,19,male
39,ab,2,68,hl,hl,TRUE,4463.973,19,male
39,ab,2,69,lh,hh,FALSE,3977.017,19,male
39,ab,2,70,lh,ll,FALSE,8587.138,19,male
39,ab,2,71,hh,hh,TRUE,4188.433,19,male
39,ab,2,72,ll,ll,TRUE,9023.227,19,male
39,ab,2,73,hh,hh,TRUE,6949.817,19,male
39,ab,2,74,hl,hl,TRUE,9444.379,19,male
39,ab,2,75,hh,hl,FALSE,11304.184,19,male
39,ab,2,76,hl,hl,TRUE,9098.379,19,male
39,ab,2,77,hh,hh,TRUE,1647.13,19,male
39,ab,2,78,ll,hl,FALSE,10800.529,19,male
39,ab,2,79,ll,ll,TRUE,5006.412,19,male
39,ab,2,80,hh,hh,TRUE,1520.3850000000002,19,male
39,ab,2,81,ll,ll,TRUE,5375.048,19,male
39,ab,2,82,hh,hl,FALSE,4914.476,19,male
39,ab,2,83,ll,hh,FALSE,5502.352,19,male
39,ab,2,84,ll,hh,FALSE,1712.7510000000002,19,male
39,ab,2,85,ll,lh,FALSE,11242.492,19,male
39,ab,2,86,lh,hh,FALSE,3764.7479999999996,19,male
39,ab,2,87,ll,hl,FALSE,4056.5280000000002,19,male
39,ab,2,88,hh,hh,TRUE,2887.678,19,male
39,ab,2,89,ll,ll,TRUE,4927.945,19,male
39,ab,2,90,hl,hl,TRUE,4771.031,19,male
39,ab,2,91,hh,hh,TRUE,1676.7020000000002,19,male
39,ab,2,92,lh,hh,FALSE,1991.8980000000001,19,male
39,ab,2,93,lh,lh,TRUE,4818.723,19,male
39,ab,2,94,hh,hh,TRUE,9234.11,19,male
39,ab,2,95,hl,hh,FALSE,9218.466,19,male
39,ab,2,96,ll,lh,FALSE,7920.924999999999,19,male
39,ab,2,97,hl,hl,TRUE,7499.884,19,male
39,ab,2,98,hl,ll,FALSE,4814.45,19,male
39,ab,2,99,ll,ll,TRUE,4285.987,19,male
39,ab,2,100,ll,ll,TRUE,3707.2839999999997,19,male
39,ab,2,101,hl,hh,FALSE,4761.083,19,male
39,ab,2,102,,,FALSE,14680.476,19,male
39,ab,2,103,ll,ll,TRUE,5602.537,19,male
39,ab,2,104,ll,ll,TRUE,9125.858,19,male
39,ab,2,105,lh,ll,FALSE,8244.627,19,male
39,ab,2,106,hl,hl,TRUE,10737.361,19,male
39,ab,2,107,hl,hh,FALSE,8996.615,19,male
39,ab,2,108,hl,hh,FALSE,2877.71,19,male
39,ab,2,109,hh,ll,FALSE,7054.857,19,male
39,ab,2,110,hl,hh,FALSE,2263.839,19,male
39,ab,2,111,lh,lh,TRUE,11338.574,19,male
39,ab,2,112,ll,ll,TRUE,3438.165,19,male
39,ab,2,113,hh,hh,TRUE,9259.66,19,male
39,ab,2,114,hl,ll,FALSE,3965.3509999999997,19,male
39,ab,2,115,hl,lh,FALSE,12356.005,19,male
39,ab,2,116,lh,lh,TRUE,10981.523,19,male
39,ab,2,117,ll,hh,FALSE,4300.876,19,male
39,ab,2,118,ll,ll,TRUE,2162.248,19,male
39,ab,2,119,hl,hl,TRUE,6193.261,19,male
39,ab,2,120,ll,ll,TRUE,2775.414,19,male
39,ab,3,1,hh,hh,TRUE,1889.132,19,male
39,ab,3,2,ll,hl,FALSE,7955.342000000001,19,male
39,ab,3,3,lh,hh,FALSE,5655.221,19,male
39,ab,3,4,hh,hh,TRUE,1748.0479999999998,19,male
39,ab,3,5,ll,lh,FALSE,4177.725,19,male
39,ab,3,6,lh,hl,FALSE,10903.49,19,male
39,ab,3,7,ll,ll,TRUE,2623.246,19,male
39,ab,3,8,hl,ll,FALSE,2025.7130000000002,19,male
39,ab,3,9,lh,ll,FALSE,2395.514,19,male
39,ab,3,10,lh,ll,FALSE,1768.0790000000002,19,male
39,ab,3,11,ll,hl,FALSE,4778.798,19,male
39,ab,3,12,hh,hh,TRUE,5019.573,19,male
39,ab,3,13,ll,hh,FALSE,1265.217,19,male
39,ab,3,14,lh,lh,TRUE,13039.511,19,male
39,ab,3,15,lh,lh,TRUE,9146.482,19,male
39,ab,3,16,ll,ll,TRUE,7680.044,19,male
39,ab,3,17,hh,hh,TRUE,1583.868,19,male
39,ab,3,18,ll,ll,TRUE,3110.794,19,male
39,ab,3,19,ll,hh,FALSE,1674.87,19,male
39,ab,3,20,lh,hh,FALSE,3329.468,19,male
39,ab,3,21,ll,ll,TRUE,6564.14,19,male
39,ab,3,22,hh,hh,TRUE,4426.146,19,male
39,ab,3,23,hl,hh,FALSE,2066.147,19,male
39,ab,3,24,lh,hh,FALSE,8048.206,19,male
39,ab,3,25,hh,hh,TRUE,9784.711,19,male
39,ab,3,26,ll,ll,TRUE,8727.219,19,male
39,ab,3,27,hl,hh,FALSE,6027.769,19,male
39,ab,3,28,hl,ll,FALSE,2391.217,19,male
39,ab,3,29,hh,hh,TRUE,1971.9859999999999,19,male
39,ab,3,30,lh,lh,TRUE,5735.573,19,male
39,ab,3,31,lh,hh,FALSE,2587.604,19,male
39,ab,3,32,hh,hh,TRUE,2150.439,19,male
39,ab,3,33,hh,hh,TRUE,1533.598,19,male
39,ab,3,34,hl,hh,FALSE,7537.901,19,male
39,ab,3,35,ll,ll,TRUE,2759.431,19,male
39,ab,3,36,hl,hh,FALSE,2245.552,19,male
39,ab,3,37,hh,hh,TRUE,6024.509,19,male
39,ab,3,38,lh,ll,FALSE,1997.712,19,male
39,ab,3,39,hh,hh,TRUE,1195.379,19,male
39,ab,3,40,ll,hh,FALSE,1570.6419999999998,19,male
39,ab,3,41,lh,hh,FALSE,1193.719,19,male
39,ab,3,42,ll,hh,FALSE,3497.251,19,male
39,ab,3,43,ll,hl,FALSE,4119.878,19,male
39,ab,3,44,ll,hl,FALSE,5213.262,19,male
39,ab,3,45,hh,hh,TRUE,1539.7530000000002,19,male
39,ab,3,46,hl,hh,FALSE,1468.228,19,male
39,ab,3,47,ll,ll,TRUE,4656.535,19,male
39,ab,3,48,hh,hh,TRUE,1587.5900000000001,19,male
39,ab,3,49,lh,hh,FALSE,1549.6909999999998,19,male
39,ab,3,50,ll,hl,FALSE,5150.151,19,male
39,ab,3,51,hh,hh,TRUE,2455.143,19,male
39,ab,3,52,hl,ll,FALSE,6280.655,19,male
39,ab,3,53,lh,lh,TRUE,4147.779,19,male
39,ab,3,54,hl,hh,FALSE,1478.71,19,male
39,ab,3,55,ll,ll,TRUE,1638.931,19,male
39,ab,3,56,lh,ll,FALSE,4439.15,19,male
39,ab,3,57,lh,ll,FALSE,2771.353,19,male
39,ab,3,58,lh,ll,FALSE,7746.428,19,male
39,ab,3,59,hh,hh,TRUE,1319.835,19,male
39,ab,3,60,hh,hh,TRUE,2832.016,19,male
39,ab,3,61,hh,hh,TRUE,2628.394,19,male
39,ab,3,62,lh,ll,FALSE,2063.176,19,male
39,ab,3,63,hh,hh,TRUE,1170.533,19,male
39,ab,3,64,lh,hh,FALSE,4247.467,19,male
39,ab,3,65,hh,hh,TRUE,1113.7959999999998,19,male
39,ab,3,66,lh,hh,FALSE,1721.7890000000002,19,male
39,ab,3,67,lh,hh,FALSE,1149.1689999999999,19,male
39,ab,3,68,hl,hh,FALSE,1118.9879999999998,19,male
39,ab,3,69,ll,ll,TRUE,4545.685,19,male
39,ab,3,70,hh,hh,TRUE,1660.475,19,male
39,ab,3,71,hh,hl,FALSE,5176.445,19,male
39,ab,3,72,ll,ll,TRUE,1592.83,19,male
39,ab,3,73,hh,hh,TRUE,1639.596,19,male
39,ab,3,74,hh,ll,FALSE,6116.07,19,male
39,ab,3,75,ll,ll,TRUE,2041.491,19,male
39,ab,3,76,hh,hh,TRUE,1944.819,19,male
39,ab,3,77,hh,hh,TRUE,2488.319,19,male
39,ab,3,78,hl,hh,FALSE,2182.15,19,male
39,ab,3,79,ll,ll,TRUE,11327.415,19,male
39,ab,3,80,hl,lh,FALSE,10574.371,19,male
39,ab,3,81,lh,hh,FALSE,2668.54,19,male
39,ab,3,82,lh,hh,FALSE,1622.788,19,male
39,ab,3,83,ll,ll,TRUE,1579.058,19,male
39,ab,3,84,hl,hh,FALSE,1262.817,19,male
39,ab,3,85,lh,lh,TRUE,1591.286,19,male
39,ab,3,86,hh,ll,FALSE,7891.383,19,male
39,ab,3,87,hl,lh,FALSE,8060.710999999999,19,male
39,ab,3,88,hh,hh,TRUE,1251.127,19,male
39,ab,3,89,ll,lh,FALSE,7478.525,19,male
39,ab,3,90,lh,hh,FALSE,8065.519,19,male
39,ab,3,91,hh,hh,TRUE,2077.764,19,male
39,ab,3,92,hh,hh,TRUE,1787.589,19,male
39,ab,3,93,lh,ll,FALSE,7680.978999999999,19,male
39,ab,3,94,lh,ll,FALSE,2977.024,19,male
39,ab,3,95,lh,lh,TRUE,10452.789,19,male
39,ab,3,96,lh,lh,TRUE,3472.2439999999997,19,male
39,ab,3,97,lh,hh,FALSE,1800.9360000000001,19,male
39,ab,3,98,lh,hh,FALSE,7716.855,19,male
39,ab,3,99,ll,ll,TRUE,2908.119,19,male
39,ab,3,100,ll,ll,TRUE,4315.717,19,male
39,ab,3,101,lh,hh,FALSE,2111.765,19,male
39,ab,3,102,hh,hh,TRUE,1704.3449999999998,19,male
39,ab,3,103,ll,hl,FALSE,10970.923,19,male
39,ab,3,104,hh,hl,FALSE,9465.29,19,male
39,ab,3,105,hh,hh,TRUE,1334.607,19,male
39,ab,3,106,hl,ll,FALSE,6143.775,19,male
39,ab,3,107,hl,hh,FALSE,2975.41,19,male
39,ab,3,108,lh,lh,TRUE,5495.392,19,male
39,ab,3,109,hh,hl,FALSE,5174.784,19,male
39,ab,3,110,lh,hh,FALSE,2294.37,19,male
39,ab,3,111,hl,hl,TRUE,10047.813,19,male
39,ab,3,112,ll,hh,FALSE,3204.428,19,male
39,ab,3,113,hl,hl,TRUE,4167.621,19,male
39,ab,3,114,hl,ll,FALSE,3442.048,19,male
39,ab,3,115,hh,hh,TRUE,9175.559,19,male
39,ab,3,116,hh,hh,TRUE,1780.0320000000002,19,male
39,ab,3,117,hl,hl,TRUE,2578.863,19,male
39,ab,3,118,hh,hh,TRUE,1247.821,19,male
39,ab,3,119,hl,ll,FALSE,6841.394,19,male
39,ab,3,120,hl,ll,FALSE,1439.8829999999998,19,male
39,ab,4,1,hh,hh,TRUE,1845.7420000000002,19,male
39,ab,4,2,hh,hh,TRUE,1402.25,19,male
39,ab,4,3,hl,hl,TRUE,2653.158,19,male
39,ab,4,4,ll,ll,TRUE,2299.957,19,male
39,ab,4,5,hl,hl,TRUE,2932.754,19,male
39,ab,4,6,ll,hl,FALSE,1450.9699999999998,19,male
39,ab,4,7,hh,hh,TRUE,1472.228,19,male
39,ab,4,8,lh,hh,FALSE,1419.634,19,male
39,ab,4,9,lh,lh,TRUE,7962.112999999999,19,male
39,ab,4,10,ll,ll,TRUE,5661.838,19,male
39,ab,4,11,ll,hh,FALSE,3018.655,19,male
39,ab,4,12,hl,hh,FALSE,2468.929,19,male
39,ab,4,13,ll,ll,TRUE,6023.893,19,male
39,ab,4,14,ll,hl,FALSE,3565.611,19,male
39,ab,4,15,lh,hl,FALSE,7465.308000000001,19,male
39,ab,4,16,ll,hh,FALSE,4905.246,19,male
39,ab,4,17,hh,hh,TRUE,1141.571,19,male
39,ab,4,18,hl,hh,FALSE,4102.861,19,male
39,ab,4,19,hl,hh,FALSE,9332.778,19,male
39,ab,4,20,lh,ll,FALSE,11542.878,19,male
39,ab,4,21,ll,hl,FALSE,4196.222,19,male
39,ab,4,22,lh,hh,FALSE,1278.214,19,male
39,ab,4,23,hh,hl,FALSE,3177.9129999999996,19,male
39,ab,4,24,lh,ll,FALSE,2340.091,19,male
39,ab,4,25,hl,hh,FALSE,1228.752,19,male
39,ab,4,26,ll,ll,TRUE,1634.7440000000001,19,male
39,ab,4,27,hl,hh,FALSE,1251.5349999999999,19,male
39,ab,4,28,lh,lh,TRUE,5972.517,19,male
39,ab,4,29,lh,hh,FALSE,1507.6399999999999,19,male
39,ab,4,30,ll,hh,FALSE,7061.785,19,male
39,ab,4,31,hl,hl,TRUE,1679.62,19,male
39,ab,4,32,hl,hh,FALSE,7330.9310000000005,19,male
39,ab,4,33,hl,hl,TRUE,1287.8270000000002,19,male
39,ab,4,34,ll,ll,TRUE,4888.244,19,male
39,ab,4,35,ll,ll,TRUE,3000.77,19,male
39,ab,4,36,ll,ll,TRUE,2193.579,19,male
39,ab,4,37,hl,hh,FALSE,1262.413,19,male
39,ab,4,38,lh,hh,FALSE,1099.5839999999998,19,male
39,ab,4,39,ll,hl,FALSE,1594.6709999999998,19,male
39,ab,4,40,ll,ll,TRUE,10465.751,19,male
39,ab,4,41,ll,hh,FALSE,1547.589,19,male
39,ab,4,42,ll,hh,FALSE,1424.7179999999998,19,male
39,ab,4,43,hl,hl,TRUE,10194.207,19,male
39,ab,4,44,hh,hh,TRUE,4083.9759999999997,19,male
39,ab,4,45,hh,hh,TRUE,1398.5929999999998,19,male
39,ab,4,46,lh,lh,TRUE,10501.572,19,male
39,ab,4,47,hh,hl,FALSE,5511.316,19,male
39,ab,4,48,hl,hl,TRUE,1829.9180000000001,19,male
39,ab,4,49,hh,hh,TRUE,2502.888,19,male
39,ab,4,50,lh,hl,FALSE,5936.688,19,male
39,ab,4,51,,,FALSE,14680.557,19,male
39,ab,4,52,hl,hh,FALSE,1952.446,19,male
39,ab,4,53,hh,hh,TRUE,1255.225,19,male
39,ab,4,54,hl,hh,FALSE,1196.1170000000002,19,male
39,ab,4,55,lh,hh,FALSE,1383.2069999999999,19,male
39,ab,4,56,hh,hh,TRUE,1111.0749999999998,19,male
39,ab,4,57,ll,ll,TRUE,2230.388,19,male
39,ab,4,58,ll,hh,FALSE,3825.763,19,male
39,ab,4,59,lh,hh,FALSE,4901.728,19,male
39,ab,4,60,hh,hh,TRUE,1245.864,19,male
39,ab,4,61,hl,hh,FALSE,7163.479,19,male
39,ab,4,62,ll,hl,FALSE,4840.959,19,male
39,ab,4,63,hl,hl,TRUE,7616.225,19,male
39,ab,4,64,ll,hh,FALSE,3921.24,19,male
39,ab,4,65,ll,ll,TRUE,3927.3770000000004,19,male
39,ab,4,66,lh,hh,FALSE,9852.084,19,male
39,ab,4,67,ll,ll,TRUE,2230.092,19,male
39,ab,4,68,hh,hh,TRUE,1228.783,19,male
39,ab,4,69,hl,ll,FALSE,7659.314,19,male
39,ab,4,70,hh,hh,TRUE,1163.6509999999998,19,male
39,ab,4,71,hh,hh,TRUE,1124.522,19,male
39,ab,4,72,ll,ll,TRUE,1377.766,19,male
39,ab,4,73,ll,ll,TRUE,2534.267,19,male
39,ab,4,74,hl,hl,TRUE,8437.737,19,male
39,ab,4,75,ll,ll,TRUE,2324.833,19,male
39,ab,4,76,hh,hh,TRUE,1420.8760000000002,19,male
39,ab,4,77,lh,ll,FALSE,2257.725,19,male
39,ab,4,78,ll,ll,TRUE,4236.243,19,male
39,ab,4,79,ll,ll,TRUE,1219.745,19,male
39,ab,4,80,hl,hl,TRUE,2817.79,19,male
39,ab,4,81,hh,hh,TRUE,4058.452,19,male
39,ab,4,82,hl,hh,FALSE,1388.0549999999998,19,male
39,ab,4,83,hl,ll,FALSE,5226.46,19,male
39,ab,4,84,ll,hh,FALSE,1906.067,19,male
39,ab,4,85,ll,hl,FALSE,4283.478,19,male
39,ab,4,86,ll,hh,FALSE,1769.109,19,male
39,ab,4,87,lh,hl,FALSE,5816.34,19,male
39,ab,4,88,hh,hh,TRUE,2615.164,19,male
39,ab,4,89,hh,hh,TRUE,1086.806,19,male
39,ab,4,90,hl,hh,FALSE,1292.6039999999998,19,male
39,ab,4,91,hl,hh,FALSE,1320.5839999999998,19,male
39,ab,4,92,hl,lh,FALSE,13418.347,19,male
39,ab,4,93,hh,hh,TRUE,3569.6760000000004,19,male
39,ab,4,94,hh,hh,TRUE,2485.971,19,male
39,ab,4,95,ll,hh,FALSE,1255.1329999999998,19,male
39,ab,4,96,lh,hl,FALSE,5227.825,19,male
39,ab,4,97,lh,hh,FALSE,3113.692,19,male
39,ab,4,98,ll,hl,FALSE,7232.759,19,male
39,ab,4,99,hl,hl,TRUE,3162.964,19,male
39,ab,4,100,hh,hh,TRUE,1419.2020000000002,19,male
39,ab,4,101,hh,hh,TRUE,1085.9720000000002,19,male
39,ab,4,102,ll,ll,TRUE,2210.93,19,male
39,ab,4,103,hh,hh,TRUE,1238.4430000000002,19,male
39,ab,4,104,lh,hh,FALSE,4796.179,19,male
39,ab,4,105,lh,hh,FALSE,1415.723,19,male
39,ab,4,106,hh,hh,TRUE,1134.074,19,male
39,ab,4,107,lh,hl,FALSE,1704.196,19,male
39,ab,4,108,lh,ll,FALSE,2178.432,19,male
39,ab,4,109,ll,ll,TRUE,4900.644,19,male
39,ab,4,110,lh,hh,FALSE,2161.121,19,male
39,ab,4,111,lh,ll,FALSE,1863.641,19,male
39,ab,4,112,ll,hl,FALSE,7570.661,19,male
39,ab,4,113,hl,ll,FALSE,5670.957,19,male
39,ab,4,114,lh,lh,TRUE,4450.171,19,male
39,ab,4,115,lh,ll,FALSE,6728.93,19,male
39,ab,4,116,hh,hh,TRUE,1742.4879999999998,19,male
39,ab,4,117,ll,hl,FALSE,4110.147,19,male
39,ab,4,118,lh,ll,FALSE,1676.973,19,male
39,ab,4,119,lh,hh,FALSE,1209.056,19,male
39,ab,4,120,hl,hl,TRUE,2488.033,19,male
39,ab,5,1,hl,hh,FALSE,1321.721,19,male
39,ab,5,2,ll,ll,TRUE,8211.377,19,male
39,ab,5,3,hh,hh,TRUE,1748.5970000000002,19,male
39,ab,5,4,hh,hh,TRUE,1988.9899999999998,19,male
39,ab,5,5,ll,ll,TRUE,2139.09,19,male
39,ab,5,6,hl,hh,FALSE,1113.1779999999999,19,male
39,ab,5,7,ll,ll,TRUE,2133.312,19,male
39,ab,5,8,hl,hh,FALSE,5469.147,19,male
39,ab,5,9,hh,hh,TRUE,6978.093,19,male
39,ab,5,10,hl,hh,FALSE,8710.12,19,male
39,ab,5,11,hh,hl,FALSE,2594.67,19,male
39,ab,5,12,lh,ll,FALSE,1609.9360000000001,19,male
39,ab,5,13,hl,hh,FALSE,3244.7430000000004,19,male
39,ab,5,14,ll,ll,TRUE,1808.8560000000002,19,male
39,ab,5,15,hh,hh,TRUE,1219.728,19,male
39,ab,5,16,ll,hh,FALSE,6293.249,19,male
39,ab,5,17,ll,ll,TRUE,5084.743,19,male
39,ab,5,18,hl,lh,FALSE,7880.249,19,male
39,ab,5,19,ll,ll,TRUE,2231.57,19,male
39,ab,5,20,hh,hh,TRUE,1178.748,19,male
39,ab,5,21,hl,ll,FALSE,2675.592,19,male
39,ab,5,22,hh,hh,TRUE,1172.5349999999999,19,male
39,ab,5,23,lh,ll,FALSE,8109.834999999999,19,male
39,ab,5,24,ll,ll,TRUE,1226.373,19,male
39,ab,5,25,hl,hh,FALSE,1732.879,19,male
39,ab,5,26,hl,hl,TRUE,2542.967,19,male
39,ab,5,27,hh,ll,FALSE,1911.4810000000002,19,male
39,ab,5,28,hh,hh,TRUE,1168.8890000000001,19,male
39,ab,5,29,hl,hh,FALSE,6169.716,19,male
39,ab,5,30,hl,hl,TRUE,6500.161,19,male
39,ab,5,31,ll,hl,FALSE,1433.5770000000002,19,male
39,ab,5,32,lh,ll,FALSE,2703.225,19,male
39,ab,5,33,ll,ll,TRUE,10251.284,19,male
39,ab,5,34,hh,hh,TRUE,1235.304,19,male
39,ab,5,35,hl,hl,TRUE,2465.594,19,male
39,ab,5,36,lh,lh,TRUE,6719.023,19,male
39,ab,5,37,hl,ll,FALSE,11259.874,19,male
39,ab,5,38,hh,hh,TRUE,1565.4920000000002,19,male
39,ab,5,39,lh,ll,FALSE,2004.5900000000001,19,male
39,ab,5,40,lh,hh,FALSE,7615.317999999999,19,male
39,ab,5,41,ll,ll,TRUE,1517.2220000000002,19,male
39,ab,5,42,hh,hh,TRUE,1880.121,19,male
39,ab,5,43,hl,hh,FALSE,1770.5390000000002,19,male
39,ab,5,44,hl,hh,FALSE,2357.347,19,male
39,ab,5,45,hh,hh,TRUE,1384.181,19,male
39,ab,5,46,lh,hh,FALSE,1895.8939999999998,19,male
39,ab,5,47,hh,hh,TRUE,3717.505,19,male
39,ab,5,48,hl,hh,FALSE,1864.326,19,male
39,ab,5,49,lh,lh,TRUE,5994.734,19,male
39,ab,5,50,hh,hh,TRUE,3487.8370000000004,19,male
39,ab,5,51,lh,ll,FALSE,4519.67,19,male
39,ab,5,52,ll,ll,TRUE,2194.734,19,male
39,ab,5,53,hl,hh,FALSE,4704.862,19,male
39,ab,5,54,hh,hh,TRUE,5669.936,19,male
39,ab,5,55,ll,ll,TRUE,3201.2299999999996,19,male
39,ab,5,56,hh,hh,TRUE,3968.249,19,male
39,ab,5,57,lh,hh,FALSE,2307.476,19,male
39,ab,5,58,hh,hh,TRUE,1312.545,19,male
39,ab,5,59,hl,hh,FALSE,1242.871,19,male
39,ab,5,60,hh,hh,TRUE,1203.5059999999999,19,male
39,ab,5,61,lh,ll,FALSE,1431.4430000000002,19,male
39,ab,5,62,hl,hh,FALSE,1203.5410000000002,19,male
39,ab,5,63,ll,ll,TRUE,1340.7289999999998,19,male
39,ab,5,64,lh,hh,FALSE,1133.121,19,male
39,ab,5,65,hl,ll,FALSE,7927.927,19,male
39,ab,5,66,lh,ll,FALSE,5324.925,19,male
39,ab,5,67,ll,ll,TRUE,1612.3159999999998,19,male
39,ab,5,68,lh,ll,FALSE,7260.718000000001,19,male
39,ab,5,69,lh,ll,FALSE,1361.806,19,male
39,ab,5,70,lh,ll,FALSE,6734.628,19,male
39,ab,5,71,lh,hh,FALSE,4037.571,19,male
39,ab,5,72,ll,ll,TRUE,4254.088,19,male
39,ab,5,73,ll,ll,TRUE,1221.3780000000002,19,male
39,ab,5,74,hl,hh,FALSE,1323.214,19,male
39,ab,5,75,hl,hl,TRUE,8766.419,19,male
39,ab,5,76,hl,lh,FALSE,6173.199,19,male
39,ab,5,77,hl,hh,FALSE,2005.205,19,male
39,ab,5,78,lh,ll,FALSE,4322.926,19,male
39,ab,5,79,lh,ll,FALSE,4341.972,19,male
39,ab,5,80,ll,ll,TRUE,3353.3469999999998,19,male
39,ab,5,81,hh,hh,TRUE,1426.7089999999998,19,male
39,ab,5,82,hh,hh,TRUE,2724.696,19,male
39,ab,5,83,hh,hh,TRUE,1259.487,19,male
39,ab,5,84,hl,hh,FALSE,5740.385,19,male
39,ab,5,85,hl,lh,FALSE,8176.388999999999,19,male
39,ab,5,86,hh,hh,TRUE,1364.2240000000002,19,male
39,ab,5,87,hh,ll,FALSE,6228.213,19,male
39,ab,5,88,hh,hh,TRUE,3184.924,19,male
39,ab,5,89,ll,ll,TRUE,7509.7119999999995,19,male
39,ab,5,90,lh,ll,FALSE,4286.545,19,male
39,ab,5,91,hl,lh,FALSE,9867.87,19,male
39,ab,5,92,hh,hh,TRUE,1317.074,19,male
39,ab,5,93,lh,hh,FALSE,2047.466,19,male
39,ab,5,94,hl,hh,FALSE,1666.9940000000001,19,male
39,ab,5,95,hl,ll,FALSE,9615.205,19,male
39,ab,5,96,hh,hh,TRUE,1693.7040000000002,19,male
39,ab,5,97,hl,hh,FALSE,1511.7150000000001,19,male
39,ab,5,98,hh,hh,TRUE,1746.3270000000002,19,male
39,ab,5,99,lh,hh,FALSE,10786.847,19,male
39,ab,5,100,ll,ll,TRUE,1881.1149999999998,19,male
39,ab,5,101,hh,hh,TRUE,1798.2600000000002,19,male
39,ab,5,102,hl,hh,FALSE,1473.1309999999999,19,male
39,ab,5,103,lh,ll,FALSE,1708.362,19,male
39,ab,5,104,hl,hl,TRUE,3210.4390000000003,19,male
39,ab,5,105,ll,hl,FALSE,2208.818,19,male
39,ab,5,106,lh,lh,TRUE,3013.766,19,male
39,ab,5,107,hl,hh,FALSE,3864.3370000000004,19,male
39,ab,5,108,ll,ll,TRUE,2024.621,19,male
39,ab,5,109,lh,hh,FALSE,5235.788,19,male
39,ab,5,110,ll,ll,TRUE,2705.2,19,male
39,ab,5,111,hl,hl,TRUE,2697.535,19,male
39,ab,5,112,hl,hl,TRUE,3056.997,19,male
39,ab,5,113,ll,ll,TRUE,3511.474,19,male
39,ab,5,114,ll,ll,TRUE,1985.656,19,male
39,ab,5,115,ll,ll,TRUE,2128.803,19,male
39,ab,5,116,lh,ll,FALSE,9024.931,19,male
39,ab,5,117,lh,ll,FALSE,4091.214,19,male
39,ab,5,118,hh,hh,TRUE,1245.629,19,male
39,ab,5,119,hh,hh,TRUE,1083.7469999999998,19,male
39,ab,5,120,hh,hh,TRUE,1777.0059999999999,19,male
