pID,condition,block_no,trial_no,stimulus,response,correct,rt,age,gender
12,ab,1,1,hl,hh,FALSE,11543.578,26,male
12,ab,1,2,ll,hh,FALSE,13365.671,26,male
12,ab,1,3,lh,ll,FALSE,5611.999,26,male
12,ab,1,4,hh,hl,FALSE,6456.855,26,male
12,ab,1,5,ll,lh,FALSE,5076.325,26,male
12,ab,1,6,ll,hh,FALSE,9846.938,26,male
12,ab,1,7,hh,hl,FALSE,8153.531000000001,26,male
12,ab,1,8,ll,lh,FALSE,10961.538,26,male
12,ab,1,9,hl,hh,FALSE,6311.39,26,male
12,ab,1,10,,,FALSE,15016.46,26,male
12,ab,1,11,lh,ll,FALSE,8199.595,26,male
12,ab,1,12,lh,hl,FALSE,14828.823,26,male
12,ab,1,13,ll,ll,TRUE,4952.231,26,male
12,ab,1,14,ll,hh,FALSE,6096.422,26,male
12,ab,1,15,ll,hl,FALSE,4761.547,26,male
12,ab,1,16,ll,ll,TRUE,9447.414,26,male
12,ab,1,17,ll,ll,TRUE,3866.455,26,male
12,ab,1,18,lh,hh,FALSE,1757.6370000000002,26,male
12,ab,1,19,ll,ll,TRUE,6052.399,26,male
12,ab,1,20,hh,hl,FALSE,5311.817,26,male
12,ab,1,21,,,FALSE,15016.523,26,male
12,ab,1,22,hl,hl,TRUE,5272.342,26,male
12,ab,1,23,hh,hh,TRUE,3170.581,26,male
12,ab,1,24,hh,hh,TRUE,1697.676,26,male
12,ab,1,25,lh,hh,FALSE,1706.6370000000002,26,male
12,ab,1,26,ll,ll,TRUE,7556.4259999999995,26,male
12,ab,1,27,hh,hh,TRUE,1763.103,26,male
12,ab,1,28,hh,hh,TRUE,3738.2250000000004,26,male
12,ab,1,29,ll,lh,FALSE,7729.857,26,male
12,ab,1,30,hl,hh,FALSE,2218.163,26,male
12,ab,1,31,hl,hh,FALSE,2318.496,26,male
12,ab,1,32,hl,lh,FALSE,8863.51,26,male
12,ab,1,33,hh,hh,TRUE,3737.348,26,male
12,ab,1,34,hl,hl,TRUE,4449.551,26,male
12,ab,1,35,hh,hh,TRUE,4364.736,26,male
12,ab,1,36,hl,ll,FALSE,11467.505,26,male
12,ab,1,37,hl,hh,FALSE,9534.458,26,male
12,ab,1,38,hl,lh,FALSE,9517.237,26,male
12,ab,1,39,lh,hh,FALSE,1790.906,26,male
12,ab,1,40,lh,ll,FALSE,7028.444,26,male
12,ab,1,41,hl,hh,FALSE,8311.781,26,male
12,ab,1,42,hl,ll,FALSE,9016.962,26,male
12,ab,1,43,lh,ll,FALSE,3404.8050000000003,26,male
12,ab,1,44,hl,hl,TRUE,6210.338,26,male
12,ab,1,45,hl,hh,FALSE,3511.6549999999997,26,male
12,ab,1,46,lh,ll,FALSE,3943.879,26,male
12,ab,1,47,hh,hh,TRUE,6311.098,26,male
12,ab,1,48,ll,lh,FALSE,4855.597,26,male
12,ab,1,49,ll,ll,TRUE,7635.478999999999,26,male
12,ab,1,50,lh,lh,TRUE,5311.575,26,male
12,ab,1,51,lh,hh,FALSE,3960.2960000000003,26,male
12,ab,1,52,hl,hh,FALSE,8503.7,26,male
12,ab,1,53,hh,hh,TRUE,5521.002,26,male
12,ab,1,54,ll,lh,FALSE,7281.743,26,male
12,ab,1,55,lh,ll,FALSE,12379.897,26,male
12,ab,1,56,hl,lh,FALSE,7417.976000000001,26,male
12,ab,1,57,ll,lh,FALSE,5309.728,26,male
12,ab,1,58,hh,hl,FALSE,7383.764999999999,26,male
12,ab,1,59,hh,hh,TRUE,2077.691,26,male
12,ab,1,60,hl,hl,TRUE,6887.166,26,male
12,ab,1,61,hl,hh,FALSE,8577.674,26,male
12,ab,1,62,ll,lh,FALSE,6759.332,26,male
12,ab,1,63,lh,lh,TRUE,5543.031,26,male
12,ab,1,64,hh,hh,TRUE,9927.048,26,male
12,ab,1,65,lh,lh,TRUE,11191.752,26,male
12,ab,1,66,ll,hl,FALSE,4965.639,26,male
12,ab,1,67,lh,hh,FALSE,1612.3899999999999,26,male
12,ab,1,68,ll,ll,TRUE,9656.762,26,male
12,ab,1,69,,,FALSE,14883.281,26,male
12,ab,1,70,ll,ll,TRUE,6873.03,26,male
12,ab,1,71,hl,ll,FALSE,6707.791,26,male
12,ab,1,72,hh,hh,TRUE,7028.971,26,male
12,ab,1,73,ll,ll,TRUE,2568.473,26,male
12,ab,1,74,hl,ll,FALSE,10751.802,26,male
12,ab,1,75,lh,lh,TRUE,6287.059,26,male
12,ab,1,76,hl,lh,FALSE,11408.855,26,male
12,ab,1,77,lh,hh,FALSE,5398.12,26,male
12,ab,1,78,ll,ll,TRUE,4619.658,26,male
12,ab,1,79,hl,hl,TRUE,5920.403,26,male
12,ab,1,80,lh,lh,TRUE,8417.307,26,male
12,ab,1,81,hh,hl,FALSE,8477.537,26,male
12,ab,1,82,lh,hh,FALSE,8758.478,26,male
12,ab,1,83,ll,ll,TRUE,4823.126,26,male
12,ab,1,84,ll,ll,TRUE,7363.849,26,male
12,ab,1,85,ll,ll,TRUE,3338.072,26,male
12,ab,1,86,lh,hh,FALSE,6386.29,26,male
12,ab,1,87,hh,ll,FALSE,13488.199,26,male
12,ab,1,88,hh,hl,FALSE,7410.242,26,male
12,ab,1,89,hl,hl,TRUE,7639.755999999999,26,male
12,ab,1,90,lh,hh,FALSE,2595.851,26,male
12,ab,1,91,hl,hh,FALSE,5335.787,26,male
12,ab,1,92,hh,ll,FALSE,4897.219,26,male
12,ab,1,93,ll,ll,TRUE,1930.009,26,male
12,ab,1,94,lh,ll,FALSE,7530.27,26,male
12,ab,1,95,hh,hh,TRUE,10746.2,26,male
12,ab,1,96,hl,ll,FALSE,3385.5469999999996,26,male
12,ab,1,97,lh,ll,FALSE,7727.407999999999,26,male
12,ab,1,98,ll,ll,TRUE,7174.789,26,male
12,ab,1,99,hl,hh,FALSE,5142.505,26,male
12,ab,1,100,hl,hh,FALSE,3749.6189999999997,26,male
12,ab,1,101,hh,hh,TRUE,1309.6550000000002,26,male
12,ab,1,102,hl,hh,FALSE,2999.185,26,male
12,ab,1,103,hh,hh,TRUE,5260.115,26,male
12,ab,1,104,hh,hh,TRUE,2151.796,26,male
12,ab,1,105,lh,hh,FALSE,3695.1220000000003,26,male
12,ab,1,106,hl,hl,TRUE,3495.3869999999997,26,male
12,ab,1,107,hh,hh,TRUE,1832.902,26,male
12,ab,1,108,lh,hh,FALSE,6716.991,26,male
12,ab,1,109,lh,lh,TRUE,7197.755999999999,26,male
12,ab,1,110,ll,hh,FALSE,8474.913,26,male
12,ab,1,111,lh,ll,FALSE,8181.8189999999995,26,male
12,ab,1,112,hl,lh,FALSE,11451.965,26,male
12,ab,1,113,hl,ll,FALSE,5919.245,26,male
12,ab,1,114,hl,ll,FALSE,6863.705,26,male
12,ab,1,115,hl,hl,TRUE,6474.141,26,male
12,ab,1,116,lh,ll,FALSE,5877.325,26,male
12,ab,1,117,ll,ll,TRUE,12086.682,26,male
12,ab,1,118,lh,hl,FALSE,5360.927,26,male
12,ab,1,119,ll,ll,TRUE,5542.742,26,male
12,ab,1,120,lh,ll,FALSE,2759.711,26,male
12,ab,2,1,lh,ll,FALSE,6034.406,26,male
12,ab,2,2,lh,hh,FALSE,1678.402,26,male
12,ab,2,3,hl,hl,TRUE,6360.488,26,male
12,ab,2,4,ll,ll,TRUE,4423.341,26,male
12,ab,2,5,hh,hl,FALSE,8724.585,26,male
12,ab,2,6,hh,hh,TRUE,2805.085,26,male
12,ab,2,7,hh,hh,TRUE,1426.4879999999998,26,male
12,ab,2,8,hh,hh,TRUE,4135.183,26,male
12,ab,2,9,hh,hh,TRUE,2686.7,26,male
12,ab,2,10,hh,ll,FALSE,4577.028,26,male
12,ab,2,11,hl,ll,FALSE,12311.99,26,male
12,ab,2,12,lh,lh,TRUE,12329.219,26,male
12,ab,2,13,hh,hh,TRUE,1351.915,26,male
12,ab,2,14,hh,hh,TRUE,1455.654,26,male
12,ab,2,15,lh,hh,FALSE,3202.861,26,male
12,ab,2,16,lh,lh,TRUE,4608.376,26,male
12,ab,2,17,hl,hl,TRUE,4133.934,26,male
12,ab,2,18,hh,hh,TRUE,1037.572,26,male
12,ab,2,19,lh,ll,FALSE,3585.9489999999996,26,male
12,ab,2,20,ll,ll,TRUE,5119.728,26,male
12,ab,2,21,hh,lh,FALSE,7504.355,26,male
12,ab,2,22,lh,ll,FALSE,4305.709,26,male
12,ab,2,23,lh,ll,FALSE,6994.816,26,male
12,ab,2,24,hl,lh,FALSE,10839.916,26,male
12,ab,2,25,lh,hl,FALSE,5796.465,26,male
12,ab,2,26,lh,ll,FALSE,4249.782,26,male
12,ab,2,27,hh,hl,FALSE,4492.85,26,male
12,ab,2,28,hl,lh,FALSE,3703.1499999999996,26,male
12,ab,2,29,ll,lh,FALSE,3375.8500000000004,26,male
12,ab,2,30,ll,ll,TRUE,6374.498,26,male
12,ab,2,31,ll,hh,FALSE,5317.556,26,male
12,ab,2,32,lh,hl,FALSE,7741.709999999999,26,male
12,ab,2,33,hh,hh,TRUE,5781.855,26,male
12,ab,2,34,lh,ll,FALSE,4955.918,26,male
12,ab,2,35,,,FALSE,15016.69,26,male
12,ab,2,36,lh,hl,FALSE,7506.646000000001,26,male
12,ab,2,37,ll,lh,FALSE,5219.771,26,male
12,ab,2,38,lh,ll,FALSE,3487.6710000000003,26,male
12,ab,2,39,hh,hh,TRUE,3170.388,26,male
12,ab,2,40,lh,ll,FALSE,5697.452,26,male
12,ab,2,41,hh,hh,TRUE,2778.436,26,male
12,ab,2,42,lh,hl,FALSE,2920.309,26,male
12,ab,2,43,hl,ll,FALSE,10128.87,26,male
12,ab,2,44,hl,lh,FALSE,6408.609,26,male
12,ab,2,45,lh,hl,FALSE,7702.5560000000005,26,male
12,ab,2,46,hl,hh,FALSE,3935.4440000000004,26,male
12,ab,2,47,hl,lh,FALSE,9952.054,26,male
12,ab,2,48,lh,hh,FALSE,7534.616,26,male
12,ab,2,49,ll,hh,FALSE,7358.540999999999,26,male
12,ab,2,50,ll,lh,FALSE,4230.566,26,male
12,ab,2,51,ll,hh,FALSE,6586.152,26,male
12,ab,2,52,hl,hh,FALSE,4304.363,26,male
12,ab,2,53,hl,lh,FALSE,6065.919,26,male
12,ab,2,54,hh,hh,TRUE,3451.6580000000004,26,male
12,ab,2,55,,,FALSE,15016.699,26,male
12,ab,2,56,hl,hh,FALSE,4927.277,26,male
12,ab,2,57,hh,hh,TRUE,1429.955,26,male
12,ab,2,58,hh,hh,TRUE,1146.777,26,male
12,ab,2,59,hh,hh,TRUE,2794.314,26,male
12,ab,2,60,hl,hl,TRUE,5462.845,26,male
12,ab,2,61,ll,hh,FALSE,3865.8900000000003,26,male
12,ab,2,62,lh,lh,TRUE,6188.661,26,male
12,ab,2,63,ll,hh,FALSE,7186.446,26,male
12,ab,2,64,hh,hh,TRUE,4608.367,26,male
12,ab,2,65,lh,ll,FALSE,12197.939,26,male
12,ab,2,66,hl,ll,FALSE,3163.184,26,male
12,ab,2,67,lh,ll,FALSE,6217.663,26,male
12,ab,2,68,hh,hh,TRUE,1294.203,26,male
12,ab,2,69,hl,ll,FALSE,4902.342,26,male
12,ab,2,70,ll,hh,FALSE,4288.633,26,male
12,ab,2,71,ll,ll,TRUE,3571.2129999999997,26,male
12,ab,2,72,lh,hh,FALSE,2225.758,26,male
12,ab,2,73,hh,hh,TRUE,2374.334,26,male
12,ab,2,74,hh,hh,TRUE,997.289,26,male
12,ab,2,75,lh,hh,FALSE,6362.561,26,male
12,ab,2,76,hh,hh,TRUE,1848.2730000000001,26,male
12,ab,2,77,hh,hl,FALSE,3212.008,26,male
12,ab,2,78,hh,hh,TRUE,952.3050000000001,26,male
12,ab,2,79,lh,hh,FALSE,2079.971,26,male
12,ab,2,80,hl,hh,FALSE,5082.014,26,male
12,ab,2,81,hl,hh,FALSE,6123.758,26,male
12,ab,2,82,lh,hl,FALSE,5524.467,26,male
12,ab,2,83,ll,lh,FALSE,5413.126,26,male
12,ab,2,84,hh,hl,FALSE,4585.649,26,male
12,ab,2,85,hl,lh,FALSE,4415.63,26,male
12,ab,2,86,hh,hh,TRUE,1100.4360000000001,26,male
12,ab,2,87,hh,hh,TRUE,1069.746,26,male
12,ab,2,88,hh,hh,TRUE,5264.125,26,male
12,ab,2,89,lh,lh,TRUE,12651.07,26,male
12,ab,2,90,lh,hl,FALSE,6862.631,26,male
12,ab,2,91,ll,ll,TRUE,4392.863,26,male
12,ab,2,92,ll,lh,FALSE,7607.412,26,male
12,ab,2,93,hh,hh,TRUE,1140.7510000000002,26,male
12,ab,2,94,hl,lh,FALSE,4837.658,26,male
12,ab,2,95,hh,hh,TRUE,4512.715,26,male
12,ab,2,96,ll,ll,TRUE,4137.125,26,male
12,ab,2,97,hh,hh,TRUE,3297.068,26,male
12,ab,2,98,hh,hl,FALSE,7257.933999999999,26,male
12,ab,2,99,hl,hl,TRUE,9894.023,26,male
12,ab,2,100,hl,hl,TRUE,13637.506,26,male
12,ab,2,101,ll,ll,TRUE,2499.14,26,male
12,ab,2,102,hh,hl,FALSE,3980.1899999999996,26,male
12,ab,2,103,hh,hh,TRUE,4010.633,26,male
12,ab,2,104,hl,hh,FALSE,2422.854,26,male
12,ab,2,105,lh,hl,FALSE,4419.878,26,male
12,ab,2,106,lh,hl,FALSE,6992.73,26,male
12,ab,2,107,hl,ll,FALSE,12918.655,26,male
12,ab,2,108,hh,hh,TRUE,1151.1129999999998,26,male
12,ab,2,109,hl,ll,FALSE,1902.6660000000002,26,male
12,ab,2,110,hl,ll,FALSE,4191.672,26,male
12,ab,2,111,ll,ll,TRUE,4788.858,26,male
12,ab,2,112,ll,ll,TRUE,8979.46,26,male
12,ab,2,113,hh,hl,FALSE,6377.285,26,male
12,ab,2,114,hl,hl,TRUE,3975.4440000000004,26,male
12,ab,2,115,lh,lh,TRUE,6326.82,26,male
12,ab,2,116,hh,hh,TRUE,7078.991,26,male
12,ab,2,117,ll,lh,FALSE,5112.684,26,male
12,ab,2,118,ll,ll,TRUE,3305.8720000000003,26,male
12,ab,2,119,hl,ll,FALSE,8307.406,26,male
12,ab,2,120,ll,ll,TRUE,3028.7,26,male
12,ab,3,1,hl,lh,FALSE,6645.801,26,male
12,ab,3,2,ll,lh,FALSE,4810.034,26,male
12,ab,3,3,ll,ll,TRUE,4983.228,26,male
12,ab,3,4,hl,lh,FALSE,3164.0559999999996,26,male
12,ab,3,5,hl,hh,FALSE,5659.114,26,male
12,ab,3,6,hl,ll,FALSE,3750.6000000000004,26,male
12,ab,3,7,ll,ll,TRUE,1901.7779999999998,26,male
12,ab,3,8,hh,hh,TRUE,2415.277,26,male
12,ab,3,9,ll,ll,TRUE,2331.591,26,male
12,ab,3,10,hh,hh,TRUE,4939.526,26,male
12,ab,3,11,hh,hl,FALSE,5347.736,26,male
12,ab,3,12,hl,hh,FALSE,1819.373,26,male
12,ab,3,13,lh,hh,FALSE,4479.906,26,male
12,ab,3,14,ll,ll,TRUE,1849.9520000000002,26,male
12,ab,3,15,hl,hh,FALSE,2300.883,26,male
12,ab,3,16,lh,hh,FALSE,3070.379,26,male
12,ab,3,17,ll,ll,TRUE,5120.585,26,male
12,ab,3,18,lh,ll,FALSE,11552.483,26,male
12,ab,3,19,ll,hh,FALSE,5120.145,26,male
12,ab,3,20,hh,ll,FALSE,8384.776,26,male
12,ab,3,21,hl,hh,FALSE,2238.705,26,male
12,ab,3,22,hh,hh,TRUE,1090.7399999999998,26,male
12,ab,3,23,ll,ll,TRUE,4180.667,26,male
12,ab,3,24,hl,ll,FALSE,5146.285,26,male
12,ab,3,25,lh,ll,FALSE,5289.519,26,male
12,ab,3,26,lh,hh,FALSE,10596.346,26,male
12,ab,3,27,hh,hh,TRUE,4232.932,26,male
12,ab,3,28,hl,ll,FALSE,4173.395,26,male
12,ab,3,29,hl,hh,FALSE,2836.179,26,male
12,ab,3,30,hh,hh,TRUE,991.5129999999999,26,male
12,ab,3,31,hl,hl,TRUE,3894.1719999999996,26,male
12,ab,3,32,ll,lh,FALSE,4102.491,26,male
12,ab,3,33,hh,hh,TRUE,2655.626,26,male
12,ab,3,34,lh,ll,FALSE,2931.379,26,male
12,ab,3,35,hh,hh,TRUE,4154.569,26,male
12,ab,3,36,ll,ll,TRUE,12882.762,26,male
12,ab,3,37,hh,hh,TRUE,2332.914,26,male
12,ab,3,38,hh,hh,TRUE,876.5239999999999,26,male
12,ab,3,39,hl,ll,FALSE,4823.592,26,male
12,ab,3,40,ll,hl,FALSE,8531.819,26,male
12,ab,3,41,ll,ll,TRUE,2812.155,26,male
12,ab,3,42,hh,hh,TRUE,1800.533,26,male
12,ab,3,43,lh,lh,TRUE,5662.041,26,male
12,ab,3,44,lh,lh,TRUE,3256.7529999999997,26,male
12,ab,3,45,hl,hh,FALSE,1156.143,26,male
12,ab,3,46,hl,hh,FALSE,2003.4099999999999,26,male
12,ab,3,47,hl,hl,TRUE,4016.554,26,male
12,ab,3,48,hl,hh,FALSE,4221.366,26,male
12,ab,3,49,hl,hh,FALSE,3842.0649999999996,26,male
12,ab,3,50,ll,ll,TRUE,2230.081,26,male
12,ab,3,51,lh,ll,FALSE,1562.129,26,male
12,ab,3,52,hl,hh,FALSE,8920.653,26,male
12,ab,3,53,lh,lh,TRUE,6401.344,26,male
12,ab,3,54,lh,hl,FALSE,3182.8639999999996,26,male
12,ab,3,55,ll,hl,FALSE,4748.448,26,male
12,ab,3,56,hh,hh,TRUE,1307.953,26,male
12,ab,3,57,hl,hh,FALSE,3653.554,26,male
12,ab,3,58,ll,ll,TRUE,6240.918,26,male
12,ab,3,59,,,FALSE,15016.742,26,male
12,ab,3,60,ll,ll,TRUE,3844.191,26,male
12,ab,3,61,ll,lh,FALSE,9238.966,26,male
12,ab,3,62,hh,hh,TRUE,4003.4040000000005,26,male
12,ab,3,63,lh,ll,FALSE,4480.851,26,male
12,ab,3,64,hh,hh,TRUE,7450.691000000001,26,male
12,ab,3,65,ll,ll,TRUE,6254.097,26,male
12,ab,3,66,ll,lh,FALSE,4737.643,26,male
12,ab,3,67,hh,hh,TRUE,912.9839999999999,26,male
12,ab,3,68,lh,ll,FALSE,2041.9789999999998,26,male
12,ab,3,69,hh,hh,TRUE,742.2180000000001,26,male
12,ab,3,70,lh,hh,FALSE,1894.13,26,male
12,ab,3,71,hl,hl,TRUE,2966.999,26,male
12,ab,3,72,hl,hh,FALSE,2733.627,26,male
12,ab,3,73,ll,lh,FALSE,4493.714,26,male
12,ab,3,74,lh,hh,FALSE,1256.248,26,male
12,ab,3,75,hh,hl,FALSE,2915.212,26,male
12,ab,3,76,lh,hh,FALSE,1740.179,26,male
12,ab,3,77,ll,ll,TRUE,2356.157,26,male
12,ab,3,78,hl,hh,FALSE,1571.3939999999998,26,male
12,ab,3,79,ll,ll,TRUE,1425.9969999999998,26,male
12,ab,3,80,lh,ll,FALSE,5366.731,26,male
12,ab,3,81,ll,hl,FALSE,3069.777,26,male
12,ab,3,82,hh,hl,FALSE,14640.229,26,male
12,ab,3,83,hh,hh,TRUE,868.1120000000001,26,male
12,ab,3,84,ll,ll,TRUE,2942.734,26,male
12,ab,3,85,ll,hh,FALSE,1414.87,26,male
12,ab,3,86,lh,ll,FALSE,9691.403,26,male
12,ab,3,87,ll,hh,FALSE,3013.548,26,male
12,ab,3,88,ll,lh,FALSE,3530.1899999999996,26,male
12,ab,3,89,ll,hh,FALSE,8937.953,26,male
12,ab,3,90,lh,hh,FALSE,1090.0349999999999,26,male
12,ab,3,91,ll,ll,TRUE,5619.953,26,male
12,ab,3,92,ll,lh,FALSE,4737.159,26,male
12,ab,3,93,hh,ll,FALSE,6688.807,26,male
12,ab,3,94,ll,ll,TRUE,1634.7939999999999,26,male
12,ab,3,95,,,FALSE,15016.87,26,male
12,ab,3,96,lh,ll,FALSE,3341.661,26,male
12,ab,3,97,ll,ll,TRUE,1830.0900000000001,26,male
12,ab,3,98,hl,ll,FALSE,4042.24,26,male
12,ab,3,99,lh,hl,FALSE,4774.399,26,male
12,ab,3,100,hl,hh,FALSE,1412.7800000000002,26,male
12,ab,3,101,ll,hh,FALSE,6569.378,26,male
12,ab,3,102,hh,lh,FALSE,7216.124,26,male
12,ab,3,103,lh,hh,FALSE,4124.863,26,male
12,ab,3,104,ll,ll,TRUE,4997.582,26,male
12,ab,3,105,lh,lh,TRUE,3626.9719999999998,26,male
12,ab,3,106,lh,hh,FALSE,1063.685,26,male
12,ab,3,107,ll,ll,TRUE,1818.165,26,male
12,ab,3,108,ll,ll,TRUE,6462.676,26,male
12,ab,3,109,hh,hh,TRUE,4697.626,26,male
12,ab,3,110,lh,hh,FALSE,5818.659,26,male
12,ab,3,111,ll,ll,TRUE,3742.7650000000003,26,male
12,ab,3,112,lh,lh,TRUE,4455.387,26,male
12,ab,3,113,hl,ll,FALSE,14114.845,26,male
12,ab,3,114,hl,lh,FALSE,4987.151,26,male
12,ab,3,115,hh,hh,TRUE,945.5029999999999,26,male
12,ab,3,116,hh,hh,TRUE,1064.7779999999998,26,male
12,ab,3,117,lh,ll,FALSE,4043.1580000000004,26,male
12,ab,3,118,lh,ll,FALSE,2007.558,26,male
12,ab,3,119,lh,hh,FALSE,1012.9939999999999,26,male
12,ab,3,120,lh,lh,TRUE,8937.342,26,male
12,ab,4,1,hh,lh,FALSE,5694.28,26,male
12,ab,4,2,hh,hh,TRUE,2359.061,26,male
12,ab,4,3,hl,hh,FALSE,1798.922,26,male
12,ab,4,4,hl,lh,FALSE,4251.793,26,male
12,ab,4,5,ll,lh,FALSE,2143.473,26,male
12,ab,4,6,ll,ll,TRUE,3990.813,26,male
12,ab,4,7,hh,hh,TRUE,1445.1039999999998,26,male
12,ab,4,8,ll,ll,TRUE,2248.779,26,male
12,ab,4,9,hl,hh,FALSE,6892.121,26,male
12,ab,4,10,ll,ll,TRUE,12374.394,26,male
12,ab,4,11,hh,hh,TRUE,2484.877,26,male
12,ab,4,12,hh,hh,TRUE,6558.865,26,male
12,ab,4,13,hl,hh,FALSE,3637.826,26,male
12,ab,4,14,hh,hh,TRUE,2241.255,26,male
12,ab,4,15,hl,ll,FALSE,3046.35,26,male
12,ab,4,16,ll,lh,FALSE,9993.302,26,male
12,ab,4,17,ll,ll,TRUE,2663.49,26,male
12,ab,4,18,hl,hh,FALSE,1482.049,26,male
12,ab,4,19,hh,hh,TRUE,859.472,26,male
12,ab,4,20,ll,ll,TRUE,7607.1759999999995,26,male
12,ab,4,21,lh,lh,TRUE,12708.639,26,male
12,ab,4,22,hl,hl,TRUE,5158.581,26,male
12,ab,4,23,ll,ll,TRUE,1701.627,26,male
12,ab,4,24,hl,hl,TRUE,4382.967,26,male
12,ab,4,25,hh,hh,TRUE,1164.6239999999998,26,male
12,ab,4,26,hl,lh,FALSE,5146.797,26,male
12,ab,4,27,hh,hh,TRUE,1017.924,26,male
12,ab,4,28,hh,hl,FALSE,4974.588,26,male
12,ab,4,29,lh,ll,FALSE,2437.053,26,male
12,ab,4,30,lh,lh,TRUE,5233.161,26,male
12,ab,4,31,hl,hh,FALSE,2461.837,26,male
12,ab,4,32,hl,hh,FALSE,2295.971,26,male
12,ab,4,33,lh,hh,FALSE,1657.23,26,male
12,ab,4,34,hh,hl,FALSE,10372.533,26,male
12,ab,4,35,hl,hh,FALSE,2051.677,26,male
12,ab,4,36,hl,ll,FALSE,5886.819,26,male
12,ab,4,37,lh,hh,FALSE,2016.621,26,male
12,ab,4,38,hh,hl,FALSE,3453.415,26,male
12,ab,4,39,hl,lh,FALSE,4656.796,26,male
12,ab,4,40,lh,ll,FALSE,5379.454,26,male
12,ab,4,41,hh,hh,TRUE,985.0039999999999,26,male
12,ab,4,42,lh,hh,FALSE,3503.3289999999997,26,male
12,ab,4,43,ll,lh,FALSE,13664.869,26,male
12,ab,4,44,hl,hl,TRUE,7803.428,26,male
12,ab,4,45,hh,hh,TRUE,1041.028,26,male
12,ab,4,46,hl,hh,FALSE,4132.995,26,male
12,ab,4,47,ll,ll,TRUE,5053.091,26,male
12,ab,4,48,lh,hh,FALSE,6752.233,26,male
12,ab,4,49,hl,hh,FALSE,2447.676,26,male
12,ab,4,50,hh,hh,TRUE,1274.6190000000001,26,male
12,ab,4,51,lh,hl,FALSE,13877.777,26,male
12,ab,4,52,lh,ll,FALSE,2214.995,26,male
12,ab,4,53,ll,hh,FALSE,2171.834,26,male
12,ab,4,54,ll,ll,TRUE,6866.704,26,male
12,ab,4,55,ll,ll,TRUE,5581.335,26,male
12,ab,4,56,ll,ll,TRUE,1099.464,26,male
12,ab,4,57,lh,hh,FALSE,1212.8000000000002,26,male
12,ab,4,58,hh,hh,TRUE,809.4649999999999,26,male
12,ab,4,59,ll,lh,FALSE,6726.978,26,male
12,ab,4,60,hh,hh,TRUE,2743.639,26,male
12,ab,4,61,ll,lh,FALSE,5815.639,26,male
12,ab,4,62,hl,hl,TRUE,3579.6760000000004,26,male
12,ab,4,63,hl,hh,FALSE,2026.1439999999998,26,male
12,ab,4,64,hl,ll,FALSE,4566.974,26,male
12,ab,4,65,ll,ll,TRUE,2013.5970000000002,26,male
12,ab,4,66,hh,hh,TRUE,2874.099,26,male
12,ab,4,67,hl,hl,TRUE,8661.318,26,male
12,ab,4,68,hh,lh,FALSE,7318.656999999999,26,male
12,ab,4,69,lh,hh,FALSE,3632.371,26,male
12,ab,4,70,lh,hh,FALSE,12299.684,26,male
12,ab,4,71,ll,ll,TRUE,2605.683,26,male
12,ab,4,72,hl,hh,FALSE,4114.786,26,male
12,ab,4,73,ll,hh,FALSE,2410.867,26,male
12,ab,4,74,hh,hh,TRUE,1927.862,26,male
12,ab,4,75,lh,hl,FALSE,11592.059,26,male
12,ab,4,76,hl,hh,FALSE,1286.3229999999999,26,male
12,ab,4,77,lh,hh,FALSE,5248.528,26,male
12,ab,4,78,hl,hh,FALSE,1995.73,26,male
12,ab,4,79,,,FALSE,15016.47,26,male
12,ab,4,80,hh,hl,FALSE,3816.3320000000003,26,male
12,ab,4,81,hh,hh,TRUE,860.914,26,male
12,ab,4,82,lh,ll,FALSE,2263.07,26,male
12,ab,4,83,hl,ll,FALSE,5865.903,26,male
12,ab,4,84,ll,ll,TRUE,1772.429,26,male
12,ab,4,85,hl,hh,FALSE,2179.208,26,male
12,ab,4,86,hl,hh,FALSE,1849.455,26,male
12,ab,4,87,ll,ll,TRUE,2317.046,26,male
12,ab,4,88,lh,ll,FALSE,1261.167,26,male
12,ab,4,89,ll,hh,FALSE,952.086,26,male
12,ab,4,90,lh,hh,FALSE,974.2180000000001,26,male
12,ab,4,91,hh,hh,TRUE,789.9960000000001,26,male
12,ab,4,92,ll,ll,TRUE,1715.6840000000002,26,male
12,ab,4,93,ll,ll,TRUE,4891.391,26,male
12,ab,4,94,hh,hh,TRUE,788.847,26,male
12,ab,4,95,lh,hh,FALSE,4195.251,26,male
12,ab,4,96,lh,hh,FALSE,1224.234,26,male
12,ab,4,97,hl,ll,FALSE,5669.283,26,male
12,ab,4,98,lh,lh,TRUE,5375.757,26,male
12,ab,4,99,lh,hh,FALSE,2214.029,26,male
12,ab,4,100,hl,hl,TRUE,3691.2209999999995,26,male
12,ab,4,101,ll,ll,TRUE,1060.5,26,male
12,ab,4,102,lh,hh,FALSE,7000.65,26,male
12,ab,4,103,ll,ll,TRUE,973.2449999999999,26,male
12,ab,4,104,lh,ll,FALSE,4052.456,26,male
12,ab,4,105,ll,hh,FALSE,3615.626,26,male
12,ab,4,106,hl,hh,FALSE,2076.385,26,male
12,ab,4,107,hl,hh,FALSE,6311.342,26,male
12,ab,4,108,lh,ll,FALSE,13559.688,26,male
12,ab,4,109,hl,ll,FALSE,4135.163,26,male
12,ab,4,110,ll,ll,TRUE,1934.788,26,male
12,ab,4,111,lh,ll,FALSE,3790.736,26,male
12,ab,4,112,ll,ll,TRUE,1461.0659999999998,26,male
12,ab,4,113,lh,ll,FALSE,9607.499,26,male
12,ab,4,114,hh,hh,TRUE,9733.142,26,male
12,ab,4,115,hh,hh,TRUE,1164.6060000000002,26,male
12,ab,4,116,lh,hh,FALSE,2636.036,26,male
12,ab,4,117,hl,ll,FALSE,2367.574,26,male
12,ab,4,118,lh,ll,FALSE,2302.568,26,male
12,ab,4,119,hh,hh,TRUE,2094.449,26,male
12,ab,4,120,lh,ll,FALSE,1704.324,26,male
12,ab,5,1,lh,lh,TRUE,4203.171,26,male
12,ab,5,2,ll,lh,FALSE,5520.293,26,male
12,ab,5,3,lh,ll,FALSE,6000.684,26,male
12,ab,5,4,ll,ll,TRUE,1134.4560000000001,26,male
12,ab,5,5,lh,hh,FALSE,2510.606,26,male
12,ab,5,6,hh,hl,FALSE,3015.146,26,male
12,ab,5,7,lh,hl,FALSE,2812.398,26,male
12,ab,5,8,ll,lh,FALSE,5688.971,26,male
12,ab,5,9,hl,lh,FALSE,6946.59,26,male
12,ab,5,10,hh,hh,TRUE,1370.5720000000001,26,male
12,ab,5,11,ll,lh,FALSE,6673.135,26,male
12,ab,5,12,ll,lh,FALSE,3939.955,26,male
12,ab,5,13,hh,hh,TRUE,1059.879,26,male
12,ab,5,14,hh,hh,TRUE,1719.12,26,male
12,ab,5,15,hh,hh,TRUE,1487.723,26,male
12,ab,5,16,lh,lh,TRUE,9105.996,26,male
12,ab,5,17,lh,hh,FALSE,962.385,26,male
12,ab,5,18,lh,hh,FALSE,760.8199999999999,26,male
12,ab,5,19,lh,hl,FALSE,4087.371,26,male
12,ab,5,20,hl,hh,FALSE,5522.016,26,male
12,ab,5,21,hh,hh,TRUE,3042.437,26,male
12,ab,5,22,hl,hh,FALSE,1446.52,26,male
12,ab,5,23,hh,hh,TRUE,1161.5639999999999,26,male
12,ab,5,24,ll,ll,TRUE,2024.7310000000002,26,male
12,ab,5,25,ll,lh,FALSE,7765.097,26,male
12,ab,5,26,hl,ll,FALSE,3995.867,26,male
12,ab,5,27,hl,hh,FALSE,1016.894,26,male
12,ab,5,28,ll,lh,FALSE,5933.831,26,male
12,ab,5,29,ll,lh,FALSE,4910.077,26,male
12,ab,5,30,lh,lh,TRUE,4487.015,26,male
12,ab,5,31,lh,hh,FALSE,2864.808,26,male
12,ab,5,32,ll,ll,TRUE,1835.6129999999998,26,male
12,ab,5,33,hh,hh,TRUE,10111.74,26,male
12,ab,5,34,lh,hh,FALSE,1192.0030000000002,26,male
12,ab,5,35,hl,ll,FALSE,1478.4360000000001,26,male
12,ab,5,36,lh,hh,FALSE,1448.3539999999998,26,male
12,ab,5,37,hh,hh,TRUE,3739.5550000000003,26,male
12,ab,5,38,hl,hl,TRUE,4627.711,26,male
12,ab,5,39,lh,hh,FALSE,1351.2399999999998,26,male
12,ab,5,40,lh,hh,FALSE,1119.0279999999998,26,male
12,ab,5,41,hh,hh,TRUE,1215.8339999999998,26,male
12,ab,5,42,lh,ll,FALSE,5356.288,26,male
12,ab,5,43,ll,lh,FALSE,4147.877,26,male
12,ab,5,44,lh,hh,FALSE,4794.783,26,male
12,ab,5,45,hh,hl,FALSE,5464.416,26,male
12,ab,5,46,ll,ll,TRUE,1098.9319999999998,26,male
12,ab,5,47,hh,hh,TRUE,3964.84,26,male
12,ab,5,48,hl,hh,FALSE,1771.2820000000002,26,male
12,ab,5,49,hh,hh,TRUE,1649.748,26,male
12,ab,5,50,lh,hh,FALSE,1069.185,26,male
12,ab,5,51,hh,hl,FALSE,3023.075,26,male
12,ab,5,52,hh,hh,TRUE,2420.418,26,male
12,ab,5,53,hh,hh,TRUE,897.127,26,male
12,ab,5,54,ll,ll,TRUE,2569.998,26,male
12,ab,5,55,lh,hl,FALSE,8369.216,26,male
12,ab,5,56,hh,hh,TRUE,2159.877,26,male
12,ab,5,57,hl,hl,TRUE,5783.314,26,male
12,ab,5,58,hl,hl,TRUE,1949.1309999999999,26,male
12,ab,5,59,ll,lh,FALSE,3868.205,26,male
12,ab,5,60,ll,ll,TRUE,1135.1689999999999,26,male
12,ab,5,61,hh,hh,TRUE,3103.263,26,male
12,ab,5,62,hh,lh,FALSE,7280.343000000001,26,male
12,ab,5,63,ll,hh,FALSE,1834.5059999999999,26,male
12,ab,5,64,ll,ll,TRUE,942.404,26,male
12,ab,5,65,hl,hh,FALSE,1030.402,26,male
12,ab,5,66,ll,ll,TRUE,1497.9319999999998,26,male
12,ab,5,67,hh,hl,FALSE,6188.001,26,male
12,ab,5,68,lh,hl,FALSE,4289.848,26,male
12,ab,5,69,lh,lh,TRUE,5715.751,26,male
12,ab,5,70,hl,hh,FALSE,1691.9720000000002,26,male
12,ab,5,71,hl,hh,FALSE,2821.514,26,male
12,ab,5,72,hl,ll,FALSE,4163.089,26,male
12,ab,5,73,hh,hh,TRUE,1049.7040000000002,26,male
12,ab,5,74,ll,hl,FALSE,4780.825,26,male
12,ab,5,75,hl,ll,FALSE,2171.416,26,male
12,ab,5,76,lh,hh,FALSE,1026.084,26,male
12,ab,5,77,hl,hh,FALSE,5494.654,26,male
12,ab,5,78,hl,lh,FALSE,4391.464,26,male
12,ab,5,79,hh,hh,TRUE,1877.906,26,male
12,ab,5,80,ll,hl,FALSE,3926.589,26,male
12,ab,5,81,hh,lh,FALSE,6679.699,26,male
12,ab,5,82,ll,lh,FALSE,3737.866,26,male
12,ab,5,83,lh,lh,TRUE,6609.807,26,male
12,ab,5,84,hh,hh,TRUE,1223.3739999999998,26,male
12,ab,5,85,lh,hh,FALSE,14051.641,26,male
12,ab,5,86,hh,hl,FALSE,6223.221,26,male
12,ab,5,87,hh,hh,TRUE,819.4570000000001,26,male
12,ab,5,88,lh,hh,FALSE,2368.636,26,male
12,ab,5,89,hh,hh,TRUE,2015.085,26,male
12,ab,5,90,ll,lh,FALSE,3179.7610000000004,26,male
12,ab,5,91,hh,hh,TRUE,3209.638,26,male
12,ab,5,92,hl,ll,FALSE,1351.255,26,male
12,ab,5,93,ll,lh,FALSE,3182.4539999999997,26,male
12,ab,5,94,hh,hh,TRUE,940.289,26,male
12,ab,5,95,hl,hh,FALSE,5364.547,26,male
12,ab,5,96,ll,ll,TRUE,2954.992,26,male
12,ab,5,97,lh,ll,FALSE,1794.56,26,male
12,ab,5,98,hl,hh,FALSE,1863.4589999999998,26,male
12,ab,5,99,hh,hh,TRUE,969.9110000000001,26,male
12,ab,5,100,hh,hh,TRUE,1088.6390000000001,26,male
12,ab,5,101,ll,hl,FALSE,3875.2709999999997,26,male
12,ab,5,102,lh,hh,FALSE,1702.038,26,male
12,ab,5,103,hh,hh,TRUE,5838.917,26,male
12,ab,5,104,hl,hh,FALSE,2643.362,26,male
12,ab,5,105,hh,hh,TRUE,823.2829999999999,26,male
12,ab,5,106,ll,ll,TRUE,1123.672,26,male
12,ab,5,107,hl,ll,FALSE,8100.612999999999,26,male
12,ab,5,108,hl,ll,FALSE,6701.898,26,male
12,ab,5,109,hl,hl,TRUE,2975.384,26,male
12,ab,5,110,hl,hl,TRUE,2597.894,26,male
12,ab,5,111,hl,hh,FALSE,2474.894,26,male
12,ab,5,112,hh,hh,TRUE,773.7760000000001,26,male
12,ab,5,113,lh,lh,TRUE,6788.847,26,male
12,ab,5,114,hh,hh,TRUE,1090.2730000000001,26,male
12,ab,5,115,hl,ll,FALSE,1796.754,26,male
12,ab,5,116,lh,ll,FALSE,4009.8860000000004,26,male
12,ab,5,117,ll,ll,TRUE,983.4649999999999,26,male
12,ab,5,118,ll,lh,FALSE,5836.886,26,male
12,ab,5,119,hl,hh,FALSE,1713.4389999999999,26,male
12,ab,5,120,ll,hh,FALSE,4217.271,26,male
