pID,condition,block_no,trial_no,stimulus,response,correct,rt,age,gender
8,ab,1,1,lh,hl,FALSE,8240.301,19,female
8,ab,1,2,hh,hh,TRUE,6878.955,19,female
8,ab,1,3,ll,ll,TRUE,7074.673,19,female
8,ab,1,4,hh,lh,FALSE,5601.832,19,female
8,ab,1,5,ll,hh,FALSE,3349.745,19,female
8,ab,1,6,hl,hl,TRUE,3975.3559999999998,19,female
8,ab,1,7,hh,hh,TRUE,1646.4119999999998,19,female
8,ab,1,8,hl,hh,FALSE,1984.1129999999998,19,female
8,ab,1,9,lh,ll,FALSE,1514.3580000000002,19,female
8,ab,1,10,hh,hh,TRUE,1184.4189999999999,19,female
8,ab,1,11,hl,lh,FALSE,4948.151,19,female
8,ab,1,12,lh,lh,TRUE,5234.955,19,female
8,ab,1,13,hh,hh,TRUE,1966.0529999999999,19,female
8,ab,1,14,ll,hh,FALSE,3361.3630000000003,19,female
8,ab,1,15,ll,ll,TRUE,2194.093,19,female
8,ab,1,16,lh,ll,FALSE,1522.7489999999998,19,female
8,ab,1,17,hl,lh,FALSE,3778.2619999999997,19,female
8,ab,1,18,hl,lh,FALSE,3042.193,19,female
8,ab,1,19,hh,hl,FALSE,11087.39,19,female
8,ab,1,20,hl,hl,TRUE,1853.4969999999998,19,female
8,ab,1,21,hl,hl,TRUE,3214.303,19,female
8,ab,1,22,hh,hh,TRUE,1285.701,19,female
8,ab,1,23,hh,hh,TRUE,1525.665,19,female
8,ab,1,24,lh,hl,FALSE,3234.5290000000005,19,female
8,ab,1,25,hl,hl,TRUE,1226.652,19,female
8,ab,1,26,hh,hh,TRUE,1493.429,19,female
8,ab,1,27,hh,hh,TRUE,1749.0439999999999,19,female
8,ab,1,28,lh,hl,FALSE,2201.106,19,female
8,ab,1,29,hh,hh,TRUE,2641.634,19,female
8,ab,1,30,hh,hh,TRUE,1104.984,19,female
8,ab,1,31,ll,ll,TRUE,1898.284,19,female
8,ab,1,32,ll,hl,FALSE,7095.351,19,female
8,ab,1,33,lh,ll,FALSE,1957.609,19,female
8,ab,1,34,lh,ll,FALSE,1118.942,19,female
8,ab,1,35,lh,hh,FALSE,1158.542,19,female
8,ab,1,36,hl,hh,FALSE,4332.673,19,female
8,ab,1,37,hl,ll,FALSE,1701.6039999999998,19,female
8,ab,1,38,hh,hh,TRUE,1290.1840000000002,19,female
8,ab,1,39,hh,hh,TRUE,2563.72,19,female
8,ab,1,40,hl,hl,TRUE,2374.394,19,female
8,ab,1,41,hl,hl,TRUE,6425.049,19,female
8,ab,1,42,hl,lh,FALSE,3202.111,19,female
8,ab,1,43,hh,hh,TRUE,5129.574,19,female
8,ab,1,44,hh,hh,TRUE,943.0419999999999,19,female
8,ab,1,45,hh,hh,TRUE,1141.0259999999998,19,female
8,ab,1,46,hh,hh,TRUE,2090.33,19,female
8,ab,1,47,ll,ll,TRUE,1474.3310000000001,19,female
8,ab,1,48,ll,hl,FALSE,3003.093,19,female
8,ab,1,49,ll,ll,TRUE,1393.9630000000002,19,female
8,ab,1,50,hh,hh,TRUE,1303.0790000000002,19,female
8,ab,1,51,lh,hl,FALSE,5894.446,19,female
8,ab,1,52,hh,hl,FALSE,5853.208,19,female
8,ab,1,53,hh,hh,TRUE,1390.12,19,female
8,ab,1,54,hl,hh,FALSE,1129.1219999999998,19,female
8,ab,1,55,hh,hh,TRUE,2280.022,19,female
8,ab,1,56,lh,hl,FALSE,3229.397,19,female
8,ab,1,57,hh,hh,TRUE,1021.586,19,female
8,ab,1,58,hl,hl,TRUE,3456.874,19,female
8,ab,1,59,hh,hh,TRUE,1877.797,19,female
8,ab,1,60,hl,hl,TRUE,3372.12,19,female
8,ab,1,61,hh,hh,TRUE,1165.431,19,female
8,ab,1,62,lh,hl,FALSE,2602.223,19,female
8,ab,1,63,ll,ll,TRUE,4513.711,19,female
8,ab,1,64,lh,ll,FALSE,2196.185,19,female
8,ab,1,65,hl,ll,FALSE,5406.081,19,female
8,ab,1,66,ll,ll,TRUE,5975.074,19,female
8,ab,1,67,lh,hl,FALSE,8156.656000000001,19,female
8,ab,1,68,lh,ll,FALSE,2994.916,19,female
8,ab,1,69,lh,hh,FALSE,1492.1889999999999,19,female
8,ab,1,70,hl,ll,FALSE,4252.102,19,female
8,ab,1,71,ll,hl,FALSE,10463.753,19,female
8,ab,1,72,hl,hh,FALSE,1872.007,19,female
8,ab,1,73,hh,hh,TRUE,1287.5349999999999,19,female
8,ab,1,74,lh,hh,FALSE,1887.1509999999998,19,female
8,ab,1,75,hl,hl,TRUE,2670.225,19,female
8,ab,1,76,hl,hl,TRUE,2467.539,19,female
8,ab,1,77,ll,ll,TRUE,1674.841,19,female
8,ab,1,78,ll,ll,TRUE,3571.879,19,female
8,ab,1,79,lh,lh,TRUE,2110.585,19,female
8,ab,1,80,ll,lh,FALSE,2326.787,19,female
8,ab,1,81,lh,lh,TRUE,2738.604,19,female
8,ab,1,82,hl,lh,FALSE,2092.633,19,female
8,ab,1,83,ll,ll,TRUE,1540.4099999999999,19,female
8,ab,1,84,lh,hh,FALSE,5010.002,19,female
8,ab,1,85,ll,ll,TRUE,981.55,19,female
8,ab,1,86,ll,ll,TRUE,939.3720000000001,19,female
8,ab,1,87,lh,hh,FALSE,2519.968,19,female
8,ab,1,88,hh,hh,TRUE,1126.3560000000002,19,female
8,ab,1,89,hl,hl,TRUE,4403.429,19,female
8,ab,1,90,hl,hl,TRUE,5547.002,19,female
8,ab,1,91,hh,hh,TRUE,1136.9520000000002,19,female
8,ab,1,92,hl,hh,FALSE,1663.4,19,female
8,ab,1,93,lh,ll,FALSE,2030.826,19,female
8,ab,1,94,ll,lh,FALSE,1936.1550000000002,19,female
8,ab,1,95,ll,hl,FALSE,3060.711,19,female
8,ab,1,96,ll,ll,TRUE,1618.857,19,female
8,ab,1,97,lh,ll,FALSE,1644.7089999999998,19,female
8,ab,1,98,ll,ll,TRUE,6166.228,19,female
8,ab,1,99,ll,ll,TRUE,906.22,19,female
8,ab,1,100,hh,hh,TRUE,1024.188,19,female
8,ab,1,101,hh,hh,TRUE,924.5540000000001,19,female
8,ab,1,102,lh,lh,TRUE,4299.942,19,female
8,ab,1,103,hh,hh,TRUE,2414.195,19,female
8,ab,1,104,hh,hh,TRUE,959.1590000000001,19,female
8,ab,1,105,ll,ll,TRUE,885.145,19,female
8,ab,1,106,lh,lh,TRUE,4069.4260000000004,19,female
8,ab,1,107,lh,lh,TRUE,1089.274,19,female
8,ab,1,108,hh,hh,TRUE,1072.728,19,female
8,ab,1,109,hh,hh,TRUE,984.2739999999999,19,female
8,ab,1,110,hl,hh,FALSE,1579.016,19,female
8,ab,1,111,hl,lh,FALSE,3753.139,19,female
8,ab,1,112,hh,lh,FALSE,3890.808,19,female
8,ab,1,113,hl,hh,FALSE,1500.705,19,female
8,ab,1,114,hl,hh,FALSE,1286.0659999999998,19,female
8,ab,1,115,hl,lh,FALSE,2206.149,19,female
8,ab,1,116,lh,hh,FALSE,1175.3980000000001,19,female
8,ab,1,117,hh,hh,TRUE,1164.288,19,female
8,ab,1,118,hh,lh,FALSE,1369.8960000000002,19,female
8,ab,1,119,ll,lh,FALSE,2677.764,19,female
8,ab,1,120,ll,ll,TRUE,2906.372,19,female
8,ab,2,1,ll,hh,FALSE,3346.6409999999996,19,female
8,ab,2,2,ll,ll,TRUE,1293.511,19,female
8,ab,2,3,hl,hh,FALSE,1373.7640000000001,19,female
8,ab,2,4,lh,lh,TRUE,3178.3720000000003,19,female
8,ab,2,5,hh,hh,TRUE,1458.8809999999999,19,female
8,ab,2,6,hh,hl,FALSE,3731.365,19,female
8,ab,2,7,lh,hh,FALSE,2956.018,19,female
8,ab,2,8,hl,hh,FALSE,918.002,19,female
8,ab,2,9,hh,hh,TRUE,834.9280000000001,19,female
8,ab,2,10,hh,hh,TRUE,1261.426,19,female
8,ab,2,11,lh,lh,TRUE,2638.451,19,female
8,ab,2,12,hh,hh,TRUE,1549.799,19,female
8,ab,2,13,lh,lh,TRUE,2356.549,19,female
8,ab,2,14,hh,hh,TRUE,1167.527,19,female
8,ab,2,15,hh,hl,FALSE,2625.773,19,female
8,ab,2,16,lh,hl,FALSE,1764.694,19,female
8,ab,2,17,hh,lh,FALSE,2144.715,19,female
8,ab,2,18,hh,lh,FALSE,4732.96,19,female
8,ab,2,19,hh,hl,FALSE,4485.13,19,female
8,ab,2,20,hl,hl,TRUE,2047.3980000000001,19,female
8,ab,2,21,hh,hl,FALSE,2815.739,19,female
8,ab,2,22,ll,ll,TRUE,3046.32,19,female
8,ab,2,23,ll,lh,FALSE,1806.7220000000002,19,female
8,ab,2,24,ll,ll,TRUE,2760.671,19,female
8,ab,2,25,hh,hh,TRUE,1443.127,19,female
8,ab,2,26,ll,ll,TRUE,1445.2469999999998,19,female
8,ab,2,27,hl,lh,FALSE,3885.6130000000003,19,female
8,ab,2,28,lh,ll,FALSE,2054.58,19,female
8,ab,2,29,ll,ll,TRUE,1143.933,19,female
8,ab,2,30,ll,ll,TRUE,6415.012,19,female
8,ab,2,31,hl,hh,FALSE,1373.6709999999998,19,female
8,ab,2,32,ll,ll,TRUE,1340.217,19,female
8,ab,2,33,hl,hh,FALSE,6634.311,19,female
8,ab,2,34,lh,ll,FALSE,1418.156,19,female
8,ab,2,35,hl,ll,FALSE,2405.274,19,female
8,ab,2,36,lh,hh,FALSE,1254.1399999999999,19,female
8,ab,2,37,lh,hh,FALSE,869.53,19,female
8,ab,2,38,hh,hh,TRUE,703.3109999999999,19,female
8,ab,2,39,hh,hl,FALSE,1353.371,19,female
8,ab,2,40,hl,lh,FALSE,2102.533,19,female
8,ab,2,41,ll,ll,TRUE,1835.5230000000001,19,female
8,ab,2,42,ll,ll,TRUE,1538.1149999999998,19,female
8,ab,2,43,lh,lh,TRUE,2033.8139999999999,19,female
8,ab,2,44,hh,hh,TRUE,946.934,19,female
8,ab,2,45,ll,ll,TRUE,913.4200000000001,19,female
8,ab,2,46,ll,hl,FALSE,2439.005,19,female
8,ab,2,47,hl,hl,TRUE,3425.401,19,female
8,ab,2,48,hh,hh,TRUE,1071.444,19,female
8,ab,2,49,lh,hl,FALSE,1816.768,19,female
8,ab,2,50,hl,hh,FALSE,2434.603,19,female
8,ab,2,51,hl,ll,FALSE,1459.4630000000002,19,female
8,ab,2,52,hl,hh,FALSE,1988.071,19,female
8,ab,2,53,lh,hl,FALSE,1414.712,19,female
8,ab,2,54,ll,lh,FALSE,3569.5280000000002,19,female
8,ab,2,55,lh,ll,FALSE,1359.2469999999998,19,female
8,ab,2,56,hh,hh,TRUE,902.691,19,female
8,ab,2,57,lh,hl,FALSE,1366.632,19,female
8,ab,2,58,hl,lh,FALSE,1492.047,19,female
8,ab,2,59,hh,lh,FALSE,2651.559,19,female
8,ab,2,60,hh,lh,FALSE,1810.7220000000002,19,female
8,ab,2,61,ll,ll,TRUE,2765.082,19,female
8,ab,2,62,lh,hl,FALSE,1502.4430000000002,19,female
8,ab,2,63,hh,hh,TRUE,1157.4940000000001,19,female
8,ab,2,64,lh,hh,FALSE,1290.453,19,female
8,ab,2,65,lh,hh,FALSE,1746.2530000000002,19,female
8,ab,2,66,ll,ll,TRUE,1063.3829999999998,19,female
8,ab,2,67,ll,ll,TRUE,857.075,19,female
8,ab,2,68,hh,hh,TRUE,1051.1,19,female
8,ab,2,69,hl,lh,FALSE,1868.786,19,female
8,ab,2,70,lh,lh,TRUE,2636.674,19,female
8,ab,2,71,ll,ll,TRUE,1748.058,19,female
8,ab,2,72,hh,hh,TRUE,2217.321,19,female
8,ab,2,73,ll,ll,TRUE,4074.835,19,female
8,ab,2,74,hl,hh,FALSE,3987.2610000000004,19,female
8,ab,2,75,lh,ll,FALSE,14028.806,19,female
8,ab,2,76,ll,ll,TRUE,989.085,19,female
8,ab,2,77,hl,hh,FALSE,955.738,19,female
8,ab,2,78,lh,lh,TRUE,5633.724,19,female
8,ab,2,79,hl,hl,TRUE,2787.747,19,female
8,ab,2,80,hl,hl,TRUE,2108.961,19,female
8,ab,2,81,hl,hh,FALSE,1487.893,19,female
8,ab,2,82,ll,lh,FALSE,1577.6570000000002,19,female
8,ab,2,83,hl,hh,FALSE,2013.4969999999998,19,female
8,ab,2,84,ll,lh,FALSE,3020.635,19,female
8,ab,2,85,hl,hh,FALSE,1181.922,19,female
8,ab,2,86,hh,hh,TRUE,796.9559999999999,19,female
8,ab,2,87,hl,hl,TRUE,3670.4120000000003,19,female
8,ab,2,88,hl,lh,FALSE,3918.133,19,female
8,ab,2,89,hl,hl,TRUE,4608.267,19,female
8,ab,2,90,hh,hh,TRUE,1332.806,19,female
8,ab,2,91,ll,ll,TRUE,1011.4459999999999,19,female
8,ab,2,92,hh,hh,TRUE,1207.217,19,female
8,ab,2,93,ll,hl,FALSE,1928,19,female
8,ab,2,94,hh,hl,FALSE,1288.1080000000002,19,female
8,ab,2,95,ll,lh,FALSE,2255.524,19,female
8,ab,2,96,ll,ll,TRUE,3527.129,19,female
8,ab,2,97,hl,hh,FALSE,1929.5369999999998,19,female
8,ab,2,98,ll,ll,TRUE,934.973,19,female
8,ab,2,99,hh,hh,TRUE,1045.386,19,female
8,ab,2,100,hl,hl,TRUE,2741.252,19,female
8,ab,2,101,hl,lh,FALSE,2186.957,19,female
8,ab,2,102,ll,ll,TRUE,1692.806,19,female
8,ab,2,103,lh,hl,FALSE,1948.002,19,female
8,ab,2,104,lh,hh,FALSE,1152.0459999999998,19,female
8,ab,2,105,lh,ll,FALSE,901.453,19,female
8,ab,2,106,ll,ll,TRUE,925.2629999999999,19,female
8,ab,2,107,hl,hl,TRUE,4732.998,19,female
8,ab,2,108,lh,lh,TRUE,3308.782,19,female
8,ab,2,109,lh,lh,TRUE,1477.1889999999999,19,female
8,ab,2,110,hl,hl,TRUE,2662.62,19,female
8,ab,2,111,lh,hh,FALSE,2702.776,19,female
8,ab,2,112,lh,hl,FALSE,5003.657,19,female
8,ab,2,113,lh,ll,FALSE,1575.431,19,female
8,ab,2,114,lh,hl,FALSE,4683.553,19,female
8,ab,2,115,ll,ll,TRUE,2405.545,19,female
8,ab,2,116,ll,ll,TRUE,3470.455,19,female
8,ab,2,117,hh,hh,TRUE,1259.406,19,female
8,ab,2,118,ll,ll,TRUE,996.848,19,female
8,ab,2,119,lh,hh,FALSE,1200.902,19,female
8,ab,2,120,hl,hl,TRUE,2755.843,19,female
8,ab,3,1,hh,hl,FALSE,4177.517,19,female
8,ab,3,2,hh,hh,TRUE,1144.741,19,female
8,ab,3,3,ll,ll,TRUE,934.414,19,female
8,ab,3,4,hl,hl,TRUE,2259.183,19,female
8,ab,3,5,ll,ll,TRUE,1196.3200000000002,19,female
8,ab,3,6,lh,ll,FALSE,2311.46,19,female
8,ab,3,7,hh,hh,TRUE,2340.869,19,female
8,ab,3,8,hh,hh,TRUE,1192.6819999999998,19,female
8,ab,3,9,lh,hh,FALSE,1420.6619999999998,19,female
8,ab,3,10,hl,hh,FALSE,964.019,19,female
8,ab,3,11,ll,hl,FALSE,2036.6550000000002,19,female
8,ab,3,12,hl,hl,TRUE,2653.651,19,female
8,ab,3,13,hh,hh,TRUE,899.922,19,female
8,ab,3,14,ll,ll,TRUE,888.3679999999999,19,female
8,ab,3,15,ll,lh,FALSE,4852.36,19,female
8,ab,3,16,hl,hh,FALSE,1431.4099999999999,19,female
8,ab,3,17,lh,hh,FALSE,1024.59,19,female
8,ab,3,18,ll,hl,FALSE,5811.953,19,female
8,ab,3,19,lh,hh,FALSE,1222.3629999999998,19,female
8,ab,3,20,ll,ll,TRUE,1184.663,19,female
8,ab,3,21,ll,hl,FALSE,3060.693,19,female
8,ab,3,22,hl,hh,FALSE,4067.2529999999997,19,female
8,ab,3,23,ll,hh,FALSE,2211.698,19,female
8,ab,3,24,ll,lh,FALSE,4175.964,19,female
8,ab,3,25,ll,hl,FALSE,3216.1450000000004,19,female
8,ab,3,26,hl,hh,FALSE,2875.294,19,female
8,ab,3,27,hh,hh,TRUE,1740.665,19,female
8,ab,3,28,ll,ll,TRUE,984.922,19,female
8,ab,3,29,hl,lh,FALSE,3684.7920000000004,19,female
8,ab,3,30,ll,ll,TRUE,3616.843,19,female
8,ab,3,31,ll,ll,TRUE,839.634,19,female
8,ab,3,32,lh,hh,FALSE,1450.4180000000001,19,female
8,ab,3,33,hh,hh,TRUE,1097.4789999999998,19,female
8,ab,3,34,lh,hh,FALSE,1579.437,19,female
8,ab,3,35,lh,hl,FALSE,1471.145,19,female
8,ab,3,36,lh,hh,FALSE,1127.1619999999998,19,female
8,ab,3,37,lh,hl,FALSE,1150.149,19,female
8,ab,3,38,lh,hl,FALSE,1567.761,19,female
8,ab,3,39,lh,hl,FALSE,1799.585,19,female
8,ab,3,40,ll,ll,TRUE,1074.9,19,female
8,ab,3,41,lh,hl,FALSE,2331.593,19,female
8,ab,3,42,hh,hh,TRUE,904.5730000000001,19,female
8,ab,3,43,hh,hh,TRUE,904.2570000000001,19,female
8,ab,3,44,hh,hh,TRUE,759.874,19,female
8,ab,3,45,ll,ll,TRUE,2588.345,19,female
8,ab,3,46,hl,hl,TRUE,2839.891,19,female
8,ab,3,47,hh,hl,FALSE,3206.9179999999997,19,female
8,ab,3,48,ll,hl,FALSE,1853.652,19,female
8,ab,3,49,lh,hh,FALSE,1101.4740000000002,19,female
8,ab,3,50,hl,hh,FALSE,813.2650000000001,19,female
8,ab,3,51,hh,hh,TRUE,848.615,19,female
8,ab,3,52,ll,lh,FALSE,3172.2709999999997,19,female
8,ab,3,53,hh,lh,FALSE,1844.768,19,female
8,ab,3,54,hh,hh,TRUE,1085.27,19,female
8,ab,3,55,lh,lh,TRUE,3325.6620000000003,19,female
8,ab,3,56,hl,hh,FALSE,2279.96,19,female
8,ab,3,57,hh,hh,TRUE,766.8219999999999,19,female
8,ab,3,58,hl,ll,FALSE,3163.54,19,female
8,ab,3,59,lh,hh,FALSE,988.797,19,female
8,ab,3,60,lh,lh,TRUE,9498.489,19,female
8,ab,3,61,hl,hl,TRUE,3386.501,19,female
8,ab,3,62,ll,ll,TRUE,939.1099999999999,19,female
8,ab,3,63,ll,hh,FALSE,1089.654,19,female
8,ab,3,64,lh,hl,FALSE,5194.287,19,female
8,ab,3,65,ll,hh,FALSE,6747.201,19,female
8,ab,3,66,ll,ll,TRUE,1057.5819999999999,19,female
8,ab,3,67,hl,lh,FALSE,3179.553,19,female
8,ab,3,68,hl,hh,FALSE,5616.568,19,female
8,ab,3,69,hh,hh,TRUE,1559.2130000000002,19,female
8,ab,3,70,hl,hh,FALSE,1548.194,19,female
8,ab,3,71,hl,ll,FALSE,2134.524,19,female
8,ab,3,72,lh,hh,FALSE,5029.391,19,female
8,ab,3,73,lh,hh,FALSE,1920.94,19,female
8,ab,3,74,lh,hh,FALSE,989.8779999999999,19,female
8,ab,3,75,ll,ll,TRUE,1066.3519999999999,19,female
8,ab,3,76,ll,ll,TRUE,1391.5320000000002,19,female
8,ab,3,77,hl,lh,FALSE,2767.271,19,female
8,ab,3,78,hl,ll,FALSE,1022.8389999999999,19,female
8,ab,3,79,ll,ll,TRUE,1332.402,19,female
8,ab,3,80,ll,hl,FALSE,2811.249,19,female
8,ab,3,81,hl,ll,FALSE,1451.62,19,female
8,ab,3,82,lh,lh,TRUE,3827.875,19,female
8,ab,3,83,hl,hh,FALSE,1854.4540000000002,19,female
8,ab,3,84,hh,hh,TRUE,814.444,19,female
8,ab,3,85,hh,hh,TRUE,837.9069999999999,19,female
8,ab,3,86,hh,hh,TRUE,791.482,19,female
8,ab,3,87,ll,ll,TRUE,837.192,19,female
8,ab,3,88,lh,hl,FALSE,4312.547,19,female
8,ab,3,89,lh,hh,FALSE,1037.895,19,female
8,ab,3,90,hl,hh,FALSE,875.702,19,female
8,ab,3,91,lh,hh,FALSE,797.3489999999999,19,female
8,ab,3,92,lh,lh,TRUE,1865.147,19,female
8,ab,3,93,hl,lh,FALSE,1601.672,19,female
8,ab,3,94,lh,hl,FALSE,1843.15,19,female
8,ab,3,95,lh,ll,FALSE,964.749,19,female
8,ab,3,96,lh,hl,FALSE,1376.917,19,female
8,ab,3,97,ll,hl,FALSE,1034.018,19,female
8,ab,3,98,lh,ll,FALSE,1536.0929999999998,19,female
8,ab,3,99,hl,lh,FALSE,2253.216,19,female
8,ab,3,100,ll,ll,TRUE,1012.4780000000001,19,female
8,ab,3,101,ll,ll,TRUE,1384.29,19,female
8,ab,3,102,hh,hh,TRUE,1122.723,19,female
8,ab,3,103,hh,hh,TRUE,1203.3690000000001,19,female
8,ab,3,104,ll,hh,FALSE,4462.052,19,female
8,ab,3,105,hl,hh,FALSE,942.538,19,female
8,ab,3,106,hh,hh,TRUE,919.615,19,female
8,ab,3,107,hl,hh,FALSE,855.5920000000001,19,female
8,ab,3,108,ll,lh,FALSE,4497.449,19,female
8,ab,3,109,hh,hl,FALSE,5067.643,19,female
8,ab,3,110,hh,hh,TRUE,1066.145,19,female
8,ab,3,111,hl,hl,TRUE,8782.743,19,female
8,ab,3,112,hh,lh,FALSE,3427.3109999999997,19,female
8,ab,3,113,hl,hh,FALSE,1618.1280000000002,19,female
8,ab,3,114,hh,hh,TRUE,1026.556,19,female
8,ab,3,115,ll,ll,TRUE,1015.7349999999999,19,female
8,ab,3,116,hl,ll,FALSE,928.0329999999999,19,female
8,ab,3,117,hl,ll,FALSE,9826.932,19,female
8,ab,3,118,lh,ll,FALSE,1004.348,19,female
8,ab,3,119,lh,hl,FALSE,2496.336,19,female
8,ab,3,120,lh,hl,FALSE,1613.899,19,female
8,ab,4,1,ll,ll,TRUE,2305.977,19,female
8,ab,4,2,lh,hl,FALSE,3334.7309999999998,19,female
8,ab,4,3,lh,hl,FALSE,1821.1729999999998,19,female
8,ab,4,4,ll,ll,TRUE,1754.0749999999998,19,female
8,ab,4,5,lh,ll,FALSE,1451.393,19,female
8,ab,4,6,hh,lh,FALSE,3991.058,19,female
8,ab,4,7,ll,ll,TRUE,954.568,19,female
8,ab,4,8,hl,hh,FALSE,2076.36,19,female
8,ab,4,9,lh,lh,TRUE,2243.177,19,female
8,ab,4,10,ll,ll,TRUE,1171.221,19,female
8,ab,4,11,lh,ll,FALSE,1152.6570000000002,19,female
8,ab,4,12,hh,lh,FALSE,1974.022,19,female
8,ab,4,13,lh,lh,TRUE,1064.9569999999999,19,female
8,ab,4,14,lh,ll,FALSE,1001.6880000000001,19,female
8,ab,4,15,hh,hl,FALSE,2386.577,19,female
8,ab,4,16,hl,hl,TRUE,2294.968,19,female
8,ab,4,17,lh,ll,FALSE,1729.763,19,female
8,ab,4,18,ll,lh,FALSE,1834.813,19,female
8,ab,4,19,hh,hl,FALSE,1732.5230000000001,19,female
8,ab,4,20,hh,hl,FALSE,1318.944,19,female
8,ab,4,21,hl,hl,TRUE,3104.0730000000003,19,female
8,ab,4,22,hh,hh,TRUE,2495.231,19,female
8,ab,4,23,ll,ll,TRUE,1809.547,19,female
8,ab,4,24,lh,hh,FALSE,1539.4250000000002,19,female
8,ab,4,25,lh,lh,TRUE,4961.451,19,female
8,ab,4,26,hl,lh,FALSE,1191.962,19,female
8,ab,4,27,hl,hh,FALSE,1083.542,19,female
8,ab,4,28,hh,hh,TRUE,1268.3319999999999,19,female
8,ab,4,29,ll,ll,TRUE,1981.0120000000002,19,female
8,ab,4,30,ll,ll,TRUE,1204.9789999999998,19,female
8,ab,4,31,lh,ll,FALSE,1931.703,19,female
8,ab,4,32,ll,ll,TRUE,825.2170000000001,19,female
8,ab,4,33,hh,hh,TRUE,1048.5349999999999,19,female
8,ab,4,34,ll,ll,TRUE,926.886,19,female
8,ab,4,35,lh,lh,TRUE,1590.2959999999998,19,female
8,ab,4,36,lh,lh,TRUE,3005.295,19,female
8,ab,4,37,hh,hl,FALSE,1389.1689999999999,19,female
8,ab,4,38,hh,hl,FALSE,856.9649999999999,19,female
8,ab,4,39,lh,hh,FALSE,1259.016,19,female
8,ab,4,40,lh,lh,TRUE,2020.4630000000002,19,female
8,ab,4,41,hh,hh,TRUE,957.392,19,female
8,ab,4,42,hh,hh,TRUE,755.383,19,female
8,ab,4,43,ll,ll,TRUE,3305.559,19,female
8,ab,4,44,lh,hh,FALSE,7317.030000000001,19,female
8,ab,4,45,lh,hh,FALSE,2752.48,19,female
8,ab,4,46,hl,hh,FALSE,1251.571,19,female
8,ab,4,47,hl,hh,FALSE,900.508,19,female
8,ab,4,48,ll,ll,TRUE,981.115,19,female
8,ab,4,49,lh,lh,TRUE,1937.665,19,female
8,ab,4,50,hl,ll,FALSE,1317.9699999999998,19,female
8,ab,4,51,hl,lh,FALSE,1324.04,19,female
8,ab,4,52,hl,hh,FALSE,2594.881,19,female
8,ab,4,53,ll,ll,TRUE,1061.1370000000002,19,female
8,ab,4,54,ll,ll,TRUE,3430.251,19,female
8,ab,4,55,hh,hh,TRUE,908.356,19,female
8,ab,4,56,lh,hl,FALSE,2340.472,19,female
8,ab,4,57,lh,hl,FALSE,968.392,19,female
8,ab,4,58,hl,hl,TRUE,1629.58,19,female
8,ab,4,59,hl,lh,FALSE,2559.507,19,female
8,ab,4,60,hh,hh,TRUE,826.1980000000001,19,female
8,ab,4,61,ll,lh,FALSE,5173.646,19,female
8,ab,4,62,hh,hh,TRUE,931.3699999999999,19,female
8,ab,4,63,hl,ll,FALSE,1018.769,19,female
8,ab,4,64,hh,hh,TRUE,909.8589999999999,19,female
8,ab,4,65,hh,hh,TRUE,893.9390000000001,19,female
8,ab,4,66,hh,lh,FALSE,3534.697,19,female
8,ab,4,67,hh,hh,TRUE,912.7349999999999,19,female
8,ab,4,68,lh,lh,TRUE,2897.418,19,female
8,ab,4,69,lh,ll,FALSE,1404.9279999999999,19,female
8,ab,4,70,lh,hl,FALSE,5776.021,19,female
8,ab,4,71,hh,hh,TRUE,980.338,19,female
8,ab,4,72,hl,hl,TRUE,8977.434,19,female
8,ab,4,73,hh,hh,TRUE,999.9259999999999,19,female
8,ab,4,74,hl,hh,FALSE,2068.325,19,female
8,ab,4,75,hl,hh,FALSE,900.165,19,female
8,ab,4,76,ll,ll,TRUE,1916.708,19,female
8,ab,4,77,ll,hl,FALSE,4010.7619999999997,19,female
8,ab,4,78,hl,lh,FALSE,1592.9119999999998,19,female
8,ab,4,79,lh,hh,FALSE,956.0319999999999,19,female
8,ab,4,80,lh,ll,FALSE,970,19,female
8,ab,4,81,lh,lh,TRUE,4135.275,19,female
8,ab,4,82,ll,ll,TRUE,864.2260000000001,19,female
8,ab,4,83,lh,lh,TRUE,2857.523,19,female
8,ab,4,84,lh,hh,FALSE,1951.699,19,female
8,ab,4,85,hl,hh,FALSE,1100.5819999999999,19,female
8,ab,4,86,hh,hh,TRUE,988.828,19,female
8,ab,4,87,hl,hh,FALSE,2033.2330000000002,19,female
8,ab,4,88,ll,lh,FALSE,3770.4530000000004,19,female
8,ab,4,89,hh,hh,TRUE,1306.792,19,female
8,ab,4,90,lh,hl,FALSE,2529.983,19,female
8,ab,4,91,lh,hl,FALSE,2750.185,19,female
8,ab,4,92,ll,ll,TRUE,849.124,19,female
8,ab,4,93,hl,hh,FALSE,2972.005,19,female
8,ab,4,94,hl,hh,FALSE,5013.304,19,female
8,ab,4,95,lh,hl,FALSE,2529.295,19,female
8,ab,4,96,hl,hh,FALSE,1166.772,19,female
8,ab,4,97,hl,hl,TRUE,1634.98,19,female
8,ab,4,98,hl,hh,FALSE,1877.0059999999999,19,female
8,ab,4,99,ll,hh,FALSE,1268.3870000000002,19,female
8,ab,4,100,hl,hl,TRUE,3092.086,19,female
8,ab,4,101,hl,hh,FALSE,985.316,19,female
8,ab,4,102,hh,hh,TRUE,1021.8109999999999,19,female
8,ab,4,103,hh,hh,TRUE,817.181,19,female
8,ab,4,104,lh,ll,FALSE,796.1210000000001,19,female
8,ab,4,105,lh,hl,FALSE,3521.367,19,female
8,ab,4,106,hl,hh,FALSE,884.2929999999999,19,female
8,ab,4,107,ll,ll,TRUE,795.7629999999999,19,female
8,ab,4,108,hh,hh,TRUE,1409.851,19,female
8,ab,4,109,lh,ll,FALSE,916.7460000000001,19,female
8,ab,4,110,hl,hl,TRUE,2629.584,19,female
8,ab,4,111,ll,ll,TRUE,957.7249999999999,19,female
8,ab,4,112,ll,hl,FALSE,1771.292,19,female
8,ab,4,113,lh,hl,FALSE,7806.303,19,female
8,ab,4,114,ll,ll,TRUE,1125.5700000000002,19,female
8,ab,4,115,hh,hh,TRUE,933.365,19,female
8,ab,4,116,hl,hh,FALSE,875.762,19,female
8,ab,4,117,hl,hh,FALSE,757.2239999999999,19,female
8,ab,4,118,ll,hl,FALSE,2826.674,19,female
8,ab,4,119,ll,ll,TRUE,1130.382,19,female
8,ab,4,120,lh,hl,FALSE,2128.461,19,female
8,ab,5,1,lh,hl,FALSE,4279.174,19,female
8,ab,5,2,hh,hh,TRUE,914.066,19,female
8,ab,5,3,ll,ll,TRUE,810.0260000000001,19,female
8,ab,5,4,ll,hl,FALSE,3200.1989999999996,19,female
8,ab,5,5,lh,hl,FALSE,1677.6950000000002,19,female
8,ab,5,6,ll,ll,TRUE,757.414,19,female
8,ab,5,7,hh,hh,TRUE,1123.7040000000002,19,female
8,ab,5,8,hh,hh,TRUE,810.5889999999999,19,female
8,ab,5,9,lh,ll,FALSE,1406.984,19,female
8,ab,5,10,ll,hl,FALSE,2953.513,19,female
8,ab,5,11,ll,hl,FALSE,6435.9,19,female
8,ab,5,12,ll,hl,FALSE,1636.4499999999998,19,female
8,ab,5,13,ll,ll,TRUE,933.74,19,female
8,ab,5,14,ll,ll,TRUE,867.233,19,female
8,ab,5,15,hh,hh,TRUE,885.6969999999999,19,female
8,ab,5,16,hl,hh,FALSE,750.328,19,female
8,ab,5,17,ll,hh,FALSE,827.952,19,female
8,ab,5,18,lh,hh,FALSE,920.079,19,female
8,ab,5,19,lh,hl,FALSE,3471.397,19,female
8,ab,5,20,hh,hh,TRUE,1252.3960000000002,19,female
8,ab,5,21,lh,ll,FALSE,973.79,19,female
8,ab,5,22,hh,hh,TRUE,882.7940000000001,19,female
8,ab,5,23,lh,ll,FALSE,1011.569,19,female
8,ab,5,24,lh,hl,FALSE,4639.428,19,female
8,ab,5,25,ll,ll,TRUE,795.3889999999999,19,female
8,ab,5,26,hh,hh,TRUE,792.3910000000001,19,female
8,ab,5,27,hl,hl,TRUE,2373.152,19,female
8,ab,5,28,lh,ll,FALSE,1087.8229999999999,19,female
8,ab,5,29,ll,hl,FALSE,2199.989,19,female
8,ab,5,30,ll,ll,TRUE,1474.156,19,female
8,ab,5,31,hl,lh,FALSE,2682.385,19,female
8,ab,5,32,ll,ll,TRUE,2736.232,19,female
8,ab,5,33,lh,ll,FALSE,2035.4470000000001,19,female
8,ab,5,34,hl,hh,FALSE,5036.461,19,female
8,ab,5,35,hl,hh,FALSE,1304.002,19,female
8,ab,5,36,hh,hh,TRUE,878.9760000000001,19,female
8,ab,5,37,ll,hh,FALSE,863.722,19,female
8,ab,5,38,ll,ll,TRUE,1697.7649999999999,19,female
8,ab,5,39,hl,hh,FALSE,1024.895,19,female
8,ab,5,40,hh,hh,TRUE,851.8699999999999,19,female
8,ab,5,41,hl,hh,FALSE,3758.2309999999998,19,female
8,ab,5,42,hl,hh,FALSE,814.3530000000001,19,female
8,ab,5,43,lh,hl,FALSE,2289.86,19,female
8,ab,5,44,hl,hl,TRUE,1175.8290000000002,19,female
8,ab,5,45,hh,hh,TRUE,940.713,19,female
8,ab,5,46,ll,ll,TRUE,811.2929999999999,19,female
8,ab,5,47,hh,hh,TRUE,1647.5549999999998,19,female
8,ab,5,48,ll,ll,TRUE,896.6980000000001,19,female
8,ab,5,49,hh,hh,TRUE,1641.3960000000002,19,female
8,ab,5,50,lh,hl,FALSE,4938.774,19,female
8,ab,5,51,hl,hh,FALSE,1811.076,19,female
8,ab,5,52,lh,hl,FALSE,2812.521,19,female
8,ab,5,53,hl,hl,TRUE,1420.5810000000001,19,female
8,ab,5,54,hh,hh,TRUE,1951.0790000000002,19,female
8,ab,5,55,hl,hh,FALSE,1467.647,19,female
8,ab,5,56,hl,hh,FALSE,908.45,19,female
8,ab,5,57,hl,hh,FALSE,1351.5439999999999,19,female
8,ab,5,58,lh,hl,FALSE,2593.616,19,female
8,ab,5,59,lh,hl,FALSE,1282.524,19,female
8,ab,5,60,hl,hh,FALSE,1395.1529999999998,19,female
8,ab,5,61,hl,hh,FALSE,1447.623,19,female
8,ab,5,62,hl,hl,TRUE,1344.3670000000002,19,female
8,ab,5,63,hh,hh,TRUE,1525.9699999999998,19,female
8,ab,5,64,hh,hh,TRUE,828.2629999999999,19,female
8,ab,5,65,hl,hl,TRUE,3167.6049999999996,19,female
8,ab,5,66,hh,hh,TRUE,825.2360000000001,19,female
8,ab,5,67,hh,hh,TRUE,948.6800000000001,19,female
8,ab,5,68,hl,hl,TRUE,1859.5140000000001,19,female
8,ab,5,69,hh,hh,TRUE,819.441,19,female
8,ab,5,70,hh,hh,TRUE,862.8199999999999,19,female
8,ab,5,71,hl,hh,FALSE,816.914,19,female
8,ab,5,72,lh,ll,FALSE,2020.4789999999998,19,female
8,ab,5,73,hl,hh,FALSE,861.729,19,female
8,ab,5,74,lh,ll,FALSE,2303.99,19,female
8,ab,5,75,ll,ll,TRUE,803.9079999999999,19,female
8,ab,5,76,lh,hl,FALSE,2777.138,19,female
8,ab,5,77,lh,lh,TRUE,3170.8010000000004,19,female
8,ab,5,78,hl,lh,FALSE,3333.7659999999996,19,female
8,ab,5,79,ll,ll,TRUE,879.7560000000001,19,female
8,ab,5,80,hh,hh,TRUE,3296.2920000000004,19,female
8,ab,5,81,ll,ll,TRUE,1004.518,19,female
8,ab,5,82,hl,hh,FALSE,1481.098,19,female
8,ab,5,83,ll,ll,TRUE,760.624,19,female
8,ab,5,84,ll,hl,FALSE,12942.064,19,female
8,ab,5,85,lh,lh,TRUE,4749.973,19,female
8,ab,5,86,hh,hh,TRUE,1005.1289999999999,19,female
8,ab,5,87,hl,hh,FALSE,1616.8449999999998,19,female
8,ab,5,88,hh,hh,TRUE,795.578,19,female
8,ab,5,89,hh,hh,TRUE,824.4269999999999,19,female
8,ab,5,90,ll,ll,TRUE,1316.101,19,female
8,ab,5,91,lh,hl,FALSE,1674.4050000000002,19,female
8,ab,5,92,ll,ll,TRUE,770.2249999999999,19,female
8,ab,5,93,hh,hh,TRUE,927.7360000000001,19,female
8,ab,5,94,hl,hl,TRUE,999.1959999999999,19,female
8,ab,5,95,hh,hh,TRUE,947.6030000000001,19,female
8,ab,5,96,lh,hh,FALSE,873.502,19,female
8,ab,5,97,hh,hh,TRUE,1171.025,19,female
8,ab,5,98,ll,ll,TRUE,847.662,19,female
8,ab,5,99,hl,hl,TRUE,1018.6669999999999,19,female
8,ab,5,100,,,FALSE,14797.39,19,female
8,ab,5,101,hh,hh,TRUE,1184.353,19,female
8,ab,5,102,ll,ll,TRUE,1659.286,19,female
8,ab,5,103,hl,hl,TRUE,4305.461,19,female
8,ab,5,104,hh,hh,TRUE,2163.508,19,female
8,ab,5,105,ll,lh,FALSE,3694.7889999999998,19,female
8,ab,5,106,ll,ll,TRUE,4146.703,19,female
8,ab,5,107,hl,hl,TRUE,5403.123,19,female
8,ab,5,108,ll,ll,TRUE,1238.136,19,female
8,ab,5,109,ll,ll,TRUE,1536.4740000000002,19,female
8,ab,5,110,hl,lh,FALSE,3757.6760000000004,19,female
8,ab,5,111,hl,hl,TRUE,3390.438,19,female
8,ab,5,112,lh,ll,FALSE,1734.379,19,female
8,ab,5,113,hl,hh,FALSE,1012.1179999999999,19,female
8,ab,5,114,hh,hh,TRUE,1103.297,19,female
8,ab,5,115,lh,ll,FALSE,1103.6239999999998,19,female
8,ab,5,116,hh,hh,TRUE,930.8409999999999,19,female
8,ab,5,117,ll,hl,FALSE,6190.503,19,female
8,ab,5,118,hh,hh,TRUE,2476.615,19,female
8,ab,5,119,hh,hh,TRUE,1955.929,19,female
8,ab,5,120,lh,hh,FALSE,1075.745,19,female
