pID,condition,block_no,trial_no,stimulus,response,correct,rt,age,gender
22,ab,1,1,hl,hh,FALSE,1233.174,19,male
22,ab,1,2,hh,hl,FALSE,878.6179999999999,19,male
22,ab,1,3,lh,ll,FALSE,955.1800000000001,19,male
22,ab,1,4,ll,lh,FALSE,1155.9899999999998,19,male
22,ab,1,5,lh,hh,FALSE,902.288,19,male
22,ab,1,6,ll,hl,FALSE,688.4559999999999,19,male
22,ab,1,7,lh,hl,FALSE,1029.077,19,male
22,ab,1,8,hl,ll,FALSE,516.489,19,male
22,ab,1,9,hl,hl,TRUE,501.683,19,male
22,ab,1,10,lh,hh,FALSE,554.797,19,male
22,ab,1,11,hh,lh,FALSE,626.566,19,male
22,ab,1,12,lh,hl,FALSE,562.154,19,male
22,ab,1,13,lh,hh,FALSE,618.3309999999999,19,male
22,ab,1,14,lh,hh,FALSE,841.8140000000001,19,male
22,ab,1,15,hh,ll,FALSE,600.047,19,male
22,ab,1,16,hl,hh,FALSE,518.48,19,male
22,ab,1,17,hl,ll,FALSE,457.0630000000001,19,male
22,ab,1,18,lh,ll,FALSE,846.905,19,male
22,ab,1,19,ll,hh,FALSE,620.538,19,male
22,ab,1,20,hh,hh,TRUE,765.049,19,male
22,ab,1,21,lh,hl,FALSE,405.67599999999993,19,male
22,ab,1,22,lh,hh,FALSE,1156.1219999999998,19,male
22,ab,1,23,,,FALSE,14799.9,19,male
22,ab,1,24,lh,hh,FALSE,1549.578,19,male
22,ab,1,25,ll,hh,FALSE,1071.694,19,male
22,ab,1,26,hl,hl,TRUE,764.2850000000001,19,male
22,ab,1,27,hl,hh,FALSE,668.2349999999999,19,male
22,ab,1,28,lh,ll,FALSE,768.549,19,male
22,ab,1,29,ll,lh,FALSE,744.752,19,male
22,ab,1,30,hl,lh,FALSE,708.431,19,male
22,ab,1,31,lh,ll,FALSE,2709.757,19,male
22,ab,1,32,hl,hh,FALSE,577.6030000000001,19,male
22,ab,1,33,lh,hl,FALSE,610.2139999999999,19,male
22,ab,1,34,hl,hh,FALSE,576.721,19,male
22,ab,1,35,hl,hh,FALSE,609.7539999999999,19,male
22,ab,1,36,hh,hh,TRUE,1318.9899999999998,19,male
22,ab,1,37,lh,hh,FALSE,275.328,19,male
22,ab,1,38,hl,hh,FALSE,943.4390000000001,19,male
22,ab,1,39,ll,ll,TRUE,354.2049999999999,19,male
22,ab,1,40,hl,hh,FALSE,882.287,19,male
22,ab,1,41,hl,hl,TRUE,1982.2730000000001,19,male
22,ab,1,42,hh,ll,FALSE,1935.4430000000002,19,male
22,ab,1,43,hl,ll,FALSE,1041.523,19,male
22,ab,1,44,ll,hl,FALSE,1247.6840000000002,19,male
22,ab,1,45,ll,hl,FALSE,1234.8139999999999,19,male
22,ab,1,46,lh,ll,FALSE,1083.0410000000002,19,male
22,ab,1,47,hl,lh,FALSE,639.0260000000001,19,male
22,ab,1,48,ll,ll,TRUE,787.6590000000001,19,male
22,ab,1,49,ll,lh,FALSE,773.123,19,male
22,ab,1,50,hl,ll,FALSE,900.319,19,male
22,ab,1,51,hh,lh,FALSE,1089.234,19,male
22,ab,1,52,hl,ll,FALSE,925.2370000000001,19,male
22,ab,1,53,lh,hh,FALSE,1006.7460000000001,19,male
22,ab,1,54,lh,ll,FALSE,679.252,19,male
22,ab,1,55,ll,hl,FALSE,851.6679999999999,19,male
22,ab,1,56,hl,ll,FALSE,775.549,19,male
22,ab,1,57,lh,ll,FALSE,1304.034,19,male
22,ab,1,58,hh,ll,FALSE,2252.434,19,male
22,ab,1,59,hl,hl,TRUE,3417.6099999999997,19,male
22,ab,1,60,ll,ll,TRUE,984.018,19,male
22,ab,1,61,lh,ll,FALSE,1401.399,19,male
22,ab,1,62,ll,hh,FALSE,8792.705,19,male
22,ab,1,63,ll,ll,TRUE,558.366,19,male
22,ab,1,64,hl,hh,FALSE,514.1220000000001,19,male
22,ab,1,65,ll,hl,FALSE,404.9190000000001,19,male
22,ab,1,66,hl,lh,FALSE,492.76099999999997,19,male
22,ab,1,67,lh,ll,FALSE,511.9380000000001,19,male
22,ab,1,68,ll,hh,FALSE,569.212,19,male
22,ab,1,69,lh,hh,FALSE,473.81500000000005,19,male
22,ab,1,70,hh,ll,FALSE,758.713,19,male
22,ab,1,71,lh,hh,FALSE,336.30899999999997,19,male
22,ab,1,72,lh,hh,FALSE,532.546,19,male
22,ab,1,73,lh,hh,FALSE,830.7370000000001,19,male
22,ab,1,74,hl,hh,FALSE,698.1780000000001,19,male
22,ab,1,75,hl,hh,FALSE,783.238,19,male
22,ab,1,76,hl,ll,FALSE,792.2059999999999,19,male
22,ab,1,77,ll,ll,TRUE,1239.5500000000002,19,male
22,ab,1,78,hh,hl,FALSE,1877.5140000000001,19,male
22,ab,1,79,lh,hl,FALSE,761.873,19,male
22,ab,1,80,lh,hl,FALSE,593.105,19,male
22,ab,1,81,hh,lh,FALSE,730.4929999999999,19,male
22,ab,1,82,ll,lh,FALSE,755.9010000000001,19,male
22,ab,1,83,hh,lh,FALSE,541.3,19,male
22,ab,1,84,ll,hl,FALSE,912.114,19,male
22,ab,1,85,lh,hl,FALSE,450.7370000000001,19,male
22,ab,1,86,hl,hl,TRUE,616.799,19,male
22,ab,1,87,ll,ll,TRUE,645.454,19,male
22,ab,1,88,ll,hh,FALSE,629.685,19,male
22,ab,1,89,hl,ll,FALSE,1380.478,19,male
22,ab,1,90,hl,hh,FALSE,682.019,19,male
22,ab,1,91,hl,ll,FALSE,616.288,19,male
22,ab,1,92,hh,hh,TRUE,646.155,19,male
22,ab,1,93,lh,ll,FALSE,668.662,19,male
22,ab,1,94,hh,hh,TRUE,968.848,19,male
22,ab,1,95,lh,ll,FALSE,850.6189999999999,19,male
22,ab,1,96,ll,ll,TRUE,925.613,19,male
22,ab,1,97,hh,ll,FALSE,393.519,19,male
22,ab,1,98,hl,hh,FALSE,575.912,19,male
22,ab,1,99,hl,hl,TRUE,627.1590000000001,19,male
22,ab,1,100,lh,hl,FALSE,977.1189999999999,19,male
22,ab,1,101,hh,ll,FALSE,913.595,19,male
22,ab,1,102,ll,ll,TRUE,1043.277,19,male
22,ab,1,103,ll,ll,TRUE,970.3810000000001,19,male
22,ab,1,104,hl,lh,FALSE,883.797,19,male
22,ab,1,105,lh,ll,FALSE,1008.0509999999999,19,male
22,ab,1,106,hl,hl,TRUE,1503.775,19,male
22,ab,1,107,lh,hl,FALSE,930.1659999999999,19,male
22,ab,1,108,lh,hl,FALSE,1244.721,19,male
22,ab,1,109,hh,hl,FALSE,1332.469,19,male
22,ab,1,110,hl,hh,FALSE,836.7919999999999,19,male
22,ab,1,111,hl,hh,FALSE,1003.239,19,male
22,ab,1,112,hl,hh,FALSE,1154.4279999999999,19,male
22,ab,1,113,hl,hh,FALSE,634.29,19,male
22,ab,1,114,ll,hl,FALSE,1009.0920000000001,19,male
22,ab,1,115,lh,lh,TRUE,1160.641,19,male
22,ab,1,116,lh,lh,TRUE,1009.6690000000001,19,male
22,ab,1,117,hl,lh,FALSE,1328.8939999999998,19,male
22,ab,1,118,hl,ll,FALSE,987.8420000000001,19,male
22,ab,1,119,ll,ll,TRUE,978.1890000000001,19,male
22,ab,1,120,hl,hh,FALSE,892.252,19,male
22,ab,2,1,hl,ll,FALSE,1120.013,19,male
22,ab,2,2,hl,ll,FALSE,939.4860000000001,19,male
22,ab,2,3,lh,ll,FALSE,805.6980000000001,19,male
22,ab,2,4,ll,hh,FALSE,789.1700000000001,19,male
22,ab,2,5,hl,ll,FALSE,3467.615,19,male
22,ab,2,6,hh,ll,FALSE,801.279,19,male
22,ab,2,7,hl,hl,TRUE,670.308,19,male
22,ab,2,8,hl,hl,TRUE,691.682,19,male
22,ab,2,9,lh,ll,FALSE,479.3030000000001,19,male
22,ab,2,10,lh,lh,TRUE,853.9770000000001,19,male
22,ab,2,11,hl,lh,FALSE,1099.949,19,male
22,ab,2,12,hh,lh,FALSE,828.856,19,male
22,ab,2,13,hh,hh,TRUE,1235.04,19,male
22,ab,2,14,hh,hh,TRUE,771.2139999999999,19,male
22,ab,2,15,lh,ll,FALSE,571.498,19,male
22,ab,2,16,ll,hh,FALSE,618.817,19,male
22,ab,2,17,lh,hl,FALSE,280.92100000000005,19,male
22,ab,2,18,ll,lh,FALSE,1076.5520000000001,19,male
22,ab,2,19,hl,hl,TRUE,4916.111,19,male
22,ab,2,20,ll,hh,FALSE,910.325,19,male
22,ab,2,21,ll,hl,FALSE,1089.7359999999999,19,male
22,ab,2,22,hl,hh,FALSE,1332.158,19,male
22,ab,2,23,ll,hh,FALSE,3719.5209999999997,19,male
22,ab,2,24,ll,hh,FALSE,7705.982,19,male
22,ab,2,25,ll,hl,FALSE,1878.098,19,male
22,ab,2,26,hh,hl,FALSE,5507.057,19,male
22,ab,2,27,ll,hh,FALSE,1470.516,19,male
22,ab,2,28,lh,hh,FALSE,12489.075,19,male
22,ab,2,29,ll,ll,TRUE,6375.384,19,male
22,ab,2,30,ll,hh,FALSE,964.529,19,male
22,ab,2,31,hl,ll,FALSE,607.5840000000001,19,male
22,ab,2,32,hh,hh,TRUE,575.233,19,male
22,ab,2,33,lh,ll,FALSE,343.80600000000004,19,male
22,ab,2,34,hh,hl,FALSE,457.6859999999999,19,male
22,ab,2,35,ll,hh,FALSE,455.2629999999999,19,male
22,ab,2,36,hh,ll,FALSE,484.299,19,male
22,ab,2,37,hl,hh,FALSE,511.97299999999996,19,male
22,ab,2,38,lh,ll,FALSE,868.2339999999999,19,male
22,ab,2,39,hl,hh,FALSE,577.114,19,male
22,ab,2,40,ll,lh,FALSE,449.3589999999999,19,male
22,ab,2,41,ll,hh,FALSE,1020.645,19,male
22,ab,2,42,hh,ll,FALSE,949.306,19,male
22,ab,2,43,hh,hl,FALSE,1286.415,19,male
22,ab,2,44,hl,hl,TRUE,946.825,19,male
22,ab,2,45,hl,hl,TRUE,963.731,19,male
22,ab,2,46,lh,ll,FALSE,1275.8220000000001,19,male
22,ab,2,47,ll,hl,FALSE,1071.6970000000001,19,male
22,ab,2,48,hl,ll,FALSE,949.675,19,male
22,ab,2,49,lh,hh,FALSE,742.421,19,male
22,ab,2,50,hh,ll,FALSE,513.3130000000001,19,male
22,ab,2,51,hl,ll,FALSE,762.3979999999999,19,male
22,ab,2,52,lh,ll,FALSE,613.579,19,male
22,ab,2,53,ll,ll,TRUE,829.1700000000001,19,male
22,ab,2,54,ll,ll,TRUE,517.434,19,male
22,ab,2,55,hl,hh,FALSE,8989.214,19,male
22,ab,2,56,hh,ll,FALSE,527.501,19,male
22,ab,2,57,lh,ll,FALSE,850.3399999999999,19,male
22,ab,2,58,hl,hh,FALSE,886.4159999999999,19,male
22,ab,2,59,hh,hh,TRUE,674.3679999999999,19,male
22,ab,2,60,hl,hh,FALSE,639.6469999999999,19,male
22,ab,2,61,hh,ll,FALSE,653.2650000000001,19,male
22,ab,2,62,hl,hh,FALSE,689.107,19,male
22,ab,2,63,ll,ll,TRUE,782.325,19,male
22,ab,2,64,ll,ll,TRUE,1046.412,19,male
22,ab,2,65,ll,ll,TRUE,9117.879,19,male
22,ab,2,66,lh,ll,FALSE,1568.1909999999998,19,male
22,ab,2,67,hh,ll,FALSE,3911.7349999999997,19,male
22,ab,2,68,hh,hh,TRUE,1484.4479999999999,19,male
22,ab,2,69,hh,hh,TRUE,832.451,19,male
22,ab,2,70,lh,hh,FALSE,758.2739999999999,19,male
22,ab,2,71,hh,hh,TRUE,623.9649999999999,19,male
22,ab,2,72,hl,hl,TRUE,421.43399999999997,19,male
22,ab,2,73,hh,hh,TRUE,643.988,19,male
22,ab,2,74,ll,hl,FALSE,753.9480000000001,19,male
22,ab,2,75,ll,hh,FALSE,603.309,19,male
22,ab,2,76,ll,lh,FALSE,747.085,19,male
22,ab,2,77,lh,ll,FALSE,418.124,19,male
22,ab,2,78,lh,lh,TRUE,434.84799999999996,19,male
22,ab,2,79,ll,lh,FALSE,593.2249999999999,19,male
22,ab,2,80,hh,ll,FALSE,423.2249999999999,19,male
22,ab,2,81,hl,hh,FALSE,478.4380000000001,19,male
22,ab,2,82,hl,hl,TRUE,569.809,19,male
22,ab,2,83,hl,hh,FALSE,716.829,19,male
22,ab,2,84,ll,ll,TRUE,686.733,19,male
22,ab,2,85,hl,hh,FALSE,691.933,19,male
22,ab,2,86,hl,lh,FALSE,624.05,19,male
22,ab,2,87,hh,hl,FALSE,531.6869999999999,19,male
22,ab,2,88,lh,ll,FALSE,863.7919999999999,19,male
22,ab,2,89,hl,ll,FALSE,524.7539999999999,19,male
22,ab,2,90,hh,ll,FALSE,1334.5610000000001,19,male
22,ab,2,91,lh,ll,FALSE,738.02,19,male
22,ab,2,92,hl,hh,FALSE,730.8900000000001,19,male
22,ab,2,93,lh,hh,FALSE,713.837,19,male
22,ab,2,94,hh,hh,TRUE,1164.1779999999999,19,male
22,ab,2,95,hh,hh,TRUE,3095.843,19,male
22,ab,2,96,hh,ll,FALSE,1341.4740000000002,19,male
22,ab,2,97,hh,hh,TRUE,838.3530000000001,19,male
22,ab,2,98,hl,hl,TRUE,931.6489999999999,19,male
22,ab,2,99,hh,hl,FALSE,741.595,19,male
22,ab,2,100,lh,hl,FALSE,712.3820000000001,19,male
22,ab,2,101,hh,hl,FALSE,708.204,19,male
22,ab,2,102,ll,hl,FALSE,607.626,19,male
22,ab,2,103,hh,ll,FALSE,3173.8149999999996,19,male
22,ab,2,104,lh,ll,FALSE,773.2750000000001,19,male
22,ab,2,105,ll,ll,TRUE,815.2280000000001,19,male
22,ab,2,106,hl,ll,FALSE,740.748,19,male
22,ab,2,107,hl,ll,FALSE,583.528,19,male
22,ab,2,108,ll,ll,TRUE,2030.9720000000002,19,male
22,ab,2,109,hh,ll,FALSE,1205.1860000000001,19,male
22,ab,2,110,hh,ll,FALSE,1004.624,19,male
22,ab,2,111,hh,ll,FALSE,1020.1220000000001,19,male
22,ab,2,112,ll,ll,TRUE,386.097,19,male
22,ab,2,113,hh,ll,FALSE,851.3610000000001,19,male
22,ab,2,114,ll,ll,TRUE,405.385,19,male
22,ab,2,115,ll,ll,TRUE,775.866,19,male
22,ab,2,116,lh,ll,FALSE,664.142,19,male
22,ab,2,117,ll,ll,TRUE,531.8140000000001,19,male
22,ab,2,118,hh,ll,FALSE,686.675,19,male
22,ab,2,119,lh,ll,FALSE,482.9390000000001,19,male
22,ab,2,120,hl,ll,FALSE,612.2439999999999,19,male
22,ab,3,1,ll,ll,TRUE,2029.2310000000002,19,male
22,ab,3,2,ll,ll,TRUE,849.0229999999999,19,male
22,ab,3,3,hl,ll,FALSE,279.8989999999999,19,male
22,ab,3,4,ll,hl,FALSE,7997.26,19,male
22,ab,3,5,hh,hl,FALSE,1020.777,19,male
22,ab,3,6,hh,ll,FALSE,1320.3629999999998,19,male
22,ab,3,7,lh,ll,FALSE,957.943,19,male
22,ab,3,8,hl,hl,TRUE,973.3030000000001,19,male
22,ab,3,9,lh,hl,FALSE,830.337,19,male
22,ab,3,10,lh,ll,FALSE,607.3389999999999,19,male
22,ab,3,11,hl,lh,FALSE,1163.741,19,male
22,ab,3,12,hh,lh,FALSE,1640.216,19,male
22,ab,3,13,hl,lh,FALSE,627.1980000000001,19,male
22,ab,3,14,lh,lh,TRUE,868.165,19,male
22,ab,3,15,hl,ll,FALSE,2441.369,19,male
22,ab,3,16,hh,ll,FALSE,814.906,19,male
22,ab,3,17,lh,ll,FALSE,2625.788,19,male
22,ab,3,18,ll,ll,TRUE,828.2260000000001,19,male
22,ab,3,19,hh,ll,FALSE,809.9949999999999,19,male
22,ab,3,20,hl,ll,FALSE,730.829,19,male
22,ab,3,21,hh,ll,FALSE,768.703,19,male
22,ab,3,22,lh,ll,FALSE,1489.3339999999998,19,male
22,ab,3,23,ll,ll,TRUE,1127.804,19,male
22,ab,3,24,hh,ll,FALSE,576.2049999999999,19,male
22,ab,3,25,hh,ll,FALSE,812.252,19,male
22,ab,3,26,hl,hl,TRUE,1170.792,19,male
22,ab,3,27,ll,ll,TRUE,459.9290000000001,19,male
22,ab,3,28,ll,ll,TRUE,488.79099999999994,19,male
22,ab,3,29,lh,ll,FALSE,517.0060000000001,19,male
22,ab,3,30,lh,lh,TRUE,596.9970000000001,19,male
22,ab,3,31,lh,ll,FALSE,751.383,19,male
22,ab,3,32,lh,ll,FALSE,993.058,19,male
22,ab,3,33,lh,ll,FALSE,912.1389999999999,19,male
22,ab,3,34,hh,ll,FALSE,993.4480000000001,19,male
22,ab,3,35,hh,ll,FALSE,532.5340000000001,19,male
22,ab,3,36,ll,ll,TRUE,1237.4940000000001,19,male
22,ab,3,37,lh,hh,FALSE,656.905,19,male
22,ab,3,38,ll,ll,TRUE,558.031,19,male
22,ab,3,39,hl,hl,TRUE,623.9010000000001,19,male
22,ab,3,40,hl,ll,FALSE,497.4849999999999,19,male
22,ab,3,41,ll,hh,FALSE,1321.728,19,male
22,ab,3,42,hh,ll,FALSE,996.586,19,male
22,ab,3,43,ll,ll,TRUE,1071.071,19,male
22,ab,3,44,hl,ll,FALSE,860.585,19,male
22,ab,3,45,ll,ll,TRUE,664.779,19,male
22,ab,3,46,hh,ll,FALSE,869.739,19,male
22,ab,3,47,lh,ll,FALSE,803.1120000000001,19,male
22,ab,3,48,ll,hl,FALSE,1329.284,19,male
22,ab,3,49,ll,ll,TRUE,1409.8919999999998,19,male
22,ab,3,50,hh,ll,FALSE,859.557,19,male
22,ab,3,51,lh,hh,FALSE,898.029,19,male
22,ab,3,52,lh,ll,FALSE,907.932,19,male
22,ab,3,53,lh,ll,FALSE,751.876,19,male
22,ab,3,54,hh,ll,FALSE,985.2460000000001,19,male
22,ab,3,55,hh,hl,FALSE,910.578,19,male
22,ab,3,56,hh,hl,FALSE,996.6600000000001,19,male
22,ab,3,57,hh,ll,FALSE,834.095,19,male
22,ab,3,58,lh,ll,FALSE,840.4559999999999,19,male
22,ab,3,59,hh,ll,FALSE,965.5840000000001,19,male
22,ab,3,60,ll,ll,TRUE,960.6389999999999,19,male
22,ab,3,61,lh,ll,FALSE,745.2940000000001,19,male
22,ab,3,62,lh,ll,FALSE,587.6510000000001,19,male
22,ab,3,63,hh,ll,FALSE,771.44,19,male
22,ab,3,64,ll,hh,FALSE,444.5519999999999,19,male
22,ab,3,65,hh,ll,FALSE,435.02,19,male
22,ab,3,66,lh,hl,FALSE,472.3430000000001,19,male
22,ab,3,67,hl,ll,FALSE,517.174,19,male
22,ab,3,68,hl,hl,TRUE,567.288,19,male
22,ab,3,69,hl,ll,FALSE,557.848,19,male
22,ab,3,70,hl,ll,FALSE,769.6410000000001,19,male
22,ab,3,71,ll,ll,TRUE,450.4960000000001,19,male
22,ab,3,72,hl,ll,FALSE,616.7249999999999,19,male
22,ab,3,73,ll,ll,TRUE,759.069,19,male
22,ab,3,74,hh,ll,FALSE,928.1880000000001,19,male
22,ab,3,75,hl,ll,FALSE,794.643,19,male
22,ab,3,76,hl,ll,FALSE,1568.047,19,male
22,ab,3,77,hl,hh,FALSE,411.981,19,male
22,ab,3,78,hl,hl,TRUE,288.655,19,male
22,ab,3,79,hh,ll,FALSE,492.0930000000001,19,male
22,ab,3,80,hh,ll,FALSE,1296.5880000000002,19,male
22,ab,3,81,hl,hh,FALSE,510.895,19,male
22,ab,3,82,lh,hh,FALSE,866.0039999999999,19,male
22,ab,3,83,lh,ll,FALSE,4879.131,19,male
22,ab,3,84,lh,ll,FALSE,620.0609999999999,19,male
22,ab,3,85,lh,ll,FALSE,433.828,19,male
22,ab,3,86,ll,ll,TRUE,391.77,19,male
22,ab,3,87,hh,hl,FALSE,999.73,19,male
22,ab,3,88,hl,hh,FALSE,516.538,19,male
22,ab,3,89,lh,ll,FALSE,753.79,19,male
22,ab,3,90,lh,ll,FALSE,563.193,19,male
22,ab,3,91,ll,ll,TRUE,1316.6390000000001,19,male
22,ab,3,92,hh,ll,FALSE,879.289,19,male
22,ab,3,93,hh,ll,FALSE,1644.8890000000001,19,male
22,ab,3,94,ll,ll,TRUE,723.2719999999999,19,male
22,ab,3,95,lh,hh,FALSE,492.1569999999999,19,male
22,ab,3,96,hh,ll,FALSE,287.7729999999999,19,male
22,ab,3,97,lh,hl,FALSE,811.893,19,male
22,ab,3,98,hh,hh,TRUE,1031.788,19,male
22,ab,3,99,hh,hh,TRUE,977.501,19,male
22,ab,3,100,hh,ll,FALSE,1193.431,19,male
22,ab,3,101,hh,hl,FALSE,609.549,19,male
22,ab,3,102,lh,hl,FALSE,624.1790000000001,19,male
22,ab,3,103,hl,hl,TRUE,726.29,19,male
22,ab,3,104,hh,hl,FALSE,689.365,19,male
22,ab,3,105,lh,ll,FALSE,668.721,19,male
22,ab,3,106,hh,hl,FALSE,849.816,19,male
22,ab,3,107,ll,ll,TRUE,1268.076,19,male
22,ab,3,108,lh,hl,FALSE,1307.0500000000002,19,male
22,ab,3,109,ll,ll,TRUE,1046.445,19,male
22,ab,3,110,hl,hh,FALSE,2530.031,19,male
22,ab,3,111,hl,hh,FALSE,1463.5140000000001,19,male
22,ab,3,112,hh,hh,TRUE,13737.529,19,male
22,ab,3,113,ll,hl,FALSE,875.98,19,male
22,ab,3,114,hh,hh,TRUE,680.2550000000001,19,male
22,ab,3,115,ll,hl,FALSE,2425.1,19,male
22,ab,3,116,lh,hl,FALSE,4428.004,19,male
22,ab,3,117,hl,lh,FALSE,485.9649999999999,19,male
22,ab,3,118,hh,ll,FALSE,497.64200000000005,19,male
22,ab,3,119,hh,hh,TRUE,721.337,19,male
22,ab,3,120,lh,ll,FALSE,1102.9630000000002,19,male
22,ab,4,1,ll,ll,TRUE,990.463,19,male
22,ab,4,2,hl,hh,FALSE,1309.94,19,male
22,ab,4,3,hh,ll,FALSE,889.646,19,male
22,ab,4,4,lh,hl,FALSE,1722.9209999999998,19,male
22,ab,4,5,ll,ll,TRUE,776.0899999999999,19,male
22,ab,4,6,hh,ll,FALSE,845.9190000000001,19,male
22,ab,4,7,hl,ll,FALSE,734.6400000000001,19,male
22,ab,4,8,hh,ll,FALSE,745.673,19,male
22,ab,4,9,hl,ll,FALSE,835.644,19,male
22,ab,4,10,hl,ll,FALSE,664.8009999999999,19,male
22,ab,4,11,ll,ll,TRUE,901.4639999999999,19,male
22,ab,4,12,lh,ll,FALSE,664.758,19,male
22,ab,4,13,ll,ll,TRUE,494.54099999999994,19,male
22,ab,4,14,hl,ll,FALSE,514.23,19,male
22,ab,4,15,hh,ll,FALSE,451.7170000000001,19,male
22,ab,4,16,hh,hh,TRUE,449.77600000000007,19,male
22,ab,4,17,ll,ll,TRUE,436.24700000000007,19,male
22,ab,4,18,ll,hl,FALSE,498.1769999999999,19,male
22,ab,4,19,ll,ll,TRUE,405.0129999999999,19,male
22,ab,4,20,hh,ll,FALSE,460.8420000000001,19,male
22,ab,4,21,hl,ll,FALSE,429.116,19,male
22,ab,4,22,lh,lh,TRUE,347.4580000000001,19,male
22,ab,4,23,hl,lh,FALSE,604.087,19,male
22,ab,4,24,ll,lh,FALSE,329.1700000000001,19,male
22,ab,4,25,ll,ll,TRUE,399.105,19,male
22,ab,4,26,ll,ll,TRUE,470.481,19,male
22,ab,4,27,ll,hh,FALSE,482.64699999999993,19,male
22,ab,4,28,lh,hl,FALSE,443.365,19,male
22,ab,4,29,hl,ll,FALSE,458.13200000000006,19,male
22,ab,4,30,lh,ll,FALSE,464.047,19,male
22,ab,4,31,ll,hh,FALSE,421.57400000000007,19,male
22,ab,4,32,lh,ll,FALSE,422.51700000000005,19,male
22,ab,4,33,lh,hl,FALSE,444.72399999999993,19,male
22,ab,4,34,hl,lh,FALSE,419.337,19,male
22,ab,4,35,hh,hh,TRUE,457.66599999999994,19,male
22,ab,4,36,ll,ll,TRUE,823.2260000000001,19,male
22,ab,4,37,hh,ll,FALSE,897.9369999999999,19,male
22,ab,4,38,hh,hh,TRUE,815.95,19,male
22,ab,4,39,lh,hl,FALSE,421.0150000000001,19,male
22,ab,4,40,ll,hh,FALSE,451.797,19,male
22,ab,4,41,lh,ll,FALSE,428.25199999999995,19,male
22,ab,4,42,hh,ll,FALSE,440.69399999999996,19,male
22,ab,4,43,hl,ll,FALSE,864.3900000000001,19,male
22,ab,4,44,hl,hh,FALSE,1292.0639999999999,19,male
22,ab,4,45,ll,ll,TRUE,801.5150000000001,19,male
22,ab,4,46,hh,ll,FALSE,673.142,19,male
22,ab,4,47,ll,ll,TRUE,902.0889999999999,19,male
22,ab,4,48,ll,ll,TRUE,776.344,19,male
22,ab,4,49,hl,ll,FALSE,745.894,19,male
22,ab,4,50,hh,hh,TRUE,906.9010000000001,19,male
22,ab,4,51,hl,ll,FALSE,918.364,19,male
22,ab,4,52,lh,ll,FALSE,768.9469999999999,19,male
22,ab,4,53,lh,ll,FALSE,1034.015,19,male
22,ab,4,54,hh,ll,FALSE,727.8789999999999,19,male
22,ab,4,55,hh,ll,FALSE,4463.287,19,male
22,ab,4,56,lh,ll,FALSE,831.4359999999999,19,male
22,ab,4,57,hl,ll,FALSE,748.608,19,male
22,ab,4,58,hl,hh,FALSE,909.7449999999999,19,male
22,ab,4,59,hh,hh,TRUE,730.05,19,male
22,ab,4,60,hh,ll,FALSE,331.9670000000001,19,male
22,ab,4,61,hl,ll,FALSE,709.6389999999999,19,male
22,ab,4,62,hh,hh,TRUE,785.358,19,male
22,ab,4,63,hh,ll,FALSE,725.999,19,male
22,ab,4,64,hl,ll,FALSE,692.031,19,male
22,ab,4,65,lh,ll,FALSE,1055.9409999999998,19,male
22,ab,4,66,hh,ll,FALSE,660.886,19,male
22,ab,4,67,lh,ll,FALSE,674.52,19,male
22,ab,4,68,hh,hh,TRUE,944.923,19,male
22,ab,4,69,ll,hh,FALSE,289.288,19,male
22,ab,4,70,hh,hh,TRUE,1126.1419999999998,19,male
22,ab,4,71,lh,ll,FALSE,944.691,19,male
22,ab,4,72,ll,ll,TRUE,1121.7710000000002,19,male
22,ab,4,73,hl,ll,FALSE,733.3910000000001,19,male
22,ab,4,74,hh,hh,TRUE,1030.379,19,male
22,ab,4,75,ll,hh,FALSE,7012.241,19,male
22,ab,4,76,hl,hl,TRUE,456.89699999999993,19,male
22,ab,4,77,lh,ll,FALSE,425.8430000000001,19,male
22,ab,4,78,ll,ll,TRUE,448.75,19,male
22,ab,4,79,hh,hh,TRUE,1660.8719999999998,19,male
22,ab,4,80,ll,ll,TRUE,1672.328,19,male
22,ab,4,81,ll,ll,TRUE,1037.026,19,male
22,ab,4,82,lh,ll,FALSE,1053.399,19,male
22,ab,4,83,hh,hh,TRUE,961.943,19,male
22,ab,4,84,ll,hh,FALSE,772.1389999999999,19,male
22,ab,4,85,ll,ll,TRUE,905.3720000000001,19,male
22,ab,4,86,hl,hl,TRUE,677.155,19,male
22,ab,4,87,hh,ll,FALSE,489.347,19,male
22,ab,4,88,ll,hh,FALSE,497.0519999999999,19,male
22,ab,4,89,hl,hl,TRUE,219.4749999999999,19,male
22,ab,4,90,lh,ll,FALSE,682.999,19,male
22,ab,4,91,lh,hh,FALSE,502.6569999999999,19,male
22,ab,4,92,ll,ll,TRUE,474.1669999999999,19,male
22,ab,4,93,hh,hl,FALSE,1147.087,19,male
22,ab,4,94,ll,ll,TRUE,1280.777,19,male
22,ab,4,95,hl,ll,FALSE,2227.763,19,male
22,ab,4,96,hh,ll,FALSE,8123.41,19,male
22,ab,4,97,lh,hl,FALSE,397.855,19,male
22,ab,4,98,ll,ll,TRUE,380.30500000000006,19,male
22,ab,4,99,hl,ll,FALSE,763.6759999999999,19,male
22,ab,4,100,hl,ll,FALSE,656.567,19,male
22,ab,4,101,hl,hh,FALSE,525.999,19,male
22,ab,4,102,hl,ll,FALSE,3276.1409999999996,19,male
22,ab,4,103,ll,lh,FALSE,685.0909999999999,19,male
22,ab,4,104,ll,hh,FALSE,950.392,19,male
22,ab,4,105,hh,hl,FALSE,1125.4699999999998,19,male
22,ab,4,106,hh,ll,FALSE,716.644,19,male
22,ab,4,107,ll,ll,TRUE,699.829,19,male
22,ab,4,108,lh,ll,FALSE,947.0889999999999,19,male
22,ab,4,109,hl,ll,FALSE,504.9079999999999,19,male
22,ab,4,110,lh,lh,TRUE,844.9179999999999,19,male
22,ab,4,111,hh,ll,FALSE,561.79,19,male
22,ab,4,112,lh,lh,TRUE,554.7750000000001,19,male
22,ab,4,113,ll,ll,TRUE,576.317,19,male
22,ab,4,114,lh,lh,TRUE,633.758,19,male
22,ab,4,115,hl,hh,FALSE,1354.487,19,male
22,ab,4,116,hh,hl,FALSE,476.895,19,male
22,ab,4,117,hh,hh,TRUE,1825.893,19,male
22,ab,4,118,hl,hh,FALSE,520.5450000000001,19,male
22,ab,4,119,lh,hl,FALSE,342.587,19,male
22,ab,4,120,hl,hl,TRUE,264.317,19,male
22,ab,5,1,lh,ll,FALSE,3284.0249999999996,19,male
22,ab,5,2,lh,ll,FALSE,739.758,19,male
22,ab,5,3,hl,hh,FALSE,945.7339999999999,19,male
22,ab,5,4,ll,ll,TRUE,772.1590000000001,19,male
22,ab,5,5,ll,ll,TRUE,532.973,19,male
22,ab,5,6,ll,hh,FALSE,527.113,19,male
22,ab,5,7,hl,hl,TRUE,477.58400000000006,19,male
22,ab,5,8,lh,ll,FALSE,414.75299999999993,19,male
22,ab,5,9,hl,ll,FALSE,492.711,19,male
22,ab,5,10,hh,hh,TRUE,312.0630000000001,19,male
22,ab,5,11,hh,ll,FALSE,395.28099999999995,19,male
22,ab,5,12,ll,lh,FALSE,395.3689999999999,19,male
22,ab,5,13,ll,ll,TRUE,467.5719999999999,19,male
22,ab,5,14,lh,ll,FALSE,712.356,19,male
22,ab,5,15,hh,lh,FALSE,476.48,19,male
22,ab,5,16,lh,ll,FALSE,633.0699999999999,19,male
22,ab,5,17,hl,lh,FALSE,631.104,19,male
22,ab,5,18,hl,ll,FALSE,1125.7240000000002,19,male
22,ab,5,19,lh,ll,FALSE,1524.025,19,male
22,ab,5,20,hl,hh,FALSE,1005.9010000000001,19,male
22,ab,5,21,ll,ll,TRUE,757.6099999999999,19,male
22,ab,5,22,hh,ll,FALSE,763.383,19,male
22,ab,5,23,hh,hh,TRUE,996.0150000000001,19,male
22,ab,5,24,lh,ll,FALSE,772.0440000000001,19,male
22,ab,5,25,hl,ll,FALSE,820.5329999999999,19,male
22,ab,5,26,hh,hh,TRUE,1186.989,19,male
22,ab,5,27,hl,hl,TRUE,1007.827,19,male
22,ab,5,28,ll,ll,TRUE,882.5319999999999,19,male
22,ab,5,29,lh,ll,FALSE,854.4259999999999,19,male
22,ab,5,30,hl,hh,FALSE,795.1859999999999,19,male
22,ab,5,31,lh,ll,FALSE,743.363,19,male
22,ab,5,32,lh,ll,FALSE,781.2950000000001,19,male
22,ab,5,33,hh,ll,FALSE,657.232,19,male
22,ab,5,34,ll,ll,TRUE,682.914,19,male
22,ab,5,35,hl,ll,FALSE,654.9449999999999,19,male
22,ab,5,36,hh,hh,TRUE,1003.8330000000001,19,male
22,ab,5,37,lh,ll,FALSE,831.914,19,male
22,ab,5,38,hl,ll,FALSE,817.2639999999999,19,male
22,ab,5,39,hh,ll,FALSE,760.4100000000001,19,male
22,ab,5,40,lh,ll,FALSE,729.527,19,male
22,ab,5,41,ll,hh,FALSE,708.5820000000001,19,male
22,ab,5,42,ll,hh,FALSE,694.96,19,male
22,ab,5,43,ll,ll,TRUE,659.56,19,male
22,ab,5,44,hh,hh,TRUE,857.4169999999999,19,male
22,ab,5,45,lh,hh,FALSE,1005.904,19,male
22,ab,5,46,ll,ll,TRUE,661.0730000000001,19,male
22,ab,5,47,hh,ll,FALSE,818.7,19,male
22,ab,5,48,ll,ll,TRUE,829.685,19,male
22,ab,5,49,lh,hh,FALSE,775.2719999999999,19,male
22,ab,5,50,ll,hl,FALSE,993.316,19,male
22,ab,5,51,hl,hh,FALSE,599.742,19,male
22,ab,5,52,hh,lh,FALSE,303.703,19,male
22,ab,5,53,hh,hh,TRUE,643.2650000000001,19,male
22,ab,5,54,ll,hl,FALSE,417.153,19,male
22,ab,5,55,hl,lh,FALSE,1815.011,19,male
22,ab,5,56,hh,hh,TRUE,1221.781,19,male
22,ab,5,57,hh,hl,FALSE,741.9369999999999,19,male
22,ab,5,58,ll,lh,FALSE,1531.857,19,male
22,ab,5,59,hl,hh,FALSE,623.7080000000001,19,male
22,ab,5,60,lh,ll,FALSE,568.309,19,male
22,ab,5,61,lh,ll,FALSE,848.288,19,male
22,ab,5,62,hh,ll,FALSE,1342.3139999999999,19,male
22,ab,5,63,lh,ll,FALSE,1016.3520000000001,19,male
22,ab,5,64,ll,hh,FALSE,854.8140000000001,19,male
22,ab,5,65,hh,hl,FALSE,1003.175,19,male
22,ab,5,66,ll,hl,FALSE,1395.531,19,male
22,ab,5,67,hl,ll,FALSE,811.1410000000001,19,male
22,ab,5,68,ll,hh,FALSE,897.1220000000001,19,male
22,ab,5,69,hl,hh,FALSE,892.1469999999999,19,male
22,ab,5,70,lh,ll,FALSE,800.6959999999999,19,male
22,ab,5,71,ll,hh,FALSE,800.164,19,male
22,ab,5,72,lh,ll,FALSE,1144.7979999999998,19,male
22,ab,5,73,ll,ll,TRUE,798.1980000000001,19,male
22,ab,5,74,ll,hh,FALSE,891.6690000000001,19,male
22,ab,5,75,hh,hl,FALSE,798.2080000000001,19,male
22,ab,5,76,ll,hl,FALSE,1436.408,19,male
22,ab,5,77,ll,hh,FALSE,686.883,19,male
22,ab,5,78,hh,hl,FALSE,766.191,19,male
22,ab,5,79,lh,hh,FALSE,938.306,19,male
22,ab,5,80,lh,ll,FALSE,685.7760000000001,19,male
22,ab,5,81,lh,ll,FALSE,761.549,19,male
22,ab,5,82,ll,hh,FALSE,807.0820000000001,19,male
22,ab,5,83,lh,hh,FALSE,894.0150000000001,19,male
22,ab,5,84,hl,ll,FALSE,841.856,19,male
22,ab,5,85,ll,ll,TRUE,736.49,19,male
22,ab,5,86,hh,ll,FALSE,1037.375,19,male
22,ab,5,87,hl,hh,FALSE,1248.138,19,male
22,ab,5,88,hh,hl,FALSE,1198.132,19,male
22,ab,5,89,lh,hh,FALSE,1836.274,19,male
22,ab,5,90,hh,hh,TRUE,895.1010000000001,19,male
22,ab,5,91,hl,hh,FALSE,1158.6309999999999,19,male
22,ab,5,92,hh,hh,TRUE,832.51,19,male
22,ab,5,93,lh,ll,FALSE,869.3119999999999,19,male
22,ab,5,94,hh,hh,TRUE,993.779,19,male
22,ab,5,95,ll,ll,TRUE,731.3910000000001,19,male
22,ab,5,96,lh,hl,FALSE,844.1890000000001,19,male
22,ab,5,97,ll,ll,TRUE,936.29,19,male
22,ab,5,98,lh,ll,FALSE,1013.52,19,male
22,ab,5,99,hl,ll,FALSE,1811.9,19,male
22,ab,5,100,lh,ll,FALSE,1154.6350000000002,19,male
22,ab,5,101,hl,hh,FALSE,716.0070000000001,19,male
22,ab,5,102,ll,ll,TRUE,954.953,19,male
22,ab,5,103,hh,hl,FALSE,812.6800000000001,19,male
22,ab,5,104,lh,hh,FALSE,776.4300000000001,19,male
22,ab,5,105,ll,ll,TRUE,1038.238,19,male
22,ab,5,106,ll,hh,FALSE,1118.422,19,male
22,ab,5,107,hl,ll,FALSE,1746.009,19,male
22,ab,5,108,hh,hh,TRUE,916.5239999999999,19,male
22,ab,5,109,hh,hh,TRUE,1269.502,19,male
22,ab,5,110,hh,ll,FALSE,803.636,19,male
22,ab,5,111,lh,ll,FALSE,1018.857,19,male
22,ab,5,112,hl,hh,FALSE,1044.192,19,male
22,ab,5,113,lh,hl,FALSE,729.9649999999999,19,male
22,ab,5,114,ll,ll,TRUE,858.809,19,male
22,ab,5,115,ll,ll,TRUE,719.579,19,male
22,ab,5,116,lh,ll,FALSE,1225.8110000000001,19,male
22,ab,5,117,hh,hh,TRUE,920.435,19,male
22,ab,5,118,lh,ll,FALSE,779.067,19,male
22,ab,5,119,ll,ll,TRUE,1247.4340000000002,19,male
22,ab,5,120,hl,ll,FALSE,837.576,19,male
