pID,condition,block_no,trial_no,stimulus,response,correct,rt,age,gender
72,ab,1,1,hl,lh,FALSE,8908.4,31,male
72,ab,1,2,hl,hh,FALSE,1044.5,31,male
72,ab,1,3,lh,hl,FALSE,8758.7,31,male
72,ab,1,4,lh,ll,FALSE,5421.674,31,male
72,ab,1,5,hh,hh,TRUE,1105.3000000000002,31,male
72,ab,1,6,ll,ll,TRUE,1576.1999999999998,31,male
72,ab,1,7,ll,hl,FALSE,4645.7,31,male
72,ab,1,8,hh,hh,TRUE,1020.7,31,male
72,ab,1,9,hl,hl,TRUE,3245,31,male
72,ab,1,10,ll,ll,TRUE,4440,31,male
72,ab,1,11,ll,lh,FALSE,5433.7,31,male
72,ab,1,12,ll,lh,FALSE,2322.7,31,male
72,ab,1,13,hh,hh,TRUE,1752.6999999999998,31,male
72,ab,1,14,hl,hl,TRUE,4321.904,31,male
72,ab,1,15,ll,ll,TRUE,2966.2,31,male
72,ab,1,16,hh,hl,FALSE,5759.3,31,male
72,ab,1,17,ll,ll,TRUE,2074.3,31,male
72,ab,1,18,ll,ll,TRUE,739.8,31,male
72,ab,1,19,hl,lh,FALSE,8149.200000000001,31,male
72,ab,1,20,lh,ll,FALSE,11664.504,31,male
72,ab,1,21,ll,hl,FALSE,6828.9,31,male
72,ab,1,22,hl,hl,TRUE,3898.6000000000004,31,male
72,ab,1,23,ll,ll,TRUE,1665.3000000000002,31,male
72,ab,1,24,hh,hh,TRUE,1141.1999999999998,31,male
72,ab,1,25,hl,hl,TRUE,6451,31,male
72,ab,1,26,lh,hl,FALSE,4022.3,31,male
72,ab,1,27,ll,ll,TRUE,4634.2,31,male
72,ab,1,28,ll,ll,TRUE,1722.828,31,male
72,ab,1,29,ll,ll,TRUE,2066.5,31,male
72,ab,1,30,lh,lh,TRUE,5534.6,31,male
72,ab,1,31,hh,hl,FALSE,4063.6000000000004,31,male
72,ab,1,32,hh,hh,TRUE,1012.5,31,male
72,ab,1,33,lh,ll,FALSE,4247.8,31,male
72,ab,1,34,hl,hh,FALSE,4418.7,31,male
72,ab,1,35,lh,hh,FALSE,3228.8,31,male
72,ab,1,36,ll,ll,TRUE,877.4000000000001,31,male
72,ab,1,37,lh,hh,FALSE,1035,31,male
72,ab,1,38,hh,hl,FALSE,3449.8999999999996,31,male
72,ab,1,39,hh,hh,TRUE,910.5,31,male
72,ab,1,40,lh,lh,TRUE,5599.414,31,male
72,ab,1,41,lh,lh,TRUE,9811.2,31,male
72,ab,1,42,ll,hl,FALSE,5828.6,31,male
72,ab,1,43,hl,lh,FALSE,9074.1,31,male
72,ab,1,44,hh,hh,TRUE,1983,31,male
72,ab,1,45,lh,lh,TRUE,7650.048000000001,31,male
72,ab,1,46,ll,hl,FALSE,3216.8999999999996,31,male
72,ab,1,47,hl,ll,FALSE,4512.6,31,male
72,ab,1,48,lh,ll,FALSE,6751.7,31,male
72,ab,1,49,hh,hh,TRUE,1075.5,31,male
72,ab,1,50,hh,hl,FALSE,8151,31,male
72,ab,1,51,hh,hh,TRUE,4110.3,31,male
72,ab,1,52,hh,hh,TRUE,1123.8000000000002,31,male
72,ab,1,53,hl,hl,TRUE,5286.5,31,male
72,ab,1,54,lh,hl,FALSE,3368.6099999999997,31,male
72,ab,1,55,ll,ll,TRUE,1251.8000000000002,31,male
72,ab,1,56,ll,hl,FALSE,11325.4,31,male
72,ab,1,57,ll,hh,FALSE,1855.1999999999998,31,male
72,ab,1,58,hl,hl,TRUE,4580.4,31,male
72,ab,1,59,hh,hh,TRUE,2068.9,31,male
72,ab,1,60,lh,lh,TRUE,6823.7,31,male
72,ab,1,61,hl,lh,FALSE,4475.17,31,male
72,ab,1,62,ll,lh,FALSE,11615.3,31,male
72,ab,1,63,hl,hl,TRUE,3675.2,31,male
72,ab,1,64,hl,ll,FALSE,1862.42,31,male
72,ab,1,65,hl,hh,FALSE,1830.4,31,male
72,ab,1,66,lh,hl,FALSE,10044.9,31,male
72,ab,1,67,lh,lh,TRUE,5748.6,31,male
72,ab,1,68,hh,hh,TRUE,1591.6999999999998,31,male
72,ab,1,69,lh,hh,FALSE,621.404,31,male
72,ab,1,70,hh,hh,TRUE,1071.1999999999998,31,male
72,ab,1,71,ll,ll,TRUE,1008,31,male
72,ab,1,72,ll,lh,FALSE,4765.1,31,male
72,ab,1,73,hh,hh,TRUE,2825.9,31,male
72,ab,1,74,lh,hh,FALSE,1223.366,31,male
72,ab,1,75,lh,lh,TRUE,4619.382,31,male
72,ab,1,76,hl,hh,FALSE,2189.2,31,male
72,ab,1,77,lh,hh,FALSE,921.1759999999999,31,male
72,ab,1,78,lh,hh,FALSE,890.0640000000001,31,male
72,ab,1,79,ll,ll,TRUE,1530.8000000000002,31,male
72,ab,1,80,hh,lh,FALSE,4532.5,31,male
72,ab,1,81,hh,hh,TRUE,987.9000000000001,31,male
72,ab,1,82,ll,ll,TRUE,770.5,31,male
72,ab,1,83,ll,ll,TRUE,799.5999999999999,31,male
72,ab,1,84,lh,hh,FALSE,1744.1,31,male
72,ab,1,85,lh,ll,FALSE,6904.21,31,male
72,ab,1,86,hh,hl,FALSE,7503.6939999999995,31,male
72,ab,1,87,ll,ll,TRUE,1049,31,male
72,ab,1,88,ll,hl,FALSE,11431.1,31,male
72,ab,1,89,hh,hh,TRUE,1900.5,31,male
72,ab,1,90,hh,hh,TRUE,902.0999999999999,31,male
72,ab,1,91,ll,ll,TRUE,631.4000000000001,31,male
72,ab,1,92,lh,hl,FALSE,7578.6,31,male
72,ab,1,93,hh,hh,TRUE,722.7,31,male
72,ab,1,94,hh,hh,TRUE,1557.1999999999998,31,male
72,ab,1,95,hh,hh,TRUE,1772.1999999999998,31,male
72,ab,1,96,hh,hh,TRUE,770.0999999999999,31,male
72,ab,1,97,hh,hh,TRUE,664,31,male
72,ab,1,98,hl,hh,FALSE,2564.1,31,male
72,ab,1,99,hl,lh,FALSE,5804,31,male
72,ab,1,100,hl,ll,FALSE,1521.1999999999998,31,male
72,ab,1,101,hl,ll,FALSE,721.4000000000001,31,male
72,ab,1,102,hh,hh,TRUE,650.0999999999999,31,male
72,ab,1,103,hh,hl,FALSE,4592.2,31,male
72,ab,1,104,lh,hl,FALSE,2880.428,31,male
72,ab,1,105,hh,hh,TRUE,2783.9,31,male
72,ab,1,106,hl,lh,FALSE,4591.3,31,male
72,ab,1,107,ll,ll,TRUE,1033.1,31,male
72,ab,1,108,lh,lh,TRUE,6833.1,31,male
72,ab,1,109,hl,ll,FALSE,9725.9,31,male
72,ab,1,110,hl,hh,FALSE,702.9000000000001,31,male
72,ab,1,111,ll,hl,FALSE,3968.8,31,male
72,ab,1,112,ll,ll,TRUE,1915.3000000000002,31,male
72,ab,1,113,ll,ll,TRUE,608.5,31,male
72,ab,1,114,hl,ll,FALSE,1094.6,31,male
72,ab,1,115,hh,lh,FALSE,5781.7,31,male
72,ab,1,116,hh,hh,TRUE,2373.6,31,male
72,ab,1,117,hl,ll,FALSE,3464.9080000000004,31,male
72,ab,1,118,ll,lh,FALSE,9122.9,31,male
72,ab,1,119,lh,lh,TRUE,5053.4,31,male
72,ab,1,120,ll,ll,TRUE,1193.6,31,male
72,ab,2,1,hh,hh,TRUE,1397.3000000000002,31,male
72,ab,2,2,ll,ll,TRUE,849.9000000000001,31,male
72,ab,2,3,hh,hh,TRUE,2776.6,31,male
72,ab,2,4,ll,lh,FALSE,6967.5,31,male
72,ab,2,5,hl,hl,TRUE,3572.3,31,male
72,ab,2,6,hh,hh,TRUE,1251.6999999999998,31,male
72,ab,2,7,hh,hh,TRUE,4021.5,31,male
72,ab,2,8,ll,ll,TRUE,864.0999999999999,31,male
72,ab,2,9,hl,lh,FALSE,3909.8,31,male
72,ab,2,10,hl,hl,TRUE,4809.5,31,male
72,ab,2,11,hl,lh,FALSE,3275.6000000000004,31,male
72,ab,2,12,lh,hl,FALSE,7308.737999999999,31,male
72,ab,2,13,hh,hh,TRUE,1536.1999999999998,31,male
72,ab,2,14,hh,hh,TRUE,736.5,31,male
72,ab,2,15,lh,hh,FALSE,2924.8,31,male
72,ab,2,16,hh,hh,TRUE,3381.8999999999996,31,male
72,ab,2,17,hh,hh,TRUE,1145.6999999999998,31,male
72,ab,2,18,ll,hl,FALSE,5547.42,31,male
72,ab,2,19,ll,ll,TRUE,4383.1,31,male
72,ab,2,20,ll,ll,TRUE,1045.8,31,male
72,ab,2,21,hh,hh,TRUE,2359.4,31,male
72,ab,2,22,hh,hh,TRUE,1905.1,31,male
72,ab,2,23,ll,lh,FALSE,4016.8,31,male
72,ab,2,24,hl,hl,TRUE,4566,31,male
72,ab,2,25,hl,lh,FALSE,5650.9,31,male
72,ab,2,26,hh,hh,TRUE,846.7,31,male
72,ab,2,27,hl,hl,TRUE,6939,31,male
72,ab,2,28,hh,hh,TRUE,712.3,31,male
72,ab,2,29,hh,hh,TRUE,958.1279999999999,31,male
72,ab,2,30,ll,lh,FALSE,8357,31,male
72,ab,2,31,hl,hl,TRUE,4056.3,31,male
72,ab,2,32,hh,hh,TRUE,944.9000000000001,31,male
72,ab,2,33,lh,hh,FALSE,4098.244,31,male
72,ab,2,34,lh,lh,TRUE,3906.7,31,male
72,ab,2,35,hh,hh,TRUE,2044,31,male
72,ab,2,36,hl,hl,TRUE,3856.7879999999996,31,male
72,ab,2,37,lh,ll,FALSE,4825.514,31,male
72,ab,2,38,hl,hl,TRUE,5595.1,31,male
72,ab,2,39,lh,hh,FALSE,1817.3000000000002,31,male
72,ab,2,40,hh,hh,TRUE,770,31,male
72,ab,2,41,hh,hh,TRUE,809.0999999999999,31,male
72,ab,2,42,ll,lh,FALSE,5081.3,31,male
72,ab,2,43,ll,ll,TRUE,1488.4,31,male
72,ab,2,44,hh,hh,TRUE,744.3,31,male
72,ab,2,45,lh,lh,TRUE,7088.614,31,male
72,ab,2,46,hh,hh,TRUE,7674.6,31,male
72,ab,2,47,lh,hh,FALSE,5249.8,31,male
72,ab,2,48,hl,lh,FALSE,7081,31,male
72,ab,2,49,hh,hh,TRUE,909.5,31,male
72,ab,2,50,hl,hl,TRUE,5050.468,31,male
72,ab,2,51,hl,hh,FALSE,1681.4,31,male
72,ab,2,52,ll,ll,TRUE,662.5,31,male
72,ab,2,53,hh,hh,TRUE,822.5840000000001,31,male
72,ab,2,54,lh,hh,FALSE,1483.2240000000002,31,male
72,ab,2,55,lh,lh,TRUE,6023.6,31,male
72,ab,2,56,hl,hh,FALSE,4996.588,31,male
72,ab,2,57,hl,hh,FALSE,2534.6,31,male
72,ab,2,58,lh,hh,FALSE,5459.1,31,male
72,ab,2,59,ll,lh,FALSE,4330.968,31,male
72,ab,2,60,hl,lh,FALSE,12708.1,31,male
72,ab,2,61,lh,hh,FALSE,1010.0999999999999,31,male
72,ab,2,62,lh,hh,FALSE,8810.18,31,male
72,ab,2,63,lh,ll,FALSE,4402.4,31,male
72,ab,2,64,lh,lh,TRUE,5460.1,31,male
72,ab,2,65,ll,ll,TRUE,2411.2,31,male
72,ab,2,66,ll,ll,TRUE,936.0999999999999,31,male
72,ab,2,67,ll,ll,TRUE,2159.4,31,male
72,ab,2,68,hl,hl,TRUE,8596.56,31,male
72,ab,2,69,ll,ll,TRUE,801.4000000000001,31,male
72,ab,2,70,hh,hh,TRUE,881.3,31,male
72,ab,2,71,hh,hh,TRUE,578.5,31,male
72,ab,2,72,lh,hh,FALSE,1081.63,31,male
72,ab,2,73,lh,hh,FALSE,1389.5,31,male
72,ab,2,74,hl,hl,TRUE,7016.3,31,male
72,ab,2,75,lh,hl,FALSE,3009.984,31,male
72,ab,2,76,ll,ll,TRUE,2493.516,31,male
72,ab,2,77,hh,hh,TRUE,935.0999999999999,31,male
72,ab,2,78,hl,hh,FALSE,2823.4,31,male
72,ab,2,79,hl,hh,FALSE,2289.4,31,male
72,ab,2,80,ll,ll,TRUE,817,31,male
72,ab,2,81,hh,hh,TRUE,1566.6,31,male
72,ab,2,82,hl,ll,FALSE,5693.7,31,male
72,ab,2,83,ll,ll,TRUE,898.3,31,male
72,ab,2,84,ll,lh,FALSE,7511,31,male
72,ab,2,85,lh,hh,FALSE,681.4000000000001,31,male
72,ab,2,86,hh,hh,TRUE,712.9000000000001,31,male
72,ab,2,87,ll,ll,TRUE,661.8019999999999,31,male
72,ab,2,88,hl,hl,TRUE,3424.2,31,male
72,ab,2,89,ll,ll,TRUE,3033.4,31,male
72,ab,2,90,hl,hl,TRUE,3367.5,31,male
72,ab,2,91,hl,lh,FALSE,3325.8,31,male
72,ab,2,92,hh,hh,TRUE,2452.5,31,male
72,ab,2,93,hh,hh,TRUE,837.3,31,male
72,ab,2,94,lh,hh,FALSE,1358.5,31,male
72,ab,2,95,ll,ll,TRUE,913.9000000000001,31,male
72,ab,2,96,hl,hh,FALSE,1259.9,31,male
72,ab,2,97,lh,hl,FALSE,4670.784,31,male
72,ab,2,98,lh,lh,TRUE,3082.5,31,male
72,ab,2,99,hh,hh,TRUE,613.7,31,male
72,ab,2,100,ll,ll,TRUE,723.3,31,male
72,ab,2,101,hl,hl,TRUE,4146.6,31,male
72,ab,2,102,lh,ll,FALSE,1129.9,31,male
72,ab,2,103,ll,lh,FALSE,4120.2,31,male
72,ab,2,104,lh,hh,FALSE,1822.232,31,male
72,ab,2,105,hl,hh,FALSE,2401.972,31,male
72,ab,2,106,hh,hh,TRUE,821,31,male
72,ab,2,107,hl,hh,FALSE,1763,31,male
72,ab,2,108,ll,ll,TRUE,921,31,male
72,ab,2,109,hl,ll,FALSE,6794.8,31,male
72,ab,2,110,hh,hh,TRUE,2917.8,31,male
72,ab,2,111,ll,lh,FALSE,5109.8,31,male
72,ab,2,112,hh,hh,TRUE,830.2,31,male
72,ab,2,113,ll,lh,FALSE,4653.4,31,male
72,ab,2,114,lh,hl,FALSE,5018.546,31,male
72,ab,2,115,ll,ll,TRUE,717.4000000000001,31,male
72,ab,2,116,ll,lh,FALSE,3695.3999999999996,31,male
72,ab,2,117,lh,ll,FALSE,959.2,31,male
72,ab,2,118,ll,ll,TRUE,1290.6999999999998,31,male
72,ab,2,119,ll,ll,TRUE,5312.4,31,male
72,ab,2,120,hl,hl,TRUE,6379.5,31,male
72,ab,3,1,lh,ll,FALSE,9890.806,31,male
72,ab,3,2,lh,lh,TRUE,2784.6,31,male
72,ab,3,3,lh,ll,FALSE,4665.7,31,male
72,ab,3,4,hl,ll,FALSE,2439.9,31,male
72,ab,3,5,hl,lh,FALSE,8555.3,31,male
72,ab,3,6,ll,hl,FALSE,4512.9,31,male
72,ab,3,7,lh,hh,FALSE,735.9000000000001,31,male
72,ab,3,8,hh,hh,TRUE,785,31,male
72,ab,3,9,hh,lh,FALSE,3316.3,31,male
72,ab,3,10,ll,lh,FALSE,3696.1000000000004,31,male
72,ab,3,11,lh,hl,FALSE,3622,31,male
72,ab,3,12,ll,ll,TRUE,1947,31,male
72,ab,3,13,lh,ll,FALSE,1056.9,31,male
72,ab,3,14,lh,hh,FALSE,8530.582,31,male
72,ab,3,15,hl,hl,TRUE,5062.3,31,male
72,ab,3,16,hl,hh,FALSE,1085.3000000000002,31,male
72,ab,3,17,lh,hh,FALSE,3171.2,31,male
72,ab,3,18,lh,hl,FALSE,3535.1620000000003,31,male
72,ab,3,19,hh,ll,FALSE,7277.200000000001,31,male
72,ab,3,20,ll,ll,TRUE,2353.2,31,male
72,ab,3,21,lh,hh,FALSE,1349.4,31,male
72,ab,3,22,lh,lh,TRUE,5057.3,31,male
72,ab,3,23,hl,hl,TRUE,4897.772,31,male
72,ab,3,24,lh,hh,FALSE,786.5999999999999,31,male
72,ab,3,25,hl,ll,FALSE,1681.9,31,male
72,ab,3,26,ll,ll,TRUE,714.7,31,male
72,ab,3,27,hh,lh,FALSE,2589,31,male
72,ab,3,28,lh,hh,FALSE,282.20000000000005,31,male
72,ab,3,29,lh,hh,FALSE,1474.6999999999998,31,male
72,ab,3,30,lh,ll,FALSE,5439.726,31,male
72,ab,3,31,lh,hl,FALSE,4435.11,31,male
72,ab,3,32,hh,hh,TRUE,870.0999999999999,31,male
72,ab,3,33,lh,hl,FALSE,5860.8,31,male
72,ab,3,34,hl,hh,FALSE,662.9000000000001,31,male
72,ab,3,35,lh,hl,FALSE,7305.018,31,male
72,ab,3,36,ll,hl,FALSE,3776.8,31,male
72,ab,3,37,ll,ll,TRUE,791.3,31,male
72,ab,3,38,hh,hh,TRUE,762,31,male
72,ab,3,39,ll,lh,FALSE,4308.57,31,male
72,ab,3,40,hh,hh,TRUE,710.8140000000001,31,male
72,ab,3,41,hh,hh,TRUE,738.5,31,male
72,ab,3,42,ll,ll,TRUE,902,31,male
72,ab,3,43,ll,ll,TRUE,2083,31,male
72,ab,3,44,hh,hh,TRUE,559.4000000000001,31,male
72,ab,3,45,hh,hh,TRUE,852.5360000000001,31,male
72,ab,3,46,hl,lh,FALSE,4596.4,31,male
72,ab,3,47,ll,ll,TRUE,739.5999999999999,31,male
72,ab,3,48,lh,lh,TRUE,7407.932000000001,31,male
72,ab,3,49,ll,ll,TRUE,820,31,male
72,ab,3,50,hl,hl,TRUE,5063.4,31,male
72,ab,3,51,hl,hh,FALSE,1270.6,31,male
72,ab,3,52,lh,lh,TRUE,2742.308,31,male
72,ab,3,53,hl,hh,FALSE,1451.8000000000002,31,male
72,ab,3,54,ll,lh,FALSE,8052,31,male
72,ab,3,55,hh,hh,TRUE,1616.4,31,male
72,ab,3,56,lh,hh,FALSE,1455.4319999999998,31,male
72,ab,3,57,hh,hh,TRUE,781.0999999999999,31,male
72,ab,3,58,hl,hl,TRUE,3554.1000000000004,31,male
72,ab,3,59,hl,hl,TRUE,1762.4,31,male
72,ab,3,60,hl,hl,TRUE,3255.0640000000003,31,male
72,ab,3,61,ll,ll,TRUE,4037.7,31,male
72,ab,3,62,hl,hl,TRUE,4433.6,31,male
72,ab,3,63,hl,hh,FALSE,1819,31,male
72,ab,3,64,ll,hl,FALSE,4490.9,31,male
72,ab,3,65,lh,hh,FALSE,1481.8519999999999,31,male
72,ab,3,66,lh,hh,FALSE,3611.7,31,male
72,ab,3,67,lh,hh,FALSE,2752.8,31,male
72,ab,3,68,hl,hl,TRUE,8147.700000000001,31,male
72,ab,3,69,ll,ll,TRUE,737,31,male
72,ab,3,70,hl,lh,FALSE,3590.1000000000004,31,male
72,ab,3,71,hl,hh,FALSE,2977.9,31,male
72,ab,3,72,hl,hh,FALSE,2475.714,31,male
72,ab,3,73,hl,lh,FALSE,2890.85,31,male
72,ab,3,74,hh,hh,TRUE,2388.8,31,male
72,ab,3,75,lh,lh,TRUE,3068.698,31,male
72,ab,3,76,ll,ll,TRUE,1370.4,31,male
72,ab,3,77,ll,ll,TRUE,544.0999999999999,31,male
72,ab,3,78,lh,ll,FALSE,1060.424,31,male
72,ab,3,79,ll,lh,FALSE,2699.704,31,male
72,ab,3,80,lh,ll,FALSE,2854.5,31,male
72,ab,3,81,ll,ll,TRUE,827.7,31,male
72,ab,3,82,hl,hh,FALSE,1103.5439999999999,31,male
72,ab,3,83,lh,lh,TRUE,3786.3,31,male
72,ab,3,84,ll,ll,TRUE,1826.1,31,male
72,ab,3,85,lh,hh,FALSE,1212.1640000000002,31,male
72,ab,3,86,lh,ll,FALSE,734.4000000000001,31,male
72,ab,3,87,lh,lh,TRUE,3695.1000000000004,31,male
72,ab,3,88,hl,hh,FALSE,1776,31,male
72,ab,3,89,lh,hh,FALSE,854.4259999999999,31,male
72,ab,3,90,ll,ll,TRUE,716.5,31,male
72,ab,3,91,hh,hh,TRUE,1556.6999999999998,31,male
72,ab,3,92,hl,hh,FALSE,2914.8,31,male
72,ab,3,93,hh,hh,TRUE,746.7,31,male
72,ab,3,94,hh,hh,TRUE,1288.6,31,male
72,ab,3,95,ll,hl,FALSE,5485.9,31,male
72,ab,3,96,hh,hh,TRUE,996.5,31,male
72,ab,3,97,hl,hl,TRUE,5304.3,31,male
72,ab,3,98,lh,hh,FALSE,1457.4940000000001,31,male
72,ab,3,99,ll,ll,TRUE,4121.632,31,male
72,ab,3,100,lh,lh,TRUE,4713.89,31,male
72,ab,3,101,lh,hh,FALSE,2617.2,31,male
72,ab,3,102,hl,hh,FALSE,2581.7,31,male
72,ab,3,103,ll,ll,TRUE,887.4000000000001,31,male
72,ab,3,104,hl,ll,FALSE,1098.3000000000002,31,male
72,ab,3,105,hh,hh,TRUE,1551.1999999999998,31,male
72,ab,3,106,hl,hh,FALSE,3566.3,31,male
72,ab,3,107,lh,hh,FALSE,681.4000000000001,31,male
72,ab,3,108,lh,hh,FALSE,2030.7379999999998,31,male
72,ab,3,109,lh,ll,FALSE,729.9000000000001,31,male
72,ab,3,110,hh,hh,TRUE,767.94,31,male
72,ab,3,111,ll,hh,FALSE,213.0999999999999,31,male
72,ab,3,112,hh,hh,TRUE,782.848,31,male
72,ab,3,113,ll,ll,TRUE,537.5999999999999,31,male
72,ab,3,114,ll,ll,TRUE,842.5999999999999,31,male
72,ab,3,115,lh,lh,TRUE,4290.2,31,male
72,ab,3,116,hh,hh,TRUE,784.9000000000001,31,male
72,ab,3,117,hl,ll,FALSE,1933.6,31,male
72,ab,3,118,hh,lh,FALSE,2987.5,31,male
72,ab,3,119,hl,hh,FALSE,749.8,31,male
72,ab,3,120,hl,ll,FALSE,1240.4,31,male
72,ab,4,1,ll,hl,FALSE,11861.7,31,male
72,ab,4,2,ll,ll,TRUE,3144.5,31,male
72,ab,4,3,lh,hl,FALSE,6964.532,31,male
72,ab,4,4,hl,hh,FALSE,4828.6,31,male
72,ab,4,5,hl,hl,TRUE,4735.7,31,male
72,ab,4,6,hl,hh,FALSE,6989.4,31,male
72,ab,4,7,lh,lh,TRUE,5245.65,31,male
72,ab,4,8,hh,hh,TRUE,1528.1,31,male
72,ab,4,9,ll,ll,TRUE,728.6679999999999,31,male
72,ab,4,10,hh,hh,TRUE,669.0999999999999,31,male
72,ab,4,11,hh,hh,TRUE,642.9000000000001,31,male
72,ab,4,12,ll,ll,TRUE,1470.3000000000002,31,male
72,ab,4,13,ll,ll,TRUE,484.0999999999999,31,male
72,ab,4,14,hh,hh,TRUE,839.3,31,male
72,ab,4,15,lh,ll,FALSE,665.634,31,male
72,ab,4,16,lh,ll,FALSE,788.3,31,male
72,ab,4,17,hl,hl,TRUE,3268.1000000000004,31,male
72,ab,4,18,hl,hl,TRUE,9382.1,31,male
72,ab,4,19,ll,hh,FALSE,4364.4,31,male
72,ab,4,20,ll,ll,TRUE,1343.1,31,male
72,ab,4,21,hl,ll,FALSE,742.96,31,male
72,ab,4,22,hl,hl,TRUE,4301.1,31,male
72,ab,4,23,hl,hl,TRUE,10027.7,31,male
72,ab,4,24,hl,hh,FALSE,1184.6,31,male
72,ab,4,25,hl,hh,FALSE,2402.6,31,male
72,ab,4,26,hh,hh,TRUE,2186.2,31,male
72,ab,4,27,ll,ll,TRUE,2439.8,31,male
72,ab,4,28,lh,ll,FALSE,2207.17,31,male
72,ab,4,29,hl,lh,FALSE,3913,31,male
72,ab,4,30,lh,ll,FALSE,1104.6999999999998,31,male
72,ab,4,31,hl,hh,FALSE,2494.7,31,male
72,ab,4,32,hl,ll,FALSE,3556.5559999999996,31,male
72,ab,4,33,hl,hl,TRUE,3284.174,31,male
72,ab,4,34,lh,hl,FALSE,2859,31,male
72,ab,4,35,lh,hl,FALSE,2323.976,31,male
72,ab,4,36,ll,ll,TRUE,4867.5,31,male
72,ab,4,37,hh,hh,TRUE,646.5999999999999,31,male
72,ab,4,38,ll,ll,TRUE,1252.0680000000002,31,male
72,ab,4,39,ll,ll,TRUE,897.5,31,male
72,ab,4,40,ll,ll,TRUE,784.3,31,male
72,ab,4,41,hl,lh,FALSE,2753.4,31,male
72,ab,4,42,hh,hh,TRUE,994,31,male
72,ab,4,43,ll,ll,TRUE,1251.4,31,male
72,ab,4,44,hl,hl,TRUE,2907.4,31,male
72,ab,4,45,ll,ll,TRUE,5362.9,31,male
72,ab,4,46,hl,hl,TRUE,4638.4,31,male
72,ab,4,47,lh,ll,FALSE,4692.348,31,male
72,ab,4,48,hh,hh,TRUE,4714.8,31,male
72,ab,4,49,hl,lh,FALSE,6611.5,31,male
72,ab,4,50,hh,ll,FALSE,3376,31,male
72,ab,4,51,hl,lh,FALSE,4903.348,31,male
72,ab,4,52,hl,hh,FALSE,3169.8459999999995,31,male
72,ab,4,53,hh,hh,TRUE,911.5,31,male
72,ab,4,54,hh,hh,TRUE,2201.11,31,male
72,ab,4,55,hl,hh,FALSE,5515.7,31,male
72,ab,4,56,hh,hh,TRUE,692.7,31,male
72,ab,4,57,hh,hh,TRUE,1547.1,31,male
72,ab,4,58,ll,lh,FALSE,2859.3,31,male
72,ab,4,59,lh,lh,TRUE,2200.888,31,male
72,ab,4,60,hl,hl,TRUE,2842.4,31,male
72,ab,4,61,hh,hl,FALSE,4148.704,31,male
72,ab,4,62,hl,ll,FALSE,884.9000000000001,31,male
72,ab,4,63,lh,lh,TRUE,7042.2,31,male
72,ab,4,64,hl,ll,FALSE,711,31,male
72,ab,4,65,ll,lh,FALSE,7827.1,31,male
72,ab,4,66,lh,hh,FALSE,5631.9,31,male
72,ab,4,67,ll,hl,FALSE,5917.6,31,male
72,ab,4,68,hh,lh,FALSE,5963.5,31,male
72,ab,4,69,ll,ll,TRUE,884.8,31,male
72,ab,4,70,hh,hh,TRUE,2464.6,31,male
72,ab,4,71,hl,hh,FALSE,1457.1,31,male
72,ab,4,72,hl,lh,FALSE,6119.4,31,male
72,ab,4,73,hl,hl,TRUE,4922.3,31,male
72,ab,4,74,ll,ll,TRUE,3451.6000000000004,31,male
72,ab,4,75,hh,hh,TRUE,3539,31,male
72,ab,4,76,hh,lh,FALSE,3470.3,31,male
72,ab,4,77,hh,hh,TRUE,1211.8000000000002,31,male
72,ab,4,78,ll,lh,FALSE,8618.684,31,male
72,ab,4,79,ll,hl,FALSE,4619.2,31,male
72,ab,4,80,hl,ll,FALSE,4256.8,31,male
72,ab,4,81,hh,hh,TRUE,3227.8999999999996,31,male
72,ab,4,82,lh,ll,FALSE,2906.336,31,male
72,ab,4,83,hl,ll,FALSE,2539.26,31,male
72,ab,4,84,hh,hh,TRUE,2154.6,31,male
72,ab,4,85,hl,hh,FALSE,4899.5,31,male
72,ab,4,86,lh,hh,FALSE,3628.5,31,male
72,ab,4,87,hl,hl,TRUE,4183.4,31,male
72,ab,4,88,ll,ll,TRUE,756.9000000000001,31,male
72,ab,4,89,ll,ll,TRUE,906.8,31,male
72,ab,4,90,hh,hh,TRUE,748.2,31,male
72,ab,4,91,hh,hh,TRUE,1996.5,31,male
72,ab,4,92,ll,ll,TRUE,1541.6,31,male
72,ab,4,93,hl,hh,FALSE,981.4079999999999,31,male
72,ab,4,94,lh,hl,FALSE,8856.3,31,male
72,ab,4,95,hh,hh,TRUE,1321.1999999999998,31,male
72,ab,4,96,hh,hh,TRUE,2821.8,31,male
72,ab,4,97,hh,hh,TRUE,1330.6999999999998,31,male
72,ab,4,98,hl,lh,FALSE,3709.5,31,male
72,ab,4,99,lh,ll,FALSE,6722.57,31,male
72,ab,4,100,ll,ll,TRUE,881.5319999999999,31,male
72,ab,4,101,ll,ll,TRUE,2272.1,31,male
72,ab,4,102,lh,hl,FALSE,3475.3239999999996,31,male
72,ab,4,103,lh,ll,FALSE,914.8699999999999,31,male
72,ab,4,104,lh,hh,FALSE,2826,31,male
72,ab,4,105,lh,ll,FALSE,2631.21,31,male
72,ab,4,106,ll,ll,TRUE,1612,31,male
72,ab,4,107,ll,ll,TRUE,595.704,31,male
72,ab,4,108,hh,hl,FALSE,9185.5,31,male
72,ab,4,109,ll,ll,TRUE,1721.6999999999998,31,male
72,ab,4,110,ll,hl,FALSE,4912.1,31,male
72,ab,4,111,lh,lh,TRUE,4309.5,31,male
72,ab,4,112,ll,hl,FALSE,4192.384,31,male
72,ab,4,113,hh,hh,TRUE,1638.0880000000002,31,male
72,ab,4,114,lh,hh,FALSE,1615.6999999999998,31,male
72,ab,4,115,hl,hh,FALSE,6817.2,31,male
72,ab,4,116,lh,hh,FALSE,1245.8519999999999,31,male
72,ab,4,117,lh,lh,TRUE,4329.47,31,male
72,ab,4,118,hh,hh,TRUE,683.5,31,male
72,ab,4,119,lh,hh,FALSE,1238.1999999999998,31,male
72,ab,4,120,hh,hh,TRUE,976.3,31,male
72,ab,5,1,ll,ll,TRUE,2722.5,31,male
72,ab,5,2,hl,hh,FALSE,1470.9,31,male
72,ab,5,3,lh,lh,TRUE,5359.2,31,male
72,ab,5,4,hh,hh,TRUE,2626.9,31,male
72,ab,5,5,hl,lh,FALSE,3353.8,31,male
72,ab,5,6,lh,lh,TRUE,2958.3,31,male
72,ab,5,7,ll,ll,TRUE,834.2,31,male
72,ab,5,8,hh,hh,TRUE,4367.2,31,male
72,ab,5,9,hl,hl,TRUE,3478.2,31,male
72,ab,5,10,hh,hh,TRUE,824.0999999999999,31,male
72,ab,5,11,lh,lh,TRUE,10042.902,31,male
72,ab,5,12,hl,hh,FALSE,3077.6,31,male
72,ab,5,13,lh,lh,TRUE,5285.23,31,male
72,ab,5,14,hh,hh,TRUE,1993.3000000000002,31,male
72,ab,5,15,hl,ll,FALSE,5523.886,31,male
72,ab,5,16,hl,ll,FALSE,2494.2,31,male
72,ab,5,17,hh,hh,TRUE,1206.3000000000002,31,male
72,ab,5,18,hh,hl,FALSE,10045.1,31,male
72,ab,5,19,hh,hh,TRUE,1099.9,31,male
72,ab,5,20,ll,ll,TRUE,2985.3,31,male
72,ab,5,21,ll,ll,TRUE,820.9000000000001,31,male
72,ab,5,22,lh,lh,TRUE,3081.6,31,male
72,ab,5,23,lh,lh,TRUE,6000.7,31,male
72,ab,5,24,lh,lh,TRUE,3375.112,31,male
72,ab,5,25,ll,ll,TRUE,851.3900000000001,31,male
72,ab,5,26,lh,ll,FALSE,2944.2,31,male
72,ab,5,27,ll,ll,TRUE,6043.908,31,male
72,ab,5,28,lh,lh,TRUE,5474.1,31,male
72,ab,5,29,hh,hh,TRUE,1159.6,31,male
72,ab,5,30,hh,hh,TRUE,1615.5,31,male
72,ab,5,31,hl,ll,FALSE,10243.1,31,male
72,ab,5,32,ll,ll,TRUE,690.2,31,male
72,ab,5,33,lh,lh,TRUE,2797.334,31,male
72,ab,5,34,hh,hh,TRUE,1021.3,31,male
72,ab,5,35,ll,hl,FALSE,4053,31,male
72,ab,5,36,hl,hh,FALSE,2312.6,31,male
72,ab,5,37,lh,hl,FALSE,4572.8,31,male
72,ab,5,38,lh,hh,FALSE,4675.56,31,male
72,ab,5,39,lh,hl,FALSE,10790.9,31,male
72,ab,5,40,hl,hl,TRUE,4676.5,31,male
72,ab,5,41,hh,hh,TRUE,1448.4,31,male
72,ab,5,42,hh,hh,TRUE,1049.5,31,male
72,ab,5,43,hh,hh,TRUE,830.3,31,male
72,ab,5,44,ll,ll,TRUE,750.2,31,male
72,ab,5,45,lh,lh,TRUE,3673.3,31,male
72,ab,5,46,ll,ll,TRUE,792.5999999999999,31,male
72,ab,5,47,ll,ll,TRUE,792.0999999999999,31,male
72,ab,5,48,hl,hh,FALSE,1818.4,31,male
72,ab,5,49,hl,hh,FALSE,2324.7,31,male
72,ab,5,50,ll,hl,FALSE,3946.6000000000004,31,male
72,ab,5,51,lh,hl,FALSE,3775.3999999999996,31,male
72,ab,5,52,lh,hh,FALSE,1022.124,31,male
72,ab,5,53,hh,hh,TRUE,610.7,31,male
72,ab,5,54,lh,hh,FALSE,3369.398,31,male
72,ab,5,55,hl,hh,FALSE,1181.1,31,male
72,ab,5,56,ll,ll,TRUE,644,31,male
72,ab,5,57,ll,ll,TRUE,678,31,male
72,ab,5,58,hl,hl,TRUE,6693.8,31,male
72,ab,5,59,hl,ll,FALSE,1288.1999999999998,31,male
72,ab,5,60,ll,ll,TRUE,604.5999999999999,31,male
72,ab,5,61,lh,ll,FALSE,853.6980000000001,31,male
72,ab,5,62,ll,ll,TRUE,654.8,31,male
72,ab,5,63,hl,ll,FALSE,1455.6999999999998,31,male
72,ab,5,64,lh,ll,FALSE,5370.9,31,male
72,ab,5,65,hh,hh,TRUE,840,31,male
72,ab,5,66,hl,hl,TRUE,9355.6,31,male
72,ab,5,67,hh,hh,TRUE,786.7819999999999,31,male
72,ab,5,68,hl,lh,FALSE,5247.3,31,male
72,ab,5,69,ll,ll,TRUE,1109.5,31,male
72,ab,5,70,lh,hh,FALSE,662.7739999999999,31,male
72,ab,5,71,hh,hh,TRUE,660.0360000000001,31,male
72,ab,5,72,ll,ll,TRUE,995.136,31,male
72,ab,5,73,hh,hh,TRUE,2180.1,31,male
72,ab,5,74,ll,lh,FALSE,3735.2,31,male
72,ab,5,75,lh,hl,FALSE,4007.5,31,male
72,ab,5,76,hl,hl,TRUE,3221.6000000000004,31,male
72,ab,5,77,hl,ll,FALSE,3620.8999999999996,31,male
72,ab,5,78,hl,hh,FALSE,3404.2,31,male
72,ab,5,79,hh,hh,TRUE,771.8,31,male
72,ab,5,80,lh,ll,FALSE,3271.898,31,male
72,ab,5,81,hh,hh,TRUE,2315.6,31,male
72,ab,5,82,lh,hh,FALSE,1354.6999999999998,31,male
72,ab,5,83,hl,hh,FALSE,1234.5,31,male
72,ab,5,84,hh,hh,TRUE,622.8,31,male
72,ab,5,85,ll,ll,TRUE,790.3,31,male
72,ab,5,86,hh,hh,TRUE,662,31,male
72,ab,5,87,hl,hh,FALSE,1240.866,31,male
72,ab,5,88,hh,hh,TRUE,2917.78,31,male
72,ab,5,89,lh,hl,FALSE,3165,31,male
72,ab,5,90,hh,hh,TRUE,886,31,male
72,ab,5,91,ll,ll,TRUE,598.5999999999999,31,male
72,ab,5,92,hh,hh,TRUE,5048.3,31,male
72,ab,5,93,hh,hh,TRUE,618.4000000000001,31,male
72,ab,5,94,hl,lh,FALSE,8412.8,31,male
72,ab,5,95,lh,lh,TRUE,3585,31,male
72,ab,5,96,ll,hl,FALSE,5166,31,male
72,ab,5,97,lh,hl,FALSE,3850,31,male
72,ab,5,98,hh,hh,TRUE,1377.5,31,male
72,ab,5,99,hh,hl,FALSE,7401.6,31,male
72,ab,5,100,lh,lh,TRUE,2637.866,31,male
72,ab,5,101,ll,ll,TRUE,1406,31,male
72,ab,5,102,lh,ll,FALSE,1025.596,31,male
72,ab,5,103,hh,hh,TRUE,1101.6,31,male
72,ab,5,104,ll,ll,TRUE,790.7,31,male
72,ab,5,105,hh,hh,TRUE,2487,31,male
72,ab,5,106,hh,hh,TRUE,1030,31,male
72,ab,5,107,ll,ll,TRUE,2559.7,31,male
72,ab,5,108,hl,lh,FALSE,6005.77,31,male
72,ab,5,109,lh,ll,FALSE,2890.19,31,male
72,ab,5,110,lh,hh,FALSE,1601.67,31,male
72,ab,5,111,lh,ll,FALSE,4272.8,31,male
72,ab,5,112,hl,ll,FALSE,4549.6,31,male
72,ab,5,113,hl,ll,FALSE,5833,31,male
72,ab,5,114,hl,lh,FALSE,12745.9,31,male
72,ab,5,115,lh,hh,FALSE,1180.5,31,male
72,ab,5,116,hl,hh,FALSE,2212.2,31,male
72,ab,5,117,hh,hh,TRUE,2415.7,31,male
72,ab,5,118,hh,hh,TRUE,1018.4000000000001,31,male
72,ab,5,119,lh,ll,FALSE,705.8,31,male
72,ab,5,120,hl,ll,FALSE,1957.6999999999998,31,male
