pID,condition,block_no,trial_no,stimulus,response,correct,rt,age,gender
29,bc,1,1,ll,ll,TRUE,8495.206,20,male
29,bc,1,2,ll,lh,FALSE,3518.428,20,male
29,bc,1,3,hl,hh,FALSE,2297.608,20,male
29,bc,1,4,hh,hh,TRUE,1647.301,20,male
29,bc,1,5,hh,hl,FALSE,6000.73,20,male
29,bc,1,6,lh,ll,FALSE,1564.125,20,male
29,bc,1,7,hh,hh,TRUE,1288.8629999999998,20,male
29,bc,1,8,hl,hh,FALSE,1521.4569999999999,20,male
29,bc,1,9,hl,hl,TRUE,5944.566,20,male
29,bc,1,10,hh,hh,TRUE,1861.9189999999999,20,male
29,bc,1,11,hl,hh,FALSE,925.931,20,male
29,bc,1,12,hl,hh,FALSE,5934.436,20,male
29,bc,1,13,hl,hh,FALSE,1625.962,20,male
29,bc,1,14,ll,ll,TRUE,1645.4720000000002,20,male
29,bc,1,15,hh,lh,FALSE,2645.766,20,male
29,bc,1,16,lh,hh,FALSE,4502.439,20,male
29,bc,1,17,hl,hl,TRUE,5287.578,20,male
29,bc,1,18,hh,lh,FALSE,4615.555,20,male
29,bc,1,19,hh,hh,TRUE,1787.5990000000002,20,male
29,bc,1,20,ll,ll,TRUE,3112.2749999999996,20,male
29,bc,1,21,hh,ll,FALSE,4586.364,20,male
29,bc,1,22,hh,hh,TRUE,3562.3239999999996,20,male
29,bc,1,23,hh,ll,FALSE,1651.489,20,male
29,bc,1,24,hh,ll,FALSE,2084.755,20,male
29,bc,1,25,hl,ll,FALSE,3196.0950000000003,20,male
29,bc,1,26,lh,ll,FALSE,1714.8850000000002,20,male
29,bc,1,27,lh,ll,FALSE,3587.4049999999997,20,male
29,bc,1,28,hh,hh,TRUE,1539.3829999999998,20,male
29,bc,1,29,lh,ll,FALSE,1688.7710000000002,20,male
29,bc,1,30,hh,ll,FALSE,2481.883,20,male
29,bc,1,31,lh,ll,FALSE,2255.695,20,male
29,bc,1,32,hh,hh,TRUE,1478.8090000000002,20,male
29,bc,1,33,hl,hh,FALSE,1591.6399999999999,20,male
29,bc,1,34,hh,hh,TRUE,3179.0159999999996,20,male
29,bc,1,35,hh,hh,TRUE,1283.351,20,male
29,bc,1,36,hh,hh,TRUE,2156.411,20,male
29,bc,1,37,lh,lh,TRUE,3713.3450000000003,20,male
29,bc,1,38,hh,hh,TRUE,3451.746,20,male
29,bc,1,39,hl,hh,FALSE,2872.193,20,male
29,bc,1,40,ll,lh,FALSE,4254.593,20,male
29,bc,1,41,hh,hl,FALSE,4443.13,20,male
29,bc,1,42,ll,hh,FALSE,4583.454,20,male
29,bc,1,43,lh,ll,FALSE,4293.33,20,male
29,bc,1,44,hh,hh,TRUE,2088.637,20,male
29,bc,1,45,hl,hh,FALSE,959.5989999999999,20,male
29,bc,1,46,ll,ll,TRUE,1821.3899999999999,20,male
29,bc,1,47,hh,hh,TRUE,2159.386,20,male
29,bc,1,48,hl,hh,FALSE,1148.1709999999998,20,male
29,bc,1,49,lh,ll,FALSE,1457.4650000000001,20,male
29,bc,1,50,lh,hh,FALSE,1267.984,20,male
29,bc,1,51,hh,hh,TRUE,1188.687,20,male
29,bc,1,52,ll,ll,TRUE,1658.466,20,male
29,bc,1,53,hh,hh,TRUE,971.338,20,male
29,bc,1,54,lh,ll,FALSE,2785.316,20,male
29,bc,1,55,lh,ll,FALSE,1370.426,20,male
29,bc,1,56,hh,hl,FALSE,3935.3950000000004,20,male
29,bc,1,57,ll,ll,TRUE,6208.844,20,male
29,bc,1,58,ll,ll,TRUE,1163.4969999999998,20,male
29,bc,1,59,hl,ll,FALSE,1584.864,20,male
29,bc,1,60,lh,hh,FALSE,1572.717,20,male
29,bc,1,61,ll,ll,TRUE,1161.85,20,male
29,bc,1,62,lh,hh,FALSE,799.778,20,male
29,bc,1,63,lh,hh,FALSE,796.1099999999999,20,male
29,bc,1,64,ll,ll,TRUE,2617.648,20,male
29,bc,1,65,lh,ll,FALSE,2425.399,20,male
29,bc,1,66,ll,hh,FALSE,2018.533,20,male
29,bc,1,67,hl,hh,FALSE,1588.507,20,male
29,bc,1,68,lh,hh,FALSE,1688.3159999999998,20,male
29,bc,1,69,ll,hl,FALSE,4128.177,20,male
29,bc,1,70,hh,hh,TRUE,1113.9830000000002,20,male
29,bc,1,71,hh,hh,TRUE,1689.241,20,male
29,bc,1,72,hh,hh,TRUE,994.232,20,male
29,bc,1,73,lh,ll,FALSE,2541.742,20,male
29,bc,1,74,hh,hl,FALSE,5858.67,20,male
29,bc,1,75,hl,lh,FALSE,6627.107,20,male
29,bc,1,76,hl,lh,FALSE,2269.41,20,male
29,bc,1,77,lh,ll,FALSE,2923.647,20,male
29,bc,1,78,ll,hh,FALSE,2471.416,20,male
29,bc,1,79,ll,ll,TRUE,1390.0990000000002,20,male
29,bc,1,80,ll,ll,TRUE,2140.221,20,male
29,bc,1,81,lh,ll,FALSE,1223.3649999999998,20,male
29,bc,1,82,lh,ll,FALSE,946.6700000000001,20,male
29,bc,1,83,ll,ll,TRUE,1328.9940000000001,20,male
29,bc,1,84,hl,ll,FALSE,2823.578,20,male
29,bc,1,85,lh,ll,FALSE,1351.7579999999998,20,male
29,bc,1,86,lh,hh,FALSE,1020.9659999999999,20,male
29,bc,1,87,lh,ll,FALSE,1064.6950000000002,20,male
29,bc,1,88,hl,ll,FALSE,2211.155,20,male
29,bc,1,89,hh,hh,TRUE,1411.3939999999998,20,male
29,bc,1,90,lh,hl,FALSE,3246.767,20,male
29,bc,1,91,hh,hh,TRUE,1468.0859999999998,20,male
29,bc,1,92,hh,hh,TRUE,1813.4029999999998,20,male
29,bc,1,93,ll,ll,TRUE,2215.154,20,male
29,bc,1,94,hl,hl,TRUE,4200.761,20,male
29,bc,1,95,ll,hl,FALSE,3840.6139999999996,20,male
29,bc,1,96,ll,ll,TRUE,1523.5880000000002,20,male
29,bc,1,97,hh,hh,TRUE,1874.784,20,male
29,bc,1,98,hh,lh,FALSE,3002.233,20,male
29,bc,1,99,ll,ll,TRUE,1307.3319999999999,20,male
29,bc,1,100,hl,hh,FALSE,1203.1930000000002,20,male
29,bc,1,101,ll,ll,TRUE,1638.301,20,male
29,bc,1,102,hl,ll,FALSE,3928.593,20,male
29,bc,1,103,ll,ll,TRUE,947.354,20,male
29,bc,1,104,hh,ll,FALSE,2304.975,20,male
29,bc,1,105,ll,hl,FALSE,4182.405,20,male
29,bc,1,106,hl,ll,FALSE,3054.099,20,male
29,bc,1,107,ll,lh,FALSE,5388.166,20,male
29,bc,1,108,hl,hh,FALSE,1313.4850000000001,20,male
29,bc,1,109,hh,lh,FALSE,2345.239,20,male
29,bc,1,110,lh,lh,TRUE,3275.817,20,male
29,bc,1,111,ll,ll,TRUE,1993.774,20,male
29,bc,1,112,lh,lh,TRUE,2803.278,20,male
29,bc,1,113,hh,hh,TRUE,1845.9789999999998,20,male
29,bc,1,114,hh,hh,TRUE,910.47,20,male
29,bc,1,115,lh,ll,FALSE,3054.391,20,male
29,bc,1,116,hh,lh,FALSE,3748.4809999999998,20,male
29,bc,1,117,hh,hh,TRUE,1053.8310000000001,20,male
29,bc,1,118,hl,hh,FALSE,1328.342,20,male
29,bc,1,119,hl,hh,FALSE,1398.873,20,male
29,bc,1,120,hl,hh,FALSE,1690.2510000000002,20,male
29,bc,2,1,lh,ll,FALSE,8215.244,20,male
29,bc,2,2,hh,hh,TRUE,2030.234,20,male
29,bc,2,3,hh,hh,TRUE,1086.4789999999998,20,male
29,bc,2,4,hh,hh,TRUE,1255.2640000000001,20,male
29,bc,2,5,hh,hh,TRUE,944.614,20,male
29,bc,2,6,hh,hh,TRUE,807.7090000000001,20,male
29,bc,2,7,ll,ll,TRUE,4771.208,20,male
29,bc,2,8,ll,hh,FALSE,5321.793,20,male
29,bc,2,9,ll,ll,TRUE,1489.375,20,male
29,bc,2,10,lh,ll,FALSE,5122.836,20,male
29,bc,2,11,ll,ll,TRUE,1217.817,20,male
29,bc,2,12,hl,hh,FALSE,1141.5230000000001,20,male
29,bc,2,13,ll,ll,TRUE,841.8520000000001,20,male
29,bc,2,14,lh,ll,FALSE,1126.8600000000001,20,male
29,bc,2,15,lh,ll,FALSE,1053.464,20,male
29,bc,2,16,lh,ll,FALSE,1463.379,20,male
29,bc,2,17,hh,hh,TRUE,1055.355,20,male
29,bc,2,18,lh,ll,FALSE,2283.01,20,male
29,bc,2,19,hh,hh,TRUE,1288.3069999999998,20,male
29,bc,2,20,ll,ll,TRUE,1250.969,20,male
29,bc,2,21,lh,hh,FALSE,868.637,20,male
29,bc,2,22,hh,hl,FALSE,3612.6490000000003,20,male
29,bc,2,23,lh,hh,FALSE,1748.7930000000001,20,male
29,bc,2,24,hl,ll,FALSE,2352.922,20,male
29,bc,2,25,hh,hh,TRUE,1684.65,20,male
29,bc,2,26,lh,ll,FALSE,1196.9140000000002,20,male
29,bc,2,27,hh,ll,FALSE,1592.683,20,male
29,bc,2,28,hh,hh,TRUE,795.097,20,male
29,bc,2,29,hl,ll,FALSE,1921.4859999999999,20,male
29,bc,2,30,hl,hh,FALSE,846.7470000000001,20,male
29,bc,2,31,lh,hh,FALSE,1081.841,20,male
29,bc,2,32,hl,hh,FALSE,1044.046,20,male
29,bc,2,33,hl,hh,FALSE,1412.9299999999998,20,male
29,bc,2,34,hl,hh,FALSE,1287.5659999999998,20,male
29,bc,2,35,hl,ll,FALSE,4288.288,20,male
29,bc,2,36,hl,ll,FALSE,1363.2350000000001,20,male
29,bc,2,37,ll,ll,TRUE,848.3199999999999,20,male
29,bc,2,38,hl,hh,FALSE,1099.2469999999998,20,male
29,bc,2,39,lh,hh,FALSE,1027.199,20,male
29,bc,2,40,ll,hh,FALSE,1613.875,20,male
29,bc,2,41,hl,ll,FALSE,3088.75,20,male
29,bc,2,42,lh,ll,FALSE,933.75,20,male
29,bc,2,43,hh,hh,TRUE,893.44,20,male
29,bc,2,44,hh,hh,TRUE,687.0519999999999,20,male
29,bc,2,45,lh,ll,FALSE,847.271,20,male
29,bc,2,46,hh,hh,TRUE,873.489,20,male
29,bc,2,47,lh,hh,FALSE,1011.588,20,male
29,bc,2,48,hl,hh,FALSE,719.777,20,male
29,bc,2,49,lh,hh,FALSE,1697.534,20,male
29,bc,2,50,ll,ll,TRUE,1935.411,20,male
29,bc,2,51,lh,ll,FALSE,1060.297,20,male
29,bc,2,52,ll,ll,TRUE,1527.018,20,male
29,bc,2,53,ll,ll,TRUE,1075.871,20,male
29,bc,2,54,ll,ll,TRUE,989.0730000000001,20,male
29,bc,2,55,hh,ll,FALSE,908.028,20,male
29,bc,2,56,lh,ll,FALSE,1146.5149999999999,20,male
29,bc,2,57,lh,ll,FALSE,1344.627,20,male
29,bc,2,58,lh,ll,FALSE,774.4490000000001,20,male
29,bc,2,59,hh,hh,TRUE,1051.321,20,male
29,bc,2,60,ll,ll,TRUE,1286.2269999999999,20,male
29,bc,2,61,hl,hh,FALSE,2183.7,20,male
29,bc,2,62,ll,ll,TRUE,3761.2560000000003,20,male
29,bc,2,63,ll,lh,FALSE,4425.629,20,male
29,bc,2,64,hl,hh,FALSE,1199.371,20,male
29,bc,2,65,ll,ll,TRUE,1242.989,20,male
29,bc,2,66,lh,ll,FALSE,1644.9389999999999,20,male
29,bc,2,67,ll,ll,TRUE,1230.2779999999998,20,male
29,bc,2,68,hh,hh,TRUE,2010.0590000000002,20,male
29,bc,2,69,lh,hl,FALSE,5306.794,20,male
29,bc,2,70,hl,ll,FALSE,2043.2289999999998,20,male
29,bc,2,71,hl,ll,FALSE,1282.768,20,male
29,bc,2,72,ll,hl,FALSE,4572.182,20,male
29,bc,2,73,ll,hh,FALSE,2082.876,20,male
29,bc,2,74,hh,ll,FALSE,1937.5149999999999,20,male
29,bc,2,75,ll,ll,TRUE,2975.231,20,male
29,bc,2,76,ll,hh,FALSE,1450.745,20,male
29,bc,2,77,lh,hh,FALSE,2042.259,20,male
29,bc,2,78,hl,hh,FALSE,971.7349999999999,20,male
29,bc,2,79,hl,hh,FALSE,833.8309999999999,20,male
29,bc,2,80,ll,ll,TRUE,1686.9340000000002,20,male
29,bc,2,81,lh,ll,FALSE,1334.596,20,male
29,bc,2,82,hl,ll,FALSE,2916.918,20,male
29,bc,2,83,hl,ll,FALSE,1679.551,20,male
29,bc,2,84,ll,ll,TRUE,1072.4140000000002,20,male
29,bc,2,85,hl,hh,FALSE,1274.52,20,male
29,bc,2,86,hl,lh,FALSE,5650.603,20,male
29,bc,2,87,lh,ll,FALSE,1131.415,20,male
29,bc,2,88,ll,ll,TRUE,1627.1280000000002,20,male
29,bc,2,89,hh,hh,TRUE,1149.255,20,male
29,bc,2,90,hl,ll,FALSE,1587.891,20,male
29,bc,2,91,lh,ll,FALSE,1022.9760000000001,20,male
29,bc,2,92,ll,ll,TRUE,2018.7399999999998,20,male
29,bc,2,93,lh,hh,FALSE,1108.855,20,male
29,bc,2,94,hh,ll,FALSE,1100.3519999999999,20,male
29,bc,2,95,ll,ll,TRUE,1452.112,20,male
29,bc,2,96,hh,hh,TRUE,1461.8629999999998,20,male
29,bc,2,97,hl,hh,FALSE,1951.2179999999998,20,male
29,bc,2,98,lh,ll,FALSE,2116.336,20,male
29,bc,2,99,hl,hh,FALSE,1474.855,20,male
29,bc,2,100,hh,hh,TRUE,825.896,20,male
29,bc,2,101,hh,hh,TRUE,1192.141,20,male
29,bc,2,102,hh,lh,FALSE,995.5429999999999,20,male
29,bc,2,103,hl,hh,FALSE,2134.284,20,male
29,bc,2,104,hl,hh,FALSE,2387.219,20,male
29,bc,2,105,hl,ll,FALSE,1005.9860000000001,20,male
29,bc,2,106,ll,ll,TRUE,3618.093,20,male
29,bc,2,107,hh,ll,FALSE,1218.531,20,male
29,bc,2,108,hh,hh,TRUE,1101.243,20,male
29,bc,2,109,hh,lh,FALSE,3622.3360000000002,20,male
29,bc,2,110,lh,hl,FALSE,4796.608,20,male
29,bc,2,111,hh,hh,TRUE,2145.941,20,male
29,bc,2,112,ll,ll,TRUE,1348.8049999999998,20,male
29,bc,2,113,hh,hh,TRUE,1187.2060000000001,20,male
29,bc,2,114,ll,hh,FALSE,2104.485,20,male
29,bc,2,115,ll,ll,TRUE,4094.4129999999996,20,male
29,bc,2,116,ll,hl,FALSE,3177.986,20,male
29,bc,2,117,hh,lh,FALSE,3435.5159999999996,20,male
29,bc,2,118,hh,lh,FALSE,3681.992,20,male
29,bc,2,119,lh,ll,FALSE,4062.7200000000003,20,male
29,bc,2,120,hh,lh,FALSE,3649.6710000000003,20,male
29,bc,3,1,hh,ll,FALSE,2506.126,20,male
29,bc,3,2,lh,ll,FALSE,1519.464,20,male
29,bc,3,3,lh,ll,FALSE,1206.7040000000002,20,male
29,bc,3,4,ll,hl,FALSE,2858.683,20,male
29,bc,3,5,lh,lh,TRUE,3379.295,20,male
29,bc,3,6,hl,lh,FALSE,2801.295,20,male
29,bc,3,7,hl,hh,FALSE,2917.262,20,male
29,bc,3,8,ll,ll,TRUE,1647.0900000000001,20,male
29,bc,3,9,hl,lh,FALSE,2952.276,20,male
29,bc,3,10,lh,hh,FALSE,1267.9099999999999,20,male
29,bc,3,11,ll,ll,TRUE,2348.107,20,male
29,bc,3,12,hl,hh,FALSE,1545.065,20,male
29,bc,3,13,lh,ll,FALSE,1597.583,20,male
29,bc,3,14,lh,ll,FALSE,1146.705,20,male
29,bc,3,15,ll,ll,TRUE,1039.068,20,male
29,bc,3,16,hh,hh,TRUE,1155.464,20,male
29,bc,3,17,hl,ll,FALSE,1753.087,20,male
29,bc,3,18,hl,ll,FALSE,1933.6419999999998,20,male
29,bc,3,19,ll,ll,TRUE,1420.984,20,male
29,bc,3,20,ll,ll,TRUE,878.559,20,male
29,bc,3,21,hh,ll,FALSE,2038.895,20,male
29,bc,3,22,ll,hl,FALSE,2464.544,20,male
29,bc,3,23,hl,hh,FALSE,1376.0659999999998,20,male
29,bc,3,24,ll,ll,TRUE,1796.19,20,male
29,bc,3,25,hh,hh,TRUE,1374.2640000000001,20,male
29,bc,3,26,ll,ll,TRUE,2875.123,20,male
29,bc,3,27,hh,ll,FALSE,1849.5140000000001,20,male
29,bc,3,28,ll,hl,FALSE,2274.354,20,male
29,bc,3,29,hh,hh,TRUE,1089.993,20,male
29,bc,3,30,ll,ll,TRUE,1724.6860000000001,20,male
29,bc,3,31,lh,hh,FALSE,1720.0210000000002,20,male
29,bc,3,32,lh,ll,FALSE,1038.867,20,male
29,bc,3,33,ll,ll,TRUE,2027.645,20,male
29,bc,3,34,hl,ll,FALSE,1531.8560000000002,20,male
29,bc,3,35,lh,ll,FALSE,1472.549,20,male
29,bc,3,36,lh,ll,FALSE,1155.339,20,male
29,bc,3,37,lh,hh,FALSE,1081.598,20,male
29,bc,3,38,hl,ll,FALSE,1481.2330000000002,20,male
29,bc,3,39,ll,ll,TRUE,3097.205,20,male
29,bc,3,40,lh,ll,FALSE,1190.8049999999998,20,male
29,bc,3,41,hh,ll,FALSE,2379.417,20,male
29,bc,3,42,hl,hh,FALSE,1871.0990000000002,20,male
29,bc,3,43,hh,hl,FALSE,3045.676,20,male
29,bc,3,44,hh,hh,TRUE,1820.7440000000001,20,male
29,bc,3,45,hl,lh,FALSE,6599.159,20,male
29,bc,3,46,hh,hh,TRUE,4353.735,20,male
29,bc,3,47,lh,ll,FALSE,2064.429,20,male
29,bc,3,48,hh,hh,TRUE,1538.386,20,male
29,bc,3,49,hh,hh,TRUE,885.71,20,male
29,bc,3,50,ll,ll,TRUE,1511.2359999999999,20,male
29,bc,3,51,ll,ll,TRUE,893.279,20,male
29,bc,3,52,hl,ll,FALSE,1078.6689999999999,20,male
29,bc,3,53,ll,ll,TRUE,1062.913,20,male
29,bc,3,54,lh,ll,FALSE,1012.3219999999999,20,male
29,bc,3,55,hl,ll,FALSE,1253.674,20,male
29,bc,3,56,hh,ll,FALSE,2258.454,20,male
29,bc,3,57,hl,lh,FALSE,3974.643,20,male
29,bc,3,58,hl,lh,FALSE,6294.59,20,male
29,bc,3,59,hh,hl,FALSE,4024.4539999999997,20,male
29,bc,3,60,ll,ll,TRUE,2900.48,20,male
29,bc,3,61,ll,ll,TRUE,2209.601,20,male
29,bc,3,62,hh,hh,TRUE,1067.2060000000001,20,male
29,bc,3,63,lh,ll,FALSE,2220.02,20,male
29,bc,3,64,hl,hh,FALSE,1302.1950000000002,20,male
29,bc,3,65,hl,hh,FALSE,1191.284,20,male
29,bc,3,66,lh,ll,FALSE,1041.865,20,male
29,bc,3,67,hl,ll,FALSE,2340.665,20,male
29,bc,3,68,hl,hh,FALSE,1249.163,20,male
29,bc,3,69,lh,hl,FALSE,3363.938,20,male
29,bc,3,70,ll,hl,FALSE,2860.321,20,male
29,bc,3,71,lh,hl,FALSE,2314.662,20,male
29,bc,3,72,hh,ll,FALSE,2263.977,20,male
29,bc,3,73,ll,ll,TRUE,1320.951,20,male
29,bc,3,74,ll,ll,TRUE,2119.824,20,male
29,bc,3,75,hl,ll,FALSE,1780.221,20,male
29,bc,3,76,ll,ll,TRUE,1111.44,20,male
29,bc,3,77,ll,ll,TRUE,1359.071,20,male
29,bc,3,78,hh,hh,TRUE,1339.9119999999998,20,male
29,bc,3,79,hl,lh,FALSE,3867.5919999999996,20,male
29,bc,3,80,lh,hh,FALSE,1263.7359999999999,20,male
29,bc,3,81,hl,hh,FALSE,1008.223,20,male
29,bc,3,82,ll,ll,TRUE,965.1300000000001,20,male
29,bc,3,83,ll,hl,FALSE,2282.295,20,male
29,bc,3,84,ll,ll,TRUE,1161.0900000000001,20,male
29,bc,3,85,hl,hh,FALSE,1318.4099999999999,20,male
29,bc,3,86,hl,hh,FALSE,959.7940000000001,20,male
29,bc,3,87,hl,ll,FALSE,1803.5720000000001,20,male
29,bc,3,88,lh,hh,FALSE,1638.9209999999998,20,male
29,bc,3,89,hh,ll,FALSE,2376.335,20,male
29,bc,3,90,lh,ll,FALSE,899.508,20,male
29,bc,3,91,hh,hh,TRUE,2533.991,20,male
29,bc,3,92,lh,ll,FALSE,1424.748,20,male
29,bc,3,93,hl,ll,FALSE,2308.69,20,male
29,bc,3,94,hl,ll,FALSE,1521.433,20,male
29,bc,3,95,lh,hh,FALSE,1048.078,20,male
29,bc,3,96,lh,ll,FALSE,979.377,20,male
29,bc,3,97,hl,ll,FALSE,2335.979,20,male
29,bc,3,98,hl,hh,FALSE,1108.2069999999999,20,male
29,bc,3,99,hl,hl,TRUE,5229.625,20,male
29,bc,3,100,lh,ll,FALSE,1065.3200000000002,20,male
29,bc,3,101,ll,ll,TRUE,1033.846,20,male
29,bc,3,102,ll,hl,FALSE,2004.8200000000002,20,male
29,bc,3,103,ll,lh,FALSE,4783.548,20,male
29,bc,3,104,lh,ll,FALSE,919.502,20,male
29,bc,3,105,lh,hh,FALSE,1717.8649999999998,20,male
29,bc,3,106,lh,ll,FALSE,2204.632,20,male
29,bc,3,107,ll,ll,TRUE,1790.7820000000002,20,male
29,bc,3,108,ll,ll,TRUE,1411.4409999999998,20,male
29,bc,3,109,hl,hh,FALSE,1997.841,20,male
29,bc,3,110,ll,ll,TRUE,2384.603,20,male
29,bc,3,111,hl,ll,FALSE,1698.315,20,male
29,bc,3,112,hh,ll,FALSE,1329.4569999999999,20,male
29,bc,3,113,hl,ll,FALSE,1946.6860000000001,20,male
29,bc,3,114,lh,ll,FALSE,3925.5,20,male
29,bc,3,115,hl,hh,FALSE,1589.8890000000001,20,male
29,bc,3,116,hh,hl,FALSE,3953.6890000000003,20,male
29,bc,3,117,hl,hh,FALSE,1355.752,20,male
29,bc,3,118,ll,ll,TRUE,1203.3850000000002,20,male
29,bc,3,119,lh,ll,FALSE,3908.755,20,male
29,bc,3,120,hh,hh,TRUE,1750.777,20,male
29,bc,4,1,ll,ll,TRUE,2065.08,20,male
29,bc,4,2,hh,hh,TRUE,1640.411,20,male
29,bc,4,3,hl,hh,FALSE,1224.9119999999998,20,male
29,bc,4,4,hl,hh,FALSE,1493.1950000000002,20,male
29,bc,4,5,lh,hl,FALSE,3468.452,20,male
29,bc,4,6,hl,ll,FALSE,1471.741,20,male
29,bc,4,7,lh,ll,FALSE,1617.8519999999999,20,male
29,bc,4,8,ll,lh,FALSE,3443.955,20,male
29,bc,4,9,lh,ll,FALSE,1226.8780000000002,20,male
29,bc,4,10,hh,ll,FALSE,2686.763,20,male
29,bc,4,11,hl,hh,FALSE,1794.8829999999998,20,male
29,bc,4,12,hl,ll,FALSE,1542.185,20,male
29,bc,4,13,lh,ll,FALSE,2898.14,20,male
29,bc,4,14,hh,hh,TRUE,1503.944,20,male
29,bc,4,15,ll,ll,TRUE,2047.304,20,male
29,bc,4,16,hl,hh,FALSE,1264.975,20,male
29,bc,4,17,lh,hh,FALSE,1841.0230000000001,20,male
29,bc,4,18,hl,hh,FALSE,4330.62,20,male
29,bc,4,19,lh,ll,FALSE,9971.486,20,male
29,bc,4,20,lh,ll,FALSE,1625.7350000000001,20,male
29,bc,4,21,hl,ll,FALSE,1633.5230000000001,20,male
29,bc,4,22,ll,hh,FALSE,4542,20,male
29,bc,4,23,ll,ll,TRUE,2133.083,20,male
29,bc,4,24,hl,hh,FALSE,1018.502,20,male
29,bc,4,25,lh,ll,FALSE,4992.432,20,male
29,bc,4,26,hl,hh,FALSE,4587.789,20,male
29,bc,4,27,lh,ll,FALSE,2577.852,20,male
29,bc,4,28,lh,hh,FALSE,3986.094,20,male
29,bc,4,29,hl,ll,FALSE,1482.6930000000002,20,male
29,bc,4,30,hl,hh,FALSE,1227.232,20,male
29,bc,4,31,hh,hh,TRUE,3038.877,20,male
29,bc,4,32,hl,ll,FALSE,2652.497,20,male
29,bc,4,33,ll,ll,TRUE,3635.6679999999997,20,male
29,bc,4,34,lh,ll,FALSE,7218.27,20,male
29,bc,4,35,ll,hl,FALSE,4242.832,20,male
29,bc,4,36,hh,hh,TRUE,1896.4299999999998,20,male
29,bc,4,37,hl,hh,FALSE,1438.913,20,male
29,bc,4,38,hh,hh,TRUE,1065.6260000000002,20,male
29,bc,4,39,ll,lh,FALSE,3274.076,20,male
29,bc,4,40,lh,ll,FALSE,8233.365,20,male
29,bc,4,41,hl,hh,FALSE,1324.6370000000002,20,male
29,bc,4,42,ll,ll,TRUE,4788.75,20,male
29,bc,4,43,ll,hh,FALSE,1561.538,20,male
29,bc,4,44,hh,ll,FALSE,1582.672,20,male
29,bc,4,45,hh,hh,TRUE,1035.246,20,male
29,bc,4,46,lh,ll,FALSE,1143.248,20,male
29,bc,4,47,ll,ll,TRUE,972.079,20,male
29,bc,4,48,lh,ll,FALSE,1209.324,20,male
29,bc,4,49,hh,hh,TRUE,981.9559999999999,20,male
29,bc,4,50,hl,hh,FALSE,1098.2179999999998,20,male
29,bc,4,51,hl,ll,FALSE,2069.251,20,male
29,bc,4,52,lh,ll,FALSE,1057.866,20,male
29,bc,4,53,ll,ll,TRUE,1436.1680000000001,20,male
29,bc,4,54,hh,hh,TRUE,2104.18,20,male
29,bc,4,55,lh,ll,FALSE,1374.0140000000001,20,male
29,bc,4,56,lh,hh,FALSE,1693.3290000000002,20,male
29,bc,4,57,hh,hh,TRUE,1161.516,20,male
29,bc,4,58,hh,ll,FALSE,2183.402,20,male
29,bc,4,59,lh,hh,FALSE,2682.519,20,male
29,bc,4,60,hh,ll,FALSE,6658.174,20,male
29,bc,4,61,hl,hh,FALSE,1095.1060000000002,20,male
29,bc,4,62,hh,hh,TRUE,1439.417,20,male
29,bc,4,63,hl,hh,FALSE,1009.806,20,male
29,bc,4,64,lh,hh,FALSE,1989.6260000000002,20,male
29,bc,4,65,hl,hh,FALSE,976.77,20,male
29,bc,4,66,hh,hh,TRUE,1078.667,20,male
29,bc,4,67,hh,ll,FALSE,2295.358,20,male
29,bc,4,68,hh,hh,TRUE,813.1220000000001,20,male
29,bc,4,69,hh,ll,FALSE,1044.404,20,male
29,bc,4,70,lh,ll,FALSE,1028.398,20,male
29,bc,4,71,ll,ll,TRUE,928.3610000000001,20,male
29,bc,4,72,hl,hh,FALSE,1744.038,20,male
29,bc,4,73,hl,hh,FALSE,922.9100000000001,20,male
29,bc,4,74,ll,ll,TRUE,866.768,20,male
29,bc,4,75,ll,ll,TRUE,2581.16,20,male
29,bc,4,76,hh,hh,TRUE,1440.1599999999999,20,male
29,bc,4,77,lh,hh,FALSE,825.7570000000001,20,male
29,bc,4,78,hl,hh,FALSE,701.137,20,male
29,bc,4,79,lh,hh,FALSE,694.094,20,male
29,bc,4,80,lh,ll,FALSE,1696.105,20,male
29,bc,4,81,ll,hl,FALSE,3350.273,20,male
29,bc,4,82,ll,ll,TRUE,1272.4470000000001,20,male
29,bc,4,83,hl,hh,FALSE,1049.252,20,male
29,bc,4,84,lh,ll,FALSE,828.9179999999999,20,male
29,bc,4,85,ll,ll,TRUE,1454.83,20,male
29,bc,4,86,ll,ll,TRUE,1890.507,20,male
29,bc,4,87,hh,hh,TRUE,3216.26,20,male
29,bc,4,88,ll,ll,TRUE,2640.032,20,male
29,bc,4,89,hh,hh,TRUE,959.471,20,male
29,bc,4,90,ll,ll,TRUE,1645.0259999999998,20,male
29,bc,4,91,hh,hh,TRUE,926.307,20,male
29,bc,4,92,hh,hh,TRUE,909.9390000000001,20,male
29,bc,4,93,lh,ll,FALSE,3901.9139999999998,20,male
29,bc,4,94,hh,hh,TRUE,1033.633,20,male
29,bc,4,95,lh,ll,FALSE,2702.201,20,male
29,bc,4,96,lh,hh,FALSE,1075.237,20,male
29,bc,4,97,lh,hh,FALSE,898.605,20,male
29,bc,4,98,ll,ll,TRUE,1322.266,20,male
29,bc,4,99,lh,ll,FALSE,1051.451,20,male
29,bc,4,100,,,FALSE,14797.376,20,male
29,bc,4,101,hl,ll,FALSE,302.23800000000006,20,male
29,bc,4,102,hl,hh,FALSE,1648.413,20,male
29,bc,4,103,ll,hh,FALSE,1665.2130000000002,20,male
29,bc,4,104,hl,hh,FALSE,1067.1750000000002,20,male
29,bc,4,105,hl,hh,FALSE,2156.147,20,male
29,bc,4,106,ll,ll,TRUE,7095.941,20,male
29,bc,4,107,lh,hh,FALSE,5054.41,20,male
29,bc,4,108,hh,ll,FALSE,1584.0839999999998,20,male
29,bc,4,109,lh,hh,FALSE,885.7529999999999,20,male
29,bc,4,110,ll,ll,TRUE,1047.58,20,male
29,bc,4,111,lh,hh,FALSE,2584.86,20,male
29,bc,4,112,hh,hh,TRUE,795.778,20,male
29,bc,4,113,lh,ll,FALSE,857.818,20,male
29,bc,4,114,ll,lh,FALSE,3608.728,20,male
29,bc,4,115,ll,hh,FALSE,1191.933,20,male
29,bc,4,116,ll,ll,TRUE,1195.929,20,male
29,bc,4,117,hh,hh,TRUE,985.818,20,male
29,bc,4,118,hl,ll,FALSE,1191.6060000000002,20,male
29,bc,4,119,hh,hh,TRUE,954.521,20,male
29,bc,4,120,hh,ll,FALSE,2193.63,20,male
29,bc,5,1,hl,ll,FALSE,3494.9139999999998,20,male
29,bc,5,2,ll,ll,TRUE,976.9659999999999,20,male
29,bc,5,3,hh,hh,TRUE,879.6780000000001,20,male
29,bc,5,4,lh,hh,FALSE,1130.482,20,male
29,bc,5,5,lh,ll,FALSE,2439.777,20,male
29,bc,5,6,ll,ll,TRUE,2438.545,20,male
29,bc,5,7,hh,hh,TRUE,3729.0510000000004,20,male
29,bc,5,8,hl,lh,FALSE,3917.094,20,male
29,bc,5,9,lh,hh,FALSE,1188.6640000000002,20,male
29,bc,5,10,hh,hh,TRUE,841.3009999999999,20,male
29,bc,5,11,lh,ll,FALSE,3010.42,20,male
29,bc,5,12,hl,hh,FALSE,1086.417,20,male
29,bc,5,13,ll,ll,TRUE,3020.902,20,male
29,bc,5,14,hl,lh,FALSE,3028.999,20,male
29,bc,5,15,hl,ll,FALSE,2573.273,20,male
29,bc,5,16,hl,lh,FALSE,6033.851,20,male
29,bc,5,17,hh,hh,TRUE,2774.97,20,male
29,bc,5,18,hl,lh,FALSE,2350.087,20,male
29,bc,5,19,hl,hh,FALSE,1318.7440000000001,20,male
29,bc,5,20,hl,lh,FALSE,2271.658,20,male
29,bc,5,21,ll,hl,FALSE,2884.941,20,male
29,bc,5,22,hl,lh,FALSE,5378.402,20,male
29,bc,5,23,hl,hh,FALSE,1593.9250000000002,20,male
29,bc,5,24,hl,hh,FALSE,835.913,20,male
29,bc,5,25,lh,hh,FALSE,897.107,20,male
29,bc,5,26,hh,ll,FALSE,1192.562,20,male
29,bc,5,27,hl,ll,FALSE,1035.603,20,male
29,bc,5,28,hh,hh,TRUE,745.501,20,male
29,bc,5,29,hl,hh,FALSE,703.065,20,male
29,bc,5,30,hh,ll,FALSE,1079.034,20,male
29,bc,5,31,hh,hh,TRUE,770.0930000000001,20,male
29,bc,5,32,ll,hh,FALSE,1431.9520000000002,20,male
29,bc,5,33,lh,hh,FALSE,1312.806,20,male
29,bc,5,34,ll,ll,TRUE,1456.0479999999998,20,male
29,bc,5,35,ll,ll,TRUE,897.2739999999999,20,male
29,bc,5,36,lh,hh,FALSE,1090.2020000000002,20,male
29,bc,5,37,lh,ll,FALSE,997.7650000000001,20,male
29,bc,5,38,ll,ll,TRUE,1206.5720000000001,20,male
29,bc,5,39,hh,hh,TRUE,987.0519999999999,20,male
29,bc,5,40,lh,ll,FALSE,906.452,20,male
29,bc,5,41,ll,lh,FALSE,2792.294,20,male
29,bc,5,42,ll,ll,TRUE,2841.966,20,male
29,bc,5,43,hl,hh,FALSE,1825.6100000000001,20,male
29,bc,5,44,lh,hh,FALSE,724.471,20,male
29,bc,5,45,hh,hh,TRUE,766.271,20,male
29,bc,5,46,hh,hh,TRUE,1388.739,20,male
29,bc,5,47,hl,hh,FALSE,1110.8850000000002,20,male
29,bc,5,48,ll,ll,TRUE,853.873,20,male
29,bc,5,49,hh,hh,TRUE,1104.6219999999998,20,male
29,bc,5,50,lh,ll,FALSE,1434.0189999999998,20,male
29,bc,5,51,hl,lh,FALSE,2749.143,20,male
29,bc,5,52,hh,ll,FALSE,2278.227,20,male
29,bc,5,53,lh,ll,FALSE,2406.9,20,male
29,bc,5,54,ll,ll,TRUE,1400.8560000000002,20,male
29,bc,5,55,lh,ll,FALSE,875.433,20,male
29,bc,5,56,ll,ll,TRUE,900.1659999999999,20,male
29,bc,5,57,hl,hh,FALSE,1254.4319999999998,20,male
29,bc,5,58,hl,lh,FALSE,2336.24,20,male
29,bc,5,59,lh,ll,FALSE,1651.882,20,male
29,bc,5,60,lh,ll,FALSE,1261.7869999999998,20,male
29,bc,5,61,hl,hh,FALSE,735.876,20,male
29,bc,5,62,ll,hh,FALSE,1088.9630000000002,20,male
29,bc,5,63,hl,hh,FALSE,1048.6770000000001,20,male
29,bc,5,64,lh,ll,FALSE,888.7270000000001,20,male
29,bc,5,65,ll,ll,TRUE,796.5619999999999,20,male
29,bc,5,66,ll,ll,TRUE,1318.685,20,male
29,bc,5,67,lh,ll,FALSE,1040.854,20,male
29,bc,5,68,hl,hh,FALSE,1105.5010000000002,20,male
29,bc,5,69,ll,ll,TRUE,962.549,20,male
29,bc,5,70,lh,hh,FALSE,905.4100000000001,20,male
29,bc,5,71,hh,hh,TRUE,969.088,20,male
29,bc,5,72,hl,hh,FALSE,1182.9270000000001,20,male
29,bc,5,73,lh,ll,FALSE,1404.567,20,male
29,bc,5,74,ll,ll,TRUE,1111.7040000000002,20,male
29,bc,5,75,ll,ll,TRUE,893.028,20,male
29,bc,5,76,hl,ll,FALSE,1566.0410000000002,20,male
29,bc,5,77,ll,ll,TRUE,865.7760000000001,20,male
29,bc,5,78,hh,hh,TRUE,919.363,20,male
29,bc,5,79,hh,ll,FALSE,1750.397,20,male
29,bc,5,80,lh,hh,FALSE,1970.54,20,male
29,bc,5,81,ll,ll,TRUE,1349.857,20,male
29,bc,5,82,hh,ll,FALSE,2627.04,20,male
29,bc,5,83,lh,hh,FALSE,1196.413,20,male
29,bc,5,84,lh,hh,FALSE,2159.879,20,male
29,bc,5,85,hh,hh,TRUE,911.231,20,male
29,bc,5,86,hh,hh,TRUE,996.297,20,male
29,bc,5,87,hh,hh,TRUE,832.5989999999999,20,male
29,bc,5,88,hh,hh,TRUE,1741.386,20,male
29,bc,5,89,lh,ll,FALSE,2826.621,20,male
29,bc,5,90,lh,ll,FALSE,1506.091,20,male
29,bc,5,91,ll,ll,TRUE,924.8610000000001,20,male
29,bc,5,92,lh,ll,FALSE,1892.7800000000002,20,male
29,bc,5,93,hh,hh,TRUE,1658.156,20,male
29,bc,5,94,hl,hh,FALSE,785.55,20,male
29,bc,5,95,hl,ll,FALSE,1193.688,20,male
29,bc,5,96,hh,hh,TRUE,867.142,20,male
29,bc,5,97,hl,hh,FALSE,1246.975,20,male
29,bc,5,98,hl,hh,FALSE,6626.143,20,male
29,bc,5,99,hh,hh,TRUE,1729.719,20,male
29,bc,5,100,ll,ll,TRUE,1062.1709999999998,20,male
29,bc,5,101,ll,ll,TRUE,1050.7130000000002,20,male
29,bc,5,102,lh,hh,FALSE,1305.7510000000002,20,male
29,bc,5,103,hh,hh,TRUE,1549.4029999999998,20,male
29,bc,5,104,hl,lh,FALSE,7840.706,20,male
29,bc,5,105,hl,hh,FALSE,1037.04,20,male
29,bc,5,106,ll,ll,TRUE,3000.166,20,male
29,bc,5,107,ll,ll,TRUE,1410.54,20,male
29,bc,5,108,lh,ll,FALSE,964.7570000000001,20,male
29,bc,5,109,ll,ll,TRUE,2737.665,20,male
29,bc,5,110,hh,hh,TRUE,887.817,20,male
29,bc,5,111,ll,ll,TRUE,1592.491,20,male
29,bc,5,112,hl,ll,FALSE,1282.1460000000002,20,male
29,bc,5,113,hh,hh,TRUE,1658.8069999999998,20,male
29,bc,5,114,ll,hh,FALSE,1797.8490000000002,20,male
29,bc,5,115,ll,ll,TRUE,1033.414,20,male
29,bc,5,116,lh,hh,FALSE,1049.976,20,male
29,bc,5,117,lh,ll,FALSE,1894.804,20,male
29,bc,5,118,lh,hh,FALSE,947.856,20,male
29,bc,5,119,hh,hh,TRUE,849.6020000000001,20,male
29,bc,5,120,hl,ll,FALSE,3406.38,20,male
