pID,condition,block_no,trial_no,stimulus,response,correct,rt,age,gender
3,ab,1,1,lh,hh,FALSE,4076.5420000000004,18,female
3,ab,1,2,lh,lh,TRUE,4924.243,18,female
3,ab,1,3,hh,lh,FALSE,7445.959000000001,18,female
3,ab,1,4,hl,hh,FALSE,5899.987,18,female
3,ab,1,5,hl,ll,FALSE,6199.291,18,female
3,ab,1,6,lh,lh,TRUE,7503.07,18,female
3,ab,1,7,hl,hh,FALSE,9113.972,18,female
3,ab,1,8,ll,ll,TRUE,7837.495000000001,18,female
3,ab,1,9,lh,ll,FALSE,4763.652,18,female
3,ab,1,10,ll,ll,TRUE,3868.4629999999997,18,female
3,ab,1,11,hh,hh,TRUE,1922.016,18,female
3,ab,1,12,hh,lh,FALSE,7332.8099999999995,18,female
3,ab,1,13,hl,ll,FALSE,3934.7929999999997,18,female
3,ab,1,14,hh,hl,FALSE,5152.794,18,female
3,ab,1,15,hh,hl,FALSE,3433.1049999999996,18,female
3,ab,1,16,hl,ll,FALSE,9007.079,18,female
3,ab,1,17,hh,hh,TRUE,1735.058,18,female
3,ab,1,18,ll,hh,FALSE,8688.737,18,female
3,ab,1,19,lh,ll,FALSE,6109.116,18,female
3,ab,1,20,hh,hh,TRUE,1968.433,18,female
3,ab,1,21,lh,hl,FALSE,8424.987,18,female
3,ab,1,22,lh,lh,TRUE,8159.427,18,female
3,ab,1,23,lh,lh,TRUE,4073.365,18,female
3,ab,1,24,lh,ll,FALSE,6893.372,18,female
3,ab,1,25,hl,ll,FALSE,4808.831,18,female
3,ab,1,26,hh,hh,TRUE,2945.084,18,female
3,ab,1,27,hl,ll,FALSE,4906.169,18,female
3,ab,1,28,hh,hh,TRUE,1988.7289999999998,18,female
3,ab,1,29,ll,ll,TRUE,5573.596,18,female
3,ab,1,30,hl,hh,FALSE,9117.635,18,female
3,ab,1,31,hl,hh,FALSE,3713.0460000000003,18,female
3,ab,1,32,ll,ll,TRUE,4012.0240000000003,18,female
3,ab,1,33,lh,lh,TRUE,5787.383,18,female
3,ab,1,34,hh,hh,TRUE,3146.7830000000004,18,female
3,ab,1,35,ll,ll,TRUE,8533.059,18,female
3,ab,1,36,ll,ll,TRUE,3038.19,18,female
3,ab,1,37,hh,hl,FALSE,6492.706,18,female
3,ab,1,38,hh,hh,TRUE,1617.576,18,female
3,ab,1,39,hl,ll,FALSE,5615.812,18,female
3,ab,1,40,hl,hh,FALSE,7781.571,18,female
3,ab,1,41,hl,hh,FALSE,1727.6350000000002,18,female
3,ab,1,42,hl,hh,FALSE,2385.508,18,female
3,ab,1,43,hl,hh,FALSE,2845.042,18,female
3,ab,1,44,ll,ll,TRUE,6478.347,18,female
3,ab,1,45,hh,hh,TRUE,1187.3110000000001,18,female
3,ab,1,46,hh,hh,TRUE,1858.388,18,female
3,ab,1,47,ll,ll,TRUE,1480.3490000000002,18,female
3,ab,1,48,hh,hh,TRUE,1756.482,18,female
3,ab,1,49,hl,hh,FALSE,3533.5519999999997,18,female
3,ab,1,50,lh,lh,TRUE,8143.9529999999995,18,female
3,ab,1,51,hl,ll,FALSE,4945.994,18,female
3,ab,1,52,hh,hh,TRUE,1963.808,18,female
3,ab,1,53,ll,ll,TRUE,2102.107,18,female
3,ab,1,54,hh,lh,FALSE,8704.662,18,female
3,ab,1,55,hh,hh,TRUE,2188.82,18,female
3,ab,1,56,lh,ll,FALSE,4771.788,18,female
3,ab,1,57,lh,ll,FALSE,4549.347,18,female
3,ab,1,58,ll,ll,TRUE,4462.716,18,female
3,ab,1,59,hh,hh,TRUE,1547.632,18,female
3,ab,1,60,hl,hh,FALSE,11612.972,18,female
3,ab,1,61,lh,lh,TRUE,5116.127,18,female
3,ab,1,62,hl,hh,FALSE,4839.079,18,female
3,ab,1,63,lh,hh,FALSE,4549.441,18,female
3,ab,1,64,ll,ll,TRUE,2014.5459999999998,18,female
3,ab,1,65,hh,lh,FALSE,7654.878000000001,18,female
3,ab,1,66,lh,hh,FALSE,1275.1930000000002,18,female
3,ab,1,67,hl,ll,FALSE,5239.779,18,female
3,ab,1,68,hl,ll,FALSE,7301.772000000001,18,female
3,ab,1,69,hl,ll,FALSE,6682.015,18,female
3,ab,1,70,lh,ll,FALSE,8141.195,18,female
3,ab,1,71,hh,hh,TRUE,1463.3780000000002,18,female
3,ab,1,72,hh,hh,TRUE,2220.629,18,female
3,ab,1,73,ll,ll,TRUE,2387.181,18,female
3,ab,1,74,ll,ll,TRUE,3435.4579999999996,18,female
3,ab,1,75,hl,hh,FALSE,5800.791,18,female
3,ab,1,76,hh,hl,FALSE,3936.7520000000004,18,female
3,ab,1,77,ll,ll,TRUE,1673.4450000000002,18,female
3,ab,1,78,hl,ll,FALSE,6438.39,18,female
3,ab,1,79,lh,hh,FALSE,6492.267,18,female
3,ab,1,80,hh,hh,TRUE,2256.671,18,female
3,ab,1,81,lh,ll,FALSE,9541.579,18,female
3,ab,1,82,hl,ll,FALSE,7552.870000000001,18,female
3,ab,1,83,lh,hh,FALSE,5608.981,18,female
3,ab,1,84,hl,ll,FALSE,7032.419,18,female
3,ab,1,85,lh,hh,FALSE,7918.555,18,female
3,ab,1,86,lh,hh,FALSE,4096.963,18,female
3,ab,1,87,hh,lh,FALSE,4492.673,18,female
3,ab,1,88,ll,ll,TRUE,1600.7130000000002,18,female
3,ab,1,89,hh,hh,TRUE,6151.879,18,female
3,ab,1,90,ll,ll,TRUE,1234.3899999999999,18,female
3,ab,1,91,hh,hh,TRUE,7359.063,18,female
3,ab,1,92,lh,hh,FALSE,1936.558,18,female
3,ab,1,93,ll,ll,TRUE,3002.895,18,female
3,ab,1,94,lh,lh,TRUE,6267.734,18,female
3,ab,1,95,hh,hh,TRUE,4710.984,18,female
3,ab,1,96,lh,lh,TRUE,5059.62,18,female
3,ab,1,97,hh,hh,TRUE,1432.2689999999998,18,female
3,ab,1,98,lh,hh,FALSE,3525.374,18,female
3,ab,1,99,hl,ll,FALSE,5424.657,18,female
3,ab,1,100,hl,ll,FALSE,4327.961,18,female
3,ab,1,101,lh,hh,FALSE,2721.873,18,female
3,ab,1,102,lh,hh,FALSE,1963.8180000000002,18,female
3,ab,1,103,lh,hh,FALSE,2188.56,18,female
3,ab,1,104,hl,hh,FALSE,3948.0429999999997,18,female
3,ab,1,105,hh,hh,TRUE,1759.4769999999999,18,female
3,ab,1,106,lh,lh,TRUE,5719.144,18,female
3,ab,1,107,hl,ll,FALSE,7906.691000000001,18,female
3,ab,1,108,ll,ll,TRUE,3270.031,18,female
3,ab,1,109,lh,hh,FALSE,3914.3509999999997,18,female
3,ab,1,110,lh,hl,FALSE,3620.9799999999996,18,female
3,ab,1,111,hh,hh,TRUE,4748.647,18,female
3,ab,1,112,lh,lh,TRUE,4205.046,18,female
3,ab,1,113,ll,ll,TRUE,1260.232,18,female
3,ab,1,114,lh,hh,FALSE,2497.939,18,female
3,ab,1,115,hh,hh,TRUE,1085.518,18,female
3,ab,1,116,hl,hh,FALSE,1978.7310000000002,18,female
3,ab,1,117,ll,ll,TRUE,4507.199,18,female
3,ab,1,118,hl,hh,FALSE,2894.267,18,female
3,ab,1,119,ll,ll,TRUE,1473.3159999999998,18,female
3,ab,1,120,hl,hh,FALSE,5374.979,18,female
3,ab,2,1,hh,hh,TRUE,3253.5159999999996,18,female
3,ab,2,2,lh,ll,FALSE,4570.411,18,female
3,ab,2,3,hl,hh,FALSE,2547.968,18,female
3,ab,2,4,hh,hh,TRUE,2443.019,18,female
3,ab,2,5,hh,hh,TRUE,1482.3690000000001,18,female
3,ab,2,6,lh,hh,FALSE,8717.429,18,female
3,ab,2,7,lh,hl,FALSE,9064.642,18,female
3,ab,2,8,hh,hh,TRUE,4742.574,18,female
3,ab,2,9,ll,ll,TRUE,1800.0520000000001,18,female
3,ab,2,10,hl,hh,FALSE,1079.382,18,female
3,ab,2,11,lh,ll,FALSE,3868.175,18,female
3,ab,2,12,hh,hh,TRUE,4992.482,18,female
3,ab,2,13,hl,hh,FALSE,2448.63,18,female
3,ab,2,14,ll,ll,TRUE,4013.434,18,female
3,ab,2,15,hl,hl,TRUE,4814.389,18,female
3,ab,2,16,lh,hh,FALSE,1884.8609999999999,18,female
3,ab,2,17,hl,hh,FALSE,1641.275,18,female
3,ab,2,18,hl,ll,FALSE,5175.087,18,female
3,ab,2,19,lh,hh,FALSE,3255.2690000000002,18,female
3,ab,2,20,hl,hh,FALSE,1604.283,18,female
3,ab,2,21,ll,hh,FALSE,6093.031,18,female
3,ab,2,22,hh,hh,TRUE,1183.7890000000002,18,female
3,ab,2,23,lh,lh,TRUE,4711.596,18,female
3,ab,2,24,ll,ll,TRUE,4508.741,18,female
3,ab,2,25,hl,ll,FALSE,3847.7380000000003,18,female
3,ab,2,26,ll,ll,TRUE,1397.3020000000001,18,female
3,ab,2,27,ll,lh,FALSE,7613.246999999999,18,female
3,ab,2,28,hl,hh,FALSE,1363.752,18,female
3,ab,2,29,hl,hh,FALSE,1221.4720000000002,18,female
3,ab,2,30,lh,hh,FALSE,1188.9540000000002,18,female
3,ab,2,31,hl,ll,FALSE,2299.278,18,female
3,ab,2,32,hh,hh,TRUE,1126.991,18,female
3,ab,2,33,ll,ll,TRUE,1864.9119999999998,18,female
3,ab,2,34,hl,ll,FALSE,1676.1,18,female
3,ab,2,35,hh,hl,FALSE,8098.725,18,female
3,ab,2,36,hl,ll,FALSE,8005.793,18,female
3,ab,2,37,hl,ll,FALSE,2180.779,18,female
3,ab,2,38,ll,ll,TRUE,1038.429,18,female
3,ab,2,39,hl,ll,FALSE,2435.222,18,female
3,ab,2,40,ll,ll,TRUE,1058.592,18,female
3,ab,2,41,ll,ll,TRUE,1430.176,18,female
3,ab,2,42,ll,ll,TRUE,3663.254,18,female
3,ab,2,43,hh,hh,TRUE,1218.317,18,female
3,ab,2,44,hh,hh,TRUE,1792.4879999999998,18,female
3,ab,2,45,ll,ll,TRUE,3056.635,18,female
3,ab,2,46,lh,ll,FALSE,3446.501,18,female
3,ab,2,47,hh,hh,TRUE,995.7429999999999,18,female
3,ab,2,48,hl,hl,TRUE,4003.684,18,female
3,ab,2,49,hh,hh,TRUE,1667.9409999999998,18,female
3,ab,2,50,hl,hh,FALSE,2096.12,18,female
3,ab,2,51,hh,hh,TRUE,1277.2669999999998,18,female
3,ab,2,52,hl,hh,FALSE,7577.424999999999,18,female
3,ab,2,53,ll,hh,FALSE,2634.639,18,female
3,ab,2,54,lh,hh,FALSE,4775.07,18,female
3,ab,2,55,lh,ll,FALSE,6639.749,18,female
3,ab,2,56,hh,hh,TRUE,3742.098,18,female
3,ab,2,57,hh,ll,FALSE,4177.672,18,female
3,ab,2,58,hh,lh,FALSE,8545.448,18,female
3,ab,2,59,ll,ll,TRUE,1571.924,18,female
3,ab,2,60,hh,ll,FALSE,3723.107,18,female
3,ab,2,61,hl,hh,FALSE,2301.374,18,female
3,ab,2,62,ll,lh,FALSE,4016.874,18,female
3,ab,2,63,lh,ll,FALSE,4519.287,18,female
3,ab,2,64,lh,hh,FALSE,9401.938,18,female
3,ab,2,65,hh,ll,FALSE,5369.055,18,female
3,ab,2,66,hl,hh,FALSE,835.0419999999999,18,female
3,ab,2,67,ll,ll,TRUE,3592.0029999999997,18,female
3,ab,2,68,hh,hh,TRUE,1664.047,18,female
3,ab,2,69,hh,hl,FALSE,5341.351,18,female
3,ab,2,70,ll,ll,TRUE,5184.037,18,female
3,ab,2,71,hh,hh,TRUE,5416.75,18,female
3,ab,2,72,lh,hh,FALSE,5446.286,18,female
3,ab,2,73,lh,lh,TRUE,3971.8559999999998,18,female
3,ab,2,74,hl,lh,FALSE,6469.346,18,female
3,ab,2,75,hh,hh,TRUE,2730.029,18,female
3,ab,2,76,hh,hh,TRUE,2988.037,18,female
3,ab,2,77,hl,ll,FALSE,5156.039,18,female
3,ab,2,78,ll,ll,TRUE,3893.986,18,female
3,ab,2,79,ll,ll,TRUE,1866.1709999999998,18,female
3,ab,2,80,hh,hh,TRUE,3679.389,18,female
3,ab,2,81,lh,hh,FALSE,4905.949,18,female
3,ab,2,82,hl,hh,FALSE,12262.645,18,female
3,ab,2,83,ll,ll,TRUE,1298.424,18,female
3,ab,2,84,ll,hh,FALSE,5492.905,18,female
3,ab,2,85,hl,hh,FALSE,6025.694,18,female
3,ab,2,86,ll,lh,FALSE,7250.5380000000005,18,female
3,ab,2,87,lh,lh,TRUE,4078.2619999999997,18,female
3,ab,2,88,hh,hh,TRUE,3186.612,18,female
3,ab,2,89,ll,ll,TRUE,1906.2510000000002,18,female
3,ab,2,90,hh,hh,TRUE,6445.805,18,female
3,ab,2,91,hl,hh,FALSE,2077.169,18,female
3,ab,2,92,hl,ll,FALSE,5632.397,18,female
3,ab,2,93,ll,ll,TRUE,5190.375,18,female
3,ab,2,94,hl,ll,FALSE,2734.669,18,female
3,ab,2,95,ll,ll,TRUE,7784.356,18,female
3,ab,2,96,lh,lh,TRUE,8601.895,18,female
3,ab,2,97,hh,hh,TRUE,4689.637,18,female
3,ab,2,98,hl,ll,FALSE,1659.9140000000002,18,female
3,ab,2,99,ll,ll,TRUE,2320.819,18,female
3,ab,2,100,ll,ll,TRUE,1371.839,18,female
3,ab,2,101,hl,ll,FALSE,3427.857,18,female
3,ab,2,102,hl,ll,FALSE,1963.627,18,female
3,ab,2,103,hl,hl,TRUE,4125.28,18,female
3,ab,2,104,hl,ll,FALSE,3544.3190000000004,18,female
3,ab,2,105,ll,ll,TRUE,2249.376,18,female
3,ab,2,106,hh,hh,TRUE,4390.028,18,female
3,ab,2,107,hh,hh,TRUE,1087.353,18,female
3,ab,2,108,lh,ll,FALSE,4290.457,18,female
3,ab,2,109,hh,hh,TRUE,853.7080000000001,18,female
3,ab,2,110,hl,ll,FALSE,9996.553,18,female
3,ab,2,111,hh,hh,TRUE,3859.173,18,female
3,ab,2,112,ll,ll,TRUE,4528,18,female
3,ab,2,113,lh,hh,FALSE,4019.634,18,female
3,ab,2,114,lh,hl,FALSE,4691.09,18,female
3,ab,2,115,hl,ll,FALSE,1333.933,18,female
3,ab,2,116,ll,ll,TRUE,1881.3609999999999,18,female
3,ab,2,117,lh,hh,FALSE,3898.057,18,female
3,ab,2,118,hh,hh,TRUE,805.261,18,female
3,ab,2,119,hl,lh,FALSE,5062.771,18,female
3,ab,2,120,lh,hh,FALSE,1315.3600000000001,18,female
3,ab,3,1,lh,hh,FALSE,5872.566,18,female
3,ab,3,2,lh,hh,FALSE,2373.297,18,female
3,ab,3,3,lh,hh,FALSE,1124.2910000000002,18,female
3,ab,3,4,hh,lh,FALSE,3294.843,18,female
3,ab,3,5,ll,ll,TRUE,3980.7430000000004,18,female
3,ab,3,6,lh,hh,FALSE,1548.1680000000001,18,female
3,ab,3,7,hl,hl,TRUE,3349.673,18,female
3,ab,3,8,lh,ll,FALSE,2472.822,18,female
3,ab,3,9,lh,hh,FALSE,4618.806,18,female
3,ab,3,10,ll,ll,TRUE,2307.067,18,female
3,ab,3,11,lh,ll,FALSE,3276.429,18,female
3,ab,3,12,lh,ll,FALSE,2187.107,18,female
3,ab,3,13,lh,hh,FALSE,3546.4089999999997,18,female
3,ab,3,14,hh,hh,TRUE,1155.996,18,female
3,ab,3,15,lh,ll,FALSE,2955.629,18,female
3,ab,3,16,lh,lh,TRUE,3581.08,18,female
3,ab,3,17,lh,hh,FALSE,3734.447,18,female
3,ab,3,18,lh,lh,TRUE,3487.6679999999997,18,female
3,ab,3,19,hl,hl,TRUE,6605.233,18,female
3,ab,3,20,hl,ll,FALSE,4971.468,18,female
3,ab,3,21,hl,lh,FALSE,5460.108,18,female
3,ab,3,22,hh,hh,TRUE,3403.943,18,female
3,ab,3,23,lh,lh,TRUE,4727.581,18,female
3,ab,3,24,hh,hh,TRUE,978.6569999999999,18,female
3,ab,3,25,ll,ll,TRUE,1163.4119999999998,18,female
3,ab,3,26,ll,ll,TRUE,893.8389999999999,18,female
3,ab,3,27,hh,hh,TRUE,2169.375,18,female
3,ab,3,28,hh,hh,TRUE,977.204,18,female
3,ab,3,29,hh,hh,TRUE,1193.935,18,female
3,ab,3,30,ll,ll,TRUE,905.078,18,female
3,ab,3,31,ll,ll,TRUE,692.576,18,female
3,ab,3,32,lh,lh,TRUE,3673.0429999999997,18,female
3,ab,3,33,lh,hh,FALSE,3148.803,18,female
3,ab,3,34,ll,ll,TRUE,4486.02,18,female
3,ab,3,35,ll,ll,TRUE,4002.3410000000003,18,female
3,ab,3,36,ll,ll,TRUE,2499.452,18,female
3,ab,3,37,hl,hl,TRUE,4084.1059999999998,18,female
3,ab,3,38,lh,lh,TRUE,7192.813,18,female
3,ab,3,39,hl,hh,FALSE,2048.39,18,female
3,ab,3,40,hh,hh,TRUE,902.7070000000001,18,female
3,ab,3,41,ll,hh,FALSE,2433.364,18,female
3,ab,3,42,lh,hh,FALSE,3465.036,18,female
3,ab,3,43,lh,hh,FALSE,1005.2560000000001,18,female
3,ab,3,44,hl,ll,FALSE,4556.052,18,female
3,ab,3,45,hl,hl,TRUE,3389.1319999999996,18,female
3,ab,3,46,hh,hh,TRUE,3691.42,18,female
3,ab,3,47,lh,lh,TRUE,3912.4809999999998,18,female
3,ab,3,48,hl,hh,FALSE,1714.6080000000002,18,female
3,ab,3,49,hl,hh,FALSE,1254.152,18,female
3,ab,3,50,hl,hh,FALSE,1828.1570000000002,18,female
3,ab,3,51,ll,ll,TRUE,1289.3690000000001,18,female
3,ab,3,52,hh,hh,TRUE,1413.0990000000002,18,female
3,ab,3,53,hl,hh,FALSE,3612.5119999999997,18,female
3,ab,3,54,ll,ll,TRUE,4147.841,18,female
3,ab,3,55,hl,hh,FALSE,3842.407,18,female
3,ab,3,56,hh,hh,TRUE,956.03,18,female
3,ab,3,57,hh,hl,FALSE,2340.501,18,female
3,ab,3,58,hl,hh,FALSE,1462.4650000000001,18,female
3,ab,3,59,lh,hh,FALSE,2108.988,18,female
3,ab,3,60,hl,hh,FALSE,1791.147,18,female
3,ab,3,61,ll,ll,TRUE,3999.2569999999996,18,female
3,ab,3,62,hh,hh,TRUE,1944.0439999999999,18,female
3,ab,3,63,lh,lh,TRUE,4240.593,18,female
3,ab,3,64,lh,ll,FALSE,3456.267,18,female
3,ab,3,65,lh,hh,FALSE,1059.511,18,female
3,ab,3,66,hh,lh,FALSE,3760.76,18,female
3,ab,3,67,hh,hh,TRUE,1387.7779999999998,18,female
3,ab,3,68,hh,hh,TRUE,3706.665,18,female
3,ab,3,69,hl,hh,FALSE,1413.571,18,female
3,ab,3,70,lh,lh,TRUE,3180.51,18,female
3,ab,3,71,hh,hh,TRUE,1023.461,18,female
3,ab,3,72,ll,ll,TRUE,1014.27,18,female
3,ab,3,73,ll,ll,TRUE,3997.255,18,female
3,ab,3,74,hh,hh,TRUE,1107.402,18,female
3,ab,3,75,hl,hh,FALSE,1583.8850000000002,18,female
3,ab,3,76,lh,hh,FALSE,1830.96,18,female
3,ab,3,77,hl,hh,FALSE,4255.286,18,female
3,ab,3,78,lh,hl,FALSE,4873.819,18,female
3,ab,3,79,hh,hh,TRUE,4382.761,18,female
3,ab,3,80,ll,ll,TRUE,1295.623,18,female
3,ab,3,81,hh,hh,TRUE,2163.012,18,female
3,ab,3,82,lh,hh,FALSE,4603.824,18,female
3,ab,3,83,hl,hh,FALSE,1725.047,18,female
3,ab,3,84,hl,ll,FALSE,2229.772,18,female
3,ab,3,85,ll,ll,TRUE,716.4290000000001,18,female
3,ab,3,86,hh,hh,TRUE,1375.2890000000002,18,female
3,ab,3,87,lh,hh,FALSE,2264.174,18,female
3,ab,3,88,lh,hh,FALSE,1900.737,18,female
3,ab,3,89,lh,ll,FALSE,4001.951,18,female
3,ab,3,90,lh,hh,FALSE,2527.493,18,female
3,ab,3,91,ll,ll,TRUE,4524.025,18,female
3,ab,3,92,lh,ll,FALSE,5127.117,18,female
3,ab,3,93,hl,hl,TRUE,4593.377,18,female
3,ab,3,94,ll,ll,TRUE,3335.9709999999995,18,female
3,ab,3,95,lh,hh,FALSE,1954.337,18,female
3,ab,3,96,lh,ll,FALSE,3708.4030000000002,18,female
3,ab,3,97,ll,ll,TRUE,1088.022,18,female
3,ab,3,98,hl,hl,TRUE,3291.1319999999996,18,female
3,ab,3,99,ll,ll,TRUE,1168.3490000000002,18,female
3,ab,3,100,ll,ll,TRUE,1327.853,18,female
3,ab,3,101,hh,hh,TRUE,2080.554,18,female
3,ab,3,102,ll,lh,FALSE,5159.321,18,female
3,ab,3,103,hl,hh,FALSE,3782.648,18,female
3,ab,3,104,ll,ll,TRUE,4909.955,18,female
3,ab,3,105,hh,hh,TRUE,3466.0029999999997,18,female
3,ab,3,106,hl,hl,TRUE,2310.753,18,female
3,ab,3,107,lh,ll,FALSE,2211.278,18,female
3,ab,3,108,hl,ll,FALSE,3108.58,18,female
3,ab,3,109,lh,ll,FALSE,1924.163,18,female
3,ab,3,110,hl,lh,FALSE,6480.505,18,female
3,ab,3,111,hl,lh,FALSE,4100.431,18,female
3,ab,3,112,hh,hh,TRUE,3990.5240000000003,18,female
3,ab,3,113,hh,hh,TRUE,1288.0410000000002,18,female
3,ab,3,114,ll,ll,TRUE,1047.829,18,female
3,ab,3,115,lh,hh,FALSE,1783.2199999999998,18,female
3,ab,3,116,hl,hh,FALSE,1465.7489999999998,18,female
3,ab,3,117,hl,hh,FALSE,1684.4560000000001,18,female
3,ab,3,118,lh,ll,FALSE,3266.486,18,female
3,ab,3,119,ll,ll,TRUE,2118.342,18,female
3,ab,3,120,hl,ll,FALSE,8919.984,18,female
3,ab,4,1,hl,ll,FALSE,1611.1930000000002,18,female
3,ab,4,2,hl,ll,FALSE,1194.7420000000002,18,female
3,ab,4,3,lh,ll,FALSE,2418.471,18,female
3,ab,4,4,ll,ll,TRUE,1822.851,18,female
3,ab,4,5,lh,lh,TRUE,7462.928,18,female
3,ab,4,6,hh,hh,TRUE,4481.663,18,female
3,ab,4,7,ll,ll,TRUE,863.191,18,female
3,ab,4,8,ll,lh,FALSE,6931.704,18,female
3,ab,4,9,ll,ll,TRUE,2151.005,18,female
3,ab,4,10,hh,hh,TRUE,1186.297,18,female
3,ab,4,11,lh,hl,FALSE,5384.245,18,female
3,ab,4,12,hl,hh,FALSE,1064.071,18,female
3,ab,4,13,hl,hh,FALSE,743.0719999999999,18,female
3,ab,4,14,hh,hl,FALSE,2736.487,18,female
3,ab,4,15,hh,hh,TRUE,1235.446,18,female
3,ab,4,16,hl,hh,FALSE,1247.4029999999998,18,female
3,ab,4,17,hl,hl,TRUE,4237.82,18,female
3,ab,4,18,ll,ll,TRUE,1132.558,18,female
3,ab,4,19,hh,hh,TRUE,1667.6260000000002,18,female
3,ab,4,20,hh,hh,TRUE,914.9480000000001,18,female
3,ab,4,21,ll,ll,TRUE,1955.284,18,female
3,ab,4,22,hh,hh,TRUE,1060.44,18,female
3,ab,4,23,ll,ll,TRUE,5722.227,18,female
3,ab,4,24,ll,ll,TRUE,1575.0320000000002,18,female
3,ab,4,25,ll,ll,TRUE,686.808,18,female
3,ab,4,26,lh,hh,FALSE,2795.901,18,female
3,ab,4,27,lh,hh,FALSE,1371.493,18,female
3,ab,4,28,lh,lh,TRUE,3745.388,18,female
3,ab,4,29,lh,hh,FALSE,1451.475,18,female
3,ab,4,30,hl,hl,TRUE,3385.874,18,female
3,ab,4,31,hl,hl,TRUE,10441.25,18,female
3,ab,4,32,ll,ll,TRUE,2126.592,18,female
3,ab,4,33,ll,ll,TRUE,955.2660000000001,18,female
3,ab,4,34,hh,hh,TRUE,908.585,18,female
3,ab,4,35,hl,hh,FALSE,1494.0079999999998,18,female
3,ab,4,36,hl,hh,FALSE,2561.589,18,female
3,ab,4,37,lh,hh,FALSE,786.738,18,female
3,ab,4,38,lh,hh,FALSE,1226.545,18,female
3,ab,4,39,ll,lh,FALSE,3632.9179999999997,18,female
3,ab,4,40,hh,hh,TRUE,1073.5010000000002,18,female
3,ab,4,41,hh,hh,TRUE,3884.1189999999997,18,female
3,ab,4,42,lh,ll,FALSE,2567.938,18,female
3,ab,4,43,hh,hh,TRUE,1291.993,18,female
3,ab,4,44,ll,lh,FALSE,5860.74,18,female
3,ab,4,45,hl,ll,FALSE,5010.245,18,female
3,ab,4,46,hl,ll,FALSE,4091.273,18,female
3,ab,4,47,lh,hh,FALSE,1317.915,18,female
3,ab,4,48,ll,ll,TRUE,1930.967,18,female
3,ab,4,49,hl,hl,TRUE,3012.594,18,female
3,ab,4,50,lh,hh,FALSE,4618.431,18,female
3,ab,4,51,ll,hh,FALSE,1975.6750000000002,18,female
3,ab,4,52,hl,lh,FALSE,6786.877,18,female
3,ab,4,53,hh,hh,TRUE,968.424,18,female
3,ab,4,54,lh,hh,FALSE,835.5509999999999,18,female
3,ab,4,55,lh,hh,FALSE,1279.1350000000002,18,female
3,ab,4,56,hl,ll,FALSE,2765.689,18,female
3,ab,4,57,hh,hl,FALSE,2862.664,18,female
3,ab,4,58,lh,hh,FALSE,6345.204,18,female
3,ab,4,59,hl,hh,FALSE,2036.101,18,female
3,ab,4,60,hh,hl,FALSE,3348.6049999999996,18,female
3,ab,4,61,ll,ll,TRUE,1146.024,18,female
3,ab,4,62,hl,ll,FALSE,2046.768,18,female
3,ab,4,63,ll,ll,TRUE,660.472,18,female
3,ab,4,64,lh,hh,FALSE,2096.474,18,female
3,ab,4,65,hl,hl,TRUE,5651.279,18,female
3,ab,4,66,hh,hh,TRUE,2072.986,18,female
3,ab,4,67,ll,ll,TRUE,933.2819999999999,18,female
3,ab,4,68,hh,hl,FALSE,2919.864,18,female
3,ab,4,69,ll,ll,TRUE,5371.274,18,female
3,ab,4,70,lh,hh,FALSE,2147.676,18,female
3,ab,4,71,ll,lh,FALSE,4351.647,18,female
3,ab,4,72,ll,ll,TRUE,1718.123,18,female
3,ab,4,73,lh,lh,TRUE,4545.153,18,female
3,ab,4,74,hh,ll,FALSE,5690.241,18,female
3,ab,4,75,hl,ll,FALSE,3545.58,18,female
3,ab,4,76,hh,hh,TRUE,2712.512,18,female
3,ab,4,77,ll,hh,FALSE,3683.9709999999995,18,female
3,ab,4,78,ll,ll,TRUE,1015.905,18,female
3,ab,4,79,hh,hh,TRUE,1119.9940000000001,18,female
3,ab,4,80,hl,hl,TRUE,5066.278,18,female
3,ab,4,81,hl,ll,FALSE,6669.975,18,female
3,ab,4,82,ll,ll,TRUE,924.0730000000001,18,female
3,ab,4,83,hh,hl,FALSE,2412.804,18,female
3,ab,4,84,ll,ll,TRUE,1108.3049999999998,18,female
3,ab,4,85,lh,hh,FALSE,2607.742,18,female
3,ab,4,86,ll,ll,TRUE,946.011,18,female
3,ab,4,87,lh,hh,FALSE,1018.3620000000001,18,female
3,ab,4,88,ll,ll,TRUE,921.568,18,female
3,ab,4,89,lh,hh,FALSE,2676.023,18,female
3,ab,4,90,ll,ll,TRUE,2464.858,18,female
3,ab,4,91,hl,hh,FALSE,1770.5349999999999,18,female
3,ab,4,92,ll,ll,TRUE,3259.5820000000003,18,female
3,ab,4,93,hh,hh,TRUE,2593.583,18,female
3,ab,4,94,hl,lh,FALSE,7121.413,18,female
3,ab,4,95,ll,lh,FALSE,7677.137000000001,18,female
3,ab,4,96,hl,ll,FALSE,2015.1819999999998,18,female
3,ab,4,97,ll,ll,TRUE,2069.548,18,female
3,ab,4,98,hl,ll,FALSE,3274.335,18,female
3,ab,4,99,lh,hh,FALSE,1336.417,18,female
3,ab,4,100,hl,ll,FALSE,5595.174,18,female
3,ab,4,101,hh,hh,TRUE,1081.087,18,female
3,ab,4,102,hh,hh,TRUE,736.5440000000001,18,female
3,ab,4,103,ll,ll,TRUE,1247.6480000000001,18,female
3,ab,4,104,lh,hh,FALSE,1759.342,18,female
3,ab,4,105,hl,lh,FALSE,4696.995,18,female
3,ab,4,106,lh,ll,FALSE,5122.927,18,female
3,ab,4,107,ll,ll,TRUE,1054.484,18,female
3,ab,4,108,hh,hh,TRUE,825.674,18,female
3,ab,4,109,lh,lh,TRUE,5319.413,18,female
3,ab,4,110,ll,lh,FALSE,3485.081,18,female
3,ab,4,111,lh,hh,FALSE,1103.6280000000002,18,female
3,ab,4,112,ll,lh,FALSE,3187.5429999999997,18,female
3,ab,4,113,ll,ll,TRUE,1068.274,18,female
3,ab,4,114,ll,ll,TRUE,961.24,18,female
3,ab,4,115,hh,hh,TRUE,831.9760000000001,18,female
3,ab,4,116,hh,hh,TRUE,2583.086,18,female
3,ab,4,117,hh,hh,TRUE,805.598,18,female
3,ab,4,118,lh,lh,TRUE,3629.308,18,female
3,ab,4,119,lh,hh,FALSE,2212.759,18,female
3,ab,4,120,hh,hh,TRUE,1203.8000000000002,18,female
3,ab,5,1,hl,ll,FALSE,5315.323,18,female
3,ab,5,2,hh,lh,FALSE,5174.753,18,female
3,ab,5,3,hh,hh,TRUE,1031.008,18,female
3,ab,5,4,lh,lh,TRUE,6501.804,18,female
3,ab,5,5,ll,ll,TRUE,1376.8850000000002,18,female
3,ab,5,6,hl,hl,TRUE,3778.8819999999996,18,female
3,ab,5,7,lh,lh,TRUE,6155.105,18,female
3,ab,5,8,hl,hh,FALSE,1037.494,18,female
3,ab,5,9,lh,hh,FALSE,4224.901,18,female
3,ab,5,10,hh,hh,TRUE,887.2819999999999,18,female
3,ab,5,11,lh,lh,TRUE,4108.864,18,female
3,ab,5,12,lh,ll,FALSE,3297.58,18,female
3,ab,5,13,hh,hh,TRUE,1197.0030000000002,18,female
3,ab,5,14,lh,lh,TRUE,5250.923,18,female
3,ab,5,15,hh,hh,TRUE,5474.631,18,female
3,ab,5,16,ll,ll,TRUE,1044.91,18,female
3,ab,5,17,lh,hh,FALSE,1803.8780000000002,18,female
3,ab,5,18,hh,hh,TRUE,1108.009,18,female
3,ab,5,19,hh,hl,FALSE,4591.288,18,female
3,ab,5,20,hl,ll,FALSE,1102.9879999999998,18,female
3,ab,5,21,lh,hh,FALSE,2705.608,18,female
3,ab,5,22,hh,hh,TRUE,1997.348,18,female
3,ab,5,23,lh,lh,TRUE,4763.866,18,female
3,ab,5,24,lh,ll,FALSE,3606.192,18,female
3,ab,5,25,ll,lh,FALSE,4162.633,18,female
3,ab,5,26,lh,lh,TRUE,7582.762000000001,18,female
3,ab,5,27,hh,hh,TRUE,1142.6170000000002,18,female
3,ab,5,28,hl,hl,TRUE,7190.491,18,female
3,ab,5,29,hh,hh,TRUE,1344.3600000000001,18,female
3,ab,5,30,ll,ll,TRUE,1608.4389999999999,18,female
3,ab,5,31,lh,lh,TRUE,3145.9489999999996,18,female
3,ab,5,32,lh,hh,FALSE,1899.3490000000002,18,female
3,ab,5,33,hl,hh,FALSE,1742.993,18,female
3,ab,5,34,hl,ll,FALSE,3141.898,18,female
3,ab,5,35,hh,hh,TRUE,912.0329999999999,18,female
3,ab,5,36,ll,ll,TRUE,1886.4409999999998,18,female
3,ab,5,37,ll,hh,FALSE,4776.347,18,female
3,ab,5,38,hh,hh,TRUE,1168.4850000000001,18,female
3,ab,5,39,lh,hh,FALSE,3610.1310000000003,18,female
3,ab,5,40,hl,ll,FALSE,4890.057,18,female
3,ab,5,41,hh,hh,TRUE,676.1220000000001,18,female
3,ab,5,42,ll,lh,FALSE,7739.8060000000005,18,female
3,ab,5,43,hh,hh,TRUE,770.9459999999999,18,female
3,ab,5,44,hh,hh,TRUE,995.9069999999999,18,female
3,ab,5,45,lh,lh,TRUE,5660.857,18,female
3,ab,5,46,hl,hh,FALSE,2888.125,18,female
3,ab,5,47,ll,ll,TRUE,5334.84,18,female
3,ab,5,48,lh,lh,TRUE,5945.609,18,female
3,ab,5,49,hl,hh,FALSE,938.5350000000001,18,female
3,ab,5,50,ll,ll,TRUE,4884.046,18,female
3,ab,5,51,hh,hh,TRUE,637.5509999999999,18,female
3,ab,5,52,hh,hh,TRUE,2575.14,18,female
3,ab,5,53,hh,hh,TRUE,1575.335,18,female
3,ab,5,54,hh,ll,FALSE,5500.671,18,female
3,ab,5,55,hl,ll,FALSE,906.021,18,female
3,ab,5,56,ll,ll,TRUE,3422.477,18,female
3,ab,5,57,hh,hh,TRUE,1241.743,18,female
3,ab,5,58,ll,ll,TRUE,1121.804,18,female
3,ab,5,59,lh,hh,FALSE,2267.728,18,female
3,ab,5,60,ll,lh,FALSE,4578.592,18,female
3,ab,5,61,hl,hh,FALSE,3536.1220000000003,18,female
3,ab,5,62,hh,hh,TRUE,2306.536,18,female
3,ab,5,63,ll,ll,TRUE,2664.488,18,female
3,ab,5,64,ll,ll,TRUE,5058.865,18,female
3,ab,5,65,hl,hl,TRUE,6249.565,18,female
3,ab,5,66,hl,hh,FALSE,1100.8029999999999,18,female
3,ab,5,67,ll,ll,TRUE,1241.7620000000002,18,female
3,ab,5,68,ll,ll,TRUE,2093.555,18,female
3,ab,5,69,hh,hh,TRUE,1577.75,18,female
3,ab,5,70,hl,ll,FALSE,3940.8590000000004,18,female
3,ab,5,71,ll,ll,TRUE,1916.4520000000002,18,female
3,ab,5,72,lh,lh,TRUE,6751.553,18,female
3,ab,5,73,ll,ll,TRUE,1320.4520000000002,18,female
3,ab,5,74,hh,hh,TRUE,4275.206,18,female
3,ab,5,75,ll,lh,FALSE,5920.885,18,female
3,ab,5,76,hh,hh,TRUE,845.953,18,female
3,ab,5,77,lh,hh,FALSE,920.4559999999999,18,female
3,ab,5,78,ll,ll,TRUE,1987.279,18,female
3,ab,5,79,lh,ll,FALSE,5357.796,18,female
3,ab,5,80,ll,hh,FALSE,8292.172,18,female
3,ab,5,81,ll,ll,TRUE,1047.935,18,female
3,ab,5,82,ll,ll,TRUE,1488.937,18,female
3,ab,5,83,lh,ll,FALSE,1723.955,18,female
3,ab,5,84,hl,lh,FALSE,4515.254,18,female
3,ab,5,85,ll,ll,TRUE,933.4670000000001,18,female
3,ab,5,86,hl,ll,FALSE,5208.725,18,female
3,ab,5,87,ll,hh,FALSE,3458.639,18,female
3,ab,5,88,hl,lh,FALSE,7777.058000000001,18,female
3,ab,5,89,hl,ll,FALSE,3399.237,18,female
3,ab,5,90,ll,ll,TRUE,4287.816,18,female
3,ab,5,91,hl,ll,FALSE,10362.464,18,female
3,ab,5,92,hl,hl,TRUE,7267.18,18,female
3,ab,5,93,hh,hh,TRUE,3497.482,18,female
3,ab,5,94,hh,hh,TRUE,3022.038,18,female
3,ab,5,95,ll,ll,TRUE,1033.887,18,female
3,ab,5,96,hh,hh,TRUE,6633.935,18,female
3,ab,5,97,ll,ll,TRUE,3680.2160000000003,18,female
3,ab,5,98,ll,ll,TRUE,4691.922,18,female
3,ab,5,99,hl,hl,TRUE,4046.0919999999996,18,female
3,ab,5,100,ll,ll,TRUE,2859.903,18,female
3,ab,5,101,ll,ll,TRUE,1316.0700000000002,18,female
3,ab,5,102,hl,hl,TRUE,6165.986,18,female
3,ab,5,103,ll,hh,FALSE,2700.602,18,female
3,ab,5,104,hl,hl,TRUE,6033.592,18,female
3,ab,5,105,hh,hh,TRUE,6017.595,18,female
3,ab,5,106,hh,hh,TRUE,1247.1680000000001,18,female
3,ab,5,107,lh,hh,FALSE,3964.0789999999997,18,female
3,ab,5,108,lh,lh,TRUE,5502.486,18,female
3,ab,5,109,lh,ll,FALSE,6274.106,18,female
3,ab,5,110,ll,ll,TRUE,1934.0970000000002,18,female
3,ab,5,111,ll,ll,TRUE,1341.4340000000002,18,female
3,ab,5,112,hh,hl,FALSE,4050.192,18,female
3,ab,5,113,hh,hh,TRUE,1727.4569999999999,18,female
3,ab,5,114,lh,ll,FALSE,3600.423,18,female
3,ab,5,115,hl,hh,FALSE,1597.8000000000002,18,female
3,ab,5,116,lh,ll,FALSE,4374.833,18,female
3,ab,5,117,hh,hl,FALSE,5297.925,18,female
3,ab,5,118,ll,ll,TRUE,960.193,18,female
3,ab,5,119,hl,hh,FALSE,3170.3549999999996,18,female
3,ab,5,120,hh,hh,TRUE,6390.304,18,female
