pID,condition,block_no,trial_no,stimulus,response,correct,rt,age,gender
2,bc,1,1,ll,ll,TRUE,4734.074,18,female
2,bc,1,2,lh,ll,FALSE,2560.303,18,female
2,bc,1,3,hh,hl,FALSE,4428.801,18,female
2,bc,1,4,ll,ll,TRUE,1577.2779999999998,18,female
2,bc,1,5,lh,ll,FALSE,8134.514999999999,18,female
2,bc,1,6,hl,hl,TRUE,3824.6670000000004,18,female
2,bc,1,7,hh,ll,FALSE,2646.754,18,female
2,bc,1,8,lh,ll,FALSE,2614.983,18,female
2,bc,1,9,hh,hl,FALSE,11263.73,18,female
2,bc,1,10,hh,ll,FALSE,2007.766,18,female
2,bc,1,11,ll,hl,FALSE,4450.427,18,female
2,bc,1,12,hl,hl,TRUE,5213.976,18,female
2,bc,1,13,ll,ll,TRUE,4210.689,18,female
2,bc,1,14,lh,hl,FALSE,4751.643,18,female
2,bc,1,15,lh,ll,FALSE,1416.7669999999998,18,female
2,bc,1,16,hl,lh,FALSE,4468.667,18,female
2,bc,1,17,hh,lh,FALSE,2880.64,18,female
2,bc,1,18,lh,ll,FALSE,1222.4319999999998,18,female
2,bc,1,19,hl,hl,TRUE,3553.9049999999997,18,female
2,bc,1,20,lh,ll,FALSE,7867.717000000001,18,female
2,bc,1,21,ll,ll,TRUE,1519.7649999999999,18,female
2,bc,1,22,hh,hl,FALSE,2280.612,18,female
2,bc,1,23,ll,ll,TRUE,1767.4279999999999,18,female
2,bc,1,24,lh,ll,FALSE,1067.9899999999998,18,female
2,bc,1,25,hl,hl,TRUE,5894.998,18,female
2,bc,1,26,hl,hh,FALSE,5087.219,18,female
2,bc,1,27,ll,ll,TRUE,1169.266,18,female
2,bc,1,28,ll,ll,TRUE,975.241,18,female
2,bc,1,29,lh,ll,FALSE,893.223,18,female
2,bc,1,30,hl,hl,TRUE,4046.7129999999997,18,female
2,bc,1,31,hh,lh,FALSE,4251.248,18,female
2,bc,1,32,hh,hh,TRUE,3849.2439999999997,18,female
2,bc,1,33,ll,ll,TRUE,1246.2379999999998,18,female
2,bc,1,34,lh,ll,FALSE,1000.8820000000001,18,female
2,bc,1,35,hl,hl,TRUE,7751.035,18,female
2,bc,1,36,lh,hl,FALSE,3191.9539999999997,18,female
2,bc,1,37,hl,hh,FALSE,2736.81,18,female
2,bc,1,38,hl,lh,FALSE,4725.485,18,female
2,bc,1,39,hh,hh,TRUE,5654.754,18,female
2,bc,1,40,ll,ll,TRUE,1105.759,18,female
2,bc,1,41,hh,hh,TRUE,1553.654,18,female
2,bc,1,42,hh,ll,FALSE,5999.575,18,female
2,bc,1,43,hl,hh,FALSE,3075.542,18,female
2,bc,1,44,ll,ll,TRUE,3048.852,18,female
2,bc,1,45,hh,hl,FALSE,3343.991,18,female
2,bc,1,46,hl,hl,TRUE,3122.6859999999997,18,female
2,bc,1,47,ll,hl,FALSE,4430.455,18,female
2,bc,1,48,lh,hl,FALSE,6476.25,18,female
2,bc,1,49,hl,ll,FALSE,4315.778,18,female
2,bc,1,50,ll,ll,TRUE,3734.2690000000002,18,female
2,bc,1,51,hh,lh,FALSE,2992.69,18,female
2,bc,1,52,lh,ll,FALSE,1170.277,18,female
2,bc,1,53,ll,ll,TRUE,880.3910000000001,18,female
2,bc,1,54,ll,ll,TRUE,1441.6909999999998,18,female
2,bc,1,55,hh,ll,FALSE,4868.576,18,female
2,bc,1,56,hl,hl,TRUE,5967.07,18,female
2,bc,1,57,hl,hh,FALSE,6757.058,18,female
2,bc,1,58,ll,ll,TRUE,2080.114,18,female
2,bc,1,59,hh,hh,TRUE,2376.238,18,female
2,bc,1,60,hh,ll,FALSE,3746.683,18,female
2,bc,1,61,hh,hh,TRUE,5165.147,18,female
2,bc,1,62,lh,lh,TRUE,3115.353,18,female
2,bc,1,63,hl,hl,TRUE,3503.974,18,female
2,bc,1,64,hl,ll,FALSE,7676.293,18,female
2,bc,1,65,lh,ll,FALSE,1546.0520000000001,18,female
2,bc,1,66,hh,hh,TRUE,1360.6129999999998,18,female
2,bc,1,67,lh,ll,FALSE,1045.359,18,female
2,bc,1,68,hl,lh,FALSE,6681.778,18,female
2,bc,1,69,hl,hh,FALSE,3838.1639999999998,18,female
2,bc,1,70,hh,hh,TRUE,1325.966,18,female
2,bc,1,71,lh,ll,FALSE,1245.703,18,female
2,bc,1,72,ll,ll,TRUE,2328.359,18,female
2,bc,1,73,hh,hl,FALSE,9501.115,18,female
2,bc,1,74,ll,ll,TRUE,2422.751,18,female
2,bc,1,75,lh,ll,FALSE,3303.8990000000003,18,female
2,bc,1,76,hl,lh,FALSE,3364.5429999999997,18,female
2,bc,1,77,hh,hl,FALSE,4998.14,18,female
2,bc,1,78,hl,hl,TRUE,6059.61,18,female
2,bc,1,79,lh,ll,FALSE,8805.332,18,female
2,bc,1,80,ll,ll,TRUE,1021.1890000000001,18,female
2,bc,1,81,ll,hl,FALSE,2359.164,18,female
2,bc,1,82,hh,hh,TRUE,3306.7070000000003,18,female
2,bc,1,83,ll,ll,TRUE,2168.064,18,female
2,bc,1,84,hl,ll,FALSE,1508.0349999999999,18,female
2,bc,1,85,lh,hh,FALSE,2666.997,18,female
2,bc,1,86,hh,hl,FALSE,2923.036,18,female
2,bc,1,87,ll,hl,FALSE,4575.591,18,female
2,bc,1,88,hh,ll,FALSE,4015.6049999999996,18,female
2,bc,1,89,lh,ll,FALSE,2549.908,18,female
2,bc,1,90,ll,ll,TRUE,3313.804,18,female
2,bc,1,91,hh,hh,TRUE,3262.492,18,female
2,bc,1,92,hl,lh,FALSE,4291.798,18,female
2,bc,1,93,ll,ll,TRUE,2583.572,18,female
2,bc,1,94,lh,hh,FALSE,6282.942,18,female
2,bc,1,95,ll,hl,FALSE,3595.246,18,female
2,bc,1,96,ll,ll,TRUE,5946.501,18,female
2,bc,1,97,ll,ll,TRUE,1128.467,18,female
2,bc,1,98,hh,hh,TRUE,1847.5520000000001,18,female
2,bc,1,99,lh,ll,FALSE,1057.609,18,female
2,bc,1,100,hl,hl,TRUE,5003.928,18,female
2,bc,1,101,lh,hl,FALSE,2593.022,18,female
2,bc,1,102,lh,ll,FALSE,2923.063,18,female
2,bc,1,103,lh,ll,FALSE,1840.801,18,female
2,bc,1,104,hl,lh,FALSE,4209.867,18,female
2,bc,1,105,hh,hl,FALSE,3360.392,18,female
2,bc,1,106,hh,hh,TRUE,2130.391,18,female
2,bc,1,107,hl,hh,FALSE,1928.1509999999998,18,female
2,bc,1,108,hh,hl,FALSE,4222.781,18,female
2,bc,1,109,hl,hh,FALSE,6403.939,18,female
2,bc,1,110,lh,ll,FALSE,3088.001,18,female
2,bc,1,111,hh,ll,FALSE,1644.9830000000002,18,female
2,bc,1,112,lh,ll,FALSE,966.518,18,female
2,bc,1,113,hl,hl,TRUE,2885.196,18,female
2,bc,1,114,ll,ll,TRUE,3940.0389999999998,18,female
2,bc,1,115,hl,hl,TRUE,2533.509,18,female
2,bc,1,116,hl,hh,FALSE,3698.29,18,female
2,bc,1,117,lh,hh,FALSE,1158.522,18,female
2,bc,1,118,ll,lh,FALSE,4845.331,18,female
2,bc,1,119,lh,ll,FALSE,1215.446,18,female
2,bc,1,120,hh,hh,TRUE,1812.317,18,female
2,bc,2,1,hl,hh,FALSE,5711.971,18,female
2,bc,2,2,hh,hh,TRUE,1455.44,18,female
2,bc,2,3,ll,ll,TRUE,7920.019,18,female
2,bc,2,4,hl,hl,TRUE,4668.684,18,female
2,bc,2,5,lh,ll,FALSE,1961.103,18,female
2,bc,2,6,hl,ll,FALSE,2900.164,18,female
2,bc,2,7,ll,ll,TRUE,1313.8400000000001,18,female
2,bc,2,8,ll,ll,TRUE,898.219,18,female
2,bc,2,9,hh,hh,TRUE,2907.342,18,female
2,bc,2,10,ll,hl,FALSE,2674,18,female
2,bc,2,11,lh,hl,FALSE,2374.804,18,female
2,bc,2,12,lh,hl,FALSE,2359.997,18,female
2,bc,2,13,hl,lh,FALSE,5511.692,18,female
2,bc,2,14,hl,hl,TRUE,3391.33,18,female
2,bc,2,15,hh,hh,TRUE,1672.636,18,female
2,bc,2,16,hl,hl,TRUE,4022.938,18,female
2,bc,2,17,hl,hl,TRUE,2111.142,18,female
2,bc,2,18,hh,lh,FALSE,4933.352,18,female
2,bc,2,19,lh,ll,FALSE,8494.382,18,female
2,bc,2,20,hh,hh,TRUE,3072.856,18,female
2,bc,2,21,hl,hl,TRUE,5231.256,18,female
2,bc,2,22,hh,hl,FALSE,4675.175,18,female
2,bc,2,23,hl,hl,TRUE,3894.307,18,female
2,bc,2,24,ll,hl,FALSE,3546.9089999999997,18,female
2,bc,2,25,hl,hh,FALSE,1853.578,18,female
2,bc,2,26,hh,hh,TRUE,1110.0700000000002,18,female
2,bc,2,27,hh,hh,TRUE,3141.977,18,female
2,bc,2,28,lh,ll,FALSE,5551.928,18,female
2,bc,2,29,hl,hl,TRUE,2008.058,18,female
2,bc,2,30,hl,hh,FALSE,1305.589,18,female
2,bc,2,31,ll,ll,TRUE,4034.0420000000004,18,female
2,bc,2,32,hh,hh,TRUE,2711.193,18,female
2,bc,2,33,ll,ll,TRUE,1852.8139999999999,18,female
2,bc,2,34,ll,ll,TRUE,1631.6660000000002,18,female
2,bc,2,35,ll,ll,TRUE,2280.892,18,female
2,bc,2,36,lh,hl,FALSE,2776.338,18,female
2,bc,2,37,hh,hh,TRUE,1314.759,18,female
2,bc,2,38,lh,ll,FALSE,1034.661,18,female
2,bc,2,39,hl,hh,FALSE,3902.124,18,female
2,bc,2,40,hh,hh,TRUE,1019.259,18,female
2,bc,2,41,ll,ll,TRUE,1527.8319999999999,18,female
2,bc,2,42,lh,ll,FALSE,1069.2220000000002,18,female
2,bc,2,43,hl,hl,TRUE,5480.275,18,female
2,bc,2,44,hh,hh,TRUE,1751.3249999999998,18,female
2,bc,2,45,lh,hh,FALSE,4350.53,18,female
2,bc,2,46,hl,hl,TRUE,2824.496,18,female
2,bc,2,47,ll,ll,TRUE,5087.878,18,female
2,bc,2,48,hl,hl,TRUE,4442.27,18,female
2,bc,2,49,hh,lh,FALSE,5702.333,18,female
2,bc,2,50,hl,hl,TRUE,8032.101000000001,18,female
2,bc,2,51,hl,hl,TRUE,4685.067,18,female
2,bc,2,52,lh,ll,FALSE,2225.009,18,female
2,bc,2,53,hh,hh,TRUE,1361.484,18,female
2,bc,2,54,lh,hh,FALSE,1487.259,18,female
2,bc,2,55,lh,ll,FALSE,1560.2939999999999,18,female
2,bc,2,56,hh,hh,TRUE,1461.165,18,female
2,bc,2,57,hl,hh,FALSE,1231.225,18,female
2,bc,2,58,hh,lh,FALSE,3451.214,18,female
2,bc,2,59,ll,ll,TRUE,1553.5100000000002,18,female
2,bc,2,60,hl,hl,TRUE,2265.15,18,female
2,bc,2,61,ll,hl,FALSE,4391.324,18,female
2,bc,2,62,hh,hh,TRUE,5278.893,18,female
2,bc,2,63,lh,hl,FALSE,3135.977,18,female
2,bc,2,64,ll,hl,FALSE,2955.75,18,female
2,bc,2,65,hl,hl,TRUE,6358.998,18,female
2,bc,2,66,ll,ll,TRUE,9228.182,18,female
2,bc,2,67,hl,hh,FALSE,3281.79,18,female
2,bc,2,68,lh,ll,FALSE,5893.717,18,female
2,bc,2,69,lh,ll,FALSE,2918.53,18,female
2,bc,2,70,hl,ll,FALSE,5219.345,18,female
2,bc,2,71,hh,lh,FALSE,4775.696,18,female
2,bc,2,72,lh,ll,FALSE,1726.603,18,female
2,bc,2,73,lh,ll,FALSE,4085.549,18,female
2,bc,2,74,ll,ll,TRUE,2297.462,18,female
2,bc,2,75,hh,hh,TRUE,2263.748,18,female
2,bc,2,76,hh,hh,TRUE,991.586,18,female
2,bc,2,77,hl,hl,TRUE,1524.9679999999998,18,female
2,bc,2,78,lh,ll,FALSE,2692.087,18,female
2,bc,2,79,ll,ll,TRUE,4488.141,18,female
2,bc,2,80,hl,hh,FALSE,2900.365,18,female
2,bc,2,81,lh,lh,TRUE,4656.983,18,female
2,bc,2,82,hl,hh,FALSE,4949.866,18,female
2,bc,2,83,ll,ll,TRUE,1276.2820000000002,18,female
2,bc,2,84,ll,ll,TRUE,1030.509,18,female
2,bc,2,85,ll,ll,TRUE,793.758,18,female
2,bc,2,86,lh,ll,FALSE,1560.812,18,female
2,bc,2,87,lh,ll,FALSE,6428.927,18,female
2,bc,2,88,hh,ll,FALSE,7663.518,18,female
2,bc,2,89,hl,hl,TRUE,2550.74,18,female
2,bc,2,90,lh,ll,FALSE,1274.799,18,female
2,bc,2,91,hh,lh,FALSE,3746.005,18,female
2,bc,2,92,hh,hh,TRUE,3861.831,18,female
2,bc,2,93,lh,ll,FALSE,3217.879,18,female
2,bc,2,94,ll,ll,TRUE,1097.2979999999998,18,female
2,bc,2,95,hl,hl,TRUE,3012.003,18,female
2,bc,2,96,hh,hh,TRUE,5403.802,18,female
2,bc,2,97,hl,hl,TRUE,2471.477,18,female
2,bc,2,98,ll,ll,TRUE,4488.354,18,female
2,bc,2,99,lh,hh,FALSE,3165.5609999999997,18,female
2,bc,2,100,hh,lh,FALSE,8836.761,18,female
2,bc,2,101,lh,hl,FALSE,4936.027,18,female
2,bc,2,102,ll,hh,FALSE,3297.411,18,female
2,bc,2,103,hh,hh,TRUE,1855.08,18,female
2,bc,2,104,hl,ll,FALSE,4392.327,18,female
2,bc,2,105,ll,ll,TRUE,911.117,18,female
2,bc,2,106,hh,ll,FALSE,1072.366,18,female
2,bc,2,107,hl,hh,FALSE,2377.242,18,female
2,bc,2,108,hl,lh,FALSE,6542.294,18,female
2,bc,2,109,hh,hh,TRUE,1402.7579999999998,18,female
2,bc,2,110,hh,lh,FALSE,3917.9449999999997,18,female
2,bc,2,111,ll,hl,FALSE,2457.949,18,female
2,bc,2,112,hh,hl,FALSE,1647.7869999999998,18,female
2,bc,2,113,lh,ll,FALSE,1561.7089999999998,18,female
2,bc,2,114,hl,ll,FALSE,1119.109,18,female
2,bc,2,115,lh,ll,FALSE,1129.2489999999998,18,female
2,bc,2,116,ll,lh,FALSE,4511.149,18,female
2,bc,2,117,lh,lh,TRUE,2113.644,18,female
2,bc,2,118,hl,hh,FALSE,2615.576,18,female
2,bc,2,119,ll,ll,TRUE,1384.8029999999999,18,female
2,bc,2,120,hl,lh,FALSE,4582.631,18,female
2,bc,3,1,hl,hl,TRUE,2439.224,18,female
2,bc,3,2,ll,ll,TRUE,2318.616,18,female
2,bc,3,3,lh,hl,FALSE,4420.536,18,female
2,bc,3,4,lh,ll,FALSE,1242.295,18,female
2,bc,3,5,ll,ll,TRUE,5020.278,18,female
2,bc,3,6,ll,ll,TRUE,1104.946,18,female
2,bc,3,7,ll,ll,TRUE,1145.6689999999999,18,female
2,bc,3,8,lh,hl,FALSE,3513.018,18,female
2,bc,3,9,hh,lh,FALSE,4428.782,18,female
2,bc,3,10,lh,lh,TRUE,1745.9920000000002,18,female
2,bc,3,11,hl,ll,FALSE,7454.9169999999995,18,female
2,bc,3,12,hl,hl,TRUE,7765.442999999999,18,female
2,bc,3,13,hh,hl,FALSE,2455.009,18,female
2,bc,3,14,hl,ll,FALSE,1418.295,18,female
2,bc,3,15,hh,ll,FALSE,1475.632,18,female
2,bc,3,16,lh,ll,FALSE,1101.1930000000002,18,female
2,bc,3,17,ll,ll,TRUE,2951.267,18,female
2,bc,3,18,hl,hl,TRUE,3688.8059999999996,18,female
2,bc,3,19,hh,lh,FALSE,5757.846,18,female
2,bc,3,20,lh,lh,TRUE,2467.45,18,female
2,bc,3,21,ll,ll,TRUE,3260.1679999999997,18,female
2,bc,3,22,lh,hl,FALSE,3034.389,18,female
2,bc,3,23,hh,hl,FALSE,1962.1260000000002,18,female
2,bc,3,24,ll,ll,TRUE,2254.553,18,female
2,bc,3,25,hh,lh,FALSE,4150.736,18,female
2,bc,3,26,lh,ll,FALSE,9383.195,18,female
2,bc,3,27,hl,ll,FALSE,3309.8140000000003,18,female
2,bc,3,28,hh,hl,FALSE,3025.316,18,female
2,bc,3,29,hh,ll,FALSE,3929.7830000000004,18,female
2,bc,3,30,hl,hl,TRUE,2235.785,18,female
2,bc,3,31,ll,ll,TRUE,1214.212,18,female
2,bc,3,32,hh,ll,FALSE,3273.077,18,female
2,bc,3,33,ll,hl,FALSE,2953.007,18,female
2,bc,3,34,lh,ll,FALSE,1052.0549999999998,18,female
2,bc,3,35,lh,ll,FALSE,1325.8519999999999,18,female
2,bc,3,36,hl,ll,FALSE,2077.333,18,female
2,bc,3,37,hh,hh,TRUE,1452.319,18,female
2,bc,3,38,hl,hh,FALSE,1398.665,18,female
2,bc,3,39,lh,hl,FALSE,1546.7800000000002,18,female
2,bc,3,40,lh,hh,FALSE,1695.8090000000002,18,female
2,bc,3,41,hl,hl,TRUE,2225.246,18,female
2,bc,3,42,ll,hl,FALSE,1803.3359999999998,18,female
2,bc,3,43,hh,lh,FALSE,2469.2,18,female
2,bc,3,44,lh,lh,TRUE,3109.0069999999996,18,female
2,bc,3,45,hl,hl,TRUE,3712.9759999999997,18,female
2,bc,3,46,hh,lh,FALSE,8884.862,18,female
2,bc,3,47,hh,ll,FALSE,1894.8519999999999,18,female
2,bc,3,48,lh,ll,FALSE,3272.4539999999997,18,female
2,bc,3,49,hh,hh,TRUE,1148.661,18,female
2,bc,3,50,lh,ll,FALSE,4380.255,18,female
2,bc,3,51,hl,lh,FALSE,3019.7,18,female
2,bc,3,52,lh,hl,FALSE,3771.9399999999996,18,female
2,bc,3,53,hh,hh,TRUE,1453.317,18,female
2,bc,3,54,hh,hh,TRUE,2055.665,18,female
2,bc,3,55,ll,hl,FALSE,2991.888,18,female
2,bc,3,56,lh,ll,FALSE,1025.296,18,female
2,bc,3,57,hl,hl,TRUE,1694.0459999999998,18,female
2,bc,3,58,lh,hl,FALSE,1158.645,18,female
2,bc,3,59,ll,hh,FALSE,1947.38,18,female
2,bc,3,60,hl,ll,FALSE,3624.9750000000004,18,female
2,bc,3,61,hh,ll,FALSE,3680.1679999999997,18,female
2,bc,3,62,hh,hh,TRUE,2460.86,18,female
2,bc,3,63,hl,hh,FALSE,1299.995,18,female
2,bc,3,64,lh,ll,FALSE,974.595,18,female
2,bc,3,65,lh,hl,FALSE,2995.755,18,female
2,bc,3,66,hh,ll,FALSE,2397.913,18,female
2,bc,3,67,hl,lh,FALSE,4407.705,18,female
2,bc,3,68,hl,hl,TRUE,1420.813,18,female
2,bc,3,69,hh,lh,FALSE,3896.5420000000004,18,female
2,bc,3,70,hl,lh,FALSE,7436.103999999999,18,female
2,bc,3,71,lh,ll,FALSE,1315.208,18,female
2,bc,3,72,ll,ll,TRUE,2605.49,18,female
2,bc,3,73,hh,hh,TRUE,2831.415,18,female
2,bc,3,74,hh,hh,TRUE,865.107,18,female
2,bc,3,75,ll,ll,TRUE,984.789,18,female
2,bc,3,76,hl,hh,FALSE,1558.929,18,female
2,bc,3,77,ll,hl,FALSE,5838.161,18,female
2,bc,3,78,lh,ll,FALSE,1150.882,18,female
2,bc,3,79,hl,lh,FALSE,5133.103,18,female
2,bc,3,80,ll,ll,TRUE,940.7239999999999,18,female
2,bc,3,81,hh,lh,FALSE,4988.743,18,female
2,bc,3,82,ll,ll,TRUE,1074.8870000000002,18,female
2,bc,3,83,hl,hl,TRUE,4190.06,18,female
2,bc,3,84,ll,ll,TRUE,2132.32,18,female
2,bc,3,85,hh,ll,FALSE,4491.653,18,female
2,bc,3,86,hl,ll,FALSE,1940.8490000000002,18,female
2,bc,3,87,lh,hh,FALSE,2481.296,18,female
2,bc,3,88,hh,hh,TRUE,944.8499999999999,18,female
2,bc,3,89,ll,ll,TRUE,5481.406,18,female
2,bc,3,90,hl,ll,FALSE,3034.366,18,female
2,bc,3,91,hl,ll,FALSE,888.9380000000001,18,female
2,bc,3,92,ll,lh,FALSE,4026.392,18,female
2,bc,3,93,hl,hl,TRUE,10490.222,18,female
2,bc,3,94,hl,lh,FALSE,4537.984,18,female
2,bc,3,95,lh,lh,TRUE,1419.3490000000002,18,female
2,bc,3,96,hh,hh,TRUE,1062.489,18,female
2,bc,3,97,lh,ll,FALSE,1216.1109999999999,18,female
2,bc,3,98,lh,ll,FALSE,891.365,18,female
2,bc,3,99,hh,hh,TRUE,996.721,18,female
2,bc,3,100,lh,hl,FALSE,4098.436,18,female
2,bc,3,101,ll,hl,FALSE,934.057,18,female
2,bc,3,102,ll,ll,TRUE,4893.385,18,female
2,bc,3,103,hh,hh,TRUE,1632.0729999999999,18,female
2,bc,3,104,hh,hh,TRUE,1459.2869999999998,18,female
2,bc,3,105,hl,hh,FALSE,788.23,18,female
2,bc,3,106,ll,ll,TRUE,1089.5369999999998,18,female
2,bc,3,107,hh,ll,FALSE,1785.4070000000002,18,female
2,bc,3,108,ll,lh,FALSE,6064.104,18,female
2,bc,3,109,lh,hl,FALSE,1365.8270000000002,18,female
2,bc,3,110,ll,ll,TRUE,997.4300000000001,18,female
2,bc,3,111,lh,ll,FALSE,1099.3760000000002,18,female
2,bc,3,112,hl,ll,FALSE,2947.743,18,female
2,bc,3,113,lh,ll,FALSE,5079.984,18,female
2,bc,3,114,lh,ll,FALSE,1530.042,18,female
2,bc,3,115,hl,hh,FALSE,2384.993,18,female
2,bc,3,116,lh,hl,FALSE,1626.4270000000001,18,female
2,bc,3,117,hl,hh,FALSE,3227.724,18,female
2,bc,3,118,hh,ll,FALSE,5091.55,18,female
2,bc,3,119,hh,hl,FALSE,2653.567,18,female
2,bc,3,120,ll,ll,TRUE,981.383,18,female
2,bc,4,1,hl,ll,FALSE,11821.556,18,female
2,bc,4,2,lh,hh,FALSE,2215.644,18,female
2,bc,4,3,lh,hl,FALSE,2087.493,18,female
2,bc,4,4,hh,hl,FALSE,1768.8400000000001,18,female
2,bc,4,5,hl,hl,TRUE,2301.384,18,female
2,bc,4,6,ll,hl,FALSE,4354.549,18,female
2,bc,4,7,hh,hh,TRUE,3372.3199999999997,18,female
2,bc,4,8,lh,hl,FALSE,2478.894,18,female
2,bc,4,9,ll,ll,TRUE,4452.089,18,female
2,bc,4,10,ll,ll,TRUE,1840.755,18,female
2,bc,4,11,ll,hh,FALSE,2027.524,18,female
2,bc,4,12,hh,ll,FALSE,1940.509,18,female
2,bc,4,13,hl,hl,TRUE,2215.646,18,female
2,bc,4,14,ll,ll,TRUE,1259.0569999999998,18,female
2,bc,4,15,hh,ll,FALSE,988.2249999999999,18,female
2,bc,4,16,ll,ll,TRUE,1393.346,18,female
2,bc,4,17,lh,hl,FALSE,2831.708,18,female
2,bc,4,18,hh,hh,TRUE,1670.183,18,female
2,bc,4,19,ll,ll,TRUE,1168.176,18,female
2,bc,4,20,ll,ll,TRUE,1239.15,18,female
2,bc,4,21,hl,lh,FALSE,5706.418,18,female
2,bc,4,22,ll,hh,FALSE,3120.915,18,female
2,bc,4,23,hl,hl,TRUE,2749.128,18,female
2,bc,4,24,ll,ll,TRUE,952.6569999999999,18,female
2,bc,4,25,ll,ll,TRUE,1618.183,18,female
2,bc,4,26,lh,hh,FALSE,3043.477,18,female
2,bc,4,27,ll,hh,FALSE,1777.0390000000002,18,female
2,bc,4,28,lh,lh,TRUE,1093.73,18,female
2,bc,4,29,hh,lh,FALSE,4503.545,18,female
2,bc,4,30,ll,ll,TRUE,1876.8270000000002,18,female
2,bc,4,31,ll,hl,FALSE,4818.28,18,female
2,bc,4,32,lh,hh,FALSE,4910.582,18,female
2,bc,4,33,lh,ll,FALSE,936.998,18,female
2,bc,4,34,hh,hh,TRUE,5832.868,18,female
2,bc,4,35,hl,hh,FALSE,5523.501,18,female
2,bc,4,36,hl,hh,FALSE,1634.6239999999998,18,female
2,bc,4,37,hh,hh,TRUE,2277.348,18,female
2,bc,4,38,ll,lh,FALSE,3971.772,18,female
2,bc,4,39,lh,lh,TRUE,1581.8069999999998,18,female
2,bc,4,40,ll,ll,TRUE,1179.3719999999998,18,female
2,bc,4,41,hh,hh,TRUE,2432.253,18,female
2,bc,4,42,hh,hh,TRUE,1049.6329999999998,18,female
2,bc,4,43,ll,ll,TRUE,1291.3339999999998,18,female
2,bc,4,44,hh,hh,TRUE,2519.094,18,female
2,bc,4,45,lh,lh,TRUE,3969.3230000000003,18,female
2,bc,4,46,lh,hl,FALSE,4372.974,18,female
2,bc,4,47,ll,ll,TRUE,3754.2520000000004,18,female
2,bc,4,48,hh,hh,TRUE,1029.497,18,female
2,bc,4,49,hl,hl,TRUE,2639.763,18,female
2,bc,4,50,ll,hl,FALSE,3505.3469999999998,18,female
2,bc,4,51,ll,ll,TRUE,975.2850000000001,18,female
2,bc,4,52,lh,lh,TRUE,3826.8239999999996,18,female
2,bc,4,53,ll,ll,TRUE,975.6700000000001,18,female
2,bc,4,54,hh,ll,FALSE,2047.6239999999998,18,female
2,bc,4,55,hl,ll,FALSE,890.8320000000001,18,female
2,bc,4,56,ll,lh,FALSE,4441.566,18,female
2,bc,4,57,ll,ll,TRUE,903.077,18,female
2,bc,4,58,hh,ll,FALSE,3383.9570000000003,18,female
2,bc,4,59,hh,hh,TRUE,5656.969,18,female
2,bc,4,60,hh,hh,TRUE,1364.0279999999998,18,female
2,bc,4,61,hh,hl,FALSE,1465.4209999999998,18,female
2,bc,4,62,hh,hh,TRUE,1243.882,18,female
2,bc,4,63,hl,hh,FALSE,1654.717,18,female
2,bc,4,64,lh,hh,FALSE,1096.1480000000001,18,female
2,bc,4,65,ll,hl,FALSE,3176.813,18,female
2,bc,4,66,ll,ll,TRUE,947.1289999999999,18,female
2,bc,4,67,hl,hh,FALSE,1441.3380000000002,18,female
2,bc,4,68,lh,lh,TRUE,1782.069,18,female
2,bc,4,69,lh,hh,FALSE,2455.993,18,female
2,bc,4,70,lh,ll,FALSE,1024.274,18,female
2,bc,4,71,lh,hl,FALSE,1254.533,18,female
2,bc,4,72,hl,hl,TRUE,1889.3629999999998,18,female
2,bc,4,73,ll,lh,FALSE,2439.597,18,female
2,bc,4,74,hh,lh,FALSE,1928.045,18,female
2,bc,4,75,hl,ll,FALSE,3238.3059999999996,18,female
2,bc,4,76,lh,hh,FALSE,1895.5970000000002,18,female
2,bc,4,77,hh,hh,TRUE,926,18,female
2,bc,4,78,hl,lh,FALSE,3212.5460000000003,18,female
2,bc,4,79,hh,hh,TRUE,1148.333,18,female
2,bc,4,80,hl,hh,FALSE,1435.038,18,female
2,bc,4,81,hh,lh,FALSE,2262.303,18,female
2,bc,4,82,hl,hh,FALSE,918.5709999999999,18,female
2,bc,4,83,lh,hh,FALSE,1150.8229999999999,18,female
2,bc,4,84,lh,hh,FALSE,903.6030000000001,18,female
2,bc,4,85,hl,hl,TRUE,1088.649,18,female
2,bc,4,86,hl,ll,FALSE,5537.461,18,female
2,bc,4,87,hl,ll,FALSE,5671.637,18,female
2,bc,4,88,lh,ll,FALSE,1754.2420000000002,18,female
2,bc,4,89,ll,hl,FALSE,2974.703,18,female
2,bc,4,90,lh,ll,FALSE,2715.465,18,female
2,bc,4,91,ll,ll,TRUE,1190.3310000000001,18,female
2,bc,4,92,hh,hh,TRUE,1435.016,18,female
2,bc,4,93,hl,hl,TRUE,1872.9679999999998,18,female
2,bc,4,94,lh,ll,FALSE,2023.364,18,female
2,bc,4,95,lh,lh,TRUE,2192.821,18,female
2,bc,4,96,lh,ll,FALSE,1539.125,18,female
2,bc,4,97,ll,ll,TRUE,848.0640000000001,18,female
2,bc,4,98,ll,ll,TRUE,764.435,18,female
2,bc,4,99,hl,hl,TRUE,2302.79,18,female
2,bc,4,100,hh,hh,TRUE,946.8689999999999,18,female
2,bc,4,101,ll,ll,TRUE,2569.232,18,female
2,bc,4,102,hh,ll,FALSE,3351.014,18,female
2,bc,4,103,ll,hl,FALSE,1640.1909999999998,18,female
2,bc,4,104,ll,ll,TRUE,1921.714,18,female
2,bc,4,105,ll,lh,FALSE,5673.278,18,female
2,bc,4,106,ll,ll,TRUE,3394.1360000000004,18,female
2,bc,4,107,ll,ll,TRUE,1018.7750000000001,18,female
2,bc,4,108,lh,lh,TRUE,3681.634,18,female
2,bc,4,109,lh,lh,TRUE,3381.3720000000003,18,female
2,bc,4,110,lh,hh,FALSE,2590.595,18,female
2,bc,4,111,ll,ll,TRUE,919.864,18,female
2,bc,4,112,lh,ll,FALSE,1221.915,18,female
2,bc,4,113,hl,ll,FALSE,1203.2130000000002,18,female
2,bc,4,114,hh,hh,TRUE,1056.8029999999999,18,female
2,bc,4,115,ll,ll,TRUE,1441.576,18,female
2,bc,4,116,hh,hl,FALSE,2315.988,18,female
2,bc,4,117,ll,ll,TRUE,866.213,18,female
2,bc,4,118,hl,hh,FALSE,972.469,18,female
2,bc,4,119,lh,hh,FALSE,1842.6860000000001,18,female
2,bc,4,120,ll,ll,TRUE,2190.348,18,female
2,bc,5,1,hl,ll,FALSE,3449.91,18,female
2,bc,5,2,hl,hh,FALSE,5984.59,18,female
2,bc,5,3,hl,lh,FALSE,3446.263,18,female
2,bc,5,4,lh,hh,FALSE,2082.933,18,female
2,bc,5,5,hh,hh,TRUE,1083.5010000000002,18,female
2,bc,5,6,lh,lh,TRUE,4021.474,18,female
2,bc,5,7,hh,lh,FALSE,1657.9540000000002,18,female
2,bc,5,8,hl,hl,TRUE,2339.186,18,female
2,bc,5,9,ll,ll,TRUE,1048.449,18,female
2,bc,5,10,hh,ll,FALSE,2901.491,18,female
2,bc,5,11,hl,ll,FALSE,1025.132,18,female
2,bc,5,12,lh,hh,FALSE,1782.5819999999999,18,female
2,bc,5,13,ll,ll,TRUE,819.028,18,female
2,bc,5,14,hl,lh,FALSE,3174.594,18,female
2,bc,5,15,hl,lh,FALSE,3329.5379999999996,18,female
2,bc,5,16,hl,hh,FALSE,899.673,18,female
2,bc,5,17,hh,hl,FALSE,1356.975,18,female
2,bc,5,18,hh,hh,TRUE,2996.923,18,female
2,bc,5,19,hh,hh,TRUE,935.097,18,female
2,bc,5,20,hh,hh,TRUE,861.137,18,female
2,bc,5,21,hl,ll,FALSE,1008.021,18,female
2,bc,5,22,hh,hl,FALSE,5133.356,18,female
2,bc,5,23,hl,lh,FALSE,2772.771,18,female
2,bc,5,24,hh,lh,FALSE,3545.013,18,female
2,bc,5,25,lh,hl,FALSE,3345.21,18,female
2,bc,5,26,ll,ll,TRUE,3675.2740000000003,18,female
2,bc,5,27,ll,hl,FALSE,1267.9,18,female
2,bc,5,28,hh,lh,FALSE,2450.484,18,female
2,bc,5,29,ll,ll,TRUE,1099.1799999999998,18,female
2,bc,5,30,hh,hh,TRUE,1174.5500000000002,18,female
2,bc,5,31,lh,ll,FALSE,1100.484,18,female
2,bc,5,32,hh,ll,FALSE,2298.77,18,female
2,bc,5,33,hh,ll,FALSE,1000.838,18,female
2,bc,5,34,lh,ll,FALSE,809.4939999999999,18,female
2,bc,5,35,ll,hl,FALSE,3687.523,18,female
2,bc,5,36,ll,lh,FALSE,2751.871,18,female
2,bc,5,37,lh,ll,FALSE,2883.467,18,female
2,bc,5,38,hh,hh,TRUE,1250.1619999999998,18,female
2,bc,5,39,hl,ll,FALSE,6294.55,18,female
2,bc,5,40,hh,lh,FALSE,2222.023,18,female
2,bc,5,41,hl,ll,FALSE,5262.238,18,female
2,bc,5,42,hh,hh,TRUE,2089.79,18,female
2,bc,5,43,lh,lh,TRUE,2641.229,18,female
2,bc,5,44,lh,hl,FALSE,1451.8180000000002,18,female
2,bc,5,45,lh,hh,FALSE,1747.6460000000002,18,female
2,bc,5,46,lh,lh,TRUE,3995.045,18,female
2,bc,5,47,ll,hl,FALSE,2083.943,18,female
2,bc,5,48,hh,ll,FALSE,3580.148,18,female
2,bc,5,49,lh,ll,FALSE,881.9949999999999,18,female
2,bc,5,50,hl,lh,FALSE,4284.542,18,female
2,bc,5,51,ll,hl,FALSE,1238.324,18,female
2,bc,5,52,ll,ll,TRUE,4730.616,18,female
2,bc,5,53,lh,ll,FALSE,1929.8919999999998,18,female
2,bc,5,54,hl,hh,FALSE,1080.42,18,female
2,bc,5,55,ll,ll,TRUE,1235.19,18,female
2,bc,5,56,ll,ll,TRUE,893.837,18,female
2,bc,5,57,hh,hl,FALSE,975.6959999999999,18,female
2,bc,5,58,hl,ll,FALSE,1213.529,18,female
2,bc,5,59,hh,hh,TRUE,1665.3049999999998,18,female
2,bc,5,60,ll,ll,TRUE,1034.023,18,female
2,bc,5,61,lh,lh,TRUE,2696.348,18,female
2,bc,5,62,hl,hl,TRUE,2637.605,18,female
2,bc,5,63,hh,lh,FALSE,4087.7470000000003,18,female
2,bc,5,64,hl,ll,FALSE,2177.539,18,female
2,bc,5,65,ll,ll,TRUE,986.9580000000001,18,female
2,bc,5,66,ll,ll,TRUE,1713.422,18,female
2,bc,5,67,ll,lh,FALSE,4547.008,18,female
2,bc,5,68,lh,ll,FALSE,795.4269999999999,18,female
2,bc,5,69,hl,hh,FALSE,4077.643,18,female
2,bc,5,70,lh,hh,FALSE,937.0920000000001,18,female
2,bc,5,71,lh,ll,FALSE,3823.733,18,female
2,bc,5,72,hl,lh,FALSE,2712.979,18,female
2,bc,5,73,lh,lh,TRUE,5317.804,18,female
2,bc,5,74,hh,hh,TRUE,2063.057,18,female
2,bc,5,75,lh,ll,FALSE,4575.584,18,female
2,bc,5,76,lh,ll,FALSE,1046.67,18,female
2,bc,5,77,ll,ll,TRUE,2601.486,18,female
2,bc,5,78,hl,ll,FALSE,4244.147,18,female
2,bc,5,79,ll,ll,TRUE,2360.911,18,female
2,bc,5,80,ll,ll,TRUE,1484.828,18,female
2,bc,5,81,hh,lh,FALSE,5900.676,18,female
2,bc,5,82,hl,hh,FALSE,4867.642,18,female
2,bc,5,83,hh,hh,TRUE,2523.567,18,female
2,bc,5,84,hh,ll,FALSE,5307.408,18,female
2,bc,5,85,lh,ll,FALSE,1101.8899999999999,18,female
2,bc,5,86,hh,hl,FALSE,2493.162,18,female
2,bc,5,87,ll,hh,FALSE,2260.027,18,female
2,bc,5,88,hl,hl,TRUE,2084.887,18,female
2,bc,5,89,hl,ll,FALSE,1835.6660000000002,18,female
2,bc,5,90,ll,hl,FALSE,4352.429,18,female
2,bc,5,91,hl,hh,FALSE,3424.0649999999996,18,female
2,bc,5,92,ll,hl,FALSE,2271.148,18,female
2,bc,5,93,lh,ll,FALSE,3294.465,18,female
2,bc,5,94,hl,hl,TRUE,1491.917,18,female
2,bc,5,95,ll,ll,TRUE,930.7760000000001,18,female
2,bc,5,96,lh,hl,FALSE,2779.548,18,female
2,bc,5,97,ll,ll,TRUE,2677.839,18,female
2,bc,5,98,lh,lh,TRUE,3078.311,18,female
2,bc,5,99,hh,hh,TRUE,1443.121,18,female
2,bc,5,100,hh,hh,TRUE,1004.5160000000001,18,female
2,bc,5,101,ll,ll,TRUE,1027.239,18,female
2,bc,5,102,hh,lh,FALSE,2092.874,18,female
2,bc,5,103,lh,hl,FALSE,7173.595,18,female
2,bc,5,104,hl,ll,FALSE,1328.2579999999998,18,female
2,bc,5,105,hh,hh,TRUE,1037.629,18,female
2,bc,5,106,lh,hh,FALSE,1090.4630000000002,18,female
2,bc,5,107,hl,ll,FALSE,4500.378,18,female
2,bc,5,108,hh,hh,TRUE,4845.255,18,female
2,bc,5,109,lh,hh,FALSE,1209.2269999999999,18,female
2,bc,5,110,ll,ll,TRUE,1444.328,18,female
2,bc,5,111,hl,hh,FALSE,3318.4979999999996,18,female
2,bc,5,112,lh,lh,TRUE,3341.8680000000004,18,female
2,bc,5,113,lh,hh,FALSE,5886.105,18,female
2,bc,5,114,hl,hl,TRUE,2350.427,18,female
2,bc,5,115,hl,hl,TRUE,2531.881,18,female
2,bc,5,116,ll,ll,TRUE,1575.5839999999998,18,female
2,bc,5,117,ll,ll,TRUE,1014.279,18,female
2,bc,5,118,hl,hl,TRUE,2888.321,18,female
2,bc,5,119,hl,lh,FALSE,2760.836,18,female
2,bc,5,120,lh,hl,FALSE,3666.295,18,female
