pID,condition,block_no,trial_no,stimulus,response,correct,rt,age,gender
31,ab,1,1,ll,ll,TRUE,4010.299,18,male
31,ab,1,2,hh,hh,TRUE,3145.571,18,male
31,ab,1,3,ll,hl,FALSE,5772.068,18,male
31,ab,1,4,hh,hh,TRUE,3247.5820000000003,18,male
31,ab,1,5,lh,hh,FALSE,4636.605,18,male
31,ab,1,6,ll,ll,TRUE,2302.936,18,male
31,ab,1,7,lh,hl,FALSE,6603.648,18,male
31,ab,1,8,lh,hh,FALSE,6014.247,18,male
31,ab,1,9,ll,ll,TRUE,1446.1350000000002,18,male
31,ab,1,10,hh,hh,TRUE,2081.102,18,male
31,ab,1,11,hh,hh,TRUE,1111.341,18,male
31,ab,1,12,hl,ll,FALSE,686.8420000000001,18,male
31,ab,1,13,hl,hh,FALSE,4703.33,18,male
31,ab,1,14,hl,ll,FALSE,1711.609,18,male
31,ab,1,15,hl,hh,FALSE,5540.348,18,male
31,ab,1,16,lh,hl,FALSE,5235.276,18,male
31,ab,1,17,ll,ll,TRUE,3885.7030000000004,18,male
31,ab,1,18,hh,hh,TRUE,3224.326,18,male
31,ab,1,19,lh,hh,FALSE,863.137,18,male
31,ab,1,20,hh,hh,TRUE,664.758,18,male
31,ab,1,21,lh,hh,FALSE,2617.83,18,male
31,ab,1,22,lh,ll,FALSE,5448.595,18,male
31,ab,1,23,hh,ll,FALSE,1755.208,18,male
31,ab,1,24,hl,hl,TRUE,8199.352,18,male
31,ab,1,25,hl,hl,TRUE,3092.529,18,male
31,ab,1,26,hh,hh,TRUE,2265.052,18,male
31,ab,1,27,ll,ll,TRUE,5560.38,18,male
31,ab,1,28,lh,hl,FALSE,6124.286,18,male
31,ab,1,29,lh,ll,FALSE,3169.379,18,male
31,ab,1,30,ll,ll,TRUE,858.7840000000001,18,male
31,ab,1,31,hl,ll,FALSE,1748.261,18,male
31,ab,1,32,hl,ll,FALSE,2169.09,18,male
31,ab,1,33,hh,hh,TRUE,2227.743,18,male
31,ab,1,34,ll,ll,TRUE,948.5070000000001,18,male
31,ab,1,35,hl,ll,FALSE,1536.7379999999998,18,male
31,ab,1,36,hl,ll,FALSE,3231.0370000000003,18,male
31,ab,1,37,hl,hh,FALSE,2188.253,18,male
31,ab,1,38,ll,ll,TRUE,1318.3290000000002,18,male
31,ab,1,39,hh,hh,TRUE,1173.435,18,male
31,ab,1,40,lh,hh,FALSE,2152.651,18,male
31,ab,1,41,lh,hh,FALSE,6339.923,18,male
31,ab,1,42,lh,hh,FALSE,1663.2559999999999,18,male
31,ab,1,43,hh,hh,TRUE,759.912,18,male
31,ab,1,44,lh,hh,FALSE,1605.4769999999999,18,male
31,ab,1,45,ll,hh,FALSE,3223.7700000000004,18,male
31,ab,1,46,hl,hh,FALSE,1316.315,18,male
31,ab,1,47,hl,hh,FALSE,1084.9409999999998,18,male
31,ab,1,48,hh,hh,TRUE,869.481,18,male
31,ab,1,49,ll,hh,FALSE,6862.371,18,male
31,ab,1,50,ll,ll,TRUE,1501.0210000000002,18,male
31,ab,1,51,ll,ll,TRUE,1204.6529999999998,18,male
31,ab,1,52,lh,lh,TRUE,4735.347,18,male
31,ab,1,53,ll,ll,TRUE,2661.931,18,male
31,ab,1,54,hl,lh,FALSE,3996.6490000000003,18,male
31,ab,1,55,hl,hh,FALSE,2618.672,18,male
31,ab,1,56,ll,ll,TRUE,1562.851,18,male
31,ab,1,57,hh,hh,TRUE,1998.56,18,male
31,ab,1,58,ll,ll,TRUE,1184.6280000000002,18,male
31,ab,1,59,hl,ll,FALSE,2684.538,18,male
31,ab,1,60,lh,hh,FALSE,1633.1080000000002,18,male
31,ab,1,61,hl,hl,TRUE,5498.045,18,male
31,ab,1,62,lh,hl,FALSE,3809.673,18,male
31,ab,1,63,ll,ll,TRUE,2351.049,18,male
31,ab,1,64,hh,hh,TRUE,1336.897,18,male
31,ab,1,65,ll,ll,TRUE,1247.766,18,male
31,ab,1,66,hh,hh,TRUE,1393.911,18,male
31,ab,1,67,ll,ll,TRUE,909.114,18,male
31,ab,1,68,hh,hh,TRUE,684.7660000000001,18,male
31,ab,1,69,hh,hh,TRUE,1116.904,18,male
31,ab,1,70,hh,hh,TRUE,923.8889999999999,18,male
31,ab,1,71,lh,ll,FALSE,1451.1109999999999,18,male
31,ab,1,72,ll,ll,TRUE,3178.1409999999996,18,male
31,ab,1,73,hl,ll,FALSE,1948.5659999999998,18,male
31,ab,1,74,hl,ll,FALSE,1040.89,18,male
31,ab,1,75,hl,hh,FALSE,2939.186,18,male
31,ab,1,76,ll,ll,TRUE,1820.6660000000002,18,male
31,ab,1,77,hh,hh,TRUE,4076.1530000000002,18,male
31,ab,1,78,lh,hh,FALSE,1241.408,18,male
31,ab,1,79,ll,ll,TRUE,6034.794,18,male
31,ab,1,80,lh,hl,FALSE,3123.441,18,male
31,ab,1,81,ll,ll,TRUE,1396.804,18,male
31,ab,1,82,hh,hh,TRUE,1208.362,18,male
31,ab,1,83,lh,ll,FALSE,1338.4769999999999,18,male
31,ab,1,84,hl,ll,FALSE,2014.589,18,male
31,ab,1,85,lh,ll,FALSE,2400.83,18,male
31,ab,1,86,hl,hh,FALSE,1441.909,18,male
31,ab,1,87,hl,ll,FALSE,2360.863,18,male
31,ab,1,88,hl,lh,FALSE,2861.126,18,male
31,ab,1,89,hl,hh,FALSE,3402.5249999999996,18,male
31,ab,1,90,hl,ll,FALSE,7456.4169999999995,18,male
31,ab,1,91,lh,hh,FALSE,1775.0610000000001,18,male
31,ab,1,92,ll,ll,TRUE,2152.972,18,male
31,ab,1,93,lh,hh,FALSE,978.9359999999999,18,male
31,ab,1,94,ll,ll,TRUE,1665.853,18,male
31,ab,1,95,hl,hh,FALSE,1192.2640000000001,18,male
31,ab,1,96,lh,ll,FALSE,1475.9879999999998,18,male
31,ab,1,97,hh,hh,TRUE,717.6189999999999,18,male
31,ab,1,98,ll,ll,TRUE,1586.2730000000001,18,male
31,ab,1,99,ll,ll,TRUE,1301.8719999999998,18,male
31,ab,1,100,hh,hh,TRUE,1178.9879999999998,18,male
31,ab,1,101,hl,lh,FALSE,4854.943,18,male
31,ab,1,102,ll,ll,TRUE,2711.531,18,male
31,ab,1,103,hh,hh,TRUE,1301.828,18,male
31,ab,1,104,lh,ll,FALSE,2660.66,18,male
31,ab,1,105,hh,hh,TRUE,1754.708,18,male
31,ab,1,106,ll,hh,FALSE,782.7460000000001,18,male
31,ab,1,107,hh,ll,FALSE,387.99800000000005,18,male
31,ab,1,108,hl,lh,FALSE,313.4090000000001,18,male
31,ab,1,109,hl,hl,TRUE,2280.475,18,male
31,ab,1,110,hh,hh,TRUE,680.3340000000001,18,male
31,ab,1,111,hh,hh,TRUE,1081.3429999999998,18,male
31,ab,1,112,hh,hh,TRUE,1056.225,18,male
31,ab,1,113,hh,hh,TRUE,4555.626,18,male
31,ab,1,114,lh,ll,FALSE,1650.1109999999999,18,male
31,ab,1,115,hl,hh,FALSE,1041.428,18,male
31,ab,1,116,lh,lh,TRUE,564.2470000000001,18,male
31,ab,1,117,hl,lh,FALSE,4002.611,18,male
31,ab,1,118,hl,ll,FALSE,2328.767,18,male
31,ab,1,119,hh,hh,TRUE,1244.3519999999999,18,male
31,ab,1,120,lh,ll,FALSE,1770.846,18,male
31,ab,2,1,lh,hh,FALSE,1435.743,18,male
31,ab,2,2,hl,hh,FALSE,1251.9589999999998,18,male
31,ab,2,3,ll,ll,TRUE,1525.953,18,male
31,ab,2,4,lh,hh,FALSE,827.5909999999999,18,male
31,ab,2,5,hh,hh,TRUE,1197.0749999999998,18,male
31,ab,2,6,hl,hh,FALSE,2568.854,18,male
31,ab,2,7,ll,ll,TRUE,2244.741,18,male
31,ab,2,8,hh,hh,TRUE,1524.554,18,male
31,ab,2,9,ll,ll,TRUE,2951.942,18,male
31,ab,2,10,lh,lh,TRUE,4139.768,18,male
31,ab,2,11,hh,hh,TRUE,884.5340000000001,18,male
31,ab,2,12,hl,hh,FALSE,741.289,18,male
31,ab,2,13,hl,hh,FALSE,571.683,18,male
31,ab,2,14,hh,hh,TRUE,568.921,18,male
31,ab,2,15,hl,hh,FALSE,1470.453,18,male
31,ab,2,16,hl,hl,TRUE,4270.143,18,male
31,ab,2,17,hh,hh,TRUE,1041.51,18,male
31,ab,2,18,lh,hh,FALSE,1395.513,18,male
31,ab,2,19,lh,ll,FALSE,1475.9389999999999,18,male
31,ab,2,20,hl,ll,FALSE,949.9580000000001,18,male
31,ab,2,21,lh,hh,FALSE,3754.9539999999997,18,male
31,ab,2,22,ll,ll,TRUE,3786.745,18,male
31,ab,2,23,hl,hh,FALSE,2953.722,18,male
31,ab,2,24,hl,ll,FALSE,2024.06,18,male
31,ab,2,25,ll,ll,TRUE,3195.1499999999996,18,male
31,ab,2,26,ll,ll,TRUE,1243.0079999999998,18,male
31,ab,2,27,ll,hl,FALSE,6294.02,18,male
31,ab,2,28,lh,ll,FALSE,1690.366,18,male
31,ab,2,29,lh,hh,FALSE,1839.4989999999998,18,male
31,ab,2,30,hl,hh,FALSE,1497.866,18,male
31,ab,2,31,hl,hh,FALSE,1537.0639999999999,18,male
31,ab,2,32,hh,hh,TRUE,675.241,18,male
31,ab,2,33,ll,ll,TRUE,1358.5949999999998,18,male
31,ab,2,34,hh,hh,TRUE,721.4300000000001,18,male
31,ab,2,35,hh,hh,TRUE,626.031,18,male
31,ab,2,36,lh,hl,FALSE,3439.053,18,male
31,ab,2,37,lh,hl,FALSE,1267.583,18,male
31,ab,2,38,hh,hh,TRUE,649.693,18,male
31,ab,2,39,lh,ll,FALSE,2078.37,18,male
31,ab,2,40,lh,ll,FALSE,717.127,18,male
31,ab,2,41,lh,hh,FALSE,1082.0210000000002,18,male
31,ab,2,42,ll,hh,FALSE,893.144,18,male
31,ab,2,43,hh,hh,TRUE,1285.2069999999999,18,male
31,ab,2,44,hh,hh,TRUE,1124.234,18,male
31,ab,2,45,ll,ll,TRUE,1708.085,18,male
31,ab,2,46,ll,ll,TRUE,3922.0460000000003,18,male
31,ab,2,47,hl,hl,TRUE,4184.443,18,male
31,ab,2,48,ll,hh,FALSE,1151.4720000000002,18,male
31,ab,2,49,ll,ll,TRUE,4231.901,18,male
31,ab,2,50,lh,ll,FALSE,2137.435,18,male
31,ab,2,51,ll,hl,FALSE,3135.986,18,male
31,ab,2,52,ll,ll,TRUE,1147.399,18,male
31,ab,2,53,hh,hh,TRUE,2297.333,18,male
31,ab,2,54,hh,hh,TRUE,2245.166,18,male
31,ab,2,55,ll,ll,TRUE,2148.058,18,male
31,ab,2,56,hl,lh,FALSE,1798.8000000000002,18,male
31,ab,2,57,hh,hh,TRUE,1114.453,18,male
31,ab,2,58,ll,ll,TRUE,2010.859,18,male
31,ab,2,59,hl,lh,FALSE,4916.581,18,male
31,ab,2,60,hl,hl,TRUE,4820.184,18,male
31,ab,2,61,lh,hh,FALSE,742.9639999999999,18,male
31,ab,2,62,hh,hh,TRUE,806.857,18,male
31,ab,2,63,hl,hl,TRUE,1441.643,18,male
31,ab,2,64,lh,hh,FALSE,2522.76,18,male
31,ab,2,65,hl,hh,FALSE,3006.542,18,male
31,ab,2,66,hl,ll,FALSE,2062.142,18,male
31,ab,2,67,ll,ll,TRUE,1109.484,18,male
31,ab,2,68,lh,ll,FALSE,2492.499,18,male
31,ab,2,69,ll,ll,TRUE,873.9939999999999,18,male
31,ab,2,70,hl,hh,FALSE,4554.666,18,male
31,ab,2,71,hl,ll,FALSE,889.844,18,male
31,ab,2,72,hh,hh,TRUE,1398.9650000000001,18,male
31,ab,2,73,ll,ll,TRUE,1052.426,18,male
31,ab,2,74,ll,ll,TRUE,1221.321,18,male
31,ab,2,75,hl,hh,FALSE,5335.765,18,male
31,ab,2,76,hh,hh,TRUE,2260.408,18,male
31,ab,2,77,lh,hh,FALSE,2292.867,18,male
31,ab,2,78,lh,hl,FALSE,2792.314,18,male
31,ab,2,79,ll,ll,TRUE,1090.909,18,male
31,ab,2,80,hl,ll,FALSE,4162.795,18,male
31,ab,2,81,lh,hl,FALSE,4145.649,18,male
31,ab,2,82,ll,ll,TRUE,1825.558,18,male
31,ab,2,83,hh,hh,TRUE,962.806,18,male
31,ab,2,84,hl,hh,FALSE,655.894,18,male
31,ab,2,85,ll,ll,TRUE,321.8420000000001,18,male
31,ab,2,86,lh,hh,FALSE,1481.7069999999999,18,male
31,ab,2,87,hh,lh,FALSE,455.433,18,male
31,ab,2,88,hh,hh,TRUE,276.1690000000001,18,male
31,ab,2,89,hl,ll,FALSE,259.98199999999997,18,male
31,ab,2,90,lh,hh,FALSE,280.5709999999999,18,male
31,ab,2,91,hh,lh,FALSE,331.0139999999999,18,male
31,ab,2,92,ll,hl,FALSE,735.963,18,male
31,ab,2,93,hh,hh,TRUE,352.37200000000007,18,male
31,ab,2,94,lh,hh,FALSE,559.8140000000001,18,male
31,ab,2,95,ll,ll,TRUE,581.3320000000001,18,male
31,ab,2,96,hl,hh,FALSE,331.0999999999999,18,male
31,ab,2,97,hl,ll,FALSE,283.33899999999994,18,male
31,ab,2,98,hl,hh,FALSE,605.1099999999999,18,male
31,ab,2,99,hh,hh,TRUE,825.258,18,male
31,ab,2,100,lh,hh,FALSE,770.877,18,male
31,ab,2,101,ll,ll,TRUE,841.1980000000001,18,male
31,ab,2,102,hl,hh,FALSE,1027.049,18,male
31,ab,2,103,hh,hh,TRUE,923.287,18,male
31,ab,2,104,hh,hh,TRUE,666.3030000000001,18,male
31,ab,2,105,hl,ll,FALSE,494.7270000000001,18,male
31,ab,2,106,hh,hh,TRUE,780.8109999999999,18,male
31,ab,2,107,lh,lh,TRUE,673.71,18,male
31,ab,2,108,ll,hh,FALSE,365.00299999999993,18,male
31,ab,2,109,ll,ll,TRUE,954.912,18,male
31,ab,2,110,ll,ll,TRUE,734.269,18,male
31,ab,2,111,hh,hh,TRUE,744.4580000000001,18,male
31,ab,2,112,hh,ll,FALSE,278.92100000000005,18,male
31,ab,2,113,ll,hh,FALSE,263.6890000000001,18,male
31,ab,2,114,ll,ll,TRUE,1475.6770000000001,18,male
31,ab,2,115,hl,hh,FALSE,1256.9699999999998,18,male
31,ab,2,116,hl,hh,FALSE,668.0809999999999,18,male
31,ab,2,117,lh,hh,FALSE,621.277,18,male
31,ab,2,118,ll,ll,TRUE,737.778,18,male
31,ab,2,119,hh,hh,TRUE,608.0889999999999,18,male
31,ab,2,120,hl,ll,FALSE,932.517,18,male
31,ab,3,1,hh,hh,TRUE,564.944,18,male
31,ab,3,2,hh,hh,TRUE,579.107,18,male
31,ab,3,3,lh,hh,FALSE,269.0060000000001,18,male
31,ab,3,4,hh,hh,TRUE,953.2860000000001,18,male
31,ab,3,5,lh,hh,FALSE,647.0999999999999,18,male
31,ab,3,6,lh,hh,FALSE,577.259,18,male
31,ab,3,7,ll,ll,TRUE,815.1210000000001,18,male
31,ab,3,8,hl,ll,FALSE,1537.3229999999999,18,male
31,ab,3,9,hl,hh,FALSE,479.94499999999994,18,male
31,ab,3,10,hl,ll,FALSE,2103.608,18,male
31,ab,3,11,hh,hl,FALSE,3132.7070000000003,18,male
31,ab,3,12,ll,ll,TRUE,1159.274,18,male
31,ab,3,13,lh,hl,FALSE,2492.689,18,male
31,ab,3,14,hh,hh,TRUE,833.779,18,male
31,ab,3,15,hl,ll,FALSE,2716.255,18,male
31,ab,3,16,ll,ll,TRUE,2624.333,18,male
31,ab,3,17,hl,ll,FALSE,936.019,18,male
31,ab,3,18,hl,ll,FALSE,813.4559999999999,18,male
31,ab,3,19,hh,hh,TRUE,1113.107,18,male
31,ab,3,20,hl,hh,FALSE,784.9100000000001,18,male
31,ab,3,21,lh,ll,FALSE,724.433,18,male
31,ab,3,22,ll,ll,TRUE,620.4179999999999,18,male
31,ab,3,23,ll,ll,TRUE,903.694,18,male
31,ab,3,24,hl,ll,FALSE,839.357,18,male
31,ab,3,25,hh,hh,TRUE,830.623,18,male
31,ab,3,26,ll,ll,TRUE,675.1389999999999,18,male
31,ab,3,27,ll,ll,TRUE,638.1859999999999,18,male
31,ab,3,28,hh,hh,TRUE,528.3030000000001,18,male
31,ab,3,29,hh,ll,FALSE,312.1959999999999,18,male
31,ab,3,30,hh,hh,TRUE,319.9079999999999,18,male
31,ab,3,31,lh,ll,FALSE,NA,18,male
31,ab,3,32,ll,ll,TRUE,6123.742,18,male
31,ab,3,33,hh,hh,TRUE,1633.0259999999998,18,male
31,ab,3,34,lh,hh,FALSE,1049.8670000000002,18,male
31,ab,3,35,ll,ll,TRUE,8560.862,18,male
31,ab,3,36,lh,ll,FALSE,3082.539,18,male
31,ab,3,37,ll,ll,TRUE,1247.353,18,male
31,ab,3,38,hh,hl,FALSE,3657.2520000000004,18,male
31,ab,3,39,lh,lh,TRUE,1852.0320000000002,18,male
31,ab,3,40,hl,lh,FALSE,3684.16,18,male
31,ab,3,41,hh,hh,TRUE,1428.554,18,male
31,ab,3,42,hh,hh,TRUE,1033.873,18,male
31,ab,3,43,hl,hh,FALSE,1732.2150000000001,18,male
31,ab,3,44,hh,hh,TRUE,2305.013,18,male
31,ab,3,45,lh,hl,FALSE,4909.245,18,male
31,ab,3,46,hl,hl,TRUE,3568.277,18,male
31,ab,3,47,hh,hh,TRUE,1133.5259999999998,18,male
31,ab,3,48,hh,hh,TRUE,732.1110000000001,18,male
31,ab,3,49,hl,hh,FALSE,1344.399,18,male
31,ab,3,50,ll,ll,TRUE,577.0419999999999,18,male
31,ab,3,51,lh,hh,FALSE,789.893,18,male
31,ab,3,52,lh,hh,FALSE,682.5830000000001,18,male
31,ab,3,53,hh,lh,FALSE,307.26800000000003,18,male
31,ab,3,54,hl,hh,FALSE,784.0219999999999,18,male
31,ab,3,55,hh,ll,FALSE,549.442,18,male
31,ab,3,56,ll,hl,FALSE,3588.4040000000005,18,male
31,ab,3,57,lh,hh,FALSE,2030.4360000000001,18,male
31,ab,3,58,ll,ll,TRUE,1063.067,18,male
31,ab,3,59,hl,hh,FALSE,896.585,18,male
31,ab,3,60,hl,hh,FALSE,793.271,18,male
31,ab,3,61,ll,ll,TRUE,4549.891,18,male
31,ab,3,62,ll,ll,TRUE,1204.824,18,male
31,ab,3,63,hl,hh,FALSE,2056.949,18,male
31,ab,3,64,hl,hh,FALSE,1367.297,18,male
31,ab,3,65,hl,hh,FALSE,1240.719,18,male
31,ab,3,66,hh,hh,TRUE,757.0060000000001,18,male
31,ab,3,67,hh,hh,TRUE,762.656,18,male
31,ab,3,68,lh,ll,FALSE,868.644,18,male
31,ab,3,69,hl,ll,FALSE,1488.9160000000002,18,male
31,ab,3,70,ll,ll,TRUE,623.9670000000001,18,male
31,ab,3,71,lh,ll,FALSE,1252.0349999999999,18,male
31,ab,3,72,lh,hh,FALSE,1980.0810000000001,18,male
31,ab,3,73,hh,hh,TRUE,1086.9679999999998,18,male
31,ab,3,74,hh,lh,FALSE,2167.127,18,male
31,ab,3,75,hl,hh,FALSE,5354.532,18,male
31,ab,3,76,ll,hl,FALSE,2560.17,18,male
31,ab,3,77,lh,hl,FALSE,2177.647,18,male
31,ab,3,78,hl,lh,FALSE,4612.583,18,male
31,ab,3,79,hh,hh,TRUE,888.8409999999999,18,male
31,ab,3,80,hh,hh,TRUE,1416.685,18,male
31,ab,3,81,hh,hh,TRUE,935.502,18,male
31,ab,3,82,hl,hh,FALSE,2800.879,18,male
31,ab,3,83,hh,hh,TRUE,938.365,18,male
31,ab,3,84,hh,hh,TRUE,1311.7060000000001,18,male
31,ab,3,85,hh,hh,TRUE,1517.7330000000002,18,male
31,ab,3,86,lh,ll,FALSE,4012.7030000000004,18,male
31,ab,3,87,ll,ll,TRUE,4814.202,18,male
31,ab,3,88,ll,ll,TRUE,1612.6909999999998,18,male
31,ab,3,89,lh,hh,FALSE,3270.477,18,male
31,ab,3,90,ll,hl,FALSE,5175.684,18,male
31,ab,3,91,hl,hl,TRUE,2541.011,18,male
31,ab,3,92,hl,hl,TRUE,3875.1989999999996,18,male
31,ab,3,93,hl,hh,FALSE,821.521,18,male
31,ab,3,94,hl,hh,FALSE,1089.598,18,male
31,ab,3,95,hh,hh,TRUE,1481.547,18,male
31,ab,3,96,lh,hl,FALSE,1976.2289999999998,18,male
31,ab,3,97,hl,lh,FALSE,1875.295,18,male
31,ab,3,98,hl,lh,FALSE,874.02,18,male
31,ab,3,99,hl,hh,FALSE,1217.1080000000002,18,male
31,ab,3,100,ll,ll,TRUE,1149.6640000000002,18,male
31,ab,3,101,hh,hh,TRUE,827.233,18,male
31,ab,3,102,hh,lh,FALSE,2126.421,18,male
31,ab,3,103,hh,hh,TRUE,810.874,18,male
31,ab,3,104,hl,hh,FALSE,997.374,18,male
31,ab,3,105,ll,ll,TRUE,849.5,18,male
31,ab,3,106,ll,ll,TRUE,491.86400000000003,18,male
31,ab,3,107,lh,hh,FALSE,801.7370000000001,18,male
31,ab,3,108,hh,hh,TRUE,729.625,18,male
31,ab,3,109,hh,ll,FALSE,308.8130000000001,18,male
31,ab,3,110,lh,hh,FALSE,873.185,18,male
31,ab,3,111,ll,ll,TRUE,866.95,18,male
31,ab,3,112,hl,hh,FALSE,717.3589999999999,18,male
31,ab,3,113,hl,hh,FALSE,803.4849999999999,18,male
31,ab,3,114,ll,ll,TRUE,983.5039999999999,18,male
31,ab,3,115,hl,ll,FALSE,884.0409999999999,18,male
31,ab,3,116,hl,ll,FALSE,1528.725,18,male
31,ab,3,117,lh,hh,FALSE,744.922,18,male
31,ab,3,118,ll,ll,TRUE,1055.6840000000002,18,male
31,ab,3,119,hl,hh,FALSE,858.1479999999999,18,male
31,ab,3,120,lh,hh,FALSE,1391.0459999999998,18,male
31,ab,4,1,hh,hh,TRUE,1706.8490000000002,18,male
31,ab,4,2,ll,ll,TRUE,1688.8449999999998,18,male
31,ab,4,3,hl,hh,FALSE,999.712,18,male
31,ab,4,4,ll,ll,TRUE,667.5050000000001,18,male
31,ab,4,5,hh,lh,FALSE,3577.0249999999996,18,male
31,ab,4,6,hl,hh,FALSE,988.635,18,male
31,ab,4,7,ll,ll,TRUE,996.5740000000001,18,male
31,ab,4,8,ll,ll,TRUE,1573.114,18,male
31,ab,4,9,lh,ll,FALSE,2720.737,18,male
31,ab,4,10,hl,lh,FALSE,4787.762,18,male
31,ab,4,11,hh,hh,TRUE,3353.544,18,male
31,ab,4,12,ll,hh,FALSE,850.9290000000001,18,male
31,ab,4,13,lh,hh,FALSE,1104.9229999999998,18,male
31,ab,4,14,ll,ll,TRUE,1539.618,18,male
31,ab,4,15,lh,hh,FALSE,745.1569999999999,18,male
31,ab,4,16,ll,ll,TRUE,1123.4409999999998,18,male
31,ab,4,17,hh,hh,TRUE,489.84899999999993,18,male
31,ab,4,18,lh,ll,FALSE,1350.5100000000002,18,male
31,ab,4,19,hh,hh,TRUE,523.942,18,male
31,ab,4,20,lh,hh,FALSE,636.1189999999999,18,male
31,ab,4,21,ll,ll,TRUE,4558.954,18,male
31,ab,4,22,hl,hh,FALSE,796.9010000000001,18,male
31,ab,4,23,hh,hh,TRUE,1258.3809999999999,18,male
31,ab,4,24,ll,ll,TRUE,1098.547,18,male
31,ab,4,25,hh,hh,TRUE,7410.986000000001,18,male
31,ab,4,26,ll,ll,TRUE,1362.4009999999998,18,male
31,ab,4,27,ll,ll,TRUE,2810.838,18,male
31,ab,4,28,hl,hh,FALSE,950.501,18,male
31,ab,4,29,hh,ll,FALSE,1397.5079999999998,18,male
31,ab,4,30,lh,hh,FALSE,1899.6219999999998,18,male
31,ab,4,31,hh,hh,TRUE,714.185,18,male
31,ab,4,32,ll,ll,TRUE,702.0840000000001,18,male
31,ab,4,33,ll,ll,TRUE,1357.7089999999998,18,male
31,ab,4,34,hh,hh,TRUE,547.02,18,male
31,ab,4,35,hh,ll,FALSE,1257.935,18,male
31,ab,4,36,ll,lh,FALSE,4306.718,18,male
31,ab,4,37,lh,hh,FALSE,3611.714,18,male
31,ab,4,38,hh,hh,TRUE,1769.694,18,male
31,ab,4,39,lh,ll,FALSE,1972.984,18,male
31,ab,4,40,lh,hl,FALSE,3222.0249999999996,18,male
31,ab,4,41,hh,hh,TRUE,1409.6860000000001,18,male
31,ab,4,42,lh,ll,FALSE,1020.4749999999999,18,male
31,ab,4,43,hh,hh,TRUE,1343.1460000000002,18,male
31,ab,4,44,hh,hh,TRUE,952.0899999999999,18,male
31,ab,4,45,lh,hl,FALSE,1533.728,18,male
31,ab,4,46,ll,hh,FALSE,684.001,18,male
31,ab,4,47,lh,hh,FALSE,6540.89,18,male
31,ab,4,48,lh,lh,TRUE,814.8699999999999,18,male
31,ab,4,49,lh,ll,FALSE,2118.262,18,male
31,ab,4,50,hh,hh,TRUE,567.7080000000001,18,male
31,ab,4,51,ll,lh,FALSE,644.1310000000001,18,male
31,ab,4,52,lh,hh,FALSE,631.5920000000001,18,male
31,ab,4,53,lh,hh,FALSE,1019.181,18,male
31,ab,4,54,hl,hh,FALSE,1037.756,18,male
31,ab,4,55,lh,ll,FALSE,1966.9540000000002,18,male
31,ab,4,56,hl,hh,FALSE,530.704,18,male
31,ab,4,57,lh,hh,FALSE,681.4960000000001,18,male
31,ab,4,58,ll,ll,TRUE,1363.1619999999998,18,male
31,ab,4,59,ll,ll,TRUE,742.923,18,male
31,ab,4,60,lh,hl,FALSE,3353.965,18,male
31,ab,4,61,hh,hh,TRUE,1711.592,18,male
31,ab,4,62,ll,ll,TRUE,1438.3229999999999,18,male
31,ab,4,63,hh,hh,TRUE,1050.897,18,male
31,ab,4,64,lh,hh,FALSE,752.4449999999999,18,male
31,ab,4,65,lh,ll,FALSE,1630.6329999999998,18,male
31,ab,4,66,hl,hl,TRUE,2728.163,18,male
31,ab,4,67,ll,ll,TRUE,1659.06,18,male
31,ab,4,68,hl,hh,FALSE,1928.3760000000002,18,male
31,ab,4,69,lh,hh,FALSE,1310.2269999999999,18,male
31,ab,4,70,lh,hh,FALSE,851.5329999999999,18,male
31,ab,4,71,lh,hh,FALSE,702.1400000000001,18,male
31,ab,4,72,ll,ll,TRUE,1797.879,18,male
31,ab,4,73,ll,hl,FALSE,2524.357,18,male
31,ab,4,74,lh,ll,FALSE,1283.341,18,male
31,ab,4,75,ll,ll,TRUE,3116.054,18,male
31,ab,4,76,ll,hl,FALSE,5694.388,18,male
31,ab,4,77,hl,lh,FALSE,717.1890000000001,18,male
31,ab,4,78,lh,hh,FALSE,1185.078,18,male
31,ab,4,79,lh,lh,TRUE,312.5899999999999,18,male
31,ab,4,80,ll,ll,TRUE,1017.0550000000001,18,male
31,ab,4,81,hl,hl,TRUE,1924.652,18,male
31,ab,4,82,lh,hl,FALSE,2564.995,18,male
31,ab,4,83,lh,lh,TRUE,858.8140000000001,18,male
31,ab,4,84,hl,hh,FALSE,480.66499999999996,18,male
31,ab,4,85,ll,hh,FALSE,2541.829,18,male
31,ab,4,86,hh,hh,TRUE,1720.8870000000002,18,male
31,ab,4,87,hh,ll,FALSE,342.1869999999999,18,male
31,ab,4,88,hh,hh,TRUE,605.921,18,male
31,ab,4,89,ll,ll,TRUE,769.288,18,male
31,ab,4,90,lh,ll,FALSE,727.088,18,male
31,ab,4,91,lh,ll,FALSE,926.3699999999999,18,male
31,ab,4,92,ll,ll,TRUE,1349.7020000000002,18,male
31,ab,4,93,ll,hh,FALSE,1850.491,18,male
31,ab,4,94,lh,ll,FALSE,1519.143,18,male
31,ab,4,95,hh,hh,TRUE,1321.0439999999999,18,male
31,ab,4,96,hl,ll,FALSE,943.4939999999999,18,male
31,ab,4,97,hh,hh,TRUE,677.393,18,male
31,ab,4,98,lh,ll,FALSE,955.7660000000001,18,male
31,ab,4,99,lh,ll,FALSE,858.654,18,male
31,ab,4,100,hh,hh,TRUE,701.97,18,male
31,ab,4,101,ll,hh,FALSE,677.9770000000001,18,male
31,ab,4,102,hl,hh,FALSE,759.4069999999999,18,male
31,ab,4,103,hl,hh,FALSE,876.9970000000001,18,male
31,ab,4,104,hl,hh,FALSE,957.893,18,male
31,ab,4,105,hh,hh,TRUE,1299.257,18,male
31,ab,4,106,ll,ll,TRUE,683.406,18,male
31,ab,4,107,lh,hh,FALSE,1010.999,18,male
31,ab,4,108,hh,hh,TRUE,558.483,18,male
31,ab,4,109,hl,hh,FALSE,852.9649999999999,18,male
31,ab,4,110,hh,lh,FALSE,630.8209999999999,18,male
31,ab,4,111,hh,ll,FALSE,697.644,18,male
31,ab,4,112,lh,hh,FALSE,658.231,18,male
31,ab,4,113,ll,ll,TRUE,1071.3029999999999,18,male
31,ab,4,114,hh,hh,TRUE,1468.3429999999998,18,male
31,ab,4,115,hh,hh,TRUE,968.9390000000001,18,male
31,ab,4,116,ll,ll,TRUE,1130.3429999999998,18,male
31,ab,4,117,ll,ll,TRUE,861.4639999999999,18,male
31,ab,4,118,ll,ll,TRUE,1074.205,18,male
31,ab,4,119,lh,lh,TRUE,4963.137,18,male
31,ab,4,120,ll,ll,TRUE,1192.0320000000002,18,male
31,ab,5,1,hl,hh,FALSE,1150.185,18,male
31,ab,5,2,hh,hh,TRUE,1763.8580000000002,18,male
31,ab,5,3,ll,ll,TRUE,4307.81,18,male
31,ab,5,4,lh,ll,FALSE,1572.5610000000001,18,male
31,ab,5,5,hl,lh,FALSE,2584.348,18,male
31,ab,5,6,hh,hh,TRUE,2034.9720000000002,18,male
31,ab,5,7,lh,ll,FALSE,2378.026,18,male
31,ab,5,8,ll,ll,TRUE,4119.39,18,male
31,ab,5,9,hh,hh,TRUE,1365.3159999999998,18,male
31,ab,5,10,lh,hh,FALSE,864.9939999999999,18,male
31,ab,5,11,ll,ll,TRUE,1354.754,18,male
31,ab,5,12,ll,ll,TRUE,918.904,18,male
31,ab,5,13,hh,hh,TRUE,1853.821,18,male
31,ab,5,14,ll,hh,FALSE,781.108,18,male
31,ab,5,15,lh,ll,FALSE,1450.212,18,male
31,ab,5,16,hl,hh,FALSE,1127.7240000000002,18,male
31,ab,5,17,hh,hh,TRUE,858.0150000000001,18,male
31,ab,5,18,ll,ll,TRUE,819.21,18,male
31,ab,5,19,hl,ll,FALSE,805.114,18,male
31,ab,5,20,hl,hh,FALSE,570.123,18,male
31,ab,5,21,lh,hh,FALSE,744.3810000000001,18,male
31,ab,5,22,ll,ll,TRUE,719.065,18,male
31,ab,5,23,hl,hh,FALSE,765.184,18,male
31,ab,5,24,lh,hh,FALSE,803.0530000000001,18,male
31,ab,5,25,lh,hh,FALSE,578.059,18,male
31,ab,5,26,hh,hh,TRUE,908.818,18,male
31,ab,5,27,ll,hh,FALSE,1531.828,18,male
31,ab,5,28,lh,hh,FALSE,NA,18,male
31,ab,5,29,ll,hl,FALSE,5108.317,18,male
31,ab,5,30,hh,hh,TRUE,876.1669999999999,18,male
31,ab,5,31,hl,ll,FALSE,4382.209,18,male
31,ab,5,32,hl,hh,FALSE,9134.969,18,male
31,ab,5,33,lh,hh,FALSE,3814.048,18,male
31,ab,5,34,lh,hh,FALSE,1767.5,18,male
31,ab,5,35,ll,ll,TRUE,1440.5300000000002,18,male
31,ab,5,36,lh,ll,FALSE,1756.4810000000002,18,male
31,ab,5,37,hl,ll,FALSE,680.518,18,male
31,ab,5,38,hh,ll,FALSE,5233.775,18,male
31,ab,5,39,hh,hh,TRUE,1480.1260000000002,18,male
31,ab,5,40,ll,ll,TRUE,1276.353,18,male
31,ab,5,41,ll,ll,TRUE,2364.602,18,male
31,ab,5,42,hh,hh,TRUE,994.403,18,male
31,ab,5,43,hl,hh,FALSE,1939.183,18,male
31,ab,5,44,lh,hh,FALSE,887.838,18,male
31,ab,5,45,lh,ll,FALSE,1607.4319999999998,18,male
31,ab,5,46,ll,hl,FALSE,4609.984,18,male
31,ab,5,47,ll,ll,TRUE,1133.926,18,male
31,ab,5,48,hh,ll,FALSE,1821.2440000000001,18,male
31,ab,5,49,hh,hh,TRUE,7102.139,18,male
31,ab,5,50,hh,hh,TRUE,1584.524,18,male
31,ab,5,51,hh,hh,TRUE,1817.245,18,male
31,ab,5,52,hh,hh,TRUE,688.1610000000001,18,male
31,ab,5,53,hh,hh,TRUE,720.1479999999999,18,male
31,ab,5,54,ll,ll,TRUE,927.376,18,male
31,ab,5,55,hl,hh,FALSE,1238.9299999999998,18,male
31,ab,5,56,hl,ll,FALSE,696.538,18,male
31,ab,5,57,lh,hh,FALSE,604.623,18,male
31,ab,5,58,lh,ll,FALSE,1541.4009999999998,18,male
31,ab,5,59,lh,ll,FALSE,1330.556,18,male
31,ab,5,60,lh,hh,FALSE,1168.241,18,male
31,ab,5,61,ll,ll,TRUE,805.654,18,male
31,ab,5,62,lh,hh,FALSE,4145.444,18,male
31,ab,5,63,hh,hh,TRUE,1009.2370000000001,18,male
31,ab,5,64,lh,hh,FALSE,704.3889999999999,18,male
31,ab,5,65,lh,lh,TRUE,5209.71,18,male
31,ab,5,66,hh,hh,TRUE,702.797,18,male
31,ab,5,67,lh,hh,FALSE,992.469,18,male
31,ab,5,68,hl,hh,FALSE,1530.9679999999998,18,male
31,ab,5,69,hl,hh,FALSE,865.105,18,male
31,ab,5,70,ll,ll,TRUE,2626.997,18,male
31,ab,5,71,lh,lh,TRUE,1902.1100000000001,18,male
31,ab,5,72,lh,lh,TRUE,4324.925,18,male
31,ab,5,73,hl,hl,TRUE,1319.6219999999998,18,male
31,ab,5,74,lh,hh,FALSE,1121.4119999999998,18,male
31,ab,5,75,hl,hh,FALSE,1300.7959999999998,18,male
31,ab,5,76,lh,ll,FALSE,907.229,18,male
31,ab,5,77,lh,hh,FALSE,285.8219999999999,18,male
31,ab,5,78,ll,ll,TRUE,722.646,18,male
31,ab,5,79,ll,ll,TRUE,669.4770000000001,18,male
31,ab,5,80,hh,hh,TRUE,636.5820000000001,18,male
31,ab,5,81,hh,hh,TRUE,678.5830000000001,18,male
31,ab,5,82,hl,hh,FALSE,752.0139999999999,18,male
31,ab,5,83,hl,hh,FALSE,668.8050000000001,18,male
31,ab,5,84,hh,ll,FALSE,924.5509999999999,18,male
31,ab,5,85,hl,hh,FALSE,838.29,18,male
31,ab,5,86,hl,hh,FALSE,1784.8780000000002,18,male
31,ab,5,87,hl,hh,FALSE,1083.5010000000002,18,male
31,ab,5,88,ll,ll,TRUE,995.9169999999999,18,male
31,ab,5,89,lh,ll,FALSE,948.1220000000001,18,male
31,ab,5,90,hl,hh,FALSE,674.441,18,male
31,ab,5,91,hl,lh,FALSE,3583.523,18,male
31,ab,5,92,ll,ll,TRUE,1119.0439999999999,18,male
31,ab,5,93,lh,hh,FALSE,1160.864,18,male
31,ab,5,94,hl,hh,FALSE,2683.053,18,male
31,ab,5,95,hl,hh,FALSE,2807.84,18,male
31,ab,5,96,hl,ll,FALSE,1056.511,18,male
31,ab,5,97,hh,hh,TRUE,4233.408,18,male
31,ab,5,98,lh,ll,FALSE,2222.281,18,male
31,ab,5,99,lh,hh,FALSE,1001.3209999999999,18,male
31,ab,5,100,hl,hh,FALSE,1921.661,18,male
31,ab,5,101,lh,hh,FALSE,1278.19,18,male
31,ab,5,102,ll,ll,TRUE,1086.792,18,male
31,ab,5,103,hl,hh,FALSE,1519.226,18,male
31,ab,5,104,hl,lh,FALSE,1699.1239999999998,18,male
31,ab,5,105,lh,hl,FALSE,4802.059,18,male
31,ab,5,106,hh,hh,TRUE,783.336,18,male
31,ab,5,107,ll,ll,TRUE,919.9459999999999,18,male
31,ab,5,108,ll,ll,TRUE,1323.632,18,male
31,ab,5,109,hl,ll,FALSE,2289.456,18,male
31,ab,5,110,hh,hh,TRUE,1759.2849999999999,18,male
31,ab,5,111,ll,ll,TRUE,2122.918,18,male
31,ab,5,112,hh,hl,FALSE,3742.7709999999997,18,male
31,ab,5,113,lh,ll,FALSE,2832.566,18,male
31,ab,5,114,ll,hh,FALSE,1359.342,18,male
31,ab,5,115,hl,lh,FALSE,3700.353,18,male
31,ab,5,116,lh,hh,FALSE,762.0899999999999,18,male
31,ab,5,117,lh,hh,FALSE,3221.2790000000005,18,male
31,ab,5,118,hl,hl,TRUE,1284.286,18,male
31,ab,5,119,hl,hh,FALSE,887.299,18,male
31,ab,5,120,hh,hh,TRUE,1612.688,18,male
