pID,condition,block_no,trial_no,stimulus,response,correct,rt,age,gender
20,bc,1,1,hh,hh,TRUE,1898.3719999999998,18,female
20,bc,1,2,hl,hh,FALSE,2448.514,18,female
20,bc,1,3,hl,hh,FALSE,4453.665,18,female
20,bc,1,4,ll,ll,TRUE,5051.043,18,female
20,bc,1,5,ll,ll,TRUE,2501.487,18,female
20,bc,1,6,hh,hh,TRUE,4395.383,18,female
20,bc,1,7,lh,lh,TRUE,4408.743,18,female
20,bc,1,8,hh,hh,TRUE,3334.8059999999996,18,female
20,bc,1,9,hh,hh,TRUE,4121.807,18,female
20,bc,1,10,ll,ll,TRUE,2427.347,18,female
20,bc,1,11,lh,ll,FALSE,4347.912,18,female
20,bc,1,12,hl,hh,FALSE,9014.586,18,female
20,bc,1,13,lh,hl,FALSE,6903.873,18,female
20,bc,1,14,lh,lh,TRUE,8772.837,18,female
20,bc,1,15,hh,hh,TRUE,3211.451,18,female
20,bc,1,16,hh,hh,TRUE,2258.238,18,female
20,bc,1,17,hl,ll,FALSE,1769.364,18,female
20,bc,1,18,ll,ll,TRUE,2486.846,18,female
20,bc,1,19,hh,hh,TRUE,5804.885,18,female
20,bc,1,20,ll,hl,FALSE,2800.204,18,female
20,bc,1,21,lh,lh,TRUE,8513.164,18,female
20,bc,1,22,hh,hh,TRUE,6547.222,18,female
20,bc,1,23,ll,ll,TRUE,8919.235,18,female
20,bc,1,24,lh,hl,FALSE,3982.6440000000002,18,female
20,bc,1,25,lh,hh,FALSE,3487.1090000000004,18,female
20,bc,1,26,lh,lh,TRUE,7699.519,18,female
20,bc,1,27,hh,lh,FALSE,6214.57,18,female
20,bc,1,28,ll,ll,TRUE,2887.512,18,female
20,bc,1,29,hl,ll,FALSE,2693.896,18,female
20,bc,1,30,hl,hh,FALSE,5417.549,18,female
20,bc,1,31,ll,ll,TRUE,2557.088,18,female
20,bc,1,32,ll,ll,TRUE,1393.8180000000002,18,female
20,bc,1,33,hl,hl,TRUE,7693.829,18,female
20,bc,1,34,lh,hl,FALSE,3416.965,18,female
20,bc,1,35,ll,hl,FALSE,14823.004,18,female
20,bc,1,36,hl,ll,FALSE,2577.736,18,female
20,bc,1,37,hh,ll,FALSE,7243.936,18,female
20,bc,1,38,hh,hh,TRUE,3250.611,18,female
20,bc,1,39,lh,hh,FALSE,2016.9099999999999,18,female
20,bc,1,40,hh,hh,TRUE,3210.853,18,female
20,bc,1,41,hl,ll,FALSE,2250.045,18,female
20,bc,1,42,hl,lh,FALSE,3490.4040000000005,18,female
20,bc,1,43,lh,hh,FALSE,3949.206,18,female
20,bc,1,44,lh,ll,FALSE,2078.149,18,female
20,bc,1,45,ll,ll,TRUE,2093.001,18,female
20,bc,1,46,hh,ll,FALSE,4859.156,18,female
20,bc,1,47,hl,ll,FALSE,3227.7529999999997,18,female
20,bc,1,48,ll,ll,TRUE,2483.845,18,female
20,bc,1,49,ll,ll,TRUE,1290.0859999999998,18,female
20,bc,1,50,lh,ll,FALSE,6194.391,18,female
20,bc,1,51,hh,ll,FALSE,3692.8379999999997,18,female
20,bc,1,52,ll,ll,TRUE,2006.7759999999998,18,female
20,bc,1,53,ll,lh,FALSE,6562.174,18,female
20,bc,1,54,lh,lh,TRUE,3797.1670000000004,18,female
20,bc,1,55,ll,hl,FALSE,4164.129,18,female
20,bc,1,56,hh,hh,TRUE,2482.472,18,female
20,bc,1,57,hh,lh,FALSE,5648.481,18,female
20,bc,1,58,lh,hh,FALSE,2089.862,18,female
20,bc,1,59,ll,ll,TRUE,2312.78,18,female
20,bc,1,60,ll,hl,FALSE,7495.223,18,female
20,bc,1,61,ll,hl,FALSE,7633.956,18,female
20,bc,1,62,lh,ll,FALSE,3657.2290000000003,18,female
20,bc,1,63,lh,ll,FALSE,3141.4849999999997,18,female
20,bc,1,64,lh,ll,FALSE,3025.384,18,female
20,bc,1,65,lh,ll,FALSE,2448.164,18,female
20,bc,1,66,ll,lh,FALSE,5488.028,18,female
20,bc,1,67,hl,hh,FALSE,1582.3539999999998,18,female
20,bc,1,68,lh,hh,FALSE,1772.076,18,female
20,bc,1,69,lh,ll,FALSE,1582.828,18,female
20,bc,1,70,ll,ll,TRUE,3523.809,18,female
20,bc,1,71,ll,ll,TRUE,2230.568,18,female
20,bc,1,72,ll,ll,TRUE,1743.5729999999999,18,female
20,bc,1,73,hl,hh,FALSE,3340.4210000000003,18,female
20,bc,1,74,lh,ll,FALSE,2525.203,18,female
20,bc,1,75,ll,ll,TRUE,3786.5389999999998,18,female
20,bc,1,76,lh,lh,TRUE,5129.305,18,female
20,bc,1,77,lh,ll,FALSE,6975.087,18,female
20,bc,1,78,hl,hh,FALSE,3857.4840000000004,18,female
20,bc,1,79,hl,ll,FALSE,3581.4170000000004,18,female
20,bc,1,80,hh,ll,FALSE,3445.232,18,female
20,bc,1,81,lh,lh,TRUE,2755.241,18,female
20,bc,1,82,hh,hh,TRUE,3934.2439999999997,18,female
20,bc,1,83,hh,hh,TRUE,1991.647,18,female
20,bc,1,84,hh,lh,FALSE,5800.254,18,female
20,bc,1,85,ll,ll,TRUE,1835.411,18,female
20,bc,1,86,hl,hh,FALSE,3500.2790000000005,18,female
20,bc,1,87,hl,hh,FALSE,2063.78,18,female
20,bc,1,88,hh,hh,TRUE,2815.63,18,female
20,bc,1,89,hh,ll,FALSE,5255.842,18,female
20,bc,1,90,hl,lh,FALSE,4313.322,18,female
20,bc,1,91,lh,hh,FALSE,3042.86,18,female
20,bc,1,92,hh,hh,TRUE,2537.404,18,female
20,bc,1,93,hl,ll,FALSE,3340.6850000000004,18,female
20,bc,1,94,hh,hh,TRUE,6007.33,18,female
20,bc,1,95,hl,hh,FALSE,3074.131,18,female
20,bc,1,96,hl,hh,FALSE,4111.146,18,female
20,bc,1,97,lh,ll,FALSE,2240.493,18,female
20,bc,1,98,ll,ll,TRUE,1297.1390000000001,18,female
20,bc,1,99,hh,hh,TRUE,1593.0520000000001,18,female
20,bc,1,100,hl,hh,FALSE,2156.134,18,female
20,bc,1,101,hh,hh,TRUE,2072.656,18,female
20,bc,1,102,lh,ll,FALSE,2343.691,18,female
20,bc,1,103,hl,ll,FALSE,2499.52,18,female
20,bc,1,104,ll,hh,FALSE,3168.875,18,female
20,bc,1,105,hl,hl,TRUE,3098.7520000000004,18,female
20,bc,1,106,ll,ll,TRUE,7534.778,18,female
20,bc,1,107,hh,lh,FALSE,5537.39,18,female
20,bc,1,108,ll,lh,FALSE,7999.92,18,female
20,bc,1,109,lh,lh,TRUE,3070.735,18,female
20,bc,1,110,hl,hh,FALSE,2404.306,18,female
20,bc,1,111,ll,ll,TRUE,1454.065,18,female
20,bc,1,112,lh,ll,FALSE,1342.9119999999998,18,female
20,bc,1,113,lh,lh,TRUE,3700.892,18,female
20,bc,1,114,hh,lh,FALSE,2728.07,18,female
20,bc,1,115,ll,ll,TRUE,4691.776,18,female
20,bc,1,116,ll,ll,TRUE,2205.953,18,female
20,bc,1,117,hl,hh,FALSE,2087.216,18,female
20,bc,1,118,ll,ll,TRUE,1526.252,18,female
20,bc,1,119,hh,hh,TRUE,1652.127,18,female
20,bc,1,120,hh,lh,FALSE,7037.617,18,female
20,bc,2,1,hl,hh,FALSE,8974.802,18,female
20,bc,2,2,hl,hh,FALSE,3260.9669999999996,18,female
20,bc,2,3,ll,ll,TRUE,1218.5529999999999,18,female
20,bc,2,4,hl,hh,FALSE,2348.985,18,female
20,bc,2,5,hh,ll,FALSE,3240.8689999999997,18,female
20,bc,2,6,hl,lh,FALSE,10129.433,18,female
20,bc,2,7,hh,lh,FALSE,4655.065,18,female
20,bc,2,8,ll,ll,TRUE,4658.757,18,female
20,bc,2,9,ll,ll,TRUE,1515.821,18,female
20,bc,2,10,hh,hh,TRUE,1596.8319999999999,18,female
20,bc,2,11,lh,hh,FALSE,2992.045,18,female
20,bc,2,12,ll,ll,TRUE,2264.939,18,female
20,bc,2,13,hl,lh,FALSE,5183.893,18,female
20,bc,2,14,hl,hh,FALSE,1284.091,18,female
20,bc,2,15,hh,hh,TRUE,1470.3180000000002,18,female
20,bc,2,16,hh,lh,FALSE,6030.436,18,female
20,bc,2,17,lh,hl,FALSE,4551.745,18,female
20,bc,2,18,ll,ll,TRUE,6831.81,18,female
20,bc,2,19,lh,hh,FALSE,6925.458,18,female
20,bc,2,20,hl,hh,FALSE,2385.007,18,female
20,bc,2,21,hh,hh,TRUE,989.2349999999999,18,female
20,bc,2,22,hl,ll,FALSE,2455.448,18,female
20,bc,2,23,hh,hh,TRUE,1496.658,18,female
20,bc,2,24,hl,hh,FALSE,1055.7959999999998,18,female
20,bc,2,25,hl,hh,FALSE,1599.308,18,female
20,bc,2,26,hl,ll,FALSE,2980.7,18,female
20,bc,2,27,hl,hl,TRUE,4212.699,18,female
20,bc,2,28,ll,ll,TRUE,5403.702,18,female
20,bc,2,29,hl,hh,FALSE,2078.857,18,female
20,bc,2,30,hl,hl,TRUE,2686.428,18,female
20,bc,2,31,hh,hh,TRUE,2027.8760000000002,18,female
20,bc,2,32,ll,ll,TRUE,4212.97,18,female
20,bc,2,33,hl,hh,FALSE,1546.859,18,female
20,bc,2,34,lh,hl,FALSE,6295.985,18,female
20,bc,2,35,ll,ll,TRUE,1126.933,18,female
20,bc,2,36,ll,ll,TRUE,5405.796,18,female
20,bc,2,37,lh,lh,TRUE,6641.454,18,female
20,bc,2,38,ll,ll,TRUE,2226.02,18,female
20,bc,2,39,hl,hl,TRUE,6960.658,18,female
20,bc,2,40,lh,lh,TRUE,4525.081,18,female
20,bc,2,41,hh,lh,FALSE,2757.913,18,female
20,bc,2,42,hh,hl,FALSE,2983.985,18,female
20,bc,2,43,lh,lh,TRUE,4177.977,18,female
20,bc,2,44,hl,hh,FALSE,4960.221,18,female
20,bc,2,45,ll,ll,TRUE,2535.415,18,female
20,bc,2,46,hh,lh,FALSE,6411.766,18,female
20,bc,2,47,lh,ll,FALSE,4308.641,18,female
20,bc,2,48,hh,hh,TRUE,2300.184,18,female
20,bc,2,49,ll,ll,TRUE,5914.842,18,female
20,bc,2,50,ll,ll,TRUE,2472.834,18,female
20,bc,2,51,hl,hl,TRUE,4169.031,18,female
20,bc,2,52,hl,hh,FALSE,4009.182,18,female
20,bc,2,53,lh,ll,FALSE,5885.693,18,female
20,bc,2,54,hh,hh,TRUE,3334.883,18,female
20,bc,2,55,ll,ll,TRUE,2055.383,18,female
20,bc,2,56,ll,lh,FALSE,3385.3109999999997,18,female
20,bc,2,57,hl,lh,FALSE,6210.11,18,female
20,bc,2,58,hl,ll,FALSE,4347.262,18,female
20,bc,2,59,hl,ll,FALSE,1976.513,18,female
20,bc,2,60,hl,ll,FALSE,4174.166,18,female
20,bc,2,61,lh,hh,FALSE,5941.301,18,female
20,bc,2,62,hh,hh,TRUE,2402.933,18,female
20,bc,2,63,ll,ll,TRUE,3044.894,18,female
20,bc,2,64,lh,ll,FALSE,3035.003,18,female
20,bc,2,65,hh,hh,TRUE,1703.877,18,female
20,bc,2,66,hh,hh,TRUE,1417.6260000000002,18,female
20,bc,2,67,hh,hh,TRUE,1858.415,18,female
20,bc,2,68,lh,hh,FALSE,7242.0869999999995,18,female
20,bc,2,69,hl,ll,FALSE,3984.8639999999996,18,female
20,bc,2,70,lh,lh,TRUE,4634.303,18,female
20,bc,2,71,ll,ll,TRUE,2494.392,18,female
20,bc,2,72,hh,lh,FALSE,4980.269,18,female
20,bc,2,73,ll,ll,TRUE,2473.353,18,female
20,bc,2,74,hh,hh,TRUE,1895.06,18,female
20,bc,2,75,hl,lh,FALSE,4302.799,18,female
20,bc,2,76,ll,ll,TRUE,1936.5810000000001,18,female
20,bc,2,77,ll,ll,TRUE,5461.795,18,female
20,bc,2,78,lh,hh,FALSE,4260.398,18,female
20,bc,2,79,hl,lh,FALSE,10554.78,18,female
20,bc,2,80,hh,hh,TRUE,2343.122,18,female
20,bc,2,81,ll,hl,FALSE,4730.884,18,female
20,bc,2,82,hh,hh,TRUE,1370.7849999999999,18,female
20,bc,2,83,hh,lh,FALSE,2500.662,18,female
20,bc,2,84,lh,hh,FALSE,1564.8249999999998,18,female
20,bc,2,85,hl,hh,FALSE,1822.739,18,female
20,bc,2,86,hl,ll,FALSE,1279.94,18,female
20,bc,2,87,hl,hh,FALSE,4306.98,18,female
20,bc,2,88,lh,ll,FALSE,6068.624,18,female
20,bc,2,89,lh,hh,FALSE,2588.055,18,female
20,bc,2,90,hl,hl,TRUE,5733.343,18,female
20,bc,2,91,hh,hh,TRUE,1330.417,18,female
20,bc,2,92,lh,ll,FALSE,4537.693,18,female
20,bc,2,93,lh,hh,FALSE,1464.7379999999998,18,female
20,bc,2,94,hh,lh,FALSE,2807.845,18,female
20,bc,2,95,lh,lh,TRUE,3033.318,18,female
20,bc,2,96,hl,hl,TRUE,7137.518,18,female
20,bc,2,97,hh,hh,TRUE,1633.6350000000002,18,female
20,bc,2,98,hh,lh,FALSE,4638.511,18,female
20,bc,2,99,lh,ll,FALSE,2321.91,18,female
20,bc,2,100,lh,ll,FALSE,3667.8590000000004,18,female
20,bc,2,101,hl,lh,FALSE,4922.682,18,female
20,bc,2,102,lh,ll,FALSE,1967.659,18,female
20,bc,2,103,ll,ll,TRUE,1054.2979999999998,18,female
20,bc,2,104,hl,lh,FALSE,3712.3950000000004,18,female
20,bc,2,105,ll,ll,TRUE,2866.052,18,female
20,bc,2,106,hh,lh,FALSE,5208.799,18,female
20,bc,2,107,lh,lh,TRUE,4396.708,18,female
20,bc,2,108,ll,ll,TRUE,2858.39,18,female
20,bc,2,109,ll,ll,TRUE,1221.3760000000002,18,female
20,bc,2,110,ll,ll,TRUE,1305.4009999999998,18,female
20,bc,2,111,hh,hh,TRUE,1962.1909999999998,18,female
20,bc,2,112,lh,ll,FALSE,2132.385,18,female
20,bc,2,113,hh,lh,FALSE,2923.429,18,female
20,bc,2,114,hl,ll,FALSE,5471.218,18,female
20,bc,2,115,ll,ll,TRUE,2848.064,18,female
20,bc,2,116,hh,hh,TRUE,1716.092,18,female
20,bc,2,117,hh,hh,TRUE,1453.362,18,female
20,bc,2,118,lh,hh,FALSE,12655.251,18,female
20,bc,2,119,hl,lh,FALSE,3624.924,18,female
20,bc,2,120,hh,lh,FALSE,2326.243,18,female
20,bc,3,1,hh,hh,TRUE,3077.876,18,female
20,bc,3,2,ll,ll,TRUE,1842.687,18,female
20,bc,3,3,ll,ll,TRUE,1259.308,18,female
20,bc,3,4,ll,ll,TRUE,1165.7440000000001,18,female
20,bc,3,5,hh,lh,FALSE,2647.886,18,female
20,bc,3,6,hh,lh,FALSE,2850.068,18,female
20,bc,3,7,lh,hh,FALSE,9310.845,18,female
20,bc,3,8,ll,ll,TRUE,2689.541,18,female
20,bc,3,9,hl,ll,FALSE,3734.7290000000003,18,female
20,bc,3,10,ll,ll,TRUE,1072.5279999999998,18,female
20,bc,3,11,hh,hh,TRUE,1119.3539999999998,18,female
20,bc,3,12,lh,lh,TRUE,3128.3379999999997,18,female
20,bc,3,13,hh,hh,TRUE,6024.249,18,female
20,bc,3,14,ll,ll,TRUE,4074.777,18,female
20,bc,3,15,hh,lh,FALSE,3065.307,18,female
20,bc,3,16,lh,hl,FALSE,2852.805,18,female
20,bc,3,17,lh,lh,TRUE,4220.906,18,female
20,bc,3,18,hh,hh,TRUE,1515.234,18,female
20,bc,3,19,lh,hh,FALSE,3042.946,18,female
20,bc,3,20,hl,hh,FALSE,2320.942,18,female
20,bc,3,21,ll,ll,TRUE,1925.703,18,female
20,bc,3,22,lh,ll,FALSE,2506.735,18,female
20,bc,3,23,hh,hh,TRUE,2790.909,18,female
20,bc,3,24,ll,ll,TRUE,1447.83,18,female
20,bc,3,25,hh,hh,TRUE,2975.693,18,female
20,bc,3,26,hl,hh,FALSE,1563.105,18,female
20,bc,3,27,ll,lh,FALSE,2716.894,18,female
20,bc,3,28,ll,ll,TRUE,1771.234,18,female
20,bc,3,29,hl,hh,FALSE,3662.4970000000003,18,female
20,bc,3,30,ll,ll,TRUE,1816.377,18,female
20,bc,3,31,hl,hh,FALSE,2066.74,18,female
20,bc,3,32,ll,ll,TRUE,1594.4209999999998,18,female
20,bc,3,33,hl,hl,TRUE,3817.009,18,female
20,bc,3,34,ll,ll,TRUE,2103.375,18,female
20,bc,3,35,lh,ll,FALSE,1885.991,18,female
20,bc,3,36,hl,hh,FALSE,1921.2240000000002,18,female
20,bc,3,37,ll,ll,TRUE,9762.781,18,female
20,bc,3,38,hl,hh,FALSE,2431.482,18,female
20,bc,3,39,lh,ll,FALSE,4056.2619999999997,18,female
20,bc,3,40,hl,hh,FALSE,5076.578,18,female
20,bc,3,41,lh,ll,FALSE,3765.281,18,female
20,bc,3,42,ll,ll,TRUE,1957.6660000000002,18,female
20,bc,3,43,hl,ll,FALSE,2410.043,18,female
20,bc,3,44,hl,hh,FALSE,1546.6979999999999,18,female
20,bc,3,45,hl,hh,FALSE,1494.8220000000001,18,female
20,bc,3,46,lh,lh,TRUE,3574.4350000000004,18,female
20,bc,3,47,ll,hh,FALSE,2711.556,18,female
20,bc,3,48,ll,ll,TRUE,1547.616,18,female
20,bc,3,49,hh,hh,TRUE,1785.261,18,female
20,bc,3,50,lh,ll,FALSE,1045.169,18,female
20,bc,3,51,lh,lh,TRUE,4612.56,18,female
20,bc,3,52,hl,hh,FALSE,1371.9499999999998,18,female
20,bc,3,53,hh,hh,TRUE,1816.071,18,female
20,bc,3,54,hh,hl,FALSE,2050.965,18,female
20,bc,3,55,hl,hh,FALSE,5466.615,18,female
20,bc,3,56,lh,hh,FALSE,1739.025,18,female
20,bc,3,57,hh,hh,TRUE,960.009,18,female
20,bc,3,58,hh,lh,FALSE,3814.0510000000004,18,female
20,bc,3,59,lh,hh,FALSE,2413.17,18,female
20,bc,3,60,lh,ll,FALSE,5974.626,18,female
20,bc,3,61,ll,ll,TRUE,1345.9479999999999,18,female
20,bc,3,62,lh,hh,FALSE,4296.173,18,female
20,bc,3,63,hh,hh,TRUE,2401.452,18,female
20,bc,3,64,ll,ll,TRUE,3160.4849999999997,18,female
20,bc,3,65,ll,hh,FALSE,7548.9619999999995,18,female
20,bc,3,66,hl,lh,FALSE,6726.702,18,female
20,bc,3,67,hl,hh,FALSE,2320.069,18,female
20,bc,3,68,hh,hh,TRUE,1520.241,18,female
20,bc,3,69,hl,ll,FALSE,1653.645,18,female
20,bc,3,70,hl,ll,FALSE,2150.365,18,female
20,bc,3,71,hl,ll,FALSE,3018.044,18,female
20,bc,3,72,hl,lh,FALSE,3737.617,18,female
20,bc,3,73,lh,hh,FALSE,1699.5300000000002,18,female
20,bc,3,74,ll,ll,TRUE,1949.248,18,female
20,bc,3,75,ll,ll,TRUE,5333.168,18,female
20,bc,3,76,hh,hh,TRUE,1069.833,18,female
20,bc,3,77,lh,lh,TRUE,3558.8860000000004,18,female
20,bc,3,78,hh,hh,TRUE,2215.634,18,female
20,bc,3,79,ll,ll,TRUE,2529.594,18,female
20,bc,3,80,lh,hh,FALSE,2068.918,18,female
20,bc,3,81,ll,lh,FALSE,5565.905,18,female
20,bc,3,82,hl,hh,FALSE,6386.573,18,female
20,bc,3,83,hh,hh,TRUE,1668.786,18,female
20,bc,3,84,ll,lh,FALSE,2501.552,18,female
20,bc,3,85,ll,ll,TRUE,2767.312,18,female
20,bc,3,86,hh,hh,TRUE,1269.717,18,female
20,bc,3,87,hh,hh,TRUE,1726.904,18,female
20,bc,3,88,ll,ll,TRUE,1044.38,18,female
20,bc,3,89,hl,ll,FALSE,3238.9350000000004,18,female
20,bc,3,90,hl,hh,FALSE,3410.124,18,female
20,bc,3,91,hh,hl,FALSE,7291.0869999999995,18,female
20,bc,3,92,hl,hh,FALSE,2863.141,18,female
20,bc,3,93,hl,hh,FALSE,4845.21,18,female
20,bc,3,94,ll,hl,FALSE,5496.542,18,female
20,bc,3,95,hh,hh,TRUE,1311.4299999999998,18,female
20,bc,3,96,lh,hh,FALSE,1606.9299999999998,18,female
20,bc,3,97,hl,hh,FALSE,997.7529999999999,18,female
20,bc,3,98,hl,hh,FALSE,1275.6219999999998,18,female
20,bc,3,99,ll,ll,TRUE,1982.13,18,female
20,bc,3,100,hl,hh,FALSE,2877.567,18,female
20,bc,3,101,lh,ll,FALSE,1550.5639999999999,18,female
20,bc,3,102,ll,ll,TRUE,1272.9679999999998,18,female
20,bc,3,103,ll,ll,TRUE,1493.1819999999998,18,female
20,bc,3,104,hh,hh,TRUE,1796.3319999999999,18,female
20,bc,3,105,hh,hl,FALSE,3631.5550000000003,18,female
20,bc,3,106,hl,hh,FALSE,2441.139,18,female
20,bc,3,107,ll,ll,TRUE,3324.048,18,female
20,bc,3,108,ll,ll,TRUE,1039.596,18,female
20,bc,3,109,hh,lh,FALSE,4910.83,18,female
20,bc,3,110,hh,hh,TRUE,2026.558,18,female
20,bc,3,111,hl,hl,TRUE,4155.017,18,female
20,bc,3,112,lh,hh,FALSE,2339.865,18,female
20,bc,3,113,hh,hh,TRUE,2254.978,18,female
20,bc,3,114,hl,ll,FALSE,3294.166,18,female
20,bc,3,115,lh,ll,FALSE,2331.272,18,female
20,bc,3,116,lh,hh,FALSE,11183.63,18,female
20,bc,3,117,lh,hh,FALSE,4017.9260000000004,18,female
20,bc,3,118,lh,lh,TRUE,4708.465,18,female
20,bc,3,119,ll,ll,TRUE,8349.266,18,female
20,bc,3,120,lh,lh,TRUE,4687.331,18,female
20,bc,4,1,lh,ll,FALSE,6210.285,18,female
20,bc,4,2,lh,hh,FALSE,1432.0259999999998,18,female
20,bc,4,3,hl,hl,TRUE,2635.128,18,female
20,bc,4,4,hh,hh,TRUE,1266.5259999999998,18,female
20,bc,4,5,hh,hh,TRUE,1979.708,18,female
20,bc,4,6,hh,hh,TRUE,1243.9740000000002,18,female
20,bc,4,7,hh,lh,FALSE,2984.666,18,female
20,bc,4,8,hh,ll,FALSE,2514.454,18,female
20,bc,4,9,hh,hh,TRUE,1407.5189999999998,18,female
20,bc,4,10,lh,hh,FALSE,2050.312,18,female
20,bc,4,11,hh,ll,FALSE,2291.049,18,female
20,bc,4,12,lh,hh,FALSE,1696.705,18,female
20,bc,4,13,lh,ll,FALSE,2415.626,18,female
20,bc,4,14,ll,ll,TRUE,904.798,18,female
20,bc,4,15,ll,ll,TRUE,1912.835,18,female
20,bc,4,16,hl,hh,FALSE,1127.4099999999999,18,female
20,bc,4,17,hl,ll,FALSE,1573.8049999999998,18,female
20,bc,4,18,hh,hh,TRUE,1921.8290000000002,18,female
20,bc,4,19,hl,hl,TRUE,4062.392,18,female
20,bc,4,20,hh,lh,FALSE,5386.121,18,female
20,bc,4,21,hl,hh,FALSE,1419.4119999999998,18,female
20,bc,4,22,lh,hh,FALSE,3953.7619999999997,18,female
20,bc,4,23,hl,hh,FALSE,2354.773,18,female
20,bc,4,24,lh,lh,TRUE,6162.313,18,female
20,bc,4,25,lh,lh,TRUE,3985.759,18,female
20,bc,4,26,ll,ll,TRUE,5526.1,18,female
20,bc,4,27,lh,lh,TRUE,6815.445,18,female
20,bc,4,28,ll,ll,TRUE,1584.125,18,female
20,bc,4,29,lh,hh,FALSE,1539.2150000000001,18,female
20,bc,4,30,hh,hh,TRUE,5807.884,18,female
20,bc,4,31,lh,lh,TRUE,3484.554,18,female
20,bc,4,32,ll,lh,FALSE,1551.391,18,female
20,bc,4,33,hh,hh,TRUE,5581.582,18,female
20,bc,4,34,hh,hh,TRUE,1965.7220000000002,18,female
20,bc,4,35,hh,hh,TRUE,2021.5410000000002,18,female
20,bc,4,36,lh,ll,FALSE,1614.8899999999999,18,female
20,bc,4,37,ll,ll,TRUE,1265.328,18,female
20,bc,4,38,ll,ll,TRUE,1242.7040000000002,18,female
20,bc,4,39,hh,hh,TRUE,1269.12,18,female
20,bc,4,40,ll,ll,TRUE,1118.6129999999998,18,female
20,bc,4,41,lh,lh,TRUE,2925.799,18,female
20,bc,4,42,hh,hh,TRUE,1280.734,18,female
20,bc,4,43,lh,ll,FALSE,2185.995,18,female
20,bc,4,44,ll,ll,TRUE,2156.243,18,female
20,bc,4,45,ll,ll,TRUE,980.1020000000001,18,female
20,bc,4,46,lh,hh,FALSE,1037.202,18,female
20,bc,4,47,ll,ll,TRUE,1206.9029999999998,18,female
20,bc,4,48,lh,hl,FALSE,4139.966,18,female
20,bc,4,49,hl,ll,FALSE,1355.518,18,female
20,bc,4,50,lh,ll,FALSE,1761.074,18,female
20,bc,4,51,hh,lh,FALSE,4348.305,18,female
20,bc,4,52,hh,hh,TRUE,1205.321,18,female
20,bc,4,53,,,FALSE,14797.245,18,female
20,bc,4,54,ll,ll,TRUE,2690.593,18,female
20,bc,4,55,ll,ll,TRUE,1159.217,18,female
20,bc,4,56,lh,hh,FALSE,1861.06,18,female
20,bc,4,57,hl,hh,FALSE,1040.898,18,female
20,bc,4,58,lh,hh,FALSE,1331.281,18,female
20,bc,4,59,hh,ll,FALSE,2132.404,18,female
20,bc,4,60,hl,hh,FALSE,1246.241,18,female
20,bc,4,61,ll,ll,TRUE,1092.1260000000002,18,female
20,bc,4,62,hh,ll,FALSE,1332.6889999999999,18,female
20,bc,4,63,hl,hh,FALSE,1499.4360000000001,18,female
20,bc,4,64,hl,hl,TRUE,4842.96,18,female
20,bc,4,65,hl,hh,FALSE,1437.547,18,female
20,bc,4,66,hl,ll,FALSE,1439.2530000000002,18,female
20,bc,4,67,hl,lh,FALSE,3640.7569999999996,18,female
20,bc,4,68,ll,ll,TRUE,4831.284,18,female
20,bc,4,69,lh,lh,TRUE,5983.164,18,female
20,bc,4,70,lh,hh,FALSE,1237.5059999999999,18,female
20,bc,4,71,hh,lh,FALSE,2497.607,18,female
20,bc,4,72,hl,hh,FALSE,1113.962,18,female
20,bc,4,73,ll,ll,TRUE,3741.9849999999997,18,female
20,bc,4,74,lh,hh,FALSE,2903.49,18,female
20,bc,4,75,lh,lh,TRUE,2907.97,18,female
20,bc,4,76,lh,ll,FALSE,2000.3090000000002,18,female
20,bc,4,77,hh,hh,TRUE,1070.212,18,female
20,bc,4,78,hh,lh,FALSE,2421.192,18,female
20,bc,4,79,hl,ll,FALSE,2352.349,18,female
20,bc,4,80,lh,ll,FALSE,4720.528,18,female
20,bc,4,81,ll,ll,TRUE,1041.318,18,female
20,bc,4,82,hh,hh,TRUE,1267.2510000000002,18,female
20,bc,4,83,ll,ll,TRUE,1004.9670000000001,18,female
20,bc,4,84,hl,ll,FALSE,2612.863,18,female
20,bc,4,85,hh,lh,FALSE,3009.445,18,female
20,bc,4,86,hl,ll,FALSE,2289.224,18,female
20,bc,4,87,hh,hh,TRUE,1651.6799999999998,18,female
20,bc,4,88,hl,hh,FALSE,1328.214,18,female
20,bc,4,89,hh,hh,TRUE,1046.817,18,female
20,bc,4,90,ll,ll,TRUE,1089.5839999999998,18,female
20,bc,4,91,ll,ll,TRUE,985.4300000000001,18,female
20,bc,4,92,lh,hh,FALSE,1454.283,18,female
20,bc,4,93,ll,ll,TRUE,1000.395,18,female
20,bc,4,94,lh,hh,FALSE,988.7829999999999,18,female
20,bc,4,95,ll,ll,TRUE,1137.1019999999999,18,female
20,bc,4,96,lh,ll,FALSE,3967.219,18,female
20,bc,4,97,hl,hh,FALSE,1624.0970000000002,18,female
20,bc,4,98,ll,ll,TRUE,913.3510000000001,18,female
20,bc,4,99,hh,lh,FALSE,2873.524,18,female
20,bc,4,100,lh,hl,FALSE,1571.6819999999998,18,female
20,bc,4,101,ll,ll,TRUE,1611.926,18,female
20,bc,4,102,hh,hh,TRUE,1018.431,18,female
20,bc,4,103,lh,hh,FALSE,1034.246,18,female
20,bc,4,104,ll,ll,TRUE,2698.143,18,female
20,bc,4,105,hh,lh,FALSE,2554.718,18,female
20,bc,4,106,hl,ll,FALSE,3564.959,18,female
20,bc,4,107,hl,hh,FALSE,1206.0880000000002,18,female
20,bc,4,108,hl,ll,FALSE,1329.6680000000001,18,female
20,bc,4,109,hh,hh,TRUE,1347.9099999999999,18,female
20,bc,4,110,ll,ll,TRUE,865.992,18,female
20,bc,4,111,hl,hh,FALSE,1896.074,18,female
20,bc,4,112,hl,ll,FALSE,1761.9009999999998,18,female
20,bc,4,113,hh,ll,FALSE,2506.598,18,female
20,bc,4,114,hl,ll,FALSE,2574.7,18,female
20,bc,4,115,lh,hh,FALSE,4488.461,18,female
20,bc,4,116,ll,hh,FALSE,2155.054,18,female
20,bc,4,117,hh,lh,FALSE,4471.273,18,female
20,bc,4,118,hl,ll,FALSE,5058.733,18,female
20,bc,4,119,hh,hh,TRUE,2573.023,18,female
20,bc,4,120,ll,ll,TRUE,1075.726,18,female
20,bc,5,1,hl,hl,TRUE,4401.791,18,female
20,bc,5,2,lh,ll,FALSE,3315.8360000000002,18,female
20,bc,5,3,lh,ll,FALSE,1440.163,18,female
20,bc,5,4,hl,hl,TRUE,3497.1620000000003,18,female
20,bc,5,5,hh,hh,TRUE,1164.8629999999998,18,female
20,bc,5,6,ll,ll,TRUE,1994.3110000000001,18,female
20,bc,5,7,hh,hh,TRUE,1237.156,18,female
20,bc,5,8,ll,ll,TRUE,1335.8090000000002,18,female
20,bc,5,9,ll,ll,TRUE,982.1199999999999,18,female
20,bc,5,10,ll,ll,TRUE,915.374,18,female
20,bc,5,11,hl,lh,FALSE,6267.694,18,female
20,bc,5,12,hl,hh,FALSE,5394.24,18,female
20,bc,5,13,lh,ll,FALSE,3452.156,18,female
20,bc,5,14,ll,ll,TRUE,1691.8829999999998,18,female
20,bc,5,15,ll,ll,TRUE,962.941,18,female
20,bc,5,16,lh,ll,FALSE,3442.9790000000003,18,female
20,bc,5,17,lh,lh,TRUE,3284.785,18,female
20,bc,5,18,lh,hh,FALSE,2450.09,18,female
20,bc,5,19,hl,ll,FALSE,1489.6480000000001,18,female
20,bc,5,20,ll,ll,TRUE,3912.9170000000004,18,female
20,bc,5,21,ll,ll,TRUE,1974.5030000000002,18,female
20,bc,5,22,hl,lh,FALSE,2554.439,18,female
20,bc,5,23,hh,hh,TRUE,1346.1729999999998,18,female
20,bc,5,24,ll,ll,TRUE,895.9490000000001,18,female
20,bc,5,25,hl,hh,FALSE,1128.797,18,female
20,bc,5,26,hl,hl,TRUE,3967.29,18,female
20,bc,5,27,ll,ll,TRUE,1023.4949999999999,18,female
20,bc,5,28,ll,ll,TRUE,2122.49,18,female
20,bc,5,29,hh,hh,TRUE,1411.5720000000001,18,female
20,bc,5,30,lh,hh,FALSE,955.396,18,female
20,bc,5,31,lh,hh,FALSE,1713.6619999999998,18,female
20,bc,5,32,ll,ll,TRUE,991.8109999999999,18,female
20,bc,5,33,lh,hh,FALSE,1620.598,18,female
20,bc,5,34,ll,ll,TRUE,1199.0010000000002,18,female
20,bc,5,35,ll,ll,TRUE,2086.826,18,female
20,bc,5,36,hh,hh,TRUE,1325.261,18,female
20,bc,5,37,hl,hh,FALSE,2212.53,18,female
20,bc,5,38,hh,ll,FALSE,2617.515,18,female
20,bc,5,39,ll,ll,TRUE,1122.0010000000002,18,female
20,bc,5,40,hl,ll,FALSE,889.3610000000001,18,female
20,bc,5,41,lh,lh,TRUE,2357.447,18,female
20,bc,5,42,ll,hl,FALSE,3516.8959999999997,18,female
20,bc,5,43,lh,hh,FALSE,1416.7150000000001,18,female
20,bc,5,44,hl,lh,FALSE,1246.0390000000002,18,female
20,bc,5,45,lh,ll,FALSE,5636.441,18,female
20,bc,5,46,lh,lh,TRUE,3670.151,18,female
20,bc,5,47,hh,hh,TRUE,2715.366,18,female
20,bc,5,48,hh,hh,TRUE,872.231,18,female
20,bc,5,49,hh,lh,FALSE,2368.004,18,female
20,bc,5,50,hh,hh,TRUE,1103.9940000000001,18,female
20,bc,5,51,hl,hh,FALSE,906.8119999999999,18,female
20,bc,5,52,ll,ll,TRUE,1098.5140000000001,18,female
20,bc,5,53,lh,hh,FALSE,874.7729999999999,18,female
20,bc,5,54,hh,hh,TRUE,815.395,18,female
20,bc,5,55,lh,hh,FALSE,1136.6570000000002,18,female
20,bc,5,56,hh,hh,TRUE,1103.444,18,female
20,bc,5,57,hh,hh,TRUE,1863.6219999999998,18,female
20,bc,5,58,hh,lh,FALSE,4023.581,18,female
20,bc,5,59,ll,ll,TRUE,1973.9850000000001,18,female
20,bc,5,60,lh,ll,FALSE,1055.578,18,female
20,bc,5,61,ll,ll,TRUE,853.56,18,female
20,bc,5,62,ll,hl,FALSE,1593.3020000000001,18,female
20,bc,5,63,lh,hh,FALSE,1356.449,18,female
20,bc,5,64,hl,hh,FALSE,1461.46,18,female
20,bc,5,65,lh,ll,FALSE,1606.444,18,female
20,bc,5,66,lh,lh,TRUE,2216.568,18,female
20,bc,5,67,hh,hh,TRUE,1162.3020000000001,18,female
20,bc,5,68,ll,ll,TRUE,2831.671,18,female
20,bc,5,69,hh,hh,TRUE,2086.493,18,female
20,bc,5,70,hh,hh,TRUE,1334.7289999999998,18,female
20,bc,5,71,hl,hh,FALSE,1115.4450000000002,18,female
20,bc,5,72,hh,hh,TRUE,798.94,18,female
20,bc,5,73,lh,ll,FALSE,2048.637,18,female
20,bc,5,74,hl,ll,FALSE,1336.8470000000002,18,female
20,bc,5,75,hh,ll,FALSE,3388.4700000000003,18,female
20,bc,5,76,ll,ll,TRUE,2187.068,18,female
20,bc,5,77,hh,hh,TRUE,1115.2530000000002,18,female
20,bc,5,78,lh,lh,TRUE,3689.719,18,female
20,bc,5,79,hl,hh,FALSE,2278.041,18,female
20,bc,5,80,hl,hh,FALSE,1740.815,18,female
20,bc,5,81,hh,lh,FALSE,2016.5659999999998,18,female
20,bc,5,82,lh,lh,TRUE,4139.166,18,female
20,bc,5,83,hl,lh,FALSE,2332.507,18,female
20,bc,5,84,hl,hh,FALSE,1097.2640000000001,18,female
20,bc,5,85,lh,lh,TRUE,1856.551,18,female
20,bc,5,86,ll,ll,TRUE,2312.595,18,female
20,bc,5,87,lh,hh,FALSE,2915.046,18,female
20,bc,5,88,lh,ll,FALSE,2353.333,18,female
20,bc,5,89,lh,ll,FALSE,1933.5900000000001,18,female
20,bc,5,90,lh,ll,FALSE,5089.85,18,female
20,bc,5,91,lh,ll,FALSE,1789.9189999999999,18,female
20,bc,5,92,hh,lh,FALSE,5416.541,18,female
20,bc,5,93,hl,hh,FALSE,1148.6999999999998,18,female
20,bc,5,94,hl,hh,FALSE,1166.5479999999998,18,female
20,bc,5,95,ll,ll,TRUE,2493.475,18,female
20,bc,5,96,ll,ll,TRUE,1514.3600000000001,18,female
20,bc,5,97,ll,ll,TRUE,1638.848,18,female
20,bc,5,98,lh,ll,FALSE,1169.585,18,female
20,bc,5,99,hh,hh,TRUE,1691.4520000000002,18,female
20,bc,5,100,hl,hh,FALSE,1790.4920000000002,18,female
20,bc,5,101,ll,ll,TRUE,1393.2060000000001,18,female
20,bc,5,102,hl,lh,FALSE,1556.929,18,female
20,bc,5,103,hl,ll,FALSE,3273.1279999999997,18,female
20,bc,5,104,hh,lh,FALSE,4119.039,18,female
20,bc,5,105,hl,hh,FALSE,3641.3779999999997,18,female
20,bc,5,106,lh,lh,TRUE,7291.799000000001,18,female
20,bc,5,107,hl,ll,FALSE,1828.1190000000001,18,female
20,bc,5,108,lh,ll,FALSE,1698.431,18,female
20,bc,5,109,hl,lh,FALSE,3228.379,18,female
20,bc,5,110,lh,ll,FALSE,1198.7510000000002,18,female
20,bc,5,111,lh,ll,FALSE,1520.8760000000002,18,female
20,bc,5,112,hh,hh,TRUE,1301.467,18,female
20,bc,5,113,hh,lh,FALSE,3534.977,18,female
20,bc,5,114,hh,lh,FALSE,6723.609,18,female
20,bc,5,115,hl,hh,FALSE,1396.3829999999998,18,female
20,bc,5,116,lh,ll,FALSE,1662.5900000000001,18,female
20,bc,5,117,hl,hh,FALSE,1280.2890000000002,18,female
20,bc,5,118,hl,ll,FALSE,1104.8960000000002,18,female
20,bc,5,119,ll,lh,FALSE,2432.426,18,female
20,bc,5,120,lh,lh,TRUE,8801.258,18,female
