sender,sender_type,sender_id,timestamp,meta,,age,blockNo,c1,c2,condition,correct,correctResponse,duration,ended_on,f1,f1_high,f1_low,f2,f2_high,f2_low,feature_level1,feature_level2,gender,img_left,img_reveal,img_right,n_target_images,practice,response,response_action,selection_duration,staircase,time_commit,time_end,time_render,time_run,time_show,time_switch,total_blocks,total_trials,trialNo,url
informed_consent,html.Screen,0,2023-11-15T16:59:08.497Z,"{""labjs_version"":""20.2.4"",""labjs_build"":{""flavor"":""development"",""commit"":""f5b4a49f956347addd546a832a3327688c2c0fef""},""location"":""https://labjs.felixhenninger.com/api/labjs_preview/index.html"",""userAgent"":""Mozilla/5.0 (Windows NT 10.0; Win64; x64) AppleWebKit/537.36 (KHTML, like Gecko) Chrome/119.0.0.0 Safari/537.36"",""platform"":""Win32"",""language"":""en-US"",""locale"":""en-US"",""timeZone"":""America/Chicago"",""timezoneOffset"":360,""screen_width"":1680,""screen_height"":1050,""scroll_width"":825,""scroll_height"":888,""window_innerWidth"":825,""window_innerHeight"":936,""devicePixelRatio"":1}",,,,,,,,,51538.67899998808,response,,,,,,,,,,,,,,,consent,click button,,,52175.80000001192,52167.19999998808,611.867,598.3000000119209,628.521,52178.739,,,,{}
Demography form,html.Form,1,2023-11-15T16:59:16.074Z,,,20,,,,,,,7573.661000035761,form submission,,,,,,,,,female,,,,,,,,,,59752.5,59752.40000003576,52162.323,52176,52178.739,59777.147,,,,
Welcome,html.Screen,2,2023-11-15T16:59:17.185Z,,,,,,,"[""bor"",""col""]",,,1085.7530000357656,response,,,,,,,,,,,,,,,continue,click button,,,60863.40000003576,60862.90000003576,59760.319,59752.60000002384,59777.147,60879.214,,,,
demo_instructions,html.Screen,3,2023-11-15T17:00:41.627Z,,,,,,,,,,84423.88600002383,response,,,,,,,,,,,,,,,continue,click button,,,145303.69999998808,145303.10000002384,60862.64,60863.5,60879.214,145309.878,,,,
trial,html.Screen,4_0_0,2023-11-15T17:00:48.911Z,,,,0,0.7079689798840642,-0.9053957126199562,,true,lh,7277.722000023845,response,-0.8110121381849364,0.8999999999999997,-0.8999999999999997,0.7563142141851558,0.8999999999999997,-0.8999999999999997,low,high,,ISIC_0058863.JPG,,ISIC_0033605.JPG,29,true,lh,keypress(e),100,false,152587.80000001192,152587.60000002384,145293.213,145303.90000003576,145309.878,152607.441,1,16,1,
sequence,flow.Sequence,4_0,2023-11-15T17:00:48.918Z,,,,,,,,,,7277.722000023845,completion,,,,,,,low,high,,,,,,true,,,,false,152595.30000001192,152587.60000002384,145293.213,145303.80000001192,145309.878,152607.441,1,16,,
trial,html.Screen,4_1_0,2023-11-15T17:00:52.394Z,,,,0,0.7856143618373893,-1.0273608829432213,,false,lh,3463.959000035771,response,-1.075512775389519,0.8999999999999997,-0.8999999999999997,1.0454702683049502,0.8999999999999997,-0.8999999999999997,low,high,,ISIC_9303849.JPG,,ISIC_0033603.JPG,29,true,hh,keypress(i),100,false,156071.60000002384,156071.40000003576,152590.717,152595.40000003576,152607.441,156097.523,1,16,2,
sequence,flow.Sequence,4_1,2023-11-15T17:00:52.395Z,,,,,,,,,,3463.959000035771,completion,,,,,,,low,high,,,,,,true,,,,false,156071.69999998808,156071.40000003576,152590.717,152595.40000003576,152607.441,156097.523,1,16,,
trial,html.Screen,4_2_0,2023-11-15T17:01:00.847Z,,,,0,1.004142980655507,-0.7749773174967559,,false,lh,8426.377000035776,response,-0.8926515927689261,0.8999999999999997,-0.8999999999999997,0.7935960767768927,0.8999999999999997,-0.8999999999999997,low,high,,ISIC_3936223.JPG,,ISIC_8901371.JPG,29,true,ll,keypress(f),100,false,164524.19999998808,164523.90000003576,156080.828,156071.90000003576,156097.523,164547.367,1,16,3,
sequence,flow.Sequence,4_2,2023-11-15T17:01:00.848Z,,,,,,,,,,8426.377000035776,completion,,,,,,,low,high,,,,,,true,,,,false,164524.60000002384,164523.90000003576,156080.828,156071.80000001192,156097.523,164547.367,1,16,,
trial,html.Screen,4_3_0,2023-11-15T17:01:04.422Z,,,,0,0.7016609136175869,-0.8694041951927121,,true,lh,3551.5330000357644,response,-0.8034318937720549,0.8999999999999997,-0.8999999999999997,1.0024917298189338,0.8999999999999997,-0.8999999999999997,low,high,,ISIC_0897876.JPG,,ISIC_0032766.JPG,29,true,lh,keypress(e),100,false,168099.10000002384,168098.90000003576,164530.756,164524.80000001192,164547.367,168120.938,1,16,4,
sequence,flow.Sequence,4_3,2023-11-15T17:01:04.422Z,,,,,,,,,,3551.5330000357644,completion,,,,,,,low,high,,,,,,true,,,,false,168099.19999998808,168098.90000003576,164530.756,164524.80000001192,164547.367,168120.938,1,16,,
trial,html.Screen,4_4_0,2023-11-15T17:01:24.250Z,,,,0,0.8214996989009526,0.9889466964422248,,true,ll,19805.362000011926,response,-0.9961674882214306,0.8999999999999997,-0.8999999999999997,-0.7490338425009774,0.8999999999999997,-0.8999999999999997,low,low,,ISIC_0000305.JPG,,ISIC_0624779.JPG,169,true,ll,keypress(f),100,false,187926.90000003576,187926.30000001192,168104.216,168099.40000003576,168120.938,187942.855,1,16,5,
sequence,flow.Sequence,4_4,2023-11-15T17:01:24.251Z,,,,,,,,,,19805.362000011926,completion,,,,,,,low,low,,,,,,true,,,,false,187927.80000001192,187926.30000001192,168104.216,168099.30000001192,168120.938,187942.855,1,16,,
trial,html.Screen,4_5_0,2023-11-15T17:01:39.833Z,,,,0,1.0887084502656488,1.0539327766106836,,true,ll,15566.745000023831,response,-1.0325421457475312,0.8999999999999997,-0.8999999999999997,-1.0219157566370058,0.8999999999999997,-0.8999999999999997,low,low,,ISIC_0030417.JPG,,ISIC_5336548.JPG,169,true,ll,keypress(f),100,false,203510.10000002384,203509.60000002384,187926.218,187928.10000002384,187942.855,203540.051,1,16,6,
sequence,flow.Sequence,4_5,2023-11-15T17:01:39.833Z,,,,,,,,,,15566.745000023831,completion,,,,,,,low,low,,,,,,true,,,,false,203510.60000002384,203509.60000002384,187926.218,187927.90000003576,187942.855,203540.051,1,16,,
trial,html.Screen,4_6_0,2023-11-15T17:01:45.422Z,,,,0,1.0712988318327483,0.813758249035235,,true,ll,5557.948999999993,response,-1.0325421457475312,0.8999999999999997,-0.8999999999999997,-1.0219157566370058,0.8999999999999997,-0.8999999999999997,low,low,,ISIC_5762714.JPG,,ISIC_5336548.JPG,169,true,ll,keypress(f),100,false,209098.10000002384,209098,203523.384,203510.60000002384,203540.051,209117.356,1,16,7,
sequence,flow.Sequence,4_6,2023-11-15T17:01:45.422Z,,,,,,,,,,5557.948999999993,completion,,,,,,,low,low,,,,,,true,,,,false,209098.30000001192,209098,203523.384,203510.60000002384,203540.051,209117.356,1,16,,
trial,html.Screen,4_7_0,2023-11-15T17:01:53.891Z,,,,0,0.9506660770270554,0.8543483016673109,,true,ll,8449.84399998808,response,-0.8071149391753215,0.8999999999999997,-0.8999999999999997,-0.9485840589720004,0.8999999999999997,-0.8999999999999997,low,low,,ISIC_0053469.JPG,,ISIC_2784686.JPG,169,true,ll,keypress(f),100,false,217567.40000003576,217567.19999998808,209100.638,209098.40000003576,209117.356,217583.762,1,16,8,
sequence,flow.Sequence,4_7,2023-11-15T17:01:53.892Z,,,,,,,,,,8449.84399998808,completion,,,,,,,low,low,,,,,,true,,,,false,217567.5,217567.19999998808,209100.638,209098.40000003576,209117.356,217583.762,1,16,,
trial,html.Screen,4_8_0,2023-11-15T17:02:09.546Z,,,,0,-0.7411887874358276,0.7869222465141029,,true,hl,15637.338000023854,response,0.7552468233268477,0.8999999999999997,-0.8999999999999997,-0.71846037114465,0.8999999999999997,-0.8999999999999997,high,low,,ISIC_6255113.JPG,,ISIC_2354070.JPG,43,true,hl,keypress(j),100,false,233221.60000002384,233221.10000002384,217567.058,217567.60000002384,217583.762,233247.778,1,16,9,
sequence,flow.Sequence,4_8,2023-11-15T17:02:09.546Z,,,,,,,,,,15637.338000023854,completion,,,,,,,high,low,,,,,,true,,,,false,233222.30000001192,233221.10000002384,217567.058,217567.5,217583.762,233247.778,1,16,,
trial,html.Screen,4_9_0,2023-11-15T17:02:21.018Z,,,,0,-0.8034318937720549,1.0024917298189338,,true,hl,11445.921999988088,response,0.9244148283103414,0.8999999999999997,-0.8999999999999997,-0.9712966348713286,0.8999999999999997,-0.8999999999999997,high,low,,ISIC_0032766.JPG,,ISIC_7927525.JPG,43,true,hl,keypress(j),100,false,244694.19999998808,244693.69999998808,233230.986,233222.60000002384,233247.778,244720.149,1,16,10,
sequence,flow.Sequence,4_9,2023-11-15T17:02:21.019Z,,,,,,,,,,11445.921999988088,completion,,,,,,,high,low,,,,,,true,,,,false,244694.80000001192,244693.69999998808,233230.986,233222.5,233247.778,244720.149,1,16,,
trial,html.Screen,4_10_0,2023-11-15T17:02:26.168Z,,,,0,-0.7246771568562105,0.9161385080362604,,true,hl,5123.550999988074,response,1.0116417541846066,0.8999999999999997,-0.8999999999999997,-1.033442916947398,0.8999999999999997,-0.8999999999999997,high,low,,ISIC_0028225.JPG,,ISIC_0031389.JPG,43,true,hl,keypress(j),100,false,249843.90000003576,249843.69999998808,244703.27,244695.10000002384,244720.149,249863.477,1,16,11,
sequence,flow.Sequence,4_10,2023-11-15T17:02:26.168Z,,,,,,,,,,5123.550999988074,completion,,,,,,,high,low,,,,,,true,,,,false,249844.19999998808,249843.69999998808,244703.27,244695.10000002384,244720.149,249863.477,1,16,,
trial,html.Screen,4_11_0,2023-11-15T17:02:36.799Z,,,,0,-0.8830264383952469,0.8635562538060516,,true,hl,10610.92300003575,response,0.7692916291112835,0.8999999999999997,-0.8999999999999997,-0.7818604706992622,0.8999999999999997,-0.8999999999999997,high,low,,ISIC_0032258.JPG,,ISIC_7844825.JPG,43,true,hl,keypress(j),100,false,260474.90000003576,260474.40000003576,249846.534,249844.30000001192,249863.477,260500.714,1,16,12,
sequence,flow.Sequence,4_11,2023-11-15T17:02:36.800Z,,,,,,,,,,10610.92300003575,completion,,,,,,,high,low,,,,,,true,,,,false,260475.60000002384,260474.40000003576,249846.534,249844.30000001192,249863.477,260500.714,1,16,,
trial,html.Screen,4_12_0,2023-11-15T17:02:54.287Z,,,,0,-0.7268043404851218,-0.8184581417483975,,true,hh,17461.086000011914,response,0.8663139955905144,0.8999999999999997,-0.8999999999999997,0.940959443919478,0.8999999999999997,-0.8999999999999997,high,high,,ISIC_0002118.JPG,,ISIC_0010040.JPG,184,true,hh,keypress(i),100,false,277962,277961.8000000119,260483.973,260475.90000003576,260500.714,277984.613,1,16,13,
sequence,flow.Sequence,4_12,2023-11-15T17:02:54.287Z,,,,,,,,,,17461.086000011914,completion,,,,,,,high,high,,,,,,true,,,,false,277962.3000000119,277961.8000000119,260483.973,260475.69999998808,260500.714,277984.613,1,16,,
trial,html.Screen,4_13_0,2023-11-15T17:03:04.212Z,,,,0,-0.8402120256990608,-0.8954736909537534,,true,hh,9902.586999988067,response,0.7950276358398455,0.8999999999999997,-0.8999999999999997,1.087838988516297,0.8999999999999997,-0.8999999999999997,high,high,,ISIC_0580054.JPG,,ISIC_0032019.JPG,184,true,hh,keypress(i),100,false,287887.5,287887.1999999881,277967.912,277962.5,277984.613,287903.904,1,16,14,
sequence,flow.Sequence,4_13,2023-11-15T17:03:04.212Z,,,,,,,,,,9902.586999988067,completion,,,,,,,high,high,,,,,,true,,,,false,287887.60000002384,287887.1999999881,277967.912,277962.5,277984.613,287903.904,1,16,,
trial,html.Screen,4_14_0,2023-11-15T17:03:11.050Z,,,,0,-1.086808687078377,-0.8881204850517516,,true,hh,6820.59600000002,response,0.7648337515968654,0.8999999999999997,-0.8999999999999997,1.0074582761138169,0.8999999999999997,-0.8999999999999997,high,high,,ISIC_4014307.JPG,,ISIC_0011422.JPG,184,true,hh,keypress(i),100,false,294725,294724.5,287887.168,287887.6999999881,287903.904,294750.764,1,16,15,
sequence,flow.Sequence,4_14,2023-11-15T17:03:11.050Z,,,,,,,,,,6820.59600000002,completion,,,,,,,high,high,,,,,,true,,,,false,294725.60000002384,294724.5,287887.168,287887.60000002384,287903.904,294750.764,1,16,,
trial,html.Screen,4_15_0,2023-11-15T17:03:15.847Z,,,,0,-0.8044219203899928,-0.7681076927463542,,true,hh,4771.735999999975,response,0.7509882656706086,0.8999999999999997,-0.8999999999999997,0.8368364447246962,0.8999999999999997,-0.8999999999999997,high,high,,ISIC_0028768.JPG,,ISIC_0062005.JPG,184,true,hh,keypress(i),100,false,299522.6999999881,299522.5,294733.918,294725.90000003576,294750.764,299543.216,1,16,16,
sequence,flow.Sequence,4_15,2023-11-15T17:03:15.848Z,,,,,,,,,,4771.735999999975,completion,,,,,,,high,high,,,,,,true,,,,false,299523,299522.5,294733.918,294725.8000000119,294750.764,299543.216,1,16,,
demonstration_loop,flow.Loop,4,2023-11-15T17:03:15.848Z,,,,,,,,,,154212.622,completion,,,,,,,,,,,,,,true,,,,false,299523.10000002384,299522.5,145293.213,145303.80000001192,145309.878,299543.216,1,16,,
practice_instructions,html.Screen,5,2023-11-15T17:03:30.460Z,,,,,,,,,,14583.783999999985,response,,,,,,,,,,,,,,,continue,click button,,,314135.3000000119,314127,299526.527,299523.1999999881,299543.216,314138.226,,,,
trial,html.Screen,6_0_0,2023-11-15T17:03:36.866Z,,,,1,0.7261723159116604,1.045616100036335,,true,ll,6396.074000011897,response,-0.9582474649169744,0.8999999999999997,-0.8999999999999997,-0.8117789358233404,0.8999999999999997,-0.8999999999999997,low,low,,ISIC_0011031.JPG,,ISIC_0821520.JPG,169,true,ll,keypress(f),0,false,320541.3000000119,320534.3000000119,314121.758,314135.40000003576,314138.226,320550.816,1,40,1,
sequence,flow.Sequence,6_0,2023-11-15T17:03:36.866Z,,,,,,,,,,6396.074000011897,completion,,,,,,,low,low,,,,,,true,,,,false,320541.40000003576,320534.3000000119,314121.758,314135.3000000119,314138.226,320550.816,1,40,,
trial,html.Screen,6_1_0,2023-11-15T17:03:42.055Z,,,,1,0.9665123004833394,1.0732323917096356,,true,ll,5177.78400002385,response,-0.7584502386393838,0.8999999999999997,-0.8999999999999997,-0.9825823454317724,0.8999999999999997,-0.8999999999999997,low,low,,ISIC_3684488.JPG,,ISIC_9820910.JPG,169,true,ll,keypress(f),0,false,325729,325728.60000002384,320534.012,320541.5,320550.816,325744.308,1,40,2,
sequence,flow.Sequence,6_1,2023-11-15T17:03:42.055Z,,,,,,,,,,5177.78400002385,completion,,,,,,,low,low,,,,,,true,,,,false,325729.5,325728.60000002384,320534.012,320541.40000003576,320550.816,325744.308,1,40,,
trial,html.Screen,6_2_0,2023-11-15T17:03:50.366Z,,,,1,-0.8110121381849364,0.7563142141851558,,true,hl,8296.19199999998,response,0.9244148283103414,0.8999999999999997,-0.8999999999999997,-0.9712966348713286,0.8999999999999997,-0.8999999999999997,high,low,,ISIC_0033605.JPG,,ISIC_7927525.JPG,43,true,hl,keypress(j),0,false,334040.8000000119,334040.5,325727.558,325729.6999999881,325744.308,334043.691,1,40,3,
sequence,flow.Sequence,6_2,2023-11-15T17:03:50.367Z,,,,,,,,,,8296.19199999998,completion,,,,,,,high,low,,,,,,true,,,,false,334041.3000000119,334040.5,325727.558,325729.60000002384,325744.308,334043.691,1,40,,
trial,html.Screen,6_3_0,2023-11-15T17:03:58.047Z,,,,1,1.068995482830036,1.02189095692261,,true,ll,7676.90900002385,response,-0.7519481565232475,0.8999999999999997,-0.8999999999999997,-0.9019952027171262,0.8999999999999997,-0.8999999999999997,low,low,,ISIC_0046405.JPG,,ISIC_1497800.JPG,169,true,ll,keypress(f),0,false,341720.90000003576,341720.60000002384,334027.028,334041.5,334043.691,341725.305,1,40,4,
sequence,flow.Sequence,6_3,2023-11-15T17:03:58.047Z,,,,,,,,,,7676.90900002385,completion,,,,,,,low,low,,,,,,true,,,,false,341721.40000003576,341720.60000002384,334027.028,334041.5,334043.691,341725.305,1,40,,
trial,html.Screen,6_4_0,2023-11-15T17:04:03.831Z,,,,1,-0.930804711032185,0.7294067991476295,,true,hl,5779.894999988086,response,0.9138670886161264,0.8999999999999997,-0.8999999999999997,-0.8414121478342018,0.8999999999999997,-0.8999999999999997,high,low,,ISIC_5067317.JPG,,ISIC_6709052.JPG,43,true,hl,keypress(j),0,false,347505.6999999881,347505.1999999881,341708.693,341721.6999999881,341725.305,347520,1,40,5,
sequence,flow.Sequence,6_4,2023-11-15T17:04:03.832Z,,,,,,,,,,5779.894999988086,completion,,,,,,,high,low,,,,,,true,,,,false,347506.10000002384,347505.1999999881,341708.693,341721.60000002384,341725.305,347520,1,40,,
trial,html.Screen,6_5_0,2023-11-15T17:04:09.261Z,,,,1,-0.7088606387153258,0.948610930521224,,true,hl,5415.699999988079,response,0.8867328775712738,0.8999999999999997,-0.8999999999999997,-1.0063426986460375,0.8999999999999997,-0.8999999999999997,high,low,,ISIC_0026293.JPG,,ISIC_0055759.JPG,43,true,hl,keypress(j),0,false,352935.8000000119,352935.6999999881,347503.322,347506.40000003576,347520,352947.225,1,40,6,
sequence,flow.Sequence,6_5,2023-11-15T17:04:09.262Z,,,,,,,,,,5415.699999988079,completion,,,,,,,high,low,,,,,,true,,,,false,352935.90000003576,352935.6999999881,347503.322,347506.40000003576,347520,352947.225,1,40,,
trial,html.Screen,6_6_0,2023-11-15T17:04:11.934Z,,,,1,-0.8513427412482127,0.9295303568095064,,true,hl,2661.075000011944,response,0.9617893983965208,0.8999999999999997,-0.8999999999999997,-0.9453006131304652,0.8999999999999997,-0.8999999999999997,high,low,,ISIC_0034164.JPG,,ISIC_4229473.JPG,43,true,hl,keypress(j),0,false,355608.6999999881,355608.3000000119,352930.568,352936,352947.225,355618.957,1,40,7,
sequence,flow.Sequence,6_6,2023-11-15T17:04:11.935Z,,,,,,,,,,2661.075000011944,completion,,,,,,,high,low,,,,,,true,,,,false,355609.1999999881,355608.3000000119,352930.568,352936,352947.225,355618.957,1,40,,
trial,html.Screen,6_7_0,2023-11-15T17:04:17.165Z,,,,1,0.8165346395107898,-0.7657798385266591,,true,lh,5220.043000000005,response,-0.8110121381849364,0.8999999999999997,-0.8999999999999997,0.7563142141851558,0.8999999999999997,-0.8999999999999997,low,high,,ISIC_2283628.JPG,,ISIC_0033605.JPG,29,true,lh,keypress(e),0,false,360839.10000002384,360839,355602.45,355609.5,355618.957,360845.772,1,40,8,
sequence,flow.Sequence,6_7,2023-11-15T17:04:17.165Z,,,,,,,,,,5220.043000000005,completion,,,,,,,low,high,,,,,,true,,,,false,360839.3000000119,360839,355602.45,355609.40000003576,355618.957,360845.772,1,40,,
trial,html.Screen,6_8_0,2023-11-15T17:04:28.161Z,,,,1,-0.9402130139680346,-0.7812904751512695,,,,11021.619000000006,timeout,0.7100921215252844,0.8999999999999997,-0.8999999999999997,0.9367637732363708,0.8999999999999997,-0.8999999999999997,high,high,,ISIC_8956001.JPG,,ISIC_4407580.JPG,184,true,,,0,false,371835.1999999881,371834.8000000119,360829.267,360839.40000003576,360845.772,371867.391,1,40,9,
sequence,flow.Sequence,6_8,2023-11-15T17:04:28.161Z,,,,,,,,,,10989.028000011924,completion,,,,,,,high,high,,,,,,true,,,,false,371835.6999999881,371834.8000000119,360829.267,360839.40000003576,360845.772,371867.391,1,40,,
trial,html.Screen,6_9_0,2023-11-15T17:04:32.198Z,,,,1,-0.9832288967264424,-1.0898586098590013,,true,hh,4005.1089999999967,response,0.8063996897274507,0.8999999999999997,-0.8999999999999997,0.9872236201212492,0.8999999999999997,-0.8999999999999997,high,high,,ISIC_2724529.JPG,,ISIC_0015046.JPG,184,true,hh,keypress(i),0,false,375872.90000003576,375872.5,371850.746,371835.90000003576,371867.391,375892.29,1,40,10,
sequence,flow.Sequence,6_9,2023-11-15T17:04:32.199Z,,,,,,,,,,4005.1089999999967,completion,,,,,,,high,high,,,,,,true,,,,false,375873.40000003576,375872.5,371850.746,371835.90000003576,371867.391,375892.29,1,40,,
trial,html.Screen,6_10_0,2023-11-15T17:04:35.774Z,,,,1,-0.9473579617457568,-0.7787784704155521,,true,hh,3556.310000023863,response,1.068995482830036,0.8999999999999997,-0.8999999999999997,1.02189095692261,0.8999999999999997,-0.8999999999999997,high,high,,ISIC_0012037.JPG,,ISIC_0046405.JPG,184,true,hh,keypress(i),0,false,379448.90000003576,379448.60000002384,375858.51,375873.60000002384,375892.29,379465.385,1,40,11,
sequence,flow.Sequence,6_10,2023-11-15T17:04:35.775Z,,,,,,,,,,3556.310000023863,completion,,,,,,,high,high,,,,,,true,,,,false,379449.40000003576,379448.60000002384,375858.51,375873.5,375892.29,379465.385,1,40,,
trial,html.Screen,6_11_0,2023-11-15T17:04:41.414Z,,,,1,-0.930804711032185,0.7294067991476295,,true,hl,5622.915000011912,response,0.7629099401226335,0.8999999999999997,-0.8999999999999997,-0.8515956627075536,0.8999999999999997,-0.8999999999999997,high,low,,ISIC_5067317.JPG,,ISIC_0028718.JPG,43,true,hl,keypress(j),0,false,385088.60000002384,385088.3000000119,379448.727,379449.60000002384,379465.385,385092.988,1,40,12,
sequence,flow.Sequence,6_11,2023-11-15T17:04:41.415Z,,,,,,,,,,5622.915000011912,completion,,,,,,,high,low,,,,,,true,,,,false,385089.10000002384,385088.3000000119,379448.727,379449.60000002384,379465.385,385092.988,1,40,,
trial,html.Screen,6_12_0,2023-11-15T17:04:46.495Z,,,,1,1.0926414044454305,-0.7741624649032207,,true,lh,5075.711999988067,response,-0.8075741539776473,0.8999999999999997,-0.8999999999999997,0.7326891894107508,0.8999999999999997,-0.8999999999999997,low,high,,ISIC_2355513.JPG,,ISIC_3428523.JPG,29,true,lh,keypress(e),0,false,390169,390168.6999999881,385076.374,385089.40000003576,385092.988,390186.408,1,40,13,
sequence,flow.Sequence,6_12,2023-11-15T17:04:46.496Z,,,,,,,,,,5075.711999988067,completion,,,,,,,low,high,,,,,,true,,,,false,390169.5,390168.6999999881,385076.374,385089.3000000119,385092.988,390186.408,1,40,,
trial,html.Screen,6_13_0,2023-11-15T17:04:51.631Z,,,,1,-0.764893988285809,-1.055978100098093,,true,hh,5117.892000011925,response,0.9866910776752168,0.8999999999999997,-0.8999999999999997,0.9730788960408626,0.8999999999999997,-0.8999999999999997,high,high,,ISIC_2077116.JPG,,ISIC_0070003.JPG,184,true,hh,keypress(i),0,false,395304.60000002384,395304.3000000119,390169.651,390169.6999999881,390186.408,395312.762,1,40,14,
sequence,flow.Sequence,6_13,2023-11-15T17:04:51.632Z,,,,,,,,,,5117.892000011925,completion,,,,,,,high,high,,,,,,true,,,,false,395305.1999999881,395304.3000000119,390169.651,390169.6999999881,390186.408,395312.762,1,40,,
trial,html.Screen,6_14_0,2023-11-15T17:04:55.247Z,,,,1,-0.7010101889216934,0.9022783418178474,,true,hl,3607.538000011933,response,0.7396001261916139,0.8999999999999997,-0.8999999999999997,-0.9901017340796716,0.8999999999999997,-0.8999999999999997,high,low,,ISIC_0057858.JPG,,ISIC_8679617.JPG,43,true,hl,keypress(j),0,false,398920.6999999881,398920.3000000119,395296.302,395305.40000003576,395312.762,398936.76,1,40,15,
sequence,flow.Sequence,6_14,2023-11-15T17:04:55.248Z,,,,,,,,,,3607.538000011933,completion,,,,,,,high,low,,,,,,true,,,,false,398921.10000002384,398920.3000000119,395296.302,395305.3000000119,395312.762,398936.76,1,40,,
trial,html.Screen,6_15_0,2023-11-15T17:04:56.526Z,,,,1,-0.8171109532905281,-0.8757752877102069,,true,hh,1262.2399999999907,response,1.0887084502656488,0.8999999999999997,-0.8999999999999997,1.0539327766106836,0.8999999999999997,-0.8999999999999997,high,high,,ISIC_0283506.JPG,,ISIC_0030417.JPG,184,true,hh,keypress(i),0,false,400199.10000002384,400199,398919.76,398921.40000003576,398936.76,400205.634,1,40,16,
sequence,flow.Sequence,6_15,2023-11-15T17:04:56.526Z,,,,,,,,,,1262.2399999999907,completion,,,,,,,high,high,,,,,,true,,,,false,400199.3000000119,400199,398919.76,398921.1999999881,398936.76,400205.634,1,40,,
trial,html.Screen,6_16_0,2023-11-15T17:04:58.599Z,,,,1,-0.8075741539776473,0.7326891894107508,,true,hl,2066.565999988059,response,0.9198276163642348,0.8999999999999997,-0.8999999999999997,-0.7754915110667046,0.8999999999999997,-0.8999999999999997,high,low,,ISIC_3428523.JPG,,ISIC_7840728.JPG,43,true,hl,keypress(j),0,false,402272.5,402272.1999999881,400188.888,400199.3000000119,400205.634,402276.429,1,40,17,
sequence,flow.Sequence,6_16,2023-11-15T17:04:58.599Z,,,,,,,,,,2066.565999988059,completion,,,,,,,high,low,,,,,,true,,,,false,402273.10000002384,402272.1999999881,400188.888,400199.3000000119,400205.634,402276.429,1,40,,
trial,html.Screen,6_17_0,2023-11-15T17:05:01.375Z,,,,1,0.8137027730168936,0.7771609347349258,,true,ll,2771.971000035759,response,-0.7519481565232475,0.8999999999999997,-0.8999999999999997,-0.9019952027171262,0.8999999999999997,-0.8999999999999997,low,low,,ISIC_7899041.JPG,,ISIC_1497800.JPG,169,true,ll,keypress(f),0,false,405048.6999999881,405048.40000003576,402259.868,402273.3000000119,402276.429,405065.306,1,40,18,
sequence,flow.Sequence,6_17,2023-11-15T17:05:01.376Z,,,,,,,,,,2771.971000035759,completion,,,,,,,low,low,,,,,,true,,,,false,405049.1999999881,405048.40000003576,402259.868,402273.1999999881,402276.429,405065.306,1,40,,
trial,html.Screen,6_18_0,2023-11-15T17:05:02.695Z,,,,1,-0.9048246926578776,-1.0392108946107133,,true,hh,1302.9940000119386,response,0.7878258396152632,0.8999999999999997,-0.8999999999999997,0.8828399683080101,0.8999999999999997,-0.8999999999999997,high,high,,ISIC_0068544.JPG,,ISIC_0053541.JPG,184,true,hh,keypress(i),0,false,406368.60000002384,406368.3000000119,405048.504,405049.5,405065.306,406384.58,1,40,19,
sequence,flow.Sequence,6_18,2023-11-15T17:05:02.695Z,,,,,,,,,,1302.9940000119386,completion,,,,,,,high,high,,,,,,true,,,,false,406369.10000002384,406368.3000000119,405048.504,405049.40000003576,405065.306,406384.58,1,40,,
trial,html.Screen,6_19_0,2023-11-15T17:05:04.999Z,,,,1,1.0926414044454305,-0.7741624649032207,,true,lh,2287.619999988063,response,-0.8926515927689261,0.8999999999999997,-0.8999999999999997,0.7935960767768927,0.8999999999999997,-0.8999999999999997,low,high,,ISIC_2355513.JPG,,ISIC_8901371.JPG,29,true,lh,keypress(e),0,false,408672.5,408672.1999999881,406367.849,406369.3000000119,406384.58,408688.981,1,40,20,
sequence,flow.Sequence,6_19,2023-11-15T17:05:04.999Z,,,,,,,,,,2287.619999988063,completion,,,,,,,low,high,,,,,,true,,,,false,408673.10000002384,408672.1999999881,406367.849,406369.3000000119,406384.58,408688.981,1,40,,
trial,html.Screen,6_20_0,2023-11-15T17:05:06.751Z,,,,1,0.8350129142228142,-0.8172547818270586,,true,lh,1735.5189999999711,response,-0.8830264383952469,0.8999999999999997,-0.8999999999999997,0.8635562538060516,0.8999999999999997,-0.8999999999999997,low,high,,ISIC_0301568.JPG,,ISIC_0032258.JPG,29,true,lh,keypress(e),0,false,410424.8000000119,410424.5,408672.307,408673.40000003576,408688.981,410442.471,1,40,21,
sequence,flow.Sequence,6_20,2023-11-15T17:05:06.752Z,,,,,,,,,,1735.5189999999711,completion,,,,,,,low,high,,,,,,true,,,,false,410425.3000000119,410424.5,408672.307,408673.1999999881,408688.981,410442.471,1,40,,
trial,html.Screen,6_21_0,2023-11-15T17:05:09.822Z,,,,1,0.7271544837339796,-0.9127368834814228,,true,lh,3053.3290000119014,response,-0.7882758084023446,0.8999999999999997,-0.8999999999999997,0.8296405881378283,0.8999999999999997,-0.8999999999999997,low,high,,ISIC_4129321.JPG,,ISIC_0065882.JPG,29,true,lh,keypress(e),0,false,413495.90000003576,413495.8000000119,410425.631,410425.5,410442.471,413498.211,1,40,22,
sequence,flow.Sequence,6_21,2023-11-15T17:05:09.823Z,,,,,,,,,,3053.3290000119014,completion,,,,,,,low,high,,,,,,true,,,,false,413496.3000000119,413495.8000000119,410425.631,410425.5,410442.471,413498.211,1,40,,
trial,html.Screen,6_22_0,2023-11-15T17:05:12.607Z,,,,1,-0.9237241143561707,0.7102087839245512,,true,hl,2781.988999988069,response,0.9662688541319592,0.8999999999999997,-0.8999999999999997,-0.929746784178986,0.8999999999999997,-0.8999999999999997,high,low,,ISIC_0058661.JPG,,ISIC_0011077.JPG,43,true,hl,keypress(j),0,false,416280.5,416280.1999999881,413481.666,413496.5,413498.211,416286.94,1,40,23,
sequence,flow.Sequence,6_22,2023-11-15T17:05:12.607Z,,,,,,,,,,2781.988999988069,completion,,,,,,,high,low,,,,,,true,,,,false,416280.90000003576,416280.1999999881,413481.666,413496.40000003576,413498.211,416286.94,1,40,,
trial,html.Screen,6_23_0,2023-11-15T17:05:15.999Z,,,,1,1.045301444872812,-1.0872560254441277,,true,lh,3385.3600000119186,response,-1.0369885917487718,0.8999999999999997,-0.8999999999999997,0.8486937878412699,0.8999999999999997,-0.8999999999999997,low,high,,ISIC_4507700.JPG,,ISIC_6917681.JPG,29,true,lh,keypress(e),0,false,419672.6999999881,419672.3000000119,416270.362,416281.1999999881,416286.94,419676.872,1,40,24,
sequence,flow.Sequence,6_23,2023-11-15T17:05:16.000Z,,,,,,,,,,3385.3600000119186,completion,,,,,,,low,high,,,,,,true,,,,false,419673.1999999881,419672.3000000119,416270.362,416281.10000002384,416286.94,419676.872,1,40,,
trial,html.Screen,6_24_0,2023-11-15T17:05:19.374Z,,,,1,1.004142980655507,-0.7749773174967559,,true,lh,3370.228000023868,response,-0.789083277544982,0.8999999999999997,-0.8999999999999997,0.7172067273002093,0.8999999999999997,-0.8999999999999997,low,high,,ISIC_3936223.JPG,,ISIC_0011030.JPG,29,true,lh,keypress(e),0,false,423047.1999999881,423047.10000002384,419660.258,419673.40000003576,419676.872,423050.018,1,40,25,
sequence,flow.Sequence,6_24,2023-11-15T17:05:19.374Z,,,,,,,,,,3370.228000023868,completion,,,,,,,low,high,,,,,,true,,,,false,423047.1999999881,423047.10000002384,419660.258,419673.40000003576,419676.872,423050.018,1,40,,
trial,html.Screen,6_25_0,2023-11-15T17:05:24.111Z,,,,1,-0.8764429645297487,-0.9319282086996942,,true,hh,4734.282000011939,response,1.0292526683018866,0.8999999999999997,-0.8999999999999997,0.9026684221154396,0.8999999999999997,-0.8999999999999997,high,high,,ISIC_9538004.JPG,,ISIC_0059314.JPG,184,true,hh,keypress(i),0,false,427784.60000002384,427784.3000000119,423033.63,423047.3000000119,423050.018,427792.671,1,40,26,
sequence,flow.Sequence,6_25,2023-11-15T17:05:24.111Z,,,,,,,,,,4734.282000011939,completion,,,,,,,high,high,,,,,,true,,,,false,427785.10000002384,427784.3000000119,423033.63,423047.3000000119,423050.018,427792.671,1,40,,
trial,html.Screen,6_26_0,2023-11-15T17:05:28.567Z,,,,1,-1.0211808747755002,-0.9580728810269548,,true,hh,4447.429000023869,response,1.0789425085962503,0.8999999999999997,-0.8999999999999997,0.7554447571704619,0.8999999999999997,-0.8999999999999997,high,high,,ISIC_1211506.JPG,,ISIC_9797578.JPG,184,true,hh,keypress(i),0,false,432240.40000003576,432240.10000002384,427776.112,427785.1999999881,427792.671,432251.352,1,40,27,
sequence,flow.Sequence,6_26,2023-11-15T17:05:28.567Z,,,,,,,,,,4447.429000023869,completion,,,,,,,high,high,,,,,,true,,,,false,432241,432240.10000002384,427776.112,427785.10000002384,427792.671,432251.352,1,40,,
trial,html.Screen,6_27_0,2023-11-15T17:05:34.391Z,,,,1,-1.0828565020249128,-0.7576926748805504,,true,hh,5813.1479999999865,response,0.985308473785524,0.8999999999999997,-0.8999999999999997,0.958447814554682,0.8999999999999997,-0.8999999999999997,high,high,,ISIC_3105924.JPG,,ISIC_0054914.JPG,184,true,hh,keypress(i),0,false,438064.90000003576,438064.5,432234.769,432241.1999999881,432251.352,438079.468,1,40,28,
sequence,flow.Sequence,6_27,2023-11-15T17:05:34.392Z,,,,,,,,,,5813.1479999999865,completion,,,,,,,high,high,,,,,,true,,,,false,438065.40000003576,438064.5,432234.769,432241.10000002384,432251.352,438079.468,1,40,,
trial,html.Screen,6_28_0,2023-11-15T17:05:38.431Z,,,,1,0.7544107015739535,0.781438724006539,,true,ll,4024.9320000357693,response,-0.7077100727123063,0.8999999999999997,-0.8999999999999997,-1.0674669038247562,0.8999999999999997,-0.8999999999999997,low,low,,ISIC_0021271.JPG,,ISIC_0541345.JPG,169,true,ll,keypress(f),0,false,442104.60000002384,442104.40000003576,438062.792,438065.6999999881,438079.468,442120.745,1,40,29,
sequence,flow.Sequence,6_28,2023-11-15T17:05:38.432Z,,,,,,,,,,4024.9320000357693,completion,,,,,,,low,low,,,,,,true,,,,false,442105.1999999881,442104.40000003576,438062.792,438065.60000002384,438079.468,442120.745,1,40,,
trial,html.Screen,6_29_0,2023-11-15T17:05:42.920Z,,,,1,-0.84290786638064,0.7332521189371746,,true,hl,4471.454999988084,response,0.8987343013179191,0.8999999999999997,-0.8999999999999997,-0.8149073454566363,0.8999999999999997,-0.8999999999999997,high,low,,ISIC_4708642.JPG,,ISIC_0472513.JPG,43,true,hl,keypress(j),0,false,446592.5,446592.1999999881,442103.934,442105.40000003576,442120.745,446595.928,1,40,30,
sequence,flow.Sequence,6_29,2023-11-15T17:05:42.920Z,,,,,,,,,,4471.454999988084,completion,,,,,,,high,low,,,,,,true,,,,false,446593,446592.1999999881,442103.934,442105.40000003576,442120.745,446595.928,1,40,,
trial,html.Screen,6_30_0,2023-11-15T17:05:49.248Z,,,,1,-0.7088606387153258,0.948610930521224,,true,hl,6324.3720000119065,response,0.9244148283103414,0.8999999999999997,-0.8999999999999997,-0.9712966348713286,0.8999999999999997,-0.8999999999999997,high,low,,ISIC_0026293.JPG,,ISIC_7927525.JPG,43,true,hl,keypress(j),0,false,452920.60000002384,452920.3000000119,446579.387,446593.1999999881,446595.928,452924.863,1,40,31,
sequence,flow.Sequence,6_30,2023-11-15T17:05:49.248Z,,,,,,,,,,6324.3720000119065,completion,,,,,,,high,low,,,,,,true,,,,false,452921.10000002384,452920.3000000119,446579.387,446593.1999999881,446595.928,452924.863,1,40,,
trial,html.Screen,6_31_0,2023-11-15T17:05:56.496Z,,,,1,1.0394767720056428,0.9642448420571276,,true,ll,7243.73700002383,response,-0.9242629064104082,0.8999999999999997,-0.8999999999999997,-1.0085499824556403,0.8999999999999997,-0.8999999999999997,low,low,,ISIC_0032823.JPG,,ISIC_7795549.JPG,169,true,ll,keypress(f),0,false,460168.90000003576,460168.60000002384,452908.306,452921.40000003576,452924.863,460172.271,1,40,32,
sequence,flow.Sequence,6_31,2023-11-15T17:05:56.497Z,,,,,,,,,,7243.73700002383,completion,,,,,,,low,low,,,,,,true,,,,false,460169.5,460168.60000002384,452908.306,452921.1999999881,452924.863,460172.271,1,40,,
trial,html.Screen,6_32_0,2023-11-15T17:06:02.256Z,,,,1,0.8500530224490773,-1.0893360711742854,,true,lh,5756.428999988071,response,-0.84290786638064,0.8999999999999997,-0.8999999999999997,0.7332521189371746,0.8999999999999997,-0.8999999999999997,low,high,,ISIC_2998367.JPG,,ISIC_4708642.JPG,29,true,lh,keypress(e),0,false,465929.10000002384,465928.6999999881,460155.773,460169.6999999881,460172.271,465933.431,1,40,33,
sequence,flow.Sequence,6_32,2023-11-15T17:06:02.257Z,,,,,,,,,,5756.428999988071,completion,,,,,,,low,high,,,,,,true,,,,false,465929.60000002384,465928.6999999881,460155.773,460169.60000002384,460172.271,465933.431,1,40,,
trial,html.Screen,6_33_0,2023-11-15T17:06:08.648Z,,,,1,0.7618930412298525,0.7478234228404927,,true,ll,6386.869000011939,response,-0.743526318836828,0.8999999999999997,-0.8999999999999997,-0.8301584799838516,0.8999999999999997,-0.8999999999999997,low,low,,ISIC_0062525.JPG,,ISIC_0063745.JPG,169,true,ll,keypress(f),0,false,472320.60000002384,472320.3000000119,465916.68,465929.8000000119,465933.431,472329.209,1,40,34,
sequence,flow.Sequence,6_33,2023-11-15T17:06:08.648Z,,,,,,,,,,6386.869000011939,completion,,,,,,,low,low,,,,,,true,,,,false,472321.10000002384,472320.3000000119,465916.68,465929.8000000119,465933.431,472329.209,1,40,,
trial,html.Screen,6_34_0,2023-11-15T17:06:11.960Z,,,,1,0.7692916291112835,-0.7818604706992622,,true,lh,3303.2910000000265,response,-0.84290786638064,0.8999999999999997,-0.8999999999999997,0.7332521189371746,0.8999999999999997,-0.8999999999999997,low,high,,ISIC_7844825.JPG,,ISIC_4708642.JPG,29,true,lh,keypress(e),0,false,475632.90000003576,475632.5,472312.611,472321.3000000119,472329.209,475635.744,1,40,35,
sequence,flow.Sequence,6_34,2023-11-15T17:06:11.960Z,,,,,,,,,,3303.2910000000265,completion,,,,,,,low,high,,,,,,true,,,,false,475633.40000003576,475632.5,472312.611,472321.3000000119,472329.209,475635.744,1,40,,
trial,html.Screen,6_35_0,2023-11-15T17:06:13.432Z,,,,1,0.8987343013179191,-0.8149073454566363,,true,lh,1468.755999999994,response,-0.7991459998473059,0.8999999999999997,-0.8999999999999997,1.0280788723474688,0.8999999999999997,-0.8999999999999997,low,high,,ISIC_0472513.JPG,,ISIC_7951202.JPG,29,true,lh,keypress(e),0,false,477104.90000003576,477104.5,475618.93,475633.5,475635.744,477122.169,1,40,36,
sequence,flow.Sequence,6_35,2023-11-15T17:06:13.433Z,,,,,,,,,,1468.755999999994,completion,,,,,,,low,high,,,,,,true,,,,false,477105.40000003576,477104.5,475618.93,475633.5,475635.744,477122.169,1,40,,
trial,html.Screen,6_36_0,2023-11-15T17:06:15.566Z,,,,1,0.7935069588038893,0.7313731866464421,,true,ll,2116.7310000357684,response,-0.843726025213188,0.8999999999999997,-0.8999999999999997,-0.7754562859183127,0.8999999999999997,-0.8999999999999997,low,low,,ISIC_0010729.JPG,,ISIC_4728200.JPG,169,true,ll,keypress(f),0,false,479238.90000003576,479238.90000003576,477105.201,477105.6999999881,477122.169,479242.691,1,40,37,
sequence,flow.Sequence,6_36,2023-11-15T17:06:15.566Z,,,,,,,,,,2116.7310000357684,completion,,,,,,,low,low,,,,,,true,,,,false,479239,479238.90000003576,477105.201,477105.5,477122.169,479242.691,1,40,,
trial,html.Screen,6_37_0,2023-11-15T17:06:16.976Z,,,,1,0.9619672413799648,1.000847348662667,,true,ll,1405.5089999880875,response,-0.7065976395679049,0.8999999999999997,-0.8999999999999997,-1.0943622551904992,0.8999999999999997,-0.8999999999999997,low,low,,ISIC_0067205.JPG,,ISIC_6489993.JPG,169,true,ll,keypress(f),0,false,480648.60000002384,480648.1999999881,479226.1,479239.10000002384,479242.691,480662.087,1,40,38,
sequence,flow.Sequence,6_37,2023-11-15T17:06:16.976Z,,,,,,,,,,1405.5089999880875,completion,,,,,,,low,low,,,,,,true,,,,false,480649.10000002384,480648.1999999881,479226.1,479239,479242.691,480662.087,1,40,,
trial,html.Screen,6_38_0,2023-11-15T17:06:18.384Z,,,,1,-0.7260937191514694,-1.0330921542391769,,true,hh,1394.0130000238423,response,1.0593040390975434,0.8999999999999997,-0.8999999999999997,1.0413442695273454,0.8999999999999997,-0.8999999999999997,high,high,,ISIC_4043580.JPG,,ISIC_0061293.JPG,184,true,hh,keypress(i),0,false,482056.5,482056.10000002384,480645.538,480649.3000000119,480662.087,482064.889,1,40,39,
sequence,flow.Sequence,6_38,2023-11-15T17:06:18.384Z,,,,,,,,,,1394.0130000238423,completion,,,,,,,high,high,,,,,,true,,,,false,482057.10000002384,482056.10000002384,480645.538,480649.1999999881,480662.087,482064.889,1,40,,
trial,html.Screen,6_39_0,2023-11-15T17:06:19.791Z,,,,1,1.0333845898785206,0.998838774713298,,true,ll,1399.011000035738,response,-0.8171109532905281,0.8999999999999997,-0.8999999999999997,-0.8757752877102069,0.8999999999999997,-0.8999999999999997,low,low,,ISIC_0010486.JPG,,ISIC_0283506.JPG,169,true,ll,keypress(f),0,false,483464.1999999881,483463.90000003576,482048.368,482057.40000003576,482064.889,483467.637,1,40,40,
sequence,flow.Sequence,6_39,2023-11-15T17:06:19.792Z,,,,,,,,,,1399.011000035738,completion,,,,,,,low,low,,,,,,true,,,,false,483464.8000000119,483463.90000003576,482048.368,482057.3000000119,482064.889,483467.637,1,40,,
practice_loop,flow.Loop,6,2023-11-15T17:06:19.792Z,,,,,,,,,,169325.67400003574,completion,,,,,,,,,,,,,,true,,,,false,483465.10000002384,483463.90000003576,314121.758,314135.3000000119,314138.226,483467.637,1,40,,
stair_instructions,html.Screen,7,2023-11-15T17:06:23.102Z,,,,,,,,,,3307.163000011933,response,,,,,,,,,,,,,,,continue,click button,,,486775.10000002384,486774.8000000119,483451.05,483465.3000000119,483467.637,486790.95,,,,
trial,html.Screen,8_0_0,2023-11-15T17:06:28.601Z,,,,2,0.0241900387072296,-0.0339955304424736,,true,lh,5482.950000035751,response,-0.7991459998473059,0.8999999999999997,-0.8999999999999997,1.0280788723474688,0.8999999999999997,-0.8999999999999997,low,high,,ISIC_0010789.JPG,,ISIC_7951202.JPG,29,false,lh,keypress(e),0,true,492273.90000003576,492273.90000003576,486774.351,486775.3000000119,486790.95,492301.435,1,40,1,
sequence,flow.Sequence,8_0,2023-11-15T17:06:28.601Z,,,,,,,,,,5482.950000035751,completion,,,,,,,low,high,,,,,,false,,,,true,492274.10000002384,492273.90000003576,486774.351,486775.3000000119,486790.95,492301.435,1,40,,
trial,html.Screen,8_1_0,2023-11-15T17:06:33.174Z,,,,2,0.049790040126711,-0.0195291725171472,,false,lh,4545.065000000002,response,-0.8954803463300026,0.8999999999999997,-0.8999999999999997,0.7071819047913821,0.8999999999999997,-0.8999999999999997,low,high,,ISIC_0372902.JPG,,ISIC_0033071.JPG,29,false,hh,keypress(i),0,true,496846.6999999881,496846.5,492284.713,492274.10000002384,492301.435,496860.469,1,40,2,
sequence,flow.Sequence,8_1,2023-11-15T17:06:33.174Z,,,,,,,,,,4545.065000000002,completion,,,,,,,low,high,,,,,,false,,,,true,496846.8000000119,496846.5,492284.713,492274.10000002384,492301.435,496860.469,1,40,,
trial,html.Screen,8_2_0,2023-11-15T17:06:39.144Z,,,,2,0.0495531443078245,0.0310660434153916,,false,ll,5956.230999988096,response,-1.0428588955519669,0.8999999999999997,-0.9499999999999997,-0.7027377550195569,0.8176303885694254,-0.8999999999999997,low,low,,ISIC_0013719.JPG,,ISIC_2412888.JPG,150,false,hh,keypress(i),0,true,502817,502816.6999999881,496843.65,496846.8000000119,496860.469,502821.948,1,40,3,
sequence,flow.Sequence,8_2,2023-11-15T17:06:39.145Z,,,,,,,,,,5956.230999988096,completion,,,,,,,low,low,,,,,,false,,,,true,502817.5,502816.6999999881,496843.65,496846.8000000119,496860.469,502821.948,1,40,,
trial,html.Screen,8_3_0,2023-11-15T17:06:45.607Z,,,,2,-0.0444523556175667,-0.066384682611553,,false,hh,6456.952000035788,response,0.8824429342294199,0.8999999999999997,-0.9999999999999998,0.8627090057984027,0.8176303885694254,-0.9499999999999997,high,high,,ISIC_0029409.JPG,,ISIC_0015193.JPG,189,false,ll,keypress(f),0,true,509278.90000003576,509278.90000003576,502805.36,502817.8000000119,502821.948,509284.436,1,40,4,
sequence,flow.Sequence,8_3,2023-11-15T17:06:45.607Z,,,,,,,,,,6456.952000035788,completion,,,,,,,high,high,,,,,,false,,,,true,509279,509278.90000003576,502805.36,502817.6999999881,502821.948,509284.436,1,40,,
trial,html.Screen,8_4_0,2023-11-15T17:06:51.881Z,,,,2,0.0473541545202326,-0.0294076954053606,,false,hl,6268.464000035776,response,0.7714570894008278,0.9499999999999997,-0.9999999999999998,-0.9113656554657036,0.8676303885694254,-0.9499999999999997,high,low,,ISIC_0034065.JPG,,ISIC_4529092.JPG,30,false,ll,keypress(f),0,true,515553.1999999881,515552.90000003576,509267.87,509279,509284.436,515563.379,1,40,5,
sequence,flow.Sequence,8_4,2023-11-15T17:06:51.882Z,,,,,,,,,,6268.464000035776,completion,,,,,,,high,low,,,,,,false,,,,true,515553.6999999881,515552.90000003576,509267.87,509279,509284.436,515563.379,1,40,,
trial,html.Screen,8_5_0,2023-11-15T17:06:58.215Z,,,,2,0.0586587895724749,0.0220047273041276,,false,hh,6323.7210000238265,response,1.0980226451001782,0.9999999999999998,-0.9999999999999998,0.9421419207281913,0.8676303885694254,-0.9499999999999997,high,high,,ISIC_0028320.JPG,,ISIC_0060481.JPG,150,false,lh,keypress(e),0,true,521887.1999999881,521887.10000002384,515546.757,515553.90000003576,515563.379,521892.296,1,40,6,
sequence,flow.Sequence,8_5,2023-11-15T17:06:58.215Z,,,,,,,,,,6323.7210000238265,completion,,,,,,,high,high,,,,,,false,,,,true,521887.3000000119,521887.10000002384,515546.757,515553.90000003576,515563.379,521892.296,1,40,,
trial,html.Screen,8_6_0,2023-11-15T17:07:05.273Z,,,,2,0.0223011224608011,-0.0466190802905965,,false,hh,7052.504000011948,response,0.9845012480258926,1.0499999999999998,-0.9999999999999998,0.7621333062555382,0.8676303885694254,-0.9499999999999997,high,high,,ISIC_0028041.JPG,,ISIC_0071180.JPG,132,false,lh,keypress(e),0,true,528945,528944.8000000119,521875.771,521887.40000003576,521892.296,528956.095,1,40,7,
sequence,flow.Sequence,8_6,2023-11-15T17:07:05.273Z,,,,,,,,,,7052.504000011948,completion,,,,,,,high,high,,,,,,false,,,,true,528945.5,528944.8000000119,521875.771,521887.40000003576,521892.296,528956.095,1,40,,
trial,html.Screen,8_7_0,2023-11-15T17:07:12.625Z,,,,2,-0.0076984477620101,-0.0069458408496562,,false,lh,7340.405000000028,response,-0.8493817247965978,1.0999999999999999,-0.9999999999999998,0.6545324227286122,0.8021376134918647,-0.9499999999999997,low,high,,ISIC_0000434.JPG,,ISIC_0030219.JPG,29,false,hh,keypress(i),0,true,536296.8000000119,536296.5,528939.356,528945.6999999881,528956.095,536303.7,1,40,8,
sequence,flow.Sequence,8_7,2023-11-15T17:07:12.625Z,,,,,,,,,,7340.405000000028,completion,,,,,,,low,high,,,,,,false,,,,true,536297.3000000119,536296.5,528939.356,528945.6999999881,528956.095,536303.7,1,40,,
trial,html.Screen,8_8_0,2023-11-15T17:07:15.951Z,,,,2,-0.024731486864197,-0.0504232274546553,,true,hl,3319.4999999881256,response,0.9662688541319592,1.0499999999999998,-0.9999999999999998,-0.929746784178986,0.7521376134918647,-0.8999999999999997,high,low,,ISIC_4782878.JPG,,ISIC_0011077.JPG,22,false,hl,keypress(j),0,true,539623.3000000119,539623.1999999881,536286.994,536297.5,536303.7,539626.738,1,40,9,
sequence,flow.Sequence,8_8,2023-11-15T17:07:15.951Z,,,,,,,,,,3319.4999999881256,completion,,,,,,,high,low,,,,,,false,,,,true,539623.4000000358,539623.1999999881,536286.994,536297.4000000358,536303.7,539626.738,1,40,,
trial,html.Screen,8_9_0,2023-11-15T17:07:22.825Z,,,,2,0.0478761683145946,-0.012927090508672,,false,ll,6869.662000035751,response,-1.0002918079433898,1.0499999999999998,-0.9999999999999998,-0.7125870798722836,0.7521376134918647,-0.8499999999999996,low,low,,ISIC_9631669.JPG,,ISIC_0678758.JPG,153,false,hh,keypress(i),0,true,546496.8000000119,546496.4000000358,539610.186,539623.5,539626.738,546506.896,1,40,10,
sequence,flow.Sequence,8_9,2023-11-15T17:07:22.825Z,,,,,,,,,,6869.662000035751,completion,,,,,,,low,low,,,,,,false,,,,true,546497.3000000119,546496.4000000358,539610.186,539623.5,539626.738,546506.896,1,40,,
trial,html.Screen,8_10_0,2023-11-15T17:07:27.761Z,,,,2,-0.0200295718112167,-0.0155559071275806,,true,hh,4925.803999988129,response,0.9984751310732674,1.0499999999999998,-1.0499999999999998,0.7993808609040723,0.7521376134918647,-0.8999999999999997,high,high,,ISIC_0061343.JPG,,ISIC_0032510.JPG,168,false,hh,keypress(i),0,true,551433,551432.6999999881,546490.303,546497.6000000238,546506.896,551450.022,1,40,11,
sequence,flow.Sequence,8_10,2023-11-15T17:07:27.761Z,,,,,,,,,,4925.803999988129,completion,,,,,,,high,high,,,,,,false,,,,true,551433.5,551432.6999999881,546490.303,546497.5,546506.896,551450.022,1,40,,
trial,html.Screen,8_11_0,2023-11-15T17:07:32.673Z,,,,2,-0.0423567271646023,-0.0380126882576854,,true,ll,4894.478000000003,response,-1.0348000491894005,0.8328248575180157,-1.0499999999999998,-0.7770667763745356,0.8328248575180157,-0.8999999999999997,low,low,,ISIC_0046932.JPG,,ISIC_2565154.JPG,117,false,ll,keypress(f),0,true,556344.8000000119,556344.5,551433.29,551433.8000000119,551450.022,556359.548,1,40,12,
sequence,flow.Sequence,8_11,2023-11-15T17:07:32.673Z,,,,,,,,,,4894.478000000003,completion,,,,,,,low,low,,,,,,false,,,,true,556345.4000000358,556344.5,551433.29,551433.6999999881,551450.022,556359.548,1,40,,
trial,html.Screen,8_12_0,2023-11-15T17:07:37.785Z,,,,2,-0.0257631352671967,-0.0202837002774028,,false,lh,5097.252000011969,response,-1.2499674737468107,0.8328248575180157,-1.0499999999999998,0.7169661572441197,0.8328248575180157,-0.8999999999999997,low,high,,ISIC_0032797.JPG,,ISIC_0013617.JPG,26,false,ll,keypress(f),0,true,561457,561456.8000000119,556342.818,556345.6000000238,556359.548,561469.446,1,40,13,
sequence,flow.Sequence,8_12,2023-11-15T17:07:37.785Z,,,,,,,,,,5097.252000011969,completion,,,,,,,low,high,,,,,,false,,,,true,561457.5,561456.8000000119,556342.818,556345.5,556359.548,561469.446,1,40,,
trial,html.Screen,8_13_0,2023-11-15T17:07:44.240Z,,,,2,-0.0524649813000588,0.0155452034299028,,false,lh,6441.9540000357665,response,-0.789083277544982,0.8328248575180157,-0.9635171250606731,0.7172067273002093,0.8828248575180158,-0.8999999999999997,low,high,,ISIC_0030087.JPG,,ISIC_0011030.JPG,24,false,hl,keypress(j),0,true,567911.5,567911.4000000358,561452.74,561457.8000000119,561469.446,567915.128,1,40,14,
sequence,flow.Sequence,8_13,2023-11-15T17:07:44.240Z,,,,,,,,,,6441.9540000357665,completion,,,,,,,low,high,,,,,,false,,,,true,567911.8000000119,567911.4000000358,561452.74,561457.8000000119,561469.446,567915.128,1,40,,
trial,html.Screen,8_14_0,2023-11-15T17:07:48.122Z,,,,2,-0.0367706518941078,0.0161069838272154,,true,hl,3877.571999988053,response,0.7552468233268477,0.8328248575180157,-1.0135171250606732,-0.71846037114465,0.9328248575180158,-0.8999999999999997,high,low,,ISIC_0033419.JPG,,ISIC_2354070.JPG,57,false,hl,keypress(j),0,true,571793,571792.6999999881,567898.639,567911.8000000119,567915.128,571806.126,1,40,15,
sequence,flow.Sequence,8_14,2023-11-15T17:07:48.122Z,,,,,,,,,,3877.571999988053,completion,,,,,,,high,low,,,,,,false,,,,true,571793.5,571792.6999999881,567898.639,567911.8000000119,567915.128,571806.126,1,40,,
trial,html.Screen,8_15_0,2023-11-15T17:07:55.177Z,,,,2,0.0607839218394147,0.0567408401627122,,false,hh,7042.174000011873,response,1.0292526683018866,0.8328248575180157,-1.0135171250606732,0.9026684221154396,0.9328248575180158,-0.8499999999999996,high,high,,ISIC_0026901.JPG,,ISIC_0059314.JPG,192,false,ll,keypress(f),0,true,578848.6000000238,578848.3000000119,571789.298,571793.6999999881,571806.126,578853.048,1,40,16,
sequence,flow.Sequence,8_15,2023-11-15T17:07:55.178Z,,,,,,,,,,7042.174000011873,completion,,,,,,,high,high,,,,,,false,,,,true,578849.1000000238,578848.3000000119,571789.298,571793.6000000238,571806.126,578853.048,1,40,,
trial,html.Screen,8_16_0,2023-11-15T17:07:59.160Z,,,,2,-0.0257631352671967,-0.0202837002774028,,true,hl,3977.7520000119694,response,0.9089402323867112,0.8828248575180158,-1.0135171250606732,-0.8034544077281132,0.9828248575180158,-0.8499999999999996,high,low,,ISIC_0032797.JPG,,ISIC_3585381.JPG,49,false,hl,keypress(j),0,true,582830.9000000358,582830.8000000119,578836.314,578849.3000000119,578853.048,582844.185,1,40,17,
sequence,flow.Sequence,8_16,2023-11-15T17:07:59.160Z,,,,,,,,,,3977.7520000119694,completion,,,,,,,high,low,,,,,,false,,,,true,582831.1000000238,582830.8000000119,578836.314,578849.1999999881,578853.048,582844.185,1,40,,
trial,html.Screen,8_17_0,2023-11-15T17:08:06.609Z,,,,2,0.0527477970410472,0.0575970798158164,,true,hh,7436.215000035707,response,1.0653732408486678,0.8828248575180158,-1.0135171250606732,1.089675540151582,0.9828248575180158,-0.8499999999999996,high,high,,ISIC_0667763.JPG,,ISIC_0058315.JPG,175,false,hh,keypress(i),0,true,590280.8000000119,590280.4000000358,582827.448,582831.1000000238,582844.185,590292.052,1,40,18,
sequence,flow.Sequence,8_17,2023-11-15T17:08:06.610Z,,,,,,,,,,7436.215000035707,completion,,,,,,,high,high,,,,,,false,,,,true,590281.3000000119,590280.4000000358,582827.448,582831.1000000238,582844.185,590292.052,1,40,,
trial,html.Screen,8_18_0,2023-11-15T17:08:10.241Z,,,,2,-0.0444523556175667,-0.066384682611553,,false,ll,3620.3480000357376,response,-1.2045634364464748,1.027524390500125,-1.0135171250606732,-0.6500212436431954,0.9828248575180158,-0.8499999999999996,low,low,,ISIC_0029409.JPG,,ISIC_7670817.JPG,150,false,lh,keypress(e),0,true,593912.8000000119,593912.4000000358,590275.439,590281.6000000238,590292.052,593915.747,1,40,19,
sequence,flow.Sequence,8_18,2023-11-15T17:08:10.242Z,,,,,,,,,,3620.3480000357376,completion,,,,,,,low,low,,,,,,false,,,,true,593913.1999999881,593912.4000000358,590275.439,590281.5,590292.052,593915.747,1,40,,
trial,html.Screen,8_19_0,2023-11-15T17:08:14.706Z,,,,2,0.0527477970410472,0.0575970798158164,,false,hh,4460.753000000026,response,0.8949188450526304,1.027524390500125,-1.0135171250606732,0.9064772839637844,0.9828248575180158,-0.8999999999999997,high,high,,ISIC_0667763.JPG,,ISIC_0057067.JPG,132,false,lh,keypress(e),0,true,598376.8000000119,598376.5,593899.08,593913.5,593915.747,598391.224,1,40,20,
sequence,flow.Sequence,8_19,2023-11-15T17:08:14.706Z,,,,,,,,,,4460.753000000026,completion,,,,,,,high,high,,,,,,false,,,,true,598377.3000000119,598376.5,593899.08,593913.4000000358,593915.747,598391.224,1,40,,
trial,html.Screen,8_20_0,2023-11-15T17:08:17.473Z,,,,2,-0.0703653376600499,0.0206740478999942,,false,ll,2753.0760000118753,response,-0.896095941423076,1.077524390500125,-1.0135171250606732,-0.7326408730609683,0.9328248575180158,-0.8999999999999997,low,low,,ISIC_4899386.JPG,,ISIC_5226353.JPG,132,false,hl,keypress(j),0,true,601144.6000000238,601144.3000000119,598374.525,598377.6000000238,598391.224,601163.721,1,40,21,
sequence,flow.Sequence,8_20,2023-11-15T17:08:17.474Z,,,,,,,,,,2753.0760000118753,completion,,,,,,,low,low,,,,,,false,,,,true,601145.1999999881,601144.3000000119,598374.525,598377.5,598391.224,601163.721,1,40,,
trial,html.Screen,8_21_0,2023-11-15T17:08:21.674Z,,,,2,-0.0105349256029223,0.0723574625425557,,false,lh,4181.079000011901,response,-0.9237241143561707,1.027524390500125,-1.0135171250606732,0.7102087839245512,0.8828248575180158,-0.8499999999999996,low,high,,ISIC_0058998.JPG,,ISIC_0058661.JPG,22,false,hh,keypress(i),0,true,605345.1999999881,605344.8000000119,601129.952,601145.5,601163.721,605354.636,1,40,22,
sequence,flow.Sequence,8_21,2023-11-15T17:08:21.674Z,,,,,,,,,,4181.079000011901,completion,,,,,,,low,high,,,,,,false,,,,true,605345.6000000238,605344.8000000119,601129.952,601145.4000000358,601163.721,605354.636,1,40,,
trial,html.Screen,8_22_0,2023-11-15T17:08:26.280Z,,,,2,-0.0643519619373155,-0.0340638715725122,,false,hh,4596.464000023785,response,1.110553831996712,1.027524390500125,-1.0635171250606732,0.7144818582658079,0.8828248575180158,-0.8499999999999996,high,high,,ISIC_0066401.JPG,,ISIC_0032736.JPG,143,false,hl,keypress(j),0,true,609951.3000000119,609951.1000000238,605337.987,605345.9000000358,605354.636,609963.825,1,40,23,
sequence,flow.Sequence,8_22,2023-11-15T17:08:26.280Z,,,,,,,,,,4596.464000023785,completion,,,,,,,high,high,,,,,,false,,,,true,609951.4000000358,609951.1000000238,605337.987,605345.8000000119,605354.636,609963.825,1,40,,
trial,html.Screen,8_23_0,2023-11-15T17:08:28.465Z,,,,2,0.0223011224608011,-0.0466190802905965,,true,hl,2172.6750000000466,response,0.9089402323867112,1.027524390500125,-1.0635171250606732,-0.8034544077281132,0.9328248575180158,-0.8499999999999996,high,low,,ISIC_0028041.JPG,,ISIC_3585381.JPG,27,false,hl,keypress(j),0,true,612136.6999999881,612136.5,609947.066,609951.4000000358,609963.825,612151.395,1,40,24,
sequence,flow.Sequence,8_23,2023-11-15T17:08:28.466Z,,,,,,,,,,2172.6750000000466,completion,,,,,,,high,low,,,,,,false,,,,true,612137.3000000119,612136.5,609947.066,609951.4000000358,609963.825,612151.395,1,40,,
trial,html.Screen,8_24_0,2023-11-15T17:08:32.241Z,,,,2,0.0632965338582772,0.0107588824722911,,false,hl,3761.005000035744,response,0.7872534775441857,0.977524390500125,-1.0635171250606732,-0.8441107693833454,0.9328248575180158,-0.7999999999999996,high,low,,ISIC_1265755.JPG,,ISIC_0028788.JPG,35,false,hh,keypress(i),0,true,615912.6999999881,615912.4000000358,612134.749,612137.5,612151.395,615925.336,1,40,25,
sequence,flow.Sequence,8_24,2023-11-15T17:08:32.242Z,,,,,,,,,,3761.005000035744,completion,,,,,,,high,low,,,,,,false,,,,true,615913.1999999881,615912.4000000358,612134.749,612137.5,612151.395,615925.336,1,40,,
trial,html.Screen,8_25_0,2023-11-15T17:08:36.977Z,,,,2,0.0527477970410472,0.0575970798158164,,false,ll,4723.0640000357525,response,-1.2129880490682976,0.977524390500125,-1.0635171250606732,-0.6889237152966984,0.9328248575180158,-0.8499999999999996,low,low,,ISIC_0667763.JPG,,ISIC_4255013.JPG,124,false,lh,keypress(e),0,true,620648.8000000119,620648.4000000358,615908.433,615913.5,615925.336,620668.946,1,40,26,
sequence,flow.Sequence,8_25,2023-11-15T17:08:36.978Z,,,,,,,,,,4723.0640000357525,completion,,,,,,,low,low,,,,,,false,,,,true,620649.1999999881,620648.4000000358,615908.433,615913.3000000119,615925.336,620668.946,1,40,,
trial,html.Screen,8_26_0,2023-11-15T17:08:42.522Z,,,,2,-0.0572065166118795,0.0247840126545907,,false,ll,5523.554000000004,response,-1.0667712753225895,0.977524390500125,-1.0635171250606732,-0.7415337434376102,0.9328248575180158,-0.8999999999999997,low,low,,ISIC_0024565.JPG,,ISIC_8626941.JPG,111,false,hl,keypress(j),0,true,626192.8000000119,626192.5,620634.542,620649.5,620668.946,626212.426,1,40,27,
sequence,flow.Sequence,8_26,2023-11-15T17:08:42.523Z,,,,,,,,,,5523.554000000004,completion,,,,,,,low,low,,,,,,false,,,,true,626193.3000000119,626192.5,620634.542,620649.5,620668.946,626212.426,1,40,,
trial,html.Screen,8_27_0,2023-11-15T17:08:46.394Z,,,,2,-0.0447960916594447,-0.0451557856659748,,true,hl,3852.174000023864,response,0.9138670886161264,0.977524390500125,-1.1135171250606732,-0.8414121478342018,0.9328248575180158,-0.8999999999999997,high,low,,ISIC_1379405.JPG,,ISIC_6709052.JPG,28,false,hl,keypress(j),0,true,630065,630064.6000000238,626178.52,626193.5,626212.426,630069.317,1,40,28,
sequence,flow.Sequence,8_27,2023-11-15T17:08:46.395Z,,,,,,,,,,3852.174000023864,completion,,,,,,,high,low,,,,,,false,,,,true,630065.5,630064.6000000238,626178.52,626193.5,626212.426,630069.317,1,40,,
trial,html.Screen,8_28_0,2023-11-15T17:08:49.818Z,,,,2,-0.0464691161264081,-0.0535296539628673,,true,hl,3418.7830000238027,response,0.7552468233268477,0.9275243905001249,-1.1135171250606732,-0.71846037114465,0.9328248575180158,-0.7414729456359059,high,low,,ISIC_0758797.JPG,,ISIC_2354070.JPG,54,false,hl,keypress(j),0,true,633488.4000000358,633488.1000000238,630052.846,630065.6999999881,630069.317,633492.78,1,40,29,
sequence,flow.Sequence,8_28,2023-11-15T17:08:49.818Z,,,,,,,,,,3418.7830000238027,completion,,,,,,,high,low,,,,,,false,,,,true,633488.9000000358,633488.1000000238,630052.846,630065.6999999881,630069.317,633492.78,1,40,,
trial,html.Screen,8_29_0,2023-11-15T17:08:52.930Z,,,,2,-0.0257631352671967,-0.0202837002774028,,true,hl,3107.820000023814,response,0.8242627447470376,0.9275243905001249,-1.1135171250606732,-0.6500864181433015,0.9328248575180158,-0.7414729456359059,high,low,,ISIC_0032797.JPG,,ISIC_0014186.JPG,54,false,hl,keypress(j),0,true,636600.9000000358,636600.6000000238,633476.145,633489.1000000238,633492.78,636615.642,1,40,30,
sequence,flow.Sequence,8_29,2023-11-15T17:08:52.931Z,,,,,,,,,,3107.820000023814,completion,,,,,,,high,low,,,,,,false,,,,true,636601.4000000358,636600.6000000238,633476.145,633489,633492.78,636615.642,1,40,,
trial,html.Screen,8_30_0,2023-11-15T17:08:57.320Z,,,,2,0.0564512008196606,-0.0205312570039753,,false,lh,4375.358000000007,response,-0.8719231363109603,0.8275243905001248,-1.0635171250606732,0.7704280220140033,0.8828248575180158,-0.5842733946439757,low,high,,ISIC_9019691.JPG,,ISIC_0029453.JPG,21,false,hh,keypress(i),0,true,640991.1000000238,640991,636598.828,636601.5,636615.642,641007.486,1,40,31,
sequence,flow.Sequence,8_30,2023-11-15T17:08:57.321Z,,,,,,,,,,4375.358000000007,completion,,,,,,,low,high,,,,,,false,,,,true,640991.1999999881,640991,636598.828,636601.5,636615.642,641007.486,1,40,,
trial,html.Screen,8_31_0,2023-11-15T17:09:02.234Z,,,,2,0.039520186367207,0.0377961575607372,,true,lh,4896.814000011887,response,-1.0794043929240107,0.7775243905001248,-1.0635171250606732,0.6422352972056817,0.8328248575180157,-0.5342733946439756,low,high,,ISIC_6356149.JPG,,ISIC_2106823.JPG,26,false,lh,keypress(e),0,true,645904.6999999881,645904.3000000119,640990.784,640991.3000000119,641007.486,645916.998,1,40,32,
sequence,flow.Sequence,8_31,2023-11-15T17:09:02.235Z,,,,,,,,,,4896.814000011887,completion,,,,,,,low,high,,,,,,false,,,,true,645905.1999999881,645904.3000000119,640990.784,640991.1999999881,641007.486,645916.998,1,40,,
trial,html.Screen,8_32_0,2023-11-15T17:09:07.002Z,,,,2,0.0607839218394147,0.0567408401627122,,true,hh,4755.501999999979,response,0.8145814609211571,0.7775243905001248,-1.0635171250606732,0.7591292272911163,0.7828248575180157,-0.5342733946439756,high,high,,ISIC_0026901.JPG,,ISIC_0011434.JPG,258,false,hh,keypress(i),0,true,650672.9000000358,650672.5,645900.357,645905.5,645916.998,650676.186,1,40,33,
sequence,flow.Sequence,8_32,2023-11-15T17:09:07.003Z,,,,,,,,,,4755.501999999979,completion,,,,,,,high,high,,,,,,false,,,,true,650673.4000000358,650672.5,645900.357,645905.4000000358,645916.998,650676.186,1,40,,
trial,html.Screen,8_33_0,2023-11-15T17:09:15.314Z,,,,2,-0.024731486864197,-0.0504232274546553,,true,ll,8307.914000023855,response,-1.027207076544937,0.7775243905001248,-1.0635171250606732,-0.3587373301958882,0.7828248575180157,-0.5342733946439756,low,low,,ISIC_4782878.JPG,,ISIC_9696846.JPG,205,false,ll,keypress(f),0,true,658984.4000000358,658984.1000000238,650659.523,650673.6999999881,650676.186,658992.308,1,40,34,
sequence,flow.Sequence,8_33,2023-11-15T17:09:15.314Z,,,,,,,,,,8307.914000023855,completion,,,,,,,low,low,,,,,,false,,,,true,658984.9000000358,658984.1000000238,650659.523,650673.6000000238,650676.186,658992.308,1,40,,
trial,html.Screen,8_34_0,2023-11-15T17:09:21.696Z,,,,2,-0.0606387586319451,-0.0283716809868572,,false,ll,6374.391999988118,response,-0.7374762973702417,0.7775243905001248,-0.6429722033704126,-0.4881400919662449,0.7828248575180157,-0.5342733946439756,low,low,,ISIC_0061158.JPG,,ISIC_1920685.JPG,398,false,lh,keypress(e),0,true,665366.8000000119,665366.6999999881,658975.639,658985.1000000238,658992.308,665371.317,1,40,35,
sequence,flow.Sequence,8_34,2023-11-15T17:09:21.696Z,,,,,,,,,,6374.391999988118,completion,,,,,,,low,low,,,,,,false,,,,true,665367,665366.6999999881,658975.639,658985.1000000238,658992.308,665371.317,1,40,,
trial,html.Screen,8_35_0,2023-11-15T17:09:26.683Z,,,,2,0.049790040126711,-0.0195291725171472,,false,ll,4981.483000011882,response,-0.5499653915228087,0.7775243905001248,-0.6429722033704126,-0.650584166220151,0.7828248575180157,-0.5842733946439757,low,low,,ISIC_0372902.JPG,,ISIC_0248628.JPG,395,false,hl,keypress(j),0,true,670353.3000000119,670352.8000000119,665354.582,665367,665371.317,670364.628,1,40,36,
sequence,flow.Sequence,8_35,2023-11-15T17:09:26.683Z,,,,,,,,,,4981.483000011882,completion,,,,,,,low,low,,,,,,false,,,,true,670353.8000000119,670352.8000000119,665354.582,665367,665371.317,670364.628,1,40,,
trial,html.Screen,8_36_0,2023-11-15T17:09:28.842Z,,,,2,0.0123274848503577,-0.0516828290734233,,true,hl,2147.571999988053,response,0.6980158567632846,0.7775243905001248,-0.6929722033704127,-0.6261348546962352,0.7828248575180157,-0.5842733946439757,high,low,,ISIC_0056790.JPG,,ISIC_0289478.JPG,120,false,hl,keypress(j),0,true,672512.6000000238,672512.1999999881,670347.904,670354.1000000238,670364.628,672518.604,1,40,37,
sequence,flow.Sequence,8_36,2023-11-15T17:09:28.842Z,,,,,,,,,,2147.571999988053,completion,,,,,,,high,low,,,,,,false,,,,true,672513,672512.1999999881,670347.904,670354,670364.628,672518.604,1,40,,
trial,html.Screen,8_37_0,2023-11-15T17:09:33.226Z,,,,2,-0.0544036313884697,-0.0564516462775647,,false,lh,4377.89599999995,response,-0.6314762275078146,0.7275243905001247,-0.6929722033704127,0.6187690416903137,0.7828248575180157,-0.5883595104581931,low,high,,ISIC_7441957.JPG,,ISIC_8468512.JPG,85,false,hh,keypress(i),0,true,676896.8000000119,676896.5,672502.081,672513.3000000119,672518.604,676910.686,1,40,38,
sequence,flow.Sequence,8_37,2023-11-15T17:09:33.227Z,,,,,,,,,,4377.89599999995,completion,,,,,,,low,high,,,,,,false,,,,true,676897.3000000119,676896.5,672502.081,672513.1999999881,672518.604,676910.686,1,40,,
trial,html.Screen,8_38_0,2023-11-15T17:09:37.706Z,,,,2,0.0388181790775959,-0.0049623405709465,,false,lh,4465.513999988092,response,-0.930804711032185,0.7275243905001247,-0.7429722033704127,0.7294067991476295,0.7328248575180156,-0.5883595104581931,low,high,,ISIC_0061880.JPG,,ISIC_5067317.JPG,85,false,hh,keypress(i),0,true,681376.6000000238,681376.1999999881,676893.956,676897.5,676910.686,681385.787,1,40,39,
sequence,flow.Sequence,8_38,2023-11-15T17:09:37.706Z,,,,,,,,,,4465.513999988092,completion,,,,,,,low,high,,,,,,false,,,,true,681377,681376.1999999881,676893.956,676897.5,676910.686,681385.787,1,40,,
trial,html.Screen,8_39_0,2023-11-15T17:09:43.843Z,,,,2,0.0200376619013301,0.0451764418954947,,false,hh,6126.712999999989,response,0.660343758173503,0.7275243905001247,-0.7929722033704127,0.8760778995564189,0.7328248575180156,-0.5883595104581931,high,high,,ISIC_0026087.JPG,,ISIC_0031589.JPG,286,false,hl,keypress(j),0,true,687512.8000000119,687512.5,681369.33,681377.3000000119,681385.787,687531.332,1,40,40,
sequence,flow.Sequence,8_39,2023-11-15T17:09:43.843Z,,,,,,,,,,6126.712999999989,completion,,,,,,,high,high,,,,,,false,,,,true,687513.1999999881,687512.5,681369.33,681377.1999999881,681385.787,687531.332,1,40,,
stair_loop,flow.Loop,8,2023-11-15T17:09:43.844Z,,,,,,,,,,200721.55,completion,,,,,,,,,,,,,,false,,,,true,687513.6000000238,687512.5,486774.351,486775.1999999881,486790.95,687531.332,1,40,,
exp_instructions,html.Screen,9,2023-11-15T17:10:02.234Z,,,,,,,,,,18372.167999999947,response,,,,,,,,,,,,,,,continue,keypress(Space),,,705904.3000000119,705903.5,687497.739,687513.6999999881,687531.332,705916.896,,,,
trial,html.Screen,10_0_0,2023-11-15T17:10:10.353Z,,,,1,0.0418938536494534,-0.0678614270583654,,false,lh,8105.704000023892,response,-0.789083277544982,0.8800243905001249,-0.9573536485535954,0.7172067273002093,0.8553248575180156,-0.7018969092577108,low,high,,ISIC_0027573.JPG,9,ISIC_0011030.JPG,26,false,hh,keypress(i),0,false,714022.8000000119,714022.6000000238,705900.237,705904.6000000238,705916.896,714032.647,4,500,1,
break,html.Screen,10_0_1,2023-11-15T17:10:10.353Z,,,,,,,,,,NaN,,,,,,,,low,high,,,,,,false,,,,false,714023.1000000238,714023,,714022.8000000119,,714032.647,4,500,,
break_continue,html.Screen,10_0_2,2023-11-15T17:10:10.354Z,,,,,,,,,,NaN,,,,,,,,low,high,,,,,,false,,,,false,714023.5,714023.3000000119,,714023.1999999881,,714032.647,4,500,,
sequence,flow.Sequence,10_0,2023-11-15T17:10:10.354Z,,,,,,,,,,8106.404000011971,completion,,,,,,,low,high,,,,,,false,,,,false,714023.6000000238,714023.3000000119,705900.237,705904.6000000238,705916.896,714032.647,4,500,,
trial,html.Screen,10_1_0,2023-11-15T17:10:15.745Z,,,,1,0.0223011224608011,-0.0466190802905965,,false,hh,5382.052999988082,response,0.7059460714049748,0.8800243905001249,-0.9573536485535954,0.7603583058377162,0.8553248575180156,-0.7018969092577108,high,high,,ISIC_0028041.JPG,10,ISIC_0066506.JPG,196,false,lh,keypress(e),0,false,719414.8000000119,719414.6999999881,714015.931,714023.6000000238,714032.647,719426.484,4,500,2,
break,html.Screen,10_1_1,2023-11-15T17:10:15.745Z,,,,,,,,,,NaN,,,,,,,,high,high,,,,,,false,,,,false,719415.1000000238,719415,,719414.9000000358,,719426.484,4,500,,
break_continue,html.Screen,10_1_2,2023-11-15T17:10:15.746Z,,,,,,,,,,NaN,,,,,,,,high,high,,,,,,false,,,,false,719415.4000000358,719415.3000000119,,719415.1999999881,,719426.484,4,500,,
sequence,flow.Sequence,10_1,2023-11-15T17:10:15.746Z,,,,,,,,,,5382.653000011924,completion,,,,,,,high,high,,,,,,false,,,,false,719415.4000000358,719415.3000000119,714015.931,714023.6000000238,714032.647,719426.484,4,500,,
trial,html.Screen,10_2_0,2023-11-15T17:10:19.651Z,,,,1,-0.0727065082131878,-0.0601627969482033,,true,hl,3893.616000023787,response,0.9111352818043872,0.8800243905001249,-0.9573536485535954,-0.7517932332411794,0.8553248575180156,-0.7018969092577108,high,low,,ISIC_2245069.JPG,9,ISIC_3346045.JPG,68,false,hl,keypress(j),0,false,723320.4000000358,723320.1000000238,719409.806,719415.5,719426.484,723334.288,4,500,3,
break,html.Screen,10_2_1,2023-11-15T17:10:19.652Z,,,,,,,,,,NaN,,,,,,,,high,low,,,,,,false,,,,false,723321.5,723321.3000000119,,723320.6999999881,,723334.288,4,500,,
break_continue,html.Screen,10_2_2,2023-11-15T17:10:19.653Z,,,,,,,,,,NaN,,,,,,,,high,low,,,,,,false,,,,false,723322.4000000358,723322,,723321.8000000119,,723334.288,4,500,,
sequence,flow.Sequence,10_2,2023-11-15T17:10:19.653Z,,,,,,,,,,3895.515999999945,completion,,,,,,,high,low,,,,,,false,,,,false,723322.8000000119,723322,719409.806,719415.5,719426.484,723334.288,4,500,,
trial,html.Screen,10_3_0,2023-11-15T17:10:25.547Z,,,,1,0.0564512008196606,-0.0205312570039753,,false,ll,5881.8120000239,response,-1.1080747312989654,0.8800243905001249,-0.9573536485535954,-0.702069169796232,0.8553248575180156,-0.7018969092577108,low,low,,ISIC_9019691.JPG,9,ISIC_9364740.JPG,210,false,hh,keypress(i),0,false,729216.4000000358,729216.1000000238,723317.592,723322.9000000358,723334.288,729229.02,4,500,4,
break,html.Screen,10_3_1,2023-11-15T17:10:25.548Z,,,,,,,,,,NaN,,,,,,,,low,low,,,,,,false,,,,false,729217.5,729217.3000000119,,729216.8000000119,,729229.02,4,500,,
break_continue,html.Screen,10_3_2,2023-11-15T17:10:25.549Z,,,,,,,,,,NaN,,,,,,,,low,low,,,,,,false,,,,false,729218.5,729218,,729217.8000000119,,729229.02,4,500,,
sequence,flow.Sequence,10_3,2023-11-15T17:10:25.549Z,,,,,,,,,,5883.712000000058,completion,,,,,,,low,low,,,,,,false,,,,false,729218.6999999881,729218,723317.592,723322.9000000358,723334.288,729229.02,4,500,,
trial,html.Screen,10_4_0,2023-11-15T17:10:29.011Z,,,,1,0.001445457736793,0.0165307427449982,,false,lh,3451.4799999999814,response,-0.8926515927689261,0.8800243905001249,-0.9573536485535954,0.7935960767768927,0.8553248575180156,-0.7018969092577108,low,high,,ISIC_0027350.JPG,8,ISIC_8901371.JPG,26,false,hh,keypress(i),0,false,732680.9000000358,732680.5,729212.337,729219,729229.02,732685.584,4,500,5,
break,html.Screen,10_4_1,2023-11-15T17:10:29.012Z,,,,,,,,,,NaN,,,,,,,,low,high,,,,,,false,,,,false,732682.1000000238,732681.6999999881,,732681.1999999881,,732685.584,4,500,,
break_continue,html.Screen,10_4_2,2023-11-15T17:10:29.013Z,,,,,,,,,,NaN,,,,,,,,low,high,,,,,,false,,,,false,732683,732682.6000000238,,732682.3000000119,,732685.584,4,500,,
sequence,flow.Sequence,10_4,2023-11-15T17:10:29.013Z,,,,,,,,,,3453.5800000238232,completion,,,,,,,low,high,,,,,,false,,,,false,732683.1999999881,732682.6000000238,729212.337,729218.9000000358,729229.02,732685.584,4,500,,
trial,html.Screen,10_5_0,2023-11-15T17:10:33.771Z,,,,1,0.0367060100866019,0.0630207980628495,,true,lh,4754.415999999968,response,-0.8830264383952469,0.8800243905001249,-0.9573536485535954,0.8635562538060516,0.8553248575180156,-0.7018969092577108,low,high,,ISIC_0028396.JPG,9,ISIC_0032258.JPG,26,false,lh,keypress(e),0,false,737440.4000000358,737440,732669.036,732683.5,732685.584,737444.915,4,500,6,
break,html.Screen,10_5_1,2023-11-15T17:10:33.772Z,,,,,,,,,,NaN,,,,,,,,low,high,,,,,,false,,,,false,737441.6000000238,737441.3000000119,,737440.8000000119,,737444.915,4,500,,
break_continue,html.Screen,10_5_2,2023-11-15T17:10:33.773Z,,,,,,,,,,NaN,,,,,,,,low,high,,,,,,false,,,,false,737442.4000000358,737442,,737441.6999999881,,737444.915,4,500,,
sequence,flow.Sequence,10_5,2023-11-15T17:10:33.773Z,,,,,,,,,,4756.415999999968,completion,,,,,,,low,high,,,,,,false,,,,false,737442.6999999881,737442,732669.036,732683.4000000358,732685.584,737444.915,4,500,,
trial,html.Screen,10_6_0,2023-11-15T17:10:37.690Z,,,,1,-0.0044063257337227,-0.0172548282859886,,true,ll,3915.0849999999627,response,-1.1189056385517386,0.8800243905001249,-0.9573536485535954,-0.6321010678331145,0.8553248575180156,-0.7018969092577108,low,low,,ISIC_7413786.JPG,10,ISIC_3926019.JPG,210,false,ll,keypress(f),0,false,741360.3000000119,741360,737428.157,737443,737444.915,741369.156,4,500,7,
break,html.Screen,10_6_1,2023-11-15T17:10:37.692Z,,,,,,,,,,NaN,,,,,,,,low,low,,,,,,false,,,,false,741361.5,741361.1999999881,,741360.6999999881,,741369.156,4,500,,
break_continue,html.Screen,10_6_2,2023-11-15T17:10:37.693Z,,,,,,,,,,NaN,,,,,,,,low,low,,,,,,false,,,,false,741362.4000000358,741361.9000000358,,741361.6999999881,,741369.156,4,500,,
sequence,flow.Sequence,10_6,2023-11-15T17:10:37.693Z,,,,,,,,,,3916.9850000357255,completion,,,,,,,low,low,,,,,,false,,,,false,741362.6999999881,741361.9000000358,737428.157,737443,737444.915,741369.156,4,500,,
trial,html.Screen,10_7_0,2023-11-15T17:10:41.708Z,,,,1,-0.0480293506029756,-0.0744454320613987,,false,hh,4007.344000000041,response,0.9619672413799648,0.8800243905001249,-0.9573536485535954,1.000847348662667,0.8553248575180156,-0.7018969092577108,high,high,,ISIC_1798471.JPG,8,ISIC_0067205.JPG,196,false,hl,keypress(j),0,false,745376.8000000119,745376.5,741352.475,741363,741369.156,745393.9,4,500,8,
break,html.Screen,10_7_1,2023-11-15T17:10:41.709Z,,,,,,,,,,NaN,,,,,,,,high,high,,,,,,false,,,,false,745378.1000000238,745377.6999999881,,745377.1999999881,,745393.9,4,500,,
break_continue,html.Screen,10_7_2,2023-11-15T17:10:41.710Z,,,,,,,,,,NaN,,,,,,,,high,high,,,,,,false,,,,false,745379,745378.6000000238,,745378.4000000358,,745393.9,4,500,,
sequence,flow.Sequence,10_7,2023-11-15T17:10:41.710Z,,,,,,,,,,4009.444000023883,completion,,,,,,,high,high,,,,,,false,,,,false,745379.3000000119,745378.6000000238,741352.475,741362.9000000358,741369.156,745393.9,4,500,,
trial,html.Screen,10_8_0,2023-11-15T17:10:46.644Z,,,,1,0.0065172941585523,-0.0118857043117315,,true,lh,4918.400000011898,response,-0.8075741539776473,0.8800243905001249,-0.9573536485535954,0.7326891894107508,0.8553248575180156,-0.7018969092577108,low,high,,ISIC_6119202.JPG,8,ISIC_3428523.JPG,26,false,lh,keypress(e),0,false,750312.6000000238,750312.3000000119,745377.164,745379.5,745393.9,750319.891,4,500,9,
break,html.Screen,10_8_1,2023-11-15T17:10:46.645Z,,,,,,,,,,NaN,,,,,,,,low,high,,,,,,false,,,,false,750314,750313.5,,750313,,750319.891,4,500,,
break_continue,html.Screen,10_8_2,2023-11-15T17:10:46.646Z,,,,,,,,,,NaN,,,,,,,,low,high,,,,,,false,,,,false,750314.9000000358,750314.4000000358,,750314.1999999881,,750319.891,4,500,,
sequence,flow.Sequence,10_8,2023-11-15T17:10:46.646Z,,,,,,,,,,4920.5000000357395,completion,,,,,,,low,high,,,,,,false,,,,false,750315.3000000119,750314.4000000358,745377.164,745379.4000000358,745393.9,750319.891,4,500,,
trial,html.Screen,10_9_0,2023-11-15T17:10:50.314Z,,,,1,-0.0718464495991687,0.0429653518314044,,false,ll,3663.0090000358177,response,-1.0428588955519669,0.8800243905001249,-0.9573536485535954,-0.7027377550195569,0.8553248575180156,-0.7018969092577108,low,low,,ISIC_0028597.JPG,8,ISIC_2412888.JPG,210,false,hh,keypress(i),0,false,753983.1000000238,753982.9000000358,750303.334,750315.4000000358,750319.891,753993.875,4,500,10,
break,html.Screen,10_9_1,2023-11-15T17:10:50.314Z,,,,,,,,,,NaN,,,,,,,,low,low,,,,,,false,,,,false,753983.5,753983.4000000358,,753983.3000000119,,753993.875,4,500,,
break_continue,html.Screen,10_9_2,2023-11-15T17:10:50.315Z,,,,,,,,,,NaN,,,,,,,,low,low,,,,,,false,,,,false,753983.6999999881,753983.6000000238,,753983.6000000238,,753993.875,4,500,,
sequence,flow.Sequence,10_9,2023-11-15T17:10:50.315Z,,,,,,,,,,3663.709000023897,completion,,,,,,,low,low,,,,,,false,,,,false,753983.8000000119,753983.6000000238,750303.334,750315.4000000358,750319.891,753993.875,4,500,,
trial,html.Screen,10_10_0,2023-11-15T17:10:54.740Z,,,,1,-0.0444523556175667,-0.066384682611553,,true,lh,4414.425000011921,response,-0.8034318937720549,0.8800243905001249,-0.9573536485535954,1.0024917298189338,0.8553248575180156,-0.7018969092577108,low,high,,ISIC_0029409.JPG,9,ISIC_0032766.JPG,26,false,lh,keypress(e),0,false,758408.6999999881,758408.3000000119,753977.015,753983.9000000358,753993.875,758419.114,4,500,11,
break,html.Screen,10_10_1,2023-11-15T17:10:54.741Z,,,,,,,,,,NaN,,,,,,,,low,high,,,,,,false,,,,false,758409.8000000119,758409.6000000238,,758409.1000000238,,758419.114,4,500,,
break_continue,html.Screen,10_10_2,2023-11-15T17:10:54.742Z,,,,,,,,,,NaN,,,,,,,,low,high,,,,,,false,,,,false,758410.9000000358,758410.4000000358,,758410.1000000238,,758419.114,4,500,,
sequence,flow.Sequence,10_10,2023-11-15T17:10:54.742Z,,,,,,,,,,4416.525000035763,completion,,,,,,,low,high,,,,,,false,,,,false,758411.1999999881,758410.4000000358,753977.015,753983.8000000119,753993.875,758419.114,4,500,,
trial,html.Screen,10_11_0,2023-11-15T17:10:57.748Z,,,,1,-0.0308384937406319,0.0038396364323947,,false,ll,2997.2860000358196,response,-0.8483652665994107,0.8800243905001249,-0.9573536485535954,-0.568000904082593,0.8553248575180156,-0.7018969092577108,low,low,,ISIC_0029825.JPG,10,ISIC_1110583.JPG,210,false,lh,keypress(e),0,false,761416.6999999881,761416.4000000358,758402.479,758411.4000000358,758419.114,761424.872,4,500,12,
break,html.Screen,10_11_1,2023-11-15T17:10:57.749Z,,,,,,,,,,NaN,,,,,,,,low,low,,,,,,false,,,,false,761417.9000000358,761417.5,,761417.1000000238,,761424.872,4,500,,
break_continue,html.Screen,10_11_2,2023-11-15T17:10:57.750Z,,,,,,,,,,NaN,,,,,,,,low,low,,,,,,false,,,,false,761418.6999999881,761418.3000000119,,761418.1000000238,,761424.872,4,500,,
sequence,flow.Sequence,10_11,2023-11-15T17:10:57.750Z,,,,,,,,,,2999.1860000119777,completion,,,,,,,low,low,,,,,,false,,,,false,761419,761418.3000000119,758402.479,758411.3000000119,758419.114,761424.872,4,500,,
trial,html.Screen,10_12_0,2023-11-15T17:11:02.290Z,,,,1,-0.0283578106329894,0.0088840758711548,,false,lh,4533.928000011947,response,-1.0369885917487718,0.8800243905001249,-0.9573536485535954,0.8486937878412699,0.8553248575180156,-0.7018969092577108,low,high,,ISIC_0060707.JPG,8,ISIC_6917681.JPG,26,false,hl,keypress(j),0,false,765958.9000000358,765958.8000000119,761408.323,761419.3000000119,761424.872,765966.985,4,500,13,
break,html.Screen,10_12_1,2023-11-15T17:11:02.290Z,,,,,,,,,,NaN,,,,,,,,low,high,,,,,,false,,,,false,765959.1999999881,765959.1000000238,,765959.1000000238,,765966.985,4,500,,
break_continue,html.Screen,10_12_2,2023-11-15T17:11:02.290Z,,,,,,,,,,NaN,,,,,,,,low,high,,,,,,false,,,,false,765959.5,765959.4000000358,,765959.3000000119,,765966.985,4,500,,
sequence,flow.Sequence,10_12,2023-11-15T17:11:02.290Z,,,,,,,,,,4534.528000035789,completion,,,,,,,low,high,,,,,,false,,,,false,765959.6000000238,765959.4000000358,761408.323,761419.3000000119,761424.872,765966.985,4,500,,
trial,html.Screen,10_13_0,2023-11-15T17:11:07.724Z,,,,1,-0.024731486864197,-0.0504232274546553,,true,hh,5425.415000035777,response,0.7465062180153651,0.8800243905001249,-0.9573536485535954,0.774182701900248,0.8553248575180156,-0.7018969092577108,high,high,,ISIC_4782878.JPG,9,ISIC_1566428.JPG,196,false,hh,keypress(i),0,false,771392.6000000238,771392.4000000358,765950.526,765959.6000000238,765966.985,771410.889,4,500,14,
break,html.Screen,10_13_1,2023-11-15T17:11:07.725Z,,,,,,,,,,NaN,,,,,,,,high,high,,,,,,false,,,,false,771393.8000000119,771393.6000000238,,771393.1000000238,,771410.889,4,500,,
break_continue,html.Screen,10_13_2,2023-11-15T17:11:07.726Z,,,,,,,,,,NaN,,,,,,,,high,high,,,,,,false,,,,false,771394.6000000238,771394.1999999881,,771394,,771410.889,4,500,,
sequence,flow.Sequence,10_13,2023-11-15T17:11:07.726Z,,,,,,,,,,5427.214999988093,completion,,,,,,,high,high,,,,,,false,,,,false,771395,771394.1999999881,765950.526,765959.6000000238,765966.985,771410.889,4,500,,
trial,html.Screen,10_14_0,2023-11-15T17:11:14.347Z,,,,1,-0.0480293506029756,-0.0744454320613987,,false,hh,6605.4110000119545,response,0.8441404886756483,0.8800243905001249,-0.9573536485535954,0.8493445183566039,0.8553248575180156,-0.7018969092577108,high,high,,ISIC_1798471.JPG,9,ISIC_0055003.JPG,196,false,lh,keypress(e),0,false,778016.5,778016.3000000119,771394.29,771395.1999999881,771410.889,778023.764,4,500,15,
break,html.Screen,10_14_1,2023-11-15T17:11:14.349Z,,,,,,,,,,NaN,,,,,,,,high,high,,,,,,false,,,,false,778017.9000000358,778017.5,,778017,,778023.764,4,500,,
break_continue,html.Screen,10_14_2,2023-11-15T17:11:14.350Z,,,,,,,,,,NaN,,,,,,,,high,high,,,,,,false,,,,false,778018.8000000119,778018.4000000358,,778018.1999999881,,778023.764,4,500,,
sequence,flow.Sequence,10_14,2023-11-15T17:11:14.350Z,,,,,,,,,,6607.511000035796,completion,,,,,,,high,high,,,,,,false,,,,false,778019.1999999881,778018.4000000358,771394.29,771395.1999999881,771410.889,778023.764,4,500,,
trial,html.Screen,10_15_0,2023-11-15T17:11:18.426Z,,,,1,0.045779466401051,0.0137769797231127,,true,lh,4071.4359999881126,response,-0.8513427412482127,0.8800243905001249,-0.9573536485535954,0.9295303568095064,0.8553248575180156,-0.7018969092577108,low,high,,ISIC_0000504.JPG,9,ISIC_0034164.JPG,26,false,lh,keypress(e),0,false,782095.3000000119,782095.1999999881,778007.295,778019.4000000358,778023.764,782098.303,4,500,16,
break,html.Screen,10_15_1,2023-11-15T17:11:18.427Z,,,,,,,,,,NaN,,,,,,,,low,high,,,,,,false,,,,false,782095.8000000119,782095.6000000238,,782095.5,,782098.303,4,500,,
break_continue,html.Screen,10_15_2,2023-11-15T17:11:18.427Z,,,,,,,,,,NaN,,,,,,,,low,high,,,,,,false,,,,false,782096,782095.9000000358,,782095.8000000119,,782098.303,4,500,,
sequence,flow.Sequence,10_15,2023-11-15T17:11:18.427Z,,,,,,,,,,4072.1360000357963,completion,,,,,,,low,high,,,,,,false,,,,false,782096.1000000238,782095.9000000358,778007.295,778019.3000000119,778023.764,782098.303,4,500,,
trial,html.Screen,10_16_0,2023-11-15T17:11:23.763Z,,,,1,0.0273175221875807,0.0515126441328492,,true,hl,5333.896999988123,response,0.7552468233268477,0.8800243905001249,-0.9573536485535954,-0.71846037114465,0.8553248575180156,-0.7018969092577108,high,low,,ISIC_0064034.JPG,8,ISIC_2354070.JPG,68,false,hl,keypress(j),0,false,787432.5,787432.1999999881,782081.816,782096.1000000238,782098.303,787442.141,4,500,17,
break,html.Screen,10_16_1,2023-11-15T17:11:23.765Z,,,,,,,,,,NaN,,,,,,,,high,low,,,,,,false,,,,false,787433.8000000119,787433.4000000358,,787433,,787442.141,4,500,,
break_continue,html.Screen,10_16_2,2023-11-15T17:11:23.766Z,,,,,,,,,,NaN,,,,,,,,high,low,,,,,,false,,,,false,787434.6999999881,787434.1999999881,,787434,,787442.141,4,500,,
sequence,flow.Sequence,10_16,2023-11-15T17:11:23.766Z,,,,,,,,,,5335.896999988123,completion,,,,,,,high,low,,,,,,false,,,,false,787435,787434.1999999881,782081.816,782096.1000000238,782098.303,787442.141,4,500,,
trial,html.Screen,10_17_0,2023-11-15T17:11:30.132Z,,,,1,-0.0367744112927588,-0.0324865661712824,,false,ll,6358.359000000055,response,-1.0002918079433898,0.8800243905001249,-0.9573536485535954,-0.7125870798722836,0.8553248575180156,-0.7018969092577108,low,low,,ISIC_4523565.JPG,9,ISIC_0678758.JPG,210,false,hh,keypress(i),0,false,793800.6999999881,793800.5,787425.556,787435.1999999881,787442.141,793804.531,4,500,18,
break,html.Screen,10_17_1,2023-11-15T17:11:30.133Z,,,,,,,,,,NaN,,,,,,,,low,low,,,,,,false,,,,false,793801.9000000358,793801.6000000238,,793801.1000000238,,793804.531,4,500,,
break_continue,html.Screen,10_17_2,2023-11-15T17:11:30.134Z,,,,,,,,,,NaN,,,,,,,,low,low,,,,,,false,,,,false,793802.6999999881,793802.4000000358,,793802.1000000238,,793804.531,4,500,,
sequence,flow.Sequence,10_17,2023-11-15T17:11:30.134Z,,,,,,,,,,6360.259000035818,completion,,,,,,,low,low,,,,,,false,,,,false,793803,793802.4000000358,787425.556,787435.1000000238,787442.141,793804.531,4,500,,
trial,html.Screen,10_18_0,2023-11-15T17:11:34.883Z,,,,1,0.0527477970410472,0.0575970798158164,,true,lh,4747.569000023883,response,-0.8034318937720549,0.8800243905001249,-0.9573536485535954,1.0024917298189338,0.8553248575180156,-0.7018969092577108,low,high,,ISIC_0667763.JPG,9,ISIC_0032766.JPG,26,false,lh,keypress(e),0,false,798552.5,798552.1000000238,793787.797,793803.3000000119,793804.531,798563.921,4,500,19,
break,html.Screen,10_18_1,2023-11-15T17:11:34.885Z,,,,,,,,,,NaN,,,,,,,,low,high,,,,,,false,,,,false,798553.6000000238,798553.3000000119,,798552.9000000358,,798563.921,4,500,,
break_continue,html.Screen,10_18_2,2023-11-15T17:11:34.885Z,,,,,,,,,,NaN,,,,,,,,low,high,,,,,,false,,,,false,798554.6999999881,798554.1000000238,,798553.9000000358,,798563.921,4,500,,
sequence,flow.Sequence,10_18,2023-11-15T17:11:34.886Z,,,,,,,,,,4749.569000023883,completion,,,,,,,low,high,,,,,,false,,,,false,798554.9000000358,798554.1000000238,793787.797,793803.1999999881,793804.531,798563.921,4,500,,
trial,html.Screen,10_19_0,2023-11-15T17:11:37.659Z,,,,1,0.0542893032276609,-0.0176656364422514,,false,ll,2763.47900003579,response,-0.8660404645096786,0.8800243905001249,-0.9573536485535954,-0.5271135715819022,0.8553248575180156,-0.7018969092577108,low,low,,ISIC_0024516.JPG,8,ISIC_6515546.JPG,210,false,hl,keypress(j),0,false,801327.6999999881,801327.4000000358,798547.143,798555.1999999881,798563.921,801335.784,4,500,20,
break,html.Screen,10_19_1,2023-11-15T17:11:37.659Z,,,,,,,,,,NaN,,,,,,,,low,low,,,,,,false,,,,false,801328.1999999881,801328.1999999881,,801327.9000000358,,801335.784,4,500,,
break_continue,html.Screen,10_19_2,2023-11-15T17:11:37.660Z,,,,,,,,,,NaN,,,,,,,,low,low,,,,,,false,,,,false,801328.6999999881,801328.5,,801328.4000000358,,801335.784,4,500,,
sequence,flow.Sequence,10_19,2023-11-15T17:11:37.660Z,,,,,,,,,,2764.579000000027,completion,,,,,,,low,low,,,,,,false,,,,false,801328.9000000358,801328.5,798547.143,798555.1000000238,798563.921,801335.784,4,500,,
trial,html.Screen,10_20_0,2023-11-15T17:11:40.316Z,,,,1,-0.0715931084231032,0.011427878877272,,true,hl,2648.6160000357777,response,0.7614652006672636,0.8800243905001249,-0.9573536485535954,-0.5973154829478726,0.8553248575180156,-0.7018969092577108,high,low,,ISIC_1470250.JPG,9,ISIC_8406262.JPG,68,false,hl,keypress(j),0,false,803984.6999999881,803984.4000000358,801319.104,801329.1000000238,801335.784,803990.908,4,500,21,
break,html.Screen,10_20_1,2023-11-15T17:11:40.317Z,,,,,,,,,,NaN,,,,,,,,high,low,,,,,,false,,,,false,803985.8000000119,803985.6000000238,,803985,,803990.908,4,500,,
break_continue,html.Screen,10_20_2,2023-11-15T17:11:40.318Z,,,,,,,,,,NaN,,,,,,,,high,low,,,,,,false,,,,false,803986.6000000238,803986.3000000119,,803986,,803990.908,4,500,,
sequence,flow.Sequence,10_20,2023-11-15T17:11:40.318Z,,,,,,,,,,2650.516000011936,completion,,,,,,,high,low,,,,,,false,,,,false,803986.9000000358,803986.3000000119,801319.104,801329,801335.784,803990.908,4,500,,
trial,html.Screen,10_21_0,2023-11-15T17:11:45.388Z,,,,1,0.0164027439304477,-0.0082910758715273,,true,ll,5065.291999988025,response,-0.943619079919548,0.8800243905001249,-0.9573536485535954,-0.6931497157492541,0.8553248575180156,-0.7018969092577108,low,low,,ISIC_7381224.JPG,9,ISIC_2070595.JPG,210,false,ll,keypress(f),0,false,809056.5,809056.1999999881,803974.461,803987.1000000238,803990.908,809067.478,4,500,22,
break,html.Screen,10_21_1,2023-11-15T17:11:45.389Z,,,,,,,,,,NaN,,,,,,,,low,low,,,,,,false,,,,false,809057.6000000238,809057.4000000358,,809056.9000000358,,809067.478,4,500,,
break_continue,html.Screen,10_21_2,2023-11-15T17:11:45.390Z,,,,,,,,,,NaN,,,,,,,,low,low,,,,,,false,,,,false,809058.4000000358,809058,,809057.8000000119,,809067.478,4,500,,
sequence,flow.Sequence,10_21,2023-11-15T17:11:45.390Z,,,,,,,,,,5067.091999999946,completion,,,,,,,low,low,,,,,,false,,,,false,809058.6999999881,809058,803974.461,803987.1000000238,803990.908,809067.478,4,500,,
trial,html.Screen,10_22_0,2023-11-15T17:11:49.300Z,,,,1,-0.0257631352671967,-0.0202837002774028,,false,hl,3900.622000023839,response,1.0787754255210074,0.8800243905001249,-0.9573536485535954,-0.5901348732973258,0.8553248575180156,-0.7018969092577108,high,low,,ISIC_0032797.JPG,9,ISIC_0013618.JPG,68,false,ll,keypress(f),0,false,812968.5,812968.1000000238,809050.885,809058.9000000358,809067.478,812975.046,4,500,23,
break,html.Screen,10_22_1,2023-11-15T17:11:49.301Z,,,,,,,,,,NaN,,,,,,,,high,low,,,,,,false,,,,false,812969.6000000238,812969.3000000119,,812968.9000000358,,812975.046,4,500,,
break_continue,html.Screen,10_22_2,2023-11-15T17:11:49.302Z,,,,,,,,,,NaN,,,,,,,,high,low,,,,,,false,,,,false,812970.4000000358,812970,,812969.8000000119,,812975.046,4,500,,
sequence,flow.Sequence,10_22,2023-11-15T17:11:49.302Z,,,,,,,,,,3902.521999999997,completion,,,,,,,high,low,,,,,,false,,,,false,812970.6999999881,812970,809050.885,809058.9000000358,809067.478,812975.046,4,500,,
trial,html.Screen,10_23_0,2023-11-15T17:11:58.036Z,,,,1,0.0528688218207886,-0.0356788458032396,,false,lh,8729.454000000027,response,-1.075512775389519,0.8800243905001249,-0.9573536485535954,1.0454702683049502,0.8553248575180156,-0.7018969092577108,low,high,,ISIC_5287748.JPG,8,ISIC_0033603.JPG,26,false,ll,keypress(f),0,false,821704.8000000119,821704.5,812958.599,812970.9000000358,812975.046,821708.761,4,500,24,
break,html.Screen,10_23_1,2023-11-15T17:11:58.038Z,,,,,,,,,,NaN,,,,,,,,low,high,,,,,,false,,,,false,821706,821705.6999999881,,821705.3000000119,,821708.761,4,500,,
break_continue,html.Screen,10_23_2,2023-11-15T17:11:58.038Z,,,,,,,,,,NaN,,,,,,,,low,high,,,,,,false,,,,false,821706.8000000119,821706.5,,821706.3000000119,,821708.761,4,500,,
sequence,flow.Sequence,10_23,2023-11-15T17:11:58.039Z,,,,,,,,,,8731.454000000027,completion,,,,,,,low,high,,,,,,false,,,,false,821707.1999999881,821706.5,812958.599,812970.8000000119,812975.046,821708.761,4,500,,
trial,html.Screen,10_24_0,2023-11-15T17:12:02.236Z,,,,1,0.0145962222125655,0.0525495878509009,,true,lh,4195.339000023785,response,-0.8954803463300026,0.8800243905001249,-0.9573536485535954,0.7071819047913821,0.8553248575180156,-0.7018969092577108,low,high,,ISIC_4248013.JPG,9,ISIC_0033071.JPG,26,false,lh,keypress(e),0,false,825904.3000000119,825904.1000000238,821692.137,821707.4000000358,821708.761,825917.154,4,500,25,
break,html.Screen,10_24_1,2023-11-15T17:12:02.237Z,,,,,,,,,,NaN,,,,,,,,low,high,,,,,,false,,,,false,825905.5,825905.1999999881,,825904.8000000119,,825917.154,4,500,,
break_continue,html.Screen,10_24_2,2023-11-15T17:12:02.238Z,,,,,,,,,,NaN,,,,,,,,low,high,,,,,,false,,,,false,825906.4000000358,825906,,825905.8000000119,,825917.154,4,500,,
sequence,flow.Sequence,10_24,2023-11-15T17:12:02.238Z,,,,,,,,,,4197.238999999943,completion,,,,,,,low,high,,,,,,false,,,,false,825906.6999999881,825906,821692.137,821707.4000000358,821708.761,825917.154,4,500,,
trial,html.Screen,10_25_0,2023-11-15T17:12:05.874Z,,,,1,-0.0715931084231032,0.011427878877272,,false,hl,3625.3460000000196,response,0.7086444307501906,0.8800243905001249,-0.9573536485535954,-0.5741053017503567,0.8553248575180156,-0.7018969092577108,high,low,,ISIC_1470250.JPG,9,ISIC_4924690.JPG,68,false,hh,keypress(i),0,false,829542.6000000238,829542.5,825900.45,825907,825917.154,829557.332,4,500,26,
break,html.Screen,10_25_1,2023-11-15T17:12:05.874Z,,,,,,,,,,NaN,,,,,,,,high,low,,,,,,false,,,,false,829542.9000000358,829542.9000000358,,829542.6999999881,,829557.332,4,500,,
break_continue,html.Screen,10_25_2,2023-11-15T17:12:05.875Z,,,,,,,,,,NaN,,,,,,,,high,low,,,,,,false,,,,false,829543.1000000238,829543.1000000238,,829543,,829557.332,4,500,,
sequence,flow.Sequence,10_25,2023-11-15T17:12:05.875Z,,,,,,,,,,3625.9460000238614,completion,,,,,,,high,low,,,,,,false,,,,false,829543.1999999881,829543.1000000238,825900.45,825906.8000000119,825917.154,829557.332,4,500,,
trial,html.Screen,10_26_0,2023-11-15T17:12:09.244Z,,,,1,-0.0249297455748133,0.055986418955019,,false,lh,3355.0680000357097,response,-0.9653573371180936,0.8800243905001249,-0.9573536485535954,0.854766800381037,0.8553248575180156,-0.7018969092577108,low,high,,ISIC_3900049.JPG,9,ISIC_9640145.JPG,26,false,hh,keypress(i),0,false,832912.8000000119,832912.4000000358,829540.583,829543.3000000119,829557.332,832947.521,4,500,27,
break,html.Screen,10_26_1,2023-11-15T17:12:09.245Z,,,,,,,,,,NaN,,,,,,,,low,high,,,,,,false,,,,false,832913.8000000119,832913.6000000238,,832913.1999999881,,832947.521,4,500,,
break_continue,html.Screen,10_26_2,2023-11-15T17:12:09.246Z,,,,,,,,,,NaN,,,,,,,,low,high,,,,,,false,,,,false,832914.6999999881,832914.3000000119,,832914,,832947.521,4,500,,
sequence,flow.Sequence,10_26,2023-11-15T17:12:09.247Z,,,,,,,,,,3356.968000011868,completion,,,,,,,low,high,,,,,,false,,,,false,832915,832914.3000000119,829540.583,829543.3000000119,829557.332,832947.521,4,500,,
trial,html.Screen,10_27_0,2023-11-15T17:12:13.748Z,,,,1,0.0497314815986203,-0.0303374618795786,,false,lh,4468.678999988129,response,-0.8075741539776473,0.8800243905001249,-0.9573536485535954,0.7326891894107508,0.8553248575180156,-0.7018969092577108,low,high,,ISIC_6023504.JPG,8,ISIC_3428523.JPG,26,false,ll,keypress(f),0,false,837416.6000000238,837416.1999999881,832930.746,832915.1999999881,832947.521,837422.609,4,500,28,
break,html.Screen,10_27_1,2023-11-15T17:12:13.749Z,,,,,,,,,,NaN,,,,,,,,low,high,,,,,,false,,,,false,837417.6999999881,837417.5,,837416.9000000358,,837422.609,4,500,,
break_continue,html.Screen,10_27_2,2023-11-15T17:12:13.750Z,,,,,,,,,,NaN,,,,,,,,low,high,,,,,,false,,,,false,837418.6000000238,837418.1999999881,,837417.9000000358,,837422.609,4,500,,
sequence,flow.Sequence,10_27,2023-11-15T17:12:13.750Z,,,,,,,,,,4470.678999988129,completion,,,,,,,low,high,,,,,,false,,,,false,837418.8000000119,837418.1999999881,832930.746,832915.1999999881,832947.521,837422.609,4,500,,
trial,html.Screen,10_28_0,2023-11-15T17:12:17.620Z,,,,1,0.0527477970410472,0.0575970798158164,,false,lh,3865.491000023787,response,-0.8828738626295417,0.8800243905001249,-0.9573536485535954,0.8288177599439582,0.8553248575180156,-0.7018969092577108,low,high,,ISIC_0667763.JPG,8,ISIC_0056041.JPG,26,false,hh,keypress(i),0,false,841288.4000000358,841288.1000000238,837406.158,837419.1000000238,837422.609,841296.818,4,500,29,
break,html.Screen,10_28_1,2023-11-15T17:12:17.621Z,,,,,,,,,,NaN,,,,,,,,low,high,,,,,,false,,,,false,841289.6000000238,841289.3000000119,,841288.8000000119,,841296.818,4,500,,
break_continue,html.Screen,10_28_2,2023-11-15T17:12:17.622Z,,,,,,,,,,NaN,,,,,,,,low,high,,,,,,false,,,,false,841290.6000000238,841290.1999999881,,841289.9000000358,,841296.818,4,500,,
sequence,flow.Sequence,10_28,2023-11-15T17:12:17.622Z,,,,,,,,,,3867.590999988024,completion,,,,,,,low,high,,,,,,false,,,,false,841290.9000000358,841290.1999999881,837406.158,837419,837422.609,841296.818,4,500,,
trial,html.Screen,10_29_0,2023-11-15T17:12:23.652Z,,,,1,-0.0524649813000588,0.0155452034299028,,false,hh,6023.68200000003,response,0.7442210668746905,0.8800243905001249,-0.9573536485535954,1.0149619004779185,0.8553248575180156,-0.7018969092577108,high,high,,ISIC_0030087.JPG,8,ISIC_7373074.JPG,196,false,lh,keypress(e),0,false,847320.8000000119,847320.5,841280.082,841291.1000000238,841296.818,847342.168,4,500,30,
break,html.Screen,10_29_1,2023-11-15T17:12:23.653Z,,,,,,,,,,NaN,,,,,,,,high,high,,,,,,false,,,,false,847321.9000000358,847321.6000000238,,847321.1000000238,,847342.168,4,500,,
break_continue,html.Screen,10_29_2,2023-11-15T17:12:23.654Z,,,,,,,,,,NaN,,,,,,,,high,high,,,,,,false,,,,false,847322.8000000119,847322.4000000358,,847322.1000000238,,847342.168,4,500,,
sequence,flow.Sequence,10_29,2023-11-15T17:12:23.655Z,,,,,,,,,,6025.582000035793,completion,,,,,,,high,high,,,,,,false,,,,false,847323,847322.4000000358,841280.082,841291,841296.818,847342.168,4,500,,
trial,html.Screen,10_30_0,2023-11-15T17:12:27.867Z,,,,1,0.045779466401051,0.0137769797231127,,false,lh,4192.932000023895,response,-1.075512775389519,0.8800243905001249,-0.9573536485535954,1.0454702683049502,0.8553248575180156,-0.7018969092577108,low,high,,ISIC_0000504.JPG,9,ISIC_0033603.JPG,26,false,ll,keypress(f),0,false,851535.1000000238,851535.1000000238,847325.212,847323.3000000119,847342.168,851550.325,4,500,31,
break,html.Screen,10_30_1,2023-11-15T17:12:27.867Z,,,,,,,,,,NaN,,,,,,,,low,high,,,,,,false,,,,false,851535.6000000238,851535.5,,851535.3000000119,,851550.325,4,500,,
break_continue,html.Screen,10_30_2,2023-11-15T17:12:27.867Z,,,,,,,,,,NaN,,,,,,,,low,high,,,,,,false,,,,false,851535.8000000119,851535.6000000238,,851535.6000000238,,851550.325,4,500,,
sequence,flow.Sequence,10_30,2023-11-15T17:12:27.867Z,,,,,,,,,,4193.432000023895,completion,,,,,,,low,high,,,,,,false,,,,false,851535.9000000358,851535.6000000238,847325.212,847323.1999999881,847342.168,851550.325,4,500,,
trial,html.Screen,10_31_0,2023-11-15T17:12:31.867Z,,,,1,-0.0447960916594447,-0.0451557856659748,,false,hl,3984.5750000358094,response,0.9762052952069274,0.8800243905001249,-0.9573536485535954,-0.5466893998883133,0.8553248575180156,-0.7018969092577108,high,low,,ISIC_1379405.JPG,9,ISIC_0063742.JPG,68,false,lh,keypress(e),0,false,855535,855534.9000000358,851533.639,851536,851550.325,855541.163,4,500,32,
break,html.Screen,10_31_1,2023-11-15T17:12:31.867Z,,,,,,,,,,NaN,,,,,,,,high,low,,,,,,false,,,,false,855535.3000000119,855535.1999999881,,855535.1000000238,,855541.163,4,500,,
break_continue,html.Screen,10_31_2,2023-11-15T17:12:31.867Z,,,,,,,,,,NaN,,,,,,,,high,low,,,,,,false,,,,false,855535.5,855535.4000000358,,855535.4000000358,,855541.163,4,500,,
sequence,flow.Sequence,10_31,2023-11-15T17:12:31.867Z,,,,,,,,,,3985.0750000358094,completion,,,,,,,high,low,,,,,,false,,,,false,855535.6000000238,855535.4000000358,851533.639,851535.9000000358,851550.325,855541.163,4,500,,
trial,html.Screen,10_32_0,2023-11-15T17:12:37.891Z,,,,1,-0.0727065082131878,-0.0601627969482033,,true,ll,6017.837000000058,response,-1.1189056385517386,0.8800243905001249,-0.9573536485535954,-0.6321010678331145,0.8553248575180156,-0.7018969092577108,low,low,,ISIC_2245069.JPG,9,ISIC_3926019.JPG,210,false,ll,keypress(f),0,false,861559.1000000238,861559,855524.683,855535.6999999881,855541.163,861569.595,4,500,33,
break,html.Screen,10_32_1,2023-11-15T17:12:37.891Z,,,,,,,,,,NaN,,,,,,,,low,low,,,,,,false,,,,false,861559.4000000358,861559.3000000119,,861559.1999999881,,861569.595,4,500,,
break_continue,html.Screen,10_32_2,2023-11-15T17:12:37.891Z,,,,,,,,,,NaN,,,,,,,,low,low,,,,,,false,,,,false,861559.6000000238,861559.6000000238,,861559.4000000358,,861569.595,4,500,,
sequence,flow.Sequence,10_32,2023-11-15T17:12:37.891Z,,,,,,,,,,6018.4370000239,completion,,,,,,,low,low,,,,,,false,,,,false,861559.6000000238,861559.6000000238,855524.683,855535.6999999881,855541.163,861569.595,4,500,,
trial,html.Screen,10_33_0,2023-11-15T17:12:40.748Z,,,,1,-0.0524649813000588,0.0155452034299028,,true,lh,2846.705000011949,response,-0.8954803463300026,0.8800243905001249,-0.9573536485535954,0.7071819047913821,0.8553248575180156,-0.7018969092577108,low,high,,ISIC_0030087.JPG,9,ISIC_0033071.JPG,26,false,lh,keypress(e),0,false,864416.6000000238,864416.3000000119,861553.041,861559.6999999881,861569.595,864425.194,4,500,34,
break,html.Screen,10_33_1,2023-11-15T17:12:40.749Z,,,,,,,,,,NaN,,,,,,,,low,high,,,,,,false,,,,false,864417.8000000119,864417.5,,864416.9000000358,,864425.194,4,500,,
break_continue,html.Screen,10_33_2,2023-11-15T17:12:40.750Z,,,,,,,,,,NaN,,,,,,,,low,high,,,,,,false,,,,false,864418.6000000238,864418.1999999881,,864417.9000000358,,864425.194,4,500,,
sequence,flow.Sequence,10_33,2023-11-15T17:12:40.750Z,,,,,,,,,,2848.604999988107,completion,,,,,,,low,high,,,,,,false,,,,false,864418.9000000358,864418.1999999881,861553.041,861559.6999999881,861569.595,864425.194,4,500,,
trial,html.Screen,10_34_0,2023-11-15T17:12:45.325Z,,,,1,0.055893254685579,0.0187125006410995,,false,hl,4567.106000011903,response,1.064186606907764,0.8800243905001249,-0.9573536485535954,-0.5593816085032521,0.8553248575180156,-0.7018969092577108,high,low,,ISIC_0011779.JPG,10,ISIC_0014975.JPG,68,false,ll,keypress(f),0,false,868992.6000000238,868992.3000000119,864408.667,864419.1999999881,864425.194,869000.766,4,500,35,
break,html.Screen,10_34_1,2023-11-15T17:12:45.326Z,,,,,,,,,,NaN,,,,,,,,high,low,,,,,,false,,,,false,868993.6999999881,868993.5,,868993,,869000.766,4,500,,
break_continue,html.Screen,10_34_2,2023-11-15T17:12:45.327Z,,,,,,,,,,NaN,,,,,,,,high,low,,,,,,false,,,,false,868994.6000000238,868994.1999999881,,868994.1000000238,,869000.766,4,500,,
sequence,flow.Sequence,10_34,2023-11-15T17:12:45.327Z,,,,,,,,,,4569.005999988061,completion,,,,,,,high,low,,,,,,false,,,,false,868995,868994.1999999881,864408.667,864419,864425.194,869000.766,4,500,,
trial,html.Screen,10_35_0,2023-11-15T17:12:48.629Z,,,,1,0.045779466401051,0.0137769797231127,,false,hh,3295.734000000055,response,0.9267385554195492,0.8800243905001249,-0.9573536485535954,0.6562387054370414,0.8553248575180156,-0.7018969092577108,high,high,,ISIC_0000504.JPG,9,ISIC_0058649.JPG,196,false,hl,keypress(j),0,false,872296.8000000119,872296.5,868984.151,868995.1999999881,869000.766,872307.169,4,500,36,
break,html.Screen,10_35_1,2023-11-15T17:12:48.630Z,,,,,,,,,,NaN,,,,,,,,high,high,,,,,,false,,,,false,872298,872297.6999999881,,872297.1999999881,,872307.169,4,500,,
break_continue,html.Screen,10_35_2,2023-11-15T17:12:48.631Z,,,,,,,,,,NaN,,,,,,,,high,high,,,,,,false,,,,false,872298.9000000358,872298.5,,872298.3000000119,,872307.169,4,500,,
sequence,flow.Sequence,10_35,2023-11-15T17:12:48.631Z,,,,,,,,,,3297.734000000055,completion,,,,,,,high,high,,,,,,false,,,,false,872299.1999999881,872298.5,868984.151,868995.1000000238,869000.766,872307.169,4,500,,
trial,html.Screen,10_36_0,2023-11-15T17:12:51.044Z,,,,1,0.0409660561823769,-0.039283578935498,,false,hh,2403.9310000238474,response,0.8824429342294199,0.8800243905001249,-0.9573536485535954,0.8627090057984027,0.8553248575180156,-0.7018969092577108,high,high,,ISIC_0479264.JPG,8,ISIC_0015193.JPG,196,false,lh,keypress(e),0,false,874711.4000000358,874711.1000000238,872290.425,872299.4000000358,872307.169,874728.499,4,500,37,
break,html.Screen,10_36_1,2023-11-15T17:12:51.044Z,,,,,,,,,,NaN,,,,,,,,high,high,,,,,,false,,,,false,874711.9000000358,874711.6999999881,,874711.5,,874728.499,4,500,,
break_continue,html.Screen,10_36_2,2023-11-15T17:12:51.044Z,,,,,,,,,,NaN,,,,,,,,high,high,,,,,,false,,,,false,874712.1999999881,874712,,874712,,874728.499,4,500,,
sequence,flow.Sequence,10_36,2023-11-15T17:12:51.045Z,,,,,,,,,,2404.8310000000056,completion,,,,,,,high,high,,,,,,false,,,,false,874712.3000000119,874712,872290.425,872299.4000000358,872307.169,874728.499,4,500,,
trial,html.Screen,10_37_0,2023-11-15T17:12:56.733Z,,,,1,-0.0267918352484299,-0.0630167830859455,,false,ll,5671.5010000000475,response,-1.0198919808587756,0.8800243905001249,-0.9573536485535954,-0.6204573890581869,0.8553248575180156,-0.7018969092577108,low,low,,ISIC_0064874.JPG,9,ISIC_0595080.JPG,210,false,hh,keypress(i),0,false,880400.4000000358,880400,874695.353,874712.5,874728.499,880406.205,4,500,38,
