sender,sender_type,sender_id,timestamp,meta,,age,blockNo,c1,c2,condition,correct,correctResponse,duration,ended_on,f1,f1_high,f1_low,f2,f2_high,f2_low,feature_level1,feature_level2,gender,img_left,img_reveal,img_right,n_target_images,practice,response,response_action,selection_duration,staircase,time_commit,time_end,time_render,time_run,time_show,time_switch,total_blocks,total_trials,trialNo,url
informed_consent,html.Screen,0,2023-11-15T16:35:42.895Z,"{""labjs_version"":""20.2.4"",""labjs_build"":{""flavor"":""development"",""commit"":""f5b4a49f956347addd546a832a3327688c2c0fef""},""location"":""https://labjs.felixhenninger.com/api/labjs_preview/index.html"",""userAgent"":""Mozilla/5.0 (Windows NT 10.0; Win64; x64) AppleWebKit/537.36 (KHTML, like Gecko) Chrome/119.0.0.0 Safari/537.36"",""platform"":""Win32"",""language"":""en-US"",""locale"":""en-US"",""timeZone"":""America/Chicago"",""timezoneOffset"":360,""screen_width"":1920,""screen_height"":1080,""scroll_width"":945,""scroll_height"":918,""window_innerWidth"":945,""window_innerHeight"":966,""devicePixelRatio"":1}",,,,,,,,,43971.39000001192,response,,,,,,,,,,,,,,,consent,click button,,,44630.10000000894,44621.30000001192,633.263,623.1000000089407,649.91,44633.002,,,,{}
Demography form,html.Form,1,2023-11-15T16:35:55.241Z,,,18,,,,,,,12340.79800001192,form submission,,,,,,,,,female,,,,,,,,,,56974,56973.80000001192,44616.47,44630.40000000596,44633.002,56983.075,,,,
Welcome,html.Screen,2,2023-11-15T16:36:20.873Z,,,,,,,"[""bor"",""col""]",,,25622.125000002983,response,,,,,,,,,,,,,,,continue,click button,,,82605.60000000894,82605.20000000298,56966.373,56974.10000000894,56983.075,82633.191,,,,
demo_instructions,html.Screen,3,2023-11-15T16:36:33.409Z,,,,,,,,,,12508.009000002974,response,,,,,,,,,,,,,,,continue,click button,,,95141.70000000298,95141.20000000298,82616.379,82605.80000001192,82633.191,95149.568,,,,
trial,html.Screen,4_0_0,2023-11-15T16:36:48.901Z,,,,0,0.7468466922606799,-0.7486692996330936,,true,lh,15483.632000002981,response,-0.84290786638064,0.8999999999999997,-0.8999999999999997,0.7332521189371746,0.8999999999999997,-0.8999999999999997,low,high,,ISIC_0025508.JPG,,ISIC_4708642.JPG,29,true,lh,keypress(e),100,false,110633.60000000894,110633.20000000298,95133.057,95142,95149.568,110649.745,1,16,1,
sequence,flow.Sequence,4_0,2023-11-15T16:36:48.901Z,,,,,,,,,,15483.632000002981,completion,,,,,,,low,high,,,,,,true,,,,false,110634.40000000596,110633.20000000298,95133.057,95142,95149.568,110649.745,1,16,,
trial,html.Screen,4_1_0,2023-11-15T16:36:58.076Z,,,,0,1.004142980655507,-0.7749773174967559,,true,lh,9158.655000005965,response,-1.0329549150636406,0.8999999999999997,-0.8999999999999997,1.01584100839286,0.8999999999999997,-0.8999999999999997,low,high,,ISIC_3936223.JPG,,ISIC_0054670.JPG,29,true,lh,keypress(e),100,false,119808.80000001192,119808.40000000596,110632.916,110634.70000000298,110649.745,119832.991,1,16,2,
sequence,flow.Sequence,4_1,2023-11-15T16:36:58.077Z,,,,,,,,,,9158.655000005965,completion,,,,,,,low,high,,,,,,true,,,,false,119809.5,119808.40000000596,110632.916,110634.60000000894,110649.745,119832.991,1,16,,
trial,html.Screen,4_2_0,2023-11-15T16:37:02.888Z,,,,0,1.0116417541846066,-1.033442916947398,,true,lh,4786.609000008946,response,-0.7991459998473059,0.8999999999999997,-0.8999999999999997,1.0280788723474688,0.8999999999999997,-0.8999999999999997,low,high,,ISIC_0031389.JPG,,ISIC_7951202.JPG,29,true,lh,keypress(e),100,false,124620.10000000894,124619.60000000894,119816.256,119809.80000001192,119832.991,124649.578,1,16,3,
sequence,flow.Sequence,4_2,2023-11-15T16:37:02.888Z,,,,,,,,,,4786.609000008946,completion,,,,,,,low,high,,,,,,true,,,,false,124620.80000001192,124619.60000000894,119816.256,119809.70000000298,119832.991,124649.578,1,16,,
trial,html.Screen,4_3_0,2023-11-15T16:37:10.194Z,,,,0,0.7856143618373893,-1.0273608829432213,,true,lh,7276.622000002986,response,-0.8830264383952469,0.8999999999999997,-0.8999999999999997,0.8635562538060516,0.8999999999999997,-0.8999999999999997,low,high,,ISIC_9303849.JPG,,ISIC_0032258.JPG,29,true,lh,keypress(e),100,false,131926.70000000298,131926.20000000298,124633.086,124621.20000000298,124649.578,131949.617,1,16,4,
sequence,flow.Sequence,4_3,2023-11-15T16:37:10.195Z,,,,,,,,,,7276.622000002986,completion,,,,,,,low,high,,,,,,true,,,,false,131927.30000001192,131926.20000000298,124633.086,124621.10000000894,124649.578,131949.617,1,16,,
trial,html.Screen,4_4_0,2023-11-15T16:37:17.134Z,,,,0,0.9069076630783806,0.849461654555185,,true,ll,6916.283000005962,response,-0.908921558757692,0.8999999999999997,-0.8999999999999997,-0.7778194826049402,0.8999999999999997,-0.8999999999999997,low,low,,ISIC_0054527.JPG,,ISIC_2152875.JPG,169,true,ll,keypress(f),100,false,138866.10000000894,138865.90000000596,131932.839,131927.70000000298,131949.617,138882.8,1,16,5,
sequence,flow.Sequence,4_4,2023-11-15T16:37:17.134Z,,,,,,,,,,6916.283000005962,completion,,,,,,,low,low,,,,,,true,,,,false,138866.40000000596,138865.90000000596,131932.839,131927.60000000894,131949.617,138882.8,1,16,,
trial,html.Screen,4_5_0,2023-11-15T16:37:31.826Z,,,,0,0.8470981587059541,1.0762788364457982,,true,ll,14675.000000011933,response,-0.8279987487454253,0.8999999999999997,-0.8999999999999997,-0.7079823492956061,0.8999999999999997,-0.8999999999999997,low,low,,ISIC_0011013.JPG,,ISIC_0030703.JPG,169,true,ll,keypress(f),100,false,153558.40000000596,153557.80000001192,138866.119,138866.5,138882.8,153582.963,1,16,6,
sequence,flow.Sequence,4_5,2023-11-15T16:37:31.826Z,,,,,,,,,,14675.000000011933,completion,,,,,,,low,low,,,,,,true,,,,false,153558.90000000596,153557.80000001192,138866.119,138866.5,138882.8,153582.963,1,16,,
trial,html.Screen,4_6_0,2023-11-15T16:37:40.029Z,,,,0,0.8663139955905144,0.940959443919478,,true,ll,8177.737000002991,response,-0.7945270488878992,0.8999999999999997,-0.8999999999999997,-0.9054354695775536,0.8999999999999997,-0.8999999999999997,low,low,,ISIC_0010040.JPG,,ISIC_5820693.JPG,169,true,ll,keypress(f),100,false,161761,161760.70000000298,153566.143,153559.20000000298,153582.963,161782.952,1,16,7,
sequence,flow.Sequence,4_6,2023-11-15T16:37:40.029Z,,,,,,,,,,8177.737000002991,completion,,,,,,,low,low,,,,,,true,,,,false,161761.60000000894,161760.70000000298,153566.143,153559,153582.963,161782.952,1,16,,
trial,html.Screen,4_7_0,2023-11-15T16:37:48.041Z,,,,0,0.8724853443422199,0.9014790323337478,,true,ll,7989.94800000597,response,-0.7268043404851218,0.8999999999999997,-0.8999999999999997,-0.8184581417483975,0.8999999999999997,-0.8999999999999997,low,low,,ISIC_6278273.JPG,,ISIC_0002118.JPG,169,true,ll,keypress(f),100,false,169773.30000001192,169772.90000000596,161766.085,161761.80000001192,161782.952,169799.577,1,16,8,
sequence,flow.Sequence,4_7,2023-11-15T16:37:48.041Z,,,,,,,,,,7989.94800000597,completion,,,,,,,low,low,,,,,,true,,,,false,169773.80000001192,169772.90000000596,161766.085,161761.80000001192,161782.952,169799.577,1,16,,
trial,html.Screen,4_8_0,2023-11-15T16:37:58.214Z,,,,0,-0.8110121381849364,0.7563142141851558,,true,hl,10144.52300000895,response,0.7856143618373893,0.8999999999999997,-0.8999999999999997,-1.0273608829432213,0.8999999999999997,-0.8999999999999997,high,low,,ISIC_0033605.JPG,,ISIC_9303849.JPG,43,true,hl,keypress(j),100,false,179944.5,179944.10000000894,169782.73,169774.10000000894,169799.577,179966.256,1,16,9,
sequence,flow.Sequence,4_8,2023-11-15T16:37:58.214Z,,,,,,,,,,10144.52300000895,completion,,,,,,,high,low,,,,,,true,,,,false,179945,179944.10000000894,169782.73,169774,169799.577,179966.256,1,16,,
trial,html.Screen,4_9_0,2023-11-15T16:38:04.305Z,,,,0,-0.84290786638064,0.7332521189371746,,true,hl,6068.944000002986,response,0.8500530224490773,0.8999999999999997,-0.8999999999999997,-1.0893360711742854,0.8999999999999997,-0.8999999999999997,high,low,,ISIC_4708642.JPG,,ISIC_2998367.JPG,43,true,hl,keypress(j),100,false,186035.30000001192,186035.20000000298,179949.381,179945.30000001192,179966.256,186066.073,1,16,10,
sequence,flow.Sequence,4_9,2023-11-15T16:38:04.305Z,,,,,,,,,,6068.944000002986,completion,,,,,,,high,low,,,,,,true,,,,false,186035.60000000894,186035.20000000298,179949.381,179945.20000000298,179966.256,186066.073,1,16,,
trial,html.Screen,4_10_0,2023-11-15T16:38:07.846Z,,,,0,-0.9237241143561707,0.7102087839245512,,true,hl,3510.0270000089367,response,1.045301444872812,0.8999999999999997,-0.8999999999999997,-1.0872560254441277,0.8999999999999997,-0.8999999999999997,high,low,,ISIC_0058661.JPG,,ISIC_4507700.JPG,43,true,hl,keypress(j),100,false,189576.40000000596,189576.10000000894,186049.528,186035.70000000298,186066.073,189599.507,1,16,11,
sequence,flow.Sequence,4_10,2023-11-15T16:38:07.846Z,,,,,,,,,,3510.0270000089367,completion,,,,,,,high,low,,,,,,true,,,,false,189577,189576.10000000894,186049.528,186035.60000000894,186066.073,189599.507,1,16,,
trial,html.Screen,4_11_0,2023-11-15T16:38:12.657Z,,,,0,-0.8954803463300026,0.7071819047913821,,true,hl,4787.693000002968,response,0.7236002097394486,0.8999999999999997,-0.8999999999999997,-0.7895205994309619,0.8999999999999997,-0.8999999999999997,high,low,,ISIC_0033071.JPG,,ISIC_0413563.JPG,43,true,hl,keypress(j),100,false,194387.60000000894,194387.20000000298,189582.673,189577.30000001192,189599.507,194416.052,1,16,12,
sequence,flow.Sequence,4_11,2023-11-15T16:38:12.657Z,,,,,,,,,,4787.693000002968,completion,,,,,,,high,low,,,,,,true,,,,false,194388.10000000894,194387.20000000298,189582.673,189577.20000000298,189599.507,194416.052,1,16,,
trial,html.Screen,4_12_0,2023-11-15T16:38:35.563Z,,,,0,-0.9582474649169744,-0.8117789358233404,,true,hh,22877.048000008945,response,0.8856883166390501,0.8999999999999997,-0.8999999999999997,0.86246873871669,0.8999999999999997,-0.8999999999999997,high,high,,ISIC_0821520.JPG,,ISIC_0010938.JPG,184,true,hh,keypress(i),100,false,217293.20000000298,217293.10000000894,194399.413,194388.30000001192,194416.052,217315.925,1,16,13,
sequence,flow.Sequence,4_12,2023-11-15T16:38:35.563Z,,,,,,,,,,22877.048000008945,completion,,,,,,,high,high,,,,,,true,,,,false,217293.40000000596,217293.10000000894,194399.413,194388.20000000298,194416.052,217315.925,1,16,,
trial,html.Screen,4_13_0,2023-11-15T16:38:41.134Z,,,,0,-0.8326661044614712,-1.0208030773499672,,true,hh,5548.675000008952,response,1.0712988318327483,0.8999999999999997,-0.8999999999999997,0.813758249035235,0.8999999999999997,-0.8999999999999997,high,high,,ISIC_4477599.JPG,,ISIC_5762714.JPG,184,true,hh,keypress(i),100,false,222864.90000000596,222864.60000000894,217299.421,217293.5,217315.925,222882.722,1,16,14,
sequence,flow.Sequence,4_13,2023-11-15T16:38:41.135Z,,,,,,,,,,5548.675000008952,completion,,,,,,,high,high,,,,,,true,,,,false,222865.40000000596,222864.60000000894,217299.421,217293.5,217315.925,222882.722,1,16,,
trial,html.Screen,4_14_0,2023-11-15T16:38:49.113Z,,,,0,-1.0040510013663018,-0.9707475308236284,,true,hh,7960.777999999991,response,1.0349570401423522,0.8999999999999997,-0.8999999999999997,1.0363323665817852,0.8999999999999997,-0.8999999999999997,high,high,,ISIC_0026911.JPG,,ISIC_0030107.JPG,184,true,hh,keypress(i),100,false,230843.80000001192,230843.5,222865.976,222865.70000000298,222882.722,230865.908,1,16,15,
sequence,flow.Sequence,4_14,2023-11-15T16:38:49.114Z,,,,,,,,,,7960.777999999991,completion,,,,,,,high,high,,,,,,true,,,,false,230844.40000000596,230843.5,222865.976,222865.60000000894,222882.722,230865.908,1,16,,
trial,html.Screen,4_15_0,2023-11-15T16:38:55.733Z,,,,0,-0.940974390526586,-0.8027264864579817,,true,hh,6595.992000005965,response,1.068995482830036,0.8999999999999997,-0.8999999999999997,1.02189095692261,0.8999999999999997,-0.8999999999999997,high,high,,ISIC_0032341.JPG,,ISIC_0046405.JPG,184,true,hh,keypress(i),100,false,237462.20000000298,237461.90000000596,230849.231,230844.60000000894,230865.908,237482.571,1,16,16,
sequence,flow.Sequence,4_15,2023-11-15T16:38:55.733Z,,,,,,,,,,6595.992000005965,completion,,,,,,,high,high,,,,,,true,,,,false,237462.80000001192,237461.90000000596,230849.231,230844.5,230865.908,237482.571,1,16,,
demonstration_loop,flow.Loop,4,2023-11-15T16:38:55.734Z,,,,,,,,,,142312.33200000596,completion,,,,,,,,,,,,,,true,,,,false,237463,237461.90000000596,95133.057,95141.80000001192,95149.568,237482.571,1,16,,
practice_instructions,html.Screen,5,2023-11-15T16:39:34.635Z,,,,,,,,,,38874.229000011925,response,,,,,,,,,,,,,,,continue,click button,,,276364.8000000119,276356.8000000119,237465.939,237463.20000000298,237482.571,276365.739,,,,
trial,html.Screen,6_0_0,2023-11-15T16:39:38.301Z,,,,1,-0.9394358755892184,-1.0256934713188917,,false,hh,3664.2609999999986,response,0.726088143883226,0.8999999999999997,-0.8999999999999997,0.9195149254716736,0.8999999999999997,-0.8999999999999997,high,high,,ISIC_4264600.JPG,,ISIC_3445468.JPG,184,true,hl,keypress(j),0,false,280030.10000000894,280030,276349.266,276364.90000000596,276365.739,280049.124,1,40,1,
sequence,flow.Sequence,6_0,2023-11-15T16:39:38.301Z,,,,,,,,,,3664.2609999999986,completion,,,,,,,high,high,,,,,,true,,,,false,280030.200000003,280030,276349.266,276364.90000000596,276365.739,280049.124,1,40,,
trial,html.Screen,6_1_0,2023-11-15T16:39:42.333Z,,,,1,1.0665699221890637,1.0106762707163983,,true,ll,4013.2760000059498,response,-0.7420119067987634,0.8999999999999997,-0.8999999999999997,-0.9245836900688724,0.8999999999999997,-0.8999999999999997,low,low,,ISIC_1630301.JPG,,ISIC_4130167.JPG,169,true,ll,keypress(f),0,false,284062.60000000894,284062.40000000596,280032.349,280030.40000000596,280049.124,284065.747,1,40,2,
sequence,flow.Sequence,6_1,2023-11-15T16:39:42.334Z,,,,,,,,,,4013.2760000059498,completion,,,,,,,low,low,,,,,,true,,,,false,284063,284062.40000000596,280032.349,280030.3000000119,280049.124,284065.747,1,40,,
trial,html.Screen,6_2_0,2023-11-15T16:39:53.322Z,,,,1,-0.7276136672767647,-0.9132548085712324,,,,11016.801000000036,timeout,0.8063996897274507,0.8999999999999997,-0.8999999999999997,0.9872236201212492,0.8999999999999997,-0.8999999999999997,high,high,,ISIC_0007740.JPG,,ISIC_0015046.JPG,184,true,,,0,false,295050.3000000119,295050,284049.181,284063.3000000119,284065.747,295082.548,1,40,3,
sequence,flow.Sequence,6_2,2023-11-15T16:39:53.323Z,,,,,,,,,,10984.253000000026,completion,,,,,,,high,high,,,,,,true,,,,false,295050.700000003,295050,284049.181,284063.3000000119,284065.747,295082.548,1,40,,
trial,html.Screen,6_3_0,2023-11-15T16:39:58.464Z,,,,1,-0.7991459998473059,1.0280788723474688,,true,hl,5109.052000008931,response,0.9544693251394116,0.8999999999999997,-0.8999999999999997,-1.0727539917203766,0.8999999999999997,-0.8999999999999997,high,low,,ISIC_7951202.JPG,,ISIC_0055147.JPG,43,true,hl,keypress(j),0,false,300191.8000000119,300191.60000000894,295065.963,295050.90000000596,295082.548,300198.993,1,40,4,
sequence,flow.Sequence,6_3,2023-11-15T16:39:58.464Z,,,,,,,,,,5109.052000008931,completion,,,,,,,high,low,,,,,,true,,,,false,300192.3000000119,300191.60000000894,295065.963,295050.90000000596,295082.548,300198.993,1,40,,
trial,html.Screen,6_4_0,2023-11-15T16:40:01.159Z,,,,1,0.8137027730168936,0.7771609347349258,,true,ll,2687.307000011904,response,-0.8326661044614712,0.8999999999999997,-0.8999999999999997,-1.0208030773499672,0.8999999999999997,-0.8999999999999997,low,low,,ISIC_7899041.JPG,,ISIC_4477599.JPG,169,true,ll,keypress(f),0,false,302886.8000000119,302886.3000000119,300182.274,300192.5,300198.993,302899.021,1,40,5,
sequence,flow.Sequence,6_4,2023-11-15T16:40:01.159Z,,,,,,,,,,2687.307000011904,completion,,,,,,,low,low,,,,,,true,,,,false,302887.3000000119,302886.3000000119,300182.274,300192.40000000596,300198.993,302899.021,1,40,,
trial,html.Screen,6_5_0,2023-11-15T16:40:03.423Z,,,,1,-0.789083277544982,0.7172067273002093,,true,hl,2251.579000008933,response,0.9111352818043872,0.8999999999999997,-0.8999999999999997,-0.7517932332411794,0.8999999999999997,-0.8999999999999997,high,low,,ISIC_0011030.JPG,,ISIC_3346045.JPG,43,true,hl,keypress(j),0,false,305150.8000000119,305150.60000000894,302882.426,302887.60000000894,302899.021,305165.928,1,40,6,
sequence,flow.Sequence,6_5,2023-11-15T16:40:03.423Z,,,,,,,,,,2251.579000008933,completion,,,,,,,high,low,,,,,,true,,,,false,305151.10000000894,305150.60000000894,302882.426,302887.5,302899.021,305165.928,1,40,,
trial,html.Screen,6_6_0,2023-11-15T16:40:05.671Z,,,,1,0.9752130063130028,-0.7248550908059443,,true,lh,2232.6720000089263,response,-0.8075741539776473,0.8999999999999997,-0.8999999999999997,0.7326891894107508,0.8999999999999997,-0.8999999999999997,low,high,,ISIC_5190484.JPG,,ISIC_3428523.JPG,29,true,lh,keypress(e),0,false,307398.90000000596,307398.60000000894,305149.094,305151.3000000119,305165.928,307415.863,1,40,7,
sequence,flow.Sequence,6_6,2023-11-15T16:40:05.671Z,,,,,,,,,,2232.6720000089263,completion,,,,,,,low,high,,,,,,true,,,,false,307399.40000000596,307398.60000000894,305149.094,305151.3000000119,305165.928,307415.863,1,40,,
trial,html.Screen,6_7_0,2023-11-15T16:40:08.360Z,,,,1,-0.7246771568562105,0.9161385080362604,,true,hl,2671.837000002968,response,1.0116417541846066,0.8999999999999997,-0.8999999999999997,-1.033442916947398,0.8999999999999997,-0.8999999999999997,high,low,,ISIC_0028225.JPG,,ISIC_0031389.JPG,43,true,hl,keypress(j),0,false,310087.90000000596,310087.700000003,307399.159,307399.700000003,307415.863,310099.048,1,40,8,
sequence,flow.Sequence,6_7,2023-11-15T16:40:08.360Z,,,,,,,,,,2671.837000002968,completion,,,,,,,high,low,,,,,,true,,,,false,310088.3000000119,310087.700000003,307399.159,307399.60000000894,307415.863,310099.048,1,40,,
trial,html.Screen,6_8_0,2023-11-15T16:40:11.238Z,,,,1,0.9866910776752168,0.9730788960408626,,true,ll,2866.45199999999,response,-0.7221097620132031,0.8999999999999997,-0.8999999999999997,-0.8272347232135335,0.8999999999999997,-0.8999999999999997,low,low,,ISIC_0070003.JPG,,ISIC_9598638.JPG,169,true,ll,keypress(f),0,false,312965.60000000894,312965.5,310082.438,310088.60000000894,310099.048,312982.319,1,40,9,
sequence,flow.Sequence,6_8,2023-11-15T16:40:11.238Z,,,,,,,,,,2866.45199999999,completion,,,,,,,low,low,,,,,,true,,,,false,312965.700000003,312965.5,310082.438,310088.40000000596,310099.048,312982.319,1,40,,
trial,html.Screen,6_9_0,2023-11-15T16:40:13.727Z,,,,1,-0.8692576729104817,-0.7554562761747954,,true,hh,2472.3810000029625,response,0.748203467481012,0.8999999999999997,-0.8999999999999997,0.990072838603998,0.8999999999999997,-0.8999999999999997,high,high,,ISIC_6963954.JPG,,ISIC_0065735.JPG,184,true,hh,keypress(i),0,false,315455,315454.700000003,312965.629,312965.700000003,312982.319,315465.684,1,40,10,
sequence,flow.Sequence,6_9,2023-11-15T16:40:13.727Z,,,,,,,,,,2472.3810000029625,completion,,,,,,,high,high,,,,,,true,,,,false,315455.3000000119,315454.700000003,312965.629,312965.700000003,312982.319,315465.684,1,40,,
trial,html.Screen,6_10_0,2023-11-15T16:40:16.095Z,,,,1,0.9864553897205228,0.7203939202840286,,true,ll,2356.8159999999916,response,-0.7607573190812582,0.8999999999999997,-0.8999999999999997,-0.7880740841769366,0.8999999999999997,-0.8999999999999997,low,low,,ISIC_0054334.JPG,,ISIC_2178689.JPG,169,true,ll,keypress(f),0,false,317822.8000000119,317822.5,315449.049,315455.5,315465.684,317832.54,1,40,11,
sequence,flow.Sequence,6_10,2023-11-15T16:40:16.095Z,,,,,,,,,,2356.8159999999916,completion,,,,,,,low,low,,,,,,true,,,,false,317823.3000000119,317822.5,315449.049,315455.5,315465.684,317832.54,1,40,,
trial,html.Screen,6_11_0,2023-11-15T16:40:18.031Z,,,,1,0.9089402323867112,-0.8034544077281132,,true,lh,1925.8600000059814,response,-0.7010101889216934,0.8999999999999997,-0.8999999999999997,0.9022783418178474,0.8999999999999997,-0.8999999999999997,low,high,,ISIC_3585381.JPG,,ISIC_0057858.JPG,29,true,lh,keypress(e),0,false,319758.700000003,319758.40000000596,317815.729,317823.40000000596,317832.54,319765.615,1,40,12,
sequence,flow.Sequence,6_11,2023-11-15T16:40:18.031Z,,,,,,,,,,1925.8600000059814,completion,,,,,,,low,high,,,,,,true,,,,false,319759.10000000894,319758.40000000596,317815.729,317823.3000000119,317832.54,319765.615,1,40,,
trial,html.Screen,6_12_0,2023-11-15T16:40:19.647Z,,,,1,-1.0667712753225895,-0.7415337434376102,,true,hh,1609.0850000029895,response,0.7217466853250509,0.8999999999999997,-0.8999999999999997,0.8448637774265015,0.8999999999999997,-0.8999999999999997,high,high,,ISIC_8626941.JPG,,ISIC_0030780.JPG,184,true,hh,keypress(i),0,false,321374.90000000596,321374.700000003,319749.153,319759.40000000596,319765.615,321382.301,1,40,13,
sequence,flow.Sequence,6_12,2023-11-15T16:40:19.647Z,,,,,,,,,,1609.0850000029895,completion,,,,,,,high,high,,,,,,true,,,,false,321375.3000000119,321374.700000003,319749.153,319759.3000000119,319765.615,321382.301,1,40,,
trial,html.Screen,6_13_0,2023-11-15T16:40:22.151Z,,,,1,-1.086808687078377,-0.8881204850517516,,true,hh,2496.6990000000224,response,0.8010128234618513,0.8999999999999997,-0.8999999999999997,0.9031251164933652,0.8999999999999997,-0.8999999999999997,high,high,,ISIC_4014307.JPG,,ISIC_0058768.JPG,184,true,hh,keypress(i),0,false,323879.3000000119,323879,321365.757,321375.60000000894,321382.301,323882.337,1,40,14,
sequence,flow.Sequence,6_13,2023-11-15T16:40:22.152Z,,,,,,,,,,2496.6990000000224,completion,,,,,,,high,high,,,,,,true,,,,false,323879.700000003,323879,321365.757,321375.40000000596,321382.301,323882.337,1,40,,
trial,html.Screen,6_14_0,2023-11-15T16:40:25.408Z,,,,1,0.7197447395657519,0.7733754114250216,,true,ll,3253.063000005961,response,-0.764893988285809,0.8999999999999997,-0.8999999999999997,-1.055978100098093,0.8999999999999997,-0.8999999999999997,low,low,,ISIC_0011529.JPG,,ISIC_2077116.JPG,169,true,ll,keypress(f),0,false,327135.700000003,327135.40000000596,323865.592,323879.90000000596,323882.337,327149.134,1,40,15,
sequence,flow.Sequence,6_14,2023-11-15T16:40:25.408Z,,,,,,,,,,3253.063000005961,completion,,,,,,,low,low,,,,,,true,,,,false,327136.10000000894,327135.40000000596,323865.592,323879.90000000596,323882.337,327149.134,1,40,,
trial,html.Screen,6_15_0,2023-11-15T16:40:27.511Z,,,,1,-0.8110121381849364,0.7563142141851558,,true,hl,2089.56600000296,response,0.7552468233268477,0.8999999999999997,-0.8999999999999997,-0.71846037114465,0.8999999999999997,-0.8999999999999997,high,low,,ISIC_0033605.JPG,,ISIC_2354070.JPG,43,true,hl,keypress(j),0,false,329239,329238.700000003,327132.414,327136.3000000119,327149.134,329249.147,1,40,16,
sequence,flow.Sequence,6_15,2023-11-15T16:40:27.511Z,,,,,,,,,,2089.56600000296,completion,,,,,,,high,low,,,,,,true,,,,false,329239.40000000596,329238.700000003,327132.414,327136.200000003,327149.134,329249.147,1,40,,
trial,html.Screen,6_16_0,2023-11-15T16:40:29.686Z,,,,1,0.7305475296009624,-0.7442779237098178,,true,lh,2164.553000002983,response,-0.8926515927689261,0.8999999999999997,-0.8999999999999997,0.7935960767768927,0.8999999999999997,-0.8999999999999997,low,high,,ISIC_7266604.JPG,,ISIC_8901371.JPG,29,true,lh,keypress(e),0,false,331413.8000000119,331413.700000003,329232.406,329239.60000000894,329249.147,331415.554,1,40,17,
sequence,flow.Sequence,6_16,2023-11-15T16:40:29.686Z,,,,,,,,,,2164.553000002983,completion,,,,,,,low,high,,,,,,true,,,,false,331413.90000000596,331413.700000003,329232.406,329239.5,329249.147,331415.554,1,40,,
trial,html.Screen,6_17_0,2023-11-15T16:40:31.470Z,,,,1,0.7612472458680769,-0.729960233427452,,true,lh,1782.046000008937,response,-0.7246771568562105,0.8999999999999997,-0.8999999999999997,0.9161385080362604,0.8999999999999997,-0.8999999999999997,low,high,,ISIC_5307210.JPG,,ISIC_0028225.JPG,29,true,lh,keypress(e),0,false,333197.700000003,333197.60000000894,331399.112,331414,331415.554,333216.81,1,40,18,
sequence,flow.Sequence,6_17,2023-11-15T16:40:31.470Z,,,,,,,,,,1782.046000008937,completion,,,,,,,low,high,,,,,,true,,,,false,333197.90000000596,333197.60000000894,331399.112,331414,331415.554,333216.81,1,40,,
trial,html.Screen,6_18_0,2023-11-15T16:40:33.120Z,,,,1,-0.8954803463300026,0.7071819047913821,,true,hl,1630.8900000029826,response,0.9633172970727744,0.8999999999999997,-0.8999999999999997,-0.8472659344792351,0.8999999999999997,-0.8999999999999997,high,low,,ISIC_0033071.JPG,,ISIC_0067172.JPG,43,true,hl,keypress(j),0,false,334848,334847.700000003,333182.42,333197.90000000596,333216.81,334882.319,1,40,19,
sequence,flow.Sequence,6_18,2023-11-15T16:40:33.120Z,,,,,,,,,,1630.8900000029826,completion,,,,,,,high,low,,,,,,true,,,,false,334848.40000000596,334847.700000003,333182.42,333197.90000000596,333216.81,334882.319,1,40,,
trial,html.Screen,6_19_0,2023-11-15T16:40:35.662Z,,,,1,0.9836672814341636,1.0629122718286683,,true,ll,2507.5810000059428,response,-0.7607573190812582,0.8999999999999997,-0.8999999999999997,-0.7880740841769366,0.8999999999999997,-0.8999999999999997,low,low,,ISIC_0062161.JPG,,ISIC_2178689.JPG,169,true,ll,keypress(f),0,false,337390,337389.90000000596,334865.856,334848.5,334882.319,337399.041,1,40,20,
sequence,flow.Sequence,6_19,2023-11-15T16:40:35.662Z,,,,,,,,,,2507.5810000059428,completion,,,,,,,low,low,,,,,,true,,,,false,337390.10000000894,337389.90000000596,334865.856,334848.5,334882.319,337399.041,1,40,,
trial,html.Screen,6_20_0,2023-11-15T16:40:37.261Z,,,,1,0.8165346395107898,-0.7657798385266591,,true,lh,1589.9589999999735,response,-0.9237241143561707,0.8999999999999997,-0.8999999999999997,0.7102087839245512,0.8999999999999997,-0.8999999999999997,low,high,,ISIC_2283628.JPG,,ISIC_0058661.JPG,29,true,lh,keypress(e),0,false,338989.10000000894,338989,337382.327,337390.200000003,337399.041,338998.896,1,40,21,
sequence,flow.Sequence,6_20,2023-11-15T16:40:37.261Z,,,,,,,,,,1589.9589999999735,completion,,,,,,,low,high,,,,,,true,,,,false,338989.200000003,338989,337382.327,337390.10000000894,337399.041,338998.896,1,40,,
trial,html.Screen,6_21_0,2023-11-15T16:40:38.767Z,,,,1,-0.8063086831157171,-0.7804750549895122,,true,hh,1495.603999999992,response,0.8735012360137532,0.8999999999999997,-0.8999999999999997,1.0448182576694087,0.8999999999999997,-0.8999999999999997,high,high,,ISIC_0002899.JPG,,ISIC_0010267.JPG,184,true,hh,keypress(i),0,false,340494.90000000596,340494.5,338982.207,338989.3000000119,338998.896,340498.958,1,40,22,
sequence,flow.Sequence,6_21,2023-11-15T16:40:38.768Z,,,,,,,,,,1495.603999999992,completion,,,,,,,high,high,,,,,,true,,,,false,340495.5,340494.5,338982.207,338989.200000003,338998.896,340498.958,1,40,,
trial,html.Screen,6_22_0,2023-11-15T16:40:40.374Z,,,,1,1.004142980655507,-0.7749773174967559,,true,lh,1602.4420000059763,response,-0.8926515927689261,0.8999999999999997,-0.8999999999999997,0.7935960767768927,0.8999999999999997,-0.8999999999999997,low,high,,ISIC_3936223.JPG,,ISIC_8901371.JPG,29,true,lh,keypress(e),0,false,342101.60000000894,342101.40000000596,340482.367,340495.8000000119,340498.958,342115.766,1,40,23,
sequence,flow.Sequence,6_22,2023-11-15T16:40:40.374Z,,,,,,,,,,1602.4420000059763,completion,,,,,,,low,high,,,,,,true,,,,false,342101.700000003,342101.40000000596,340482.367,340495.8000000119,340498.958,342115.766,1,40,,
trial,html.Screen,6_23_0,2023-11-15T16:40:42.008Z,,,,1,-0.8379442136072591,-0.8260692529258827,,true,hh,1619.7339999999967,response,1.0189634710647173,0.8999999999999997,-0.8999999999999997,0.7310110375972448,0.8999999999999997,-0.8999999999999997,high,high,,ISIC_0013213.JPG,,ISIC_0057949.JPG,184,true,hh,keypress(i),0,false,343735.700000003,343735.5,342098.908,342101.700000003,342115.766,343748.968,1,40,24,
sequence,flow.Sequence,6_23,2023-11-15T16:40:42.008Z,,,,,,,,,,1619.7339999999967,completion,,,,,,,high,high,,,,,,true,,,,false,343736.10000000894,343735.5,342098.908,342101.700000003,342115.766,343748.968,1,40,,
trial,html.Screen,6_24_0,2023-11-15T16:40:43.607Z,,,,1,0.7438008784971919,-0.7701607600068142,,true,lh,1585.6320000089472,response,-0.789083277544982,0.8999999999999997,-0.8999999999999997,0.7172067273002093,0.8999999999999997,-0.8999999999999997,low,high,,ISIC_8493108.JPG,,ISIC_0011030.JPG,29,true,lh,keypress(e),0,false,345334.8000000119,345334.60000000894,343732.289,343736.3000000119,343748.968,345349.089,1,40,25,
sequence,flow.Sequence,6_24,2023-11-15T16:40:43.607Z,,,,,,,,,,1585.6320000089472,completion,,,,,,,low,high,,,,,,true,,,,false,345335.200000003,345334.60000000894,343732.289,343736.3000000119,343748.968,345349.089,1,40,,
trial,html.Screen,6_25_0,2023-11-15T16:40:45.199Z,,,,1,-0.715586294160793,-0.7728125370921421,,true,hh,1577.3110000059824,response,0.8663139955905144,0.8999999999999997,-0.8999999999999997,0.940959443919478,0.8999999999999997,-0.8999999999999997,high,high,,ISIC_9965754.JPG,,ISIC_0010040.JPG,184,true,hh,keypress(i),0,false,346926.700000003,346926.40000000596,345332.434,345335.40000000596,345349.089,346932.189,1,40,26,
sequence,flow.Sequence,6_25,2023-11-15T16:40:45.199Z,,,,,,,,,,1577.3110000059824,completion,,,,,,,high,high,,,,,,true,,,,false,346927.200000003,346926.40000000596,345332.434,345335.3000000119,345349.089,346932.189,1,40,,
trial,html.Screen,6_26_0,2023-11-15T16:40:46.735Z,,,,1,-0.7883321712536753,1.0011430756825364,,true,hl,1530.2110000059474,response,0.8500530224490773,0.8999999999999997,-0.8999999999999997,-1.0893360711742854,0.8999999999999997,-0.8999999999999997,high,low,,ISIC_9828853.JPG,,ISIC_2998367.JPG,43,true,hl,keypress(j),0,false,348462.700000003,348462.40000000596,346915.661,346927.40000000596,346932.189,348465.602,1,40,27,
sequence,flow.Sequence,6_26,2023-11-15T16:40:46.735Z,,,,,,,,,,1530.2110000059474,completion,,,,,,,high,low,,,,,,true,,,,false,348463,348462.40000000596,346915.661,346927.3000000119,346932.189,348465.602,1,40,,
trial,html.Screen,6_27_0,2023-11-15T16:40:48.287Z,,,,1,1.0918237468930412,1.0199940959248062,,true,ll,1549.0980000029667,response,-1.0325421457475312,0.8999999999999997,-0.8999999999999997,-1.0219157566370058,0.8999999999999997,-0.8999999999999997,low,low,,ISIC_0064120.JPG,,ISIC_5336548.JPG,169,true,ll,keypress(f),0,false,350015,350014.700000003,348449.1,348463.200000003,348465.602,350032.482,1,40,28,
sequence,flow.Sequence,6_27,2023-11-15T16:40:48.287Z,,,,,,,,,,1549.0980000029667,completion,,,,,,,low,low,,,,,,true,,,,false,350015.40000000596,350014.700000003,348449.1,348463.200000003,348465.602,350032.482,1,40,,
trial,html.Screen,6_28_0,2023-11-15T16:40:49.856Z,,,,1,0.7692916291112835,-0.7818604706992622,,true,lh,1551.1180000089225,response,-0.8472024037189965,0.8999999999999997,-0.8999999999999997,0.986370061404882,0.8999999999999997,-0.8999999999999997,low,high,,ISIC_7844825.JPG,,ISIC_0054355.JPG,29,true,lh,keypress(e),0,false,351583.90000000596,351583.60000000894,350015.716,350015.60000000894,350032.482,351599.073,1,40,29,
sequence,flow.Sequence,6_28,2023-11-15T16:40:49.856Z,,,,,,,,,,1551.1180000089225,completion,,,,,,,low,high,,,,,,true,,,,false,351584.200000003,351583.60000000894,350015.716,350015.60000000894,350032.482,351599.073,1,40,,
trial,html.Screen,6_29_0,2023-11-15T16:40:51.455Z,,,,1,-0.989300717252516,0.7908280206937478,,true,hl,1583.5270000089658,response,0.9752130063130028,0.8999999999999997,-0.8999999999999997,-0.7248550908059443,0.8999999999999997,-0.8999999999999997,high,low,,ISIC_6416533.JPG,,ISIC_5190484.JPG,43,true,hl,keypress(j),0,false,353182.8000000119,353182.60000000894,351582.409,351584.60000000894,351599.073,353199.044,1,40,30,
sequence,flow.Sequence,6_29,2023-11-15T16:40:51.455Z,,,,,,,,,,1583.5270000089658,completion,,,,,,,high,low,,,,,,true,,,,false,353183.200000003,353182.60000000894,351582.409,351584.40000000596,351599.073,353199.044,1,40,,
trial,html.Screen,6_30_0,2023-11-15T16:40:53.296Z,,,,1,-0.7883321712536753,1.0011430756825364,,true,hl,1823.2560000119265,response,0.9752130063130028,0.8999999999999997,-0.8999999999999997,-0.7248550908059443,0.8999999999999997,-0.8999999999999997,high,low,,ISIC_9828853.JPG,,ISIC_5190484.JPG,43,true,hl,keypress(j),0,false,355022.60000000894,355022.3000000119,353182.303,353183.3000000119,353199.044,355032.369,1,40,31,
sequence,flow.Sequence,6_30,2023-11-15T16:40:53.296Z,,,,,,,,,,1823.2560000119265,completion,,,,,,,high,low,,,,,,true,,,,false,355023,355022.3000000119,353182.303,353183.3000000119,353199.044,355032.369,1,40,,
trial,html.Screen,6_31_0,2023-11-15T16:40:54.777Z,,,,1,0.8689339070965472,0.9278851723466304,,true,ll,1471.0310000059544,response,-0.7221097620132031,0.8999999999999997,-0.8999999999999997,-0.8272347232135335,0.8999999999999997,-0.8999999999999997,low,low,,ISIC_2221217.JPG,,ISIC_9598638.JPG,169,true,ll,keypress(f),0,false,356503.700000003,356503.40000000596,355015.745,355023.10000000894,355032.369,356515.708,1,40,32,
sequence,flow.Sequence,6_31,2023-11-15T16:40:54.777Z,,,,,,,,,,1471.0310000059544,completion,,,,,,,low,low,,,,,,true,,,,false,356504.200000003,356503.40000000596,355015.745,355023,355032.369,356515.708,1,40,,
trial,html.Screen,6_32_0,2023-11-15T16:40:56.448Z,,,,1,-0.8778738400881212,-0.8629033386879579,,true,hh,1658.5920000119368,response,1.0679712388489528,0.8999999999999997,-0.8999999999999997,1.0509600192807842,0.8999999999999997,-0.8999999999999997,high,high,,ISIC_5607702.JPG,,ISIC_0015180.JPG,184,true,hh,keypress(i),0,false,358174.60000000894,358174.3000000119,356499.098,356504.3000000119,356515.708,358182.239,1,40,33,
sequence,flow.Sequence,6_32,2023-11-15T16:40:56.448Z,,,,,,,,,,1658.5920000119368,completion,,,,,,,high,high,,,,,,true,,,,false,358175,358174.3000000119,356499.098,356504.3000000119,356515.708,358182.239,1,40,,
trial,html.Screen,6_33_0,2023-11-15T16:40:58.048Z,,,,1,-0.7411887874358276,0.7869222465141029,,true,hl,1592.2609999999986,response,0.8987343013179191,0.8999999999999997,-0.8999999999999997,-0.8149073454566363,0.8999999999999997,-0.8999999999999997,high,low,,ISIC_6255113.JPG,,ISIC_0472513.JPG,43,true,hl,keypress(j),0,false,359774.8000000119,359774.5,358165.628,358175.200000003,358182.239,359782.187,1,40,34,
sequence,flow.Sequence,6_33,2023-11-15T16:40:58.048Z,,,,,,,,,,1592.2609999999986,completion,,,,,,,high,low,,,,,,true,,,,false,359775.200000003,359774.5,358165.628,358175.10000000894,358182.239,359782.187,1,40,,
trial,html.Screen,6_34_0,2023-11-15T16:40:59.952Z,,,,1,0.7059460714049748,0.7603583058377162,,true,ll,1896.2130000059842,response,-0.8405707669205109,0.8999999999999997,-0.8999999999999997,-0.7425323414439162,0.8999999999999997,-0.8999999999999997,low,low,,ISIC_0066506.JPG,,ISIC_4272317.JPG,169,true,ll,keypress(f),0,false,361678.60000000894,361678.40000000596,359765.551,359775.40000000596,359782.187,361682.164,1,40,35,
sequence,flow.Sequence,6_34,2023-11-15T16:40:59.952Z,,,,,,,,,,1896.2130000059842,completion,,,,,,,low,low,,,,,,true,,,,false,361679,361678.40000000596,359765.551,359775.3000000119,359782.187,361682.164,1,40,,
trial,html.Screen,6_35_0,2023-11-15T16:41:01.711Z,,,,1,0.8145814609211571,0.7591292272911163,,true,ll,1755.6360000119312,response,-0.748409616109011,0.8999999999999997,-0.8999999999999997,-0.7872751354576192,0.8999999999999997,-0.8999999999999997,low,low,,ISIC_0011434.JPG,,ISIC_4894929.JPG,169,true,ll,keypress(f),0,false,363437.90000000596,363437.8000000119,361665.677,361679.3000000119,361682.164,363449.028,1,40,36,
sequence,flow.Sequence,6_35,2023-11-15T16:41:01.711Z,,,,,,,,,,1755.6360000119312,completion,,,,,,,low,low,,,,,,true,,,,false,363438.10000000894,363437.8000000119,361665.677,361679.200000003,361682.164,363449.028,1,40,,
trial,html.Screen,6_36_0,2023-11-15T16:41:03.183Z,,,,1,-0.8351560316519383,-0.7085394211669206,,true,hh,1460.5720000089495,response,1.0980226451001782,0.8999999999999997,-0.8999999999999997,0.9421419207281913,0.8999999999999997,-0.8999999999999997,high,high,,ISIC_5795486.JPG,,ISIC_0060481.JPG,184,true,hh,keypress(i),0,false,364909.60000000894,364909.60000000894,363432.293,363438.200000003,363449.028,364915.571,1,40,37,
sequence,flow.Sequence,6_36,2023-11-15T16:41:03.183Z,,,,,,,,,,1460.5720000089495,completion,,,,,,,high,high,,,,,,true,,,,false,364909.700000003,364909.60000000894,363432.293,363438.200000003,363449.028,364915.571,1,40,,
trial,html.Screen,6_37_0,2023-11-15T16:41:04.736Z,,,,1,-1.0369885917487718,0.8486937878412699,,true,hl,1546.8290000059642,response,0.9089402323867112,0.8999999999999997,-0.8999999999999997,-0.8034544077281132,0.8999999999999997,-0.8999999999999997,high,low,,ISIC_6917681.JPG,,ISIC_3585381.JPG,43,true,hl,keypress(j),0,false,366462.700000003,366462.40000000596,364898.977,364909.8000000119,364915.571,366465.484,1,40,38,
sequence,flow.Sequence,6_37,2023-11-15T16:41:04.736Z,,,,,,,,,,1546.8290000059642,completion,,,,,,,high,low,,,,,,true,,,,false,366463.10000000894,366462.40000000596,364898.977,364909.8000000119,364915.571,366465.484,1,40,,
trial,html.Screen,6_38_0,2023-11-15T16:41:06.232Z,,,,1,0.8987343013179191,-0.8149073454566363,,true,lh,1493.116000008944,response,-0.930804711032185,0.8999999999999997,-0.8999999999999997,0.7294067991476295,0.8999999999999997,-0.8999999999999997,low,high,,ISIC_0472513.JPG,,ISIC_5067317.JPG,29,true,lh,keypress(e),0,false,367958.8000000119,367958.60000000894,366448.967,366463.3000000119,366465.484,367965.524,1,40,39,
sequence,flow.Sequence,6_38,2023-11-15T16:41:06.232Z,,,,,,,,,,1493.116000008944,completion,,,,,,,low,high,,,,,,true,,,,false,367959.10000000894,367958.60000000894,366448.967,366463.3000000119,366465.484,367965.524,1,40,,
trial,html.Screen,6_39_0,2023-11-15T16:41:07.985Z,,,,1,0.7688509750532941,-0.7699842387811451,,true,lh,1745.7760000119451,response,-0.7991459998473059,0.8999999999999997,-0.8999999999999997,1.0280788723474688,0.8999999999999997,-0.8999999999999997,low,high,,ISIC_0014527.JPG,,ISIC_7951202.JPG,29,true,lh,keypress(e),0,false,369711.5,369711.3000000119,367948.981,367959.40000000596,367965.524,369715.529,1,40,40,
sequence,flow.Sequence,6_39,2023-11-15T16:41:07.985Z,,,,,,,,,,1745.7760000119451,completion,,,,,,,low,high,,,,,,true,,,,false,369711.90000000596,369711.3000000119,367948.981,367959.3000000119,367965.524,369715.529,1,40,,
practice_loop,flow.Loop,6,2023-11-15T16:41:07.985Z,,,,,,,,,,93345.56100001192,completion,,,,,,,,,,,,,,true,,,,false,369712.3000000119,369711.3000000119,276349.266,276364.90000000596,276365.739,369715.529,1,40,,
stair_instructions,html.Screen,7,2023-11-15T16:41:50.910Z,,,,,,,,,,42920.671000003,response,,,,,,,,,,,,,,,continue,click button,,,412636.8000000119,412636.200000003,369698.919,369712.3000000119,369715.529,412648.756,,,,
trial,html.Screen,8_0_0,2023-11-15T16:42:01.910Z,,,,2,-0.0076984477620101,-0.0069458408496562,,,,11016.767999999982,timeout,0.9752130063130028,0.8999999999999997,-0.8999999999999997,-0.7248550908059443,0.8999999999999997,-0.8999999999999997,high,low,,ISIC_0000434.JPG,,ISIC_5190484.JPG,43,false,,,0,true,423635.3000000119,423635.200000003,412632.293,412636.90000000596,412648.756,423665.524,1,40,1,
sequence,flow.Sequence,8_0,2023-11-15T16:42:01.910Z,,,,,,,,,,10986.444000002986,completion,,,,,,,high,low,,,,,,false,,,,true,423635.40000000596,423635.200000003,412632.293,412636.90000000596,412648.756,423665.524,1,40,,
trial,html.Screen,8_1_0,2023-11-15T16:42:08.963Z,,,,2,0.0080817964357627,-0.0444435264307931,,true,lh,7022.476000000024,response,-0.9653573371180936,0.8999999999999997,-0.8999999999999997,0.854766800381037,0.8999999999999997,-0.8999999999999997,low,high,,ISIC_0013165.JPG,,ISIC_9640145.JPG,29,false,lh,keypress(e),0,true,430688.200000003,430688,423648.851,423635.40000000596,423665.524,430715.32,1,40,2,
sequence,flow.Sequence,8_1,2023-11-15T16:42:08.963Z,,,,,,,,,,7022.476000000024,completion,,,,,,,low,high,,,,,,false,,,,true,430688.200000003,430688,423648.851,423635.40000000596,423665.524,430715.32,1,40,,
trial,html.Screen,8_2_0,2023-11-15T16:42:14.743Z,,,,2,-0.0524649813000588,0.0155452034299028,,true,hl,5753.679999999993,response,0.9662688541319592,0.8999999999999997,-0.8999999999999997,-0.929746784178986,0.8999999999999997,-0.8999999999999997,high,low,,ISIC_0030087.JPG,,ISIC_0011077.JPG,43,false,hl,keypress(j),0,true,436469,436469,430698.693,430688.3000000119,430715.32,436481.975,1,40,3,
sequence,flow.Sequence,8_2,2023-11-15T16:42:14.744Z,,,,,,,,,,5753.679999999993,completion,,,,,,,high,low,,,,,,false,,,,true,436469.200000003,436469,430698.693,430688.3000000119,430715.32,436481.975,1,40,,
trial,html.Screen,8_3_0,2023-11-15T16:42:17.295Z,,,,2,-0.0501343550751953,-0.0101991443736165,,true,hl,2538.7250000030035,response,0.7079689798840642,0.8999999999999997,-0.8999999999999997,-0.9053957126199562,0.8999999999999997,-0.8999999999999997,high,low,,ISIC_4232761.JPG,,ISIC_0058863.JPG,43,false,hl,keypress(j),0,true,439020.8000000119,439020.700000003,436465.307,436469.200000003,436481.975,439031.983,1,40,4,
sequence,flow.Sequence,8_3,2023-11-15T16:42:17.295Z,,,,,,,,,,2538.7250000030035,completion,,,,,,,high,low,,,,,,false,,,,true,439020.8000000119,439020.700000003,436465.307,436469.200000003,436481.975,439031.983,1,40,,
trial,html.Screen,8_4_0,2023-11-15T16:42:26.672Z,,,,2,0.0349011973222753,-0.065080527952874,,false,lh,9365.917000005953,response,-0.9653573371180936,0.8499999999999996,-0.8999999999999997,0.854766800381037,0.8999999999999997,-0.8675712483994711,low,high,,ISIC_3898738.JPG,,ISIC_9640145.JPG,29,false,hl,keypress(j),0,true,448398,448397.90000000596,439015.465,439020.90000000596,439031.983,448415.753,1,40,5,
sequence,flow.Sequence,8_4,2023-11-15T16:42:26.673Z,,,,,,,,,,9365.917000005953,completion,,,,,,,low,high,,,,,,false,,,,true,448398.10000000894,448397.90000000596,439015.465,439020.90000000596,439031.983,448415.753,1,40,,
trial,html.Screen,8_5_0,2023-11-15T16:42:32.400Z,,,,2,-0.0703653376600499,0.0206740478999942,,false,hl,5709.547000011895,response,0.8140398867745896,0.8499999999999996,-0.9499999999999997,-0.6934224282808171,0.9499999999999997,-0.8675712483994711,high,low,,ISIC_4899386.JPG,,ISIC_7196249.JPG,53,false,hh,keypress(i),0,true,454125.3000000119,454125.3000000119,448381.828,448398.200000003,448415.753,454131.979,1,40,6,
sequence,flow.Sequence,8_5,2023-11-15T16:42:32.400Z,,,,,,,,,,5709.547000011895,completion,,,,,,,high,low,,,,,,false,,,,true,454125.5,454125.3000000119,448381.828,448398.200000003,448415.753,454131.979,1,40,,
trial,html.Screen,8_6_0,2023-11-15T16:42:40.154Z,,,,2,0.0632965338582772,0.0107588824722911,,false,hh,7746.921000005968,response,0.6821570094055024,0.8499999999999996,-0.9499999999999997,0.8687142335802313,0.9499999999999997,-0.9175712483994711,high,high,,ISIC_1265755.JPG,,ISIC_3610783.JPG,183,false,lh,keypress(e),0,true,461879.10000000894,461878.90000000596,454115.185,454125.5,454131.979,461881.966,1,40,7,
sequence,flow.Sequence,8_6,2023-11-15T16:42:40.154Z,,,,,,,,,,7746.921000005968,completion,,,,,,,high,high,,,,,,false,,,,true,461879.5,461878.90000000596,454115.185,454125.5,454131.979,461881.966,1,40,,
trial,html.Screen,8_7_0,2023-11-15T16:42:50.649Z,,,,2,-0.0572065166118795,0.0247840126545907,,false,ll,10492.634000008926,response,-0.8443539935286377,0.8999999999999997,-0.9499999999999997,-0.8083712509772605,0.9499999999999997,-0.9175712483994711,low,low,,ISIC_0024565.JPG,,ISIC_1072321.JPG,143,false,lh,keypress(e),0,true,472375,472374.60000000894,461865.219,461879.8000000119,461881.966,472381.869,1,40,8,
sequence,flow.Sequence,8_7,2023-11-15T16:42:50.650Z,,,,,,,,,,10492.634000008926,completion,,,,,,,low,low,,,,,,false,,,,true,472375.3000000119,472374.60000000894,461865.219,461879.700000003,461881.966,472381.869,1,40,,
trial,html.Screen,8_8_0,2023-11-15T16:42:58.546Z,,,,2,-0.0572065166118795,0.0247840126545907,,true,hh,7888.431000011915,response,0.8679614460736003,0.8999999999999997,-0.9499999999999997,0.9273061036826674,0.9499999999999997,-0.9675712483994712,high,high,,ISIC_0024565.JPG,,ISIC_9955163.JPG,175,false,hh,keypress(i),0,true,480270.5,480270.3000000119,472365.091,472375.5,472381.869,480281.851,1,40,9,
sequence,flow.Sequence,8_8,2023-11-15T16:42:58.547Z,,,,,,,,,,7888.431000011915,completion,,,,,,,high,high,,,,,,false,,,,true,480270.90000000596,480270.3000000119,472365.091,472375.40000000596,472381.869,480281.851,1,40,,
trial,html.Screen,8_9_0,2023-11-15T16:43:01.067Z,,,,2,0.0010920693448107,0.0492408806128631,,false,hh,2508.849000002956,response,0.7703115346624738,0.8999999999999997,-0.9499999999999997,0.6485110660078686,0.8476337748781337,-0.9675712483994712,high,high,,ISIC_6155981.JPG,,ISIC_6561111.JPG,190,false,hl,keypress(j),0,true,482791,482790.700000003,480265.199,480271,480281.851,482798.564,1,40,10,
sequence,flow.Sequence,8_9,2023-11-15T16:43:01.067Z,,,,,,,,,,2508.849000002956,completion,,,,,,,high,high,,,,,,false,,,,true,482791.3000000119,482790.700000003,480265.199,480271,480281.851,482798.564,1,40,,
trial,html.Screen,8_10_0,2023-11-15T16:43:05.209Z,,,,2,-0.0634150092059303,0.0177502973253611,,true,lh,4134.435999999987,response,-0.989300717252516,0.769136490368037,-0.9499999999999997,0.7908280206937478,0.8976337748781338,-0.9675712483994712,low,high,,ISIC_0032433.JPG,,ISIC_6416533.JPG,24,false,lh,keypress(e),0,true,486933.200000003,486933,482782.051,482791.60000000894,482798.564,486948.583,1,40,11,
sequence,flow.Sequence,8_10,2023-11-15T16:43:05.209Z,,,,,,,,,,4134.435999999987,completion,,,,,,,low,high,,,,,,false,,,,true,486933.200000003,486933,482782.051,482791.40000000596,482798.564,486948.583,1,40,,
trial,html.Screen,8_11_0,2023-11-15T16:43:10.497Z,,,,2,-0.0105349256029223,0.0723574625425557,,false,ll,5272.317000005976,response,-0.979674241817633,0.769136490368037,-0.8999999999999997,-0.8567251746816678,0.8976337748781338,-0.9675712483994712,low,low,,ISIC_0058998.JPG,,ISIC_0006757.JPG,149,false,lh,keypress(e),0,true,492220.90000000596,492220.90000000596,486931.962,486933.200000003,486948.583,492231.822,1,40,12,
sequence,flow.Sequence,8_11,2023-11-15T16:43:10.497Z,,,,,,,,,,5272.317000005976,completion,,,,,,,low,low,,,,,,false,,,,true,492221.10000000894,492220.90000000596,486931.962,486933.200000003,486948.583,492231.822,1,40,,
trial,html.Screen,8_12_0,2023-11-15T16:43:16.203Z,,,,2,-0.0220026381002083,0.0170756452911772,,false,hl,5694.778000008955,response,0.7629099401226335,0.769136490368037,-0.8999999999999997,-0.8515956627075536,0.8976337748781338,-1.0175712483994712,high,low,,ISIC_5347806.JPG,,ISIC_0028718.JPG,39,false,ll,keypress(f),0,true,497926.90000000596,497926.60000000894,492215.239,492221.10000000894,492231.822,497931.796,1,40,13,
sequence,flow.Sequence,8_12,2023-11-15T16:43:16.203Z,,,,,,,,,,5694.778000008955,completion,,,,,,,high,low,,,,,,false,,,,true,497927.200000003,497926.60000000894,492215.239,492221.10000000894,492231.822,497931.796,1,40,,
trial,html.Screen,8_13_0,2023-11-15T16:43:22.882Z,,,,2,0.0374659946425444,0.0086043094957617,,false,hh,6674.804000008968,response,0.6743283542161748,0.819136490368037,-0.8999999999999997,1.0095781284358312,0.8976337748781338,-1.0175712483994712,high,high,,ISIC_0033051.JPG,,ISIC_0033232.JPG,206,false,hl,keypress(j),0,true,504606.8000000119,504606.60000000894,497915.146,497927.40000000596,497931.796,504615.139,1,40,14,
sequence,flow.Sequence,8_13,2023-11-15T16:43:22.883Z,,,,,,,,,,6674.804000008968,completion,,,,,,,high,high,,,,,,false,,,,true,504607.10000000894,504606.60000000894,497915.146,497927.40000000596,497931.796,504615.139,1,40,,
trial,html.Screen,8_14_0,2023-11-15T16:43:25.010Z,,,,2,0.049790040126711,-0.0195291725171472,,true,hl,2119.261000005936,response,1.0116417541846066,0.819136490368037,-0.8999999999999997,-1.033442916947398,0.9476337748781338,-1.0175712483994712,high,low,,ISIC_0372902.JPG,,ISIC_0031389.JPG,35,false,hl,keypress(j),0,true,506734.700000003,506734.40000000596,504598.421,504607.200000003,504615.139,506748.598,1,40,15,
sequence,flow.Sequence,8_14,2023-11-15T16:43:25.011Z,,,,,,,,,,2119.261000005936,completion,,,,,,,high,low,,,,,,false,,,,true,506735.10000000894,506734.40000000596,504598.421,504607.10000000894,504615.139,506748.598,1,40,,
trial,html.Screen,8_15_0,2023-11-15T16:43:27.186Z,,,,2,-0.0586798548295751,0.0060040805764433,,true,hl,2161.5020000089426,response,0.9089402323867112,0.769136490368037,-0.8999999999999997,-0.8034544077281132,0.9476337748781338,-0.9675712483994712,high,low,,ISIC_1552232.JPG,,ISIC_3585381.JPG,52,false,hl,keypress(j),0,true,508910.40000000596,508910.10000000894,506731.906,506735.3000000119,506748.598,508915.098,1,40,16,
sequence,flow.Sequence,8_15,2023-11-15T16:43:27.186Z,,,,,,,,,,2161.5020000089426,completion,,,,,,,high,low,,,,,,false,,,,true,508910.8000000119,508910.10000000894,506731.906,506735.200000003,506748.598,508915.098,1,40,,
trial,html.Screen,8_16_0,2023-11-15T16:43:29.450Z,,,,2,0.0629648527969799,-0.0694960898867798,,false,ll,2259.0020000089426,response,-0.8379442136072591,0.769136490368037,-0.8999999999999997,-0.8260692529258827,0.9476337748781338,-0.9675712483994712,low,low,,ISIC_0025597.JPG,,ISIC_0013213.JPG,149,false,hl,keypress(j),0,true,511174.40000000596,511174.10000000894,508898.45,508911,508915.098,511181.827,1,40,17,
sequence,flow.Sequence,8_16,2023-11-15T16:43:29.450Z,,,,,,,,,,2259.0020000089426,completion,,,,,,,low,low,,,,,,false,,,,true,511174.700000003,511174.10000000894,508898.45,508911,508915.098,511181.827,1,40,,
trial,html.Screen,8_17_0,2023-11-15T16:43:34.626Z,,,,2,-0.0464691161264081,-0.0535296539628673,,false,hh,5168.473000011931,response,0.7442210668746905,0.769136490368037,-0.9499999999999997,1.0149619004779185,0.9476337748781338,-0.7647618303269978,high,high,,ISIC_0758797.JPG,,ISIC_7373074.JPG,207,false,lh,keypress(e),0,true,516350.5,516350.3000000119,511165.233,511174.90000000596,511181.827,516365.106,1,40,18,
sequence,flow.Sequence,8_17,2023-11-15T16:43:34.627Z,,,,,,,,,,5168.473000011931,completion,,,,,,,high,high,,,,,,false,,,,true,516350.90000000596,516350.3000000119,511165.233,511174.90000000596,511181.827,516365.106,1,40,,
trial,html.Screen,8_18_0,2023-11-15T16:43:41.787Z,,,,2,0.0418938536494534,-0.0678614270583654,,true,ll,7145.893999999971,response,-1.0792571418874513,0.819136490368037,-0.9499999999999997,-0.6719969524833546,0.9476337748781338,-0.7647618303269978,low,low,,ISIC_0027573.JPG,,ISIC_0013688.JPG,199,false,ll,keypress(f),0,true,523511.3000000119,523511,516348.517,516351,516365.106,523515.086,1,40,19,
sequence,flow.Sequence,8_18,2023-11-15T16:43:41.787Z,,,,,,,,,,7145.893999999971,completion,,,,,,,low,low,,,,,,false,,,,true,523511.60000000894,523511,516348.517,516351,516365.106,523515.086,1,40,,
trial,html.Screen,8_19_0,2023-11-15T16:43:46.818Z,,,,2,-0.0718464495991687,0.0429653518314044,,true,hh,5027.31400000595,response,0.8932499910364976,0.819136490368037,-0.9499999999999997,1.0367498890350624,0.9476337748781338,-0.7647618303269978,high,high,,ISIC_0028597.JPG,,ISIC_0030106.JPG,190,false,hh,keypress(i),0,true,528542.700000003,528542.400000006,523498.336,523511.8000000119,523515.086,528548.358,1,40,20,
sequence,flow.Sequence,8_19,2023-11-15T16:43:46.819Z,,,,,,,,,,5027.31400000595,completion,,,,,,,high,high,,,,,,false,,,,true,528543.1000000089,528542.400000006,523498.336,523511.8000000119,523515.086,528548.358,1,40,,
trial,html.Screen,8_20_0,2023-11-15T16:43:51.194Z,,,,2,0.0426957918502628,0.044166030546046,,true,hl,4369.842000002973,response,1.0099417584598938,0.819136490368037,-0.9499999999999997,-0.6898515052486707,0.91499994003578,-0.7647618303269978,high,low,,ISIC_4649440.JPG,,ISIC_8929288.JPG,76,false,hl,keypress(j),0,true,532918.5,532918.200000003,528531.552,528543.3000000119,528548.358,532931.971,1,40,21,
sequence,flow.Sequence,8_20,2023-11-15T16:43:51.195Z,,,,,,,,,,4369.842000002973,completion,,,,,,,high,low,,,,,,false,,,,true,532918.900000006,532918.200000003,528531.552,528543.3000000119,528548.358,532931.971,1,40,,
trial,html.Screen,8_21_0,2023-11-15T16:43:53.428Z,,,,2,0.045779466401051,0.0137769797231127,,false,ll,2218.429000005941,response,-1.0852045470239868,0.769136490368037,-0.9499999999999997,-0.8198446376049053,0.91499994003578,-0.7147618303269978,low,low,,ISIC_0000504.JPG,,ISIC_1805921.JPG,216,false,hl,keypress(j),0,true,535150.6000000089,535150.400000006,532915.084,532919,532931.971,535165.293,1,40,22,
sequence,flow.Sequence,8_21,2023-11-15T16:43:53.428Z,,,,,,,,,,2218.429000005941,completion,,,,,,,low,low,,,,,,false,,,,true,535151,535150.400000006,532915.084,532919,532931.971,535165.293,1,40,,
trial,html.Screen,8_22_0,2023-11-15T16:43:56.002Z,,,,2,-0.0105349256029223,0.0723574625425557,,true,lh,2559.807000008994,response,-0.8719231363109603,0.769136490368037,-0.9999999999999998,0.7704280220140033,0.91499994003578,-0.7147618303269978,low,high,,ISIC_0058998.JPG,,ISIC_0029453.JPG,20,false,lh,keypress(e),0,true,537725.200000003,537725.1000000089,535148.475,535151.200000003,535165.293,537731.818,1,40,23,
sequence,flow.Sequence,8_22,2023-11-15T16:43:56.002Z,,,,,,,,,,2559.807000008994,completion,,,,,,,low,high,,,,,,false,,,,true,537725.3000000119,537725.1000000089,535148.475,535151.1000000089,535165.293,537731.818,1,40,,
trial,html.Screen,8_23_0,2023-11-15T16:44:05.165Z,,,,2,0.0528688218207886,-0.0356788458032396,,true,lh,9155.48200001195,response,-0.8075741539776473,0.769136490368037,-0.9999999999999998,0.7326891894107508,0.91499994003578,-0.7147618303269978,low,high,,ISIC_5287748.JPG,,ISIC_3428523.JPG,20,false,lh,keypress(e),0,true,546887.700000003,546887.3000000119,537715.199,537725.3000000119,537731.818,546898.331,1,40,24,
sequence,flow.Sequence,8_23,2023-11-15T16:44:05.165Z,,,,,,,,,,9155.48200001195,completion,,,,,,,low,high,,,,,,false,,,,true,546888.1000000089,546887.3000000119,537715.199,537725.3000000119,537731.818,546898.331,1,40,,
trial,html.Screen,8_24_0,2023-11-15T16:44:13.307Z,,,,2,0.0497314815986203,-0.0303374618795786,,true,hh,8131.668999999994,response,0.83908930219658,0.769136490368037,-0.9499999999999997,0.520025241344202,0.701558605712377,-0.7147618303269978,high,high,,ISIC_6023504.JPG,,ISIC_2310935.JPG,283,false,hh,keypress(i),0,true,555030.3000000119,555030,546881.635,546888.3000000119,546898.331,555049.598,1,40,25,
sequence,flow.Sequence,8_24,2023-11-15T16:44:13.307Z,,,,,,,,,,8131.668999999994,completion,,,,,,,high,high,,,,,,false,,,,true,555030.400000006,555030,546881.635,546888.3000000119,546898.331,555049.598,1,40,,
trial,html.Screen,8_25_0,2023-11-15T16:44:17.204Z,,,,2,-0.07101539702336,0.0351358305415709,,false,lh,3877.702000011923,response,-0.9136649719060708,0.769136490368037,-0.9499999999999997,0.6197574551927956,0.701558605712377,-0.7147618303269978,low,high,,ISIC_0033279.JPG,,ISIC_6297317.JPG,46,false,hh,keypress(i),0,true,558927.5,558927.3000000119,555014.77,555030.5,555049.598,558931.652,1,40,26,
sequence,flow.Sequence,8_25,2023-11-15T16:44:17.205Z,,,,,,,,,,3877.702000011923,completion,,,,,,,low,high,,,,,,false,,,,true,558928,558927.3000000119,555014.77,555030.5,555049.598,558931.652,1,40,,
trial,html.Screen,8_26_0,2023-11-15T16:44:22.179Z,,,,2,-0.0544036313884697,-0.0564516462775647,,false,ll,4970.648000011919,response,-1.0212529379514277,0.769136490368037,-0.9999999999999998,-0.5716216093232688,0.5198913482684988,-0.7147618303269978,low,low,,ISIC_7441957.JPG,,ISIC_0004352.JPG,206,false,hl,keypress(j),0,true,563902.6000000089,563902.3000000119,558914.924,558928.200000003,558931.652,563915.181,1,40,27,
sequence,flow.Sequence,8_26,2023-11-15T16:44:22.180Z,,,,,,,,,,4970.648000011919,completion,,,,,,,low,low,,,,,,false,,,,true,563903,563902.3000000119,558914.924,558928.1000000089,558931.652,563915.181,1,40,,
trial,html.Screen,8_27_0,2023-11-15T16:44:23.947Z,,,,2,-0.0249297455748133,0.055986418955019,,true,hl,1754.8190000000177,response,0.7305475296009624,0.769136490368037,-1.0499999999999998,-0.7442779237098178,0.5198913482684988,-0.6647618303269978,high,low,,ISIC_3900049.JPG,,ISIC_7266604.JPG,107,false,hl,keypress(j),0,true,565670.3000000119,565670,563898.154,563903.200000003,563915.181,565681.697,1,40,28,
sequence,flow.Sequence,8_27,2023-11-15T16:44:23.948Z,,,,,,,,,,1754.8190000000177,completion,,,,,,,high,low,,,,,,false,,,,true,565670.6000000089,565670,563898.154,563903.200000003,563915.181,565681.697,1,40,,
trial,html.Screen,8_28_0,2023-11-15T16:44:25.891Z,,,,2,-0.0464691161264081,-0.0535296539628673,,false,ll,1932.403000008897,response,-1.050296713894645,0.719136490368037,-1.0499999999999998,-0.7298062539603102,0.5198913482684988,-0.6647618303269978,low,low,,ISIC_0758797.JPG,,ISIC_5409902.JPG,190,false,hl,keypress(j),0,true,567614.3000000119,567614.1000000089,565664.893,565670.900000006,565681.697,567631.859,1,40,29,
sequence,flow.Sequence,8_28,2023-11-15T16:44:25.892Z,,,,,,,,,,1932.403000008897,completion,,,,,,,low,low,,,,,,false,,,,true,567614.700000003,567614.1000000089,565664.893,565670.8000000119,565681.697,567631.859,1,40,,
trial,html.Screen,8_29_0,2023-11-15T16:44:28.692Z,,,,2,0.0273855825278348,-0.0566295048930719,,false,ll,2782.640999999945,response,-1.1955547068476309,0.719136490368037,-1.0999999999999999,-0.5186228059809811,0.5198913482684988,-0.6870420888350639,low,low,,ISIC_0000141.JPG,,ISIC_4529363.JPG,162,false,hl,keypress(j),0,true,570414.700000003,570414.5,567615.186,567614.900000006,567631.859,570431.867,1,40,30,
sequence,flow.Sequence,8_29,2023-11-15T16:44:28.692Z,,,,,,,,,,2782.640999999945,completion,,,,,,,low,low,,,,,,false,,,,true,570415.1000000089,570414.5,567615.186,567614.900000006,567631.859,570431.867,1,40,,
trial,html.Screen,8_30_0,2023-11-15T16:44:34.699Z,,,,2,-0.0258224118104549,0.0029364553353019,,false,lh,5990.233000008971,response,-0.9601922181563564,0.719136490368037,-1.15,0.5629017109001282,0.5198913482684988,-0.6870420888350639,low,high,,ISIC_8325226.JPG,,ISIC_3623368.JPG,37,false,ll,keypress(f),0,true,576422.400000006,576422.1000000089,570415.104,570415.3000000119,570431.867,576431.645,1,40,31,
sequence,flow.Sequence,8_30,2023-11-15T16:44:34.700Z,,,,,,,,,,5990.233000008971,completion,,,,,,,low,high,,,,,,false,,,,true,576422.8000000119,576422.1000000089,570415.104,570415.3000000119,570431.867,576431.645,1,40,,
trial,html.Screen,8_31_0,2023-11-15T16:44:39.156Z,,,,2,0.0395587463147856,-0.0645068093068572,,false,hh,4446.854999999981,response,0.9089083807314456,0.719136490368037,-1.15,0.635410285078461,0.5698913482684989,-0.6870420888350639,high,high,,ISIC_0010807.JPG,,ISIC_0032671.JPG,323,false,hl,keypress(j),0,true,580878.700000003,580878.5,576414.815,576423,576431.645,580881.601,1,40,32,
sequence,flow.Sequence,8_31,2023-11-15T16:44:39.156Z,,,,,,,,,,4446.854999999981,completion,,,,,,,high,high,,,,,,false,,,,true,580879.1000000089,580878.5,576414.815,576422.900000006,576431.645,580881.601,1,40,,
trial,html.Screen,8_32_0,2023-11-15T16:44:42.123Z,,,,2,0.0527477970410472,0.0575970798158164,,true,lh,2964.6990000118967,response,-0.989300717252516,0.719136490368037,-1.15,0.7908280206937478,0.6198913482684989,-0.6870420888350639,low,high,,ISIC_0667763.JPG,,ISIC_6416533.JPG,31,false,lh,keypress(e),0,true,583846.5,583846.3000000119,580865.044,580879.400000006,580881.601,583865.515,1,40,33,
sequence,flow.Sequence,8_32,2023-11-15T16:44:42.124Z,,,,,,,,,,2964.6990000118967,completion,,,,,,,low,high,,,,,,false,,,,true,583847,583846.3000000119,580865.044,580879.3000000119,580881.601,583865.515,1,40,,
trial,html.Screen,8_33_0,2023-11-15T16:44:45.675Z,,,,2,-0.0267918352484299,-0.0630167830859455,,false,lh,3532.5850000089267,response,-0.956249665010775,0.719136490368037,-1.0999999999999999,0.454616136822416,0.6198913482684989,-0.6870420888350639,low,high,,ISIC_0064874.JPG,,ISIC_8626787.JPG,42,false,hl,keypress(j),0,true,587398.3000000119,587398.1000000089,583831.608,583847.200000003,583865.515,587415.067,1,40,34,
sequence,flow.Sequence,8_33,2023-11-15T16:44:45.676Z,,,,,,,,,,3532.5850000089267,completion,,,,,,,low,high,,,,,,false,,,,true,587398.700000003,587398.1000000089,583831.608,583847.1000000089,583865.515,587415.067,1,40,,
trial,html.Screen,8_34_0,2023-11-15T16:44:48.772Z,,,,2,0.0010920693448107,0.0492408806128631,,true,lh,3079.432999999961,response,-1.3046390428588206,0.719136490368037,-1.15,0.7942099232219556,0.6698913482684989,-0.6870420888350639,low,high,,ISIC_6155981.JPG,,ISIC_0013096.JPG,26,false,lh,keypress(e),0,true,590494.8000000119,590494.5,587398.258,587398.900000006,587415.067,590498.205,1,40,35,
sequence,flow.Sequence,8_34,2023-11-15T16:44:48.772Z,,,,,,,,,,3079.432999999961,completion,,,,,,,low,high,,,,,,false,,,,true,590495.200000003,590494.5,587398.258,587398.900000006,587415.067,590498.205,1,40,,
trial,html.Screen,8_35_0,2023-11-15T16:44:54.037Z,,,,2,0.0145962222125655,0.0525495878509009,,false,hh,5260.295000000042,response,0.6522987796648678,0.719136490368037,-1.15,0.6198420380860269,0.6698913482684989,-0.6870420888350639,high,high,,ISIC_4248013.JPG,,ISIC_0000002.JPG,302,false,lh,keypress(e),0,true,595758.700000003,595758.5,590481.634,590495.3000000119,590498.205,595764.851,1,40,36,
sequence,flow.Sequence,8_35,2023-11-15T16:44:54.037Z,,,,,,,,,,5260.295000000042,completion,,,,,,,high,high,,,,,,false,,,,true,595759.1000000089,595758.5,590481.634,590495.3000000119,590498.205,595764.851,1,40,,
trial,html.Screen,8_36_0,2023-11-15T16:45:00.453Z,,,,2,-0.0367744112927588,-0.0324865661712824,,true,hh,6409.349000002956,response,0.9244658776825396,0.769136490368037,-1.15,0.6582725813734679,0.6570259806539912,-0.6870420888350639,high,high,,ISIC_4523565.JPG,,ISIC_0030833.JPG,292,false,hh,keypress(i),0,true,602174.400000006,602174.200000003,595748.133,595759.3000000119,595764.851,602181.513,1,40,37,
sequence,flow.Sequence,8_36,2023-11-15T16:45:00.453Z,,,,,,,,,,6409.349000002956,completion,,,,,,,high,high,,,,,,false,,,,true,602174.900000006,602174.200000003,595748.133,595759.3000000119,595764.851,602181.513,1,40,,
trial,html.Screen,8_37_0,2023-11-15T16:45:02.747Z,,,,2,0.0074667911845194,-0.018500200317654,,false,ll,2287.0870000089053,response,-0.99244133795476,0.769136490368037,-1.15,-0.6426572340900992,0.6570259806539912,-0.6870420888350639,low,low,,ISIC_0058723.JPG,,ISIC_4837536.JPG,136,false,hl,keypress(j),0,true,604468.700000003,604468.6000000089,602164.878,602175,602181.513,604481.506,1,40,38,
sequence,flow.Sequence,8_37,2023-11-15T16:45:02.747Z,,,,,,,,,,2287.0870000089053,completion,,,,,,,low,low,,,,,,false,,,,true,604468.900000006,604468.6000000089,602164.878,602175,602181.513,604481.506,1,40,,
trial,html.Screen,8_38_0,2023-11-15T16:45:07.309Z,,,,2,0.049790040126711,-0.0195291725171472,,true,ll,4548.894000005908,response,-0.9854871691490024,0.769136490368037,-1.15,-0.4880944080664786,0.6570259806539912,-0.6370420888350639,low,low,,ISIC_0372902.JPG,,ISIC_6828892.JPG,143,false,ll,keypress(f),0,true,609030.700000003,609030.400000006,604465.029,604468.900000006,604481.506,609048.321,1,40,39,
sequence,flow.Sequence,8_38,2023-11-15T16:45:07.309Z,,,,,,,,,,4548.894000005908,completion,,,,,,,low,low,,,,,,false,,,,true,609031.3000000119,609030.400000006,604465.029,604468.900000006,604481.506,609048.321,1,40,,
trial,html.Screen,8_39_0,2023-11-15T16:45:11.133Z,,,,2,-0.068830656047477,0.0471494209282208,,true,hl,3806.2790000089444,response,0.6564878592729257,0.769136490368037,-1.15,-0.5036333498951387,0.6570259806539912,-0.6370420888350639,high,low,,ISIC_0029982.JPG,,ISIC_8957571.JPG,108,false,hl,keypress(j),0,true,612854.900000006,612854.6000000089,609031.617,609031.400000006,609048.321,612864.906,1,40,40,
sequence,flow.Sequence,8_39,2023-11-15T16:45:11.133Z,,,,,,,,,,3806.2790000089444,completion,,,,,,,high,low,,,,,,false,,,,true,612855.3000000119,612854.6000000089,609031.617,609031.3000000119,609048.321,612864.906,1,40,,
stair_loop,flow.Loop,8,2023-11-15T16:45:11.134Z,,,,,,,,,,200205.84400000895,completion,,,,,,,,,,,,,,false,,,,true,612855.400000006,612854.6000000089,412632.293,412636.90000000596,412648.756,612864.906,1,40,,
exp_instructions,html.Screen,9,2023-11-15T16:45:26.276Z,,,,,,,,,,15132.794000003021,response,,,,,,,,,,,,,,,continue,keypress(Space),,,627998.3000000119,627997.700000003,612848.052,612855.5,612864.906,628014.82,,,,
trial,html.Screen,10_0_0,2023-11-15T16:45:29.325Z,,,,1,0.0198696495649504,-0.0387952353063878,,false,hh,3032.180000000051,response,0.8706540396413559,0.751636490368037,-1.0724999999999996,0.8221719983776423,0.6720067188434413,-0.6920159725064339,high,high,,ISIC_6735970.JPG,8,ISIC_0067953.JPG,295,false,lh,keypress(e),0,false,631047.3000000119,631047,627997.611,627998.5,628014.82,631065.046,4,500,1,
break,html.Screen,10_0_1,2023-11-15T16:45:29.327Z,,,,,,,,,,NaN,,,,,,,,high,high,,,,,,false,,,,false,631048.700000003,631048.3000000119,,631047.6000000089,,631065.046,4,500,,
break_continue,html.Screen,10_0_2,2023-11-15T16:45:29.328Z,,,,,,,,,,NaN,,,,,,,,high,high,,,,,,false,,,,false,631049.8000000119,631049.3000000119,,631048.900000006,,631065.046,4,500,,
sequence,flow.Sequence,10_0,2023-11-15T16:45:29.328Z,,,,,,,,,,3034.480000011972,completion,,,,,,,high,high,,,,,,false,,,,false,631050.1000000089,631049.3000000119,627997.611,627998.5,628014.82,631065.046,4,500,,
trial,html.Screen,10_1_0,2023-11-15T16:45:32.893Z,,,,1,-0.0085390023861227,-0.051110950799465,,true,hl,3549.5540000089677,response,0.6190335776234047,0.751636490368037,-1.0724999999999996,-0.8453960620203218,0.6720067188434413,-0.6920159725064339,high,low,,ISIC_6268546.JPG,10,ISIC_6618652.JPG,102,false,hl,keypress(j),0,false,634614.900000006,634614.6000000089,631048.103,631050.200000003,631065.046,634631.69,4,500,2,
break,html.Screen,10_1_1,2023-11-15T16:45:32.894Z,,,,,,,,,,NaN,,,,,,,,high,low,,,,,,false,,,,false,634615.900000006,634615.6000000089,,634615.200000003,,634631.69,4,500,,
break_continue,html.Screen,10_1_2,2023-11-15T16:45:32.895Z,,,,,,,,,,NaN,,,,,,,,high,low,,,,,,false,,,,false,634616.8000000119,634616.5,,634616.200000003,,634631.69,4,500,,
sequence,flow.Sequence,10_1,2023-11-15T16:45:32.895Z,,,,,,,,,,3551.454000000027,completion,,,,,,,high,low,,,,,,false,,,,false,634617,634616.5,631048.103,631050.200000003,631065.046,634631.69,4,500,,
trial,html.Screen,10_2_0,2023-11-15T16:45:36.139Z,,,,1,0.0123274848503577,-0.0516828290734233,,true,hl,3229.2100000060163,response,0.6247480605482788,0.751636490368037,-1.0724999999999996,-0.7543386176997238,0.6720067188434413,-0.6920159725064339,high,low,,ISIC_0056790.JPG,9,ISIC_5776158.JPG,102,false,hl,keypress(j),0,false,637861,637860.900000006,634614.832,634617.3000000119,634631.69,637864.723,4,500,3,
break,html.Screen,10_2_1,2023-11-15T16:45:36.139Z,,,,,,,,,,NaN,,,,,,,,high,low,,,,,,false,,,,false,637861.3000000119,637861.200000003,,637861.1000000089,,637864.723,4,500,,
break_continue,html.Screen,10_2_2,2023-11-15T16:45:36.140Z,,,,,,,,,,NaN,,,,,,,,high,low,,,,,,false,,,,false,637861.5,637861.400000006,,637861.400000006,,637864.723,4,500,,
sequence,flow.Sequence,10_2,2023-11-15T16:45:36.140Z,,,,,,,,,,3229.7100000060163,completion,,,,,,,high,low,,,,,,false,,,,false,637861.5,637861.400000006,634614.832,634617.200000003,634631.69,637864.723,4,500,,
trial,html.Screen,10_3_0,2023-11-15T16:45:41.341Z,,,,1,-0.0009714874637896,0.0174815595031679,,true,ll,5197.577000011923,response,-0.9867903749582616,0.751636490368037,-1.0724999999999996,-0.779537769597012,0.6720067188434413,-0.6920159725064339,low,low,,ISIC_9848743.JPG,9,ISIC_7168122.JPG,175,false,ll,keypress(f),0,false,643062.5,643062.3000000119,637848.27,637861.6000000089,637864.723,643064.755,4,500,4,
break,html.Screen,10_3_1,2023-11-15T16:45:41.342Z,,,,,,,,,,NaN,,,,,,,,low,low,,,,,,false,,,,false,643063.400000006,643063.1000000089,,643062.8000000119,,643064.755,4,500,,
break_continue,html.Screen,10_3_2,2023-11-15T16:45:41.342Z,,,,,,,,,,NaN,,,,,,,,low,low,,,,,,false,,,,false,643064.1000000089,643063.700000003,,643063.5,,643064.755,4,500,,
sequence,flow.Sequence,10_3,2023-11-15T16:45:41.342Z,,,,,,,,,,5198.977000002982,completion,,,,,,,low,low,,,,,,false,,,,false,643064.3000000119,643063.700000003,637848.27,637861.6000000089,637864.723,643064.755,4,500,,
trial,html.Screen,10_4_0,2023-11-15T16:45:47.204Z,,,,1,0.0088741920055285,0.0058246074740588,,false,hl,5861.244999999995,response,0.6181436781814378,0.751636490368037,-1.0724999999999996,-0.621332215027405,0.6720067188434413,-0.6920159725064339,high,low,,ISIC_4136663.JPG,10,ISIC_6446779.JPG,102,false,lh,keypress(e),0,false,648926.200000003,648926,643048.185,643064.5,643064.755,648931.381,4,500,5,
break,html.Screen,10_4_1,2023-11-15T16:45:47.205Z,,,,,,,,,,NaN,,,,,,,,high,low,,,,,,false,,,,false,648927.3000000119,648927.1000000089,,648926.700000003,,648931.381,4,500,,
break_continue,html.Screen,10_4_2,2023-11-15T16:45:47.206Z,,,,,,,,,,NaN,,,,,,,,high,low,,,,,,false,,,,false,648928,648927.700000003,,648927.5,,648931.381,4,500,,
sequence,flow.Sequence,10_4,2023-11-15T16:45:47.206Z,,,,,,,,,,5862.945000002976,completion,,,,,,,high,low,,,,,,false,,,,false,648928.3000000119,648927.700000003,643048.185,643064.5,643064.755,648931.381,4,500,,
trial,html.Screen,10_5_0,2023-11-15T16:45:51.630Z,,,,1,0.049790040126711,-0.0195291725171472,,true,hl,4418.7190000088885,response,0.7552468233268477,0.751636490368037,-1.0724999999999996,-0.71846037114465,0.6720067188434413,-0.6920159725064339,high,low,,ISIC_0372902.JPG,9,ISIC_2354070.JPG,102,false,hl,keypress(j),0,false,653350.3000000119,653350.1000000089,648914.662,648928.5,648931.381,653364.973,4,500,6,
break,html.Screen,10_5_1,2023-11-15T16:45:51.631Z,,,,,,,,,,NaN,,,,,,,,high,low,,,,,,false,,,,false,653351.3000000119,653351.1000000089,,653350.6000000089,,653364.973,4,500,,
break_continue,html.Screen,10_5_2,2023-11-15T16:45:51.631Z,,,,,,,,,,NaN,,,,,,,,high,low,,,,,,false,,,,false,653351.900000006,653351.6000000089,,653351.5,,653364.973,4,500,,
sequence,flow.Sequence,10_5,2023-11-15T16:45:51.631Z,,,,,,,,,,4420.2190000088885,completion,,,,,,,high,low,,,,,,false,,,,false,653352.200000003,653351.6000000089,648914.662,648928.400000006,648931.381,653364.973,4,500,,
trial,html.Screen,10_6_0,2023-11-15T16:45:58.550Z,,,,1,-0.0703653376600499,0.0206740478999942,,true,hl,6905.527000000002,response,0.8614910030038974,0.751636490368037,-1.0724999999999996,-0.5424376287341109,0.6720067188434413,-0.6920159725064339,high,low,,ISIC_4899386.JPG,9,ISIC_0013731.JPG,102,false,hl,keypress(j),0,false,660270.8000000119,660270.5,653348.164,653352.3000000119,653364.973,660281.383,4,500,7,
break,html.Screen,10_6_1,2023-11-15T16:45:58.551Z,,,,,,,,,,NaN,,,,,,,,high,low,,,,,,false,,,,false,660271.8000000119,660271.5,,660271.1000000089,,660281.383,4,500,,
break_continue,html.Screen,10_6_2,2023-11-15T16:45:58.552Z,,,,,,,,,,NaN,,,,,,,,high,low,,,,,,false,,,,false,660272.5,660272.1000000089,,660271.900000006,,660281.383,4,500,,
sequence,flow.Sequence,10_6,2023-11-15T16:45:58.552Z,,,,,,,,,,6907.127000008943,completion,,,,,,,high,low,,,,,,false,,,,false,660272.8000000119,660272.1000000089,653348.164,653352.3000000119,653364.973,660281.383,4,500,,
trial,html.Screen,10_7_0,2023-11-15T16:46:04.926Z,,,,1,-0.0715931084231032,0.011427878877272,,true,hl,6364.8170000029495,response,0.758257221901971,0.751636490368037,-1.0724999999999996,-0.538798684617275,0.6720067188434413,-0.6920159725064339,high,low,,ISIC_1470250.JPG,10,ISIC_0066379.JPG,102,false,hl,keypress(j),0,false,666646.400000006,666646.200000003,660264.826,660272.900000006,660281.383,666665.292,4,500,8,
break,html.Screen,10_7_1,2023-11-15T16:46:04.927Z,,,,,,,,,,NaN,,,,,,,,high,low,,,,,,false,,,,false,666647.400000006,666647.200000003,,666646.700000003,,666665.292,4,500,,
break_continue,html.Screen,10_7_2,2023-11-15T16:46:04.927Z,,,,,,,,,,NaN,,,,,,,,high,low,,,,,,false,,,,false,666648.1000000089,666647.8000000119,,666647.6000000089,,666665.292,4,500,,
sequence,flow.Sequence,10_7,2023-11-15T16:46:04.928Z,,,,,,,,,,6366.41700001189,completion,,,,,,,high,low,,,,,,false,,,,false,666648.400000006,666647.8000000119,660264.826,660272.8000000119,660281.383,666665.292,4,500,,
trial,html.Screen,10_8_0,2023-11-15T16:46:12.989Z,,,,1,-0.0283578106329894,0.0088840758711548,,false,lh,8044.308000008925,response,-1.1644746776963744,0.751636490368037,-1.0724999999999996,0.5697903623298216,0.6720067188434413,-0.6920159725064339,low,high,,ISIC_0060707.JPG,10,ISIC_9193127.JPG,37,false,hh,keypress(i),0,false,674710,674709.6000000089,666631.36,666648.6000000089,666665.292,674714.699,4,500,9,
break,html.Screen,10_8_1,2023-11-15T16:46:12.990Z,,,,,,,,,,NaN,,,,,,,,low,high,,,,,,false,,,,false,674711,674710.6000000089,,674710.3000000119,,674714.699,4,500,,
break_continue,html.Screen,10_8_2,2023-11-15T16:46:12.991Z,,,,,,,,,,NaN,,,,,,,,low,high,,,,,,false,,,,false,674711.8000000119,674711.400000006,,674711.200000003,,674714.699,4,500,,
sequence,flow.Sequence,10_8,2023-11-15T16:46:12.991Z,,,,,,,,,,8046.108000005945,completion,,,,,,,low,high,,,,,,false,,,,false,674712,674711.400000006,666631.36,666648.6000000089,666665.292,674714.699,4,500,,
trial,html.Screen,10_9_0,2023-11-15T16:46:18.215Z,,,,1,0.0074667911845194,-0.018500200317654,,true,hh,5220.401000008918,response,0.5707395656232807,0.751636490368037,-1.0724999999999996,0.795616056833581,0.6720067188434413,-0.6920159725064339,high,high,,ISIC_0058723.JPG,10,ISIC_9754098.JPG,295,false,hh,keypress(i),0,false,679935.400000006,679935.1000000089,674697.88,674712.200000003,674714.699,679948.098,4,500,10,
break,html.Screen,10_9_1,2023-11-15T16:46:18.216Z,,,,,,,,,,NaN,,,,,,,,high,high,,,,,,false,,,,false,679936.400000006,679936.1000000089,,679935.700000003,,679948.098,4,500,,
break_continue,html.Screen,10_9_2,2023-11-15T16:46:18.216Z,,,,,,,,,,NaN,,,,,,,,high,high,,,,,,false,,,,false,679937.200000003,679936.8000000119,,679936.6000000089,,679948.098,4,500,,
sequence,flow.Sequence,10_9,2023-11-15T16:46:18.217Z,,,,,,,,,,5222.101000011899,completion,,,,,,,high,high,,,,,,false,,,,false,679937.5,679936.8000000119,674697.88,674712.1000000089,674714.699,679948.098,4,500,,
trial,html.Screen,10_10_0,2023-11-15T16:46:21.422Z,,,,1,0.0395587463147856,-0.0645068093068572,,true,hh,3193.902000000002,response,0.6089966038604951,0.751636490368037,-1.0724999999999996,0.8649242672115863,0.6720067188434413,-0.6920159725064339,high,high,,ISIC_0010807.JPG,9,ISIC_0027742.JPG,295,false,hh,keypress(i),0,false,683142.3000000119,683142,679931.393,679937.6000000089,679948.098,683147.925,4,500,11,
break,html.Screen,10_10_1,2023-11-15T16:46:21.422Z,,,,,,,,,,NaN,,,,,,,,high,high,,,,,,false,,,,false,683143.200000003,683142.900000006,,683142.6000000089,,683147.925,4,500,,
break_continue,html.Screen,10_10_2,2023-11-15T16:46:21.423Z,,,,,,,,,,NaN,,,,,,,,high,high,,,,,,false,,,,false,683143.900000006,683143.6000000089,,683143.400000006,,683147.925,4,500,,
sequence,flow.Sequence,10_10,2023-11-15T16:46:21.423Z,,,,,,,,,,3195.5020000089426,completion,,,,,,,high,high,,,,,,false,,,,false,683144.1000000089,683143.6000000089,679931.393,679937.6000000089,679948.098,683147.925,4,500,,
trial,html.Screen,10_11_0,2023-11-15T16:46:26.612Z,,,,1,-0.0700576547090477,0.0026956749740767,,false,ll,5184.675000008894,response,-1.050027838435074,0.751636490368037,-1.0724999999999996,-0.5232995735878929,0.6720067188434413,-0.6920159725064339,low,low,,ISIC_7212271.JPG,9,ISIC_7498132.JPG,175,false,hl,keypress(j),0,false,688332.6000000089,688332.6000000089,683131.355,683144.400000006,683147.925,688347.951,4,500,12,
break,html.Screen,10_11_1,2023-11-15T16:46:26.612Z,,,,,,,,,,NaN,,,,,,,,low,low,,,,,,false,,,,false,688332.900000006,688332.8000000119,,688332.700000003,,688347.951,4,500,,
break_continue,html.Screen,10_11_2,2023-11-15T16:46:26.612Z,,,,,,,,,,NaN,,,,,,,,low,low,,,,,,false,,,,false,688333.200000003,688333.1000000089,,688333.1000000089,,688347.951,4,500,,
sequence,flow.Sequence,10_11,2023-11-15T16:46:26.612Z,,,,,,,,,,5185.175000008894,completion,,,,,,,low,low,,,,,,false,,,,false,688333.3000000119,688333.1000000089,683131.355,683144.3000000119,683147.925,688347.951,4,500,,
trial,html.Screen,10_12_0,2023-11-15T16:46:29.335Z,,,,1,-0.0394300226801425,0.0536115913979284,,false,hh,2707.1490000089398,response,0.573572568589862,0.751636490368037,-1.0724999999999996,0.8515665900199182,0.6720067188434413,-0.6920159725064339,high,high,,ISIC_0046983.JPG,9,ISIC_0024967.JPG,295,false,lh,keypress(e),0,false,691055.400000006,691055.1000000089,688331.402,688333.3000000119,688347.951,691064.634,4,500,13,
break,html.Screen,10_12_1,2023-11-15T16:46:29.335Z,,,,,,,,,,NaN,,,,,,,,high,high,,,,,,false,,,,false,691056.3000000119,691056.1000000089,,691055.700000003,,691064.634,4,500,,
break_continue,html.Screen,10_12_2,2023-11-15T16:46:29.336Z,,,,,,,,,,NaN,,,,,,,,high,high,,,,,,false,,,,false,691056.900000006,691056.6000000089,,691056.400000006,,691064.634,4,500,,
sequence,flow.Sequence,10_12,2023-11-15T16:46:29.336Z,,,,,,,,,,2708.6490000089398,completion,,,,,,,high,high,,,,,,false,,,,false,691057.200000003,691056.6000000089,688331.402,688333.3000000119,688347.951,691064.634,4,500,,
trial,html.Screen,10_13_0,2023-11-15T16:46:31.902Z,,,,1,0.0527477970410472,0.0575970798158164,,true,lh,2557.666000011959,response,-1.0369885917487718,0.751636490368037,-1.0724999999999996,0.8486937878412699,0.6720067188434413,-0.6920159725064339,low,high,,ISIC_0667763.JPG,8,ISIC_6917681.JPG,37,false,lh,keypress(e),0,false,693622.5,693622.3000000119,691048.145,691057.3000000119,691064.634,693631.328,4,500,14,
break,html.Screen,10_13_1,2023-11-15T16:46:31.903Z,,,,,,,,,,NaN,,,,,,,,low,high,,,,,,false,,,,false,693623.6000000089,693623.3000000119,,693622.900000006,,693631.328,4,500,,
break_continue,html.Screen,10_13_2,2023-11-15T16:46:31.903Z,,,,,,,,,,NaN,,,,,,,,low,high,,,,,,false,,,,false,693624.3000000119,693624,,693623.700000003,,693631.328,4,500,,
sequence,flow.Sequence,10_13,2023-11-15T16:46:31.904Z,,,,,,,,,,2559.366000000038,completion,,,,,,,low,high,,,,,,false,,,,false,693624.5,693624,691048.145,691057.3000000119,691064.634,693631.328,4,500,,
trial,html.Screen,10_14_0,2023-11-15T16:46:34.620Z,,,,1,0.0603356922898045,0.0630785445312754,,true,lh,2709.272000008961,response,-1.1711869602302662,0.751636490368037,-1.0724999999999996,0.7434626355969514,0.6720067188434413,-0.6920159725064339,low,high,,ISIC_9996128.JPG,9,ISIC_0059052.JPG,37,false,lh,keypress(e),0,false,696340.700000003,696340.6000000089,693614.827,693624.700000003,693631.328,696348.075,4,500,15,
break,html.Screen,10_14_1,2023-11-15T16:46:34.620Z,,,,,,,,,,NaN,,,,,,,,low,high,,,,,,false,,,,false,696340.900000006,696340.900000006,,696340.8000000119,,696348.075,4,500,,
break_continue,html.Screen,10_14_2,2023-11-15T16:46:34.620Z,,,,,,,,,,NaN,,,,,,,,low,high,,,,,,false,,,,false,696341.1000000089,696341.1000000089,,696341,,696348.075,4,500,,
sequence,flow.Sequence,10_14,2023-11-15T16:46:34.620Z,,,,,,,,,,2709.772000008961,completion,,,,,,,low,high,,,,,,false,,,,false,696341.200000003,696341.1000000089,693614.827,693624.700000003,693631.328,696348.075,4,500,,
trial,html.Screen,10_15_0,2023-11-15T16:46:44.893Z,,,,1,0.0349011973222753,-0.065080527952874,,true,hh,10265.825000006007,response,0.7200546926039536,0.751636490368037,-1.0724999999999996,0.7206544552694351,0.6720067188434413,-0.6920159725064339,high,high,,ISIC_3898738.JPG,9,ISIC_7334117.JPG,295,false,hh,keypress(i),0,false,706614.1000000089,706613.900000006,696331.442,696341.200000003,696348.075,706631.279,4,500,16,
break,html.Screen,10_15_1,2023-11-15T16:46:44.894Z,,,,,,,,,,NaN,,,,,,,,high,high,,,,,,false,,,,false,706615,706614.8000000119,,706614.5,,706631.279,4,500,,
break_continue,html.Screen,10_15_2,2023-11-15T16:46:44.895Z,,,,,,,,,,NaN,,,,,,,,high,high,,,,,,false,,,,false,706615.700000003,706615.400000006,,706615.200000003,,706631.279,4,500,,
sequence,flow.Sequence,10_15,2023-11-15T16:46:44.895Z,,,,,,,,,,10267.325000006007,completion,,,,,,,high,high,,,,,,false,,,,false,706615.900000006,706615.400000006,696331.442,696341.200000003,696348.075,706631.279,4,500,,
trial,html.Screen,10_16_0,2023-11-15T16:46:50.237Z,,,,1,0.0586587895724749,0.0220047273041276,,true,lh,5326.5210000119405,response,-0.937244118871122,0.751636490368037,-1.0724999999999996,0.6016155161011499,0.6720067188434413,-0.6920159725064339,low,high,,ISIC_0028320.JPG,9,ISIC_0031611.JPG,37,false,lh,keypress(e),0,false,711958.1000000089,711957.8000000119,706614.822,706616.1000000089,706631.279,711964.539,4,500,17,
break,html.Screen,10_16_1,2023-11-15T16:46:50.238Z,,,,,,,,,,NaN,,,,,,,,low,high,,,,,,false,,,,false,711959,711958.700000003,,711958.400000006,,711964.539,4,500,,
break_continue,html.Screen,10_16_2,2023-11-15T16:46:50.239Z,,,,,,,,,,NaN,,,,,,,,low,high,,,,,,false,,,,false,711959.6000000089,711959.3000000119,,711959.1000000089,,711964.539,4,500,,
sequence,flow.Sequence,10_16,2023-11-15T16:46:50.239Z,,,,,,,,,,5328.0210000119405,completion,,,,,,,low,high,,,,,,false,,,,false,711959.8000000119,711959.3000000119,706614.822,706616,706631.279,711964.539,4,500,,
trial,html.Screen,10_17_0,2023-11-15T16:46:52.615Z,,,,1,-0.0267918352484299,-0.0630167830859455,,false,hh,2370.061000008951,response,0.708900242752142,0.751636490368037,-1.0724999999999996,0.7801028150877221,0.6720067188434413,-0.6920159725064339,high,high,,ISIC_0064874.JPG,9,ISIC_0056979.JPG,295,false,lh,keypress(e),0,false,714334.900000006,714334.6000000089,711947.863,711960,711964.539,714347.997,4,500,18,
break,html.Screen,10_17_1,2023-11-15T16:46:52.616Z,,,,,,,,,,NaN,,,,,,,,high,high,,,,,,false,,,,false,714336,714335.700000003,,714335.3000000119,,714347.997,4,500,,
break_continue,html.Screen,10_17_2,2023-11-15T16:46:52.617Z,,,,,,,,,,NaN,,,,,,,,high,high,,,,,,false,,,,false,714336.8000000119,714336.400000006,,714336.1000000089,,714347.997,4,500,,
sequence,flow.Sequence,10_17,2023-11-15T16:46:52.617Z,,,,,,,,,,2371.8610000059707,completion,,,,,,,high,high,,,,,,false,,,,false,714337.1000000089,714336.400000006,711947.863,711959.900000006,711964.539,714347.997,4,500,,
trial,html.Screen,10_18_0,2023-11-15T16:46:55.648Z,,,,1,-0.07101539702336,0.0351358305415709,,false,hh,3019.003000000026,response,0.7073399931046606,0.751636490368037,-1.0724999999999996,0.5553585812995747,0.6720067188434413,-0.6920159725064339,high,high,,ISIC_0033279.JPG,9,ISIC_5634573.JPG,295,false,hl,keypress(j),0,false,717367.3000000119,717367,714331.382,714337.3000000119,714347.997,717381.353,4,500,19,
break,html.Screen,10_18_1,2023-11-15T16:46:55.649Z,,,,,,,,,,NaN,,,,,,,,high,high,,,,,,false,,,,false,717368.200000003,717368,,717367.6000000089,,717381.353,4,500,,
break_continue,html.Screen,10_18_2,2023-11-15T16:46:55.649Z,,,,,,,,,,NaN,,,,,,,,high,high,,,,,,false,,,,false,717369,717368.6000000089,,717368.400000006,,717381.353,4,500,,
sequence,flow.Sequence,10_18,2023-11-15T16:46:55.650Z,,,,,,,,,,3020.603000008967,completion,,,,,,,high,high,,,,,,false,,,,false,717369.200000003,717368.6000000089,714331.382,714337.200000003,714347.997,717381.353,4,500,,
trial,html.Screen,10_19_0,2023-11-15T16:47:02.480Z,,,,1,-0.068830656047477,0.0471494209282208,,false,hh,6817.646999999997,response,0.6144490702520653,0.751636490368037,-1.0724999999999996,0.6842982966742426,0.6720067188434413,-0.6920159725064339,high,high,,ISIC_0029982.JPG,9,ISIC_2222091.JPG,295,false,lh,keypress(e),0,false,724199.200000003,724199,717364.608,717369.3000000119,717381.353,724231.456,4,500,20,
break,html.Screen,10_19_1,2023-11-15T16:47:02.480Z,,,,,,,,,,NaN,,,,,,,,high,high,,,,,,false,,,,false,724200,724199.900000006,,724199.5,,724231.456,4,500,,
break_continue,html.Screen,10_19_2,2023-11-15T16:47:02.481Z,,,,,,,,,,NaN,,,,,,,,high,high,,,,,,false,,,,false,724200.700000003,724200.5,,724200.200000003,,724231.456,4,500,,
sequence,flow.Sequence,10_19,2023-11-15T16:47:02.481Z,,,,,,,,,,6819.146999999997,completion,,,,,,,high,high,,,,,,false,,,,false,724201,724200.5,717364.608,717369.3000000119,717381.353,724231.456,4,500,,
trial,html.Screen,10_20_0,2023-11-15T16:47:06.286Z,,,,1,-0.0634150092059303,0.0177502973253611,,false,hl,3774.2440000029746,response,0.6844507507038213,0.751636490368037,-1.0724999999999996,-0.4976581687173817,0.6720067188434413,-0.6920159725064339,high,low,,ISIC_0032433.JPG,9,ISIC_8569205.JPG,102,false,lh,keypress(e),0,false,728006,728005.700000003,724214.701,724201.200000003,724231.456,728014.554,4,500,21,
break,html.Screen,10_20_1,2023-11-15T16:47:06.287Z,,,,,,,,,,NaN,,,,,,,,high,low,,,,,,false,,,,false,728006.900000006,728006.700000003,,728006.3000000119,,728014.554,4,500,,
break_continue,html.Screen,10_20_2,2023-11-15T16:47:06.288Z,,,,,,,,,,NaN,,,,,,,,high,low,,,,,,false,,,,false,728007.5,728007.3000000119,,728007,,728014.554,4,500,,
sequence,flow.Sequence,10_20,2023-11-15T16:47:06.288Z,,,,,,,,,,3775.8440000119153,completion,,,,,,,high,low,,,,,,false,,,,false,728007.700000003,728007.3000000119,724214.701,724201.1000000089,724231.456,728014.554,4,500,,
trial,html.Screen,10_21_0,2023-11-15T16:47:08.446Z,,,,1,-0.0633291412406864,0.0446580444004686,,true,hl,2151.246000011917,response,0.6114190059484325,0.751636490368037,-1.0724999999999996,-0.8138757632514736,0.6720067188434413,-0.6920159725064339,high,low,,ISIC_0010718.JPG,9,ISIC_5100319.JPG,102,false,hl,keypress(j),0,false,730166,730165.8000000119,727997.829,728008,728014.554,730181.359,4,500,22,
break,html.Screen,10_21_1,2023-11-15T16:47:08.447Z,,,,,,,,,,NaN,,,,,,,,high,low,,,,,,false,,,,false,730166.900000006,730166.700000003,,730166.3000000119,,730181.359,4,500,,
break_continue,html.Screen,10_21_2,2023-11-15T16:47:08.448Z,,,,,,,,,,NaN,,,,,,,,high,low,,,,,,false,,,,false,730167.6000000089,730167.3000000119,,730167.1000000089,,730181.359,4,500,,
sequence,flow.Sequence,10_21,2023-11-15T16:47:08.448Z,,,,,,,,,,2152.746000011917,completion,,,,,,,high,low,,,,,,false,,,,false,730167.8000000119,730167.3000000119,727997.829,728007.900000006,728014.554,730181.359,4,500,,
trial,html.Screen,10_22_0,2023-11-15T16:47:12.902Z,,,,1,-0.0572065166118795,0.0247840126545907,,false,lh,4439.941000011866,response,-1.0770264364718942,0.751636490368037,-1.0724999999999996,0.6713089190292955,0.6720067188434413,-0.6920159725064339,low,high,,ISIC_0024565.JPG,8,ISIC_6093728.JPG,37,false,ll,keypress(f),0,false,734621.5,734621.3000000119,730164.538,730168,730181.359,734631.129,4,500,23,
break,html.Screen,10_22_1,2023-11-15T16:47:12.903Z,,,,,,,,,,NaN,,,,,,,,low,high,,,,,,false,,,,false,734622.5,734622.3000000119,,734621.900000006,,734631.129,4,500,,
break_continue,html.Screen,10_22_2,2023-11-15T16:47:12.904Z,,,,,,,,,,NaN,,,,,,,,low,high,,,,,,false,,,,false,734623.1000000089,734622.8000000119,,734622.6000000089,,734631.129,4,500,,
sequence,flow.Sequence,10_22,2023-11-15T16:47:12.904Z,,,,,,,,,,4441.441000011866,completion,,,,,,,low,high,,,,,,false,,,,false,734623.3000000119,734622.8000000119,730164.538,730168,730181.359,734631.129,4,500,,
trial,html.Screen,10_23_0,2023-11-15T16:47:15.695Z,,,,1,0.0146597765042814,0.06222227493177,,true,lh,2783.371000000043,response,-0.8926515927689261,0.751636490368037,-1.0724999999999996,0.7935960767768927,0.6720067188434413,-0.6920159725064339,low,high,,ISIC_5982769.JPG,9,ISIC_8901371.JPG,37,false,lh,keypress(e),0,false,737414.8000000119,737414.5,734614.477,734623.5,734631.129,737431.354,4,500,24,
break,html.Screen,10_23_1,2023-11-15T16:47:15.696Z,,,,,,,,,,NaN,,,,,,,,low,high,,,,,,false,,,,false,737415.700000003,737415.5,,737415.1000000089,,737431.354,4,500,,
break_continue,html.Screen,10_23_2,2023-11-15T16:47:15.697Z,,,,,,,,,,NaN,,,,,,,,low,high,,,,,,false,,,,false,737416.400000006,737416,,737415.900000006,,737431.354,4,500,,
sequence,flow.Sequence,10_23,2023-11-15T16:47:15.697Z,,,,,,,,,,2784.871000000043,completion,,,,,,,low,high,,,,,,false,,,,false,737416.6000000089,737416,734614.477,734623.400000006,734631.129,737431.354,4,500,,
trial,html.Screen,10_24_0,2023-11-15T16:47:22.919Z,,,,1,0.0395587463147856,-0.0645068093068572,,true,hl,7206.64599999995,response,0.9198276163642348,0.751636490368037,-1.0724999999999996,-0.7754915110667046,0.6720067188434413,-0.6920159725064339,high,low,,ISIC_0010807.JPG,9,ISIC_7840728.JPG,102,false,hl,keypress(j),0,false,744638.200000003,744638,737414.64,737416.8000000119,737431.354,744647.778,4,500,25,
break,html.Screen,10_24_1,2023-11-15T16:47:22.919Z,,,,,,,,,,NaN,,,,,,,,high,low,,,,,,false,,,,false,744638.8000000119,744638.700000003,,744638.400000006,,744647.778,4,500,,
break_continue,html.Screen,10_24_2,2023-11-15T16:47:22.920Z,,,,,,,,,,NaN,,,,,,,,high,low,,,,,,false,,,,false,744639.3000000119,744639.1000000089,,744638.900000006,,744647.778,4,500,,
sequence,flow.Sequence,10_24,2023-11-15T16:47:22.920Z,,,,,,,,,,7207.74600000889,completion,,,,,,,high,low,,,,,,false,,,,false,744639.400000006,744639.1000000089,737414.64,737416.700000003,737431.354,744647.778,4,500,,
trial,html.Screen,10_25_0,2023-11-15T16:47:28.078Z,,,,1,0.0241900387072296,-0.0339955304424736,,true,ll,5149.822000008891,response,-1.1189056385517386,0.751636490368037,-1.0724999999999996,-0.6321010678331145,0.6720067188434413,-0.6920159725064339,low,low,,ISIC_0010789.JPG,9,ISIC_3926019.JPG,175,false,ll,keypress(f),0,false,749797.900000006,749797.6000000089,744631.179,744639.5,744647.778,749814.71,4,500,26,
break,html.Screen,10_25_1,2023-11-15T16:47:28.079Z,,,,,,,,,,NaN,,,,,,,,low,low,,,,,,false,,,,false,749798.8000000119,749798.6000000089,,749798.1000000089,,749814.71,4,500,,
break_continue,html.Screen,10_25_2,2023-11-15T16:47:28.080Z,,,,,,,,,,NaN,,,,,,,,low,low,,,,,,false,,,,false,749799.5,749799.200000003,,749799,,749814.71,4,500,,
sequence,flow.Sequence,10_25,2023-11-15T16:47:28.080Z,,,,,,,,,,5151.422000002931,completion,,,,,,,low,low,,,,,,false,,,,false,749799.8000000119,749799.200000003,744631.179,744639.400000006,744647.778,749814.71,4,500,,
trial,html.Screen,10_26_0,2023-11-15T16:47:33.399Z,,,,1,0.0426957918502628,0.044166030546046,,false,lh,5303.090000011958,response,-0.9237241143561707,0.751636490368037,-1.0724999999999996,0.7102087839245512,0.6720067188434413,-0.6920159725064339,low,high,,ISIC_4649440.JPG,9,ISIC_0058661.JPG,37,false,hl,keypress(j),0,false,755118.1000000089,755117.8000000119,749797.754,749800,749814.71,755131.169,4,500,27,
break,html.Screen,10_26_1,2023-11-15T16:47:33.399Z,,,,,,,,,,NaN,,,,,,,,low,high,,,,,,false,,,,false,755119,755118.8000000119,,755118.400000006,,755131.169,4,500,,
break_continue,html.Screen,10_26_2,2023-11-15T16:47:33.400Z,,,,,,,,,,NaN,,,,,,,,low,high,,,,,,false,,,,false,755119.700000003,755119.3000000119,,755119.1000000089,,755131.169,4,500,,
sequence,flow.Sequence,10_26,2023-11-15T16:47:33.400Z,,,,,,,,,,5304.590000011958,completion,,,,,,,low,high,,,,,,false,,,,false,755119.900000006,755119.3000000119,749797.754,749799.900000006,749814.71,755131.169,4,500,,
trial,html.Screen,10_27_0,2023-11-15T16:47:37.975Z,,,,1,0.0629648527969799,-0.0694960898867798,,false,hh,4563.531000002986,response,0.7935069588038893,0.751636490368037,-1.0724999999999996,0.7313731866464421,0.6720067188434413,-0.6920159725064339,high,high,,ISIC_0025597.JPG,9,ISIC_0010729.JPG,295,false,hl,keypress(j),0,false,759695,759694.700000003,755114.511,755120,755131.169,759714.683,4,500,28,
break,html.Screen,10_27_1,2023-11-15T16:47:37.976Z,,,,,,,,,,NaN,,,,,,,,high,high,,,,,,false,,,,false,759695.900000006,759695.700000003,,759695.400000006,,759714.683,4,500,,
break_continue,html.Screen,10_27_2,2023-11-15T16:47:37.977Z,,,,,,,,,,NaN,,,,,,,,high,high,,,,,,false,,,,false,759696.700000003,759696.3000000119,,759696,,759714.683,4,500,,
sequence,flow.Sequence,10_27,2023-11-15T16:47:37.977Z,,,,,,,,,,4565.1310000119265,completion,,,,,,,high,high,,,,,,false,,,,false,759696.900000006,759696.3000000119,755114.511,755120,755131.169,759714.683,4,500,,
trial,html.Screen,10_28_0,2023-11-15T16:47:46.517Z,,,,1,0.0542893032276609,-0.0176656364422514,,false,ll,8521.81700000004,response,-1.1473476022288238,0.751636490368037,-1.0724999999999996,-0.5242344934348873,0.6720067188434413,-0.6920159725064339,low,low,,ISIC_0024516.JPG,9,ISIC_0952221.JPG,175,false,lh,keypress(e),0,false,768236.5,768236.5,759697.79,759697,759714.683,768247.735,4,500,29,
break,html.Screen,10_28_1,2023-11-15T16:47:46.517Z,,,,,,,,,,NaN,,,,,,,,low,low,,,,,,false,,,,false,768236.8000000119,768236.8000000119,,768236.6000000089,,768247.735,4,500,,
break_continue,html.Screen,10_28_2,2023-11-15T16:47:46.517Z,,,,,,,,,,NaN,,,,,,,,low,low,,,,,,false,,,,false,768237,768237,,768236.900000006,,768247.735,4,500,,
sequence,flow.Sequence,10_28,2023-11-15T16:47:46.518Z,,,,,,,,,,8522.31700000004,completion,,,,,,,low,low,,,,,,false,,,,false,768237.1000000089,768237,759697.79,759697,759714.683,768247.735,4,500,,
trial,html.Screen,10_29_0,2023-11-15T16:47:50.405Z,,,,1,-0.0524649813000588,0.0155452034299028,,false,lh,3876.965000002994,response,-1.203269031614007,0.751636490368037,-1.0724999999999996,0.6961047103031557,0.6720067188434413,-0.6920159725064339,low,high,,ISIC_0030087.JPG,9,ISIC_0002639.JPG,37,false,ll,keypress(f),0,false,772124.700000003,772124.700000003,768231.198,768237.200000003,768247.735,772131.046,4,500,30,
break,html.Screen,10_29_1,2023-11-15T16:47:50.405Z,,,,,,,,,,NaN,,,,,,,,low,high,,,,,,false,,,,false,772125.1000000089,772125,,772124.8000000119,,772131.046,4,500,,
break_continue,html.Screen,10_29_2,2023-11-15T16:47:50.406Z,,,,,,,,,,NaN,,,,,,,,low,high,,,,,,false,,,,false,772125.3000000119,772125.200000003,,772125.1000000089,,772131.046,4,500,,
sequence,flow.Sequence,10_29,2023-11-15T16:47:50.406Z,,,,,,,,,,3877.465000002994,completion,,,,,,,low,high,,,,,,false,,,,false,772125.3000000119,772125.200000003,768231.198,768237.1000000089,768247.735,772131.046,4,500,,
trial,html.Screen,10_30_0,2023-11-15T16:47:54.633Z,,,,1,-0.0464691161264081,-0.0535296539628673,,false,ll,4219.654000003007,response,-0.908921558757692,0.751636490368037,-1.0724999999999996,-0.7778194826049402,0.6720067188434413,-0.6920159725064339,low,low,,ISIC_0758797.JPG,8,ISIC_2152875.JPG,175,false,hl,keypress(j),0,false,776351,776350.700000003,772114.497,772125.400000006,772131.046,776364.42,4,500,31,
break,html.Screen,10_30_1,2023-11-15T16:47:54.633Z,,,,,,,,,,NaN,,,,,,,,low,low,,,,,,false,,,,false,776351.900000006,776351.8000000119,,776351.3000000119,,776364.42,4,500,,
break_continue,html.Screen,10_30_2,2023-11-15T16:47:54.634Z,,,,,,,,,,NaN,,,,,,,,low,low,,,,,,false,,,,false,776352.6000000089,776352.3000000119,,776352.1000000089,,776364.42,4,500,,
sequence,flow.Sequence,10_30,2023-11-15T16:47:54.634Z,,,,,,,,,,4221.254000011948,completion,,,,,,,low,low,,,,,,false,,,,false,776352.900000006,776352.3000000119,772114.497,772125.400000006,772131.046,776364.42,4,500,,
trial,html.Screen,10_31_0,2023-11-15T16:47:57.232Z,,,,1,-0.068830656047477,0.0471494209282208,,false,ll,2586.079999999958,response,-1.1876749162179934,0.751636490368037,-1.0724999999999996,-0.6131564130439654,0.6720067188434413,-0.6920159725064339,low,low,,ISIC_0029982.JPG,9,ISIC_0003168.JPG,175,false,lh,keypress(e),0,false,778950.700000003,778950.5,776347.854,776353.1000000089,776364.42,778964.392,4,500,32,
break,html.Screen,10_31_1,2023-11-15T16:47:57.233Z,,,,,,,,,,NaN,,,,,,,,low,low,,,,,,false,,,,false,778951.6000000089,778951.5,,778951,,778964.392,4,500,,
break_continue,html.Screen,10_31_2,2023-11-15T16:47:57.234Z,,,,,,,,,,NaN,,,,,,,,low,low,,,,,,false,,,,false,778952.3000000119,778952,,778951.8000000119,,778964.392,4,500,,
sequence,flow.Sequence,10_31,2023-11-15T16:47:57.234Z,,,,,,,,,,2587.579999999958,completion,,,,,,,low,low,,,,,,false,,,,false,778952.6000000089,778952,776347.854,776352.900000006,776364.42,778964.392,4,500,,
trial,html.Screen,10_32_0,2023-11-15T16:47:59.518Z,,,,1,0.0273175221875807,0.0515126441328492,,false,hh,2272.208000008948,response,0.5973013792558843,0.751636490368037,-1.0724999999999996,0.6206104289086962,0.6720067188434413,-0.6920159725064339,high,high,,ISIC_0064034.JPG,9,ISIC_0528044.JPG,295,false,hl,keypress(j),0,false,781236.700000003,781236.6000000089,778947.71,778952.700000003,778964.392,781247.706,4,500,33,
break,html.Screen,10_32_1,2023-11-15T16:47:59.518Z,,,,,,,,,,NaN,,,,,,,,high,high,,,,,,false,,,,false,781236.900000006,781236.900000006,,781236.8000000119,,781247.706,4,500,,
break_continue,html.Screen,10_32_2,2023-11-15T16:47:59.519Z,,,,,,,,,,NaN,,,,,,,,high,high,,,,,,false,,,,false,781237.200000003,781237,,781237,,781247.706,4,500,,
sequence,flow.Sequence,10_32,2023-11-15T16:47:59.519Z,,,,,,,,,,2272.6080000000075,completion,,,,,,,high,high,,,,,,false,,,,false,781237.200000003,781237,778947.71,778952.700000003,778964.392,781247.706,4,500,,
trial,html.Screen,10_33_0,2023-11-15T16:48:07.638Z,,,,1,0.0241900387072296,-0.0339955304424736,,true,ll,8108.293999999994,response,-1.2621844940091915,0.751636490368037,-1.0724999999999996,-0.628674059368311,0.6720067188434413,-0.6920159725064339,low,low,,ISIC_0010789.JPG,9,ISIC_0005762.JPG,175,false,ll,keypress(f),0,false,789356.200000003,789356,781231.077,781237.3000000119,781247.706,789364.33,4,500,34,
break,html.Screen,10_33_1,2023-11-15T16:48:07.638Z,,,,,,,,,,NaN,,,,,,,,low,low,,,,,,false,,,,false,789356.5,789356.400000006,,789356.200000003,,789364.33,4,500,,
break_continue,html.Screen,10_33_2,2023-11-15T16:48:07.638Z,,,,,,,,,,NaN,,,,,,,,low,low,,,,,,false,,,,false,789356.700000003,789356.700000003,,789356.6000000089,,789364.33,4,500,,
sequence,flow.Sequence,10_33,2023-11-15T16:48:07.638Z,,,,,,,,,,8108.994000002975,completion,,,,,,,low,low,,,,,,false,,,,false,789356.8000000119,789356.700000003,781231.077,781237.200000003,781247.706,789364.33,4,500,,
trial,html.Screen,10_34_0,2023-11-15T16:48:11.687Z,,,,1,-0.024731486864197,-0.0504232274546553,,true,hl,4041.170000000042,response,0.8140398867745896,0.751636490368037,-1.0724999999999996,-0.6934224282808171,0.6720067188434413,-0.6920159725064339,high,low,,ISIC_4782878.JPG,9,ISIC_7196249.JPG,102,false,hl,keypress(j),0,false,793405.8000000119,793405.5,789347.851,789356.8000000119,789364.33,793414.385,4,500,35,
break,html.Screen,10_34_1,2023-11-15T16:48:11.688Z,,,,,,,,,,NaN,,,,,,,,high,low,,,,,,false,,,,false,793406.700000003,793406.5,,793406.1000000089,,793414.385,4,500,,
break_continue,html.Screen,10_34_2,2023-11-15T16:48:11.689Z,,,,,,,,,,NaN,,,,,,,,high,low,,,,,,false,,,,false,793407.400000006,793407.1000000089,,793406.8000000119,,793414.385,4,500,,
sequence,flow.Sequence,10_34,2023-11-15T16:48:11.689Z,,,,,,,,,,4042.7700000089826,completion,,,,,,,high,low,,,,,,false,,,,false,793407.6000000089,793407.1000000089,789347.851,789356.8000000119,789364.33,793414.385,4,500,,
trial,html.Screen,10_35_0,2023-11-15T16:48:16.687Z,,,,1,0.0644356642124594,-0.0565130492997401,,false,hl,4991.114999999991,response,0.8804731155307185,0.751636490368037,-1.0724999999999996,-0.5297951235379561,0.6720067188434413,-0.6920159725064339,high,low,,ISIC_7520843.JPG,9,ISIC_0033586.JPG,102,false,hh,keypress(i),0,false,798405.8000000119,798405.5,793397.73,793407.700000003,793414.385,798414.337,4,500,36,
break,html.Screen,10_35_1,2023-11-15T16:48:16.688Z,,,,,,,,,,NaN,,,,,,,,high,low,,,,,,false,,,,false,798406.8000000119,798406.5,,798406.1000000089,,798414.337,4,500,,
break_continue,html.Screen,10_35_2,2023-11-15T16:48:16.689Z,,,,,,,,,,NaN,,,,,,,,high,low,,,,,,false,,,,false,798407.5,798407.1000000089,,798406.900000006,,798414.337,4,500,,
sequence,flow.Sequence,10_35,2023-11-15T16:48:16.689Z,,,,,,,,,,4992.715000008931,completion,,,,,,,high,low,,,,,,false,,,,false,798407.700000003,798407.1000000089,793397.73,793407.700000003,793414.385,798414.337,4,500,,
trial,html.Screen,10_36_0,2023-11-15T16:48:22.734Z,,,,1,-0.0200295718112167,-0.0155559071275806,,false,lh,6038.162999999942,response,-1.0770264364718942,0.751636490368037,-1.0724999999999996,0.6713089190292955,0.6720067188434413,-0.6920159725064339,low,high,,ISIC_0061343.JPG,10,ISIC_6093728.JPG,37,false,ll,keypress(f),0,false,804452.5,804452.5,798397.729,798407.900000006,798414.337,804464.38,4,500,37,
break,html.Screen,10_36_1,2023-11-15T16:48:22.734Z,,,,,,,,,,NaN,,,,,,,,low,high,,,,,,false,,,,false,804452.8000000119,804452.8000000119,,804452.6000000089,,804464.38,4,500,,
break_continue,html.Screen,10_36_2,2023-11-15T16:48:22.735Z,,,,,,,,,,NaN,,,,,,,,low,high,,,,,,false,,,,false,804453,804452.900000006,,804452.8000000119,,804464.38,4,500,,
sequence,flow.Sequence,10_36,2023-11-15T16:48:22.735Z,,,,,,,,,,6038.563000005903,completion,,,,,,,low,high,,,,,,false,,,,false,804453.1000000089,804452.900000006,798397.729,798407.8000000119,798414.337,804464.38,4,500,,
trial,html.Screen,10_37_0,2023-11-15T16:48:25.016Z,,,,1,-0.0718464495991687,0.0429653518314044,,false,hl,2270.220000008936,response,0.5934094611600786,0.751636490368037,-1.0724999999999996,-0.566031477264054,0.6720067188434413,-0.6920159725064339,high,low,,ISIC_0028597.JPG,9,ISIC_4524488.JPG,102,false,lh,keypress(e),0,false,806734.900000006,806734.6000000089,804447.847,804453.1000000089,804464.38,806747.697,4,500,38,
break,html.Screen,10_37_1,2023-11-15T16:48:25.017Z,,,,,,,,,,NaN,,,,,,,,high,low,,,,,,false,,,,false,806735.900000006,806735.6000000089,,806735.200000003,,806747.697,4,500,,
break_continue,html.Screen,10_37_2,2023-11-15T16:48:25.018Z,,,,,,,,,,NaN,,,,,,,,high,low,,,,,,false,,,,false,806736.700000003,806736.3000000119,,806736.1000000089,,806747.697,4,500,,
