sender,sender_type,sender_id,timestamp,meta,,age,blockNo,c1,c2,condition,correct,correctResponse,duration,ended_on,f1,f1_high,f1_low,f2,f2_high,f2_low,feature_level1,feature_level2,gender,img_left,img_reveal,img_right,n_target_images,practice,response,response_action,selection_duration,staircase,time_commit,time_end,time_render,time_run,time_show,time_switch,total_blocks,total_trials,trialNo,url
informed_consent,html.Screen,0,2023-11-15T16:35:55.959Z,"{""labjs_version"":""20.2.4"",""labjs_build"":{""flavor"":""development"",""commit"":""f5b4a49f956347addd546a832a3327688c2c0fef""},""location"":""https://labjs.felixhenninger.com/api/labjs_preview/index.html"",""userAgent"":""Mozilla/5.0 (Windows NT 10.0; Win64; x64) AppleWebKit/537.36 (KHTML, like Gecko) Chrome/119.0.0.0 Safari/537.36"",""platform"":""Win32"",""language"":""en-US"",""locale"":""en-US"",""timeZone"":""America/Chicago"",""timezoneOffset"":360,""screen_width"":1920,""screen_height"":1080,""scroll_width"":945,""scroll_height"":918,""window_innerWidth"":945,""window_innerHeight"":966,""devicePixelRatio"":1}",,,,,,,,,36952.948,response,,,,,,,,,,,,,,,consent,click button,,,37936,37925.5,955.79,1235.2999999998137,972.552,37672.578,,,,{}
Demography form,html.Form,1,2023-11-15T16:36:11.538Z,,,18,,,,,,,15841.921999999999,form submission,,,,,,,,,female,,,,,,,,,,53514.799999999814,53514.5,37622.706,37936.200000000186,37672.578,53239.2,,,,
Welcome,html.Screen,2,2023-11-15T16:36:57.750Z,,,,,,,"[""asym"",""bor""]",,,46486.3,response,,,,,,,,,,,,,,,continue,click button,,,99726.09999999963,99725.5,53206.133,53515,53239.2,99439.281,,,,
demo_instructions,html.Screen,3,2023-11-15T16:37:54.309Z,,,,,,,,,,56846.219,response,,,,,,,,,,,,,,,continue,click button,,,156286.2999999998,156285.5,99422.922,99726.20000000019,99439.281,156022.707,,,,
trial,html.Screen,4_0_0,2023-11-15T16:38:06.223Z,,,,0,0.8655167308525522,-0.9298580423306444,,true,lh,12177.793000000005,response,-1.020990671779317,1.0499999999999998,-1.0499999999999998,1.0116513850520903,1.0499999999999998,-1.0499999999999998,low,high,,ISIC_4603706.JPG,,ISIC_0011995.JPG,21,true,lh,keypress(e),100,false,168200.59999999963,168200.5,156006.041,156286.5,156022.707,167939.437,1,16,1,
sequence,flow.Sequence,4_0,2023-11-15T16:38:06.224Z,,,,,,,,,,12177.793000000005,completion,,,,,,,low,high,,,,,,true,,,,false,168200.7999999998,168200.5,156006.041,156286.5,156022.707,167939.437,1,16,,
trial,html.Screen,4_1_0,2023-11-15T16:38:25.413Z,,,,0,0.9235571765207048,-1.0008081653938232,,true,lh,19450.86299999981,response,-1.2331439637486756,1.0499999999999998,-1.0499999999999998,0.9691143900156988,1.0499999999999998,-1.0499999999999998,low,high,,ISIC_8796632.JPG,,ISIC_7877488.JPG,21,true,lh,keypress(e),100,false,187390.7000000002,187390.2999999998,167922.724,168200.90000000037,167939.437,187122.763,1,16,2,
sequence,flow.Sequence,4_1,2023-11-15T16:38:25.414Z,,,,,,,,,,19450.86299999981,completion,,,,,,,low,high,,,,,,true,,,,false,187390.90000000037,187390.2999999998,167922.724,168200.90000000037,167939.437,187122.763,1,16,,
trial,html.Screen,4_2_0,2023-11-15T16:38:35.595Z,,,,0,0.8655167308525522,-0.9298580423306444,,true,lh,10448.836999999621,response,-0.8534691366511764,1.0499999999999998,-1.0499999999999998,1.03975580494588,1.0499999999999998,-1.0499999999999998,low,high,,ISIC_4603706.JPG,,ISIC_0056788.JPG,21,true,lh,keypress(e),100,false,197571.7000000002,197571.59999999963,187106.137,187391,187122.763,197306.134,1,16,3,
sequence,flow.Sequence,4_2,2023-11-15T16:38:35.595Z,,,,,,,,,,10448.836999999621,completion,,,,,,,low,high,,,,,,true,,,,false,197571.90000000037,197571.59999999963,187106.137,187391,187122.763,197306.134,1,16,,
trial,html.Screen,4_3_0,2023-11-15T16:38:57.920Z,,,,0,1.0213365328004047,-1.088524359911891,,true,lh,22589.86600000001,response,-1.011737552725394,1.0499999999999998,-1.0499999999999998,0.8500530224490773,1.0499999999999998,-1.0499999999999998,low,high,,ISIC_5434229.JPG,,ISIC_2998367.JPG,21,true,lh,keypress(e),100,false,219896.40000000037,219896,197289.479,197572,197306.134,219623.095,1,16,4,
sequence,flow.Sequence,4_3,2023-11-15T16:38:57.920Z,,,,,,,,,,22589.86600000001,completion,,,,,,,low,high,,,,,,true,,,,false,219896.90000000037,219896,197289.479,197572,197306.134,219623.095,1,16,,
trial,html.Screen,4_4_0,2023-11-15T16:39:06.742Z,,,,0,1.2435042401134029,1.0592032583207498,,true,ll,9095.504999999626,response,-0.9884311917927716,1.0499999999999998,-1.0499999999999998,-1.2129880490682976,1.0499999999999998,-1.0499999999999998,low,low,,ISIC_0056119.JPG,,ISIC_4255013.JPG,111,true,ll,keypress(f),100,false,228718.90000000037,228718.59999999963,219606.215,219897.09999999963,219623.095,228456.388,1,16,5,
sequence,flow.Sequence,4_4,2023-11-15T16:39:06.743Z,,,,,,,,,,9095.504999999626,completion,,,,,,,low,low,,,,,,true,,,,false,228719.2000000002,228718.59999999963,219606.215,219897,219623.095,228456.388,1,16,,
trial,html.Screen,4_5_0,2023-11-15T16:39:22.300Z,,,,0,1.2169050727663315,1.1067845563421794,,true,ll,15819.611999999994,response,-1.0650525146668357,1.0499999999999998,-1.0499999999999998,-0.9852293825146712,1.0499999999999998,-1.0499999999999998,low,low,,ISIC_7016261.JPG,,ISIC_6642608.JPG,111,true,ll,keypress(f),100,false,244276.2000000002,244276,228439.784,228719.2999999998,228456.388,244006.216,1,16,6,
sequence,flow.Sequence,4_5,2023-11-15T16:39:22.300Z,,,,,,,,,,15819.611999999994,completion,,,,,,,low,low,,,,,,true,,,,false,244276.59999999963,244276,228439.784,228719.2000000002,228456.388,244006.216,1,16,,
trial,html.Screen,4_6_0,2023-11-15T16:39:31.411Z,,,,0,0.8942749799405368,1.2228671360399193,,true,ll,9380.684000000387,response,-1.212030980680325,1.0499999999999998,-1.0499999999999998,-1.033832433609739,1.0499999999999998,-1.0499999999999998,low,low,,ISIC_0033194.JPG,,ISIC_0008510.JPG,111,true,ll,keypress(f),100,false,253387.2000000002,253386.90000000037,243989.512,244276.7999999998,244006.216,253122.894,1,16,7,
sequence,flow.Sequence,4_6,2023-11-15T16:39:31.411Z,,,,,,,,,,9380.684000000387,completion,,,,,,,low,low,,,,,,true,,,,false,253387.40000000037,253386.90000000037,243989.512,244276.7000000002,244006.216,253122.894,1,16,,
trial,html.Screen,4_7_0,2023-11-15T16:39:34.920Z,,,,0,1.0774704182387804,1.0186619444121927,,true,ll,3773.5060000003723,response,-0.9069195139552818,1.0499999999999998,-1.0499999999999998,-1.17726864031644,1.0499999999999998,-1.0499999999999998,low,low,,ISIC_0066564.JPG,,ISIC_9728003.JPG,111,true,ll,keypress(f),100,false,256896.59999999963,256896.40000000037,253106.219,253387.5,253122.894,256622.83,1,16,8,
sequence,flow.Sequence,4_7,2023-11-15T16:39:34.920Z,,,,,,,,,,3773.5060000003723,completion,,,,,,,low,low,,,,,,true,,,,false,256896.7999999998,256896.40000000037,253106.219,253387.40000000037,253122.894,256622.83,1,16,,
trial,html.Screen,4_8_0,2023-11-15T16:39:43.726Z,,,,0,-0.9696118525781644,0.9244148283103414,,true,hl,9079.670000000013,response,0.887838744955182,0.9499999999999997,-0.9499999999999997,-0.7545096650863988,0.9499999999999997,-0.9499999999999997,high,low,,ISIC_7927525.JPG,,ISIC_1488727.JPG,26,true,hl,keypress(j),100,false,265702.5999999996,265702.5,256606.24,256896.7999999998,256622.83,265439.789,1,16,9,
sequence,flow.Sequence,4_8,2023-11-15T16:39:43.726Z,,,,,,,,,,9079.670000000013,completion,,,,,,,high,low,,,,,,true,,,,false,265702.7000000002,265702.5,256606.24,256896.7999999998,256622.83,265439.789,1,16,,
trial,html.Screen,4_9_0,2023-11-15T16:39:47.681Z,,,,0,-1.0656673213158945,0.8082541692781954,,true,hl,4218.611000000383,response,0.8655167308525522,0.9499999999999997,-0.9499999999999997,-0.9298580423306444,0.9499999999999997,-0.9499999999999997,high,low,,ISIC_0033985.JPG,,ISIC_4603706.JPG,26,true,hl,keypress(j),100,false,269658.5,269658.4000000004,265423.296,265702.7999999998,265439.789,269389.596,1,16,10,
sequence,flow.Sequence,4_9,2023-11-15T16:39:47.682Z,,,,,,,,,,4218.611000000383,completion,,,,,,,high,low,,,,,,true,,,,false,269658.7000000002,269658.4000000004,265423.296,265702.7999999998,265439.789,269389.596,1,16,,
trial,html.Screen,4_10_0,2023-11-15T16:39:51.413Z,,,,0,-1.020990671779317,1.0116513850520903,,true,hl,4000.203999999794,response,0.8035152873995188,0.9499999999999997,-0.9499999999999997,-0.82868450251632,0.9499999999999997,-0.9499999999999997,high,low,,ISIC_0011995.JPG,,ISIC_0010671.JPG,26,true,hl,keypress(j),100,false,273390,273389.7999999998,269372.917,269658.7000000002,269389.596,273122.909,1,16,11,
sequence,flow.Sequence,4_10,2023-11-15T16:39:51.413Z,,,,,,,,,,4000.203999999794,completion,,,,,,,high,low,,,,,,true,,,,false,273390.2999999998,273389.7999999998,269372.917,269658.7000000002,269389.596,273122.909,1,16,,
trial,html.Screen,4_11_0,2023-11-15T16:39:53.035Z,,,,0,-0.8809306963311293,0.8614910030038974,,true,hl,1888.9910000003874,response,0.8816288864119318,0.9499999999999997,-0.9499999999999997,-0.801867301188093,0.9499999999999997,-0.9499999999999997,high,low,,ISIC_0013731.JPG,,ISIC_9196783.JPG,26,true,hl,keypress(j),100,false,275012.0999999996,275011.9000000004,273106.441,273390.4000000004,273122.909,274739.615,1,16,12,
sequence,flow.Sequence,4_11,2023-11-15T16:39:53.035Z,,,,,,,,,,1888.9910000003874,completion,,,,,,,high,low,,,,,,true,,,,false,275012.2999999998,275011.9000000004,273106.441,273390.4000000004,273122.909,274739.615,1,16,,
trial,html.Screen,4_12_0,2023-11-15T16:39:55.969Z,,,,0,-0.953802353776362,-0.927101493584587,,true,hh,3205.984999999637,response,1.1253220985777015,0.9499999999999997,-0.9499999999999997,1.108725659461368,0.9499999999999997,-0.9499999999999997,high,high,,ISIC_9751601.JPG,,ISIC_0054954.JPG,167,true,hh,keypress(i),100,false,277945.9000000004,277945.5999999996,274722.95,275012.4000000004,274739.615,277673.228,1,16,13,
sequence,flow.Sequence,4_12,2023-11-15T16:39:55.969Z,,,,,,,,,,3205.984999999637,completion,,,,,,,high,high,,,,,,true,,,,false,277946.2000000002,277945.5999999996,274722.95,275012.4000000004,274739.615,277673.228,1,16,,
trial,html.Screen,4_13_0,2023-11-15T16:40:00.809Z,,,,0,-0.7959241725897693,-1.0541742265379377,,true,hh,5112.571999999811,response,1.0130095662293503,0.9499999999999997,-0.9499999999999997,1.098939882801048,0.9499999999999997,-0.9499999999999997,high,high,,ISIC_6646939.JPG,,ISIC_0059897.JPG,167,true,hh,keypress(i),100,false,282786,282785.7999999998,277656.291,277946.4000000004,277673.228,282523.071,1,16,14,
sequence,flow.Sequence,4_13,2023-11-15T16:40:00.809Z,,,,,,,,,,5112.571999999811,completion,,,,,,,high,high,,,,,,true,,,,false,282786.2000000002,282785.7999999998,277656.291,277946.2999999998,277673.228,282523.071,1,16,,
trial,html.Screen,4_14_0,2023-11-15T16:40:04.269Z,,,,0,-0.9487751044258608,-0.875032819970805,,true,hh,3722.8290000003763,response,0.7846840640804751,0.9499999999999997,-0.9499999999999997,1.0912590313299513,0.9499999999999997,-0.9499999999999997,high,high,,ISIC_4568084.JPG,,ISIC_0026352.JPG,167,true,hh,keypress(i),100,false,286246.0999999996,286245.9000000004,282506.274,282786.2999999998,282523.071,285973.135,1,16,15,
sequence,flow.Sequence,4_14,2023-11-15T16:40:04.269Z,,,,,,,,,,3722.8290000003763,completion,,,,,,,high,high,,,,,,true,,,,false,286246.4000000004,286245.9000000004,282506.274,282786.2999999998,282523.071,285973.135,1,16,,
trial,html.Screen,4_15_0,2023-11-15T16:40:09.251Z,,,,0,-0.8689515664606163,-1.0538817435713148,,true,hh,5254.565000000177,response,0.8926778502294954,0.9499999999999997,-0.9499999999999997,0.9164454040166848,0.9499999999999997,-0.9499999999999997,high,high,,ISIC_7333928.JPG,,ISIC_0011460.JPG,167,true,hh,keypress(i),100,false,291227.9000000004,291227.7000000002,285956.274,286246.5,285973.135,290956.298,1,16,16,
sequence,flow.Sequence,4_15,2023-11-15T16:40:09.251Z,,,,,,,,,,5254.565000000177,completion,,,,,,,high,high,,,,,,true,,,,false,291228.0999999996,291227.7000000002,285956.274,286246.5,285973.135,290956.298,1,16,,
demonstration_loop,flow.Loop,4,2023-11-15T16:40:09.251Z,,,,,,,,,,135204.9930000002,completion,,,,,,,,,,,,,,true,,,,false,291228.0999999996,291227.7000000002,156006.041,156286.40000000037,156022.707,290956.298,1,16,,
practice_instructions,html.Screen,5,2023-11-15T16:41:06.511Z,,,,,,,,,,57521.30199999962,response,,,,,,,,,,,,,,,continue,click button,,,348487.9000000004,348477.5999999996,290939.611,291228.2000000002,290956.298,348189.651,,,,
trial,html.Screen,6_0_0,2023-11-15T16:41:17.262Z,,,,1,-0.991282840649944,0.9397921099839784,,,,10766.74900000001,timeout,0.7833710010171356,0.9499999999999997,-0.9499999999999997,-0.9315588090336896,0.9499999999999997,-0.9499999999999997,high,low,,ISIC_0000463.JPG,,ISIC_3826102.JPG,26,true,,,0,false,359239.0999999996,359239,348173.069,348488.0999999996,348189.651,358956.4,1,40,1,
sequence,flow.Sequence,6_0,2023-11-15T16:41:17.262Z,,,,,,,,,,11049.348999999987,completion,,,,,,,high,low,,,,,,true,,,,false,359239.2999999998,359239,348173.069,348488,348189.651,358956.4,1,40,,
trial,html.Screen,6_1_0,2023-11-15T16:41:25.313Z,,,,1,0.7809949855371787,-0.8493861117004308,,false,lh,8333.89999999979,response,-0.8860551570327019,0.9499999999999997,-0.9499999999999997,0.8067116931297591,0.9499999999999997,-0.9499999999999997,low,high,,ISIC_7450481.JPG,,ISIC_1457687.JPG,28,true,ll,keypress(f),0,false,367290.4000000004,367290.2999999998,358939.744,359239.2999999998,358956.4,367006.352,1,40,2,
sequence,flow.Sequence,6_1,2023-11-15T16:41:25.313Z,,,,,,,,,,8333.89999999979,completion,,,,,,,low,high,,,,,,true,,,,false,367290.5999999996,367290.2999999998,358939.744,359239.2999999998,358956.4,367006.352,1,40,,
trial,html.Screen,6_2_0,2023-11-15T16:41:34.062Z,,,,1,0.9254369922344792,0.801722142776163,,false,ll,9032.548000000359,response,-0.8814695482989191,0.9499999999999997,-0.9499999999999997,-0.8440767077088777,0.9499999999999997,-0.9499999999999997,low,low,,ISIC_3236964.JPG,,ISIC_6392461.JPG,142,true,lh,keypress(e),0,false,376039.0999999996,376038.9000000004,366989.701,367290.7000000002,367006.352,375756.341,1,40,3,
sequence,flow.Sequence,6_2,2023-11-15T16:41:34.062Z,,,,,,,,,,9032.548000000359,completion,,,,,,,low,low,,,,,,true,,,,false,376039.2999999998,376038.9000000004,366989.701,367290.5999999996,367006.352,375756.341,1,40,,
trial,html.Screen,6_3_0,2023-11-15T16:41:41.950Z,,,,1,-0.9102336581208296,-1.0305113346799688,,false,hh,8170.758999999613,response,0.9777849718157332,0.9499999999999997,-0.9499999999999997,1.117811430082889,0.9499999999999997,-0.9499999999999997,high,high,,ISIC_0068530.JPG,,ISIC_3256887.JPG,167,true,hl,keypress(j),0,false,383927.2000000002,383927.0999999996,375739.652,376039.5,375756.341,383639.726,1,40,4,
sequence,flow.Sequence,6_3,2023-11-15T16:41:41.950Z,,,,,,,,,,8170.758999999613,completion,,,,,,,high,high,,,,,,true,,,,false,383927.5,383927.0999999996,375739.652,376039.4000000004,375756.341,383639.726,1,40,,
trial,html.Screen,6_4_0,2023-11-15T16:41:52.677Z,,,,1,0.7870237732709365,-0.9172955251119376,,,,10733.320999999996,timeout,-0.9696118525781644,0.9499999999999997,-0.9499999999999997,0.9244148283103414,0.9499999999999997,-0.9499999999999997,low,high,,ISIC_0057716.JPG,,ISIC_7927525.JPG,28,true,,,0,false,394654.2000000002,394654,383623.034,383927.7000000002,383639.726,394373.047,1,40,5,
sequence,flow.Sequence,6_4,2023-11-15T16:41:52.677Z,,,,,,,,,,11014.273999999976,completion,,,,,,,low,high,,,,,,true,,,,false,394654.4000000004,394654,383623.034,383927.5999999996,383639.726,394373.047,1,40,,
trial,html.Screen,6_5_0,2023-11-15T16:41:58.237Z,,,,1,-0.8979276789594874,0.925374811016654,,false,hl,5841.052999999607,response,0.7911024675435955,0.9499999999999997,-0.9499999999999997,-0.7975977016137676,0.9499999999999997,-0.9499999999999997,high,low,,ISIC_4208361.JPG,,ISIC_5813642.JPG,26,true,hh,keypress(i),0,false,400214.2999999998,400214.0999999996,394356.712,394654.4000000004,394373.047,399939.766,1,40,6,
sequence,flow.Sequence,6_5,2023-11-15T16:41:58.237Z,,,,,,,,,,5841.052999999607,completion,,,,,,,high,low,,,,,,true,,,,false,400214.5,400214.0999999996,394356.712,394654.4000000004,394373.047,399939.766,1,40,,
trial,html.Screen,6_6_0,2023-11-15T16:42:03.806Z,,,,1,-1.0064329161780483,-0.7918012854539199,,false,hh,5843.0339999998105,response,0.9789697360622612,0.9499999999999997,-0.9499999999999997,1.0321843200509992,0.9499999999999997,-0.9499999999999997,high,high,,ISIC_0033137.JPG,,ISIC_0056406.JPG,167,true,hl,keypress(j),0,false,405783.0999999996,405782.7999999998,399922.945,400214.5999999996,399939.766,405506.395,1,40,7,
sequence,flow.Sequence,6_6,2023-11-15T16:42:03.806Z,,,,,,,,,,5843.0339999998105,completion,,,,,,,high,high,,,,,,true,,,,false,405783.5,405782.7999999998,399922.945,400214.5999999996,399939.766,405506.395,1,40,,
trial,html.Screen,6_7_0,2023-11-15T16:42:06.685Z,,,,1,1.0213365328004047,-1.088524359911891,,false,lh,3155.904999999795,response,-1.0751036484083878,0.9499999999999997,-0.9499999999999997,1.143906455483852,0.9499999999999997,-0.9499999999999997,low,high,,ISIC_5434229.JPG,,ISIC_0064406.JPG,28,true,hl,keypress(j),0,false,408662.4000000004,408662.2999999998,405489.563,405783.5999999996,405506.395,408406.467,1,40,8,
sequence,flow.Sequence,6_7,2023-11-15T16:42:06.685Z,,,,,,,,,,3155.904999999795,completion,,,,,,,low,high,,,,,,true,,,,false,408662.5,408662.2999999998,405489.563,405783.5,405506.395,408406.467,1,40,,
trial,html.Screen,6_8_0,2023-11-15T16:42:10.510Z,,,,1,0.7723849213858904,-0.888372424147899,,true,lh,4080.3329999998095,response,-0.8579451262594331,0.9499999999999997,-0.9499999999999997,0.9633172970727744,0.9499999999999997,-0.9499999999999997,low,high,,ISIC_3884221.JPG,,ISIC_0067172.JPG,28,true,lh,keypress(e),0,false,412487,412486.7999999998,408390.102,408662.5999999996,408406.467,412206.412,1,40,9,
sequence,flow.Sequence,6_8,2023-11-15T16:42:10.510Z,,,,,,,,,,4080.3329999998095,completion,,,,,,,low,high,,,,,,true,,,,false,412487.2000000002,412486.7999999998,408390.102,408662.5999999996,408406.467,412206.412,1,40,,
trial,html.Screen,6_9_0,2023-11-15T16:42:15.453Z,,,,1,-0.9433720631499012,1.0582071940347648,,true,hl,5223.988000000361,response,0.8947611078712571,0.9499999999999997,-0.9499999999999997,-0.8960964505004638,0.9499999999999997,-0.9499999999999997,high,low,,ISIC_4890201.JPG,,ISIC_6441128.JPG,26,true,hl,keypress(j),0,false,417430.5,417430.4000000004,412189.638,412487.2000000002,412206.412,417156.563,1,40,10,
sequence,flow.Sequence,6_9,2023-11-15T16:42:15.453Z,,,,,,,,,,5223.988000000361,completion,,,,,,,high,low,,,,,,true,,,,false,417430.7000000002,417430.4000000004,412189.638,412487.2000000002,412206.412,417156.563,1,40,,
trial,html.Screen,6_10_0,2023-11-15T16:42:19.133Z,,,,1,0.8655167308525522,-0.9298580423306444,,true,lh,3953.9369999999763,response,-0.8860551570327019,0.9499999999999997,-0.9499999999999997,0.8067116931297591,0.9499999999999997,-0.9499999999999997,low,high,,ISIC_4603706.JPG,,ISIC_1457687.JPG,28,true,lh,keypress(e),0,false,421110.5999999996,421110.5,417139.613,417430.7999999998,417156.563,420823.119,1,40,11,
sequence,flow.Sequence,6_10,2023-11-15T16:42:19.134Z,,,,,,,,,,3953.9369999999763,completion,,,,,,,low,high,,,,,,true,,,,false,421110.7999999998,421110.5,417139.613,417430.7999999998,417156.563,420823.119,1,40,,
trial,html.Screen,6_11_0,2023-11-15T16:42:23.422Z,,,,1,-0.9786457729523576,-1.1189056385517386,,true,hh,4575.980999999621,response,0.9046170303418553,0.9499999999999997,-0.9499999999999997,0.8867328775712738,0.9499999999999997,-0.9499999999999997,high,high,,ISIC_3926019.JPG,,ISIC_0055759.JPG,167,true,hh,keypress(i),0,false,425399.2999999998,425399.0999999996,420806.641,421111,420823.119,425123.152,1,40,12,
sequence,flow.Sequence,6_11,2023-11-15T16:42:23.422Z,,,,,,,,,,4575.980999999621,completion,,,,,,,high,high,,,,,,true,,,,false,425399.7999999998,425399.0999999996,420806.641,421110.9000000004,420823.119,425123.152,1,40,,
trial,html.Screen,6_12_0,2023-11-15T16:42:29.230Z,,,,1,-0.8487429103619056,0.9778257804233036,,true,hl,6083.647999999812,response,0.796241477082623,0.9499999999999997,-0.9499999999999997,-0.9017449335975743,0.9499999999999997,-0.9499999999999997,high,low,,ISIC_4554863.JPG,,ISIC_8588033.JPG,26,true,hl,keypress(j),0,false,431206.9000000004,431206.7999999998,425106.373,425399.9000000004,425123.152,430923.132,1,40,13,
sequence,flow.Sequence,6_12,2023-11-15T16:42:29.230Z,,,,,,,,,,6083.647999999812,completion,,,,,,,high,low,,,,,,true,,,,false,431207,431206.7999999998,425106.373,425399.9000000004,425123.152,430923.132,1,40,,
trial,html.Screen,6_13_0,2023-11-15T16:42:35.917Z,,,,1,0.8597768256741747,1.1001121427563445,,true,ll,6970.868000000017,response,-1.0275060871969903,0.9499999999999997,-0.9499999999999997,-0.8666323445825409,0.9499999999999997,-0.9499999999999997,low,low,,ISIC_5922588.JPG,,ISIC_9155028.JPG,142,true,ll,keypress(f),0,false,437894.0999999996,437894,430906.326,431207.0999999996,430923.132,437606.45,1,40,14,
sequence,flow.Sequence,6_13,2023-11-15T16:42:35.917Z,,,,,,,,,,6970.868000000017,completion,,,,,,,low,low,,,,,,true,,,,false,437894.2000000002,437894,430906.326,431207.0999999996,430923.132,437606.45,1,40,,
trial,html.Screen,6_14_0,2023-11-15T16:42:43.069Z,,,,1,1.0164576835546473,-0.8120626538423016,,true,lh,7440.049999999988,response,-0.9579209317488,0.9499999999999997,-0.9499999999999997,1.0147487101263497,0.9499999999999997,-0.9499999999999997,low,high,,ISIC_6002694.JPG,,ISIC_8124482.JPG,28,true,lh,keypress(e),0,false,445046.5999999996,445046.5,437589.812,437894.2999999998,437606.45,444773.195,1,40,15,
sequence,flow.Sequence,6_14,2023-11-15T16:42:43.070Z,,,,,,,,,,7440.049999999988,completion,,,,,,,low,high,,,,,,true,,,,false,445046.7000000002,445046.5,437589.812,437894.2999999998,437606.45,444773.195,1,40,,
trial,html.Screen,6_15_0,2023-11-15T16:42:46.702Z,,,,1,0.7916641003387539,0.8795523971208432,,true,ll,3905.804999999993,response,-1.0525847190618245,0.9499999999999997,-0.9499999999999997,-0.934080360486692,0.9499999999999997,-0.9499999999999997,low,low,,ISIC_0069635.JPG,,ISIC_0010684.JPG,142,true,ll,keypress(f),0,false,448679.2000000002,448679,444756.416,445046.9000000004,444773.195,448406.798,1,40,16,
sequence,flow.Sequence,6_15,2023-11-15T16:42:46.702Z,,,,,,,,,,3905.804999999993,completion,,,,,,,low,low,,,,,,true,,,,false,448679.5,448679,444756.416,445046.9000000004,444773.195,448406.798,1,40,,
trial,html.Screen,6_16_0,2023-11-15T16:42:57.460Z,,,,1,-1.0717785279820962,-1.1267239445830604,,,,10749.793000000005,timeout,0.7858981101622865,0.9499999999999997,-0.9499999999999997,1.098700382725708,0.9499999999999997,-0.9499999999999997,high,high,,ISIC_9948815.JPG,,ISIC_0059733.JPG,167,true,,,0,false,459437.2000000002,459437,448389.723,448679.7000000002,448406.798,459156.591,1,40,17,
sequence,flow.Sequence,6_16,2023-11-15T16:42:57.460Z,,,,,,,,,,11030.20199999999,completion,,,,,,,high,high,,,,,,true,,,,false,459437.4000000004,459437,448389.723,448679.5999999996,448406.798,459156.591,1,40,,
trial,html.Screen,6_17_0,2023-11-15T16:42:58.925Z,,,,1,0.8623414234919863,-0.782830143980698,,true,lh,1745.6090000001714,response,-0.8809306963311293,0.9499999999999997,-0.9499999999999997,0.8614910030038974,0.9499999999999997,-0.9499999999999997,low,high,,ISIC_2727016.JPG,,ISIC_0013731.JPG,28,true,lh,keypress(e),0,false,460902.2999999998,460902.2000000002,459139.881,459437.5999999996,459156.591,460623.138,1,40,18,
sequence,flow.Sequence,6_17,2023-11-15T16:42:58.925Z,,,,,,,,,,1745.6090000001714,completion,,,,,,,low,high,,,,,,true,,,,false,460902.4000000004,460902.2000000002,459139.881,459437.5,459156.591,460623.138,1,40,,
trial,html.Screen,6_18_0,2023-11-15T16:43:02.333Z,,,,1,0.9235571765207048,-1.0008081653938232,,true,lh,3687.062000000209,response,-0.8579451262594331,0.9499999999999997,-0.9499999999999997,0.9633172970727744,0.9499999999999997,-0.9499999999999997,low,high,,ISIC_8796632.JPG,,ISIC_0067172.JPG,28,true,lh,keypress(e),0,false,464310.2999999998,464310.2000000002,460606.697,460902.5,460623.138,464023.159,1,40,19,
sequence,flow.Sequence,6_18,2023-11-15T16:43:02.333Z,,,,,,,,,,3687.062000000209,completion,,,,,,,low,high,,,,,,true,,,,false,464310.5,464310.2000000002,460606.697,460902.4000000004,460623.138,464023.159,1,40,,
trial,html.Screen,6_19_0,2023-11-15T16:43:07.726Z,,,,1,-1.136807569070348,-0.9216915307460268,,true,hh,5679.640999999829,response,0.987907971728555,0.9499999999999997,-0.9499999999999997,0.7987724453125647,0.9499999999999997,-0.9499999999999997,high,high,,ISIC_6006795.JPG,,ISIC_3613392.JPG,167,true,hh,keypress(i),0,false,469703,469702.7999999998,464006.591,464310.5999999996,464023.159,469423.191,1,40,20,
sequence,flow.Sequence,6_19,2023-11-15T16:43:07.726Z,,,,,,,,,,5679.640999999829,completion,,,,,,,high,high,,,,,,true,,,,false,469703.2999999998,469702.7999999998,464006.591,464310.5999999996,464023.159,469423.191,1,40,,
trial,html.Screen,6_20_0,2023-11-15T16:43:13.902Z,,,,1,-0.8860551570327019,0.8067116931297591,,true,hl,6455.709000000381,response,0.887838744955182,0.9499999999999997,-0.9499999999999997,-0.7545096650863988,0.9499999999999997,-0.9499999999999997,high,low,,ISIC_1457687.JPG,,ISIC_1488727.JPG,26,true,hl,keypress(j),0,false,475879.2000000002,475878.9000000004,469406.613,469703.4000000004,469423.191,475606.884,1,40,21,
sequence,flow.Sequence,6_20,2023-11-15T16:43:13.902Z,,,,,,,,,,6455.709000000381,completion,,,,,,,high,low,,,,,,true,,,,false,475879.4000000004,475878.9000000004,469406.613,469703.4000000004,469423.191,475606.884,1,40,,
trial,html.Screen,6_21_0,2023-11-15T16:43:18.013Z,,,,1,-0.7543493127539531,-0.9452304370934528,,true,hh,4383.715999999607,response,0.7646541361813586,0.9499999999999997,-0.9499999999999997,0.7897684269039633,0.9499999999999997,-0.9499999999999997,high,high,,ISIC_0029017.JPG,,ISIC_0057978.JPG,167,true,hh,keypress(i),0,false,479990.7999999998,479990.5999999996,475589.777,475879.5999999996,475606.884,479706.517,1,40,22,
sequence,flow.Sequence,6_21,2023-11-15T16:43:18.014Z,,,,,,,,,,4383.715999999607,completion,,,,,,,high,high,,,,,,true,,,,false,479991.0999999996,479990.5999999996,475589.777,475879.5,475606.884,479706.517,1,40,,
trial,html.Screen,6_22_0,2023-11-15T16:43:21.981Z,,,,1,0.758207007584394,1.0437879361189135,,true,ll,4251.582999999635,response,-0.7798182602765784,0.9499999999999997,-0.9499999999999997,-0.8643036808931337,0.9499999999999997,-0.9499999999999997,low,low,,ISIC_0011626.JPG,,ISIC_6703027.JPG,142,true,ll,keypress(f),0,false,483958.2000000002,483958.0999999996,479689.728,479991.2000000002,479706.517,483673.184,1,40,23,
sequence,flow.Sequence,6_22,2023-11-15T16:43:21.981Z,,,,,,,,,,4251.582999999635,completion,,,,,,,low,low,,,,,,true,,,,false,483958.4000000004,483958.0999999996,479689.728,479991.2000000002,479706.517,483673.184,1,40,,
trial,html.Screen,6_23_0,2023-11-15T16:43:29.677Z,,,,1,-1.0865333402803938,1.0542635307358266,,true,hl,7981.415999999619,response,0.796241477082623,0.9499999999999997,-0.9499999999999997,-0.9017449335975743,0.9499999999999997,-0.9499999999999997,high,low,,ISIC_0034006.JPG,,ISIC_8588033.JPG,26,true,hl,keypress(j),0,false,491654.7000000002,491654.5999999996,483656.659,483958.4000000004,483673.184,491373.241,1,40,24,
sequence,flow.Sequence,6_23,2023-11-15T16:43:29.678Z,,,,,,,,,,7981.415999999619,completion,,,,,,,high,low,,,,,,true,,,,false,491654.9000000004,491654.5999999996,483656.659,483958.4000000004,483673.184,491373.241,1,40,,
trial,html.Screen,6_24_0,2023-11-15T16:43:35.597Z,,,,1,0.9735583105865782,0.9340146106918494,,true,ll,6201.25900000002,response,-0.8150954316817084,0.9499999999999997,-0.9499999999999997,-1.1100289789666156,0.9499999999999997,-0.9499999999999997,low,low,,ISIC_0065204.JPG,,ISIC_0026552.JPG,142,true,ll,keypress(f),0,false,497574.5,497574.5,491356.26,491654.9000000004,491373.241,497289.892,1,40,25,
sequence,flow.Sequence,6_24,2023-11-15T16:43:35.597Z,,,,,,,,,,6201.25900000002,completion,,,,,,,low,low,,,,,,true,,,,false,497574.7000000002,497574.5,491356.26,491654.9000000004,491373.241,497289.892,1,40,,
trial,html.Screen,6_25_0,2023-11-15T16:43:39.710Z,,,,1,-0.8005752697082944,-0.8062281749376046,,true,hh,4396.907999999821,response,0.7705311022248598,0.9499999999999997,-0.9499999999999997,0.8320229600727801,0.9499999999999997,-0.9499999999999997,high,high,,ISIC_0031104.JPG,,ISIC_0026802.JPG,167,true,hh,keypress(i),0,false,501687,501686.7999999998,497273.086,497574.7999999998,497289.892,501406.804,1,40,26,
sequence,flow.Sequence,6_25,2023-11-15T16:43:39.710Z,,,,,,,,,,4396.907999999821,completion,,,,,,,high,high,,,,,,true,,,,false,501687.2999999998,501686.7999999998,497273.086,497574.7999999998,497289.892,501406.804,1,40,,
trial,html.Screen,6_26_0,2023-11-15T16:43:46.013Z,,,,1,0.8816288864119318,-0.801867301188093,,true,lh,6583.49599999981,response,-0.8579451262594331,0.9499999999999997,-0.9499999999999997,0.9633172970727744,0.9499999999999997,-0.9499999999999997,low,high,,ISIC_9196783.JPG,,ISIC_0067172.JPG,28,true,lh,keypress(e),0,false,507990.4000000004,507990.2999999998,501389.837,501687.4000000004,501406.804,507706.636,1,40,27,
sequence,flow.Sequence,6_26,2023-11-15T16:43:46.013Z,,,,,,,,,,6583.49599999981,completion,,,,,,,low,high,,,,,,true,,,,false,507990.5,507990.2999999998,501389.837,501687.4000000004,501406.804,507706.636,1,40,,
trial,html.Screen,6_27_0,2023-11-15T16:43:50.333Z,,,,1,-0.8859748279606405,-0.8351560316519383,,true,hh,4603.364000000001,response,0.829888603887684,0.9499999999999997,-0.9499999999999997,0.8001360017471091,0.9499999999999997,-0.9499999999999997,high,high,,ISIC_5795486.JPG,,ISIC_0012369.JPG,167,true,hh,keypress(i),0,false,512310.0999999996,512310,507689.686,507990.5,507706.636,512023.222,1,40,28,
sequence,flow.Sequence,6_27,2023-11-15T16:43:50.333Z,,,,,,,,,,4603.364000000001,completion,,,,,,,high,high,,,,,,true,,,,false,512310.2000000002,512310,507689.686,507990.5,507706.636,512023.222,1,40,,
trial,html.Screen,6_28_0,2023-11-15T16:43:55.357Z,,,,1,-0.7848009721557384,-0.750809298734252,,true,hh,5310.978000000177,response,0.999840720741648,0.9499999999999997,-0.9499999999999997,0.8010128234618513,0.9499999999999997,-0.9499999999999997,high,high,,ISIC_9648812.JPG,,ISIC_0058768.JPG,167,true,hh,keypress(i),0,false,517334.2999999998,517334.2000000002,512006.495,512310.2999999998,512023.222,517056.609,1,40,29,
sequence,flow.Sequence,6_28,2023-11-15T16:43:55.357Z,,,,,,,,,,5310.978000000177,completion,,,,,,,high,high,,,,,,true,,,,false,517334.4000000004,517334.2000000002,512006.495,512310.2999999998,512023.222,517056.609,1,40,,
trial,html.Screen,6_29_0,2023-11-15T16:44:02.317Z,,,,1,-0.858338058340649,0.9540612223480284,,true,hl,7237.791000000376,response,0.9873794329144926,0.9499999999999997,-0.9499999999999997,-0.7991077882008257,0.9499999999999997,-0.9499999999999997,high,low,,ISIC_8922893.JPG,,ISIC_0013498.JPG,26,true,hl,keypress(j),0,false,524294.5999999996,524294.4000000004,517039.747,517334.4000000004,517056.609,524006.587,1,40,30,
sequence,flow.Sequence,6_29,2023-11-15T16:44:02.317Z,,,,,,,,,,7237.791000000376,completion,,,,,,,high,low,,,,,,true,,,,false,524294.7999999998,524294.4000000004,517039.747,517334.4000000004,517056.609,524006.587,1,40,,
trial,html.Screen,6_30_0,2023-11-15T16:44:06.221Z,,,,1,1.1254252603792554,1.0263116781284176,,true,ll,4191.512999999628,response,-0.8297121564547995,0.9499999999999997,-0.9499999999999997,-0.9292144567580788,0.9499999999999997,-0.9499999999999997,low,low,,ISIC_0032420.JPG,,ISIC_4108397.JPG,142,true,ll,keypress(f),0,false,528198.2999999998,528198.0999999996,523989.972,524294.9000000004,524006.587,527923.259,1,40,31,
sequence,flow.Sequence,6_30,2023-11-15T16:44:06.221Z,,,,,,,,,,4191.512999999628,completion,,,,,,,low,low,,,,,,true,,,,false,528198.4000000004,528198.0999999996,523989.972,524294.9000000004,524006.587,527923.259,1,40,,
trial,html.Screen,6_31_0,2023-11-15T16:44:11.037Z,,,,1,-1.0751036484083878,1.143906455483852,,true,hl,5090.941000000224,response,0.8816288864119318,0.9499999999999997,-0.9499999999999997,-0.801867301188093,0.9499999999999997,-0.9499999999999997,high,low,,ISIC_0064406.JPG,,ISIC_9196783.JPG,26,true,hl,keypress(j),0,false,533014.2000000002,533014.2000000002,527906.551,528198.5,527923.259,532740.021,1,40,32,
sequence,flow.Sequence,6_31,2023-11-15T16:44:11.037Z,,,,,,,,,,5090.941000000224,completion,,,,,,,high,low,,,,,,true,,,,false,533014.5,533014.2000000002,527906.551,528198.5,527923.259,532740.021,1,40,,
trial,html.Screen,6_32_0,2023-11-15T16:44:15.789Z,,,,1,1.0022829373011404,-0.8311726972863814,,true,lh,5026.578999999678,response,-0.8534691366511764,0.9499999999999997,-0.9499999999999997,1.03975580494588,0.9499999999999997,-0.9499999999999997,low,high,,ISIC_0033287.JPG,,ISIC_0056788.JPG,28,true,lh,keypress(e),0,false,537766.7000000002,537766.5999999996,532723.395,533014.5,532740.021,537490.197,1,40,33,
sequence,flow.Sequence,6_32,2023-11-15T16:44:15.789Z,,,,,,,,,,5026.578999999678,completion,,,,,,,low,high,,,,,,true,,,,false,537766.7999999998,537766.5999999996,532723.395,533014.5,532740.021,537490.197,1,40,,
trial,html.Screen,6_33_0,2023-11-15T16:44:21.773Z,,,,1,0.7916641003387539,0.8795523971208432,,true,ll,6260.203000000329,response,-0.898110633304784,0.9499999999999997,-0.9499999999999997,-0.9140284419528476,0.9499999999999997,-0.9499999999999997,low,low,,ISIC_0069635.JPG,,ISIC_7210119.JPG,142,true,ll,keypress(f),0,false,543750.5999999996,543750.4000000004,537473.125,537766.9000000004,537490.197,543473.303,1,40,34,
sequence,flow.Sequence,6_33,2023-11-15T16:44:21.773Z,,,,,,,,,,6260.203000000329,completion,,,,,,,low,low,,,,,,true,,,,false,543750.7999999998,543750.4000000004,537473.125,537766.9000000004,537490.197,543473.303,1,40,,
trial,html.Screen,6_34_0,2023-11-15T16:44:26.909Z,,,,1,1.0687084488958063,0.8837970437785844,,true,ll,5413.296999999671,response,-0.9949403898803344,0.9499999999999997,-0.9499999999999997,-1.0036806409150678,0.9499999999999997,-0.9499999999999997,low,low,,ISIC_0072714.JPG,,ISIC_0012450.JPG,142,true,ll,keypress(f),0,false,548886.7999999998,548886.5999999996,543456.46,543750.7999999998,543473.303,548606.729,1,40,35,
sequence,flow.Sequence,6_34,2023-11-15T16:44:26.910Z,,,,,,,,,,5413.296999999671,completion,,,,,,,low,low,,,,,,true,,,,false,548886.9000000004,548886.5999999996,543456.46,543750.7999999998,543473.303,548606.729,1,40,,
trial,html.Screen,6_35_0,2023-11-15T16:44:30.413Z,,,,1,0.9779950356676737,0.8379472703169347,,true,ll,3783.5709999997634,response,-0.8814695482989191,0.9499999999999997,-0.9499999999999997,-0.8440767077088777,0.9499999999999997,-0.9499999999999997,low,low,,ISIC_1979534.JPG,,ISIC_6392461.JPG,142,true,ll,keypress(f),0,false,552390.4000000004,552390.2999999998,548589.793,548887,548606.729,552106.726,1,40,36,
sequence,flow.Sequence,6_35,2023-11-15T16:44:30.413Z,,,,,,,,,,3783.5709999997634,completion,,,,,,,low,low,,,,,,true,,,,false,552390.5,552390.2999999998,548589.793,548887,548606.729,552106.726,1,40,,
trial,html.Screen,6_36_0,2023-11-15T16:44:35.965Z,,,,1,-0.8534691366511764,1.03975580494588,,true,hl,5835.373999999603,response,0.7911024675435955,0.9499999999999997,-0.9499999999999997,-0.7975977016137676,0.9499999999999997,-0.9499999999999997,high,low,,ISIC_0056788.JPG,,ISIC_5813642.JPG,26,true,hl,keypress(j),0,false,557942.0999999996,557942.0999999996,552090.085,552390.5999999996,552106.726,557656.657,1,40,37,
sequence,flow.Sequence,6_36,2023-11-15T16:44:35.965Z,,,,,,,,,,5835.373999999603,completion,,,,,,,high,low,,,,,,true,,,,false,557942.2999999998,557942.0999999996,552090.085,552390.5999999996,552106.726,557656.657,1,40,,
trial,html.Screen,6_37_0,2023-11-15T16:44:41.118Z,,,,1,1.1135119625680223,0.8824045702297937,,true,ll,5438.442999999621,response,-0.9962130178668478,0.9499999999999997,-0.9499999999999997,-1.0198919808587756,0.9499999999999997,-0.9499999999999997,low,low,,ISIC_6899527.JPG,,ISIC_0595080.JPG,142,true,ll,keypress(f),0,false,563095.2999999998,563095.0999999996,557639.784,557942.4000000004,557656.657,562824.451,1,40,38,
sequence,flow.Sequence,6_37,2023-11-15T16:44:41.118Z,,,,,,,,,,5438.442999999621,completion,,,,,,,low,low,,,,,,true,,,,false,563095.5999999996,563095.0999999996,557639.784,557942.4000000004,557656.657,562824.451,1,40,,
trial,html.Screen,6_38_0,2023-11-15T16:44:45.869Z,,,,1,-0.8859261802814055,-0.9191342361964594,,true,hh,5021.848999999813,response,1.101346104814838,0.9499999999999997,-0.9499999999999997,1.1225813067473052,0.9499999999999997,-0.9499999999999997,high,high,,ISIC_0029395.JPG,,ISIC_8175453.JPG,167,true,hh,keypress(i),0,false,567846.4000000004,567846.2999999998,562790.13,563095.7999999998,562824.451,567573.324,1,40,39,
sequence,flow.Sequence,6_38,2023-11-15T16:44:45.869Z,,,,,,,,,,5021.848999999813,completion,,,,,,,high,high,,,,,,true,,,,false,567846.5,567846.2999999998,562790.13,563095.7000000002,562824.451,567573.324,1,40,,
trial,html.Screen,6_39_0,2023-11-15T16:44:49.437Z,,,,1,-0.8534691366511764,1.03975580494588,,true,hl,3840.876000000164,response,0.809764442462202,0.9499999999999997,-0.9499999999999997,-1.005337148078696,0.9499999999999997,-0.9499999999999997,high,low,,ISIC_0056788.JPG,,ISIC_2379379.JPG,26,true,hl,keypress(j),0,false,571414.2999999998,571414.2000000002,567556.55,567846.5999999996,567573.324,571140.012,1,40,40,
sequence,flow.Sequence,6_39,2023-11-15T16:44:49.437Z,,,,,,,,,,3840.876000000164,completion,,,,,,,high,low,,,,,,true,,,,false,571414.5,571414.2000000002,567556.55,567846.5999999996,567573.324,571140.012,1,40,,
practice_loop,flow.Loop,6,2023-11-15T16:44:49.437Z,,,,,,,,,,223224.54900000017,completion,,,,,,,,,,,,,,true,,,,false,571414.5,571414.2000000002,348173.069,348488,348189.651,571140.012,1,40,,
stair_instructions,html.Screen,7,2023-11-15T16:45:52.428Z,,,,,,,,,,63265.6880000002,response,,,,,,,,,,,,,,,continue,click button,,,634406.2000000002,634405.7000000002,571123.436,571414.5999999996,571140.012,634123.424,,,,
trial,html.Screen,8_0_0,2023-11-15T16:45:57.648Z,,,,2,-0.0277178575053843,0.0395587463147856,,false,hl,5502.276000000187,response,1.0115965332688306,0.9499999999999997,-0.9499999999999997,-0.8282633603842442,0.9499999999999997,-0.9499999999999997,high,low,,ISIC_0010807.JPG,,ISIC_1069587.JPG,26,false,lh,keypress(e),0,true,639625.7000000002,639625.7000000002,634107.013,634406.2999999998,634123.424,639356.817,1,40,1,
sequence,flow.Sequence,8_0,2023-11-15T16:45:57.648Z,,,,,,,,,,5502.276000000187,completion,,,,,,,high,low,,,,,,false,,,,true,639625.9000000004,639625.7000000002,634107.013,634406.2999999998,634123.424,639356.817,1,40,,
trial,html.Screen,8_1_0,2023-11-15T16:46:02.444Z,,,,2,0.0107854985447517,0.0478010417136109,,false,hl,5065.282999999588,response,1.0122398223568725,0.9499999999999997,-0.8999999999999997,-0.7505228537454216,0.8999999999999997,-0.9499999999999997,high,low,,ISIC_0010500.JPG,,ISIC_0033802.JPG,26,false,hh,keypress(i),0,true,644422.0999999996,644422.0999999996,639340.107,639625.9000000004,639356.817,644140.039,1,40,2,
sequence,flow.Sequence,8_1,2023-11-15T16:46:02.444Z,,,,,,,,,,5065.282999999588,completion,,,,,,,high,low,,,,,,false,,,,true,644422.2999999998,644422.0999999996,639340.107,639625.9000000004,639356.817,644140.039,1,40,,
trial,html.Screen,8_2_0,2023-11-15T16:46:13.184Z,,,,2,-0.0112310719058792,0.0469047359904117,,,,10750.834999999963,timeout,-0.9644643328174062,0.9499999999999997,-0.8999999999999997,0.745333984830218,0.8999999999999997,-0.9999999999999998,low,high,,ISIC_0068184.JPG,,ISIC_0058046.JPG,38,false,,,0,true,655162.0999999996,655161.7999999998,644123.271,644422.2999999998,644140.039,654890.874,1,40,3,
sequence,flow.Sequence,8_2,2023-11-15T16:46:13.184Z,,,,,,,,,,11021.760999999824,completion,,,,,,,low,high,,,,,,false,,,,true,655162.4000000004,655161.7999999998,644123.271,644422.2999999998,644140.039,654890.874,1,40,,
trial,html.Screen,8_3_0,2023-11-15T16:46:19.084Z,,,,2,0.0116094682222121,-0.0258434522530318,,true,lh,6171.326000000234,response,-0.9644643328174062,0.9499999999999997,-0.8999999999999997,0.745333984830218,0.8999999999999997,-0.9999999999999998,low,high,,ISIC_9239632.JPG,,ISIC_0058046.JPG,38,false,lh,keypress(e),0,true,661062.2999999998,661062.2000000002,654857.107,655162.5,654890.874,660790.887,1,40,4,
sequence,flow.Sequence,8_3,2023-11-15T16:46:19.084Z,,,,,,,,,,6171.326000000234,completion,,,,,,,low,high,,,,,,false,,,,true,661062.4000000004,661062.2000000002,654857.107,655162.5,654890.874,660790.887,1,40,,
trial,html.Screen,8_4_0,2023-11-15T16:46:25.199Z,,,,2,0.0509970506474296,0.0744820958440291,,true,ll,6386.313000000198,response,-0.9031332540970408,0.9499999999999997,-0.8999999999999997,-0.853200189915778,0.8999999999999997,-0.9999999999999998,low,low,,ISIC_0009975.JPG,,ISIC_4679971.JPG,153,false,ll,keypress(f),0,true,667177.2999999998,667177.2000000002,660756.611,661062.5,660790.887,666890.133,1,40,5,
sequence,flow.Sequence,8_4,2023-11-15T16:46:25.199Z,,,,,,,,,,6386.313000000198,completion,,,,,,,low,low,,,,,,false,,,,true,667177.4000000004,667177.2000000002,660756.611,661062.5,660790.887,666890.133,1,40,,
trial,html.Screen,8_5_0,2023-11-15T16:46:28.413Z,,,,2,-0.0565575423757561,-0.0394300226801425,,true,hh,3501.0670000001555,response,0.8345422969075986,0.9499999999999997,-0.8281667220064093,1.01309388434443,0.8999999999999997,-0.9999999999999998,high,high,,ISIC_0046983.JPG,,ISIC_1241817.JPG,178,false,hh,keypress(i),0,true,670391.4000000004,670391.2000000002,666873.275,667177.5,666890.133,670106.865,1,40,6,
sequence,flow.Sequence,8_5,2023-11-15T16:46:28.414Z,,,,,,,,,,3501.0670000001555,completion,,,,,,,high,high,,,,,,false,,,,true,670391.9000000004,670391.2000000002,666873.275,667177.4000000004,666890.133,670106.865,1,40,,
trial,html.Screen,8_6_0,2023-11-15T16:46:35.964Z,,,,2,0.0324770283903853,0.0249968632204382,,false,hh,7835.234999999637,response,0.9735583105865782,0.8999999999999997,-0.8281667220064093,0.9340146106918494,0.8499999999999996,-0.9999999999999998,high,high,,ISIC_7266462.JPG,,ISIC_0065204.JPG,217,false,hl,keypress(j),0,true,677942.0999999996,677942.0999999996,670090.315,670392.0999999996,670106.865,677656.844,1,40,7,
sequence,flow.Sequence,8_6,2023-11-15T16:46:35.964Z,,,,,,,,,,7835.234999999637,completion,,,,,,,high,high,,,,,,false,,,,true,677942.2000000002,677942.0999999996,670090.315,670392,670106.865,677656.844,1,40,,
trial,html.Screen,8_7_0,2023-11-15T16:46:45.468Z,,,,2,0.0085520978188085,-0.0464691161264081,,false,lh,9789.356000000145,response,-0.7133243033950115,0.8999999999999997,-0.8281667220064093,0.9575090175925351,0.8999999999999997,-0.9999999999999998,low,high,,ISIC_0758797.JPG,,ISIC_1369273.JPG,52,false,hl,keypress(j),0,true,687446.4000000004,687446.2000000002,677640.142,677942.2999999998,677656.844,687173.754,1,40,8,
sequence,flow.Sequence,8_7,2023-11-15T16:46:45.468Z,,,,,,,,,,9789.356000000145,completion,,,,,,,low,high,,,,,,false,,,,true,687446.4000000004,687446.2000000002,677640.142,677942.2999999998,677656.844,687173.754,1,40,,
trial,html.Screen,8_8_0,2023-11-15T16:46:51.118Z,,,,2,0.0107854985447517,0.0478010417136109,,false,lh,5921.746000000043,response,-0.7784583866003763,0.8999999999999997,-0.8781667220064093,0.9641514808986528,0.9499999999999997,-0.9999999999999998,low,high,,ISIC_0010500.JPG,,ISIC_0011924.JPG,38,false,hh,keypress(i),0,true,693095.7000000002,693095.5,687156.861,687446.5,687173.754,692840.209,1,40,9,
sequence,flow.Sequence,8_8,2023-11-15T16:46:51.118Z,,,,,,,,,,5921.746000000043,completion,,,,,,,low,high,,,,,,false,,,,true,693096.0999999996,693095.5,687156.861,687446.5,687173.754,692840.209,1,40,,
trial,html.Screen,8_9_0,2023-11-15T16:46:56.189Z,,,,2,0.0608867680161491,0.0206384042070211,,true,ll,5326.491000000155,response,-1.008381128411934,0.8999999999999997,-0.9281667220064094,-1.0088020117106191,0.9499999999999997,-0.9999999999999998,low,low,,ISIC_0640806.JPG,,ISIC_6546903.JPG,146,false,ll,keypress(f),0,true,698166.9000000004,698166.7000000002,692823.783,693096.2999999998,692840.209,697890.233,1,40,10,
sequence,flow.Sequence,8_9,2023-11-15T16:46:56.189Z,,,,,,,,,,5326.491000000155,completion,,,,,,,low,low,,,,,,false,,,,true,698167.0999999996,698166.7000000002,692823.783,693096.2000000002,692840.209,697890.233,1,40,,
trial,html.Screen,8_10_0,2023-11-15T16:47:01.533Z,,,,2,-0.0691769743257167,0.0638501824668941,,true,hh,5620.167000000365,response,0.9441762364280936,0.8999999999999997,-0.9281667220064094,0.7652061050527971,0.9499999999999997,-0.9585915700612764,high,high,,ISIC_0031914.JPG,,ISIC_0065521.JPG,187,false,hh,keypress(i),0,true,703510.5,703510.4000000004,697873.366,698167.2000000002,697890.233,703223.521,1,40,11,
sequence,flow.Sequence,8_10,2023-11-15T16:47:01.533Z,,,,,,,,,,5620.167000000365,completion,,,,,,,high,high,,,,,,false,,,,true,703510.7000000002,703510.4000000004,697873.366,698167.0999999996,697890.233,703223.521,1,40,,
trial,html.Screen,8_11_0,2023-11-15T16:47:06.509Z,,,,2,-0.0102460616775615,0.0309670599545429,,false,lh,5263.47900000005,response,-0.9696118525781644,0.8499999999999996,-0.9281667220064094,0.9244148283103414,0.8999999999999997,-0.9585915700612764,low,high,,ISIC_0072041.JPG,,ISIC_7927525.JPG,40,false,hl,keypress(j),0,true,708487.2000000002,708487,703206.692,703510.7000000002,703223.521,708206.868,1,40,12,
sequence,flow.Sequence,8_11,2023-11-15T16:47:06.510Z,,,,,,,,,,5263.47900000005,completion,,,,,,,low,high,,,,,,false,,,,true,708487.4000000004,708487,703206.692,703510.7000000002,703223.521,708206.868,1,40,,
trial,html.Screen,8_12_0,2023-11-15T16:47:09.389Z,,,,2,-0.0188047466661863,0.0288346930436979,,false,hl,3160.0320000003558,response,0.8035152873995188,0.8499999999999996,-0.9781667220064094,-0.82868450251632,0.9499999999999997,-0.9585915700612764,high,low,,ISIC_0014157.JPG,,ISIC_0010671.JPG,39,false,hh,keypress(i),0,true,711367.0999999996,711366.9000000004,708190.044,708487.4000000004,708206.868,711090.52,1,40,13,
sequence,flow.Sequence,8_12,2023-11-15T16:47:09.390Z,,,,,,,,,,3160.0320000003558,completion,,,,,,,high,low,,,,,,false,,,,true,711367.4000000004,711366.9000000004,708190.044,708487.4000000004,708206.868,711090.52,1,40,,
trial,html.Screen,8_13_0,2023-11-15T16:47:15.822Z,,,,2,-0.0552031398781121,-0.0652612426529481,,false,lh,6709.279999999795,response,-0.7836356408583546,0.8499999999999996,-0.9781667220064094,1.1197925594706428,0.9499999999999997,-1.0085915700612764,low,high,,ISIC_0024226.JPG,,ISIC_0024961.JPG,28,false,hl,keypress(j),0,true,717800.0999999996,717799.7999999998,711073.792,711367.4000000004,711090.52,717523.517,1,40,14,
sequence,flow.Sequence,8_13,2023-11-15T16:47:15.823Z,,,,,,,,,,6709.279999999795,completion,,,,,,,low,high,,,,,,false,,,,true,717800.5,717799.7999999998,711073.792,711367.4000000004,711090.52,717523.517,1,40,,
trial,html.Screen,8_14_0,2023-11-15T16:47:19.949Z,,,,2,-0.0051189696037511,0.0396625911332438,,false,lh,4402.983000000007,response,-0.8809306963311293,0.8499999999999996,-1.0281667220064095,0.8614910030038974,0.9999999999999998,-1.0085915700612764,low,high,,ISIC_9742891.JPG,,ISIC_0013731.JPG,22,false,ll,keypress(f),0,true,721926.5999999996,721926.5,717506.941,717800.7000000002,717523.517,721640.291,1,40,15,
sequence,flow.Sequence,8_14,2023-11-15T16:47:19.949Z,,,,,,,,,,4402.983000000007,completion,,,,,,,low,high,,,,,,false,,,,true,721926.5999999996,721926.5,717506.941,717800.7000000002,717523.517,721640.291,1,40,,
trial,html.Screen,8_15_0,2023-11-15T16:47:24.013Z,,,,2,-0.0021038737988857,0.0570427519488725,,true,hh,4350.008999999845,response,0.9342143229318964,0.8499999999999996,-1.0281667220064095,1.195482218669593,1.0499999999999998,-1.0085915700612764,high,high,,ISIC_3596927.JPG,,ISIC_8073555.JPG,156,false,hh,keypress(i),0,true,725990.5,725990.2999999998,721623.766,721926.5999999996,721640.291,725706.9,1,40,16,
sequence,flow.Sequence,8_15,2023-11-15T16:47:24.013Z,,,,,,,,,,4350.008999999845,completion,,,,,,,high,high,,,,,,false,,,,true,725990.5999999996,725990.2999999998,721623.766,721926.5999999996,721640.291,725706.9,1,40,,
trial,html.Screen,8_16_0,2023-11-15T16:47:31.964Z,,,,2,0.0057914759495055,0.0074667911845194,,true,hl,8235.099999999977,response,0.796241477082623,0.9648482708007446,-0.9781667220064094,-0.9017449335975743,0.9999999999999998,-0.9585915700612764,high,low,,ISIC_0058723.JPG,,ISIC_8588033.JPG,24,false,hl,keypress(j),0,true,733942.2000000002,733942,725690.106,725990.5999999996,725706.9,733656.906,1,40,17,
sequence,flow.Sequence,8_16,2023-11-15T16:47:31.965Z,,,,,,,,,,8235.099999999977,completion,,,,,,,high,low,,,,,,false,,,,true,733942.2999999998,733942,725690.106,725990.5999999996,725706.9,733656.906,1,40,,
trial,html.Screen,8_17_0,2023-11-15T16:47:36.253Z,,,,2,,-0.0264544974620926,,true,ll,4573.294000000227,response,-1.007248440493079,0.9648482708007446,-0.9781667220064094,-0.8493817247965978,0.9999999999999998,-0.9585915700612764,low,low,,ISIC_0056991.JPG,,ISIC_0030219.JPG,142,false,ll,keypress(f),0,true,738230.2999999998,738230.2000000002,733639.923,733942.4000000004,733656.906,737956.964,1,40,18,
sequence,flow.Sequence,8_17,2023-11-15T16:47:36.253Z,,,,,,,,,,4573.294000000227,completion,,,,,,,low,low,,,,,,false,,,,true,738230.4000000004,738230.2000000002,733639.923,733942.2999999998,733656.906,737956.964,1,40,,
trial,html.Screen,8_18_0,2023-11-15T16:47:42.814Z,,,,2,-0.0552031398781121,-0.0652612426529481,,true,hl,6834.335999999777,response,1.0115965332688306,0.9648482708007446,-0.8255633291970861,-0.8282633603842442,0.9999999999999998,-0.8255633291970861,high,low,,ISIC_0024226.JPG,,ISIC_1069587.JPG,36,false,hl,keypress(j),0,true,744791.5999999996,744791.2999999998,737940.386,738230.4000000004,737956.964,744506.953,1,40,19,
sequence,flow.Sequence,8_18,2023-11-15T16:47:42.814Z,,,,,,,,,,6834.335999999777,completion,,,,,,,high,low,,,,,,false,,,,true,744791.7999999998,744791.2999999998,737940.386,738230.4000000004,737956.964,744506.953,1,40,,
trial,html.Screen,8_19_0,2023-11-15T16:47:48.364Z,,,,2,-0.0348234368746005,0.0236866303880924,,true,hh,5835.0470000000205,response,1.00170887975541,0.9148482708007446,-0.8255633291970861,0.8949188450526304,0.9999999999999998,-0.8255633291970861,high,high,,ISIC_0011099.JPG,,ISIC_0057067.JPG,156,false,hh,keypress(i),0,true,750342.2000000002,750342,744490.065,744792,744506.953,750056.936,1,40,20,
sequence,flow.Sequence,8_19,2023-11-15T16:47:48.365Z,,,,,,,,,,5835.0470000000205,completion,,,,,,,high,high,,,,,,false,,,,true,750342.2999999998,750342,744490.065,744792,744506.953,750056.936,1,40,,
trial,html.Screen,8_20_0,2023-11-15T16:47:51.405Z,,,,2,0.0107854985447517,0.0478010417136109,,false,lh,3325.564000000013,response,-0.640368147287078,0.9148482708007446,-0.8255633291970861,0.9390639372028852,0.8983138624040201,-0.8255633291970861,low,high,,ISIC_0010500.JPG,,ISIC_0030393.JPG,55,false,hh,keypress(i),0,true,753382.7000000002,753382.5,750040.448,750342.4000000004,750056.936,753106.989,1,40,21,
sequence,flow.Sequence,8_20,2023-11-15T16:47:51.405Z,,,,,,,,,,3325.564000000013,completion,,,,,,,low,high,,,,,,false,,,,true,753382.9000000004,753382.5,750040.448,750342.2999999998,750056.936,753106.989,1,40,,
trial,html.Screen,8_21_0,2023-11-15T16:47:55.405Z,,,,2,-0.0097091270150747,0.0417921315885292,,false,hl,4276.011000000057,response,0.7911024675435955,0.9148482708007446,-0.8755633291970861,-0.7975977016137676,0.8983138624040201,-0.8255633291970861,high,low,,ISIC_3967213.JPG,,ISIC_5813642.JPG,39,false,ll,keypress(f),0,true,757383.2000000002,757383,753090.195,753383,753106.989,757106.927,1,40,22,
sequence,flow.Sequence,8_21,2023-11-15T16:47:55.405Z,,,,,,,,,,4276.011000000057,completion,,,,,,,high,low,,,,,,false,,,,true,757383.2999999998,757383,753090.195,753382.9000000004,753106.989,757106.927,1,40,,
trial,html.Screen,8_22_0,2023-11-15T16:47:59.724Z,,,,2,0.0324770283903853,0.0249968632204382,,true,ll,4595.473000000347,response,-0.8204675838867859,0.9648482708007446,-0.8755633291970861,-0.706103616996161,0.8983138624040201,-0.775563329197086,low,low,,ISIC_7266462.JPG,,ISIC_0945844.JPG,230,false,ll,keypress(f),0,true,761702.5999999996,761702.4000000004,757090.107,757383.4000000004,757106.927,761423.842,1,40,23,
sequence,flow.Sequence,8_22,2023-11-15T16:47:59.725Z,,,,,,,,,,4595.473000000347,completion,,,,,,,low,low,,,,,,false,,,,true,761702.5999999996,761702.4000000004,757090.107,757383.4000000004,757106.927,761423.842,1,40,,
trial,html.Screen,8_23_0,2023-11-15T16:48:03.869Z,,,,2,0.0069555338059566,-0.0310100918136373,,false,lh,4422.7579999996815,response,-0.8136669413088868,0.9648482708007446,-0.8755633291970861,0.725304760326023,0.8983138624040201,-0.775563329197086,low,high,,ISIC_0011177.JPG,,ISIC_0962121.JPG,43,false,ll,keypress(f),0,true,765846.7000000002,765846.5999999996,761407.118,761702.7000000002,761423.842,765574.028,1,40,24,
sequence,flow.Sequence,8_23,2023-11-15T16:48:03.869Z,,,,,,,,,,4422.7579999996815,completion,,,,,,,low,high,,,,,,false,,,,true,765846.9000000004,765846.5999999996,761407.118,761702.7000000002,761423.842,765574.028,1,40,,
trial,html.Screen,8_24_0,2023-11-15T16:48:09.485Z,,,,2,0.0593670819812057,-0.0718390543903236,,false,ll,5888.571999999578,response,-0.6061078702645484,0.9648482708007446,-0.7098852791525239,-0.6011362971769343,0.9483138624040202,-0.775563329197086,low,low,,ISIC_0062367.JPG,,ISIC_2151856.JPG,302,false,lh,keypress(e),0,true,771462.9000000004,771462.5999999996,765556.78,765846.9000000004,765574.028,771190.523,1,40,25,
sequence,flow.Sequence,8_24,2023-11-15T16:48:09.485Z,,,,,,,,,,5888.571999999578,completion,,,,,,,low,low,,,,,,false,,,,true,771463,771462.5999999996,765556.78,765846.9000000004,765574.028,771190.523,1,40,,
trial,html.Screen,8_25_0,2023-11-15T16:48:12.541Z,,,,2,-0.009234249673026,-0.0627190878028592,,true,lh,3327.9769999999553,response,-0.8860551570327019,0.9648482708007446,-0.7098852791525239,0.8067116931297591,0.9483138624040202,-0.8255633291970861,low,high,,ISIC_0053760.JPG,,ISIC_1457687.JPG,55,false,lh,keypress(e),0,true,774518.5999999996,774518.5,771173.456,771463.0999999996,771190.523,774240.62,1,40,26,
sequence,flow.Sequence,8_25,2023-11-15T16:48:12.541Z,,,,,,,,,,3327.9769999999553,completion,,,,,,,low,high,,,,,,false,,,,true,774518.7999999998,774518.5,771173.456,771463.0999999996,771190.523,774240.62,1,40,,
trial,html.Screen,8_26_0,2023-11-15T16:48:17.757Z,,,,2,-0.059471106306043,0.0678292174694111,,true,hl,5494.380000000005,response,0.991146183030456,0.9648482708007446,-0.6598852791525238,-0.9949639823722534,0.9483138624040202,-0.8255633291970861,high,low,,ISIC_0015631.JPG,,ISIC_6342224.JPG,36,false,hl,keypress(j),0,true,779735.0999999996,779735,774223.538,774518.9000000004,774240.62,779457.061,1,40,27,
sequence,flow.Sequence,8_26,2023-11-15T16:48:17.757Z,,,,,,,,,,5494.380000000005,completion,,,,,,,high,low,,,,,,false,,,,true,779735.4000000004,779735,774223.538,774518.9000000004,774240.62,779457.061,1,40,,
trial,html.Screen,8_27_0,2023-11-15T16:48:23.101Z,,,,2,0.0217698886732706,-0.0410870915161425,,false,ll,5621.939000000013,response,-0.8567540193348798,0.9648482708007446,-0.6598852791525238,-0.682610301523578,0.9483138624040202,-0.8255633291970861,low,low,,ISIC_0072173.JPG,,ISIC_1315123.JPG,271,false,lh,keypress(e),0,true,785079.2000000002,785079,779440.263,779735.5,779457.061,784808.173,1,40,28,
sequence,flow.Sequence,8_27,2023-11-15T16:48:23.101Z,,,,,,,,,,5621.939000000013,completion,,,,,,,low,low,,,,,,false,,,,true,785079.4000000004,785079,779440.263,779735.5,779457.061,784808.173,1,40,,
trial,html.Screen,8_28_0,2023-11-15T16:48:30.334Z,,,,2,0.0389988030702649,0.0143212271490256,,false,ll,7503.527000000235,response,-0.6811261841091603,0.9648482708007446,-0.6598852791525238,-0.857279063906232,0.9483138624040202,-0.8755633291970861,low,low,,ISIC_0064669.JPG,,ISIC_1398618.JPG,246,false,hl,keypress(j),0,true,792311.7999999998,792311.7000000002,784773.619,785079.5,784808.173,792023.654,1,40,29,
sequence,flow.Sequence,8_28,2023-11-15T16:48:30.334Z,,,,,,,,,,7503.527000000235,completion,,,,,,,low,low,,,,,,false,,,,true,792312,792311.7000000002,784773.619,785079.5,784808.173,792023.654,1,40,,
trial,html.Screen,8_29_0,2023-11-15T16:48:39.741Z,,,,2,,-0.0264544974620926,,false,hh,9695.746000000392,response,1.0022982145596024,0.9648482708007446,-0.7098852791525239,0.9703352077282876,0.9483138624040202,-0.8755633291970861,high,high,,ISIC_0056991.JPG,,ISIC_0011930.JPG,159,false,lh,keypress(e),0,true,801719.5,801719.4000000004,792006.755,792312,792023.654,801440.385,1,40,30,
sequence,flow.Sequence,8_29,2023-11-15T16:48:39.742Z,,,,,,,,,,9695.746000000392,completion,,,,,,,high,high,,,,,,false,,,,true,801719.9000000004,801719.4000000004,792006.755,792312,792023.654,801440.385,1,40,,
trial,html.Screen,8_30_0,2023-11-15T16:48:42.396Z,,,,2,0.0111354529246037,-0.0585810480909377,,true,hh,2933.515000000363,response,0.8345422969075986,1.0148482708007447,-0.7098852791525239,1.01309388434443,0.8983138624040201,-0.8755633291970861,high,high,,ISIC_7858034.JPG,,ISIC_1241817.JPG,166,false,hh,keypress(i),0,true,804373.9000000004,804373.9000000004,801423.673,801720,801440.385,804090.397,1,40,31,
sequence,flow.Sequence,8_30,2023-11-15T16:48:42.396Z,,,,,,,,,,2933.515000000363,completion,,,,,,,high,high,,,,,,false,,,,true,804374.0999999996,804373.9000000004,801423.673,801719.9000000004,801440.385,804090.397,1,40,,
trial,html.Screen,8_31_0,2023-11-15T16:48:46.492Z,,,,2,0.0324770283903853,0.0249968632204382,,true,ll,4379.9029999998165,response,-0.7055427605250187,1.0148482708007447,-0.7098852791525239,-0.7933847109872884,0.8983138624040201,-0.8755633291970861,low,low,,ISIC_7266462.JPG,,ISIC_3552318.JPG,242,false,ll,keypress(f),0,true,808470.4000000004,808470.2999999998,804073.836,804374.0999999996,804090.397,808190.366,1,40,32,
sequence,flow.Sequence,8_31,2023-11-15T16:48:46.492Z,,,,,,,,,,4379.9029999998165,completion,,,,,,,low,low,,,,,,false,,,,true,808470.5,808470.2999999998,804073.836,804374.0999999996,804090.397,808190.366,1,40,,
trial,html.Screen,8_32_0,2023-11-15T16:48:53.853Z,,,,2,-0.0245585387483123,0.053462758614929,,false,hh,7641.034000000334,response,1.0570568707560892,1.0148482708007447,-0.7098852791525239,0.8316850702452728,0.8983138624040201,-0.6994637357561535,high,high,,ISIC_3389704.JPG,,ISIC_0059294.JPG,166,false,hl,keypress(j),0,true,815831.5999999996,815831.4000000004,808173.803,808470.5,808190.366,815557.065,1,40,33,
sequence,flow.Sequence,8_32,2023-11-15T16:48:53.853Z,,,,,,,,,,7641.034000000334,completion,,,,,,,high,high,,,,,,false,,,,true,815831.9000000004,815831.4000000004,808173.803,808470.5,808190.366,815557.065,1,40,,
trial,html.Screen,8_33_0,2023-11-15T16:48:59.020Z,,,,2,-0.0362376068089956,-0.047825070846155,,false,hl,5441.335000000428,response,0.9580096600137252,0.9648482708007446,-0.7098852791525239,-0.6337880611168651,0.9483138624040202,-0.6994637357561535,high,low,,ISIC_6985114.JPG,,ISIC_0026008.JPG,49,false,hh,keypress(i),0,true,820998.5999999996,820998.4000000004,815540.355,815832,815557.065,820723.799,1,40,34,
sequence,flow.Sequence,8_33,2023-11-15T16:48:59.020Z,,,,,,,,,,5441.335000000428,completion,,,,,,,high,low,,,,,,false,,,,true,820998.7000000002,820998.4000000004,815540.355,815832,815557.065,820723.799,1,40,,
trial,html.Screen,8_34_0,2023-11-15T16:49:01.196Z,,,,2,0.0116094682222121,-0.0258434522530318,,false,hl,2450.901000000187,response,0.7809949855371787,0.9648482708007446,-0.7098852791525239,-0.8493861117004308,0.9483138624040202,-0.7494637357561535,high,low,,ISIC_9239632.JPG,,ISIC_7450481.JPG,45,false,hh,keypress(i),0,true,823174.7999999998,823174.7000000002,820706.87,820998.7000000002,820723.799,822890.387,1,40,35,
sequence,flow.Sequence,8_34,2023-11-15T16:49:01.196Z,,,,,,,,,,2450.901000000187,completion,,,,,,,high,low,,,,,,false,,,,true,823175,823174.7000000002,820706.87,820998.7000000002,820723.799,822890.387,1,40,,
trial,html.Screen,8_35_0,2023-11-15T16:49:06.332Z,,,,2,0.0450282431170921,,,true,ll,5419.912999999826,response,-0.7940465751898268,0.8195023227754519,-0.7098852791525239,-0.6590086358119718,0.9483138624040202,-0.7994637357561536,low,low,,ISIC_1805163.JPG,,ISIC_5509212.JPG,285,false,ll,keypress(f),0,true,828310.5,828310.2999999998,822873.973,823175,822890.387,828023.711,1,40,36,
sequence,flow.Sequence,8_35,2023-11-15T16:49:06.332Z,,,,,,,,,,5419.912999999826,completion,,,,,,,low,low,,,,,,false,,,,true,828310.5999999996,828310.2999999998,822873.973,823175,822890.387,828023.711,1,40,,
trial,html.Screen,8_36_0,2023-11-15T16:49:12.412Z,,,,2,0.0194167651857046,0.0726253809408601,,false,hh,6367.189000000362,response,0.702477032088119,0.8195023227754519,-0.6765276055008993,0.8469021389525918,0.9483138624040202,-0.7994637357561536,high,high,,ISIC_0056692.JPG,,ISIC_0579562.JPG,202,false,lh,keypress(e),0,true,834391,834390.9000000004,828007.126,828310.7000000002,828023.711,834107.077,1,40,37,
sequence,flow.Sequence,8_36,2023-11-15T16:49:12.413Z,,,,,,,,,,6367.189000000362,completion,,,,,,,high,high,,,,,,false,,,,true,834391.2999999998,834390.9000000004,828007.126,828310.7000000002,828023.711,834107.077,1,40,,
trial,html.Screen,8_37_0,2023-11-15T16:49:16.252Z,,,,2,-0.0220322185490382,-0.0740918837949419,,false,hl,4123.422999999952,response,0.8087127179888679,0.8695023227754519,-0.6765276055008993,-0.6577744279636221,0.9483138624040202,-0.7994637357561536,high,low,,ISIC_8105020.JPG,,ISIC_3941147.JPG,51,false,hh,keypress(i),0,true,838230.5999999996,838230.5,834090.525,834391.4000000004,834107.077,837957.15,1,40,38,
sequence,flow.Sequence,8_37,2023-11-15T16:49:16.252Z,,,,,,,,,,4123.422999999952,completion,,,,,,,high,low,,,,,,false,,,,true,838230.7000000002,838230.5,834090.525,834391.4000000004,834107.077,837957.15,1,40,,
trial,html.Screen,8_38_0,2023-11-15T16:49:21.981Z,,,,2,0.0085520978188085,-0.0464691161264081,,false,ll,6002.14999999979,response,-0.7723853975066318,0.8695023227754519,-0.6765276055008993,-0.6609799093256855,0.9483138624040202,-0.8494637357561536,low,low,,ISIC_0758797.JPG,,ISIC_0030718.JPG,258,false,hl,keypress(j),0,true,843959.5,843959.2999999998,837940.339,838230.7999999998,837957.15,843673.763,1,40,39,
sequence,flow.Sequence,8_38,2023-11-15T16:49:21.981Z,,,,,,,,,,6002.14999999979,completion,,,,,,,low,low,,,,,,false,,,,true,843959.7999999998,843959.2999999998,837940.339,838230.7999999998,837957.15,843673.763,1,40,,
trial,html.Screen,8_39_0,2023-11-15T16:49:24.221Z,,,,2,-0.0097091270150747,0.0417921315885292,,true,hh,2525.336999999592,response,0.8019171574297028,0.8695023227754519,-0.7265276055008993,1.0925160607978373,0.9483138624040202,-0.8494637357561536,high,high,,ISIC_3967213.JPG,,ISIC_0010925.JPG,191,false,hh,keypress(i),0,true,846199.2999999998,846199.0999999996,843657.103,843960,843673.763,845923.758,1,40,40,
sequence,flow.Sequence,8_39,2023-11-15T16:49:24.221Z,,,,,,,,,,2525.336999999592,completion,,,,,,,high,high,,,,,,false,,,,true,846199.5999999996,846199.0999999996,843657.103,843960,843673.763,845923.758,1,40,,
stair_loop,flow.Loop,8,2023-11-15T16:49:24.221Z,,,,,,,,,,212075.67599999963,completion,,,,,,,,,,,,,,false,,,,true,846199.9000000004,846199.0999999996,634107.013,634406.2000000002,634123.424,845923.758,1,40,,
exp_instructions,html.Screen,9,2023-11-15T16:49:44.524Z,,,,,,,,,,20578.041999999783,response,,,,,,,,,,,,,,,continue,keypress(Space),,,866502.2999999998,866501.7999999998,845907.241,846200,845923.758,866223.783,,,,
trial,html.Screen,10_0_0,2023-11-15T16:49:49.712Z,,,,1,0.0456515796420274,-0.0273567130070961,,true,lh,5466.6170000003185,response,-0.8534691366511764,0.9385117837944217,-0.7288493544311113,1.03975580494588,0.9308138624040204,-0.8101234918207132,low,high,,ISIC_0068610.JPG,9,ISIC_0056788.JPG,58,false,lh,keypress(e),0,false,871690.5,871690.4000000004,866206.555,866502.4000000004,866223.783,871407.082,4,500,1,
break,html.Screen,10_0_1,2023-11-15T16:49:49.712Z,,,,,,,,,,NaN,,,,,,,,low,high,,,,,,false,,,,false,871691,871691,,871690.5999999996,,871407.082,4,500,,
break_continue,html.Screen,10_0_2,2023-11-15T16:49:49.713Z,,,,,,,,,,NaN,,,,,,,,low,high,,,,,,false,,,,false,871691.5,871691.2999999998,,871691.0999999996,,871407.082,4,500,,
sequence,flow.Sequence,10_0,2023-11-15T16:49:49.713Z,,,,,,,,,,5467.51699999976,completion,,,,,,,low,high,,,,,,false,,,,false,871691.5999999996,871691.2999999998,866206.555,866502.4000000004,866223.783,871407.082,4,500,,
trial,html.Screen,10_1_0,2023-11-15T16:49:54.204Z,,,,1,-0.0113873532168551,-0.0054999201556291,,true,hh,4775.517999999574,response,0.8946880006769797,0.9385117837944217,-0.7288493544311113,0.9198276163642348,0.9308138624040204,-0.8101234918207132,high,high,,ISIC_8812621.JPG,9,ISIC_7840728.JPG,173,false,hh,keypress(i),0,false,876183,876182.5999999996,871390.489,871691.7000000002,871407.082,875907.338,4,500,2,
break,html.Screen,10_1_1,2023-11-15T16:49:54.205Z,,,,,,,,,,NaN,,,,,,,,high,high,,,,,,false,,,,false,876183.7000000002,876183.5,,876183.0999999996,,875907.338,4,500,,
break_continue,html.Screen,10_1_2,2023-11-15T16:49:54.205Z,,,,,,,,,,NaN,,,,,,,,high,high,,,,,,false,,,,false,876184.2000000002,876184,,876183.9000000004,,875907.338,4,500,,
sequence,flow.Sequence,10_1,2023-11-15T16:49:54.205Z,,,,,,,,,,4776.917999999947,completion,,,,,,,high,high,,,,,,false,,,,false,876184.2999999998,876184,871390.489,871691.5999999996,871407.082,875907.338,4,500,,
trial,html.Screen,10_2_0,2023-11-15T16:50:02.764Z,,,,1,-0.0409338693593207,0.0072462710499874,,false,lh,8835.461999999825,response,-0.7016683761932542,0.9385117837944217,-0.7288493544311113,1.043794098855853,0.9308138624040204,-0.8101234918207132,low,high,,ISIC_3608788.JPG,10,ISIC_0033117.JPG,58,false,ll,keypress(f),0,false,884742.9000000004,884742.7999999998,875890.396,876184.4000000004,875907.338,884457.161,4,500,3,
break,html.Screen,10_2_1,2023-11-15T16:50:02.764Z,,,,,,,,,,NaN,,,,,,,,low,high,,,,,,false,,,,false,884743.5,884743.2999999998,,884743.0999999996,,884457.161,4,500,,
break_continue,html.Screen,10_2_2,2023-11-15T16:50:02.765Z,,,,,,,,,,NaN,,,,,,,,low,high,,,,,,false,,,,false,884743.7000000002,884743.5999999996,,884743.5,,884457.161,4,500,,
sequence,flow.Sequence,10_2,2023-11-15T16:50:02.765Z,,,,,,,,,,8836.261999999639,completion,,,,,,,low,high,,,,,,false,,,,false,884743.7999999998,884743.5999999996,875890.396,876184.2999999998,875907.338,884457.161,4,500,,
trial,html.Screen,10_3_0,2023-11-15T16:50:04.956Z,,,,1,-0.013431314305098,0.0140597582944232,,true,hh,2477.438999999664,response,1.042408629210669,0.9385117837944217,-0.7288493544311113,0.7942237284714229,0.9308138624040204,-0.8101234918207132,high,high,,ISIC_0069617.JPG,9,ISIC_0026738.JPG,173,false,hh,keypress(i),0,false,886934.7000000002,886934.5999999996,884440.328,884743.9000000004,884457.161,886657.368,4,500,4,
break,html.Screen,10_3_1,2023-11-15T16:50:04.956Z,,,,,,,,,,NaN,,,,,,,,high,high,,,,,,false,,,,false,886935,886934.9000000004,,886934.7999999998,,886657.368,4,500,,
break_continue,html.Screen,10_3_2,2023-11-15T16:50:04.956Z,,,,,,,,,,NaN,,,,,,,,high,high,,,,,,false,,,,false,886935.2000000002,886935.0999999996,,886935,,886657.368,4,500,,
sequence,flow.Sequence,10_3,2023-11-15T16:50:04.956Z,,,,,,,,,,2477.938999999664,completion,,,,,,,high,high,,,,,,false,,,,false,886935.2000000002,886935.0999999996,884440.328,884743.9000000004,884457.161,886657.368,4,500,,
trial,html.Screen,10_4_0,2023-11-15T16:50:11.227Z,,,,1,-0.000047919190197942736,-0.0462652940855003,,false,hl,6549.131999999983,response,0.9873794329144926,0.9385117837944217,-0.7288493544311113,-0.7991077882008257,0.9308138624040204,-0.8101234918207132,high,low,,ISIC_0011507.JPG,9,ISIC_0013498.JPG,41,false,ll,keypress(f),0,false,893206.5999999996,893206.5,886640.771,886935.2999999998,886657.368,892923.814,4,500,5,
break,html.Screen,10_4_1,2023-11-15T16:50:11.228Z,,,,,,,,,,NaN,,,,,,,,high,low,,,,,,false,,,,false,893206.9000000004,893206.9000000004,,893206.7000000002,,892923.814,4,500,,
break_continue,html.Screen,10_4_2,2023-11-15T16:50:11.228Z,,,,,,,,,,NaN,,,,,,,,high,low,,,,,,false,,,,false,893207.0999999996,893207.0999999996,,893206.9000000004,,892923.814,4,500,,
sequence,flow.Sequence,10_4,2023-11-15T16:50:11.228Z,,,,,,,,,,6549.731999999611,completion,,,,,,,high,low,,,,,,false,,,,false,893207.0999999996,893207.0999999996,886640.771,886935.2999999998,886657.368,892923.814,4,500,,
trial,html.Screen,10_5_0,2023-11-15T16:50:16.556Z,,,,1,-0.040191644178716,0.0622582668671422,,false,ll,5611.0860000003595,response,-0.7937617834489431,0.9385117837944217,-0.7288493544311113,-0.7068843308881004,0.9308138624040204,-0.8101234918207132,low,low,,ISIC_6207688.JPG,10,ISIC_0030535.JPG,276,false,lh,keypress(e),0,false,898535.0999999996,898534.9000000004,892907.114,893207.2000000002,892923.814,898257.215,4,500,6,
break,html.Screen,10_5_1,2023-11-15T16:50:16.557Z,,,,,,,,,,NaN,,,,,,,,low,low,,,,,,false,,,,false,898535.7000000002,898535.5999999996,,898535.2000000002,,898257.215,4,500,,
break_continue,html.Screen,10_5_2,2023-11-15T16:50:16.557Z,,,,,,,,,,NaN,,,,,,,,low,low,,,,,,false,,,,false,898536,898535.9000000004,,898535.7999999998,,898257.215,4,500,,
sequence,flow.Sequence,10_5,2023-11-15T16:50:16.557Z,,,,,,,,,,5612.0860000003595,completion,,,,,,,low,low,,,,,,false,,,,false,898536.2000000002,898535.9000000004,892907.114,893207.2000000002,892923.814,898257.215,4,500,,
trial,html.Screen,10_6_0,2023-11-15T16:50:22.988Z,,,,1,0.0085520978188085,-0.0464691161264081,,true,hl,6710.084999999846,response,0.9580096600137252,0.9385117837944217,-0.7288493544311113,-0.6337880611168651,0.9308138624040204,-0.8101234918207132,high,low,,ISIC_0758797.JPG,9,ISIC_0026008.JPG,41,false,hl,keypress(j),0,false,904967.5,904967.2999999998,898240.542,898536.2000000002,898257.215,904690.507,4,500,7,
break,html.Screen,10_6_1,2023-11-15T16:50:22.989Z,,,,,,,,,,NaN,,,,,,,,high,low,,,,,,false,,,,false,904968.2999999998,904968,,904967.7999999998,,904690.507,4,500,,
break_continue,html.Screen,10_6_2,2023-11-15T16:50:22.990Z,,,,,,,,,,NaN,,,,,,,,high,low,,,,,,false,,,,false,904968.7000000002,904968.5999999996,,904968.4000000004,,904690.507,4,500,,
sequence,flow.Sequence,10_6,2023-11-15T16:50:22.990Z,,,,,,,,,,6711.38499999966,completion,,,,,,,high,low,,,,,,false,,,,false,904968.9000000004,904968.5999999996,898240.542,898536.2000000002,898257.215,904690.507,4,500,,
trial,html.Screen,10_7_0,2023-11-15T16:50:26.923Z,,,,1,-0.0087912446525382,-0.0619041869188676,,false,hh,4211.993000000017,response,1.057567724570464,0.9385117837944217,-0.7288493544311113,0.7906457140772123,0.9308138624040204,-0.8101234918207132,high,high,,ISIC_7185913.JPG,10,ISIC_0034162.JPG,173,false,ll,keypress(f),0,false,908902.7000000002,908902.5,904673.772,904969.0999999996,904690.507,908623.87,4,500,8,
break,html.Screen,10_7_1,2023-11-15T16:50:26.924Z,,,,,,,,,,NaN,,,,,,,,high,high,,,,,,false,,,,false,908902.9000000004,908902.9000000004,,908902.7000000002,,908623.87,4,500,,
break_continue,html.Screen,10_7_2,2023-11-15T16:50:26.924Z,,,,,,,,,,NaN,,,,,,,,high,high,,,,,,false,,,,false,908903.0999999996,908903.0999999996,,908903,,908623.87,4,500,,
sequence,flow.Sequence,10_7,2023-11-15T16:50:26.924Z,,,,,,,,,,4212.592999999644,completion,,,,,,,high,high,,,,,,false,,,,false,908903.2000000002,908903.0999999996,904673.772,904969.0999999996,904690.507,908623.87,4,500,,
trial,html.Screen,10_8_0,2023-11-15T16:50:29.403Z,,,,1,-0.0644357632656846,-0.0501167370292348,,false,lh,2758.4299999998184,response,-0.5412990398989956,0.9385117837944217,-0.7288493544311113,0.7866310743585143,0.9308138624040204,-0.8101234918207132,low,high,,ISIC_5207050.JPG,9,ISIC_2702929.JPG,58,false,hh,keypress(i),0,false,911382.4000000004,911382.2999999998,908607.398,908903.2999999998,908623.87,911107.22,4,500,9,
break,html.Screen,10_8_1,2023-11-15T16:50:29.404Z,,,,,,,,,,NaN,,,,,,,,low,high,,,,,,false,,,,false,911383,911382.7999999998,,911382.5,,911107.22,4,500,,
break_continue,html.Screen,10_8_2,2023-11-15T16:50:29.404Z,,,,,,,,,,NaN,,,,,,,,low,high,,,,,,false,,,,false,911383.2999999998,911383.2000000002,,911383.0999999996,,911107.22,4,500,,
sequence,flow.Sequence,10_8,2023-11-15T16:50:29.404Z,,,,,,,,,,2759.330000000191,completion,,,,,,,low,high,,,,,,false,,,,false,911383.2999999998,911383.2000000002,908607.398,908903.2000000002,908623.87,911107.22,4,500,,
trial,html.Screen,10_9_0,2023-11-15T16:50:37.388Z,,,,1,-0.0149482827359613,0.0661630859332833,,false,hh,8259.879999999655,response,1.057567724570464,0.9385117837944217,-0.7288493544311113,0.7906457140772123,0.9308138624040204,-0.8101234918207132,high,high,,ISIC_6815524.JPG,9,ISIC_0034162.JPG,173,false,ll,keypress(f),0,false,919367.2999999998,919367.0999999996,911090.482,911383.5,911107.22,919090.546,4,500,10,
break,html.Screen,10_9_1,2023-11-15T16:50:37.389Z,,,,,,,,,,NaN,,,,,,,,high,high,,,,,,false,,,,false,919367.9000000004,919367.7999999998,,919367.5,,919090.546,4,500,,
break_continue,html.Screen,10_9_2,2023-11-15T16:50:37.389Z,,,,,,,,,,NaN,,,,,,,,high,high,,,,,,false,,,,false,919368.2999999998,919368.2000000002,,919368,,919090.546,4,500,,
sequence,flow.Sequence,10_9,2023-11-15T16:50:37.389Z,,,,,,,,,,8260.980000000214,completion,,,,,,,high,high,,,,,,false,,,,false,919368.5,919368.2000000002,911090.482,911383.4000000004,911107.22,919090.546,4,500,,
trial,html.Screen,10_10_0,2023-11-15T16:50:40.923Z,,,,1,-0.0113873532168551,-0.0054999201556291,,false,hl,3811.954000000027,response,1.0164576835546473,0.9385117837944217,-0.7288493544311113,-0.8120626538423016,0.9308138624040204,-0.8101234918207132,high,low,,ISIC_8812621.JPG,9,ISIC_6002694.JPG,41,false,ll,keypress(f),0,false,922902.5999999996,922902.5,919074.05,919368.5999999996,919090.546,922624.094,4,500,11,
break,html.Screen,10_10_1,2023-11-15T16:50:40.924Z,,,,,,,,,,NaN,,,,,,,,high,low,,,,,,false,,,,false,922902.9000000004,922902.9000000004,,922902.7000000002,,922624.094,4,500,,
break_continue,html.Screen,10_10_2,2023-11-15T16:50:40.924Z,,,,,,,,,,NaN,,,,,,,,high,low,,,,,,false,,,,false,922903.2000000002,922903,,922903,,922624.094,4,500,,
sequence,flow.Sequence,10_10,2023-11-15T16:50:40.924Z,,,,,,,,,,3812.454000000027,completion,,,,,,,high,low,,,,,,false,,,,false,922903.2000000002,922903,919074.05,919368.5999999996,919090.546,922624.094,4,500,,
trial,html.Screen,10_11_0,2023-11-15T16:50:45.355Z,,,,1,-0.0552031398781121,-0.0652612426529481,,false,lh,4710.205999999773,response,-0.8277658066009654,0.9385117837944217,-0.7288493544311113,0.7390449930107234,0.9308138624040204,-0.8101234918207132,low,high,,ISIC_0024226.JPG,9,ISIC_0033168.JPG,58,false,hl,keypress(j),0,false,927334.4000000004,927334.2999999998,922607.339,922903.2999999998,922624.094,927057.2,4,500,12,
break,html.Screen,10_11_1,2023-11-15T16:50:45.356Z,,,,,,,,,,NaN,,,,,,,,low,high,,,,,,false,,,,false,927334.7999999998,927334.7000000002,,927334.5999999996,,927057.2,4,500,,
break_continue,html.Screen,10_11_2,2023-11-15T16:50:45.356Z,,,,,,,,,,NaN,,,,,,,,low,high,,,,,,false,,,,false,927335,927335,,927334.7999999998,,927057.2,4,500,,
sequence,flow.Sequence,10_11,2023-11-15T16:50:45.356Z,,,,,,,,,,4710.905999999959,completion,,,,,,,low,high,,,,,,false,,,,false,927335,927335,922607.339,922903.2999999998,922624.094,927057.2,4,500,,
trial,html.Screen,10_12_0,2023-11-15T16:50:52.284Z,,,,1,-0.0367218428225813,-0.0700576547090477,,true,hh,7205.800000000047,response,1.1253220985777015,0.9385117837944217,-0.7288493544311113,1.108725659461368,0.9308138624040204,-0.8101234918207132,high,high,,ISIC_7212271.JPG,10,ISIC_0054954.JPG,173,false,hh,keypress(i),0,false,934263.2000000002,934263,927040.42,927335,927057.2,933990.569,4,500,13,
break,html.Screen,10_12_1,2023-11-15T16:50:52.284Z,,,,,,,,,,NaN,,,,,,,,high,high,,,,,,false,,,,false,934263.5999999996,934263.5,,934263.2999999998,,933990.569,4,500,,
break_continue,html.Screen,10_12_2,2023-11-15T16:50:52.284Z,,,,,,,,,,NaN,,,,,,,,high,high,,,,,,false,,,,false,934263.9000000004,934263.7999999998,,934263.7000000002,,933990.569,4,500,,
sequence,flow.Sequence,10_12,2023-11-15T16:50:52.284Z,,,,,,,,,,7206.59999999986,completion,,,,,,,high,high,,,,,,false,,,,false,934264,934263.7999999998,927040.42,927335,927057.2,933990.569,4,500,,
trial,html.Screen,10_13_0,2023-11-15T16:50:58.940Z,,,,1,0.0593670819812057,-0.0718390543903236,,true,hh,6929.03099999961,response,1.007567553886196,0.9385117837944217,-0.7288493544311113,0.9379731610733476,0.9308138624040204,-0.8101234918207132,high,high,,ISIC_0062367.JPG,9,ISIC_0030824.JPG,173,false,hh,keypress(i),0,false,940919.9000000004,940919.5999999996,933957.478,934264.0999999996,933990.569,940640.538,4,500,14,
break,html.Screen,10_13_1,2023-11-15T16:50:58.941Z,,,,,,,,,,NaN,,,,,,,,high,high,,,,,,false,,,,false,940921.0999999996,940920.7000000002,,940920.2999999998,,940640.538,4,500,,
break_continue,html.Screen,10_13_2,2023-11-15T16:50:58.942Z,,,,,,,,,,NaN,,,,,,,,high,high,,,,,,false,,,,false,940921.7000000002,940921.5,,940921.2000000002,,940640.538,4,500,,
sequence,flow.Sequence,10_13,2023-11-15T16:50:58.942Z,,,,,,,,,,6930.930999999982,completion,,,,,,,high,high,,,,,,false,,,,false,940921.9000000004,940921.5,933957.478,934264.0999999996,933990.569,940640.538,4,500,,
trial,html.Screen,10_14_0,2023-11-15T16:51:01.051Z,,,,1,-0.0367218428225813,-0.0700576547090477,,true,hh,2390.061999999685,response,0.9263931440503964,0.9385117837944217,-0.7288493544311113,0.9159664042920548,0.9308138624040204,-0.8101234918207132,high,high,,ISIC_7212271.JPG,9,ISIC_0053617.JPG,173,false,hh,keypress(i),0,false,943030.7000000002,943030.5999999996,940623.743,940922.2000000002,940640.538,942757.58,4,500,15,
break,html.Screen,10_14_1,2023-11-15T16:51:01.052Z,,,,,,,,,,NaN,,,,,,,,high,high,,,,,,false,,,,false,943031.2000000002,943031.0999999996,,943030.9000000004,,942757.58,4,500,,
break_continue,html.Screen,10_14_2,2023-11-15T16:51:01.052Z,,,,,,,,,,NaN,,,,,,,,high,high,,,,,,false,,,,false,943031.4000000004,943031.2999999998,,943031.2000000002,,942757.58,4,500,,
sequence,flow.Sequence,10_14,2023-11-15T16:51:01.052Z,,,,,,,,,,2390.7619999998715,completion,,,,,,,high,high,,,,,,false,,,,false,943031.5,943031.2999999998,940623.743,940922.0999999996,940640.538,942757.58,4,500,,
trial,html.Screen,10_15_0,2023-11-15T16:51:05.852Z,,,,1,-0.0277178575053843,0.0395587463147856,,false,lh,5073.519999999669,response,-0.5864865414096643,0.9385117837944217,-0.7288493544311113,0.8209285777042373,0.9308138624040204,-0.8101234918207132,low,high,,ISIC_0010807.JPG,9,ISIC_0033885.JPG,58,false,ll,keypress(f),0,false,947831.2000000002,947831.0999999996,942740.773,943031.5999999996,942757.58,947557.622,4,500,16,
break,html.Screen,10_15_1,2023-11-15T16:51:05.852Z,,,,,,,,,,NaN,,,,,,,,low,high,,,,,,false,,,,false,947831.9000000004,947831.7000000002,,947831.4000000004,,947557.622,4,500,,
break_continue,html.Screen,10_15_2,2023-11-15T16:51:05.853Z,,,,,,,,,,NaN,,,,,,,,low,high,,,,,,false,,,,false,947832.2000000002,947832.0999999996,,947832,,947557.622,4,500,,
sequence,flow.Sequence,10_15,2023-11-15T16:51:05.853Z,,,,,,,,,,5074.519999999669,completion,,,,,,,low,high,,,,,,false,,,,false,947832.4000000004,947832.0999999996,942740.773,943031.5999999996,942757.58,947557.622,4,500,,
trial,html.Screen,10_16_0,2023-11-15T16:51:11.643Z,,,,1,-0.0688801591312476,-0.0185462113313342,,false,hh,6065.278000000399,response,0.7858981101622865,0.9385117837944217,-0.7288493544311113,1.098700382725708,0.9308138624040204,-0.8101234918207132,high,high,,ISIC_0067723.JPG,9,ISIC_0059733.JPG,173,false,hl,keypress(j),0,false,953623.0999999996,953622.9000000004,947540.365,947832.5,947557.622,953340.569,4,500,17,
break,html.Screen,10_16_1,2023-11-15T16:51:11.644Z,,,,,,,,,,NaN,,,,,,,,high,high,,,,,,false,,,,false,953623.5999999996,953623.5,,953623.2000000002,,953340.569,4,500,,
break_continue,html.Screen,10_16_2,2023-11-15T16:51:11.644Z,,,,,,,,,,NaN,,,,,,,,high,high,,,,,,false,,,,false,953623.9000000004,953623.7999999998,,953623.7000000002,,953340.569,4,500,,
sequence,flow.Sequence,10_16,2023-11-15T16:51:11.644Z,,,,,,,,,,6066.17799999984,completion,,,,,,,high,high,,,,,,false,,,,false,953624.0999999996,953623.7999999998,947540.365,947832.5,947557.622,953340.569,4,500,,
trial,html.Screen,10_17_0,2023-11-15T16:51:14.059Z,,,,1,-0.0367218428225813,-0.0700576547090477,,false,lh,2698.230999999796,response,-0.6290784713565712,0.9385117837944217,-0.7288493544311113,0.9294537734479156,0.9308138624040204,-0.8101234918207132,low,high,,ISIC_7212271.JPG,9,ISIC_0054770.JPG,58,false,hh,keypress(i),0,false,956038.9000000004,956038.7999999998,953323.851,953624.2000000002,953340.569,955757.284,4,500,18,
break,html.Screen,10_17_1,2023-11-15T16:51:14.060Z,,,,,,,,,,NaN,,,,,,,,low,high,,,,,,false,,,,false,956039.4000000004,956039.2999999998,,956039.0999999996,,955757.284,4,500,,
break_continue,html.Screen,10_17_2,2023-11-15T16:51:14.060Z,,,,,,,,,,NaN,,,,,,,,low,high,,,,,,false,,,,false,956039.7999999998,956039.5999999996,,956039.5999999996,,955757.284,4,500,,
sequence,flow.Sequence,10_17,2023-11-15T16:51:14.060Z,,,,,,,,,,2699.03099999961,completion,,,,,,,low,high,,,,,,false,,,,false,956039.9000000004,956039.5999999996,953323.851,953624.2000000002,953340.569,955757.284,4,500,,
trial,html.Screen,10_18_0,2023-11-15T16:51:18.636Z,,,,1,-0.0348234368746005,0.0236866303880924,,true,hh,4858.015999999829,response,0.9209488961172596,0.9385117837944217,-0.7288493544311113,0.9916011869447884,0.9308138624040204,-0.8101234918207132,high,high,,ISIC_0011099.JPG,9,ISIC_3338629.JPG,173,false,hh,keypress(i),0,false,960615.5,960615.2999999998,955740.555,956040,955757.284,960340.892,4,500,19,
break,html.Screen,10_18_1,2023-11-15T16:51:18.637Z,,,,,,,,,,NaN,,,,,,,,high,high,,,,,,false,,,,false,960616.2000000002,960616.0999999996,,960615.7999999998,,960340.892,4,500,,
break_continue,html.Screen,10_18_2,2023-11-15T16:51:18.637Z,,,,,,,,,,NaN,,,,,,,,high,high,,,,,,false,,,,false,960616.7000000002,960616.5,,960616.4000000004,,960340.892,4,500,,
sequence,flow.Sequence,10_18,2023-11-15T16:51:18.637Z,,,,,,,,,,4859.216000000015,completion,,,,,,,high,high,,,,,,false,,,,false,960616.9000000004,960616.5,955740.555,956040,955757.284,960340.892,4,500,,
trial,html.Screen,10_19_0,2023-11-15T16:51:28.363Z,,,,1,-0.0087912446525382,-0.0619041869188676,,true,lh,10002.00800000038,response,-0.5685213569781914,0.9385117837944217,-0.7288493544311113,1.1191536531860355,0.9308138624040204,-0.8101234918207132,low,high,,ISIC_7185913.JPG,10,ISIC_0011922.JPG,58,false,lh,keypress(e),0,false,970343.0999999996,970342.9000000004,960323.784,960617,960340.892,970057.278,4,500,20,
break,html.Screen,10_19_1,2023-11-15T16:51:28.364Z,,,,,,,,,,NaN,,,,,,,,low,high,,,,,,false,,,,false,970343.5999999996,970343.4000000004,,970343.2000000002,,970057.278,4,500,,
break_continue,html.Screen,10_19_2,2023-11-15T16:51:28.364Z,,,,,,,,,,NaN,,,,,,,,low,high,,,,,,false,,,,false,970343.7999999998,970343.7000000002,,970343.5999999996,,970057.278,4,500,,
sequence,flow.Sequence,10_19,2023-11-15T16:51:28.364Z,,,,,,,,,,10002.808000000194,completion,,,,,,,low,high,,,,,,false,,,,false,970344,970343.7000000002,960323.784,960617,960340.892,970057.278,4,500,,
trial,html.Screen,10_20_0,2023-11-15T16:51:33.276Z,,,,1,-0.0531672914703651,0.0074883925434357,,false,lh,5198.021999999764,response,-0.7401156491866404,0.9385117837944217,-0.7288493544311113,0.94165594025755,0.9308138624040204,-0.8101234918207132,low,high,,ISIC_4177043.JPG,9,ISIC_0072429.JPG,58,false,ll,keypress(f),0,false,975255.5,975255.2999999998,970040.623,970344.0999999996,970057.278,974973.979,4,500,21,
break,html.Screen,10_20_1,2023-11-15T16:51:33.277Z,,,,,,,,,,NaN,,,,,,,,low,high,,,,,,false,,,,false,975256.4000000004,975256.0999999996,,975255.7000000002,,974973.979,4,500,,
break_continue,html.Screen,10_20_2,2023-11-15T16:51:33.277Z,,,,,,,,,,NaN,,,,,,,,low,high,,,,,,false,,,,false,975256.7000000002,975256.5999999996,,975256.4000000004,,974973.979,4,500,,
sequence,flow.Sequence,10_20,2023-11-15T16:51:33.277Z,,,,,,,,,,5199.321999999578,completion,,,,,,,low,high,,,,,,false,,,,false,975257,975256.5999999996,970040.623,970344.0999999996,970057.278,974973.979,4,500,,
trial,html.Screen,10_21_0,2023-11-15T16:51:39.307Z,,,,1,0.0401045651353626,0.053461375824197,,true,ll,6312.820999999763,response,-0.7301504699931767,0.9385117837944217,-0.7288493544311113,-0.7420119067987634,0.9308138624040204,-0.8101234918207132,low,low,,ISIC_6483504.JPG,10,ISIC_4130167.JPG,276,false,ll,keypress(f),0,false,981286.9000000004,981286.7999999998,974957.164,975257.0999999996,974973.979,981007.347,4,500,22,
break,html.Screen,10_21_1,2023-11-15T16:51:39.308Z,,,,,,,,,,NaN,,,,,,,,low,low,,,,,,false,,,,false,981287.4000000004,981287.2000000002,,981287,,981007.347,4,500,,
break_continue,html.Screen,10_21_2,2023-11-15T16:51:39.308Z,,,,,,,,,,NaN,,,,,,,,low,low,,,,,,false,,,,false,981287.5,981287.5,,981287.4000000004,,981007.347,4,500,,
sequence,flow.Sequence,10_21,2023-11-15T16:51:39.308Z,,,,,,,,,,6313.52099999995,completion,,,,,,,low,low,,,,,,false,,,,false,981287.5999999996,981287.5,974957.164,975257.0999999996,974973.979,981007.347,4,500,,
trial,html.Screen,10_22_0,2023-11-15T16:51:50.047Z,,,,1,0.007397293189458,0.0174716772037504,,,,10733.281000000075,timeout,-0.879102500583965,0.9385117837944217,-0.7288493544311113,1.0933081951979773,0.9308138624040204,-0.8101234918207132,low,high,,ISIC_0056226.JPG,9,ISIC_0046223.JPG,58,false,,,0,false,992027.0999999996,992027,980990.868,981287.5999999996,981007.347,991740.628,4,500,23,
break,html.Screen,10_22_1,2023-11-15T16:51:50.048Z,,,,,,,,,,NaN,,,,,,,,low,high,,,,,,false,,,,false,992027.5999999996,992027.5,,992027.2000000002,,991740.628,4,500,,
break_continue,html.Screen,10_22_2,2023-11-15T16:51:50.048Z,,,,,,,,,,NaN,,,,,,,,low,high,,,,,,false,,,,false,992027.9000000004,992027.7999999998,,992027.7000000002,,991740.628,4,500,,
sequence,flow.Sequence,10_22,2023-11-15T16:51:50.048Z,,,,,,,,,,11020.452999999863,completion,,,,,,,low,high,,,,,,false,,,,false,992028.0999999996,992027.7999999998,980990.868,981287.5999999996,981007.347,991740.628,4,500,,
trial,html.Screen,10_23_0,2023-11-15T16:51:52.411Z,,,,1,-0.009234249673026,-0.0627190878028592,,false,hl,2650.07200000016,response,0.949907353050839,0.9385117837944217,-0.7288493544311113,-0.6190748068479168,0.9308138624040204,-0.8101234918207132,high,low,,ISIC_0053760.JPG,9,ISIC_7059794.JPG,41,false,hh,keypress(i),0,false,994390.7000000002,994390.7000000002,991724.027,992028.2000000002,991740.628,994107.356,4,500,24,
break,html.Screen,10_23_1,2023-11-15T16:51:52.411Z,,,,,,,,,,NaN,,,,,,,,high,low,,,,,,false,,,,false,994391.0999999996,994391,,994390.7999999998,,994107.356,4,500,,
break_continue,html.Screen,10_23_2,2023-11-15T16:51:52.411Z,,,,,,,,,,NaN,,,,,,,,high,low,,,,,,false,,,,false,994391.2999999998,994391.2000000002,,994391.0999999996,,994107.356,4,500,,
sequence,flow.Sequence,10_23,2023-11-15T16:51:52.411Z,,,,,,,,,,2650.57200000016,completion,,,,,,,high,low,,,,,,false,,,,false,994391.2999999998,994391.2000000002,991724.027,992028.2000000002,991740.628,994107.356,4,500,,
trial,html.Screen,10_24_0,2023-11-15T16:51:56.123Z,,,,1,-0.0113873532168551,-0.0054999201556291,,false,ll,3995.7439999995986,response,-0.6937605548587606,0.9385117837944217,-0.7288493544311113,-0.9854871691490024,0.9308138624040204,-0.8101234918207132,low,low,,ISIC_8812621.JPG,10,ISIC_6828892.JPG,276,false,hh,keypress(i),0,false,998103.2999999998,998103.0999999996,994090.86,994391.4000000004,994107.356,997823.982,4,500,25,
break,html.Screen,10_24_1,2023-11-15T16:51:56.124Z,,,,,,,,,,NaN,,,,,,,,low,low,,,,,,false,,,,false,998103.7999999998,998103.7000000002,,998103.4000000004,,997823.982,4,500,,
break_continue,html.Screen,10_24_2,2023-11-15T16:51:56.124Z,,,,,,,,,,NaN,,,,,,,,low,low,,,,,,false,,,,false,998104.2000000002,998104.2000000002,,998104,,997823.982,4,500,,
sequence,flow.Sequence,10_24,2023-11-15T16:51:56.124Z,,,,,,,,,,3996.8440000001574,completion,,,,,,,low,low,,,,,,false,,,,false,998104.4000000004,998104.2000000002,994090.86,994391.4000000004,994107.356,997823.982,4,500,,
trial,html.Screen,10_25_0,2023-11-15T16:52:01.675Z,,,,1,-0.0688801591312476,-0.0185462113313342,,false,lh,5831.1179999996675,response,-0.6445994831837089,0.9385117837944217,-0.7288493544311113,0.7823313912451958,0.9308138624040204,-0.8101234918207132,low,high,,ISIC_0067723.JPG,9,ISIC_0025145.JPG,58,false,hl,keypress(j),0,false,1003655.2999999998,1003655.0999999996,997807.267,998104.5,997823.982,1003373.985,4,500,26,
break,html.Screen,10_25_1,2023-11-15T16:52:01.676Z,,,,,,,,,,NaN,,,,,,,,low,high,,,,,,false,,,,false,1003656,1003655.7999999998,,1003655.5,,1003373.985,4,500,,
break_continue,html.Screen,10_25_2,2023-11-15T16:52:01.676Z,,,,,,,,,,NaN,,,,,,,,low,high,,,,,,false,,,,false,1003656.2999999998,1003656.2999999998,,1003656.0999999996,,1003373.985,4,500,,
sequence,flow.Sequence,10_25,2023-11-15T16:52:01.676Z,,,,,,,,,,5832.317999999854,completion,,,,,,,low,high,,,,,,false,,,,false,1003656.4000000004,1003656.2999999998,997807.267,998104.5,997823.982,1003373.985,4,500,,
trial,html.Screen,10_26_0,2023-11-15T16:52:06.603Z,,,,1,-0.059471106306043,0.0678292174694111,,true,hh,5208.9150000003865,response,0.8909652099281345,0.9385117837944217,-0.7288493544311113,0.7550834643357679,0.9308138624040204,-0.8101234918207132,high,high,,ISIC_0015631.JPG,9,ISIC_7501061.JPG,173,false,hh,keypress(i),0,false,1008583.0999999996,1008582.9000000004,1003357.27,1003656.5999999996,1003373.985,1008307.338,4,500,27,
break,html.Screen,10_26_1,2023-11-15T16:52:06.603Z,,,,,,,,,,NaN,,,,,,,,high,high,,,,,,false,,,,false,1008583.5,1008583.4000000004,,1008583.2999999998,,1008307.338,4,500,,
break_continue,html.Screen,10_26_2,2023-11-15T16:52:06.604Z,,,,,,,,,,NaN,,,,,,,,high,high,,,,,,false,,,,false,1008583.9000000004,1008583.7999999998,,1008583.7000000002,,1008307.338,4,500,,
sequence,flow.Sequence,10_26,2023-11-15T16:52:06.604Z,,,,,,,,,,5209.814999999828,completion,,,,,,,high,high,,,,,,false,,,,false,1008584,1008583.7999999998,1003357.27,1003656.5999999996,1003373.985,1008307.338,4,500,,
trial,html.Screen,10_27_0,2023-11-15T16:52:13.995Z,,,,1,-0.0691769743257167,0.0638501824668941,,false,hl,7667.862000000197,response,1.073191619565092,0.9385117837944217,-0.7288493544311113,-0.6195550709150465,0.9308138624040204,-0.8101234918207132,high,low,,ISIC_0031914.JPG,9,ISIC_9386509.JPG,41,false,lh,keypress(e),0,false,1015975.4000000004,1015975.2000000002,1008290.787,1008584.0999999996,1008307.338,1015690.685,4,500,28,
break,html.Screen,10_27_1,2023-11-15T16:52:13.996Z,,,,,,,,,,NaN,,,,,,,,high,low,,,,,,false,,,,false,1015976.0999999996,1015976,,1015975.7000000002,,1015690.685,4,500,,
break_continue,html.Screen,10_27_2,2023-11-15T16:52:13.996Z,,,,,,,,,,NaN,,,,,,,,high,low,,,,,,false,,,,false,1015976.5,1015976.4000000004,,1015976.2000000002,,1015690.685,4,500,,
sequence,flow.Sequence,10_27,2023-11-15T16:52:13.997Z,,,,,,,,,,7669.062000000384,completion,,,,,,,high,low,,,,,,false,,,,false,1015976.7000000002,1015976.4000000004,1008290.787,1008584.0999999996,1008307.338,1015690.685,4,500,,
trial,html.Screen,10_28_0,2023-11-15T16:52:22.875Z,,,,1,-0.0277178575053843,0.0395587463147856,,true,hl,9164.01500000013,response,0.7911024675435955,0.9385117837944217,-0.7288493544311113,-0.7975977016137676,0.9308138624040204,-0.8101234918207132,high,low,,ISIC_0010807.JPG,9,ISIC_5813642.JPG,41,false,hl,keypress(j),0,false,1024854.7999999998,1024854.7000000002,1015674.157,1015976.7999999998,1015690.685,1024573.978,4,500,29,
break,html.Screen,10_28_1,2023-11-15T16:52:22.875Z,,,,,,,,,,NaN,,,,,,,,high,low,,,,,,false,,,,false,1024855.2999999998,1024855.2000000002,,1024855.0999999996,,1024573.978,4,500,,
break_continue,html.Screen,10_28_2,2023-11-15T16:52:22.875Z,,,,,,,,,,NaN,,,,,,,,high,low,,,,,,false,,,,false,1024855.5,1024855.4000000004,,1024855.4000000004,,1024573.978,4,500,,
sequence,flow.Sequence,10_28,2023-11-15T16:52:22.875Z,,,,,,,,,,9164.715000000317,completion,,,,,,,high,low,,,,,,false,,,,false,1024855.5999999996,1024855.4000000004,1015674.157,1015976.7999999998,1015690.685,1024573.978,4,500,,
trial,html.Screen,10_29_0,2023-11-15T16:52:26.554Z,,,,1,0.0336891949856763,0.060314732178219,,false,lh,3960.521999999997,response,-0.8860551570327019,0.9385117837944217,-0.7288493544311113,0.8067116931297591,0.9308138624040204,-0.8101234918207132,low,high,,ISIC_6192289.JPG,9,ISIC_1457687.JPG,58,false,hl,keypress(j),0,false,1028534.5999999996,1028534.5,1024557.109,1024855.7000000002,1024573.978,1028257.42,4,500,30,
break,html.Screen,10_29_1,2023-11-15T16:52:26.555Z,,,,,,,,,,NaN,,,,,,,,low,high,,,,,,false,,,,false,1028534.9000000004,1028534.7999999998,,1028534.7000000002,,1028257.42,4,500,,
break_continue,html.Screen,10_29_2,2023-11-15T16:52:26.555Z,,,,,,,,,,NaN,,,,,,,,low,high,,,,,,false,,,,false,1028535.0999999996,1028535,,1028535,,1028257.42,4,500,,
sequence,flow.Sequence,10_29,2023-11-15T16:52:26.555Z,,,,,,,,,,3961.021999999997,completion,,,,,,,low,high,,,,,,false,,,,false,1028535.2000000002,1028535,1024557.109,1024855.7000000002,1024573.978,1028257.42,4,500,,
trial,html.Screen,10_30_0,2023-11-15T16:52:30.251Z,,,,1,-0.0348234368746005,0.0236866303880924,,false,hh,3973.1799999995856,response,0.8068224817535752,0.9385117837944217,-0.7288493544311113,0.8996141262602615,0.9308138624040204,-0.8101234918207132,high,high,,ISIC_0011099.JPG,9,ISIC_0059601.JPG,173,false,lh,keypress(e),0,false,1032230.7999999998,1032230.5999999996,1028240.633,1028535.2000000002,1028257.42,1031957.428,4,500,31,
break,html.Screen,10_30_1,2023-11-15T16:52:30.251Z,,,,,,,,,,NaN,,,,,,,,high,high,,,,,,false,,,,false,1032231,1032231,,1032230.7999999998,,1031957.428,4,500,,
break_continue,html.Screen,10_30_2,2023-11-15T16:52:30.251Z,,,,,,,,,,NaN,,,,,,,,high,high,,,,,,false,,,,false,1032231.2000000002,1032231.0999999996,,1032231,,1031957.428,4,500,,
sequence,flow.Sequence,10_30,2023-11-15T16:52:30.251Z,,,,,,,,,,3973.6799999995856,completion,,,,,,,high,high,,,,,,false,,,,false,1032231.2999999998,1032231.0999999996,1028240.633,1028535.2000000002,1028257.42,1031957.428,4,500,,
trial,html.Screen,10_31_0,2023-11-15T16:52:34.251Z,,,,1,-0.0021038737988857,0.0570427519488725,,false,hl,4273.972000000416,response,1.0469352660493296,0.9385117837944217,-0.7288493544311113,-0.6175070748933676,0.9308138624040204,-0.8101234918207132,high,low,,ISIC_3596927.JPG,9,ISIC_1988335.JPG,41,false,hh,keypress(i),0,false,1036231.5999999996,1036231.4000000004,1031940.813,1032231.2999999998,1031957.428,1035957.421,4,500,32,
break,html.Screen,10_31_1,2023-11-15T16:52:34.252Z,,,,,,,,,,NaN,,,,,,,,high,low,,,,,,false,,,,false,1036232.2999999998,1036232.0999999996,,1036231.9000000004,,1035957.421,4,500,,
break_continue,html.Screen,10_31_2,2023-11-15T16:52:34.253Z,,,,,,,,,,NaN,,,,,,,,high,low,,,,,,false,,,,false,1036232.7000000002,1036232.5,,1036232.4000000004,,1035957.421,4,500,,
sequence,flow.Sequence,10_31,2023-11-15T16:52:34.253Z,,,,,,,,,,4275.072000000044,completion,,,,,,,high,low,,,,,,false,,,,false,1036232.9000000004,1036232.5,1031940.813,1032231.2999999998,1031957.428,1035957.421,4,500,,
trial,html.Screen,10_32_0,2023-11-15T16:52:39.371Z,,,,1,-0.0552031398781121,-0.0652612426529481,,true,ll,5393.4790000003995,response,-0.7112499523439552,0.9385117837944217,-0.7288493544311113,-0.8326661044614712,0.9308138624040204,-0.8101234918207132,low,low,,ISIC_0024226.JPG,9,ISIC_4477599.JPG,276,false,ll,keypress(f),0,false,1041351,1041350.9000000004,1035940.84,1036233,1035957.421,1041074.029,4,500,33,
break,html.Screen,10_32_1,2023-11-15T16:52:39.372Z,,,,,,,,,,NaN,,,,,,,,low,low,,,,,,false,,,,false,1041351.7999999998,1041351.7000000002,,1041351.2999999998,,1041074.029,4,500,,
break_continue,html.Screen,10_32_2,2023-11-15T16:52:39.372Z,,,,,,,,,,NaN,,,,,,,,low,low,,,,,,false,,,,false,1041352.0999999996,1041352,,1041351.9000000004,,1041074.029,4,500,,
sequence,flow.Sequence,10_32,2023-11-15T16:52:39.372Z,,,,,,,,,,5394.579000000027,completion,,,,,,,low,low,,,,,,false,,,,false,1041352.4000000004,1041352,1035940.84,1036232.9000000004,1035957.421,1041074.029,4,500,,
trial,html.Screen,10_33_0,2023-11-15T16:52:42.507Z,,,,1,0.0085520978188085,-0.0464691161264081,,true,hh,3412.7709999998333,response,1.1135119625680223,0.9385117837944217,-0.7288493544311113,0.8824045702297937,0.9308138624040204,-0.8101234918207132,high,high,,ISIC_0758797.JPG,9,ISIC_6899527.JPG,173,false,hh,keypress(i),0,false,1044486.9000000004,1044486.7999999998,1041057.274,1041352.4000000004,1041074.029,1044207.681,4,500,34,
break,html.Screen,10_33_1,2023-11-15T16:52:42.507Z,,,,,,,,,,NaN,,,,,,,,high,high,,,,,,false,,,,false,1044487.4000000004,1044487.2999999998,,1044487.0999999996,,1044207.681,4,500,,
break_continue,html.Screen,10_33_2,2023-11-15T16:52:42.507Z,,,,,,,,,,NaN,,,,,,,,high,high,,,,,,false,,,,false,1044487.5999999996,1044487.5999999996,,1044487.4000000004,,1044207.681,4,500,,
sequence,flow.Sequence,10_33,2023-11-15T16:52:42.507Z,,,,,,,,,,3413.570999999647,completion,,,,,,,high,high,,,,,,false,,,,false,1044487.7000000002,1044487.5999999996,1041057.274,1041352.4000000004,1041074.029,1044207.681,4,500,,
trial,html.Screen,10_34_0,2023-11-15T16:52:48.667Z,,,,1,0.0640778296621707,0.0387686079545705,,true,ll,6439.118999999831,response,-0.845289166520367,0.9385117837944217,-0.7288493544311113,-0.6805870888087044,0.9308138624040204,-0.8101234918207132,low,low,,ISIC_0010124.JPG,9,ISIC_0070383.JPG,276,false,ll,keypress(f),0,false,1050646.7999999998,1050646.7999999998,1044190.64,1044487.7999999998,1044207.681,1050374.318,4,500,35,
break,html.Screen,10_34_1,2023-11-15T16:52:48.667Z,,,,,,,,,,NaN,,,,,,,,low,low,,,,,,false,,,,false,1050647.2000000002,1050647.0999999996,,1050646.9000000004,,1050374.318,4,500,,
break_continue,html.Screen,10_34_2,2023-11-15T16:52:48.667Z,,,,,,,,,,NaN,,,,,,,,low,low,,,,,,false,,,,false,1050647.4000000004,1050647.4000000004,,1050647.2999999998,,1050374.318,4,500,,
sequence,flow.Sequence,10_34,2023-11-15T16:52:48.667Z,,,,,,,,,,6439.71900000039,completion,,,,,,,low,low,,,,,,false,,,,false,1050647.5,1050647.4000000004,1044190.64,1044487.7000000002,1044207.681,1050374.318,4,500,,
trial,html.Screen,10_35_0,2023-11-15T16:52:53.450Z,,,,1,-0.0220322185490382,-0.0740918837949419,,false,lh,5056.281999999657,response,-0.7401156491866404,0.9385117837944217,-0.7288493544311113,0.94165594025755,0.9308138624040204,-0.8101234918207132,low,high,,ISIC_8105020.JPG,9,ISIC_0072429.JPG,58,false,hl,keypress(j),0,false,1055430.7000000002,1055430.5999999996,1050340.84,1050647.5,1050374.318,1055157.455,4,500,36,
break,html.Screen,10_35_1,2023-11-15T16:52:53.451Z,,,,,,,,,,NaN,,,,,,,,low,high,,,,,,false,,,,false,1055430.9000000004,1055430.9000000004,,1055430.7999999998,,1055157.455,4,500,,
break_continue,html.Screen,10_35_2,2023-11-15T16:52:53.451Z,,,,,,,,,,NaN,,,,,,,,low,high,,,,,,false,,,,false,1055431.2000000002,1055431.0999999996,,1055431.0999999996,,1055157.455,4,500,,
sequence,flow.Sequence,10_35,2023-11-15T16:52:53.451Z,,,,,,,,,,5056.781999999657,completion,,,,,,,low,high,,,,,,false,,,,false,1055431.2999999998,1055431.0999999996,1050340.84,1050647.5,1050374.318,1055157.455,4,500,,
trial,html.Screen,10_36_0,2023-11-15T16:52:57.834Z,,,,1,0.0401045651353626,0.053461375824197,,false,ll,4656.844999999739,response,-0.7969140985091036,0.9385117837944217,-0.7288493544311113,-0.9215855883749826,0.9308138624040204,-0.8101234918207132,low,low,,ISIC_6483504.JPG,8,ISIC_0027431.JPG,276,false,hl,keypress(j),0,false,1059814.2999999998,1059814.2999999998,1055140.932,1055431.2999999998,1055157.455,1059540.997,4,500,37,
break,html.Screen,10_36_1,2023-11-15T16:52:57.834Z,,,,,,,,,,NaN,,,,,,,,low,low,,,,,,false,,,,false,1059814.7000000002,1059814.5999999996,,1059814.5,,1059540.997,4,500,,
break_continue,html.Screen,10_36_2,2023-11-15T16:52:57.834Z,,,,,,,,,,NaN,,,,,,,,low,low,,,,,,false,,,,false,1059814.9000000004,1059814.9000000004,,1059814.7000000002,,1059540.997,4,500,,
sequence,flow.Sequence,10_36,2023-11-15T16:52:57.835Z,,,,,,,,,,4657.445000000298,completion,,,,,,,low,low,,,,,,false,,,,false,1059815,1059814.9000000004,1055140.932,1055431.2999999998,1055157.455,1059540.997,4,500,,
trial,html.Screen,10_37_0,2023-11-15T16:53:07.851Z,,,,1,0.0389988030702649,0.0143212271490256,,true,hh,10290.102999999654,response,0.830715954875818,0.9385117837944217,-0.7288493544311113,0.8162119374466767,0.9308138624040204,-0.8101234918207132,high,high,,ISIC_0064669.JPG,9,ISIC_0011894.JPG,173,false,hh,keypress(i),0,false,1069831.2999999998,1069831.0999999996,1059523.938,1059815,1059540.997,1069557.523,4,500,38,
break,html.Screen,10_37_1,2023-11-15T16:53:07.851Z,,,,,,,,,,NaN,,,,,,,,high,high,,,,,,false,,,,false,1069831.9000000004,1069831.7000000002,,1069831.5,,1069557.523,4,500,,
