sender,sender_type,sender_id,timestamp,meta,,age,blockNo,c1,c2,condition,correct,correctResponse,duration,ended_on,f1,f1_high,f1_low,f2,f2_high,f2_low,feature_level1,feature_level2,gender,img_left,img_reveal,img_right,n_target_images,practice,response,response_action,selection_duration,staircase,time_commit,time_end,time_render,time_run,time_show,time_switch,total_blocks,total_trials,trialNo,url
informed_consent,html.Screen,0,2023-11-15T15:39:01.936Z,"{""labjs_version"":""20.2.4"",""labjs_build"":{""flavor"":""development"",""commit"":""f5b4a49f956347addd546a832a3327688c2c0fef""},""location"":""https://labjs.felixhenninger.com/api/labjs_preview/index.html"",""userAgent"":""Mozilla/5.0 (Windows NT 10.0; Win64; x64) AppleWebKit/537.36 (KHTML, like Gecko) Chrome/119.0.0.0 Safari/537.36"",""platform"":""Win32"",""language"":""en-US"",""locale"":""en-US"",""timeZone"":""America/Chicago"",""timezoneOffset"":360,""screen_width"":1680,""screen_height"":1050,""scroll_width"":825,""scroll_height"":888,""window_innerWidth"":825,""window_innerHeight"":936,""devicePixelRatio"":1}",,,,,,,,,21128.116999982118,response,,,,,,,,,,,,,,,consent,click button,,,21790.399999976158,21781.29999998212,636.451,856.1999999880791,653.183,21560.492,,,,{}
Demography form,html.Form,1,2023-11-15T15:39:13.375Z,,,18,,,,,,,11668.80799998212,form submission,,,,,,,,,female,,,,,,,,,,33229.5,33229.29999998212,21544.027,21790.79999998212,21560.492,32999.424,,,,
Welcome,html.Screen,2,2023-11-15T15:40:12.704Z,,,,,,,"[""asym"",""col""]",,,59557.77599998808,response,,,,,,,,,,,,,,,continue,click button,,,92558,92557.19999998808,32982.95,33229.59999999404,32999.424,92331.577,,,,
demo_instructions,html.Screen,3,2023-11-15T15:40:39.759Z,,,,,,,,,,27281.722999982114,response,,,,,,,,,,,,,,,continue,click button,,,119613.79999998212,119613.29999998212,92315.09,92558,92331.577,119400.949,,,,
trial,html.Screen,4_0_0,2023-11-15T15:40:49.988Z,,,,0,0.9225524349657857,-0.929746784178986,,true,lh,10439.750999988086,response,-0.849847885203758,0.9999999999999998,-0.9999999999999998,0.973447384095442,0.9999999999999998,-0.9999999999999998,low,high,,ISIC_0011077.JPG,,ISIC_9612228.JPG,24,true,lh,keypress(e),100,false,129841.29999998212,129840.69999998808,119384.518,119613.89999997616,119400.949,129637.518,1,16,1,
sequence,flow.Sequence,4_0,2023-11-15T15:40:50.012Z,,,,,,,,,,10439.750999988086,completion,,,,,,,low,high,,,,,,true,,,,false,129865.79999998212,129840.69999998808,119384.518,119613.89999997616,119400.949,129637.518,1,16,,
trial,html.Screen,4_1_0,2023-11-15T15:41:05.090Z,,,,0,1.0264463986917702,-1.171271535505083,,true,lh,15305.681999988083,response,-0.8479396253253069,0.9999999999999998,-0.9999999999999998,1.011054319516718,0.9999999999999998,-0.9999999999999998,low,high,,ISIC_7889838.JPG,,ISIC_0063521.JPG,24,true,lh,keypress(e),100,false,144943.69999998808,144943.19999998808,129620.953,129866,129637.518,144733.728,1,16,2,
sequence,flow.Sequence,4_1,2023-11-15T15:41:05.091Z,,,,,,,,,,15305.681999988083,completion,,,,,,,low,high,,,,,,true,,,,false,144944.39999997616,144943.19999998808,129620.953,129865.89999997616,129637.518,144733.728,1,16,,
trial,html.Screen,4_2_0,2023-11-15T15:41:11.135Z,,,,0,0.8620516892494489,-1.1108509340502866,,true,lh,6254.671999976155,response,-0.8479396253253069,0.9999999999999998,-0.9999999999999998,1.011054319516718,0.9999999999999998,-0.9999999999999998,low,high,,ISIC_5557806.JPG,,ISIC_0063521.JPG,24,true,lh,keypress(e),100,false,150988.59999999404,150988.39999997616,144716.995,144944.89999997616,144733.728,150778.709,1,16,3,
sequence,flow.Sequence,4_2,2023-11-15T15:41:11.135Z,,,,,,,,,,6254.671999976155,completion,,,,,,,low,high,,,,,,true,,,,false,150988.79999998212,150988.39999997616,144716.995,144944.69999998808,144733.728,150778.709,1,16,,
trial,html.Screen,4_3_0,2023-11-15T15:41:16.389Z,,,,0,1.155796217969438,-1.1646564121743912,,true,lh,5462.890999994037,response,-0.8069562753553525,0.9999999999999998,-0.9999999999999998,0.9101764190105358,0.9999999999999998,-0.9999999999999998,low,high,,ISIC_2685523.JPG,,ISIC_0046596.JPG,24,true,lh,keypress(e),100,false,156242.19999998808,156241.59999999404,150761.975,150988.89999997616,150778.709,156039.185,1,16,4,
sequence,flow.Sequence,4_3,2023-11-15T15:41:16.389Z,,,,,,,,,,5462.890999994037,completion,,,,,,,low,high,,,,,,true,,,,false,156242.89999997616,156241.59999999404,150761.975,150988.89999997616,150778.709,156039.185,1,16,,
trial,html.Screen,4_4_0,2023-11-15T15:41:28.321Z,,,,0,0.8667223452789944,1.08062537708245,,true,ll,12134.514999988081,response,-0.8579451262594331,0.9999999999999998,-0.9999999999999998,-0.8472659344792351,0.9999999999999998,-0.9999999999999998,low,low,,ISIC_0070032.JPG,,ISIC_0067172.JPG,111,true,ll,keypress(f),100,false,168174.29999998212,168173.69999998808,156022.305,156243.29999998212,156039.185,167962.163,1,16,5,
sequence,flow.Sequence,4_4,2023-11-15T15:41:28.322Z,,,,,,,,,,12134.514999988081,completion,,,,,,,low,low,,,,,,true,,,,false,168175.09999999404,168173.69999998808,156022.305,156243.19999998808,156039.185,167962.163,1,16,,
trial,html.Screen,4_5_0,2023-11-15T15:41:33.677Z,,,,0,1.0361281091871073,0.8359897850958797,,true,ll,5568.3369999999995,response,-0.9191486333136276,0.9999999999999998,-0.9999999999999998,-1.080719641270871,0.9999999999999998,-0.9999999999999998,low,low,,ISIC_0014392.JPG,,ISIC_0663941.JPG,111,true,ll,keypress(f),100,false,173530.69999998808,173530.5,167945.548,168175.29999998212,167962.163,173322.602,1,16,6,
sequence,flow.Sequence,4_5,2023-11-15T15:41:33.677Z,,,,,,,,,,5568.3369999999995,completion,,,,,,,low,low,,,,,,true,,,,false,173530.79999998212,173530.5,167945.548,168175.19999998808,167962.163,173322.602,1,16,,
trial,html.Screen,4_6_0,2023-11-15T15:41:41.954Z,,,,0,0.813074172485943,0.8600171690954921,,true,ll,8484.497999994026,response,-1.084404366274825,0.9999999999999998,-0.9999999999999998,-0.8428187899450872,0.9999999999999998,-0.9999999999999998,low,low,,ISIC_0068239.JPG,,ISIC_3530422.JPG,111,true,ll,keypress(f),100,false,181807.5,181807.09999999404,173305.851,173530.89999997616,173322.602,181605.612,1,16,7,
sequence,flow.Sequence,4_6,2023-11-15T15:41:41.955Z,,,,,,,,,,8484.497999994026,completion,,,,,,,low,low,,,,,,true,,,,false,181808.19999998808,181807.09999999404,173305.851,173530.89999997616,173322.602,181605.612,1,16,,
trial,html.Screen,4_7_0,2023-11-15T15:42:02.608Z,,,,0,1.0931477426281198,0.8421248340065566,,true,ll,20854.487999994046,response,-1.1655508270784471,0.9999999999999998,-0.9999999999999998,-1.1162776063248168,0.9999999999999998,-0.9999999999999998,low,low,,ISIC_0026531.JPG,,ISIC_5509946.JPG,111,true,ll,keypress(f),100,false,202460.5,202460.09999999404,181588.767,181808.39999997616,181605.612,202262.276,1,16,8,
sequence,flow.Sequence,4_7,2023-11-15T15:42:02.609Z,,,,,,,,,,20854.487999994046,completion,,,,,,,low,low,,,,,,true,,,,false,202461.09999999404,202460.09999999404,181588.767,181808.39999997616,181605.612,202262.276,1,16,,
trial,html.Screen,4_8_0,2023-11-15T15:42:09.598Z,,,,0,-0.8069690440362255,0.8262727717500657,,true,hl,7187.4239999880665,response,1.082730232773217,0.9999999999999998,-0.9999999999999998,-0.8833175387485132,0.9999999999999998,-0.9999999999999998,high,low,,ISIC_0028469.JPG,,ISIC_0011933.JPG,24,true,hl,keypress(j),100,false,209450.19999998808,209449.69999998808,202245.629,202461.5,202262.276,209242.737,1,16,9,
sequence,flow.Sequence,4_8,2023-11-15T15:42:09.599Z,,,,,,,,,,7187.4239999880665,completion,,,,,,,high,low,,,,,,true,,,,false,209450.89999997616,209449.69999998808,202245.629,202461.5,202262.276,209242.737,1,16,,
trial,html.Screen,4_9_0,2023-11-15T15:42:15.772Z,,,,0,-0.8591294258188253,0.870797302150167,,true,hl,6381.062999982125,response,0.9212323139676136,0.9999999999999998,-0.9999999999999998,-0.9882196642247332,0.9999999999999998,-0.9999999999999998,high,low,,ISIC_0055841.JPG,,ISIC_0014255.JPG,24,true,hl,keypress(j),100,false,215624.09999999404,215623.79999998212,209225.895,209451.19999998808,209242.737,215421.418,1,16,10,
sequence,flow.Sequence,4_9,2023-11-15T15:42:15.773Z,,,,,,,,,,6381.062999982125,completion,,,,,,,high,low,,,,,,true,,,,false,215624.69999998808,215623.79999998212,209225.895,209451.19999998808,209242.737,215421.418,1,16,,
trial,html.Screen,4_10_0,2023-11-15T15:42:20.087Z,,,,0,-0.8129823105338526,0.9655386457143784,,true,hl,4517.8819999821135,response,1.0088376543442317,0.9999999999999998,-0.9999999999999998,-0.8023075994977575,0.9999999999999998,-0.9999999999999998,high,low,,ISIC_8268025.JPG,,ISIC_7619234.JPG,24,true,hl,keypress(j),100,false,219939.69999998808,219939.29999998212,215404.59,215625,215421.418,219729.724,1,16,11,
sequence,flow.Sequence,4_10,2023-11-15T15:42:20.088Z,,,,,,,,,,4517.8819999821135,completion,,,,,,,high,low,,,,,,true,,,,false,219940.19999998808,219939.29999998212,215404.59,215624.89999997616,215421.418,219729.724,1,16,,
trial,html.Screen,4_11_0,2023-11-15T15:42:24.836Z,,,,0,-0.849847885203758,0.973447384095442,,true,hl,4958.175999976171,response,1.127346631538643,0.9999999999999998,-0.9999999999999998,-0.8080854255453543,0.9999999999999998,-0.9999999999999998,high,low,,ISIC_9612228.JPG,,ISIC_0011045.JPG,24,true,hl,keypress(j),100,false,224688.19999998808,224687.89999997616,219712.93,219940.59999999404,219729.724,224488.885,1,16,12,
sequence,flow.Sequence,4_11,2023-11-15T15:42:24.837Z,,,,,,,,,,4958.175999976171,completion,,,,,,,high,low,,,,,,true,,,,false,224689.19999998808,224687.89999997616,219712.93,219940.5,219729.724,224488.885,1,16,,
trial,html.Screen,4_12_0,2023-11-15T15:42:32.050Z,,,,0,-1.1063796153389187,-0.8605921333200546,,true,hh,7412.81499998807,response,0.8752617287758995,0.9999999999999998,-0.9999999999999998,0.8023740329006754,0.9999999999999998,-0.9999999999999998,high,high,,ISIC_0064071.JPG,,ISIC_0033968.JPG,154,true,hh,keypress(i),100,false,231902.19999998808,231901.69999998808,224472.227,224689.5,224488.885,231702.891,1,16,13,
sequence,flow.Sequence,4_12,2023-11-15T15:42:32.051Z,,,,,,,,,,7412.81499998807,completion,,,,,,,high,high,,,,,,true,,,,false,231902.79999998212,231901.69999998808,224472.227,224689.39999997616,224488.885,231702.891,1,16,,
trial,html.Screen,4_13_0,2023-11-15T15:42:38.206Z,,,,0,-0.9191486333136276,-1.080719641270871,,true,hh,6355.008999976155,response,0.9263931440503964,0.9999999999999998,-0.9999999999999998,0.96519839238634,0.9999999999999998,-0.9999999999999998,high,high,,ISIC_0663941.JPG,,ISIC_0053617.JPG,154,true,hh,keypress(i),100,false,238058.29999998212,238057.89999997616,231686.333,231903.09999999404,231702.891,237848.263,1,16,14,
sequence,flow.Sequence,4_13,2023-11-15T15:42:38.207Z,,,,,,,,,,6355.008999976155,completion,,,,,,,high,high,,,,,,true,,,,false,238059,238057.89999997616,231686.333,231903,231702.891,237848.263,1,16,,
trial,html.Screen,4_14_0,2023-11-15T15:42:44.859Z,,,,0,-0.8093178584833343,-1.0139833925057518,,true,hh,6863.036999982112,response,1.0698162624196283,0.9999999999999998,-0.9999999999999998,1.0648460966097275,0.9999999999999998,-0.9999999999999998,high,high,,ISIC_6171084.JPG,,ISIC_0030552.JPG,154,true,hh,keypress(i),100,false,244711.69999998808,244711.29999998212,237831.574,238059.29999998212,237848.263,244511.221,1,16,15,
sequence,flow.Sequence,4_14,2023-11-15T15:42:44.860Z,,,,,,,,,,6863.036999982112,completion,,,,,,,high,high,,,,,,true,,,,false,244712.29999998212,244711.29999998212,237831.574,238059.19999998808,237848.263,244511.221,1,16,,
trial,html.Screen,4_15_0,2023-11-15T15:42:48.983Z,,,,0,-1.1642596483638106,-1.091507924157762,,true,hh,4323.77900000001,response,0.9009408285331614,0.9999999999999998,-0.9999999999999998,0.8985422901220989,0.9999999999999998,-0.9999999999999998,high,high,,ISIC_0765584.JPG,,ISIC_0033834.JPG,154,true,hh,keypress(i),100,false,248835.19999998808,248835,244494.507,244712.59999999404,244511.221,248635.84,1,16,16,
sequence,flow.Sequence,4_15,2023-11-15T15:42:48.983Z,,,,,,,,,,4323.77900000001,completion,,,,,,,high,high,,,,,,true,,,,false,248835.29999998212,248835,244494.507,244712.5,244511.221,248635.84,1,16,,
demonstration_loop,flow.Loop,4,2023-11-15T15:42:48.984Z,,,,,,,,,,129434.051,completion,,,,,,,,,,,,,,true,,,,false,248835.29999998212,248835,119384.518,119613.79999998212,119400.949,248635.84,1,16,,
practice_instructions,html.Screen,5,2023-11-15T15:42:54.881Z,,,,,,,,,,6089.6600000000035,response,,,,,,,,,,,,,,,continue,click button,,,254733.19999998808,254725.5,248619.162,248835.39999997616,248635.84,254513.999,,,,
trial,html.Screen,6_0_0,2023-11-15T15:43:01.233Z,,,,1,1.033120591224746,0.9169816067930722,,true,ll,6563.800999982108,response,-0.9696118525781644,0.9999999999999998,-0.9999999999999998,-0.9712966348713286,0.9999999999999998,-0.9999999999999998,low,low,,ISIC_0033027.JPG,,ISIC_7927525.JPG,111,true,ll,keypress(f),0,false,261085.29999998212,261077.79999998212,254497.452,254733.29999998212,254513.999,260876.477,1,20,1,
sequence,flow.Sequence,6_0,2023-11-15T15:43:01.234Z,,,,,,,,,,6563.800999982108,completion,,,,,,,low,low,,,,,,true,,,,false,261085.39999997616,261077.79999998212,254497.452,254733.29999998212,254513.999,260876.477,1,20,,
trial,html.Screen,6_1_0,2023-11-15T15:43:02.812Z,,,,1,0.9693644437173125,1.114502123877908,,true,ll,1786.7229999880656,response,-1.0831477774866454,0.9999999999999998,-0.9999999999999998,-1.0347343776726454,0.9999999999999998,-0.9999999999999998,low,low,,ISIC_0014795.JPG,,ISIC_9475559.JPG,111,true,ll,keypress(f),0,false,262663.5,262663.1999999881,260859.632,261085.5,260876.477,262446.24,1,20,2,
sequence,flow.Sequence,6_1,2023-11-15T15:43:02.812Z,,,,,,,,,,1786.7229999880656,completion,,,,,,,low,low,,,,,,true,,,,false,262664,262663.1999999881,260859.632,261085.5,260876.477,262446.24,1,20,,
trial,html.Screen,6_2_0,2023-11-15T15:43:06.787Z,,,,1,0.9654682925870932,0.82001873969981,,true,ll,4192.559999982128,response,-1.1802887330422154,0.9999999999999998,-0.9999999999999998,-1.0224375154810723,0.9999999999999998,-0.9999999999999998,low,low,,ISIC_5737704.JPG,,ISIC_9225640.JPG,111,true,ll,keypress(f),0,false,266639.1999999881,266638.7999999821,262429.581,262664.1999999881,262446.24,266420.444,1,20,3,
sequence,flow.Sequence,6_2,2023-11-15T15:43:06.788Z,,,,,,,,,,4192.559999982128,completion,,,,,,,low,low,,,,,,true,,,,false,266639.6999999881,266638.7999999821,262429.581,262664.1999999881,262446.24,266420.444,1,20,,
trial,html.Screen,6_3_0,2023-11-15T15:43:09.931Z,,,,1,0.9566823908868002,-0.9602125665128364,,true,lh,3362.5559999999823,response,-1.1224745971429997,0.9999999999999998,-0.9999999999999998,0.8423270217438888,0.9999999999999998,-0.9999999999999998,low,high,,ISIC_0056784.JPG,,ISIC_0057032.JPG,24,true,lh,keypress(e),0,false,269783.2999999821,269783,266403.879,266639.89999997616,266420.444,269559.949,1,20,4,
sequence,flow.Sequence,6_3,2023-11-15T15:43:09.932Z,,,,,,,,,,3362.5559999999823,completion,,,,,,,low,high,,,,,,true,,,,false,269783.7999999821,269783,266403.879,266639.89999997616,266420.444,269559.949,1,20,,
trial,html.Screen,6_4_0,2023-11-15T15:43:11.844Z,,,,1,-0.8479396253253069,1.011054319516718,,true,hl,2135.150999994017,response,1.1547137855907486,0.9999999999999998,-0.9999999999999998,-1.0185275168641534,0.9999999999999998,-0.9999999999999998,high,low,,ISIC_0063521.JPG,,ISIC_7604870.JPG,24,true,hl,keypress(j),0,false,271695.39999997616,271695.09999999404,269543.391,269783.89999997616,269559.949,271480.44,1,20,5,
sequence,flow.Sequence,6_4,2023-11-15T15:43:11.844Z,,,,,,,,,,2135.150999994017,completion,,,,,,,high,low,,,,,,true,,,,false,271695.89999997616,271695.09999999404,269543.391,269783.89999997616,269559.949,271480.44,1,20,,
trial,html.Screen,6_5_0,2023-11-15T15:43:13.731Z,,,,1,-0.8106452071627479,-0.8209658560483851,,true,hh,2102.2599999880767,response,1.0857873435995111,0.9999999999999998,-0.9999999999999998,0.8502716010726371,0.9999999999999998,-0.9999999999999998,high,high,,ISIC_4151356.JPG,,ISIC_2784664.JPG,154,true,hh,keypress(i),0,false,273583,273582.6999999881,271463.79,271696.1999999881,271480.44,273367.313,1,20,6,
sequence,flow.Sequence,6_5,2023-11-15T15:43:13.732Z,,,,,,,,,,2102.2599999880767,completion,,,,,,,high,high,,,,,,true,,,,false,273583.2999999821,273582.6999999881,271463.79,271696.09999999404,271480.44,273367.313,1,20,,
trial,html.Screen,6_6_0,2023-11-15T15:43:15.180Z,,,,1,-1.1235224875125256,0.8641223012137988,,true,hl,1663.6869999999763,response,0.9873794329144926,0.9999999999999998,-0.9999999999999998,-0.9500689037516484,0.9999999999999998,-0.9999999999999998,high,low,,ISIC_0033901.JPG,,ISIC_0013498.JPG,24,true,hl,keypress(j),0,false,275031.2999999821,275031,273350.693,273583.5,273367.313,274820.16,1,20,7,
sequence,flow.Sequence,6_6,2023-11-15T15:43:15.180Z,,,,,,,,,,1663.6869999999763,completion,,,,,,,high,low,,,,,,true,,,,false,275031.7999999821,275031,273350.693,273583.5,273367.313,274820.16,1,20,,
trial,html.Screen,6_7_0,2023-11-15T15:43:16.555Z,,,,1,0.8620516892494489,-1.1108509340502866,,true,lh,1586.7399999761838,response,-1.00615481805876,0.9999999999999998,-0.9999999999999998,0.8428903771195875,0.9999999999999998,-0.9999999999999998,low,high,,ISIC_5557806.JPG,,ISIC_0069970.JPG,24,true,lh,keypress(e),0,false,276407.1999999881,276406.89999997616,274803.641,275032.09999999404,274820.16,276189.592,1,20,8,
sequence,flow.Sequence,6_7,2023-11-15T15:43:16.556Z,,,,,,,,,,1586.7399999761838,completion,,,,,,,low,high,,,,,,true,,,,false,276407.6999999881,276406.89999997616,274803.641,275032.09999999404,274820.16,276189.592,1,20,,
trial,html.Screen,6_8_0,2023-11-15T15:43:17.954Z,,,,1,-0.9191486333136276,-1.080719641270871,,true,hh,1616.5079999940353,response,1.02958055269592,0.9999999999999998,-0.9999999999999998,1.159278377691306,0.9999999999999998,-0.9999999999999998,high,high,,ISIC_0663941.JPG,,ISIC_0027190.JPG,154,true,hh,keypress(i),0,false,277806.2999999821,277806.09999999404,276173.02,276408,276189.592,277592.435,1,20,9,
sequence,flow.Sequence,6_8,2023-11-15T15:43:17.955Z,,,,,,,,,,1616.5079999940353,completion,,,,,,,high,high,,,,,,true,,,,false,277806.5,277806.09999999404,276173.02,276407.89999997616,276189.592,277592.435,1,20,,
trial,html.Screen,6_9_0,2023-11-15T15:43:24.068Z,,,,1,1.094624209823328,1.0544499428769605,,true,ll,6326.9649999761605,response,-1.0103403743290518,0.9999999999999998,-0.9999999999999998,-0.8700511901947987,0.9999999999999998,-0.9999999999999998,low,low,,ISIC_0055526.JPG,,ISIC_1254469.JPG,111,true,ll,keypress(f),0,false,283919.6999999881,283919.39999997616,277575.623,277806.5,277592.435,283704.317,1,20,10,
sequence,flow.Sequence,6_9,2023-11-15T15:43:24.068Z,,,,,,,,,,6326.9649999761605,completion,,,,,,,low,low,,,,,,true,,,,false,283920.1999999881,283919.39999997616,277575.623,277806.5,277592.435,283704.317,1,20,,
trial,html.Screen,6_10_0,2023-11-15T15:43:25.835Z,,,,1,1.155796217969438,-1.1646564121743912,,true,lh,1982.5829999761772,response,-0.8152354890677903,0.9999999999999998,-0.9999999999999998,1.10470584815077,0.9999999999999998,-0.9999999999999998,low,high,,ISIC_2685523.JPG,,ISIC_0010283.JPG,24,true,lh,keypress(e),0,false,285687.2999999821,285686.89999997616,283687.609,283920.5,283704.317,285474.462,1,20,11,
sequence,flow.Sequence,6_10,2023-11-15T15:43:25.836Z,,,,,,,,,,1982.5829999761772,completion,,,,,,,low,high,,,,,,true,,,,false,285687.7999999821,285686.89999997616,283687.609,283920.39999997616,283704.317,285474.462,1,20,,
trial,html.Screen,6_11_0,2023-11-15T15:43:27.723Z,,,,1,0.999840720741648,0.9031251164933652,,true,ll,2100.5380000000005,response,-0.8200367443437355,0.9999999999999998,-0.9999999999999998,-1.1363137800725187,0.9999999999999998,-0.9999999999999998,low,low,,ISIC_0058768.JPG,,ISIC_0553565.JPG,111,true,ll,keypress(f),0,false,287575.2999999821,287575,285457.743,285688,285474.462,287361.43,1,20,12,
sequence,flow.Sequence,6_11,2023-11-15T15:43:27.724Z,,,,,,,,,,2100.5380000000005,completion,,,,,,,low,low,,,,,,true,,,,false,287575.7999999821,287575,285457.743,285687.89999997616,285474.462,287361.43,1,20,,
trial,html.Screen,6_12_0,2023-11-15T15:43:29.011Z,,,,1,0.8407642478899736,-0.9542322753334054,,true,lh,1501.570000000007,response,-0.9445114955578736,0.9999999999999998,-0.9999999999999998,1.0054210059625863,0.9999999999999998,-0.9999999999999998,low,high,,ISIC_9090822.JPG,,ISIC_0033807.JPG,24,true,lh,keypress(e),0,false,288863.39999997616,288863,287344.729,287576.1999999881,287361.43,288647.31,1,20,13,
sequence,flow.Sequence,6_12,2023-11-15T15:43:29.012Z,,,,,,,,,,1501.570000000007,completion,,,,,,,low,high,,,,,,true,,,,false,288863.7999999821,288863,287344.729,287576.09999999404,287361.43,288647.31,1,20,,
trial,html.Screen,6_13_0,2023-11-15T15:43:30.323Z,,,,1,-0.9597587651037712,-0.8860066980618031,,true,hh,1527.5899999761605,response,0.8223148058609743,0.9999999999999998,-0.9999999999999998,0.8873094399918428,0.9999999999999998,-0.9999999999999998,high,high,,ISIC_7534592.JPG,,ISIC_0011356.JPG,154,true,hh,keypress(i),0,false,290175.1999999881,290174.89999997616,288630.597,288864.09999999404,288647.31,289949.675,1,20,14,
sequence,flow.Sequence,6_13,2023-11-15T15:43:30.324Z,,,,,,,,,,1527.5899999761605,completion,,,,,,,high,high,,,,,,true,,,,false,290175.6999999881,290174.89999997616,288630.597,288864,288647.31,289949.675,1,20,,
trial,html.Screen,6_14_0,2023-11-15T15:43:31.931Z,,,,1,0.9225524349657857,-0.929746784178986,,true,lh,1833.3250000000116,response,-1.1235224875125256,0.9999999999999998,-0.9999999999999998,0.8641223012137988,0.9999999999999998,-0.9999999999999998,low,high,,ISIC_0011077.JPG,,ISIC_0033901.JPG,24,true,lh,keypress(e),0,false,291783.2999999821,291783,289932.896,290176,289949.675,291569.52,1,20,15,
sequence,flow.Sequence,6_14,2023-11-15T15:43:31.932Z,,,,,,,,,,1833.3250000000116,completion,,,,,,,low,high,,,,,,true,,,,false,291783.7999999821,291783,289932.896,290176,289949.675,291569.52,1,20,,
trial,html.Screen,6_15_0,2023-11-15T15:43:33.027Z,,,,1,-0.8923602890201078,0.8351700666074688,,true,hl,1309.079999994021,response,0.9873794329144926,0.9999999999999998,-0.9999999999999998,-0.9500689037516484,0.9999999999999998,-0.9999999999999998,high,low,,ISIC_0033103.JPG,,ISIC_0013498.JPG,24,true,hl,keypress(j),0,false,292878.89999997616,292878.59999999404,291552.904,291784.09999999404,291569.52,292654.831,1,20,16,
sequence,flow.Sequence,6_15,2023-11-15T15:43:33.028Z,,,,,,,,,,1309.079999994021,completion,,,,,,,high,low,,,,,,true,,,,false,292879.39999997616,292878.59999999404,291552.904,291784,291569.52,292654.831,1,20,,
trial,html.Screen,6_16_0,2023-11-15T15:43:36.148Z,,,,1,-1.1808334052190257,-0.8195185178266473,,true,hh,3344.468999982113,response,0.8543323078107433,0.9999999999999998,-0.9999999999999998,0.9163054072963652,0.9999999999999998,-0.9999999999999998,high,high,,ISIC_0033950.JPG,,ISIC_0012070.JPG,154,true,hh,keypress(i),0,false,295999.59999999404,295999.2999999821,292638.245,292879.6999999881,292654.831,295777.547,1,20,17,
sequence,flow.Sequence,6_16,2023-11-15T15:43:36.148Z,,,,,,,,,,3344.468999982113,completion,,,,,,,high,high,,,,,,true,,,,false,296000.09999999404,295999.2999999821,292638.245,292879.59999999404,292654.831,295777.547,1,20,,
trial,html.Screen,6_17_0,2023-11-15T15:43:40.764Z,,,,1,-0.849847885203758,0.973447384095442,,true,hl,4837.552999994019,response,0.8015753713975186,0.9999999999999998,-0.9999999999999998,-1.0067065355978264,0.9999999999999998,-0.9999999999999998,high,low,,ISIC_9612228.JPG,,ISIC_0002119.JPG,24,true,hl,keypress(j),0,false,300615.2999999821,300615.09999999404,295761.094,296000.39999997616,295777.547,300403.478,1,20,18,
sequence,flow.Sequence,6_17,2023-11-15T15:43:40.764Z,,,,,,,,,,4837.552999994019,completion,,,,,,,high,low,,,,,,true,,,,false,300615.89999997616,300615.09999999404,295761.094,296000.2999999821,295777.547,300403.478,1,20,,
trial,html.Screen,6_18_0,2023-11-15T15:43:43.994Z,,,,1,-0.8492821768888116,-1.1667020643738155,,true,hh,3442.6219999940367,response,1.1584542819627714,0.9999999999999998,-0.9999999999999998,0.9718566025210856,0.9999999999999998,-0.9999999999999998,high,high,,ISIC_0011256.JPG,,ISIC_0010162.JPG,154,true,hh,keypress(i),0,false,303846.1999999881,303846.09999999404,300386.824,300616.09999999404,300403.478,303626.263,1,20,19,
sequence,flow.Sequence,6_18,2023-11-15T15:43:43.995Z,,,,,,,,,,3442.6219999940367,completion,,,,,,,high,high,,,,,,true,,,,false,303846.2999999821,303846.09999999404,300386.824,300616,300403.478,303626.263,1,20,,
trial,html.Screen,6_19_0,2023-11-15T15:43:46.372Z,,,,1,-1.1890109863264902,0.8867825318561365,,true,hl,2596.936999988102,response,1.082730232773217,0.9999999999999998,-0.9999999999999998,-0.8833175387485132,0.9999999999999998,-0.9999999999999998,high,low,,ISIC_0072576.JPG,,ISIC_0011933.JPG,24,true,hl,keypress(j),0,false,306223.59999999404,306223.1999999881,303609.747,303846.5,303626.263,306014.779,1,20,20,
sequence,flow.Sequence,6_19,2023-11-15T15:43:46.372Z,,,,,,,,,,2596.936999988102,completion,,,,,,,high,low,,,,,,true,,,,false,306224,306223.1999999881,303609.747,303846.5,303626.263,306014.779,1,20,,
practice_loop,flow.Loop,6,2023-11-15T15:43:46.373Z,,,,,,,,,,51709.20099998807,completion,,,,,,,,,,,,,,true,,,,false,306224.2999999821,306223.1999999881,254497.452,254733.29999998212,254513.999,306014.779,1,20,,
stair_instructions,html.Screen,7,2023-11-15T15:43:49.410Z,,,,,,,,,,3246.6209999761777,response,,,,,,,,,,,,,,,continue,click button,,,309261.89999997616,309261.39999997616,305980.846,306224.59999999404,306014.779,309036.738,,,,
trial,html.Screen,8_0_0,2023-11-15T15:44:00.194Z,,,,2,0.0339906816361373,0.0603913124071272,,,,10787.722999999998,timeout,0.9873794329144926,0.9999999999999998,-0.9999999999999998,-0.9500689037516484,0.9999999999999998,-0.9999999999999998,high,low,,ISIC_1258763.JPG,,ISIC_0013498.JPG,24,false,,,0,true,320045.6999999881,320045.39999997616,309020.261,309262,309036.738,319824.461,1,40,1,
sequence,flow.Sequence,8_0,2023-11-15T15:44:00.195Z,,,,,,,,,,11008.661999976146,completion,,,,,,,high,low,,,,,,false,,,,true,320046.1999999881,320045.39999997616,309020.261,309262,309036.738,319824.461,1,40,,
trial,html.Screen,8_1_0,2023-11-15T15:44:06.685Z,,,,2,-0.0683185670328473,-0.0092332028949561,,false,ll,6712.238999988069,response,-0.8854665385930431,0.9999999999999998,-0.9999999999999998,-0.9330258572707198,0.9999999999999998,-0.9999999999999998,low,low,,ISIC_3652847.JPG,,ISIC_0026889.JPG,111,false,lh,keypress(e),0,true,326536.7999999821,326536.6999999881,319807.778,320046.39999997616,319824.461,326337.097,1,40,2,
sequence,flow.Sequence,8_1,2023-11-15T15:44:06.685Z,,,,,,,,,,6712.238999988069,completion,,,,,,,low,low,,,,,,false,,,,true,326536.89999997616,326536.6999999881,319807.778,320046.2999999821,319824.461,326337.097,1,40,,
trial,html.Screen,8_2_0,2023-11-15T15:44:15.826Z,,,,2,-0.0474755744799381,-0.0692210794081785,,false,lh,9340.80299997615,response,-1.0003671514840182,0.9999999999999998,-0.9999999999999998,0.8992716557663581,0.9999999999999998,-1.0499999999999998,low,high,,ISIC_8794567.JPG,,ISIC_0061749.JPG,24,false,hh,keypress(i),0,true,335677.89999997616,335677.89999997616,326320.388,326537,326337.097,335454.823,1,40,3,
sequence,flow.Sequence,8_2,2023-11-15T15:44:15.826Z,,,,,,,,,,9340.80299997615,completion,,,,,,,low,high,,,,,,false,,,,true,335678.09999999404,335677.89999997616,326320.388,326536.89999997616,326337.097,335454.823,1,40,,
trial,html.Screen,8_3_0,2023-11-15T15:44:21.420Z,,,,2,-0.0277178575053843,-0.0645068093068572,,false,hl,5816.476999982144,response,0.9212323139676136,0.9999999999999998,-1.0499999999999998,-0.9882196642247332,0.9999999999999998,-1.0499999999999998,high,low,,ISIC_0010807.JPG,,ISIC_0014255.JPG,22,false,lh,keypress(e),0,true,341271.59999999404,341271.2999999821,335438.262,335678.1999999881,335454.823,341049.022,1,40,4,
sequence,flow.Sequence,8_3,2023-11-15T15:44:21.421Z,,,,,,,,,,5816.476999982144,completion,,,,,,,high,low,,,,,,false,,,,true,341272.1999999881,341271.2999999821,335438.262,335678.1999999881,335454.823,341049.022,1,40,,
trial,html.Screen,8_4_0,2023-11-15T15:44:28.474Z,,,,2,0.0572318562475973,0.0328299593216012,,false,hh,7276.077999994042,response,1.1534088124362896,1.0499999999999998,-1.0499999999999998,0.8573197642156768,0.9999999999999998,-1.0999999999999999,high,high,,ISIC_0397464.JPG,,ISIC_8935085.JPG,145,false,lh,keypress(e),0,true,348325.09999999404,348325.09999999404,341032.511,341272.59999999404,341049.022,348113.054,1,40,5,
sequence,flow.Sequence,8_4,2023-11-15T15:44:28.474Z,,,,,,,,,,7276.077999994042,completion,,,,,,,high,high,,,,,,false,,,,true,348325.2999999821,348325.09999999404,341032.511,341272.5,341049.022,348113.054,1,40,,
trial,html.Screen,8_5_0,2023-11-15T15:44:39.245Z,,,,2,0.0496743860812164,0.0010487105450318,,,,10770.967000000004,timeout,-1.1264523937924051,1.0999999999999999,-1.0499999999999998,0.729579583367798,0.8282957099910174,-1.0999999999999999,low,high,,ISIC_9312264.JPG,,ISIC_0032095.JPG,35,false,,,0,true,359096.59999999404,359096.39999997616,348096.227,348325.2999999821,348113.054,358884.021,1,40,6,
sequence,flow.Sequence,8_5,2023-11-15T15:44:39.245Z,,,,,,,,,,10983.345999976154,completion,,,,,,,low,high,,,,,,false,,,,true,359096.6999999881,359096.39999997616,348096.227,348325.2999999821,348113.054,358884.021,1,40,,
trial,html.Screen,8_6_0,2023-11-15T15:44:43.644Z,,,,2,0.0023664502831079,0.0252784582169994,,true,lh,4611.578999994032,response,-1.225025174430573,1.0999999999999999,-1.0499999999999998,0.8422679054456499,0.8282957099910174,-1.0999999999999999,low,high,,ISIC_4156010.JPG,,ISIC_7503950.JPG,35,false,lh,keypress(e),0,true,363495.89999997616,363495.59999999404,358867.229,359096.7999999821,358884.021,363275.651,1,40,7,
sequence,flow.Sequence,8_6,2023-11-15T15:44:43.645Z,,,,,,,,,,4611.578999994032,completion,,,,,,,low,high,,,,,,false,,,,true,363496.39999997616,363495.59999999404,358867.229,359096.7999999821,358884.021,363275.651,1,40,,
trial,html.Screen,8_7_0,2023-11-15T15:44:54.420Z,,,,2,-0.0729466326865927,0.0055109446314237,,,,10771.021999999997,timeout,1.155796217969438,1.0499999999999998,-0.9999999999999998,-1.1646564121743912,0.7782957099910174,-1.0499999999999998,high,low,,ISIC_0032597.JPG,,ISIC_2685523.JPG,21,false,,,0,true,374270.59999999404,374270.1999999881,363258.902,363496.59999999404,363275.651,374046.673,1,40,8,
sequence,flow.Sequence,8_7,2023-11-15T15:44:54.421Z,,,,,,,,,,10994.548999988066,completion,,,,,,,high,low,,,,,,false,,,,true,374271.1999999881,374270.1999999881,363258.902,363496.5,363275.651,374046.673,1,40,,
trial,html.Screen,8_8_0,2023-11-15T15:45:02.502Z,,,,2,0.0572318562475973,0.0328299593216012,,true,hh,8304.82699999999,response,1.111585279255637,1.0499999999999998,-0.9999999999999998,0.6452696863721908,0.7782957099910174,-1.0499999999999998,high,high,,ISIC_0397464.JPG,,ISIC_0025391.JPG,177,false,hh,keypress(i),0,true,382351.7999999821,382351.5,374030.013,374271.39999997616,374046.673,382129.008,1,40,9,
sequence,flow.Sequence,8_8,2023-11-15T15:45:02.502Z,,,,,,,,,,8304.82699999999,completion,,,,,,,high,high,,,,,,false,,,,true,382352.2999999821,382351.5,374030.013,374271.2999999821,374046.673,382129.008,1,40,,
trial,html.Screen,8_9_0,2023-11-15T15:45:12.878Z,,,,2,0.0402606077562393,-0.0233871780024155,,true,hl,10598.691999988107,response,1.2043484010107477,1.0499999999999998,-0.9999999999999998,-1.2178113180138233,0.828427482813914,-1.0499999999999998,high,low,,ISIC_0024401.JPG,,ISIC_0011917.JPG,21,false,hl,keypress(j),0,true,392728,392727.6999999881,382112.467,382352.59999999404,382129.008,392515.961,1,40,10,
sequence,flow.Sequence,8_9,2023-11-15T15:45:12.878Z,,,,,,,,,,10598.691999988107,completion,,,,,,,high,low,,,,,,false,,,,true,392728.59999999404,392727.6999999881,382112.467,382352.5,382129.008,392515.961,1,40,,
trial,html.Screen,8_10_0,2023-11-15T15:45:23.293Z,,,,2,0.0203374006918297,-0.0594475300019112,,false,ll,10627.53899999999,response,-0.9537595754201148,0.9999999999999998,-0.9999999999999998,-1.1342661775432377,0.828427482813914,-1.0499999999999998,low,low,,ISIC_0028579.JPG,,ISIC_0741694.JPG,100,false,hl,keypress(j),0,true,403143.7999999821,403143.5,392499.158,392728.89999997616,392515.961,402919.549,1,40,11,
sequence,flow.Sequence,8_10,2023-11-15T15:45:23.294Z,,,,,,,,,,10627.53899999999,completion,,,,,,,low,low,,,,,,false,,,,true,403144.1999999881,403143.5,392499.158,392728.7999999821,392515.961,402919.549,1,40,,
trial,html.Screen,8_11_0,2023-11-15T15:45:29.125Z,,,,2,-0.0729466326865927,0.0055109446314237,,true,hl,6055.65099998808,response,0.9046170303418553,0.9999999999999998,-1.0499999999999998,-1.0063426986460375,0.828427482813914,-1.1260387477785303,high,low,,ISIC_0032597.JPG,,ISIC_0055759.JPG,20,false,hl,keypress(j),0,true,408975.5,408975.1999999881,402902.905,403144.5,402919.549,408764.437,1,40,12,
sequence,flow.Sequence,8_11,2023-11-15T15:45:29.126Z,,,,,,,,,,6055.65099998808,completion,,,,,,,high,low,,,,,,false,,,,true,408975.89999997616,408975.1999999881,402902.905,403144.39999997616,402919.549,408764.437,1,40,,
trial,html.Screen,8_12_0,2023-11-15T15:45:35.958Z,,,,2,-0.0367218428225813,0.0026956749740767,,false,ll,7043.262999988103,response,-0.8682932893841188,0.9999999999999998,-1.0499999999999998,-0.949897846123557,0.828427482813914,-1.1260387477785303,low,low,,ISIC_7212271.JPG,,ISIC_0033229.JPG,79,false,lh,keypress(e),0,true,415808,415807.6999999881,408747.644,408976.1999999881,408764.437,415594.403,1,40,13,
sequence,flow.Sequence,8_12,2023-11-15T15:45:35.958Z,,,,,,,,,,7043.262999988103,completion,,,,,,,low,low,,,,,,false,,,,true,415808.5,415807.6999999881,408747.644,408976,408764.437,415594.403,1,40,,
trial,html.Screen,8_13_0,2023-11-15T15:45:39.709Z,,,,2,-0.0474755744799381,-0.0692210794081785,,false,ll,3964.8969999821275,response,-0.8966918590347848,0.9999999999999998,-1.0499999999999998,-1.078424090533439,0.828427482813914,-1.1760387477785303,low,low,,ISIC_8794567.JPG,,ISIC_0034193.JPG,70,false,lh,keypress(e),0,true,419559.59999999404,419559.2999999821,415577.543,415808.6999999881,415594.403,419334.842,1,40,14,
sequence,flow.Sequence,8_13,2023-11-15T15:45:39.710Z,,,,,,,,,,3964.8969999821275,completion,,,,,,,low,low,,,,,,false,,,,true,419560,419559.2999999821,415577.543,415808.59999999404,415594.403,419334.842,1,40,,
trial,html.Screen,8_14_0,2023-11-15T15:45:50.472Z,,,,2,-0.0744767864787991,0.0482768027208112,,,,10770.890000000014,timeout,-1.02671179315839,0.9999999999999998,-0.8324925742094518,-1.232411858241539,0.828427482813914,-1.1760387477785303,low,low,,ISIC_0011482.JPG,,ISIC_7779155.JPG,99,false,,,0,true,430321.5,430321.39999997616,419318.133,419560.1999999881,419334.842,430105.732,1,40,15,
sequence,flow.Sequence,8_14,2023-11-15T15:45:50.472Z,,,,,,,,,,10986.557999976154,completion,,,,,,,low,low,,,,,,false,,,,true,430321.59999999404,430321.39999997616,419318.133,419560.1999999881,419334.842,430105.732,1,40,,
trial,html.Screen,8_15_0,2023-11-15T15:45:56.414Z,,,,2,-0.0321039635696159,-0.020496766286318,,false,lh,6157.767999999982,response,-1.0143509683988825,0.9999999999999998,-0.8324925742094518,1.0281980567462463,0.828427482813914,-1.1760387477785303,low,high,,ISIC_0058063.JPG,,ISIC_0062031.JPG,68,false,hl,keypress(j),0,true,436263.7999999821,436263.5,430089.009,430321.59999999404,430105.732,436050.829,1,40,16,
sequence,flow.Sequence,8_15,2023-11-15T15:45:56.415Z,,,,,,,,,,6157.767999999982,completion,,,,,,,low,high,,,,,,false,,,,true,436264.2999999821,436263.5,430089.009,430321.59999999404,430105.732,436050.829,1,40,,
trial,html.Screen,8_16_0,2023-11-15T15:46:02.308Z,,,,2,0.0523524458062335,-0.0048771624512062,,false,ll,6106.970999982092,response,-0.8200367443437355,0.9999999999999998,-0.8824925742094518,-1.1363137800725187,0.878427482813914,-1.1760387477785303,low,low,,ISIC_0010379.JPG,,ISIC_0553565.JPG,96,false,lh,keypress(e),0,true,442158,442157.7999999821,436033.865,436264.5,436050.829,441945.462,1,40,17,
sequence,flow.Sequence,8_16,2023-11-15T15:46:02.308Z,,,,,,,,,,6106.970999982092,completion,,,,,,,low,low,,,,,,false,,,,true,442158,442157.7999999821,436033.865,436264.39999997616,436050.829,441945.462,1,40,,
trial,html.Screen,8_17_0,2023-11-15T15:46:10.733Z,,,,2,0.0040788697657958,0.0696367106527537,,false,hh,8636.73799998808,response,0.9053396132028096,0.9999999999999998,-0.8824925742094518,0.7313731866464421,0.878427482813914,-1.1760387477785303,high,high,,ISIC_0066882.JPG,,ISIC_0010729.JPG,165,false,hl,keypress(j),0,true,450582.1999999881,450582.1999999881,441928.884,442158.09999999404,441945.462,450361.852,1,40,18,
sequence,flow.Sequence,8_17,2023-11-15T15:46:10.733Z,,,,,,,,,,8636.73799998808,completion,,,,,,,high,high,,,,,,false,,,,true,450582.39999997616,450582.1999999881,441928.884,442158.09999999404,441945.462,450361.852,1,40,,
trial,html.Screen,8_18_0,2023-11-15T15:46:18.756Z,,,,2,0.0480684603309257,-0.0620119776873313,,true,hh,8243.947999982105,response,0.7571779700096857,0.9499999999999997,-0.8824925742094518,0.7705794129828005,0.9284274828139141,-1.1760387477785303,high,high,,ISIC_0645834.JPG,,ISIC_0011343.JPG,171,false,hh,keypress(i),0,true,458606,458605.7999999821,450345.051,450582.59999999404,450361.852,458394.145,1,40,19,
sequence,flow.Sequence,8_18,2023-11-15T15:46:18.756Z,,,,,,,,,,8243.947999982105,completion,,,,,,,high,high,,,,,,false,,,,true,458606.1999999881,458605.7999999821,450345.051,450582.5,450361.852,458394.145,1,40,,
trial,html.Screen,8_19_0,2023-11-15T15:46:29.529Z,,,,2,0.0158987717472563,0.0292472192292015,,,,10771.040999999968,timeout,-0.7507642823974072,0.9499999999999997,-0.8824925742094518,-1.202344902542151,0.9284274828139141,-1.1760387477785303,low,low,,ISIC_1366765.JPG,,ISIC_7139908.JPG,96,false,,,0,true,469378.7999999821,469378.39999997616,458377.514,458606.1999999881,458394.145,469165.186,1,40,20,
sequence,flow.Sequence,8_19,2023-11-15T15:46:29.530Z,,,,,,,,,,10984.25499997614,completion,,,,,,,low,low,,,,,,false,,,,true,469379.1999999881,469378.39999997616,458377.514,458606.1999999881,458394.145,469165.186,1,40,,
trial,html.Screen,8_20_0,2023-11-15T15:46:39.334Z,,,,2,0.0402606077562393,-0.0233871780024155,,true,hl,10018.314000000013,response,0.9670240379618178,0.9499999999999997,-0.8824925742094518,-1.1806404773220665,0.9284274828139141,-1.1760387477785303,high,low,,ISIC_0024401.JPG,,ISIC_0002288.JPG,21,false,hl,keypress(j),0,true,479183.7999999821,479183.5,469148.661,469379.5,469165.186,478967.537,1,40,21,
sequence,flow.Sequence,8_20,2023-11-15T15:46:39.335Z,,,,,,,,,,10018.314000000013,completion,,,,,,,high,low,,,,,,false,,,,true,479184.2999999821,479183.5,469148.661,469379.39999997616,469165.186,478967.537,1,40,,
trial,html.Screen,8_21_0,2023-11-15T15:46:46.326Z,,,,2,-0.0189295602385628,-0.0128812415435153,,true,lh,7207.662999988068,response,-0.9464722688210522,0.8999999999999997,-0.8824925742094518,0.7779875773283346,0.9284274828139141,-1.1760387477785303,low,high,,ISIC_0010372.JPG,,ISIC_5926550.JPG,36,false,lh,keypress(e),0,true,486175.59999999404,486175.1999999881,478950.784,479184.59999999404,478967.537,485964.721,1,40,22,
sequence,flow.Sequence,8_21,2023-11-15T15:46:46.326Z,,,,,,,,,,7207.662999988068,completion,,,,,,,low,high,,,,,,false,,,,true,486176,486175.1999999881,478950.784,479184.5,478967.537,485964.721,1,40,,
trial,html.Screen,8_22_0,2023-11-15T15:46:52.975Z,,,,2,0.0339906816361373,0.0603913124071272,,true,lh,6858.77899999998,response,-0.7401156491866404,0.8999999999999997,-0.8324925742094518,0.8169638598102704,0.878427482813914,-1.1760387477785303,low,high,,ISIC_1258763.JPG,,ISIC_0072429.JPG,56,false,lh,keypress(e),0,true,492823.7999999821,492823.5,485947.869,486176.1999999881,485964.721,492610.941,1,40,23,
sequence,flow.Sequence,8_22,2023-11-15T15:46:52.975Z,,,,,,,,,,6858.77899999998,completion,,,,,,,low,high,,,,,,false,,,,true,492824.39999997616,492823.5,485947.869,486176.1999999881,485964.721,492610.941,1,40,,
trial,html.Screen,8_23_0,2023-11-15T15:46:59.965Z,,,,2,-0.0686816131231518,0.0045217849100701,,false,ll,7202.9589999761665,response,-0.9949679201447648,0.8999999999999997,-0.8324925742094518,-1.0468574143792184,0.878427482813914,-1.1760387477785303,low,low,,ISIC_5707761.JPG,,ISIC_6640753.JPG,99,false,hl,keypress(j),0,true,499814,499813.89999997616,492594.079,492824.59999999404,492610.941,499590.941,1,40,24,
sequence,flow.Sequence,8_23,2023-11-15T15:46:59.965Z,,,,,,,,,,7202.9589999761665,completion,,,,,,,low,low,,,,,,false,,,,true,499814.1999999881,499813.89999997616,492594.079,492824.5,492610.941,499590.941,1,40,,
trial,html.Screen,8_24_0,2023-11-15T15:47:03.775Z,,,,2,-0.0277178575053843,-0.0645068093068572,,true,hl,4032.658999994048,response,1.0748728054622358,0.8999999999999997,-0.8824925742094518,-1.2840853987892311,0.878427482813914,-1.1260387477785303,high,low,,ISIC_0010807.JPG,,ISIC_0059219.JPG,29,false,hl,keypress(j),0,true,503623.89999997616,503623.59999999404,499574.378,499814.2999999821,499590.941,503398.481,1,40,25,
sequence,flow.Sequence,8_24,2023-11-15T15:47:03.775Z,,,,,,,,,,4032.658999994048,completion,,,,,,,high,low,,,,,,false,,,,true,503624.39999997616,503623.59999999404,499574.378,499814.1999999881,499590.941,503398.481,1,40,,
trial,html.Screen,8_25_0,2023-11-15T15:47:12.462Z,,,,2,-0.0500182837729639,0.0231316228640781,,true,hh,8912.71899998805,response,1.0088070132449485,0.8999999999999997,-0.8824925742094518,0.9026684221154396,0.878427482813914,-1.1260387477785303,high,high,,ISIC_2246150.JPG,,ISIC_0059314.JPG,200,false,hh,keypress(i),0,true,512311.5,512311.1999999881,503381.839,503624.6999999881,503398.481,512098.831,1,40,26,
sequence,flow.Sequence,8_25,2023-11-15T15:47:12.463Z,,,,,,,,,,8912.71899998805,completion,,,,,,,high,high,,,,,,false,,,,true,512312,512311.1999999881,503381.839,503624.5,503398.481,512098.831,1,40,,
trial,html.Screen,8_26_0,2023-11-15T15:47:17.935Z,,,,2,0.0377791839943904,-0.0227626648172468,,false,lh,5684.668999999994,response,-1.0143509683988825,0.8499999999999996,-0.8824925742094518,1.0281980567462463,0.828427482813914,-1.1260387477785303,low,high,,ISIC_7167479.JPG,,ISIC_0062031.JPG,59,false,hl,keypress(j),0,true,517783.6999999881,517783.5,512082.066,512312.1999999881,512098.831,517559.353,1,40,27,
sequence,flow.Sequence,8_26,2023-11-15T15:47:17.935Z,,,,,,,,,,5684.668999999994,completion,,,,,,,low,high,,,,,,false,,,,true,517784.2999999821,517783.5,512082.066,512312.09999999404,512098.831,517559.353,1,40,,
trial,html.Screen,8_27_0,2023-11-15T15:47:23.358Z,,,,2,0.0539169177295974,-0.039571352787207,,true,hl,5647.846999988076,response,0.6669021150735244,0.8499999999999996,-0.9324925742094519,-1.0443315451754065,0.878427482813914,-1.1260387477785303,high,low,,ISIC_1076091.JPG,,ISIC_9163466.JPG,35,false,hl,keypress(j),0,true,523207.59999999404,523207.1999999881,517542.789,517784.5,517559.353,522986.481,1,40,28,
sequence,flow.Sequence,8_27,2023-11-15T15:47:23.359Z,,,,,,,,,,5647.846999988076,completion,,,,,,,high,low,,,,,,false,,,,true,523208,523207.1999999881,517542.789,517784.5,517559.353,522986.481,1,40,,
trial,html.Screen,8_28_0,2023-11-15T15:47:29.069Z,,,,2,-0.0277178575053843,-0.0645068093068572,,false,hh,5931.71899998805,response,0.8299064093289698,0.8499999999999996,-0.9324925742094519,0.8788083232111502,0.878427482813914,-1.0760387477785303,high,high,,ISIC_0010807.JPG,,ISIC_0000398.JPG,210,false,hl,keypress(j),0,true,528918.2999999821,528918.1999999881,522969.804,523208.1999999881,522986.481,528697.725,1,40,29,
sequence,flow.Sequence,8_28,2023-11-15T15:47:29.069Z,,,,,,,,,,5931.71899998805,completion,,,,,,,high,high,,,,,,false,,,,true,528918.3999999762,528918.1999999881,522969.804,523208.1999999881,522986.481,528697.725,1,40,,
trial,html.Screen,8_29_0,2023-11-15T15:47:36.758Z,,,,2,0.0085520978188085,-0.0535296539628673,,false,ll,7909.574999982142,response,-0.8839757968937295,0.698404262201247,-0.9324925742094519,-0.9422051867002986,0.9284274828139141,-1.0760387477785303,low,low,,ISIC_0758797.JPG,,ISIC_6739241.JPG,100,false,lh,keypress(e),0,true,536607.599999994,536607.2999999821,528681.135,528918.5,528697.725,536396.199,1,40,30,
sequence,flow.Sequence,8_29,2023-11-15T15:47:36.759Z,,,,,,,,,,7909.574999982142,completion,,,,,,,low,low,,,,,,false,,,,true,536608.099999994,536607.2999999821,528681.135,528918.5,528697.725,536396.199,1,40,,
trial,html.Screen,8_30_0,2023-11-15T15:47:40.119Z,,,,2,0.0702697127166421,0.0314752704888287,,false,hh,3571.400999994017,response,0.6516255681234487,0.698404262201247,-0.9324925742094519,0.7843395519845624,0.9284274828139141,-1.1260387477785303,high,high,,ISIC_0033881.JPG,,ISIC_0065346.JPG,203,false,hl,keypress(j),0,true,539968,539967.599999994,536379.421,536608.2999999821,536396.199,539752.574,1,40,31,
sequence,flow.Sequence,8_30,2023-11-15T15:47:40.119Z,,,,,,,,,,3571.400999994017,completion,,,,,,,high,high,,,,,,false,,,,true,539968.5,539967.599999994,536379.421,536608.1999999881,536396.199,539752.574,1,40,,
trial,html.Screen,8_31_0,2023-11-15T15:47:45.239Z,,,,2,-0.0127320821962457,0.0315308940184827,,true,hl,5334.725999982096,response,0.8035152873995188,0.698404262201247,-0.9324925742094519,-1.2407642249743125,0.9784274828139141,-1.1260387477785303,high,low,,ISIC_8156101.JPG,,ISIC_0010671.JPG,51,false,hl,keypress(j),0,true,545087.599999994,545087.2999999821,539735.897,539968.6999999881,539752.574,544862.53,1,40,32,
sequence,flow.Sequence,8_31,2023-11-15T15:47:45.239Z,,,,,,,,,,5334.725999982096,completion,,,,,,,high,low,,,,,,false,,,,true,545088.099999994,545087.2999999821,539735.897,539968.6999999881,539752.574,544862.53,1,40,,
trial,html.Screen,8_32_0,2023-11-15T15:47:49.423Z,,,,2,-0.0063515208248796,-0.0194177605767913,,false,ll,4408.969999999972,response,-0.8682521581029131,0.6484042622012469,-0.9324925742094519,-1.187434999088787,0.9784274828139141,-1.1260387477785303,low,low,,ISIC_5281908.JPG,,ISIC_5772144.JPG,95,false,hl,keypress(j),0,true,549271.7999999821,549271.5,544845.931,545088.3999999762,544862.53,549054.014,1,40,33,
sequence,flow.Sequence,8_32,2023-11-15T15:47:49.424Z,,,,,,,,,,4408.969999999972,completion,,,,,,,low,low,,,,,,false,,,,true,549272.2999999821,549271.5,544845.931,545088.2999999821,544862.53,549054.014,1,40,,
trial,html.Screen,8_33_0,2023-11-15T15:47:55.991Z,,,,2,-0.0372699196710335,0.0646614895271859,,false,hh,6785.4860000000335,response,0.6805263116069403,0.6484042622012469,-0.9824925742094519,0.9373669211234515,0.9784274828139141,-1.1640996120315497,high,high,,ISIC_1175170.JPG,,ISIC_0014832.JPG,194,false,lh,keypress(e),0,true,555839.7999999821,555839.5,549037.409,549272.599999994,549054.014,555616.687,1,40,34,
sequence,flow.Sequence,8_33,2023-11-15T15:47:55.992Z,,,,,,,,,,6785.4860000000335,completion,,,,,,,high,high,,,,,,false,,,,true,555840.3999999762,555839.5,549037.409,549272.5,549054.014,555616.687,1,40,,
trial,html.Screen,8_34_0,2023-11-15T15:48:03.919Z,,,,2,0.0523524458062335,-0.0048771624512062,,false,hh,8150.612999982084,response,0.5355603376317128,0.698404262201247,-0.9824925742094519,0.8073295606252107,0.9784274828139141,-1.1640996120315497,high,high,,ISIC_0010379.JPG,,ISIC_0024840.JPG,190,false,lh,keypress(e),0,true,563767.6999999881,563767.2999999821,555600.111,555840.5,555616.687,563548.886,1,40,35,
sequence,flow.Sequence,8_34,2023-11-15T15:48:03.920Z,,,,,,,,,,8150.612999982084,completion,,,,,,,high,high,,,,,,false,,,,true,563768.1999999881,563767.2999999821,555600.111,555840.5,555616.687,563548.886,1,40,,
trial,html.Screen,8_35_0,2023-11-15T15:48:11.552Z,,,,2,0.0377791839943904,-0.0227626648172468,,false,hh,7850.713999993983,response,0.9053396132028096,0.748404262201247,-0.9824925742094519,0.7313731866464421,0.822348240874331,-1.1640996120315497,high,high,,ISIC_7167479.JPG,,ISIC_0010729.JPG,239,false,lh,keypress(e),0,true,571400,571399.599999994,563532.258,563768.5,563548.886,571180.315,1,40,36,
sequence,flow.Sequence,8_35,2023-11-15T15:48:11.552Z,,,,,,,,,,7850.713999993983,completion,,,,,,,high,high,,,,,,false,,,,true,571400.5,571399.599999994,563532.258,563768.2999999821,563548.886,571180.315,1,40,,
trial,html.Screen,8_36_0,2023-11-15T15:48:19.567Z,,,,2,-0.0658524437333868,0.0334357178485904,,false,hl,8235.084999976214,response,0.7877592509894734,0.798404262201247,-0.9824925742094519,-1.1264694181779615,0.822348240874331,-1.1640996120315497,high,low,,ISIC_8015541.JPG,,ISIC_9058340.JPG,33,false,hh,keypress(i),0,true,579415.6999999881,579415.3999999762,571163.795,571400.6999999881,571180.315,579195.992,1,40,37,
sequence,flow.Sequence,8_36,2023-11-15T15:48:19.568Z,,,,,,,,,,8235.084999976214,completion,,,,,,,high,low,,,,,,false,,,,true,579416.1999999881,579415.3999999762,571163.795,571400.599999994,571180.315,579195.992,1,40,,
trial,html.Screen,8_37_0,2023-11-15T15:48:26.647Z,,,,2,0.0458738008498492,0.0084690422621415,,true,lh,7299.20799998811,response,-0.8177771921122365,0.798404262201247,-0.9824925742094519,0.6668515442923276,0.822348240874331,-1.1640996120315497,low,high,,ISIC_4026019.JPG,,ISIC_0031018.JPG,45,false,lh,keypress(e),0,true,586495.3999999762,586495.1999999881,579179.397,579416.5,579195.992,586276.363,1,40,38,
sequence,flow.Sequence,8_37,2023-11-15T15:48:26.647Z,,,,,,,,,,7299.20799998811,completion,,,,,,,low,high,,,,,,false,,,,true,586495.6999999881,586495.1999999881,579179.397,579416.3999999762,579195.992,586276.363,1,40,,
trial,html.Screen,8_38_0,2023-11-15T15:48:34.471Z,,,,2,0.0534676262527691,0.0384996820289673,,false,lh,8043.036999976146,response,-1.007248440493079,0.798404262201247,-0.9824925742094519,0.6545324227286122,0.772348240874331,-1.1640996120315497,low,high,,ISIC_0030484.JPG,,ISIC_0030219.JPG,50,false,ll,keypress(f),0,true,594319.6999999881,594319.3999999762,586259.854,586495.8999999762,586276.363,594108.561,1,40,39,
sequence,flow.Sequence,8_38,2023-11-15T15:48:34.472Z,,,,,,,,,,8043.036999976146,completion,,,,,,,low,high,,,,,,false,,,,true,594320.099999994,594319.3999999762,586259.854,586495.7999999821,586276.363,594108.561,1,40,,
trial,html.Screen,8_39_0,2023-11-15T15:48:40.159Z,,,,2,0.0539169177295974,-0.039571352787207,,false,lh,5898.939000000013,response,-0.8479396253253069,0.798404262201247,-0.8625128163026577,1.011054319516718,0.822348240874331,-1.1640996120315497,low,high,,ISIC_1076091.JPG,,ISIC_0063521.JPG,59,false,hl,keypress(j),0,true,600007.8999999762,600007.5,594091.757,594320.3999999762,594108.561,599786.012,1,40,40,
sequence,flow.Sequence,8_39,2023-11-15T15:48:40.160Z,,,,,,,,,,5898.939000000013,completion,,,,,,,low,high,,,,,,false,,,,true,600008.3999999762,600007.5,594091.757,594320.3999999762,594108.561,599786.012,1,40,,
stair_loop,flow.Loop,8,2023-11-15T15:48:40.160Z,,,,,,,,,,290970.762,completion,,,,,,,,,,,,,,false,,,,true,600008.599999994,600007.5,309020.261,309261.89999997616,309036.738,599786.012,1,40,,
exp_instructions,html.Screen,9,2023-11-15T15:48:54.623Z,,,,,,,,,,14684.38799997617,response,,,,,,,,,,,,,,,continue,keypress(Space),,,614471.099999994,614470.3999999762,599769.491,600008.8999999762,599786.012,614247.575,,,,
trial,html.Screen,10_0_0,2023-11-15T15:49:05.392Z,,,,1,0.0560021488981517,-0.0058131881595011,,,,10770.887000000104,timeout,0.7912462399808581,0.8016223442106856,-0.921493586314112,0.7917788270540937,0.889407672329018,-1.1443600502670868,high,high,,ISIC_0000077.JPG,9,ISIC_2458253.JPG,209,false,,,0,false,625240.5,625240.3999999762,614230.747,614471.5,614247.575,625018.462,4,500,1,
break,html.Screen,10_0_1,2023-11-15T15:49:05.393Z,,,,,,,,,,NaN,,,,,,,,high,high,,,,,,false,,,,false,625241,625240.8999999762,,625240.599999994,,625018.462,4,500,,
break_continue,html.Screen,10_0_2,2023-11-15T15:49:05.393Z,,,,,,,,,,NaN,,,,,,,,high,high,,,,,,false,,,,false,625241.2999999821,625241.099999994,,625241,,625018.462,4,500,,
sequence,flow.Sequence,10_0,2023-11-15T15:49:05.393Z,,,,,,,,,,10993.524999994086,completion,,,,,,,high,high,,,,,,false,,,,false,625241.2999999821,625241.099999994,614230.747,614471.5,614247.575,625018.462,4,500,,
trial,html.Screen,10_1_0,2023-11-15T15:49:11.666Z,,,,1,0.0118555311043871,0.0087774532070196,,true,lh,6495.537999999942,response,-0.731705205298758,0.8016223442106856,-0.921493586314112,0.7016654052924971,0.889407672329018,-1.1443600502670868,low,high,,ISIC_6488658.JPG,8,ISIC_6324832.JPG,40,false,lh,keypress(e),0,false,631514.2999999821,631514,625002.026,625241.3999999762,625018.462,631297.404,4,500,2,
break,html.Screen,10_1_1,2023-11-15T15:49:11.667Z,,,,,,,,,,NaN,,,,,,,,low,high,,,,,,false,,,,false,631515.3999999762,631515.1999999881,,631514.599999994,,631297.404,4,500,,
break_continue,html.Screen,10_1_2,2023-11-15T15:49:11.668Z,,,,,,,,,,NaN,,,,,,,,low,high,,,,,,false,,,,false,631516,631515.6999999881,,631515.599999994,,631297.404,4,500,,
sequence,flow.Sequence,10_1,2023-11-15T15:49:11.668Z,,,,,,,,,,6497.237999988021,completion,,,,,,,low,high,,,,,,false,,,,false,631516.2999999821,631515.6999999881,625002.026,625241.2999999821,625018.462,631297.404,4,500,,
trial,html.Screen,10_2_0,2023-11-15T15:49:19.797Z,,,,1,-0.019361072276763,-0.0523902345755568,,true,ll,8348.395999982138,response,-0.750058317872786,0.8016223442106856,-0.921493586314112,-1.0508652558556042,0.889407672329018,-1.1443600502670868,low,low,,ISIC_4066726.JPG,9,ISIC_1794249.JPG,95,false,ll,keypress(f),0,false,639646,639645.7999999821,631280.733,631516.5,631297.404,639429.822,4,500,3,
break,html.Screen,10_2_1,2023-11-15T15:49:19.798Z,,,,,,,,,,NaN,,,,,,,,low,low,,,,,,false,,,,false,639646.2999999821,639646.1999999881,,639646,,639429.822,4,500,,
break_continue,html.Screen,10_2_2,2023-11-15T15:49:19.798Z,,,,,,,,,,NaN,,,,,,,,low,low,,,,,,false,,,,false,639646.5,639646.5,,639646.3999999762,,639429.822,4,500,,
sequence,flow.Sequence,10_2,2023-11-15T15:49:19.798Z,,,,,,,,,,8349.09600000002,completion,,,,,,,low,low,,,,,,false,,,,false,639646.599999994,639646.5,631280.733,631516.3999999762,631297.404,639429.822,4,500,,
trial,html.Screen,10_3_0,2023-11-15T15:49:24.767Z,,,,1,0.0523524458062335,-0.0048771624512062,,false,ll,5185.577999976114,response,-1.1119564877278971,0.8016223442106856,-0.921493586314112,-0.9546609075308709,0.889407672329018,-1.1443600502670868,low,low,,ISIC_0010379.JPG,8,ISIC_0056110.JPG,95,false,lh,keypress(e),0,false,644615.599999994,644615.3999999762,639413.336,639646.599999994,639429.822,644389.552,4,500,4,
break,html.Screen,10_3_1,2023-11-15T15:49:24.768Z,,,,,,,,,,NaN,,,,,,,,low,low,,,,,,false,,,,false,644616.6999999881,644616.3999999762,,644616,,644389.552,4,500,,
break_continue,html.Screen,10_3_2,2023-11-15T15:49:24.769Z,,,,,,,,,,NaN,,,,,,,,low,low,,,,,,false,,,,false,644617.2999999821,644617.1999999881,,644616.7999999821,,644389.552,4,500,,
sequence,flow.Sequence,10_3,2023-11-15T15:49:24.769Z,,,,,,,,,,5187.377999988035,completion,,,,,,,low,low,,,,,,false,,,,false,644617.599999994,644617.1999999881,639413.336,639646.599999994,639429.822,644389.552,4,500,,
trial,html.Screen,10_4_0,2023-11-15T15:49:30.111Z,,,,1,0.0362472736315994,0.0492979048777824,,false,hl,5569.847999976133,response,0.8709576717420565,0.8016223442106856,-0.921493586314112,-1.2795156779072283,0.889407672329018,-1.1443600502670868,high,low,,ISIC_5312584.JPG,8,ISIC_1925632.JPG,38,false,lh,keypress(e),0,false,649959.6999999881,649959.3999999762,644372.717,644617.8999999762,644389.552,649750.917,4,500,5,
break,html.Screen,10_4_1,2023-11-15T15:49:30.113Z,,,,,,,,,,NaN,,,,,,,,high,low,,,,,,false,,,,false,649961,649960.6999999881,,649960.099999994,,649750.917,4,500,,
break_continue,html.Screen,10_4_2,2023-11-15T15:49:30.113Z,,,,,,,,,,NaN,,,,,,,,high,low,,,,,,false,,,,false,649961.7999999821,649961.5,,649961.1999999881,,649750.917,4,500,,
sequence,flow.Sequence,10_4,2023-11-15T15:49:30.114Z,,,,,,,,,,5571.947999999975,completion,,,,,,,high,low,,,,,,false,,,,false,649962.099999994,649961.5,644372.717,644617.7999999821,644389.552,649750.917,4,500,,
trial,html.Screen,10_5_0,2023-11-15T15:49:38.495Z,,,,1,-0.0086413421586899,-0.0360184993500958,,false,ll,8592.582999999984,response,-0.831295474746028,0.8016223442106856,-0.921493586314112,-0.9721089662087676,0.889407672329018,-1.1443600502670868,low,low,,ISIC_0010767.JPG,10,ISIC_0760740.JPG,95,false,hl,keypress(j),0,false,658343.8999999762,658343.5,649716.705,649962.2999999821,649750.917,658133.064,4,500,6,
break,html.Screen,10_5_1,2023-11-15T15:49:38.497Z,,,,,,,,,,NaN,,,,,,,,low,low,,,,,,false,,,,false,658345.099999994,658344.7999999821,,658344.2999999821,,658133.064,4,500,,
break_continue,html.Screen,10_5_2,2023-11-15T15:49:38.498Z,,,,,,,,,,NaN,,,,,,,,low,low,,,,,,false,,,,false,658346.1999999881,658345.7999999821,,658345.5,,658133.064,4,500,,
sequence,flow.Sequence,10_5,2023-11-15T15:49:38.498Z,,,,,,,,,,8594.882999982103,completion,,,,,,,low,low,,,,,,false,,,,false,658346.6999999881,658345.7999999821,649716.705,649962.1999999881,649750.917,658133.064,4,500,,
trial,html.Screen,10_6_0,2023-11-15T15:49:43.839Z,,,,1,0.0310298232022856,0.0697438859399019,,true,lh,5553.735999982106,response,-0.8591294258188253,0.8016223442106856,-0.921493586314112,0.870797302150167,0.889407672329018,-1.1443600502670868,low,high,,ISIC_0027669.JPG,9,ISIC_0055841.JPG,40,false,lh,keypress(e),0,false,663687.1999999881,663686.7999999821,658116.438,658347,658133.064,663493.462,4,500,7,
break,html.Screen,10_6_1,2023-11-15T15:49:43.840Z,,,,,,,,,,NaN,,,,,,,,low,high,,,,,,false,,,,false,663688.2999999821,663688,,663687.599999994,,663493.462,4,500,,
break_continue,html.Screen,10_6_2,2023-11-15T15:49:43.841Z,,,,,,,,,,NaN,,,,,,,,low,high,,,,,,false,,,,false,663689,663688.6999999881,,663688.5,,663493.462,4,500,,
sequence,flow.Sequence,10_6,2023-11-15T15:49:43.841Z,,,,,,,,,,5555.635999988066,completion,,,,,,,low,high,,,,,,false,,,,false,663689.1999999881,663688.6999999881,658116.438,658346.8999999762,658133.064,663493.462,4,500,,
trial,html.Screen,10_7_0,2023-11-15T15:49:48.617Z,,,,1,0.0560021488981517,-0.0058131881595011,,true,lh,4970.137999993982,response,-0.9674279172871372,0.8016223442106856,-0.921493586314112,0.7134300562904723,0.889407672329018,-1.1443600502670868,low,high,,ISIC_0000077.JPG,9,ISIC_9130157.JPG,40,false,lh,keypress(e),0,false,668464,668463.599999994,663476.76,663689.3999999762,663493.462,668252.88,4,500,8,
break,html.Screen,10_7_1,2023-11-15T15:49:48.618Z,,,,,,,,,,NaN,,,,,,,,low,high,,,,,,false,,,,false,668465.099999994,668464.8999999762,,668464.2999999821,,668252.88,4,500,,
break_continue,html.Screen,10_7_2,2023-11-15T15:49:48.619Z,,,,,,,,,,NaN,,,,,,,,low,high,,,,,,false,,,,false,668465.8999999762,668465.599999994,,668465.3999999762,,668252.88,4,500,,
sequence,flow.Sequence,10_7,2023-11-15T15:49:48.619Z,,,,,,,,,,4972.137999993982,completion,,,,,,,low,high,,,,,,false,,,,false,668466.099999994,668465.599999994,663476.76,663689.3999999762,663493.462,668252.88,4,500,,
trial,html.Screen,10_8_0,2023-11-15T15:49:53.152Z,,,,1,-0.0127320821962457,0.0315308940184827,,true,hl,4746.219999994035,response,0.6795011676675823,0.8016223442106856,-0.921493586314112,-0.9453006131304652,0.889407672329018,-1.1443600502670868,high,low,,ISIC_8156101.JPG,9,ISIC_4229473.JPG,38,false,hl,keypress(j),0,false,672999.5,672999.099999994,668236.178,668466.3999999762,668252.88,672778.077,4,500,9,
break,html.Screen,10_8_1,2023-11-15T15:49:53.154Z,,,,,,,,,,NaN,,,,,,,,high,low,,,,,,false,,,,false,673000.7999999821,673000.5,,672999.8999999762,,672778.077,4,500,,
break_continue,html.Screen,10_8_2,2023-11-15T15:49:53.154Z,,,,,,,,,,NaN,,,,,,,,high,low,,,,,,false,,,,false,673001.6999999881,673001.3999999762,,673001.099999994,,672778.077,4,500,,
sequence,flow.Sequence,10_8,2023-11-15T15:49:53.155Z,,,,,,,,,,4748.5199999761535,completion,,,,,,,high,low,,,,,,false,,,,false,673002,673001.3999999762,668236.178,668466.3999999762,668252.88,672778.077,4,500,,
trial,html.Screen,10_9_0,2023-11-15T15:50:00.839Z,,,,1,-0.004212480280886,-0.0518491070608022,,true,hh,7908.122999988031,response,0.7266661488023479,0.8016223442106856,-0.921493586314112,0.8579857593997573,0.889407672329018,-1.1443600502670868,high,high,,ISIC_2945324.JPG,9,ISIC_0069556.JPG,209,false,hh,keypress(i),0,false,680686.2999999821,680686.1999999881,672761.619,673002.2999999821,672778.077,680459.678,4,500,10,
break,html.Screen,10_9_1,2023-11-15T15:50:00.839Z,,,,,,,,,,NaN,,,,,,,,high,high,,,,,,false,,,,false,680686.7999999821,680686.6999999881,,680686.5,,680459.678,4,500,,
break_continue,html.Screen,10_9_2,2023-11-15T15:50:00.840Z,,,,,,,,,,NaN,,,,,,,,high,high,,,,,,false,,,,false,680687,680686.8999999762,,680686.7999999821,,680459.678,4,500,,
sequence,flow.Sequence,10_9,2023-11-15T15:50:00.840Z,,,,,,,,,,7908.82299997611,completion,,,,,,,high,high,,,,,,false,,,,false,680687.099999994,680686.8999999762,672761.619,673002.1999999881,672778.077,680459.678,4,500,,
trial,html.Screen,10_10_0,2023-11-15T15:50:06.488Z,,,,1,-0.0051046740562181,0.0178832721027728,,true,hh,5875.121999982162,response,0.7068451036122517,0.8016223442106856,-0.921493586314112,0.8486765608331858,0.889407672329018,-1.1443600502670868,high,high,,ISIC_9545819.JPG,9,ISIC_0046416.JPG,209,false,hh,keypress(i),0,false,686335,686334.7999999821,680443.263,680687.2999999821,680459.678,686120.927,4,500,11,
break,html.Screen,10_10_1,2023-11-15T15:50:06.488Z,,,,,,,,,,NaN,,,,,,,,high,high,,,,,,false,,,,false,686335.6999999881,686335.5,,686335.099999994,,686120.927,4,500,,
break_continue,html.Screen,10_10_2,2023-11-15T15:50:06.489Z,,,,,,,,,,NaN,,,,,,,,high,high,,,,,,false,,,,false,686336.099999994,686336,,686335.6999999881,,686120.927,4,500,,
sequence,flow.Sequence,10_10,2023-11-15T15:50:06.489Z,,,,,,,,,,5876.322000000044,completion,,,,,,,high,high,,,,,,false,,,,false,686336.2999999821,686336,680443.263,680687.1999999881,680459.678,686120.927,4,500,,
trial,html.Screen,10_11_0,2023-11-15T15:50:13.561Z,,,,1,0.0158987717472563,0.0292472192292015,,false,hh,7286.772999988054,response,0.6217157399955912,0.8016223442106856,-0.921493586314112,0.8102534810809575,0.889407672329018,-1.1443600502670868,high,high,,ISIC_1366765.JPG,9,ISIC_5442834.JPG,209,false,lh,keypress(e),0,false,693408.099999994,693407.6999999881,686104.077,686336.3999999762,686120.927,693184.476,4,500,12,
break,html.Screen,10_11_1,2023-11-15T15:50:13.562Z,,,,,,,,,,NaN,,,,,,,,high,high,,,,,,false,,,,false,693409.1999999881,693409,,693408.5,,693184.476,4,500,,
break_continue,html.Screen,10_11_2,2023-11-15T15:50:13.563Z,,,,,,,,,,NaN,,,,,,,,high,high,,,,,,false,,,,false,693409.8999999762,693409.599999994,,693409.5,,693184.476,4,500,,
sequence,flow.Sequence,10_11,2023-11-15T15:50:13.563Z,,,,,,,,,,7288.672999994014,completion,,,,,,,high,high,,,,,,false,,,,false,693410.1999999881,693409.599999994,686104.077,686336.3999999762,686120.927,693184.476,4,500,,
trial,html.Screen,10_12_0,2023-11-15T15:50:17.504Z,,,,1,-0.0686816131231518,0.0045217849100701,,true,hl,4166.923999976134,response,0.9212323139676136,0.8016223442106856,-0.921493586314112,-0.9882196642247332,0.889407672329018,-1.1443600502670868,high,low,,ISIC_5707761.JPG,9,ISIC_0014255.JPG,38,false,hl,keypress(j),0,false,697351.6999999881,697351.3999999762,693167.937,693410.5,693184.476,697142.783,4,500,13,
break,html.Screen,10_12_1,2023-11-15T15:50:17.506Z,,,,,,,,,,NaN,,,,,,,,high,low,,,,,,false,,,,false,697353,697352.599999994,,697352.1999999881,,697142.783,4,500,,
break_continue,html.Screen,10_12_2,2023-11-15T15:50:17.506Z,,,,,,,,,,NaN,,,,,,,,high,low,,,,,,false,,,,false,697353.6999999881,697353.5,,697353.2999999821,,697142.783,4,500,,
sequence,flow.Sequence,10_12,2023-11-15T15:50:17.507Z,,,,,,,,,,4169.023999999976,completion,,,,,,,high,low,,,,,,false,,,,false,697354,697353.5,693167.937,693410.3999999762,693184.476,697142.783,4,500,,
trial,html.Screen,10_13_0,2023-11-15T15:50:26.449Z,,,,1,0.0702697127166421,0.0314752704888287,,false,hh,9152.916999988025,response,0.8575434403995947,0.8016223442106856,-0.921493586314112,0.6932250736789632,0.889407672329018,-1.1443600502670868,high,high,,ISIC_0033881.JPG,8,ISIC_0064563.JPG,209,false,lh,keypress(e),0,false,706296,706295.6999999881,697108.96,697354.1999999881,697142.783,706076.245,4,500,14,
break,html.Screen,10_13_1,2023-11-15T15:50:26.450Z,,,,,,,,,,NaN,,,,,,,,high,high,,,,,,false,,,,false,706297.2999999821,706296.8999999762,,706296.3999999762,,706076.245,4,500,,
break_continue,html.Screen,10_13_2,2023-11-15T15:50:26.451Z,,,,,,,,,,NaN,,,,,,,,high,high,,,,,,false,,,,false,706298,706297.7999999821,,706297.5,,706076.245,4,500,,
sequence,flow.Sequence,10_13,2023-11-15T15:50:26.451Z,,,,,,,,,,9155.016999982065,completion,,,,,,,high,high,,,,,,false,,,,false,706298.3999999762,706297.7999999821,697108.96,697354.099999994,697142.783,706076.245,4,500,,
trial,html.Screen,10_14_0,2023-11-15T15:50:37.223Z,,,,1,-0.0744767864787991,0.0482768027208112,,,,10770.940999999992,timeout,-0.8682521581029131,0.8016223442106856,-0.921493586314112,-1.187434999088787,0.889407672329018,-1.1443600502670868,low,low,,ISIC_0011482.JPG,9,ISIC_5772144.JPG,95,false,,,0,false,717070.3999999762,717070.099999994,706059.699,706298.599999994,706076.245,716847.186,4,500,15,
break,html.Screen,10_14_1,2023-11-15T15:50:37.224Z,,,,,,,,,,NaN,,,,,,,,low,low,,,,,,false,,,,false,717071.5,717071.2999999821,,717070.6999999881,,716847.186,4,500,,
break_continue,html.Screen,10_14_2,2023-11-15T15:50:37.225Z,,,,,,,,,,NaN,,,,,,,,low,low,,,,,,false,,,,false,717072.099999994,717071.8999999762,,717071.6999999881,,716847.186,4,500,,
sequence,flow.Sequence,10_14,2023-11-15T15:50:37.225Z,,,,,,,,,,10995.654999976163,completion,,,,,,,low,low,,,,,,false,,,,false,717072.599999994,717071.8999999762,706059.699,706298.599999994,706076.245,716847.186,4,500,,
trial,html.Screen,10_15_0,2023-11-15T15:50:42.232Z,,,,1,-0.0365381185115645,0.0498888424276865,,true,hl,5232.213999976171,response,0.7450700429395554,0.8016223442106856,-0.921493586314112,-1.1659665266603083,0.889407672329018,-1.1443600502670868,high,low,,ISIC_0682543.JPG,9,ISIC_3736075.JPG,38,false,hl,keypress(j),0,false,722079.7999999821,722079.3999999762,716830.794,717072.6999999881,716847.186,721856.943,4,500,16,
break,html.Screen,10_15_1,2023-11-15T15:50:42.234Z,,,,,,,,,,NaN,,,,,,,,high,low,,,,,,false,,,,false,722081.1999999881,722080.7999999821,,722080.1999999881,,721856.943,4,500,,
break_continue,html.Screen,10_15_2,2023-11-15T15:50:42.235Z,,,,,,,,,,NaN,,,,,,,,high,low,,,,,,false,,,,false,722081.8999999762,722081.6999999881,,722081.3999999762,,721856.943,4,500,,
sequence,flow.Sequence,10_15,2023-11-15T15:50:42.235Z,,,,,,,,,,5234.513999988092,completion,,,,,,,high,low,,,,,,false,,,,false,722082.2999999821,722081.6999999881,716830.794,717072.6999999881,716847.186,721856.943,4,500,,
trial,html.Screen,10_16_0,2023-11-15T15:50:49.337Z,,,,1,0.0534676262527691,0.0384996820289673,,true,ll,7326.656999994069,response,-0.7299743705691103,0.8016223442106856,-0.921493586314112,-1.0949938030026491,0.889407672329018,-1.1443600502670868,low,low,,ISIC_0030484.JPG,9,ISIC_0031598.JPG,95,false,ll,keypress(f),0,false,729184,729183.599999994,721840.283,722082.5,721856.943,728971.011,4,500,17,
break,html.Screen,10_16_1,2023-11-15T15:50:49.338Z,,,,,,,,,,NaN,,,,,,,,low,low,,,,,,false,,,,false,729185.1999999881,729184.8999999762,,729184.3999999762,,728971.011,4,500,,
break_continue,html.Screen,10_16_2,2023-11-15T15:50:49.339Z,,,,,,,,,,NaN,,,,,,,,low,low,,,,,,false,,,,false,729185.7999999821,729185.599999994,,729185.3999999762,,728971.011,4,500,,
sequence,flow.Sequence,10_16,2023-11-15T15:50:49.339Z,,,,,,,,,,7328.656999994069,completion,,,,,,,low,low,,,,,,false,,,,false,729186.099999994,729185.599999994,721840.283,722082.5,721856.943,728971.011,4,500,,
trial,html.Screen,10_17_0,2023-11-15T15:50:55.103Z,,,,1,-0.0365981355399771,-0.0162670920008846,,true,hh,5978.988999999943,response,0.7204912409698233,0.8016223442106856,-0.921493586314112,0.7315343683257536,0.889407672329018,-1.1443600502670868,high,high,,ISIC_0982855.JPG,9,ISIC_0029050.JPG,209,false,hh,keypress(i),0,false,734950.099999994,734950,728954.245,729186.2999999821,728971.011,734732.028,4,500,18,
break,html.Screen,10_17_1,2023-11-15T15:50:55.104Z,,,,,,,,,,NaN,,,,,,,,high,high,,,,,,false,,,,false,734950.5,734950.3999999762,,734950.1999999881,,734732.028,4,500,,
break_continue,html.Screen,10_17_2,2023-11-15T15:50:55.104Z,,,,,,,,,,NaN,,,,,,,,high,high,,,,,,false,,,,false,734950.6999999881,734950.599999994,,734950.5,,734732.028,4,500,,
sequence,flow.Sequence,10_17,2023-11-15T15:50:55.104Z,,,,,,,,,,5979.588999993983,completion,,,,,,,high,high,,,,,,false,,,,false,734950.6999999881,734950.599999994,728954.245,729186.2999999821,728971.011,734732.028,4,500,,
trial,html.Screen,10_18_0,2023-11-15T15:51:00.297Z,,,,1,0.0310298232022856,0.0697438859399019,,false,hl,5411.67199998803,response,0.6629163102028129,0.8016223442106856,-0.921493586314112,-1.000470054909676,0.889407672329018,-1.1443600502670868,high,low,,ISIC_0027669.JPG,8,ISIC_9562157.JPG,38,false,ll,keypress(f),0,false,740144,740143.6999999881,734715.515,734950.7999999821,734732.028,739925.515,4,500,19,
break,html.Screen,10_18_1,2023-11-15T15:51:00.298Z,,,,,,,,,,NaN,,,,,,,,high,low,,,,,,false,,,,false,740145.1999999881,740144.8999999762,,740144.3999999762,,739925.515,4,500,,
break_continue,html.Screen,10_18_2,2023-11-15T15:51:00.299Z,,,,,,,,,,NaN,,,,,,,,high,low,,,,,,false,,,,false,740145.8999999762,740145.599999994,,740145.2999999821,,739925.515,4,500,,
sequence,flow.Sequence,10_18,2023-11-15T15:51:00.299Z,,,,,,,,,,5413.57199999399,completion,,,,,,,high,low,,,,,,false,,,,false,740146.099999994,740145.599999994,734715.515,734950.7999999821,734732.028,739925.515,4,500,,
trial,html.Screen,10_19_0,2023-11-15T15:51:07.216Z,,,,1,0.0158987717472563,0.0292472192292015,,true,hh,7136.684999988065,response,0.8145925452767395,0.8016223442106856,-0.921493586314112,0.9895687497294692,0.889407672329018,-1.1443600502670868,high,high,,ISIC_1366765.JPG,10,ISIC_0027751.JPG,209,false,hh,keypress(i),0,false,747062.2999999821,747062.1999999881,739908.956,740146.3999999762,739925.515,746838.922,4,500,20,
break,html.Screen,10_19_1,2023-11-15T15:51:07.216Z,,,,,,,,,,NaN,,,,,,,,high,high,,,,,,false,,,,false,747062.6999999881,747062.599999994,,747062.3999999762,,746838.922,4,500,,
break_continue,html.Screen,10_19_2,2023-11-15T15:51:07.216Z,,,,,,,,,,NaN,,,,,,,,high,high,,,,,,false,,,,false,747062.7999999821,747062.6999999881,,747062.6999999881,,746838.922,4,500,,
sequence,flow.Sequence,10_19,2023-11-15T15:51:07.216Z,,,,,,,,,,7137.184999988065,completion,,,,,,,high,high,,,,,,false,,,,false,747062.7999999821,747062.6999999881,739908.956,740146.2999999821,739925.515,746838.922,4,500,,
trial,html.Screen,10_20_0,2023-11-15T15:51:14.409Z,,,,1,-0.0207120852539861,-0.0589023744433183,,false,ll,7416.877999982098,response,-0.7808813078434221,0.8016223442106856,-0.921493586314112,-1.0657303317575737,0.889407672329018,-1.1443600502670868,low,low,,ISIC_7973601.JPG,9,ISIC_5357288.JPG,95,false,hh,keypress(i),0,false,754256.099999994,754255.7999999821,746822.464,747063,746838.922,754036.261,4,500,21,
break,html.Screen,10_20_1,2023-11-15T15:51:14.411Z,,,,,,,,,,NaN,,,,,,,,low,low,,,,,,false,,,,false,754257.1999999881,754257,,754256.5,,754036.261,4,500,,
break_continue,html.Screen,10_20_2,2023-11-15T15:51:14.411Z,,,,,,,,,,NaN,,,,,,,,low,low,,,,,,false,,,,false,754257.8999999762,754257.6999999881,,754257.5,,754036.261,4,500,,
sequence,flow.Sequence,10_20,2023-11-15T15:51:14.412Z,,,,,,,,,,7418.777999988059,completion,,,,,,,low,low,,,,,,false,,,,false,754258.1999999881,754257.6999999881,746822.464,747062.8999999762,746838.922,754036.261,4,500,,
trial,html.Screen,10_21_0,2023-11-15T15:51:20.919Z,,,,1,0.0742149355137113,0.0423516069066019,,false,hl,6729.738999999943,response,0.6227981960440669,0.8016223442106856,-0.921493586314112,-1.2603082257174012,0.889407672329018,-1.1443600502670868,high,low,,ISIC_0011483.JPG,9,ISIC_7896667.JPG,38,false,ll,keypress(f),0,false,760766.1999999881,760766,754019.734,754258.5,754036.261,760548.902,4,500,22,
break,html.Screen,10_21_1,2023-11-15T15:51:20.920Z,,,,,,,,,,NaN,,,,,,,,high,low,,,,,,false,,,,false,760766.6999999881,760766.599999994,,760766.2999999821,,760548.902,4,500,,
break_continue,html.Screen,10_21_2,2023-11-15T15:51:20.920Z,,,,,,,,,,NaN,,,,,,,,high,low,,,,,,false,,,,false,760766.7999999821,760766.7999999821,,760766.6999999881,,760548.902,4,500,,
sequence,flow.Sequence,10_21,2023-11-15T15:51:20.920Z,,,,,,,,,,6730.538999982062,completion,,,,,,,high,low,,,,,,false,,,,false,760766.8999999762,760766.7999999821,754019.734,754258.3999999762,754036.261,760548.902,4,500,,
trial,html.Screen,10_22_0,2023-11-15T15:51:28.850Z,,,,1,0.0085520978188085,-0.0535296539628673,,true,ll,8147.097999999998,response,-0.8997449990565672,0.8016223442106856,-0.921493586314112,-0.9792890899144426,0.889407672329018,-1.1443600502670868,low,low,,ISIC_0758797.JPG,9,ISIC_0469314.JPG,95,false,ll,keypress(f),0,false,768696.2999999821,768696,760532.301,760767,760548.902,768481.046,4,500,23,
break,html.Screen,10_22_1,2023-11-15T15:51:28.851Z,,,,,,,,,,NaN,,,,,,,,low,low,,,,,,false,,,,false,768697.5,768697.1999999881,,768696.599999994,,768481.046,4,500,,
break_continue,html.Screen,10_22_2,2023-11-15T15:51:28.852Z,,,,,,,,,,NaN,,,,,,,,low,low,,,,,,false,,,,false,768698.1999999881,768698,,768697.6999999881,,768481.046,4,500,,
sequence,flow.Sequence,10_22,2023-11-15T15:51:28.852Z,,,,,,,,,,8149.097999999998,completion,,,,,,,low,low,,,,,,false,,,,false,768698.599999994,768698,760532.301,760767,760548.902,768481.046,4,500,,
trial,html.Screen,10_23_0,2023-11-15T15:51:37.360Z,,,,1,-0.0372699196710335,0.0646614895271859,,true,ll,8725.653999988106,response,-0.8489509131309453,0.8016223442106856,-0.921493586314112,-1.2058016113145278,0.889407672329018,-1.1443600502670868,low,low,,ISIC_1175170.JPG,8,ISIC_6393611.JPG,95,false,ll,keypress(f),0,false,777206.8999999762,777206.6999999881,768464.538,768698.7999999821,768481.046,776980.945,4,500,24,
break,html.Screen,10_23_1,2023-11-15T15:51:37.361Z,,,,,,,,,,NaN,,,,,,,,low,low,,,,,,false,,,,false,777207.5,777207.2999999821,,777207.099999994,,776980.945,4,500,,
break_continue,html.Screen,10_23_2,2023-11-15T15:51:37.361Z,,,,,,,,,,NaN,,,,,,,,low,low,,,,,,false,,,,false,777207.7999999821,777207.6999999881,,777207.599999994,,776980.945,4,500,,
sequence,flow.Sequence,10_23,2023-11-15T15:51:37.361Z,,,,,,,,,,8726.653999988106,completion,,,,,,,low,low,,,,,,false,,,,false,777208,777207.6999999881,768464.538,768698.6999999881,768481.046,776980.945,4,500,,
trial,html.Screen,10_24_0,2023-11-15T15:51:44.569Z,,,,1,0.0362472736315994,0.0492979048777824,,true,hh,7434.75499998813,response,0.8085595413214888,0.8016223442106856,-0.921493586314112,0.8518108559233278,0.889407672329018,-1.1443600502670868,high,high,,ISIC_5312584.JPG,10,ISIC_0011728.JPG,209,false,hh,keypress(i),0,false,784416,784415.6999999881,776964.422,777208.099999994,776980.945,784195.002,4,500,25,
break,html.Screen,10_24_1,2023-11-15T15:51:44.570Z,,,,,,,,,,NaN,,,,,,,,high,high,,,,,,false,,,,false,784417.1999999881,784416.8999999762,,784416.3999999762,,784195.002,4,500,,
break_continue,html.Screen,10_24_2,2023-11-15T15:51:44.571Z,,,,,,,,,,NaN,,,,,,,,high,high,,,,,,false,,,,false,784417.7999999821,784417.599999994,,784417.3999999762,,784195.002,4,500,,
sequence,flow.Sequence,10_24,2023-11-15T15:51:44.571Z,,,,,,,,,,7436.654999994091,completion,,,,,,,high,high,,,,,,false,,,,false,784418.1999999881,784417.599999994,776964.422,777208.099999994,776980.945,784195.002,4,500,,
trial,html.Screen,10_25_0,2023-11-15T15:51:52.794Z,,,,1,-0.0658524437333868,0.0334357178485904,,true,ll,8444.498000000021,response,-1.0730492496332733,0.8016223442106856,-0.921493586314112,-1.0252626598876022,0.889407672329018,-1.1443600502670868,low,low,,ISIC_8015541.JPG,9,ISIC_0007029.JPG,95,false,ll,keypress(f),0,false,792639.8999999762,792639.5,784178.402,784418.2999999821,784195.002,792427.916,4,500,26,
break,html.Screen,10_25_1,2023-11-15T15:51:52.795Z,,,,,,,,,,NaN,,,,,,,,low,low,,,,,,false,,,,false,792641,792640.7999999821,,792640.2999999821,,792427.916,4,500,,
break_continue,html.Screen,10_25_2,2023-11-15T15:51:52.796Z,,,,,,,,,,NaN,,,,,,,,low,low,,,,,,false,,,,false,792641.6999999881,792641.5,,792641.1999999881,,792427.916,4,500,,
sequence,flow.Sequence,10_25,2023-11-15T15:51:52.796Z,,,,,,,,,,8446.498000000021,completion,,,,,,,low,low,,,,,,false,,,,false,792642,792641.5,784178.402,784418.2999999821,784195.002,792427.916,4,500,,
trial,html.Screen,10_26_0,2023-11-15T15:51:59.994Z,,,,1,-0.0127364719403411,-0.0549103570808099,,true,hl,7411.88399998215,response,0.8407642478899736,0.8016223442106856,-0.921493586314112,-0.9542322753334054,0.889407672329018,-1.1443600502670868,high,low,,ISIC_0054705.JPG,9,ISIC_9090822.JPG,38,false,hl,keypress(j),0,false,799840.099999994,799839.7999999821,792411.184,792642.1999999881,792427.916,799625.143,4,500,27,
break,html.Screen,10_26_1,2023-11-15T15:51:59.995Z,,,,,,,,,,NaN,,,,,,,,high,low,,,,,,false,,,,false,799841.2999999821,799841,,799840.5,,799625.143,4,500,,
break_continue,html.Screen,10_26_2,2023-11-15T15:51:59.996Z,,,,,,,,,,NaN,,,,,,,,high,low,,,,,,false,,,,false,799842,799841.7999999821,,799841.5,,799625.143,4,500,,
sequence,flow.Sequence,10_26,2023-11-15T15:51:59.996Z,,,,,,,,,,7413.88399998215,completion,,,,,,,high,low,,,,,,false,,,,false,799842.3999999762,799841.7999999821,792411.184,792642.1999999881,792427.916,799625.143,4,500,,
trial,html.Screen,10_27_0,2023-11-15T15:52:06.354Z,,,,1,0.0023664502831079,0.0252784582169994,,true,hl,6574.4569999939995,response,0.7877592509894734,0.8016223442106856,-0.921493586314112,-1.1264694181779615,0.889407672329018,-1.1443600502670868,high,low,,ISIC_4156010.JPG,9,ISIC_9058340.JPG,38,false,hl,keypress(j),0,false,806200,806199.599999994,799608.459,799842.599999994,799625.143,805987.548,4,500,28,
break,html.Screen,10_27_1,2023-11-15T15:52:06.355Z,,,,,,,,,,NaN,,,,,,,,high,low,,,,,,false,,,,false,806201.099999994,806200.7999999821,,806200.3999999762,,805987.548,4,500,,
break_continue,html.Screen,10_27_2,2023-11-15T15:52:06.356Z,,,,,,,,,,NaN,,,,,,,,high,low,,,,,,false,,,,false,806201.8999999762,806201.6999999881,,806201.3999999762,,805987.548,4,500,,
sequence,flow.Sequence,10_27,2023-11-15T15:52:06.356Z,,,,,,,,,,6576.556999988039,completion,,,,,,,high,low,,,,,,false,,,,false,806202.2999999821,806201.6999999881,799608.459,799842.5,799625.143,805987.548,4,500,,
trial,html.Screen,10_28_0,2023-11-15T15:52:13.242Z,,,,1,0.0668201703083464,-0.0222223530621927,,false,ll,7100.452000000048,response,-0.9203094922714854,0.8016223442106856,-0.921493586314112,-1.2983013773851462,0.889407672329018,-1.1443600502670868,low,low,,ISIC_8321148.JPG,9,ISIC_6001936.JPG,95,false,lh,keypress(e),0,false,813088.2999999821,813088,805970.745,806202.5,805987.548,812867.425,4,500,29,
break,html.Screen,10_28_1,2023-11-15T15:52:13.243Z,,,,,,,,,,NaN,,,,,,,,low,low,,,,,,false,,,,false,813089.5,813089.1999999881,,813088.6999999881,,812867.425,4,500,,
break_continue,html.Screen,10_28_2,2023-11-15T15:52:13.244Z,,,,,,,,,,NaN,,,,,,,,low,low,,,,,,false,,,,false,813090.1999999881,813089.8999999762,,813089.6999999881,,812867.425,4,500,,
sequence,flow.Sequence,10_28,2023-11-15T15:52:13.244Z,,,,,,,,,,7102.351999976207,completion,,,,,,,low,low,,,,,,false,,,,false,813090.5,813089.8999999762,805970.745,806202.3999999762,805987.548,812867.425,4,500,,
trial,html.Screen,10_29_0,2023-11-15T15:52:18.738Z,,,,1,-0.0321039635696159,-0.020496766286318,,true,ll,5716.2749999880325,response,-0.8489509131309453,0.8016223442106856,-0.921493586314112,-1.2058016113145278,0.889407672329018,-1.1443600502670868,low,low,,ISIC_0058063.JPG,9,ISIC_6393611.JPG,95,false,ll,keypress(f),0,false,818584.099999994,818583.6999999881,812850.895,813090.6999999881,812867.425,818361.47,4,500,30,
break,html.Screen,10_29_1,2023-11-15T15:52:18.739Z,,,,,,,,,,NaN,,,,,,,,low,low,,,,,,false,,,,false,818585.2999999821,818585,,818584.3999999762,,818361.47,4,500,,
break_continue,html.Screen,10_29_2,2023-11-15T15:52:18.740Z,,,,,,,,,,NaN,,,,,,,,low,low,,,,,,false,,,,false,818585.8999999762,818585.6999999881,,818585.5,,818361.47,4,500,,
sequence,flow.Sequence,10_29,2023-11-15T15:52:18.740Z,,,,,,,,,,5718.2749999880325,completion,,,,,,,low,low,,,,,,false,,,,false,818586.1999999881,818585.6999999881,812850.895,813090.6999999881,812867.425,818361.47,4,500,,
trial,html.Screen,10_30_0,2023-11-15T15:52:23.569Z,,,,1,-0.0127320821962457,0.0315308940184827,,true,hh,5053.329999982147,response,0.7427258768301445,0.8016223442106856,-0.921493586314112,0.7291248954594411,0.889407672329018,-1.1443600502670868,high,high,,ISIC_8156101.JPG,9,ISIC_0060829.JPG,209,false,hh,keypress(i),0,false,823414.8999999762,823414.7999999821,818344.915,818586.5,818361.47,823204.624,4,500,31,
break,html.Screen,10_30_1,2023-11-15T15:52:23.569Z,,,,,,,,,,NaN,,,,,,,,high,high,,,,,,false,,,,false,823415.5,823415.2999999821,,823415.099999994,,823204.624,4,500,,
break_continue,html.Screen,10_30_2,2023-11-15T15:52:23.570Z,,,,,,,,,,NaN,,,,,,,,high,high,,,,,,false,,,,false,823415.7999999821,823415.6999999881,,823415.599999994,,823204.624,4,500,,
sequence,flow.Sequence,10_30,2023-11-15T15:52:23.570Z,,,,,,,,,,5054.229999988107,completion,,,,,,,high,high,,,,,,false,,,,false,823416,823415.6999999881,818344.915,818586.3999999762,818361.47,823204.624,4,500,,
trial,html.Screen,10_31_0,2023-11-15T15:52:29.482Z,,,,1,-0.0029978997915594,0.0736178673732526,,true,hl,6122.775999976206,response,0.9566823908868002,0.8016223442106856,-0.921493586314112,-0.9602125665128364,0.889407672329018,-1.1443600502670868,high,low,,ISIC_9745038.JPG,9,ISIC_0056784.JPG,38,false,hl,keypress(j),0,false,829327.7999999821,829327.3999999762,823170.943,823416.1999999881,823204.624,829115.772,4,500,32,
break,html.Screen,10_31_1,2023-11-15T15:52:29.483Z,,,,,,,,,,NaN,,,,,,,,high,low,,,,,,false,,,,false,829328.7999999821,829328.599999994,,829328.1999999881,,829115.772,4,500,,
break_continue,html.Screen,10_31_2,2023-11-15T15:52:29.483Z,,,,,,,,,,NaN,,,,,,,,high,low,,,,,,false,,,,false,829329.5,829329.2999999821,,829329.099999994,,829115.772,4,500,,
sequence,flow.Sequence,10_31,2023-11-15T15:52:29.484Z,,,,,,,,,,6124.675999982166,completion,,,,,,,high,low,,,,,,false,,,,false,829329.7999999821,829329.2999999821,823170.943,823416.099999994,823204.624,829115.772,4,500,,
trial,html.Screen,10_32_0,2023-11-15T15:52:38.298Z,,,,1,0.0523524458062335,-0.0048771624512062,,false,hl,9028.228000000003,response,0.7277664800679337,0.8016223442106856,-0.921493586314112,-1.2162806898850131,0.889407672329018,-1.1443600502670868,high,low,,ISIC_0010379.JPG,9,ISIC_0013777.JPG,38,false,ll,keypress(f),0,false,838144.2999999821,838144,829099.042,829330,829115.772,837932.978,4,500,33,
break,html.Screen,10_32_1,2023-11-15T15:52:38.299Z,,,,,,,,,,NaN,,,,,,,,high,low,,,,,,false,,,,false,838145.599999994,838145.2999999821,,838144.6999999881,,837932.978,4,500,,
break_continue,html.Screen,10_32_2,2023-11-15T15:52:38.300Z,,,,,,,,,,NaN,,,,,,,,high,low,,,,,,false,,,,false,838146.2999999821,838146.099999994,,838145.7999999821,,837932.978,4,500,,
sequence,flow.Sequence,10_32,2023-11-15T15:52:38.300Z,,,,,,,,,,9030.327999994042,completion,,,,,,,high,low,,,,,,false,,,,false,838146.5,838146.099999994,829099.042,829329.8999999762,829115.772,837932.978,4,500,,
trial,html.Screen,10_33_0,2023-11-15T15:52:46.258Z,,,,1,0.012020985739544,-0.0126097407389903,,false,lh,8170.821999982116,response,-1.1172883106398417,0.8016223442106856,-0.921493586314112,0.7336493335132354,0.889407672329018,-1.1443600502670868,low,high,,ISIC_0069379.JPG,9,ISIC_7415335.JPG,40,false,hl,keypress(j),0,false,846104.099999994,846103.7999999821,837916.295,838146.6999999881,837932.978,845881.704,4,500,34,
break,html.Screen,10_33_1,2023-11-15T15:52:46.259Z,,,,,,,,,,NaN,,,,,,,,low,high,,,,,,false,,,,false,846105.1999999881,846105,,846104.5,,845881.704,4,500,,
break_continue,html.Screen,10_33_2,2023-11-15T15:52:46.260Z,,,,,,,,,,NaN,,,,,,,,low,high,,,,,,false,,,,false,846105.8999999762,846105.6999999881,,846105.3999999762,,845881.704,4,500,,
sequence,flow.Sequence,10_33,2023-11-15T15:52:46.260Z,,,,,,,,,,8172.721999988076,completion,,,,,,,low,high,,,,,,false,,,,false,846106.1999999881,846105.6999999881,837916.295,838146.599999994,837932.978,845881.704,4,500,,
trial,html.Screen,10_34_0,2023-11-15T15:52:52.602Z,,,,1,-0.0127320821962457,0.0315308940184827,,false,hl,6565.495999988052,response,0.7877592509894734,0.8016223442106856,-0.921493586314112,-1.1264694181779615,0.889407672329018,-1.1443600502670868,high,low,,ISIC_8156101.JPG,9,ISIC_9058340.JPG,38,false,hh,keypress(i),0,false,852447.3999999762,852447.1999999881,845865.042,846106.5,845881.704,852227.376,4,500,35,
break,html.Screen,10_34_1,2023-11-15T15:52:52.603Z,,,,,,,,,,NaN,,,,,,,,high,low,,,,,,false,,,,false,852448.099999994,852448,,852447.599999994,,852227.376,4,500,,
break_continue,html.Screen,10_34_2,2023-11-15T15:52:52.603Z,,,,,,,,,,NaN,,,,,,,,high,low,,,,,,false,,,,false,852448.5,852448.3999999762,,852448.1999999881,,852227.376,4,500,,
sequence,flow.Sequence,10_34,2023-11-15T15:52:52.603Z,,,,,,,,,,6566.695999976131,completion,,,,,,,high,low,,,,,,false,,,,false,852448.6999999881,852448.3999999762,845865.042,846106.2999999821,845881.704,852227.376,4,500,,
trial,html.Screen,10_35_0,2023-11-15T15:53:03.011Z,,,,1,-0.0658524437333868,0.0334357178485904,,true,lh,10628.723999993992,response,-0.7785184841253222,0.8016223442106856,-0.921493586314112,0.8564302235174217,0.889407672329018,-1.1443600502670868,low,high,,ISIC_8015541.JPG,9,ISIC_6529073.JPG,40,false,lh,keypress(e),0,false,862856.3999999762,862856.099999994,852210.954,852448.8999999762,852227.376,862631.034,4,500,36,
break,html.Screen,10_35_1,2023-11-15T15:53:03.012Z,,,,,,,,,,NaN,,,,,,,,low,high,,,,,,false,,,,false,862857.6999999881,862857.2999999821,,862856.8999999762,,862631.034,4,500,,
break_continue,html.Screen,10_35_2,2023-11-15T15:53:03.013Z,,,,,,,,,,NaN,,,,,,,,low,high,,,,,,false,,,,false,862858.3999999762,862858.1999999881,,862858,,862631.034,4,500,,
sequence,flow.Sequence,10_35,2023-11-15T15:53:03.013Z,,,,,,,,,,10630.823999988032,completion,,,,,,,low,high,,,,,,false,,,,false,862858.7999999821,862858.1999999881,852210.954,852448.7999999821,852227.376,862631.034,4,500,,
trial,html.Screen,10_36_0,2023-11-15T15:53:08.972Z,,,,1,-0.0365381185115645,0.0498888424276865,,false,lh,6185.7659999821335,response,-0.849847885203758,0.8016223442106856,-0.921493586314112,0.973447384095442,0.889407672329018,-1.1443600502670868,low,high,,ISIC_0682543.JPG,9,ISIC_9612228.JPG,40,false,ll,keypress(f),0,false,868817.099999994,868816.7999999821,862614.53,862858.8999999762,862631.034,868592.562,4,500,37,
break,html.Screen,10_36_1,2023-11-15T15:53:08.973Z,,,,,,,,,,NaN,,,,,,,,low,high,,,,,,false,,,,false,868818.3999999762,868818,,868817.599999994,,868592.562,4,500,,
break_continue,html.Screen,10_36_2,2023-11-15T15:53:08.973Z,,,,,,,,,,NaN,,,,,,,,low,high,,,,,,false,,,,false,868818.5,868818.5,,868818.3999999762,,868592.562,4,500,,
sequence,flow.Sequence,10_36,2023-11-15T15:53:08.973Z,,,,,,,,,,6187.466000000015,completion,,,,,,,low,high,,,,,,false,,,,false,868818.6999999881,868818.5,862614.53,862858.8999999762,862631.034,868592.562,4,500,,
trial,html.Screen,10_37_0,2023-11-15T15:53:19.683Z,,,,1,0.0071892445601978,-0.0246015408628738,,true,hl,10935.437999999966,response,0.6170070168523604,0.8016223442106856,-0.921493586314112,-1.033442916947398,0.889407672329018,-1.1443600502670868,high,low,,ISIC_0014133.JPG,9,ISIC_0031389.JPG,38,false,hl,keypress(j),0,false,879528.3999999762,879528,868576.006,868818.6999999881,868592.562,879313.676,4,500,38,
break,html.Screen,10_37_1,2023-11-15T15:53:19.684Z,,,,,,,,,,NaN,,,,,,,,high,low,,,,,,false,,,,false,879529.3999999762,879529.2999999821,,879528.6999999881,,879313.676,4,500,,
break_continue,html.Screen,10_37_2,2023-11-15T15:53:19.685Z,,,,,,,,,,NaN,,,,,,,,high,low,,,,,,false,,,,false,879530.1999999881,879529.8999999762,,879529.6999999881,,879313.676,4,500,,
sequence,flow.Sequence,10_37,2023-11-15T15:53:19.685Z,,,,,,,,,,10937.337999976124,completion,,,,,,,high,low,,,,,,false,,,,false,879530.5,879529.8999999762,868576.006,868818.6999999881,868592.562,879313.676,4,500,,
trial,html.Screen,10_38_0,2023-11-15T15:53:30.458Z,,,,1,0.0496743860812164,0.0010487105450318,,,,10770.79700000002,timeout,0.781391003063482,0.8016223442106856,-0.921493586314112,-0.9644960393010829,0.889407672329018,-1.1443600502670868,high,low,,ISIC_9312264.JPG,9,ISIC_2087913.JPG,38,false,,,0,false,890303.3999999762,890303.099999994,879296.903,879530.6999999881,879313.676,890084.473,4,500,39,
break,html.Screen,10_38_1,2023-11-15T15:53:30.459Z,,,,,,,,,,NaN,,,,,,,,high,low,,,,,,false,,,,false,890304.5,890304.2999999821,,890303.6999999881,,890084.473,4,500,,
break_continue,html.Screen,10_38_2,2023-11-15T15:53:30.460Z,,,,,,,,,,NaN,,,,,,,,high,low,,,,,,false,,,,false,890305.2999999821,890305,,890304.7999999821,,890084.473,4,500,,
sequence,flow.Sequence,10_38,2023-11-15T15:53:30.460Z,,,,,,,,,,10991.324000000022,completion,,,,,,,high,low,,,,,,false,,,,false,890305.5,890305,879296.903,879530.6999999881,879313.676,890084.473,4,500,,
trial,html.Screen,10_39_0,2023-11-15T15:53:36.819Z,,,,1,0.0560021488981517,-0.0058131881595011,,false,ll,6579.3269999821205,response,-0.7788290251898069,0.8016223442106856,-0.921493586314112,-1.3391711348160682,0.889407672329018,-1.1443600502670868,low,low,,ISIC_0000077.JPG,10,ISIC_0033640.JPG,95,false,lh,keypress(e),0,false,896664.099999994,896663.7999999821,890067.932,890305.7999999821,890084.473,896446.862,4,500,40,
break,html.Screen,10_39_1,2023-11-15T15:53:36.820Z,,,,,,,,,,NaN,,,,,,,,low,low,,,,,,false,,,,false,896665.1999999881,896664.8999999762,,896664.3999999762,,896446.862,4,500,,
break_continue,html.Screen,10_39_2,2023-11-15T15:53:36.820Z,,,,,,,,,,NaN,,,,,,,,low,low,,,,,,false,,,,false,896666,896665.6999999881,,896665.3999999762,,896446.862,4,500,,
sequence,flow.Sequence,10_39,2023-11-15T15:53:36.821Z,,,,,,,,,,6581.226999988081,completion,,,,,,,low,low,,,,,,false,,,,false,896666.1999999881,896665.6999999881,890067.932,890305.6999999881,890084.473,896446.862,4,500,,
trial,html.Screen,10_40_0,2023-11-15T15:53:42.969Z,,,,1,0.0060934073440827,0.0279108145883031,,true,ll,6367.437999982154,response,-0.8619122137969323,0.8016223442106856,-0.921493586314112,-1.2189749655812585,0.889407672329018,-1.1443600502670868,low,low,,ISIC_0032604.JPG,9,ISIC_3737487.JPG,95,false,ll,keypress(f),0,false,902814.5,902814.2999999821,896430.052,896666.3999999762,896446.862,902592.058,4,500,41,
break,html.Screen,10_40_1,2023-11-15T15:53:42.969Z,,,,,,,,,,NaN,,,,,,,,low,low,,,,,,false,,,,false,902814.7999999821,902814.599999994,,902814.5,,902592.058,4,500,,
break_continue,html.Screen,10_40_2,2023-11-15T15:53:42.969Z,,,,,,,,,,NaN,,,,,,,,low,low,,,,,,false,,,,false,902814.8999999762,902814.7999999821,,902814.7999999821,,902592.058,4,500,,
sequence,flow.Sequence,10_40,2023-11-15T15:53:42.969Z,,,,,,,,,,6367.937999982154,completion,,,,,,,low,low,,,,,,false,,,,false,902815,902814.7999999821,896430.052,896666.3999999762,896446.862,902592.058,4,500,,
trial,html.Screen,10_41_0,2023-11-15T15:53:52.137Z,,,,1,0.040352316356354,0.0039626669358928,,false,lh,9390.141999988118,response,-0.8070820195894357,0.8016223442106856,-0.921493586314112,0.8958120092147633,0.889407672329018,-1.1443600502670868,low,high,,ISIC_3018550.JPG,9,ISIC_0060585.JPG,40,false,hh,keypress(i),0,false,911982.1999999881,911982.1999999881,902575.477,902815,902592.058,911759.942,4,500,42,
break,html.Screen,10_41_1,2023-11-15T15:53:52.138Z,,,,,,,,,,NaN,,,,,,,,low,high,,,,,,false,,,,false,911982.599999994,911982.599999994,,911982.3999999762,,911759.942,4,500,,
break_continue,html.Screen,10_41_2,2023-11-15T15:53:52.138Z,,,,,,,,,,NaN,,,,,,,,low,high,,,,,,false,,,,false,911982.7999999821,911982.6999999881,,911982.599999994,,911759.942,4,500,,
sequence,flow.Sequence,10_41,2023-11-15T15:53:52.138Z,,,,,,,,,,9390.641999988118,completion,,,,,,,low,high,,,,,,false,,,,false,911982.7999999821,911982.6999999881,902575.477,902815,902592.058,911759.942,4,500,,
trial,html.Screen,10_42_0,2023-11-15T15:53:59.931Z,,,,1,0.0057914759495055,-0.018500200317654,,false,hh,8015.75799998804,response,0.7204912409698233,0.8016223442106856,-0.921493586314112,0.7315343683257536,0.889407672329018,-1.1443600502670868,high,high,,ISIC_0058723.JPG,8,ISIC_0029050.JPG,209,false,hl,keypress(j),0,false,919776.099999994,919775.6999999881,911743.408,911982.8999999762,911759.942,919558.455,4,500,43,
break,html.Screen,10_42_1,2023-11-15T15:53:59.932Z,,,,,,,,,,NaN,,,,,,,,high,high,,,,,,false,,,,false,919777.1999999881,919777,,919776.5,,919558.455,4,500,,
break_continue,html.Screen,10_42_2,2023-11-15T15:53:59.933Z,,,,,,,,,,NaN,,,,,,,,high,high,,,,,,false,,,,false,919778,919777.6999999881,,919777.5,,919558.455,4,500,,
sequence,flow.Sequence,10_42,2023-11-15T15:53:59.933Z,,,,,,,,,,8017.75799998804,completion,,,,,,,high,high,,,,,,false,,,,false,919778.1999999881,919777.6999999881,911743.408,911982.7999999821,911759.942,919558.455,4,500,,
trial,html.Screen,10_43_0,2023-11-15T15:54:06.827Z,,,,1,0.0572318562475973,0.0328299593216012,,false,hl,7113.3449999821605,response,0.8015753713975186,0.8016223442106856,-0.921493586314112,-1.0067065355978264,0.889407672329018,-1.1443600502670868,high,low,,ISIC_0397464.JPG,8,ISIC_0002119.JPG,38,false,ll,keypress(f),0,false,926672.099999994,926671.7999999821,919541.955,919778.5,919558.455,926455.341,4,500,44,
break,html.Screen,10_43_1,2023-11-15T15:54:06.828Z,,,,,,,,,,NaN,,,,,,,,high,low,,,,,,false,,,,false,926673.1999999881,926673,,926672.5,,926455.341,4,500,,
break_continue,html.Screen,10_43_2,2023-11-15T15:54:06.829Z,,,,,,,,,,NaN,,,,,,,,high,low,,,,,,false,,,,false,926673.8999999762,926673.6999999881,,926673.3999999762,,926455.341,4,500,,
sequence,flow.Sequence,10_43,2023-11-15T15:54:06.829Z,,,,,,,,,,7115.244999988121,completion,,,,,,,high,low,,,,,,false,,,,false,926674.1999999881,926673.6999999881,919541.955,919778.3999999762,919558.455,926455.341,4,500,,
trial,html.Screen,10_44_0,2023-11-15T15:54:17.602Z,,,,1,-0.0733425953790377,0.0558194585272655,,,,10770.824000000022,timeout,0.8692470248725759,0.8016223442106856,-0.921493586314112,0.7784225554924126,0.889407672329018,-1.1443600502670868,high,high,,ISIC_0026756.JPG,10,ISIC_0047003.JPG,209,false,,,0,false,937447,937446.6999999881,926438.717,926674.3999999762,926455.341,937226.165,4,500,45,
break,html.Screen,10_44_1,2023-11-15T15:54:17.603Z,,,,,,,,,,NaN,,,,,,,,high,high,,,,,,false,,,,false,937448.099999994,937447.8999999762,,937447.3999999762,,937226.165,4,500,,
break_continue,html.Screen,10_44_2,2023-11-15T15:54:17.604Z,,,,,,,,,,NaN,,,,,,,,high,high,,,,,,false,,,,false,937448.8999999762,937448.599999994,,937448.3999999762,,937226.165,4,500,,
sequence,flow.Sequence,10_44,2023-11-15T15:54:17.604Z,,,,,,,,,,10993.258999994025,completion,,,,,,,high,high,,,,,,false,,,,false,937449.099999994,937448.599999994,926438.717,926674.3999999762,926455.341,937226.165,4,500,,
trial,html.Screen,10_45_0,2023-11-15T15:54:23.610Z,,,,1,0.012810673904807,-0.00400964452501,,true,lh,6228.334999999963,response,-0.9039158082670506,0.8016223442106856,-0.921493586314112,1.0517562064343149,0.889407672329018,-1.1443600502670868,low,high,,ISIC_0064656.JPG,9,ISIC_0015411.JPG,40,false,lh,keypress(e),0,false,943454.599999994,943454.5,937209.666,937449.3999999762,937226.165,943237.952,4,500,46,
break,html.Screen,10_45_1,2023-11-15T15:54:23.610Z,,,,,,,,,,NaN,,,,,,,,low,high,,,,,,false,,,,false,943454.8999999762,943454.8999999762,,943454.6999999881,,943237.952,4,500,,
break_continue,html.Screen,10_45_2,2023-11-15T15:54:23.610Z,,,,,,,,,,NaN,,,,,,,,low,high,,,,,,false,,,,false,943455.099999994,943455,,943455,,943237.952,4,500,,
sequence,flow.Sequence,10_45,2023-11-15T15:54:23.610Z,,,,,,,,,,6228.834999999963,completion,,,,,,,low,high,,,,,,false,,,,false,943455.1999999881,943455,937209.666,937449.2999999821,937226.165,943237.952,4,500,,
trial,html.Screen,10_46_0,2023-11-15T15:54:31.770Z,,,,1,0.00126575685933,0.0325046559638838,,true,hh,8376.74799998803,response,0.8292029002897295,0.8016223442106856,-0.921493586314112,0.7853599960465988,0.889407672329018,-1.1443600502670868,high,high,,ISIC_5682259.JPG,9,ISIC_0014325.JPG,209,false,hh,keypress(i),0,false,951614.7999999821,951614.6999999881,943221.2,943455.1999999881,943237.952,951403.977,4,500,47,
break,html.Screen,10_46_1,2023-11-15T15:54:31.770Z,,,,,,,,,,NaN,,,,,,,,high,high,,,,,,false,,,,false,951615.1999999881,951615.099999994,,951614.8999999762,,951403.977,4,500,,
break_continue,html.Screen,10_46_2,2023-11-15T15:54:31.770Z,,,,,,,,,,NaN,,,,,,,,high,high,,,,,,false,,,,false,951615.2999999821,951615.2999999821,,951615.2999999821,,951403.977,4,500,,
sequence,flow.Sequence,10_46,2023-11-15T15:54:31.770Z,,,,,,,,,,8377.34799998207,completion,,,,,,,high,high,,,,,,false,,,,false,951615.5,951615.2999999821,943221.2,943455.1999999881,943237.952,951403.977,4,500,,
trial,html.Screen,10_47_0,2023-11-15T15:54:35.707Z,,,,1,0.0158987717472563,0.0292472192292015,,true,hh,4148.122999994084,response,0.8784544408401186,0.8016223442106856,-0.921493586314112,1.080833919700588,0.889407672329018,-1.1443600502670868,high,high,,ISIC_1366765.JPG,8,ISIC_0029809.JPG,209,false,hh,keypress(i),0,false,955552.2999999821,955552.099999994,951370.545,951615.5,951403.977,955328.107,4,500,48,
break,html.Screen,10_47_1,2023-11-15T15:54:35.709Z,,,,,,,,,,NaN,,,,,,,,high,high,,,,,,false,,,,false,955553.5,955553.2999999821,,955552.6999999881,,955328.107,4,500,,
break_continue,html.Screen,10_47_2,2023-11-15T15:54:35.709Z,,,,,,,,,,NaN,,,,,,,,high,high,,,,,,false,,,,false,955554.1999999881,955554.099999994,,955553.7999999821,,955328.107,4,500,,
sequence,flow.Sequence,10_47,2023-11-15T15:54:35.710Z,,,,,,,,,,4150.122999994084,completion,,,,,,,high,high,,,,,,false,,,,false,955554.5,955554.099999994,951370.545,951615.5,951403.977,955328.107,4,500,,
trial,html.Screen,10_48_0,2023-11-15T15:54:44.492Z,,,,1,0.012810673904807,-0.00400964452501,,false,ll,9008.192999982159,response,-0.9203094922714854,0.8016223442106856,-0.921493586314112,-1.2983013773851462,0.889407672329018,-1.1443600502670868,low,low,,ISIC_0064656.JPG,8,ISIC_6001936.JPG,95,false,hh,keypress(i),0,false,964336.6999999881,964336.2999999821,955311.619,955554.7999999821,955328.107,964111.924,4,500,49,
break,html.Screen,10_48_1,2023-11-15T15:54:44.493Z,,,,,,,,,,NaN,,,,,,,,low,low,,,,,,false,,,,false,964337.7999999821,964337.3999999762,,964337.099999994,,964111.924,4,500,,
break_continue,html.Screen,10_48_2,2023-11-15T15:54:44.494Z,,,,,,,,,,NaN,,,,,,,,low,low,,,,,,false,,,,false,964338.3999999762,964338.2999999821,,964338,,964111.924,4,500,,
sequence,flow.Sequence,10_48,2023-11-15T15:54:44.494Z,,,,,,,,,,9010.192999982159,completion,,,,,,,low,low,,,,,,false,,,,false,964338.7999999821,964338.2999999821,955311.619,955554.7999999821,955328.107,964111.924,4,500,,
trial,html.Screen,10_49_0,2023-11-15T15:54:51.938Z,,,,1,-0.0187970165493076,-0.0417726918052949,,true,hh,7670.6759999940405,response,0.8121377641994781,0.8016223442106856,-0.921493586314112,0.9325200951609898,0.889407672329018,-1.1443600502670868,high,high,,ISIC_9312164.JPG,9,ISIC_9363106.JPG,209,false,hh,keypress(i),0,false,971782.7999999821,971782.599999994,964095.28,964339,964111.924,971559.703,4,500,50,
break,html.Screen,10_49_1,2023-11-15T15:54:51.939Z,,,,,,,,,,NaN,,,,,,,,high,high,,,,,,false,,,,false,971783.099999994,971783,,971782.7999999821,,971559.703,4,500,,
break_continue,html.Screen,10_49_2,2023-11-15T15:54:51.939Z,,,,,,,,,,NaN,,,,,,,,high,high,,,,,,false,,,,false,971783.2999999821,971783.099999994,,971783.099999994,,971559.703,4,500,,
sequence,flow.Sequence,10_49,2023-11-15T15:54:51.939Z,,,,,,,,,,7671.1759999940405,completion,,,,,,,high,high,,,,,,false,,,,false,971783.2999999821,971783.099999994,964095.28,964338.8999999762,964111.924,971559.703,4,500,,
trial,html.Screen,10_50_0,2023-11-15T15:54:59.954Z,,,,1,0.040352316356354,0.0039626669358928,,true,hh,8238.79700000002,response,0.6626619689522508,0.8016223442106856,-0.921493586314112,0.7098328093963779,0.889407672329018,-1.1443600502670868,high,high,,ISIC_3018550.JPG,9,ISIC_0010942.JPG,209,false,hh,keypress(i),0,false,979798.599999994,979798.5,971543.124,971783.3999999762,971559.703,979575.282,4,500,51,
break,html.Screen,10_50_1,2023-11-15T15:54:59.955Z,,,,,,,,,,NaN,,,,,,,,high,high,,,,,,false,,,,false,979799,979798.8999999762,,979798.6999999881,,979575.282,4,500,,
break_continue,html.Screen,10_50_2,2023-11-15T15:54:59.955Z,,,,,,,,,,NaN,,,,,,,,high,high,,,,,,false,,,,false,979799.1999999881,979799.099999994,,979799,,979575.282,4,500,,
