sender,sender_type,sender_id,timestamp,meta,,age,blockNo,c1,c2,condition,correct,correctResponse,duration,ended_on,f1,f1_high,f1_low,f2,f2_high,f2_low,feature_level1,feature_level2,gender,img_left,img_reveal,img_right,n_target_images,practice,response,response_action,selection_duration,staircase,time_commit,time_end,time_render,time_run,time_show,time_switch,total_blocks,total_trials,trialNo,url
informed_consent,html.Screen,0,2023-11-15T16:42:24.117Z,"{""labjs_version"":""20.2.4"",""labjs_build"":{""flavor"":""development"",""commit"":""f5b4a49f956347addd546a832a3327688c2c0fef""},""location"":""https://labjs.felixhenninger.com/api/labjs_preview/index.html"",""userAgent"":""Mozilla/5.0 (Windows NT 10.0; Win64; x64) AppleWebKit/537.36 (KHTML, like Gecko) Chrome/119.0.0.0 Safari/537.36"",""platform"":""Win32"",""language"":""en-US"",""locale"":""en-US"",""timeZone"":""America/Chicago"",""timezoneOffset"":360,""screen_width"":1920,""screen_height"":1080,""scroll_width"":945,""scroll_height"":918,""window_innerWidth"":945,""window_innerHeight"":966,""devicePixelRatio"":1}",,,,,,,,,81673.44300000893,response,,,,,,,,,,,,,,,consent,click button,,,82292.10000000894,82283.60000000894,593.581,581.4000000059605,610.157,82293.593,,,,{}
Demography form,html.Form,1,2023-11-15T16:42:34.559Z,,,19,,,,,,,10439.707000011927,form submission,,,,,,,,,female,,,,,,,,,,92733.5,92733.30000001192,82277.149,82292.30000001192,82293.593,92743.66,,,,
Welcome,html.Screen,2,2023-11-15T16:43:03.445Z,,,,,,,"[""bor"",""col""]",,,28875.940000008937,response,,,,,,,,,,,,,,,continue,click button,,,121620.20000000298,121619.60000000894,92726.967,92733.5,92743.66,121626.992,,,,
demo_instructions,html.Screen,3,2023-11-15T16:43:30.870Z,,,,,,,,,,27416.608000008942,response,,,,,,,,,,,,,,,continue,click button,,,149044.20000000298,149043.60000000894,121610.435,121620.30000001192,121626.992,149060.346,,,,
trial,html.Screen,4_0_0,2023-11-15T16:43:39.875Z,,,,0,0.7552468233268477,-0.71846037114465,,true,lh,8989.15400000001,response,-1.0369885917487718,0.8999999999999997,-0.8999999999999997,0.8486937878412699,0.8999999999999997,-0.8999999999999997,low,high,,ISIC_2354070.JPG,,ISIC_6917681.JPG,29,true,lh,keypress(e),100,false,158049.80000001192,158049.5,149043.778,149044.40000000596,149060.346,158077.081,1,16,1,
sequence,flow.Sequence,4_0,2023-11-15T16:43:39.876Z,,,,,,,,,,8989.15400000001,completion,,,,,,,low,high,,,,,,true,,,,false,158050.20000000298,158049.5,149043.778,149044.40000000596,149060.346,158077.081,1,16,,
trial,html.Screen,4_1_0,2023-11-15T16:43:46.586Z,,,,0,0.7079689798840642,-0.9053957126199562,,true,lh,6683.418999999994,response,-0.8830264383952469,0.8999999999999997,-0.8999999999999997,0.8635562538060516,0.8999999999999997,-0.8999999999999997,low,high,,ISIC_0058863.JPG,,ISIC_0032258.JPG,29,true,lh,keypress(e),100,false,164760.80000001192,164760.5,158060.441,158050.40000000596,158077.081,164777.238,1,16,2,
sequence,flow.Sequence,4_1,2023-11-15T16:43:46.587Z,,,,,,,,,,6683.418999999994,completion,,,,,,,low,high,,,,,,true,,,,false,164761.20000000298,164760.5,158060.441,158050.40000000596,158077.081,164777.238,1,16,,
trial,html.Screen,4_2_0,2023-11-15T16:43:52.497Z,,,,0,0.7692916291112835,-0.7818604706992622,,true,lh,5893.761999999988,response,-1.075512775389519,0.8999999999999997,-0.8999999999999997,1.0454702683049502,0.8999999999999997,-0.8999999999999997,low,high,,ISIC_7844825.JPG,,ISIC_0033603.JPG,29,true,lh,keypress(e),100,false,170671.20000000298,170671,164760.414,164761.40000000596,164777.238,170693.724,1,16,3,
sequence,flow.Sequence,4_2,2023-11-15T16:43:52.497Z,,,,,,,,,,5893.761999999988,completion,,,,,,,low,high,,,,,,true,,,,false,170671.30000001192,170671,164760.414,164761.30000001192,164777.238,170693.724,1,16,,
trial,html.Screen,4_3_0,2023-11-15T16:43:59.604Z,,,,0,0.7271544837339796,-0.9127368834814228,,true,lh,7084.976000002993,response,-0.7411887874358276,0.8999999999999997,-0.8999999999999997,0.7869222465141029,0.8999999999999997,-0.8999999999999997,low,high,,ISIC_4129321.JPG,,ISIC_6255113.JPG,29,true,lh,keypress(e),100,false,177778.80000001192,177778.70000000298,170677.065,170671.40000000596,170693.724,177810.394,1,16,4,
sequence,flow.Sequence,4_3,2023-11-15T16:43:59.605Z,,,,,,,,,,7084.976000002993,completion,,,,,,,low,high,,,,,,true,,,,false,177779.10000000894,177778.70000000298,170677.065,170671.40000000596,170693.724,177810.394,1,16,,
trial,html.Screen,4_4_0,2023-11-15T16:44:11.418Z,,,,0,0.7175484898254125,0.9475215296190668,,true,ll,11782.106,response,-0.7584502386393838,0.8999999999999997,-0.8999999999999997,-0.9825823454317724,0.8999999999999997,-0.8999999999999997,low,low,,ISIC_0062536.JPG,,ISIC_9820910.JPG,169,true,ll,keypress(f),100,false,189592.70000000298,189592.5,177793.741,177779.20000000298,177810.394,189610.648,1,16,5,
sequence,flow.Sequence,4_4,2023-11-15T16:44:11.419Z,,,,,,,,,,11782.106,completion,,,,,,,low,low,,,,,,true,,,,false,189593.10000000894,189592.5,177793.741,177779.20000000298,177810.394,189610.648,1,16,,
trial,html.Screen,4_5_0,2023-11-15T16:44:18.465Z,,,,0,1.0982421670957354,0.7005520556499593,,true,ll,7028.052000002994,response,-1.00975234958099,0.8999999999999997,-0.8999999999999997,-0.958677033057289,0.8999999999999997,-0.8999999999999997,low,low,,ISIC_0061848.JPG,,ISIC_0976232.JPG,169,true,ll,keypress(f),100,false,196639,196638.70000000298,189593.752,189593.20000000298,189610.648,196660.623,1,16,6,
sequence,flow.Sequence,4_5,2023-11-15T16:44:18.466Z,,,,,,,,,,7028.052000002994,completion,,,,,,,low,low,,,,,,true,,,,false,196639.5,196638.70000000298,189593.752,189593.20000000298,189610.648,196660.623,1,16,,
trial,html.Screen,4_6_0,2023-11-15T16:44:26.168Z,,,,0,0.7497331641141682,0.9543531879821028,,true,ll,7680.977000008948,response,-0.8664556873113695,0.8999999999999997,-0.8999999999999997,-0.9753511680199736,0.8999999999999997,-0.8999999999999997,low,low,,ISIC_0067801.JPG,,ISIC_0340453.JPG,169,true,ll,keypress(f),100,false,204341.70000000298,204341.60000000894,196643.728,196639.60000000894,196660.623,204360.404,1,16,7,
sequence,flow.Sequence,4_6,2023-11-15T16:44:26.168Z,,,,,,,,,,7680.977000008948,completion,,,,,,,low,low,,,,,,true,,,,false,204341.90000000596,204341.60000000894,196643.728,196639.60000000894,196660.623,204360.404,1,16,,
trial,html.Screen,4_7_0,2023-11-15T16:44:32.780Z,,,,0,0.8161945839077875,0.8847883487572158,,true,ll,6593.296000002971,response,-0.9000661178885296,0.8999999999999997,-0.8999999999999997,-1.086658647698992,0.8999999999999997,-0.8999999999999997,low,low,,ISIC_0058496.JPG,,ISIC_7407847.JPG,169,true,ll,keypress(f),100,false,210953.80000001192,210953.70000000298,204343.734,204341.90000000596,204360.404,210977.067,1,16,8,
sequence,flow.Sequence,4_7,2023-11-15T16:44:32.780Z,,,,,,,,,,6593.296000002971,completion,,,,,,,low,low,,,,,,true,,,,false,210953.90000000596,210953.70000000298,204343.734,204341.90000000596,204360.404,210977.067,1,16,,
trial,html.Screen,4_8_0,2023-11-15T16:44:39.535Z,,,,0,-0.8034318937720549,1.0024917298189338,,true,hl,6731.93299999999,response,0.7438008784971919,0.8999999999999997,-0.8999999999999997,-0.7701607600068142,0.8999999999999997,-0.8999999999999997,high,low,,ISIC_0032766.JPG,,ISIC_8493108.JPG,43,true,hl,keypress(j),100,false,217709.20000000298,217709,210960.41,210954,210977.067,217727.242,1,16,9,
sequence,flow.Sequence,4_8,2023-11-15T16:44:39.536Z,,,,,,,,,,6731.93299999999,completion,,,,,,,high,low,,,,,,true,,,,false,217709.40000000596,217709,210960.41,210954,210977.067,217727.242,1,16,,
trial,html.Screen,4_9_0,2023-11-15T16:44:45.331Z,,,,0,-0.8110121381849364,0.7563142141851558,,true,hl,5777.658000005962,response,0.7856143618373893,0.8999999999999997,-0.8999999999999997,-1.0273608829432213,0.8999999999999997,-0.8999999999999997,high,low,,ISIC_0033605.JPG,,ISIC_9303849.JPG,43,true,hl,keypress(j),100,false,223505,223504.90000000596,217710.419,217709.5,217727.242,223527.141,1,16,10,
sequence,flow.Sequence,4_9,2023-11-15T16:44:45.332Z,,,,,,,,,,5777.658000005962,completion,,,,,,,high,low,,,,,,true,,,,false,223505.40000000596,223504.90000000596,217710.419,217709.40000000596,217727.242,223527.141,1,16,,
trial,html.Screen,4_10_0,2023-11-15T16:44:51.240Z,,,,0,-1.058275612142778,0.7824898568540655,,true,hl,5886.858999999997,response,0.7552468233268477,0.8999999999999997,-0.8999999999999997,-0.71846037114465,0.8999999999999997,-0.8999999999999997,high,low,,ISIC_4906385.JPG,,ISIC_2354070.JPG,43,true,hl,keypress(j),100,false,229414.30000001192,229414,223510.535,223505.5,223527.141,229443.968,1,16,11,
sequence,flow.Sequence,4_10,2023-11-15T16:44:51.241Z,,,,,,,,,,5886.858999999997,completion,,,,,,,high,low,,,,,,true,,,,false,229414.60000000894,229414,223510.535,223505.40000000596,223527.141,229443.968,1,16,,
trial,html.Screen,4_11_0,2023-11-15T16:44:53.343Z,,,,0,-0.989300717252516,0.7908280206937478,,true,hl,2072.632000008947,response,0.7856143618373893,0.8999999999999997,-0.8999999999999997,-1.0273608829432213,0.8999999999999997,-0.8999999999999997,high,low,,ISIC_6416533.JPG,,ISIC_9303849.JPG,43,true,hl,keypress(j),100,false,231516.60000000894,231516.60000000894,229427.174,229414.80000001192,229443.968,231543.821,1,16,12,
sequence,flow.Sequence,4_11,2023-11-15T16:44:53.343Z,,,,,,,,,,2072.632000008947,completion,,,,,,,high,low,,,,,,true,,,,false,231516.80000001192,231516.60000000894,229427.174,229414.70000000298,229443.968,231543.821,1,16,,
trial,html.Screen,4_12_0,2023-11-15T16:44:58.355Z,,,,0,-0.763664812271151,-1.067232176289901,,false,hh,4984.679000000004,response,0.9159664042920548,0.8999999999999997,-0.8999999999999997,0.96519839238634,0.8999999999999997,-0.8999999999999997,high,high,,ISIC_3466769.JPG,,ISIC_0053617.JPG,184,true,hl,keypress(j),100,false,236528.60000000894,236528.5,231527.127,231516.90000000596,231543.821,236560.608,1,16,13,
sequence,flow.Sequence,4_12,2023-11-15T16:44:58.355Z,,,,,,,,,,4984.679000000004,completion,,,,,,,high,high,,,,,,true,,,,false,236528.90000000596,236528.5,231527.127,231516.90000000596,231543.821,236560.608,1,16,,
trial,html.Screen,4_13_0,2023-11-15T16:45:01.751Z,,,,0,-0.7260937191514694,-1.0330921542391769,,false,hh,3363.8919999999925,response,1.0333845898785206,0.8999999999999997,-0.8999999999999997,0.998838774713298,0.8999999999999997,-0.8999999999999997,high,high,,ISIC_4043580.JPG,,ISIC_0010486.JPG,184,true,hl,keypress(j),100,false,239924.70000000298,239924.5,236543.961,236529,236560.608,239944.023,1,16,14,
sequence,flow.Sequence,4_13,2023-11-15T16:45:01.751Z,,,,,,,,,,3363.8919999999925,completion,,,,,,,high,high,,,,,,true,,,,false,239925,239924.5,236543.961,236528.90000000596,236560.608,239944.023,1,16,,
trial,html.Screen,4_14_0,2023-11-15T16:45:09.980Z,,,,0,-0.8583713655302294,-0.865522810053245,,true,hh,8209.977000000014,response,0.900981242677363,0.8999999999999997,-0.8999999999999997,0.8834104283484265,0.8999999999999997,-0.8999999999999997,high,high,,ISIC_4320200.JPG,,ISIC_7236365.JPG,184,true,hh,keypress(i),100,false,248154.10000000894,248154,239927.126,239925.10000000894,239944.023,248177.14,1,16,15,
sequence,flow.Sequence,4_14,2023-11-15T16:45:09.980Z,,,,,,,,,,8209.977000000014,completion,,,,,,,high,high,,,,,,true,,,,false,248154.30000001192,248154,239927.126,239925.10000000894,239944.023,248177.14,1,16,,
trial,html.Screen,4_15_0,2023-11-15T16:45:16.192Z,,,,0,-0.7607573190812582,-0.7880740841769366,,true,hh,6188.359999999986,response,0.989073205647752,0.8999999999999997,-0.8999999999999997,0.7213444383071048,0.8999999999999997,-0.8999999999999997,high,high,,ISIC_2178689.JPG,,ISIC_5581931.JPG,184,true,hh,keypress(i),100,false,254365.70000000298,254365.5,248160.712,248154.40000000596,248177.14,254393.822,1,16,16,
sequence,flow.Sequence,4_15,2023-11-15T16:45:16.192Z,,,,,,,,,,6188.359999999986,completion,,,,,,,high,high,,,,,,true,,,,false,254366,254365.5,248160.712,248154.30000001192,248177.14,254393.822,1,16,,
demonstration_loop,flow.Loop,4,2023-11-15T16:45:16.192Z,,,,,,,,,,105305.15400000001,completion,,,,,,,,,,,,,,true,,,,false,254366.30000001192,254365.5,149043.778,149044.30000001192,149060.346,254393.822,1,16,,
practice_instructions,html.Screen,5,2023-11-15T16:45:25.149Z,,,,,,,,,,8921.478000011935,response,,,,,,,,,,,,,,,continue,click button,,,263323.700000003,263315.3000000119,254377.18,254366.40000000596,254393.822,263327.161,,,,
trial,html.Screen,6_0_0,2023-11-15T16:45:31.600Z,,,,1,0.9782611937027104,0.7397456600694207,,true,ll,6447.639000011899,response,-0.8231760770331785,0.8999999999999997,-0.8999999999999997,-0.8700511901947987,0.8999999999999997,-0.8999999999999997,low,low,,ISIC_0010131.JPG,,ISIC_1254469.JPG,169,true,ll,keypress(f),0,false,269774.90000000596,269774.8000000119,263310.647,263323.8000000119,263327.161,269793.874,1,40,1,
sequence,flow.Sequence,6_0,2023-11-15T16:45:31.601Z,,,,,,,,,,6447.639000011899,completion,,,,,,,low,low,,,,,,true,,,,false,269775.10000000894,269774.8000000119,263310.647,263323.8000000119,263327.161,269793.874,1,40,,
trial,html.Screen,6_1_0,2023-11-15T16:45:37.782Z,,,,1,1.0000402707486682,0.7041144799770903,,true,ll,6162.3260000029695,response,-1.0002918079433898,0.8999999999999997,-0.8999999999999997,-0.7125870798722836,0.8999999999999997,-0.8999999999999997,low,low,,ISIC_0068798.JPG,,ISIC_0678758.JPG,169,true,ll,keypress(f),0,false,275956.40000000596,275956.200000003,269777.174,269775.10000000894,269793.874,275960.522,1,40,2,
sequence,flow.Sequence,6_1,2023-11-15T16:45:37.782Z,,,,,,,,,,6162.3260000029695,completion,,,,,,,low,low,,,,,,true,,,,false,275956.60000000894,275956.200000003,269777.174,269775.10000000894,269793.874,275960.522,1,40,,
trial,html.Screen,6_2_0,2023-11-15T16:45:42.319Z,,,,1,-0.7411887874358276,0.7869222465141029,,true,hl,4532.278000011924,response,0.8500530224490773,0.8999999999999997,-0.8999999999999997,-1.0893360711742854,0.8999999999999997,-0.8999999999999997,high,low,,ISIC_6255113.JPG,,ISIC_2998367.JPG,43,true,hl,keypress(j),0,false,280493,280492.8000000119,275943.684,275956.8000000119,275960.522,280510.504,1,40,3,
sequence,flow.Sequence,6_2,2023-11-15T16:45:42.319Z,,,,,,,,,,4532.278000011924,completion,,,,,,,high,low,,,,,,true,,,,false,280493.3000000119,280492.8000000119,275943.684,275956.8000000119,275960.522,280510.504,1,40,,
trial,html.Screen,6_3_0,2023-11-15T16:45:45.030Z,,,,1,-0.8110121381849364,0.7563142141851558,,true,hl,2693.7960000119056,response,0.7612472458680769,0.8999999999999997,-0.8999999999999997,-0.729960233427452,0.8999999999999997,-0.8999999999999997,high,low,,ISIC_0033605.JPG,,ISIC_5307210.JPG,43,true,hl,keypress(j),0,false,283204.5,283204.3000000119,280493.689,280493.40000000596,280510.504,283210.513,1,40,4,
sequence,flow.Sequence,6_3,2023-11-15T16:45:45.030Z,,,,,,,,,,2693.7960000119056,completion,,,,,,,high,low,,,,,,true,,,,false,283204.8000000119,283204.3000000119,280493.689,280493.40000000596,280510.504,283210.513,1,40,,
trial,html.Screen,6_4_0,2023-11-15T16:45:50.294Z,,,,1,0.9198276163642348,-0.7754915110667046,,true,lh,5258.0870000089635,response,-0.8513427412482127,0.8999999999999997,-0.8999999999999997,0.9295303568095064,0.8999999999999997,-0.8999999999999997,low,high,,ISIC_7840728.JPG,,ISIC_0034164.JPG,29,true,lh,keypress(e),0,false,288468.8000000119,288468.60000000894,283193.927,283204.8000000119,283210.513,288477.253,1,40,5,
sequence,flow.Sequence,6_4,2023-11-15T16:45:50.295Z,,,,,,,,,,5258.0870000089635,completion,,,,,,,low,high,,,,,,true,,,,false,288469.200000003,288468.60000000894,283193.927,283204.8000000119,283210.513,288477.253,1,40,,
trial,html.Screen,6_5_0,2023-11-15T16:45:54.942Z,,,,1,-1.0733807306669467,-0.9781766331161578,,true,hh,4638.947000002954,response,0.8161945839077875,0.8999999999999997,-0.8999999999999997,0.8847883487572158,0.8999999999999997,-0.8999999999999997,high,high,,ISIC_0032383.JPG,,ISIC_0058496.JPG,184,true,hh,keypress(i),0,false,293116.3000000119,293116.200000003,288460.518,288469.40000000596,288477.253,293127.221,1,40,6,
sequence,flow.Sequence,6_5,2023-11-15T16:45:54.942Z,,,,,,,,,,4638.947000002954,completion,,,,,,,high,high,,,,,,true,,,,false,293116.5,293116.200000003,288460.518,288469.3000000119,288477.253,293127.221,1,40,,
trial,html.Screen,6_6_0,2023-11-15T16:45:57.510Z,,,,1,-0.8379442136072591,-0.8260692529258827,,true,hh,2556.7789999999804,response,1.0638242779565084,0.8999999999999997,-0.8999999999999997,0.8353119112834058,0.8999999999999997,-0.8999999999999997,high,high,,ISIC_0013213.JPG,,ISIC_2071966.JPG,184,true,hh,keypress(i),0,false,295684.10000000894,295684,293110.405,293116.60000000894,293127.221,295693.903,1,40,7,
sequence,flow.Sequence,6_6,2023-11-15T16:45:57.510Z,,,,,,,,,,2556.7789999999804,completion,,,,,,,high,high,,,,,,true,,,,false,295684.200000003,295684,293110.405,293116.5,293127.221,295693.903,1,40,,
trial,html.Screen,6_7_0,2023-11-15T16:45:59.510Z,,,,1,0.7692916291112835,-0.7818604706992622,,true,lh,1990.1970000089495,response,-0.8926515927689261,0.8999999999999997,-0.8999999999999997,0.7935960767768927,0.8999999999999997,-0.8999999999999997,low,high,,ISIC_7844825.JPG,,ISIC_8901371.JPG,29,true,lh,keypress(e),0,false,297684.200000003,297684.10000000894,295677.148,295684.3000000119,295693.903,297693.907,1,40,8,
sequence,flow.Sequence,6_7,2023-11-15T16:45:59.510Z,,,,,,,,,,1990.1970000089495,completion,,,,,,,low,high,,,,,,true,,,,false,297684.5,297684.10000000894,295677.148,295684.3000000119,295693.903,297693.907,1,40,,
trial,html.Screen,6_8_0,2023-11-15T16:46:02.887Z,,,,1,-0.7193286557553458,-1.0636787813411093,,true,hh,3366.8930000119144,response,0.7914343157165398,0.8999999999999997,-0.8999999999999997,0.7781630990015259,0.8999999999999997,-0.8999999999999997,high,high,,ISIC_9690371.JPG,,ISIC_0026081.JPG,184,true,hh,keypress(i),0,false,301061,301060.8000000119,297677.223,297684.5,297693.907,301077.336,1,40,9,
sequence,flow.Sequence,6_8,2023-11-15T16:46:02.887Z,,,,,,,,,,3366.8930000119144,completion,,,,,,,high,high,,,,,,true,,,,false,301061.5,301060.8000000119,297677.223,297684.5,297693.907,301077.336,1,40,,
trial,html.Screen,6_9_0,2023-11-15T16:46:07.214Z,,,,1,0.9836672814341636,1.0629122718286683,,true,ll,4311.26400000893,response,-1.0008081653938232,0.8999999999999997,-0.8999999999999997,-0.7832040253954599,0.8999999999999997,-0.8999999999999997,low,low,,ISIC_0062161.JPG,,ISIC_8796632.JPG,169,true,ll,keypress(f),0,false,305388.700000003,305388.60000000894,301060.419,301061.60000000894,301077.336,305393.858,1,40,10,
sequence,flow.Sequence,6_9,2023-11-15T16:46:07.215Z,,,,,,,,,,4311.26400000893,completion,,,,,,,low,low,,,,,,true,,,,false,305389,305388.60000000894,301060.419,301061.60000000894,301077.336,305393.858,1,40,,
trial,html.Screen,6_10_0,2023-11-15T16:46:18.203Z,,,,1,-0.7468340674894544,-0.7273927908125843,,,,11016.843999999983,timeout,0.7000746177907212,0.8999999999999997,-0.8999999999999997,0.708327734553696,0.8999999999999997,-0.8999999999999997,high,high,,ISIC_7758102.JPG,,ISIC_0010174.JPG,184,true,,,0,false,316377.90000000596,316377.700000003,305377.211,305389.200000003,305393.858,316410.702,1,40,11,
sequence,flow.Sequence,6_10,2023-11-15T16:46:18.204Z,,,,,,,,,,10983.842000002973,completion,,,,,,,high,high,,,,,,true,,,,false,316378.10000000894,316377.700000003,305377.211,305389.10000000894,305393.858,316410.702,1,40,,
trial,html.Screen,6_11_0,2023-11-15T16:46:19.630Z,,,,1,0.7175484898254125,0.9475215296190668,,false,ll,1393.49800000299,response,-0.8538847735848973,0.8999999999999997,-0.8999999999999997,-0.979053170316694,0.8999999999999997,-0.8999999999999997,low,low,,ISIC_0062536.JPG,,ISIC_1269461.JPG,169,true,hh,keypress(i),0,false,317804.3000000119,317804.200000003,316394.035,316378.200000003,316410.702,317810.571,1,40,12,
sequence,flow.Sequence,6_11,2023-11-15T16:46:19.630Z,,,,,,,,,,1393.49800000299,completion,,,,,,,low,low,,,,,,true,,,,false,317804.5,317804.200000003,316394.035,316378.200000003,316410.702,317810.571,1,40,,
trial,html.Screen,6_12_0,2023-11-15T16:46:21.046Z,,,,1,0.7002237403183771,0.73725438657936,,true,ll,1409.3290000059642,response,-0.8551569963988895,0.8999999999999997,-0.8999999999999997,-0.7286805411358589,0.8999999999999997,-0.8999999999999997,low,low,,ISIC_0029686.JPG,,ISIC_0016014.JPG,169,true,ll,keypress(f),0,false,319220,319219.90000000596,317794.015,317804.60000000894,317810.571,319227.341,1,40,13,
sequence,flow.Sequence,6_12,2023-11-15T16:46:21.046Z,,,,,,,,,,1409.3290000059642,completion,,,,,,,low,low,,,,,,true,,,,false,319220.200000003,319219.90000000596,317794.015,317804.60000000894,317810.571,319227.341,1,40,,
trial,html.Screen,6_13_0,2023-11-15T16:46:25.103Z,,,,1,-1.0369885917487718,0.8486937878412699,,true,hl,4048.759000008926,response,0.7688509750532941,0.8999999999999997,-0.8999999999999997,-0.7699842387811451,0.8999999999999997,-0.8999999999999997,high,low,,ISIC_6917681.JPG,,ISIC_0014527.JPG,43,true,hl,keypress(j),0,false,323276.200000003,323276.10000000894,319210.783,319220.200000003,319227.341,323295.096,1,40,14,
sequence,flow.Sequence,6_13,2023-11-15T16:46:25.103Z,,,,,,,,,,4048.759000008926,completion,,,,,,,high,low,,,,,,true,,,,false,323276.5,323276.10000000894,319210.783,319220.200000003,319227.341,323295.096,1,40,,
trial,html.Screen,6_14_0,2023-11-15T16:46:29.663Z,,,,1,1.0788024398087033,-0.9911875460374616,,true,lh,4541.304000005941,response,-0.789083277544982,0.8999999999999997,-0.8999999999999997,0.7172067273002093,0.8999999999999997,-0.8999999999999997,low,high,,ISIC_5951430.JPG,,ISIC_0011030.JPG,29,true,lh,keypress(e),0,false,327836.5,327836.40000000596,323260.64,323276.5,323295.096,327843.919,1,40,15,
sequence,flow.Sequence,6_14,2023-11-15T16:46:29.663Z,,,,,,,,,,4541.304000005941,completion,,,,,,,low,high,,,,,,true,,,,false,327836.8000000119,327836.40000000596,323260.64,323276.5,323295.096,327843.919,1,40,,
trial,html.Screen,6_15_0,2023-11-15T16:46:31.327Z,,,,1,-0.8363634080775226,-0.899694322339037,,true,hh,1656.1810000089463,response,0.8110369560965408,0.8999999999999997,-0.8999999999999997,0.7091309063434607,0.8999999999999997,-0.8999999999999997,high,high,,ISIC_0007257.JPG,,ISIC_0030901.JPG,184,true,hh,keypress(i),0,false,329500.3000000119,329500.10000000894,327827.317,327836.90000000596,327843.919,329510.816,1,40,16,
sequence,flow.Sequence,6_15,2023-11-15T16:46:31.327Z,,,,,,,,,,1656.1810000089463,completion,,,,,,,high,high,,,,,,true,,,,false,329500.60000000894,329500.10000000894,327827.317,327836.90000000596,327843.919,329510.816,1,40,,
trial,html.Screen,6_16_0,2023-11-15T16:46:33.384Z,,,,1,-0.824124127424315,-0.8170596140441219,,true,hh,2046.0840000059688,response,0.7100921215252844,0.8999999999999997,-0.8999999999999997,0.9367637732363708,0.8999999999999997,-0.8999999999999997,high,high,,ISIC_5909451.JPG,,ISIC_4407580.JPG,184,true,hh,keypress(i),0,false,331557.3000000119,331556.90000000596,329493.883,329500.60000000894,329510.816,331560.585,1,40,17,
sequence,flow.Sequence,6_16,2023-11-15T16:46:33.384Z,,,,,,,,,,2046.0840000059688,completion,,,,,,,high,high,,,,,,true,,,,false,331557.60000000894,331556.90000000596,329493.883,329500.60000000894,329510.816,331560.585,1,40,,
trial,html.Screen,6_17_0,2023-11-15T16:46:36.447Z,,,,1,-0.789083277544982,0.7172067273002093,,true,hl,3060.0150000089197,response,0.8987343013179191,0.8999999999999997,-0.8999999999999997,-0.8149073454566363,0.8999999999999997,-0.8999999999999997,high,low,,ISIC_0011030.JPG,,ISIC_0472513.JPG,43,true,hl,keypress(j),0,false,334620.8000000119,334620.60000000894,331544.008,331557.8000000119,331560.585,334627.251,1,40,18,
sequence,flow.Sequence,6_17,2023-11-15T16:46:36.448Z,,,,,,,,,,3060.0150000089197,completion,,,,,,,high,low,,,,,,true,,,,false,334621.10000000894,334620.60000000894,331544.008,331557.700000003,331560.585,334627.251,1,40,,
trial,html.Screen,6_18_0,2023-11-15T16:46:39.080Z,,,,1,0.7000746177907212,0.708327734553696,,true,ll,2625.649000005971,response,-0.8115434332647807,0.8999999999999997,-0.8999999999999997,-0.7797153835685641,0.8999999999999997,-0.8999999999999997,low,low,,ISIC_0010174.JPG,,ISIC_7300631.JPG,169,true,ll,keypress(f),0,false,337253.40000000596,337252.90000000596,334610.575,334621.3000000119,334627.251,337260.669,1,40,19,
sequence,flow.Sequence,6_18,2023-11-15T16:46:39.081Z,,,,,,,,,,2625.649000005971,completion,,,,,,,low,low,,,,,,true,,,,false,337254.10000000894,337252.90000000596,334610.575,334621.3000000119,334627.251,337260.669,1,40,,
trial,html.Screen,6_19_0,2023-11-15T16:46:42.055Z,,,,1,0.9619672413799648,1.000847348662667,,true,ll,2967.9310000089463,response,-0.7437478502701496,0.8999999999999997,-0.8999999999999997,-0.7199001727136436,0.8999999999999997,-0.8999999999999997,low,low,,ISIC_0067205.JPG,,ISIC_1226882.JPG,169,true,ll,keypress(f),0,false,340228.8000000119,340228.60000000894,337243.971,337254.40000000596,337260.669,340244.164,1,40,20,
sequence,flow.Sequence,6_19,2023-11-15T16:46:42.056Z,,,,,,,,,,2967.9310000089463,completion,,,,,,,low,low,,,,,,true,,,,false,340229,340228.60000000894,337243.971,337254.3000000119,337260.669,340244.164,1,40,,
trial,html.Screen,6_20_0,2023-11-15T16:46:47.247Z,,,,1,-1.0329549150636406,1.01584100839286,,true,hl,5175.83600000001,response,0.9138670886161264,0.8999999999999997,-0.8999999999999997,-0.8414121478342018,0.8999999999999997,-0.8999999999999997,high,low,,ISIC_0054670.JPG,,ISIC_6709052.JPG,43,true,hl,keypress(j),0,false,345420.10000000894,345420,340227.318,340229.200000003,340244.164,345427.331,1,40,21,
sequence,flow.Sequence,6_20,2023-11-15T16:46:47.247Z,,,,,,,,,,5175.83600000001,completion,,,,,,,high,low,,,,,,true,,,,false,345420.3000000119,345420,340227.318,340229.10000000894,340244.164,345427.331,1,40,,
trial,html.Screen,6_21_0,2023-11-15T16:46:49.496Z,,,,1,1.0849202097813322,1.0851127310415287,,true,ll,2241.3690000029746,response,-0.7329112094844119,0.8999999999999997,-0.8999999999999997,-1.0828420308854412,0.8999999999999997,-0.8999999999999997,low,low,,ISIC_0010289.JPG,,ISIC_5778927.JPG,169,true,ll,keypress(f),0,false,347669.10000000894,347668.700000003,345410.493,345420.40000000596,345427.331,347677.351,1,40,22,
sequence,flow.Sequence,6_21,2023-11-15T16:46:49.496Z,,,,,,,,,,2241.3690000029746,completion,,,,,,,low,low,,,,,,true,,,,false,347669.5,347668.700000003,345410.493,345420.40000000596,345427.331,347677.351,1,40,,
trial,html.Screen,6_22_0,2023-11-15T16:46:52.055Z,,,,1,-0.8830264383952469,0.8635562538060516,,true,hl,2551.2490000089165,response,0.9244148283103414,0.8999999999999997,-0.8999999999999997,-0.9712966348713286,0.8999999999999997,-0.8999999999999997,high,low,,ISIC_0032258.JPG,,ISIC_7927525.JPG,43,true,hl,keypress(j),0,false,350228.8000000119,350228.60000000894,347660.564,347669.700000003,347677.351,350244.096,1,40,23,
sequence,flow.Sequence,6_22,2023-11-15T16:46:52.056Z,,,,,,,,,,2551.2490000089165,completion,,,,,,,high,low,,,,,,true,,,,false,350229.200000003,350228.60000000894,347660.564,347669.700000003,347677.351,350244.096,1,40,,
trial,html.Screen,6_23_0,2023-11-15T16:46:54.135Z,,,,1,-0.9961674882214306,-0.7490338425009774,,true,hh,2064.004000008921,response,0.7983870329622347,0.8999999999999997,-0.8999999999999997,1.044985095430835,0.8999999999999997,-0.8999999999999997,high,high,,ISIC_0624779.JPG,,ISIC_0032372.JPG,184,true,hh,keypress(i),0,false,352308.10000000894,352308.10000000894,350227.205,350229.3000000119,350244.096,352310.581,1,40,24,
sequence,flow.Sequence,6_23,2023-11-15T16:46:54.135Z,,,,,,,,,,2064.004000008921,completion,,,,,,,high,high,,,,,,true,,,,false,352308.3000000119,352308.10000000894,350227.205,350229.3000000119,350244.096,352310.581,1,40,,
trial,html.Screen,6_24_0,2023-11-15T16:46:57.503Z,,,,1,0.8987343013179191,-0.8149073454566363,,true,lh,3365.519000008935,response,-0.8472024037189965,0.8999999999999997,-0.8999999999999997,0.986370061404882,0.8999999999999997,-0.8999999999999997,low,high,,ISIC_0472513.JPG,,ISIC_0054355.JPG,29,true,lh,keypress(e),0,false,355676.200000003,355676.10000000894,352293.907,352308.40000000596,352310.581,355694.776,1,40,25,
sequence,flow.Sequence,6_24,2023-11-15T16:46:57.503Z,,,,,,,,,,3365.519000008935,completion,,,,,,,low,high,,,,,,true,,,,false,355676.40000000596,355676.10000000894,352293.907,352308.40000000596,352310.581,355694.776,1,40,,
trial,html.Screen,6_25_0,2023-11-15T16:46:59.855Z,,,,1,0.7856143618373893,-1.0273608829432213,,true,lh,2333.124000005948,response,-0.7010101889216934,0.8999999999999997,-0.8999999999999997,0.9022783418178474,0.8999999999999997,-0.8999999999999997,low,high,,ISIC_9303849.JPG,,ISIC_0057858.JPG,29,true,lh,keypress(e),0,false,358028,358027.90000000596,355660.542,355676.5,355694.776,358044.092,1,40,26,
sequence,flow.Sequence,6_25,2023-11-15T16:46:59.855Z,,,,,,,,,,2333.124000005948,completion,,,,,,,low,high,,,,,,true,,,,false,358028.200000003,358027.90000000596,355660.542,355676.5,355694.776,358044.092,1,40,,
trial,html.Screen,6_26_0,2023-11-15T16:47:02.503Z,,,,1,-1.075512775389519,1.0454702683049502,,true,hl,2632.5080000089365,response,0.9544693251394116,0.8999999999999997,-0.8999999999999997,-1.0727539917203766,0.8999999999999997,-0.8999999999999997,high,low,,ISIC_0033603.JPG,,ISIC_0055147.JPG,43,true,hl,keypress(j),0,false,360676.90000000596,360676.60000000894,358027.35,358028.200000003,358044.092,360694.219,1,40,27,
sequence,flow.Sequence,6_26,2023-11-15T16:47:02.504Z,,,,,,,,,,2632.5080000089365,completion,,,,,,,high,low,,,,,,true,,,,false,360677.3000000119,360676.60000000894,358027.35,358028.200000003,358044.092,360694.219,1,40,,
trial,html.Screen,6_27_0,2023-11-15T16:47:04.855Z,,,,1,0.9089402323867112,-0.8034544077281132,,true,lh,2333.881000008958,response,-0.8926515927689261,0.8999999999999997,-0.8999999999999997,0.7935960767768927,0.8999999999999997,-0.8999999999999997,low,high,,ISIC_3585381.JPG,,ISIC_8901371.JPG,29,true,lh,keypress(e),0,false,363028.200000003,363028.10000000894,360677.316,360677.40000000596,360694.219,363044.21,1,40,28,
sequence,flow.Sequence,6_27,2023-11-15T16:47:04.855Z,,,,,,,,,,2333.881000008958,completion,,,,,,,low,high,,,,,,true,,,,false,363028.40000000596,363028.10000000894,360677.316,360677.40000000596,360694.219,363044.21,1,40,,
trial,html.Screen,6_28_0,2023-11-15T16:47:06.823Z,,,,1,-0.930804711032185,0.7294067991476295,,true,hl,1951.789999999979,response,0.7872534775441857,0.8999999999999997,-0.8999999999999997,-0.8441107693833454,0.8999999999999997,-0.8999999999999997,high,low,,ISIC_5067317.JPG,,ISIC_0028788.JPG,43,true,hl,keypress(j),0,false,364996.10000000894,364996,363027.229,363028.40000000596,363044.21,365010.654,1,40,29,
sequence,flow.Sequence,6_28,2023-11-15T16:47:06.823Z,,,,,,,,,,1951.789999999979,completion,,,,,,,high,low,,,,,,true,,,,false,364996.200000003,364996,363027.229,363028.40000000596,363044.21,365010.654,1,40,,
trial,html.Screen,6_29_0,2023-11-15T16:47:12.591Z,,,,1,1.0116417541846066,-1.033442916947398,,true,lh,5753.6460000119405,response,-0.8828738626295417,0.8999999999999997,-0.8999999999999997,0.8288177599439582,0.8999999999999997,-0.8999999999999997,low,high,,ISIC_0031389.JPG,,ISIC_0056041.JPG,29,true,lh,keypress(e),0,false,370764.5,370764.3000000119,364993.995,364996.3000000119,365010.654,370777.479,1,40,30,
sequence,flow.Sequence,6_29,2023-11-15T16:47:12.591Z,,,,,,,,,,5753.6460000119405,completion,,,,,,,low,high,,,,,,true,,,,false,370764.8000000119,370764.3000000119,364993.995,364996.200000003,365010.654,370777.479,1,40,,
trial,html.Screen,6_30_0,2023-11-15T16:47:17.887Z,,,,1,0.9633172970727744,-0.8472659344792351,,true,lh,5282.721000002988,response,-0.989300717252516,0.8999999999999997,-0.8999999999999997,0.7908280206937478,0.8999999999999997,-0.8999999999999997,low,high,,ISIC_0067172.JPG,,ISIC_6416533.JPG,29,true,lh,keypress(e),0,false,376060.3000000119,376060.200000003,370760.642,370764.90000000596,370777.479,376077.496,1,40,31,
sequence,flow.Sequence,6_30,2023-11-15T16:47:17.887Z,,,,,,,,,,5282.721000002988,completion,,,,,,,low,high,,,,,,true,,,,false,376060.40000000596,376060.200000003,370760.642,370764.90000000596,370777.479,376077.496,1,40,,
trial,html.Screen,6_31_0,2023-11-15T16:47:20.271Z,,,,1,0.9617893983965208,-0.9453006131304652,,true,lh,2366.5040000000154,response,-0.8110121381849364,0.8999999999999997,-0.8999999999999997,0.7563142141851558,0.8999999999999997,-0.8999999999999997,low,high,,ISIC_4229473.JPG,,ISIC_0033605.JPG,29,true,lh,keypress(e),0,false,378444.10000000894,378444,376060.599,376060.5,376077.496,378460.67,1,40,32,
sequence,flow.Sequence,6_31,2023-11-15T16:47:20.271Z,,,,,,,,,,2366.5040000000154,completion,,,,,,,low,high,,,,,,true,,,,false,378444.3000000119,378444,376060.599,376060.5,376077.496,378460.67,1,40,,
trial,html.Screen,6_32_0,2023-11-15T16:47:22.783Z,,,,1,1.0653732408486678,1.089675540151582,,true,ll,2495.430000008957,response,-0.904926943774141,0.8999999999999997,-0.8999999999999997,-0.8630923941752319,0.8999999999999997,-0.8999999999999997,low,low,,ISIC_0058315.JPG,,ISIC_4573624.JPG,169,true,ll,keypress(f),0,false,380956.200000003,380956.10000000894,378443.911,378444.40000000596,378460.67,380960.65,1,40,33,
sequence,flow.Sequence,6_32,2023-11-15T16:47:22.783Z,,,,,,,,,,2495.430000008957,completion,,,,,,,low,low,,,,,,true,,,,false,380956.40000000596,380956.10000000894,378443.911,378444.40000000596,378460.67,380960.65,1,40,,
trial,html.Screen,6_33_0,2023-11-15T16:47:24.319Z,,,,1,-0.7276136672767647,-0.9132548085712324,,true,hh,1531.550000002957,response,0.8110369560965408,0.8999999999999997,-0.8999999999999997,0.7091309063434607,0.8999999999999997,-0.8999999999999997,high,high,,ISIC_0007740.JPG,,ISIC_0030901.JPG,184,true,hh,keypress(i),0,false,382492.200000003,382492.200000003,380944.108,380956.5,380960.65,382493.96,1,40,34,
sequence,flow.Sequence,6_33,2023-11-15T16:47:24.319Z,,,,,,,,,,1531.550000002957,completion,,,,,,,high,high,,,,,,true,,,,false,382492.40000000596,382492.200000003,380944.108,380956.5,380960.65,382493.96,1,40,,
trial,html.Screen,6_34_0,2023-11-15T16:47:29.088Z,,,,1,0.9111352818043872,-0.7517932332411794,,false,lh,4766.8400000119,response,-0.9237241143561707,0.8999999999999997,-0.8999999999999997,0.7102087839245512,0.8999999999999997,-0.8999999999999997,low,high,,ISIC_3346045.JPG,,ISIC_0058661.JPG,29,true,hh,keypress(i),0,false,387260.90000000596,387260.8000000119,382477.448,382492.5,382493.96,387277.5,1,40,35,
sequence,flow.Sequence,6_34,2023-11-15T16:47:29.088Z,,,,,,,,,,4766.8400000119,completion,,,,,,,low,high,,,,,,true,,,,false,387261.200000003,387260.8000000119,382477.448,382492.5,382493.96,387277.5,1,40,,
trial,html.Screen,6_35_0,2023-11-15T16:47:32.071Z,,,,1,0.8064929303349243,0.9193468294804482,,true,ll,2966.5,response,-0.7653567704423454,0.8999999999999997,-0.8999999999999997,-1.0008177728634988,0.8999999999999997,-0.8999999999999997,low,low,,ISIC_0060968.JPG,,ISIC_0013898.JPG,169,true,ll,keypress(f),0,false,390244.200000003,390244,387260.582,387261.3000000119,387277.5,390260.908,1,40,36,
sequence,flow.Sequence,6_35,2023-11-15T16:47:32.071Z,,,,,,,,,,2966.5,completion,,,,,,,low,low,,,,,,true,,,,false,390244.3000000119,390244,387260.582,387261.3000000119,387277.5,390260.908,1,40,,
trial,html.Screen,6_36_0,2023-11-15T16:47:34.263Z,,,,1,-0.9000661178885296,-1.086658647698992,,true,hh,2174.9920000059647,response,1.0887084502656488,0.8999999999999997,-0.8999999999999997,1.0539327766106836,0.8999999999999997,-0.8999999999999997,high,high,,ISIC_7407847.JPG,,ISIC_0030417.JPG,184,true,hh,keypress(i),0,false,392436,392435.90000000596,390244.091,390244.40000000596,390260.908,392444,1,40,37,
sequence,flow.Sequence,6_36,2023-11-15T16:47:34.263Z,,,,,,,,,,2174.9920000059647,completion,,,,,,,high,high,,,,,,true,,,,false,392436.10000000894,392435.90000000596,390244.091,390244.40000000596,390260.908,392444,1,40,,
trial,html.Screen,6_37_0,2023-11-15T16:47:36.671Z,,,,1,-1.0852045470239868,-0.8198446376049053,,true,hh,2400,response,0.8271218144663375,0.8999999999999997,-0.8999999999999997,0.8321547684171402,0.8999999999999997,-0.8999999999999997,high,high,,ISIC_1805921.JPG,,ISIC_0046224.JPG,184,true,hh,keypress(i),0,false,394844.200000003,394844,392427.467,392436.200000003,392444,394860.722,1,40,38,
sequence,flow.Sequence,6_37,2023-11-15T16:47:36.671Z,,,,,,,,,,2400,completion,,,,,,,high,high,,,,,,true,,,,false,394844.40000000596,394844,392427.467,392436.200000003,392444,394860.722,1,40,,
trial,html.Screen,6_38_0,2023-11-15T16:47:39.129Z,,,,1,-0.7246771568562105,0.9161385080362604,,true,hl,2441.277999999991,response,0.7305475296009624,0.8999999999999997,-0.8999999999999997,-0.7442779237098178,0.8999999999999997,-0.8999999999999997,high,low,,ISIC_0028225.JPG,,ISIC_7266604.JPG,43,true,hl,keypress(j),0,false,397302.3000000119,397302,394843.992,394844.5,394860.722,397310.701,1,40,39,
sequence,flow.Sequence,6_38,2023-11-15T16:47:39.129Z,,,,,,,,,,2441.277999999991,completion,,,,,,,high,low,,,,,,true,,,,false,397302.700000003,397302,394843.992,394844.40000000596,394860.722,397310.701,1,40,,
trial,html.Screen,6_39_0,2023-11-15T16:47:41.039Z,,,,1,-0.7991459998473059,1.0280788723474688,,true,hl,1901.1990000059595,response,1.045301444872812,0.8999999999999997,-0.8999999999999997,-1.0872560254441277,0.8999999999999997,-0.8999999999999997,high,low,,ISIC_7951202.JPG,,ISIC_4507700.JPG,43,true,hl,keypress(j),0,false,399212.10000000894,399211.90000000596,397293.992,397303,397310.701,399227.549,1,40,40,
sequence,flow.Sequence,6_39,2023-11-15T16:47:41.039Z,,,,,,,,,,1901.1990000059595,completion,,,,,,,high,low,,,,,,true,,,,false,399212.3000000119,399211.90000000596,397293.992,397302.90000000596,397310.701,399227.549,1,40,,
practice_loop,flow.Loop,6,2023-11-15T16:47:41.039Z,,,,,,,,,,135884.73900000594,completion,,,,,,,,,,,,,,true,,,,false,399212.40000000596,399211.90000000596,263310.647,263323.8000000119,263327.161,399227.549,1,40,,
stair_instructions,html.Screen,7,2023-11-15T16:47:47.183Z,,,,,,,,,,6128.051000008942,response,,,,,,,,,,,,,,,continue,click button,,,405356.10000000894,405355.60000000894,399210.778,399212.40000000596,399227.549,405377.547,,,,
trial,html.Screen,8_0_0,2023-11-15T16:47:54.974Z,,,,2,0.0629648527969799,-0.0694960898867798,,true,lh,7769.2530000119,response,-0.7010101889216934,0.8999999999999997,-0.8999999999999997,0.9022783418178474,0.8999999999999997,-0.8999999999999997,low,high,,ISIC_0025597.JPG,,ISIC_0057858.JPG,29,false,lh,keypress(e),0,true,413147,413146.8000000119,405360.68,405356.200000003,405377.547,413160.753,1,40,1,
sequence,flow.Sequence,8_0,2023-11-15T16:47:54.974Z,,,,,,,,,,7769.2530000119,completion,,,,,,,low,high,,,,,,false,,,,true,413147.200000003,413146.8000000119,405360.68,405356.200000003,405377.547,413160.753,1,40,,
trial,html.Screen,8_1_0,2023-11-15T16:48:01.757Z,,,,2,0.0010920693448107,0.0492408806128631,,true,lh,6769.547000011895,response,-0.989300717252516,0.8999999999999997,-0.8999999999999997,0.7908280206937478,0.8999999999999997,-0.8999999999999997,low,high,,ISIC_6155981.JPG,,ISIC_6416533.JPG,29,false,lh,keypress(e),0,true,419930.40000000596,419930.3000000119,413144.044,413147.40000000596,413160.753,419944.266,1,40,2,
sequence,flow.Sequence,8_1,2023-11-15T16:48:01.757Z,,,,,,,,,,6769.547000011895,completion,,,,,,,low,high,,,,,,false,,,,true,419930.60000000894,419930.3000000119,413144.044,413147.3000000119,413160.753,419944.266,1,40,,
trial,html.Screen,8_2_0,2023-11-15T16:48:07.367Z,,,,2,0.0395587463147856,-0.0645068093068572,,false,hl,5596.134000005957,response,0.7629099401226335,0.8999999999999997,-0.8499999999999996,-0.8515956627075536,0.7965531812557975,-0.8999999999999997,high,low,,ISIC_0010807.JPG,,ISIC_0028718.JPG,43,false,lh,keypress(e),0,true,425540.60000000894,425540.40000000596,419927.34,419930.700000003,419944.266,425544.061,1,40,3,
sequence,flow.Sequence,8_2,2023-11-15T16:48:07.367Z,,,,,,,,,,5596.134000005957,completion,,,,,,,high,low,,,,,,false,,,,true,425540.700000003,425540.40000000596,419927.34,419930.60000000894,419944.266,425544.061,1,40,,
trial,html.Screen,8_3_0,2023-11-15T16:48:17.184Z,,,,2,0.0495531443078245,0.0310660434153916,,false,ll,9812.839000005974,response,-0.8336927721396412,0.9499999999999997,-0.8499999999999996,-1.1363137800725187,0.7965531812557975,-0.9499999999999997,low,low,,ISIC_0013719.JPG,,ISIC_0553565.JPG,164,false,hl,keypress(j),0,true,435357.200000003,435356.90000000596,425527.257,425540.8000000119,425544.061,435360.764,1,40,4,
sequence,flow.Sequence,8_3,2023-11-15T16:48:17.184Z,,,,,,,,,,9812.839000005974,completion,,,,,,,low,low,,,,,,false,,,,true,435357.5,435356.90000000596,425527.257,425540.8000000119,425544.061,435360.764,1,40,,
trial,html.Screen,8_4_0,2023-11-15T16:48:28.172Z,,,,2,0.0564512008196606,-0.0205312570039753,,,,11016.70299999998,timeout,1.100324093562825,0.9499999999999997,-0.8999999999999997,0.7135782671594406,0.7965531812557975,-0.9499999999999997,high,high,,ISIC_9019691.JPG,,ISIC_0033856.JPG,185,false,,,0,true,446344.90000000596,446344.700000003,435343.943,435357.700000003,435360.764,446377.467,1,40,5,
sequence,flow.Sequence,8_4,2023-11-15T16:48:28.172Z,,,,,,,,,,10983.936000002956,completion,,,,,,,high,high,,,,,,false,,,,true,446345.3000000119,446344.700000003,435343.943,435357.60000000894,435360.764,446377.467,1,40,,
trial,html.Screen,8_5_0,2023-11-15T16:48:33.511Z,,,,2,-0.0727065082131878,-0.0601627969482033,,true,hh,5306.6330000089365,response,1.0365303912899335,0.9499999999999997,-0.8999999999999997,0.6956463132597822,0.7965531812557975,-0.9499999999999997,high,high,,ISIC_2245069.JPG,,ISIC_0021713.JPG,185,false,hh,keypress(i),0,true,451684.200000003,451684.10000000894,446360.71,446345.40000000596,446377.467,451694.149,1,40,6,
sequence,flow.Sequence,8_5,2023-11-15T16:48:33.511Z,,,,,,,,,,5306.6330000089365,completion,,,,,,,high,high,,,,,,false,,,,true,451684.40000000596,451684.10000000894,446360.71,446345.40000000596,446377.467,451694.149,1,40,,
trial,html.Screen,8_6_0,2023-11-15T16:48:38.688Z,,,,2,-0.0257631352671967,-0.0202837002774028,,true,hh,5166.551000003004,response,1.0712988318327483,0.9499999999999997,-0.8999999999999997,0.813758249035235,0.7965531812557975,-0.9499999999999997,high,high,,ISIC_0032797.JPG,,ISIC_5762714.JPG,185,false,hh,keypress(i),0,true,456860.8000000119,456860.700000003,451677.247,451684.40000000596,451694.149,456877.548,1,40,7,
sequence,flow.Sequence,8_6,2023-11-15T16:48:38.688Z,,,,,,,,,,5166.551000003004,completion,,,,,,,high,high,,,,,,false,,,,true,456861.10000000894,456860.700000003,451677.247,451684.40000000596,451694.149,456877.548,1,40,,
trial,html.Screen,8_7_0,2023-11-15T16:48:44.112Z,,,,2,0.0223011224608011,-0.0466190802905965,,false,lh,5407.45199999999,response,-1.0160925610470608,0.7047022811475085,-0.8999999999999997,0.5707094956389498,0.7047022811475085,-0.9499999999999997,low,high,,ISIC_0028041.JPG,,ISIC_8120622.JPG,58,false,ll,keypress(f),0,true,462285.3000000119,462285,456860.724,456861.10000000894,456877.548,462294.097,1,40,8,
sequence,flow.Sequence,8_7,2023-11-15T16:48:44.113Z,,,,,,,,,,5407.45199999999,completion,,,,,,,low,high,,,,,,false,,,,true,462285.60000000894,462285,456860.724,456861.10000000894,456877.548,462294.097,1,40,,
trial,html.Screen,8_8_0,2023-11-15T16:48:53.255Z,,,,2,0.0074667911845194,-0.018500200317654,,true,hh,9134.103000002971,response,0.6655076126006295,0.7047022811475085,-0.8999999999999997,0.7227910971294874,0.7547022811475086,-0.9499999999999997,high,high,,ISIC_0058723.JPG,,ISIC_0031958.JPG,284,false,hh,keypress(i),0,true,471428.5,471428.200000003,462277.41,462285.8000000119,462294.097,471444.224,1,40,9,
sequence,flow.Sequence,8_8,2023-11-15T16:48:53.256Z,,,,,,,,,,9134.103000002971,completion,,,,,,,high,high,,,,,,false,,,,true,471428.60000000894,471428.200000003,462277.41,462285.700000003,462294.097,471444.224,1,40,,
trial,html.Screen,8_9_0,2023-11-15T16:48:57.240Z,,,,2,0.0418938536494534,-0.0678614270583654,,false,hl,3968.176000005973,response,0.7271544837339796,0.7047022811475085,-0.8999999999999997,-0.9127368834814228,0.7547022811475086,-0.9499999999999997,high,low,,ISIC_0027573.JPG,,ISIC_4129321.JPG,59,false,lh,keypress(e),0,true,475412.5,475412.40000000596,471427.177,471428.700000003,471444.224,475427.503,1,40,10,
sequence,flow.Sequence,8_9,2023-11-15T16:48:57.240Z,,,,,,,,,,3968.176000005973,completion,,,,,,,high,low,,,,,,false,,,,true,475412.700000003,475412.40000000596,471427.177,471428.700000003,471444.224,475427.503,1,40,,
trial,html.Screen,8_10_0,2023-11-15T16:49:03.992Z,,,,2,-0.0524649813000588,0.0155452034299028,,true,ll,6737.297000011895,response,-0.7584502386393838,0.7547022811475086,-0.8999999999999997,-0.9825823454317724,0.7547022811475086,-0.9999999999999998,low,low,,ISIC_0030087.JPG,,ISIC_9820910.JPG,139,false,ll,keypress(f),0,true,482165.10000000894,482164.8000000119,475410.618,475412.8000000119,475427.503,482177.596,1,40,11,
sequence,flow.Sequence,8_10,2023-11-15T16:49:03.992Z,,,,,,,,,,6737.297000011895,completion,,,,,,,low,low,,,,,,false,,,,true,482165.5,482164.8000000119,475410.618,475412.700000003,475427.503,482177.596,1,40,,
trial,html.Screen,8_11_0,2023-11-15T16:49:13.615Z,,,,2,0.049790040126711,-0.0195291725171472,,true,hh,9610.30400000594,response,0.7521168894214699,0.7547022811475086,-0.820516292035578,0.8764497729455479,0.7547022811475086,-0.9999999999999998,high,high,,ISIC_0372902.JPG,,ISIC_0030080.JPG,281,false,hh,keypress(i),0,true,491788.10000000894,491787.90000000596,482160.686,482165.60000000894,482177.596,491794.115,1,40,12,
sequence,flow.Sequence,8_11,2023-11-15T16:49:13.615Z,,,,,,,,,,9610.30400000594,completion,,,,,,,high,high,,,,,,false,,,,true,491788.3000000119,491787.90000000596,482160.686,482165.5,482177.596,491794.115,1,40,,
trial,html.Screen,8_12_0,2023-11-15T16:49:18.681Z,,,,2,-0.0367706518941078,0.0161069838272154,,false,lh,5059.28500000597,response,-0.6428017625736049,0.7547022811475086,-0.820516292035578,0.8080600569333839,0.7642833311835089,-0.9999999999999998,low,high,,ISIC_0033419.JPG,,ISIC_9244047.JPG,61,false,hl,keypress(j),0,true,496853.700000003,496853.40000000596,491777.261,491788.3000000119,491794.115,496860.858,1,40,13,
sequence,flow.Sequence,8_12,2023-11-15T16:49:18.681Z,,,,,,,,,,5059.28500000597,completion,,,,,,,low,high,,,,,,false,,,,true,496854.10000000894,496853.40000000596,491777.261,491788.3000000119,491794.115,496860.858,1,40,,
trial,html.Screen,8_13_0,2023-11-15T16:49:21.127Z,,,,2,-0.024731486864197,-0.0504232274546553,,false,lh,2439.342000002973,response,-0.7010101889216934,0.7547022811475086,-0.870516292035578,0.9022783418178474,0.8142833311835089,-0.9999999999999998,low,high,,ISIC_4782878.JPG,,ISIC_0057858.JPG,48,false,hl,keypress(j),0,true,499300.200000003,499300.200000003,496844.134,496854.200000003,496860.858,499310.85,1,40,14,
sequence,flow.Sequence,8_13,2023-11-15T16:49:21.127Z,,,,,,,,,,2439.342000002973,completion,,,,,,,low,high,,,,,,false,,,,true,499300.5,499300.200000003,496844.134,496854.200000003,496860.858,499310.85,1,40,,
trial,html.Screen,8_14_0,2023-11-15T16:49:25.168Z,,,,2,-0.0464691161264081,-0.0535296539628673,,false,hl,4029.6500000000233,response,0.653491773368386,0.7547022811475086,-0.920516292035578,-1.034304067869361,0.864283331183509,-0.9999999999999998,high,low,,ISIC_0758797.JPG,,ISIC_0066470.JPG,42,false,lh,keypress(e),0,true,503340.60000000894,503340.5,499294.088,499300.5,499310.85,503344.165,1,40,15,
sequence,flow.Sequence,8_14,2023-11-15T16:49:25.168Z,,,,,,,,,,4029.6500000000233,completion,,,,,,,high,low,,,,,,false,,,,true,503340.90000000596,503340.5,499294.088,499300.5,499310.85,503344.165,1,40,,
trial,html.Screen,8_15_0,2023-11-15T16:49:29.328Z,,,,2,0.0564512008196606,-0.0205312570039753,,true,hh,4156.135000011942,response,0.9500911450995304,0.8047022811475086,-0.920516292035578,0.8685004638027202,0.864283331183509,-1.0499999999999998,high,high,,ISIC_9019691.JPG,,ISIC_0011094.JPG,219,false,hh,keypress(i),0,true,507500.40000000596,507500.3000000119,503327.46,503340.90000000596,503344.165,507510.996,1,40,16,
sequence,flow.Sequence,8_15,2023-11-15T16:49:29.328Z,,,,,,,,,,4156.135000011942,completion,,,,,,,high,high,,,,,,false,,,,true,507500.5,507500.3000000119,503327.46,503340.90000000596,503344.165,507510.996,1,40,,
trial,html.Screen,8_16_0,2023-11-15T16:49:34.040Z,,,,2,-0.0703653376600499,0.0206740478999942,,false,hh,4701.304000011936,response,0.7331902152638365,0.8047022811475086,-0.920516292035578,0.9466874538814276,0.864283331183509,-1.0499999999999998,high,high,,ISIC_4899386.JPG,,ISIC_0012107.JPG,219,false,lh,keypress(e),0,true,512212.5,512212.3000000119,507494.216,507500.5,507510.996,512227.526,1,40,17,
sequence,flow.Sequence,8_16,2023-11-15T16:49:34.040Z,,,,,,,,,,4701.304000011936,completion,,,,,,,high,high,,,,,,false,,,,true,512212.700000003,512212.3000000119,507494.216,507500.5,507510.996,512227.526,1,40,,
trial,html.Screen,8_17_0,2023-11-15T16:49:42.144Z,,,,2,-0.0544036313884697,-0.0564516462775647,,true,ll,8089.074000008928,response,-1.0943527860463682,0.8547022811475087,-0.920516292035578,-1.124481746658104,0.8575939588420738,-1.0499999999999998,low,low,,ISIC_7441957.JPG,,ISIC_0438136.JPG,120,false,ll,keypress(f),0,true,520316.8000000119,520316.60000000894,512210.761,512212.8000000119,512227.526,520327.524,1,40,18,
sequence,flow.Sequence,8_17,2023-11-15T16:49:42.144Z,,,,,,,,,,8089.074000008928,completion,,,,,,,low,low,,,,,,false,,,,true,520317,520316.60000000894,512210.761,512212.8000000119,512227.526,520327.524,1,40,,
trial,html.Screen,8_18_0,2023-11-15T16:49:49.023Z,,,,2,0.0010920693448107,0.0492408806128631,,false,hh,6868.176000003004,response,0.7629156031079986,0.8547022811475087,-0.920516292035578,0.6585635085213697,0.8575939588420738,-1.0499999999999998,high,high,,ISIC_6155981.JPG,,ISIC_0025796.JPG,201,false,lh,keypress(e),0,true,527195.8000000119,527195.700000003,520310.687,520317.10000000894,520327.524,527210.822,1,40,19,
sequence,flow.Sequence,8_18,2023-11-15T16:49:49.023Z,,,,,,,,,,6868.176000003004,completion,,,,,,,high,high,,,,,,false,,,,true,527196,527195.700000003,520310.687,520317.10000000894,520327.524,527210.822,1,40,,
trial,html.Screen,8_19_0,2023-11-15T16:49:56.536Z,,,,2,0.0418938536494534,-0.0678614270583654,,false,hl,7498.177999999956,response,0.9662688541319592,0.9047022811475087,-0.920516292035578,-0.929746784178986,0.8575939588420738,-1.0499999999999998,high,low,,ISIC_0027573.JPG,,ISIC_0011077.JPG,20,false,hh,keypress(i),0,true,534709.200000003,534709,527194.173,527196,527210.822,534710.838,1,40,20,
sequence,flow.Sequence,8_19,2023-11-15T16:49:56.537Z,,,,,,,,,,7498.177999999956,completion,,,,,,,high,low,,,,,,false,,,,true,534709.400000006,534709,527194.173,527196,527210.822,534710.838,1,40,,
trial,html.Screen,8_20_0,2023-11-15T16:50:03.312Z,,,,2,0.0629648527969799,-0.0694960898867798,,false,lh,6773.962000011932,response,-0.9237241143561707,0.9047022811475087,-0.920516292035578,0.7102087839245512,0.8575939588420738,-1.0999999999999999,low,high,,ISIC_0025597.JPG,,ISIC_0058661.JPG,31,false,ll,keypress(f),0,true,541485.1000000089,541484.8000000119,534694.074,534709.5,534710.838,541494.257,1,40,21,
sequence,flow.Sequence,8_20,2023-11-15T16:50:03.313Z,,,,,,,,,,6773.962000011932,completion,,,,,,,low,high,,,,,,false,,,,true,541485.400000006,541484.8000000119,534694.074,534709.5,534710.838,541494.257,1,40,,
trial,html.Screen,8_21_0,2023-11-15T16:50:07.952Z,,,,2,0.0388181790775959,-0.0049623405709465,,false,hl,4630.3430000089575,response,0.8443403196524287,0.8547022811475087,-0.820516292035578,-0.8858525429102605,0.8575939588420738,-1.0499999999999998,high,low,,ISIC_0061880.JPG,,ISIC_8777813.JPG,26,false,lh,keypress(e),0,true,546124.700000003,546124.6000000089,541477.303,541485.6000000089,541494.257,546127.557,1,40,22,
sequence,flow.Sequence,8_21,2023-11-15T16:50:07.952Z,,,,,,,,,,4630.3430000089575,completion,,,,,,,high,low,,,,,,false,,,,true,546125,546124.6000000089,541477.303,541485.6000000089,541494.257,546127.557,1,40,,
trial,html.Screen,8_22_0,2023-11-15T16:50:15.224Z,,,,2,0.0241900387072296,-0.0339955304424736,,true,hl,7268.64300000295,response,0.8500530224490773,0.8547022811475087,-0.7705162920355779,-1.0893360711742854,0.8075939588420737,-1.0499999999999998,high,low,,ISIC_0010789.JPG,,ISIC_2998367.JPG,26,false,hl,keypress(j),0,true,553396.400000006,553396.200000003,546110.943,546125.1000000089,546127.557,553411.124,1,40,23,
sequence,flow.Sequence,8_22,2023-11-15T16:50:15.224Z,,,,,,,,,,7268.64300000295,completion,,,,,,,high,low,,,,,,false,,,,true,553396.700000003,553396.200000003,546110.943,546125,546127.557,553411.124,1,40,,
trial,html.Screen,8_23_0,2023-11-15T16:50:18.736Z,,,,2,-0.0085390023861227,-0.051110950799465,,false,lh,3497.1760000119684,response,-0.864159288143104,0.8547022811475087,-0.7705162920355779,0.6456269226301533,0.8075939588420737,-1.0499999999999998,low,high,,ISIC_6268546.JPG,,ISIC_0238570.JPG,59,false,hh,keypress(i),0,true,556908.400000006,556908.3000000119,553393.94,553396.8000000119,553411.124,556910.889,1,40,24,
sequence,flow.Sequence,8_23,2023-11-15T16:50:18.736Z,,,,,,,,,,3497.1760000119684,completion,,,,,,,low,high,,,,,,false,,,,true,556908.6000000089,556908.3000000119,553393.94,553396.700000003,553411.124,556910.889,1,40,,
trial,html.Screen,8_24_0,2023-11-15T16:50:23.880Z,,,,2,-0.024731486864197,-0.0504232274546553,,false,ll,5141.4110000119545,response,-0.6319032382134125,0.8547022811475087,-0.820516292035578,-1.201360344621805,0.8075939588420737,-1.0499999999999998,low,low,,ISIC_4782878.JPG,,ISIC_0069330.JPG,143,false,lh,keypress(e),0,true,562052.6000000089,562052.3000000119,556894.203,556908.6000000089,556910.889,562060.864,1,40,25,
sequence,flow.Sequence,8_24,2023-11-15T16:50:23.880Z,,,,,,,,,,5141.4110000119545,completion,,,,,,,low,low,,,,,,false,,,,true,562052.700000003,562052.3000000119,556894.203,556908.6000000089,556910.889,562060.864,1,40,,
trial,html.Screen,8_25_0,2023-11-15T16:50:25.801Z,,,,2,0.0632965338582772,0.0107588824722911,,false,ll,1912.0360000060173,response,-0.6419926354460025,0.8547022811475087,-0.820516292035578,-1.0040580426027246,0.8075939588420737,-1.0999999999999999,low,low,,ISIC_1265755.JPG,,ISIC_0057495.JPG,130,false,lh,keypress(e),0,true,563973.1000000089,563972.900000006,562044.059,562052.8000000119,562060.864,563977.614,1,40,26,
sequence,flow.Sequence,8_25,2023-11-15T16:50:25.801Z,,,,,,,,,,1912.0360000060173,completion,,,,,,,low,low,,,,,,false,,,,true,563973.5,563972.900000006,562044.059,562052.8000000119,562060.864,563977.614,1,40,,
trial,html.Screen,8_26_0,2023-11-15T16:50:32.680Z,,,,2,0.0367060100866019,0.0630207980628495,,true,hh,6874.786000006017,response,0.657826329586381,0.8547022811475087,-0.5869479368297075,0.8497141500201022,0.8075939588420737,-1.15,high,high,,ISIC_0028396.JPG,,ISIC_0071300.JPG,219,false,hh,keypress(i),0,true,570852.6000000089,570852.400000006,563961.096,563973.6000000089,563977.614,570860.898,1,40,27,
sequence,flow.Sequence,8_26,2023-11-15T16:50:32.680Z,,,,,,,,,,6874.786000006017,completion,,,,,,,high,high,,,,,,false,,,,true,570852.8000000119,570852.400000006,563961.096,563973.6000000089,563977.614,570860.898,1,40,,
trial,html.Screen,8_27_0,2023-11-15T16:50:37.321Z,,,,2,0.0644356642124594,-0.0565130492997401,,true,hl,4632.3020000029355,response,0.6545252668717846,0.8047022811475086,-0.5869479368297075,-1.2205481992327876,0.7575939588420737,-1.15,high,low,,ISIC_7520843.JPG,,ISIC_9927221.JPG,20,false,hl,keypress(j),0,true,575493.5,575493.200000003,570844.002,570852.900000006,570860.898,575510.925,1,40,28,
sequence,flow.Sequence,8_27,2023-11-15T16:50:37.321Z,,,,,,,,,,4632.3020000029355,completion,,,,,,,high,low,,,,,,false,,,,true,575493.8000000119,575493.200000003,570844.002,570852.8000000119,570860.898,575510.925,1,40,,
trial,html.Screen,8_28_0,2023-11-15T16:50:43.480Z,,,,2,0.001445457736793,0.0165307427449982,,false,lh,6141.574999999953,response,-0.4782964144542844,0.8047022811475086,-0.5869479368297075,0.597879735432066,0.7575939588420737,-1.15,low,high,,ISIC_0027350.JPG,,ISIC_0059341.JPG,115,false,ll,keypress(f),0,true,581652.700000003,581652.5,575494.237,575494,575510.925,581660.922,1,40,29,
sequence,flow.Sequence,8_28,2023-11-15T16:50:43.480Z,,,,,,,,,,6141.574999999953,completion,,,,,,,low,high,,,,,,false,,,,true,581652.900000006,581652.5,575494.237,575493.900000006,575510.925,581660.922,1,40,,
trial,html.Screen,8_29_0,2023-11-15T16:50:46.312Z,,,,2,0.0109416414475118,0.005246498750811,,false,hl,2823.7780000029597,response,0.8067116931297591,0.8047022811475086,-0.5869479368297075,-1.215898074058027,0.8075939588420737,-1.15,high,low,,ISIC_0064279.JPG,,ISIC_1457687.JPG,20,false,ll,keypress(f),0,true,584484.900000006,584484.700000003,581644.108,581653,581660.922,584494.25,1,40,30,
sequence,flow.Sequence,8_29,2023-11-15T16:50:46.313Z,,,,,,,,,,2823.7780000029597,completion,,,,,,,high,low,,,,,,false,,,,true,584485.200000003,584484.700000003,581644.108,581653,581660.922,584494.25,1,40,,
trial,html.Screen,8_30_0,2023-11-15T16:50:53.095Z,,,,2,0.0448994009031783,-0.0708723658092544,,false,ll,6773.6500000059605,response,-0.7201569862431658,0.8547022811475087,-0.5869479368297075,-0.6971824642374245,0.8075939588420737,-0.7970972442561557,low,low,,ISIC_0025238.JPG,,ISIC_8246858.JPG,325,false,lh,keypress(e),0,true,591268,591267.900000006,584477.776,584485.3000000119,584494.25,591277.622,1,40,31,
sequence,flow.Sequence,8_30,2023-11-15T16:50:53.096Z,,,,,,,,,,6773.6500000059605,completion,,,,,,,low,low,,,,,,false,,,,true,591268.200000003,591267.900000006,584477.776,584485.3000000119,584494.25,591277.622,1,40,,
trial,html.Screen,8_31_0,2023-11-15T16:50:54.785Z,,,,2,-0.0367744112927588,-0.0324865661712824,,false,hl,1679.378000000026,response,0.7629099401226335,0.8547022811475087,-0.549226700348725,-0.8515956627075536,0.8075939588420737,-0.8470972442561557,high,low,,ISIC_4523565.JPG,,ISIC_0028718.JPG,54,false,lh,keypress(e),0,true,592957.3000000119,592957,591260.682,591268.200000003,591277.622,592960.977,1,40,32,
sequence,flow.Sequence,8_31,2023-11-15T16:50:54.785Z,,,,,,,,,,1679.378000000026,completion,,,,,,,high,low,,,,,,false,,,,true,592957.5,592957,591260.682,591268.200000003,591277.622,592960.977,1,40,,
trial,html.Screen,8_32_0,2023-11-15T16:50:57.288Z,,,,2,0.0175203912019758,0.0427513576747051,,true,hh,2499.223000003025,response,1.0365303912899335,0.9047022811475087,-0.549226700348725,0.6956463132597822,0.8075939588420737,-0.8970972442561558,high,high,,ISIC_0056292.JPG,,ISIC_0021713.JPG,195,false,hh,keypress(i),0,true,595460.400000006,595460.200000003,592944.38,592957.700000003,592960.977,595477.645,1,40,33,
sequence,flow.Sequence,8_32,2023-11-15T16:50:57.288Z,,,,,,,,,,2499.223000003025,completion,,,,,,,high,high,,,,,,false,,,,true,595460.5,595460.200000003,592944.38,592957.700000003,592960.977,595477.645,1,40,,
trial,html.Screen,8_33_0,2023-11-15T16:50:58.920Z,,,,2,0.0577614292269216,0.035892232596533,,false,lh,1615.0550000029616,response,-0.5182919912129921,0.9047022811475087,-0.549226700348725,0.9429588980188944,0.8075939588420737,-0.8970972442561558,low,high,,ISIC_8363485.JPG,,ISIC_4289906.JPG,114,false,hh,keypress(i),0,true,597092.900000006,597092.700000003,595444.44,595460.6000000089,595477.645,597112.235,1,40,34,
sequence,flow.Sequence,8_33,2023-11-15T16:50:58.921Z,,,,,,,,,,1615.0550000029616,completion,,,,,,,low,high,,,,,,false,,,,true,597093.200000003,597092.700000003,595444.44,595460.6000000089,595477.645,597112.235,1,40,,
trial,html.Screen,8_34_0,2023-11-15T16:51:06.592Z,,,,2,-0.024731486864197,-0.0504232274546553,,true,ll,7651.965000002994,response,-0.7945270488878992,0.9047022811475087,-0.599226700348725,-0.9054354695775536,0.7693026056393383,-0.8970972442561558,low,low,,ISIC_4782878.JPG,,ISIC_5820693.JPG,262,false,ll,keypress(f),0,true,604764.200000003,604764.200000003,597077.638,597093.400000006,597112.235,604777.82,1,40,35,
sequence,flow.Sequence,8_34,2023-11-15T16:51:06.592Z,,,,,,,,,,7651.965000002994,completion,,,,,,,low,low,,,,,,false,,,,true,604764.400000006,604764.200000003,597077.638,597093.400000006,597112.235,604777.82,1,40,,
trial,html.Screen,8_35_0,2023-11-15T16:51:13.783Z,,,,2,-0.0501343550751953,-0.0101991443736165,,false,lh,7178.180000000051,response,-0.4424953596273369,0.9047022811475087,-0.599226700348725,0.578075680807843,0.7693026056393383,-0.8970972442561558,low,high,,ISIC_4232761.JPG,,ISIC_0027627.JPG,104,false,hh,keypress(i),0,true,611956,611956,604760.799,604764.5,604777.82,611960.927,1,40,36,
sequence,flow.Sequence,8_35,2023-11-15T16:51:13.784Z,,,,,,,,,,7178.180000000051,completion,,,,,,,low,high,,,,,,false,,,,true,611956.200000003,611956,604760.799,604764.5,604777.82,611960.927,1,40,,
trial,html.Screen,8_36_0,2023-11-15T16:51:19.536Z,,,,2,0.0542893032276609,-0.0176656364422514,,false,ll,5747.473000005935,response,-0.5396132834573176,0.9047022811475087,-0.6492267003487251,-0.7614794453737483,0.7693026056393383,-0.8970972442561558,low,low,,ISIC_0024516.JPG,,ISIC_0032750.JPG,251,false,lh,keypress(e),0,true,617708.5,617708.400000006,611944.136,611956.200000003,611960.927,617710.946,1,40,37,
sequence,flow.Sequence,8_36,2023-11-15T16:51:19.536Z,,,,,,,,,,5747.473000005935,completion,,,,,,,low,low,,,,,,false,,,,true,617708.700000003,617708.400000006,611944.136,611956.200000003,611960.927,617710.946,1,40,,
trial,html.Screen,8_37_0,2023-11-15T16:51:25.432Z,,,,2,-0.0423567271646023,-0.0380126882576854,,false,ll,5893.454000005964,response,-0.5195037643413263,0.9047022811475087,-0.6492267003487251,-0.755787228559206,0.7693026056393383,-0.9470972442561558,low,low,,ISIC_0046932.JPG,,ISIC_4796100.JPG,234,false,hh,keypress(i),0,true,623604.6000000089,623604.400000006,617694.332,617708.8000000119,617710.946,623610.94,1,40,38,
sequence,flow.Sequence,8_37,2023-11-15T16:51:25.433Z,,,,,,,,,,5893.454000005964,completion,,,,,,,low,low,,,,,,false,,,,true,623604.900000006,623604.400000006,617694.332,617708.8000000119,617710.946,623610.94,1,40,,
trial,html.Screen,8_38_0,2023-11-15T16:51:27.320Z,,,,2,0.039520186367207,0.0377961575607372,,false,ll,1880.8600000119768,response,-0.8493861117004308,0.9047022811475087,-0.6992267003487251,-0.8834146203433249,0.7693026056393383,-0.9970972442561559,low,low,,ISIC_6356149.JPG,,ISIC_7450481.JPG,201,false,hh,keypress(i),0,true,625491.900000006,625491.8000000119,623594.174,623605.1000000089,623610.94,625494.304,1,40,39,
sequence,flow.Sequence,8_38,2023-11-15T16:51:27.320Z,,,,,,,,,,1880.8600000119768,completion,,,,,,,low,low,,,,,,false,,,,true,625492,625491.8000000119,623594.174,623605,623610.94,625494.304,1,40,,
trial,html.Screen,8_39_0,2023-11-15T16:51:30.689Z,,,,2,0.0326050223870869,0.0579165897319751,,false,hl,3366.496000011917,response,0.8500530224490773,0.9047022811475087,-0.7492267003487252,-1.0893360711742854,0.7693026056393383,-1.047097244256156,high,low,,ISIC_4570724.JPG,,ISIC_2998367.JPG,21,false,hh,keypress(i),0,true,628861,628860.8000000119,625477.691,625492,625494.304,628877.682,1,40,40,
sequence,flow.Sequence,8_39,2023-11-15T16:51:30.689Z,,,,,,,,,,3366.496000011917,completion,,,,,,,high,low,,,,,,false,,,,true,628861.400000006,628860.8000000119,625477.691,625492,625494.304,628877.682,1,40,,
stair_loop,flow.Loop,8,2023-11-15T16:51:30.689Z,,,,,,,,,,223483.2530000119,completion,,,,,,,,,,,,,,false,,,,true,628861.6000000089,628860.8000000119,405360.68,405356.200000003,405377.547,628877.682,1,40,,
exp_instructions,html.Screen,9,2023-11-15T16:51:52.216Z,,,,,,,,,,21510.41800000891,response,,,,,,,,,,,,,,,continue,keypress(Space),,,650388.700000003,650388.1000000089,628860.985,628861.8000000119,628877.682,650394.324,,,,
trial,html.Screen,10_0_0,2023-11-15T16:52:00.813Z,,,,1,0.0175203912019758,0.0427513576747051,,false,lh,8591.175999999978,response,-0.7338675064115789,0.8697022811475087,-0.6725438869750265,0.6383160469017348,0.7961065528812528,-1.006048622128078,low,high,,ISIC_0056292.JPG,10,ISIC_5546806.JPG,86,false,hh,keypress(i),0,false,658985.6000000089,658985.5,650376.951,650388.900000006,650394.324,658994.331,4,500,1,
break,html.Screen,10_0_1,2023-11-15T16:52:00.814Z,,,,,,,,,,NaN,,,,,,,,low,high,,,,,,false,,,,false,658986,658985.900000006,,658985.700000003,,658994.331,4,500,,
break_continue,html.Screen,10_0_2,2023-11-15T16:52:00.814Z,,,,,,,,,,NaN,,,,,,,,low,high,,,,,,false,,,,false,658986.400000006,658986.3000000119,,658986.1000000089,,658994.331,4,500,,
sequence,flow.Sequence,10_0,2023-11-15T16:52:00.814Z,,,,,,,,,,8591.976000011899,completion,,,,,,,low,high,,,,,,false,,,,false,658986.5,658986.3000000119,650376.951,650388.900000006,650394.324,658994.331,4,500,,
trial,html.Screen,10_1_0,2023-11-15T16:52:04.248Z,,,,1,-0.0283578106329894,0.0088840758711548,,true,lh,3425.9690000119153,response,-0.7088606387153258,0.8697022811475087,-0.6725438869750265,0.948610930521224,0.7961065528812528,-1.006048622128078,low,high,,ISIC_0060707.JPG,9,ISIC_0026293.JPG,86,false,lh,keypress(e),0,false,662420.5,662420.3000000119,658977.441,658986.5,658994.331,662427.774,4,500,2,
break,html.Screen,10_1_1,2023-11-15T16:52:04.248Z,,,,,,,,,,NaN,,,,,,,,low,high,,,,,,false,,,,false,662420.700000003,662420.700000003,,662420.5,,662427.774,4,500,,
break_continue,html.Screen,10_1_2,2023-11-15T16:52:04.249Z,,,,,,,,,,NaN,,,,,,,,low,high,,,,,,false,,,,false,662420.900000006,662420.900000006,,662420.700000003,,662427.774,4,500,,
sequence,flow.Sequence,10_1,2023-11-15T16:52:04.249Z,,,,,,,,,,3426.569000005955,completion,,,,,,,low,high,,,,,,false,,,,false,662421,662420.900000006,658977.441,658986.5,658994.331,662427.774,4,500,,
trial,html.Screen,10_2_0,2023-11-15T16:52:08.296Z,,,,1,-0.068830656047477,0.0471494209282208,,false,ll,4040.526000011945,response,-0.6218595808594284,0.8697022811475087,-0.6725438869750265,-1.0122672914618351,0.7961065528812528,-1.006048622128078,low,low,,ISIC_0029982.JPG,9,ISIC_6201695.JPG,207,false,hh,keypress(i),0,false,666468.5,666468.3000000119,662411.072,662421,662427.774,666477.698,4,500,3,
break,html.Screen,10_2_1,2023-11-15T16:52:08.297Z,,,,,,,,,,NaN,,,,,,,,low,low,,,,,,false,,,,false,666469.200000003,666469,,666468.8000000119,,666477.698,4,500,,
break_continue,html.Screen,10_2_2,2023-11-15T16:52:08.297Z,,,,,,,,,,NaN,,,,,,,,low,low,,,,,,false,,,,false,666469.6000000089,666469.400000006,,666469.3000000119,,666477.698,4,500,,
sequence,flow.Sequence,10_2,2023-11-15T16:52:08.297Z,,,,,,,,,,4041.6260000059847,completion,,,,,,,low,low,,,,,,false,,,,false,666469.8000000119,666469.400000006,662411.072,662421,662427.774,666477.698,4,500,,
trial,html.Screen,10_3_0,2023-11-15T16:52:13.552Z,,,,1,0.0065172941585523,-0.0118857043117315,,true,lh,5246.402000008966,response,-0.8493817247965978,0.8697022811475087,-0.6725438869750265,0.6545324227286122,0.7961065528812528,-1.006048622128078,low,high,,ISIC_6119202.JPG,9,ISIC_0030219.JPG,86,false,lh,keypress(e),0,false,671724.1000000089,671724.1000000089,666461.064,666469.900000006,666477.698,671727.679,4,500,4,
break,html.Screen,10_3_1,2023-11-15T16:52:13.552Z,,,,,,,,,,NaN,,,,,,,,low,high,,,,,,false,,,,false,671724.5,671724.400000006,,671724.200000003,,671727.679,4,500,,
break_continue,html.Screen,10_3_2,2023-11-15T16:52:13.552Z,,,,,,,,,,NaN,,,,,,,,low,high,,,,,,false,,,,false,671724.8000000119,671724.6000000089,,671724.5,,671727.679,4,500,,
sequence,flow.Sequence,10_3,2023-11-15T16:52:13.552Z,,,,,,,,,,5246.902000008966,completion,,,,,,,low,high,,,,,,false,,,,false,671724.8000000119,671724.6000000089,666461.064,666469.900000006,666477.698,671727.679,4,500,,
trial,html.Screen,10_4_0,2023-11-15T16:52:21.785Z,,,,1,0.0409660561823769,-0.039283578935498,,true,hh,8229.121000011917,response,0.6755040060260916,0.8697022811475087,-0.6725438869750265,0.9697578184999052,0.7961065528812528,-1.006048622128078,high,high,,ISIC_0479264.JPG,9,ISIC_0056316.JPG,214,false,hh,keypress(i),0,false,679957,679956.8000000119,671710.932,671724.8000000119,671727.679,679961.083,4,500,5,
break,html.Screen,10_4_1,2023-11-15T16:52:21.785Z,,,,,,,,,,NaN,,,,,,,,high,high,,,,,,false,,,,false,679957.700000003,679957.5,,679957.3000000119,,679961.083,4,500,,
break_continue,html.Screen,10_4_2,2023-11-15T16:52:21.786Z,,,,,,,,,,NaN,,,,,,,,high,high,,,,,,false,,,,false,679958.200000003,679958,,679957.8000000119,,679961.083,4,500,,
sequence,flow.Sequence,10_4,2023-11-15T16:52:21.786Z,,,,,,,,,,8230.320999999996,completion,,,,,,,high,high,,,,,,false,,,,false,679958.400000006,679958,671710.932,671724.8000000119,671727.679,679961.083,4,500,,
trial,html.Screen,10_5_0,2023-11-15T16:52:23.584Z,,,,1,0.0374659946425444,0.0086043094957617,,false,hl,1795.0170000089565,response,0.8350129142228142,0.8697022811475087,-0.6725438869750265,-0.8172547818270586,0.7961065528812528,-1.006048622128078,high,low,,ISIC_0033051.JPG,10,ISIC_0301568.JPG,30,false,hh,keypress(i),0,false,681756.200000003,681756.1000000089,679944.36,679958.5,679961.083,681777.756,4,500,6,
break,html.Screen,10_5_1,2023-11-15T16:52:23.584Z,,,,,,,,,,NaN,,,,,,,,high,low,,,,,,false,,,,false,681756.700000003,681756.5,,681756.400000006,,681777.756,4,500,,
break_continue,html.Screen,10_5_2,2023-11-15T16:52:23.585Z,,,,,,,,,,NaN,,,,,,,,high,low,,,,,,false,,,,false,681756.900000006,681756.8000000119,,681756.700000003,,681777.756,4,500,,
sequence,flow.Sequence,10_5,2023-11-15T16:52:23.585Z,,,,,,,,,,1795.7170000119368,completion,,,,,,,high,low,,,,,,false,,,,false,681756.900000006,681756.8000000119,679944.36,679958.5,679961.083,681777.756,4,500,,
trial,html.Screen,10_6_0,2023-11-15T16:52:25.249Z,,,,1,-0.068830656047477,0.0471494209282208,,false,lh,1643.0440000118688,response,-0.5089214646663015,0.8697022811475087,-0.6725438869750265,0.7336493335132354,0.7961065528812528,-1.006048622128078,low,high,,ISIC_0029982.JPG,9,ISIC_7415335.JPG,86,false,hh,keypress(i),0,false,683420.900000006,683420.8000000119,681761.195,681757,681777.756,683427.766,4,500,7,
break,html.Screen,10_6_1,2023-11-15T16:52:25.250Z,,,,,,,,,,NaN,,,,,,,,low,high,,,,,,false,,,,false,683421.8000000119,683421.6000000089,,683421.200000003,,683427.766,4,500,,
break_continue,html.Screen,10_6_2,2023-11-15T16:52:25.250Z,,,,,,,,,,NaN,,,,,,,,low,high,,,,,,false,,,,false,683422.3000000119,683422,,683421.8000000119,,683427.766,4,500,,
sequence,flow.Sequence,10_6,2023-11-15T16:52:25.250Z,,,,,,,,,,1644.2439999999478,completion,,,,,,,low,high,,,,,,false,,,,false,683422.5,683422,681761.195,681757,681777.756,683427.766,4,500,,
trial,html.Screen,10_7_0,2023-11-15T16:52:29.392Z,,,,1,0.0074667911845194,-0.018500200317654,,true,hh,4136.534000011976,response,0.7652061050527971,0.8697022811475087,-0.6725438869750265,0.652042601330859,0.7961065528812528,-1.006048622128078,high,high,,ISIC_0058723.JPG,9,ISIC_0065521.JPG,214,false,hh,keypress(i),0,false,687564.5,687564.3000000119,683410.997,683422.6000000089,683427.766,687577.755,4,500,8,
break,html.Screen,10_7_1,2023-11-15T16:52:29.393Z,,,,,,,,,,NaN,,,,,,,,high,high,,,,,,false,,,,false,687565.1000000089,687565,,687564.700000003,,687577.755,4,500,,
break_continue,html.Screen,10_7_2,2023-11-15T16:52:29.393Z,,,,,,,,,,NaN,,,,,,,,high,high,,,,,,false,,,,false,687565.5,687565.3000000119,,687565.200000003,,687577.755,4,500,,
sequence,flow.Sequence,10_7,2023-11-15T16:52:29.393Z,,,,,,,,,,4137.534000011976,completion,,,,,,,high,high,,,,,,false,,,,false,687565.6000000089,687565.3000000119,683410.997,683422.6000000089,683427.766,687577.755,4,500,,
trial,html.Screen,10_8_0,2023-11-15T16:52:36.857Z,,,,1,0.0175203912019758,0.0427513576747051,,true,hl,7450.945000002976,response,0.7079689798840642,0.8697022811475087,-0.6725438869750265,-0.9053957126199562,0.7961065528812528,-1.006048622128078,high,low,,ISIC_0056292.JPG,9,ISIC_0058863.JPG,30,false,hl,keypress(j),0,false,695028.900000006,695028.700000003,687561.16,687565.700000003,687577.755,695044.554,4,500,9,
break,html.Screen,10_8_1,2023-11-15T16:52:36.857Z,,,,,,,,,,NaN,,,,,,,,high,low,,,,,,false,,,,false,695029.6000000089,695029.400000006,,695029.1000000089,,695044.554,4,500,,
break_continue,html.Screen,10_8_2,2023-11-15T16:52:36.858Z,,,,,,,,,,NaN,,,,,,,,high,low,,,,,,false,,,,false,695030.1000000089,695029.900000006,,695029.8000000119,,695044.554,4,500,,
sequence,flow.Sequence,10_8,2023-11-15T16:52:36.858Z,,,,,,,,,,7452.145000005956,completion,,,,,,,high,low,,,,,,false,,,,false,695030.3000000119,695029.900000006,687561.16,687565.700000003,687577.755,695044.554,4,500,,
trial,html.Screen,10_9_0,2023-11-15T16:52:38.960Z,,,,1,-0.0367706518941078,0.0161069838272154,,false,lh,2087.4459999999963,response,-0.7411887874358276,0.8697022811475087,-0.6725438869750265,0.7869222465141029,0.7961065528812528,-1.006048622128078,low,high,,ISIC_0033419.JPG,8,ISIC_6255113.JPG,86,false,hl,keypress(j),0,false,697132.200000003,697132,695027.817,695030.5,695044.554,697144.43,4,500,10,
break,html.Screen,10_9_1,2023-11-15T16:52:38.960Z,,,,,,,,,,NaN,,,,,,,,low,high,,,,,,false,,,,false,697132.6000000089,697132.5,,697132.3000000119,,697144.43,4,500,,
break_continue,html.Screen,10_9_2,2023-11-15T16:52:38.961Z,,,,,,,,,,NaN,,,,,,,,low,high,,,,,,false,,,,false,697132.900000006,697132.8000000119,,697132.700000003,,697144.43,4,500,,
sequence,flow.Sequence,10_9,2023-11-15T16:52:38.961Z,,,,,,,,,,2088.246000011917,completion,,,,,,,low,high,,,,,,false,,,,false,697133,697132.8000000119,695027.817,695030.400000006,695044.554,697144.43,4,500,,
trial,html.Screen,10_10_0,2023-11-15T16:52:41.152Z,,,,1,0.0123274848503577,-0.0516828290734233,,true,lh,2179.9700000059092,response,-0.4753331541548958,0.8697022811475087,-0.6725438869750265,0.8947628447895732,0.7961065528812528,-1.006048622128078,low,high,,ISIC_0056790.JPG,10,ISIC_0026745.JPG,86,false,lh,keypress(e),0,false,699324.6000000089,699324.400000006,697127.826,697133.1000000089,697144.43,699327.766,4,500,11,
break,html.Screen,10_10_1,2023-11-15T16:52:41.153Z,,,,,,,,,,NaN,,,,,,,,low,high,,,,,,false,,,,false,699325.1000000089,699325.1000000089,,699324.8000000119,,699327.766,4,500,,
break_continue,html.Screen,10_10_2,2023-11-15T16:52:41.153Z,,,,,,,,,,NaN,,,,,,,,low,high,,,,,,false,,,,false,699325.6000000089,699325.400000006,,699325.3000000119,,699327.766,4,500,,
sequence,flow.Sequence,10_10,2023-11-15T16:52:41.154Z,,,,,,,,,,2180.9700000059092,completion,,,,,,,low,high,,,,,,false,,,,false,699325.8000000119,699325.400000006,697127.826,697133,697144.43,699327.766,4,500,,
trial,html.Screen,10_11_0,2023-11-15T16:52:47.544Z,,,,1,-0.0715931084231032,0.011427878877272,,false,hh,6388.434000003035,response,0.6837731958699687,0.8697022811475087,-0.6725438869750265,0.9897645979422992,0.7961065528812528,-1.006048622128078,high,high,,ISIC_1470250.JPG,9,ISIC_0280912.JPG,214,false,hl,keypress(j),0,false,705716.3000000119,705716.200000003,699311.132,699325.900000006,699327.766,705727.725,4,500,12,
break,html.Screen,10_11_1,2023-11-15T16:52:47.544Z,,,,,,,,,,NaN,,,,,,,,high,high,,,,,,false,,,,false,705716.6000000089,705716.6000000089,,705716.400000006,,705727.725,4,500,,
break_continue,html.Screen,10_11_2,2023-11-15T16:52:47.545Z,,,,,,,,,,NaN,,,,,,,,high,high,,,,,,false,,,,false,705716.900000006,705716.8000000119,,705716.700000003,,705727.725,4,500,,
sequence,flow.Sequence,10_11,2023-11-15T16:52:47.545Z,,,,,,,,,,6389.034000011976,completion,,,,,,,high,high,,,,,,false,,,,false,705716.900000006,705716.8000000119,699311.132,699325.900000006,699327.766,705727.725,4,500,,
trial,html.Screen,10_12_0,2023-11-15T16:52:49.232Z,,,,1,0.001445457736793,0.0165307427449982,,true,hl,1676.4750000030035,response,0.7396001261916139,0.8697022811475087,-0.6725438869750265,-0.9901017340796716,0.7961065528812528,-1.006048622128078,high,low,,ISIC_0027350.JPG,10,ISIC_8679617.JPG,30,false,hl,keypress(j),0,false,707404.3000000119,707404.200000003,705711.065,705717,705727.725,707411.157,4,500,13,
break,html.Screen,10_12_1,2023-11-15T16:52:49.232Z,,,,,,,,,,NaN,,,,,,,,high,low,,,,,,false,,,,false,707404.700000003,707404.5,,707404.400000006,,707411.157,4,500,,
break_continue,html.Screen,10_12_2,2023-11-15T16:52:49.233Z,,,,,,,,,,NaN,,,,,,,,high,low,,,,,,false,,,,false,707404.8000000119,707404.8000000119,,707404.700000003,,707411.157,4,500,,
sequence,flow.Sequence,10_12,2023-11-15T16:52:49.233Z,,,,,,,,,,1677.0750000119442,completion,,,,,,,high,low,,,,,,false,,,,false,707404.900000006,707404.8000000119,705711.065,705717,705727.725,707411.157,4,500,,
trial,html.Screen,10_13_0,2023-11-15T16:52:51.600Z,,,,1,-0.0118382036798625,-0.0300588245877227,,false,ll,2361.0430000029737,response,-0.5935540313753808,0.8697022811475087,-0.6725438869750265,-0.8568729141474799,0.7961065528812528,-1.006048622128078,low,low,,ISIC_4748605.JPG,9,ISIC_8389650.JPG,207,false,lh,keypress(e),0,false,709772.3000000119,709772.200000003,707394.423,707404.900000006,707411.157,709777.761,4,500,14,
break,html.Screen,10_13_1,2023-11-15T16:52:51.600Z,,,,,,,,,,NaN,,,,,,,,low,low,,,,,,false,,,,false,709772.6000000089,709772.6000000089,,709772.5,,709777.761,4,500,,
break_continue,html.Screen,10_13_2,2023-11-15T16:52:51.601Z,,,,,,,,,,NaN,,,,,,,,low,low,,,,,,false,,,,false,709772.900000006,709772.900000006,,709772.700000003,,709777.761,4,500,,
sequence,flow.Sequence,10_13,2023-11-15T16:52:51.601Z,,,,,,,,,,2361.743000005954,completion,,,,,,,low,low,,,,,,false,,,,false,709773,709772.900000006,707394.423,707404.900000006,707411.157,709777.761,4,500,,
trial,html.Screen,10_14_0,2023-11-15T16:52:59.256Z,,,,1,0.0065172941585523,-0.0118857043117315,,false,lh,7650.639000005904,response,-0.5528762917468766,0.8697022811475087,-0.6725438869750265,0.8525663902421611,0.7961065528812528,-1.006048622128078,low,high,,ISIC_6119202.JPG,9,ISIC_0054244.JPG,86,false,ll,keypress(f),0,false,717428.5,717428.400000006,709761.087,709773.1000000089,709777.761,717461.109,4,500,15,
break,html.Screen,10_14_1,2023-11-15T16:52:59.257Z,,,,,,,,,,NaN,,,,,,,,low,high,,,,,,false,,,,false,717428.8000000119,717428.700000003,,717428.6000000089,,717461.109,4,500,,
break_continue,html.Screen,10_14_2,2023-11-15T16:52:59.257Z,,,,,,,,,,NaN,,,,,,,,low,high,,,,,,false,,,,false,717429.1000000089,717428.900000006,,717428.8000000119,,717461.109,4,500,,
sequence,flow.Sequence,10_14,2023-11-15T16:52:59.257Z,,,,,,,,,,7651.139000005904,completion,,,,,,,low,high,,,,,,false,,,,false,717429.1000000089,717428.900000006,709761.087,709773.1000000089,709777.761,717461.109,4,500,,
trial,html.Screen,10_15_0,2023-11-15T16:53:02.592Z,,,,1,0.0632965338582772,0.0107588824722911,,false,hh,3302.890999999945,response,0.7194072444457746,0.8697022811475087,-0.6725438869750265,0.8090139128440115,0.7961065528812528,-1.006048622128078,high,high,,ISIC_1265755.JPG,8,ISIC_0057539.JPG,214,false,lh,keypress(e),0,false,720764.200000003,720764,717444.562,717429.200000003,717461.109,720777.811,4,500,16,
break,html.Screen,10_15_1,2023-11-15T16:53:02.592Z,,,,,,,,,,NaN,,,,,,,,high,high,,,,,,false,,,,false,720764.5,720764.400000006,,720764.3000000119,,720777.811,4,500,,
break_continue,html.Screen,10_15_2,2023-11-15T16:53:02.593Z,,,,,,,,,,NaN,,,,,,,,high,high,,,,,,false,,,,false,720764.8000000119,720764.700000003,,720764.6000000089,,720777.811,4,500,,
sequence,flow.Sequence,10_15,2023-11-15T16:53:02.593Z,,,,,,,,,,3303.5910000029253,completion,,,,,,,high,high,,,,,,false,,,,false,720764.900000006,720764.700000003,717444.562,717429.200000003,717461.109,720777.811,4,500,,
trial,html.Screen,10_16_0,2023-11-15T16:53:08.089Z,,,,1,0.0577614292269216,0.035892232596533,,true,lh,5482.889000002993,response,-0.4870345463830041,0.8697022811475087,-0.6725438869750265,0.7000386951812506,0.7961065528812528,-1.006048622128078,low,high,,ISIC_8363485.JPG,10,ISIC_5164416.JPG,86,false,lh,keypress(e),0,false,726260.8000000119,726260.700000003,720761.08,720764.900000006,720777.811,726277.911,4,500,17,
break,html.Screen,10_16_1,2023-11-15T16:53:08.089Z,,,,,,,,,,NaN,,,,,,,,low,high,,,,,,false,,,,false,726261.5,726261.400000006,,726261,,726277.911,4,500,,
break_continue,html.Screen,10_16_2,2023-11-15T16:53:08.090Z,,,,,,,,,,NaN,,,,,,,,low,high,,,,,,false,,,,false,726262,726261.700000003,,726261.5,,726277.911,4,500,,
sequence,flow.Sequence,10_16,2023-11-15T16:53:08.090Z,,,,,,,,,,5483.889000002993,completion,,,,,,,low,high,,,,,,false,,,,false,726262.1000000089,726261.700000003,720761.08,720764.900000006,720777.811,726277.911,4,500,,
trial,html.Screen,10_17_0,2023-11-15T16:53:10.552Z,,,,1,-0.0633291412406864,0.0446580444004686,,false,hl,2446.489000005997,response,1.0153439398566937,0.8697022811475087,-0.6725438869750265,-0.93001438372942,0.7961065528812528,-1.006048622128078,high,low,,ISIC_0010718.JPG,8,ISIC_8211214.JPG,30,false,hh,keypress(i),0,false,728724.5,728724.400000006,726261.13,726262.200000003,726277.911,728727.787,4,500,18,
break,html.Screen,10_17_1,2023-11-15T16:53:10.553Z,,,,,,,,,,NaN,,,,,,,,high,low,,,,,,false,,,,false,728724.900000006,728724.8000000119,,728724.700000003,,728727.787,4,500,,
break_continue,html.Screen,10_17_2,2023-11-15T16:53:10.553Z,,,,,,,,,,NaN,,,,,,,,high,low,,,,,,false,,,,false,728725.3000000119,728725.1000000089,,728725,,728727.787,4,500,,
sequence,flow.Sequence,10_17,2023-11-15T16:53:10.553Z,,,,,,,,,,2447.189000008977,completion,,,,,,,high,low,,,,,,false,,,,false,728725.400000006,728725.1000000089,726261.13,726262.1000000089,726277.911,728727.787,4,500,,
trial,html.Screen,10_18_0,2023-11-15T16:53:13.393Z,,,,1,0.0273175221875807,0.0515126441328492,,false,ll,2837.212999999989,response,-0.771782427598807,0.8697022811475087,-0.6725438869750265,-1.0831630135341803,0.7961065528812528,-1.006048622128078,low,low,,ISIC_0064034.JPG,10,ISIC_7340247.JPG,207,false,hl,keypress(j),0,false,731565.3000000119,731565,728711.238,728725.5,728727.787,731577.991,4,500,19,
break,html.Screen,10_18_1,2023-11-15T16:53:13.394Z,,,,,,,,,,NaN,,,,,,,,low,low,,,,,,false,,,,false,731566.3000000119,731566.1000000089,,731565.6000000089,,731577.991,4,500,,
break_continue,html.Screen,10_18_2,2023-11-15T16:53:13.395Z,,,,,,,,,,NaN,,,,,,,,low,low,,,,,,false,,,,false,731567.1000000089,731566.8000000119,,731566.6000000089,,731577.991,4,500,,
sequence,flow.Sequence,10_18,2023-11-15T16:53:13.395Z,,,,,,,,,,2839.0130000119098,completion,,,,,,,low,low,,,,,,false,,,,false,731567.3000000119,731566.8000000119,728711.238,728725.400000006,728727.787,731577.991,4,500,,
trial,html.Screen,10_19_0,2023-11-15T16:53:15.464Z,,,,1,-0.068830656047477,0.0471494209282208,,true,lh,2058.4090000059223,response,-0.8644472795202904,0.8697022811475087,-0.6725438869750265,0.6717597063424736,0.7961065528812528,-1.006048622128078,low,high,,ISIC_0029982.JPG,9,ISIC_0057892.JPG,86,false,lh,keypress(e),0,false,733636.6000000089,733636.400000006,731561.237,731567.5,731577.991,733644.463,4,500,20,
break,html.Screen,10_19_1,2023-11-15T16:53:15.465Z,,,,,,,,,,NaN,,,,,,,,low,high,,,,,,false,,,,false,733637.200000003,733637.1000000089,,733636.8000000119,,733644.463,4,500,,
break_continue,html.Screen,10_19_2,2023-11-15T16:53:15.466Z,,,,,,,,,,NaN,,,,,,,,low,high,,,,,,false,,,,false,733637.700000003,733637.5,,733637.3000000119,,733644.463,4,500,,
sequence,flow.Sequence,10_19,2023-11-15T16:53:15.466Z,,,,,,,,,,2059.508999999962,completion,,,,,,,low,high,,,,,,false,,,,false,733637.8000000119,733637.5,731561.237,731567.5,731577.991,733644.463,4,500,,
trial,html.Screen,10_20_0,2023-11-15T16:53:18.120Z,,,,1,-0.0257631352671967,-0.0202837002774028,,false,ll,2647.637000008952,response,-0.6982740827464552,0.8697022811475087,-0.6725438869750265,-0.8216739022531053,0.7961065528812528,-1.006048622128078,low,low,,ISIC_0032797.JPG,9,ISIC_0002745.JPG,207,false,hh,keypress(i),0,false,736292.200000003,736292.1000000089,733627.861,733638,733644.463,736294.47,4,500,21,
break,html.Screen,10_20_1,2023-11-15T16:53:18.120Z,,,,,,,,,,NaN,,,,,,,,low,low,,,,,,false,,,,false,736292.6000000089,736292.400000006,,736292.3000000119,,736294.47,4,500,,
break_continue,html.Screen,10_20_2,2023-11-15T16:53:18.121Z,,,,,,,,,,NaN,,,,,,,,low,low,,,,,,false,,,,false,736292.700000003,736292.6000000089,,736292.6000000089,,736294.47,4,500,,
sequence,flow.Sequence,10_20,2023-11-15T16:53:18.121Z,,,,,,,,,,2648.137000008952,completion,,,,,,,low,low,,,,,,false,,,,false,736292.8000000119,736292.6000000089,733627.861,733637.900000006,733644.463,736294.47,4,500,,
trial,html.Screen,10_21_0,2023-11-15T16:53:22.472Z,,,,1,-0.0249297455748133,0.055986418955019,,true,ll,4349.930000005988,response,-0.4924957246551781,0.8697022811475087,-0.6725438869750265,-1.095327760464912,0.7961065528812528,-1.006048622128078,low,low,,ISIC_3900049.JPG,9,ISIC_1460249.JPG,207,false,ll,keypress(f),0,false,740644.5,740644.400000006,736277.937,736292.8000000119,736294.47,740661.339,4,500,22,
break,html.Screen,10_21_1,2023-11-15T16:53:22.473Z,,,,,,,,,,NaN,,,,,,,,low,low,,,,,,false,,,,false,740644.900000006,740644.8000000119,,740644.700000003,,740661.339,4,500,,
break_continue,html.Screen,10_21_2,2023-11-15T16:53:22.473Z,,,,,,,,,,NaN,,,,,,,,low,low,,,,,,false,,,,false,740645.3000000119,740645.1000000089,,740645.1000000089,,740661.339,4,500,,
sequence,flow.Sequence,10_21,2023-11-15T16:53:22.473Z,,,,,,,,,,4350.630000008969,completion,,,,,,,low,low,,,,,,false,,,,false,740645.400000006,740645.1000000089,736277.937,736292.8000000119,736294.47,740661.339,4,500,,
trial,html.Screen,10_22_0,2023-11-15T16:53:25.793Z,,,,1,-0.0394300226801425,0.0536115913979284,,false,hl,3303.061000005924,response,0.8307508446051526,0.8697022811475087,-0.6725438869750265,-1.1707575338936729,0.7961065528812528,-1.006048622128078,high,low,,ISIC_0046983.JPG,9,ISIC_0028606.JPG,30,false,lh,keypress(e),0,false,743964.6000000089,743964.400000006,740644.351,740645.400000006,740661.339,743978.007,4,500,23,
break,html.Screen,10_22_1,2023-11-15T16:53:25.794Z,,,,,,,,,,NaN,,,,,,,,high,low,,,,,,false,,,,false,743965.1000000089,743965,,743964.700000003,,743978.007,4,500,,
break_continue,html.Screen,10_22_2,2023-11-15T16:53:25.794Z,,,,,,,,,,NaN,,,,,,,,high,low,,,,,,false,,,,false,743965.6000000089,743965.400000006,,743965.3000000119,,743978.007,4,500,,
sequence,flow.Sequence,10_22,2023-11-15T16:53:25.795Z,,,,,,,,,,3304.061000005924,completion,,,,,,,high,low,,,,,,false,,,,false,743965.700000003,743965.400000006,740644.351,740645.400000006,740661.339,743978.007,4,500,,
trial,html.Screen,10_23_0,2023-11-15T16:53:27.473Z,,,,1,-0.0286056110007553,-0.036125199756515,,false,hh,1666.4930000000168,response,0.6874800849007777,0.8697022811475087,-0.6725438869750265,0.6807384444623025,0.7961065528812528,-1.006048622128078,high,high,,ISIC_6535558.JPG,9,ISIC_0064625.JPG,214,false,lh,keypress(e),0,false,745644.6000000089,745644.5,743961.203,743965.8000000119,743978.007,745661.381,4,500,24,
break,html.Screen,10_23_1,2023-11-15T16:53:27.474Z,,,,,,,,,,NaN,,,,,,,,high,high,,,,,,false,,,,false,745645.200000003,745645,,745644.8000000119,,745661.381,4,500,,
break_continue,html.Screen,10_23_2,2023-11-15T16:53:27.474Z,,,,,,,,,,NaN,,,,,,,,high,high,,,,,,false,,,,false,745645.6000000089,745645.400000006,,745645.3000000119,,745661.381,4,500,,
sequence,flow.Sequence,10_23,2023-11-15T16:53:27.475Z,,,,,,,,,,1667.3930000059772,completion,,,,,,,high,high,,,,,,false,,,,false,745645.700000003,745645.400000006,743961.203,743965.8000000119,743978.007,745661.381,4,500,,
trial,html.Screen,10_24_0,2023-11-15T16:53:36.178Z,,,,1,0.0607839218394147,0.0567408401627122,,false,hl,8687.419000011869,response,0.6761608723588025,0.8697022811475087,-0.6725438869750265,-1.0058174828582729,0.7961065528812528,-1.006048622128078,high,low,,ISIC_0026901.JPG,9,ISIC_1343302.JPG,30,false,ll,keypress(f),0,false,754349,754348.8000000119,745644.533,745645.8000000119,745661.381,754361.173,4,500,25,
break,html.Screen,10_24_1,2023-11-15T16:53:36.178Z,,,,,,,,,,NaN,,,,,,,,high,low,,,,,,false,,,,false,754349.6000000089,754349.5,,754349.200000003,,754361.173,4,500,,
break_continue,html.Screen,10_24_2,2023-11-15T16:53:36.179Z,,,,,,,,,,NaN,,,,,,,,high,low,,,,,,false,,,,false,754350.1000000089,754349.900000006,,754349.700000003,,754361.173,4,500,,
sequence,flow.Sequence,10_24,2023-11-15T16:53:36.179Z,,,,,,,,,,8688.519000005908,completion,,,,,,,high,low,,,,,,false,,,,false,754350.3000000119,754349.900000006,745644.533,745645.8000000119,745661.381,754361.173,4,500,,
trial,html.Screen,10_25_0,2023-11-15T16:53:47.174Z,,,,1,0.0527477970410472,0.0575970798158164,,,,11016.76000000001,timeout,0.8544507134472948,0.8697022811475087,-0.6725438869750265,-0.9244388608707323,0.7961065528812528,-1.006048622128078,high,low,,ISIC_0667763.JPG,8,ISIC_3565564.JPG,30,false,,,0,false,765345,765344.8000000119,754344.455,754350.3000000119,754361.173,765377.933,4,500,26,
break,html.Screen,10_25_1,2023-11-15T16:53:47.174Z,,,,,,,,,,NaN,,,,,,,,high,low,,,,,,false,,,,false,765345.400000006,765345.3000000119,,765345.1000000089,,765377.933,4,500,,
break_continue,html.Screen,10_25_2,2023-11-15T16:53:47.174Z,,,,,,,,,,NaN,,,,,,,,high,low,,,,,,false,,,,false,765345.6000000089,765345.5,,765345.400000006,,765377.933,4,500,,
sequence,flow.Sequence,10_25,2023-11-15T16:53:47.174Z,,,,,,,,,,10984.327000000048,completion,,,,,,,high,low,,,,,,false,,,,false,765345.700000003,765345.5,754344.455,754350.3000000119,754361.173,765377.933,4,500,,
trial,html.Screen,10_26_0,2023-11-15T16:53:49.857Z,,,,1,0.0107170641394226,-0.0596294643429623,,true,hh,2650.2670000030193,response,0.8607451825540537,0.8697022811475087,-0.6725438869750265,0.6112049873602644,0.7961065528812528,-1.006048622128078,high,high,,ISIC_0005291.JPG,9,ISIC_0899961.JPG,214,false,hh,keypress(i),0,false,768028.3000000119,768028.200000003,765361.189,765345.8000000119,765377.933,768044.665,4,500,27,
break,html.Screen,10_26_1,2023-11-15T16:53:49.858Z,,,,,,,,,,NaN,,,,,,,,high,high,,,,,,false,,,,false,768028.8000000119,768028.700000003,,768028.5,,768044.665,4,500,,
break_continue,html.Screen,10_26_2,2023-11-15T16:53:49.858Z,,,,,,,,,,NaN,,,,,,,,high,high,,,,,,false,,,,false,768029,768029,,768028.8000000119,,768044.665,4,500,,
sequence,flow.Sequence,10_26,2023-11-15T16:53:49.858Z,,,,,,,,,,2651.067000000039,completion,,,,,,,high,high,,,,,,false,,,,false,768029.1000000089,768029,765361.189,765345.700000003,765377.933,768044.665,4,500,,
trial,html.Screen,10_27_0,2023-11-15T16:53:53.313Z,,,,1,-0.0462522625051681,-0.0088419594888635,,false,ll,3439.8349999999627,response,-0.7221097620132031,0.8697022811475087,-0.6725438869750265,-0.8272347232135335,0.7961065528812528,-1.006048622128078,low,low,,ISIC_1945381.JPG,9,ISIC_9598638.JPG,207,false,hl,keypress(j),0,false,771484.700000003,771484.5,768027.81,768029.200000003,768044.665,771494.518,4,500,28,
break,html.Screen,10_27_1,2023-11-15T16:53:53.314Z,,,,,,,,,,NaN,,,,,,,,low,low,,,,,,false,,,,false,771485,771485,,771484.8000000119,,771494.518,4,500,,
break_continue,html.Screen,10_27_2,2023-11-15T16:53:53.314Z,,,,,,,,,,NaN,,,,,,,,low,low,,,,,,false,,,,false,771485.3000000119,771485.200000003,,771485.1000000089,,771494.518,4,500,,
sequence,flow.Sequence,10_27,2023-11-15T16:53:53.314Z,,,,,,,,,,3440.535000002943,completion,,,,,,,low,low,,,,,,false,,,,false,771485.400000006,771485.200000003,768027.81,768029.1000000089,768044.665,771494.518,4,500,,
trial,html.Screen,10_28_0,2023-11-15T16:53:56.018Z,,,,1,-0.0634150092059303,0.0177502973253611,,false,hl,2694.782000011881,response,0.7714570894008278,0.8697022811475087,-0.6725438869750265,-0.9113656554657036,0.7961065528812528,-1.006048622128078,high,low,,ISIC_0032433.JPG,9,ISIC_4529092.JPG,30,false,hh,keypress(i),0,false,774189.6000000089,774189.3000000119,771477.856,771485.400000006,771494.518,774194.519,4,500,29,
break,html.Screen,10_28_1,2023-11-15T16:53:56.019Z,,,,,,,,,,NaN,,,,,,,,high,low,,,,,,false,,,,false,774190.5,774190.3000000119,,774189.900000006,,774194.519,4,500,,
break_continue,html.Screen,10_28_2,2023-11-15T16:53:56.020Z,,,,,,,,,,NaN,,,,,,,,high,low,,,,,,false,,,,false,774191.200000003,774190.900000006,,774190.700000003,,774194.519,4,500,,
sequence,flow.Sequence,10_28,2023-11-15T16:53:56.020Z,,,,,,,,,,2696.3820000059204,completion,,,,,,,high,low,,,,,,false,,,,false,774191.400000006,774190.900000006,771477.856,771485.400000006,771494.518,774194.519,4,500,,
trial,html.Screen,10_29_0,2023-11-15T16:53:59.594Z,,,,1,0.0542893032276609,-0.0176656364422514,,false,ll,3570.181000003009,response,-0.8102184119880042,0.8697022811475087,-0.6725438869750265,-0.8335849494917403,0.7961065528812528,-1.006048622128078,low,low,,ISIC_0024516.JPG,9,ISIC_6168754.JPG,207,false,hh,keypress(i),0,false,777764.900000006,777764.700000003,774177.94,774191.6000000089,774194.519,777777.856,4,500,30,
break,html.Screen,10_29_1,2023-11-15T16:53:59.594Z,,,,,,,,,,NaN,,,,,,,,low,low,,,,,,false,,,,false,777765.6000000089,777765.5,,777765.200000003,,777777.856,4,500,,
break_continue,html.Screen,10_29_2,2023-11-15T16:53:59.595Z,,,,,,,,,,NaN,,,,,,,,low,low,,,,,,false,,,,false,777766.200000003,777765.900000006,,777765.8000000119,,777777.856,4,500,,
sequence,flow.Sequence,10_29,2023-11-15T16:53:59.595Z,,,,,,,,,,3571.3810000059893,completion,,,,,,,low,low,,,,,,false,,,,false,777766.400000006,777765.900000006,774177.94,774191.6000000089,774194.519,777777.856,4,500,,
trial,html.Screen,10_30_0,2023-11-15T16:54:04.257Z,,,,1,-0.0633291412406864,0.0446580444004686,,true,lh,4650.344000002951,response,-0.5417278159785152,0.8697022811475087,-0.6725438869750265,0.7732459846454889,0.7961065528812528,-1.006048622128078,low,high,,ISIC_0010718.JPG,9,ISIC_0033500.JPG,86,false,lh,keypress(e),0,false,782428.3000000119,782428.200000003,777761.093,777766.6000000089,777777.856,782444.659,4,500,31,
break,html.Screen,10_30_1,2023-11-15T16:54:04.257Z,,,,,,,,,,NaN,,,,,,,,low,high,,,,,,false,,,,false,782428.700000003,782428.6000000089,,782428.400000006,,782444.659,4,500,,
break_continue,html.Screen,10_30_2,2023-11-15T16:54:04.258Z,,,,,,,,,,NaN,,,,,,,,low,high,,,,,,false,,,,false,782428.900000006,782428.8000000119,,782428.700000003,,782444.659,4,500,,
sequence,flow.Sequence,10_30,2023-11-15T16:54:04.258Z,,,,,,,,,,4650.944000011892,completion,,,,,,,low,high,,,,,,false,,,,false,782429,782428.8000000119,777761.093,777766.5,777777.856,782444.659,4,500,,
trial,html.Screen,10_31_0,2023-11-15T16:54:07.386Z,,,,1,0.0418938536494534,-0.0678614270583654,,false,hh,3112.141000011936,response,0.9486555750998196,0.8697022811475087,-0.6725438869750265,0.7476193313791517,0.7961065528812528,-1.006048622128078,high,high,,ISIC_0027573.JPG,9,ISIC_0029744.JPG,214,false,lh,keypress(e),0,false,785557,785556.8000000119,782428.059,782429.1000000089,782444.659,785561.217,4,500,32,
break,html.Screen,10_31_1,2023-11-15T16:54:07.386Z,,,,,,,,,,NaN,,,,,,,,high,high,,,,,,false,,,,false,785557.700000003,785557.5,,785557.200000003,,785561.217,4,500,,
break_continue,html.Screen,10_31_2,2023-11-15T16:54:07.387Z,,,,,,,,,,NaN,,,,,,,,high,high,,,,,,false,,,,false,785558.200000003,785557.900000006,,785557.8000000119,,785561.217,4,500,,
sequence,flow.Sequence,10_31,2023-11-15T16:54:07.387Z,,,,,,,,,,3113.2410000059754,completion,,,,,,,high,high,,,,,,false,,,,false,785558.3000000119,785557.900000006,782428.059,782429.1000000089,782444.659,785561.217,4,500,,
trial,html.Screen,10_32_0,2023-11-15T16:54:18.374Z,,,,1,0.0199950873045219,0.0172506388509166,,,,11016.673999999999,timeout,-0.5543649807043584,0.8697022811475087,-0.6725438869750265,0.6606206439667185,0.7961065528812528,-1.006048622128078,low,high,,ISIC_0029906.JPG,9,ISIC_0055240.JPG,86,false,,,0,false,796545.400000006,796545.200000003,785544.691,785558.400000006,785561.217,796577.891,4,500,33,
break,html.Screen,10_32_1,2023-11-15T16:54:18.375Z,,,,,,,,,,NaN,,,,,,,,low,high,,,,,,false,,,,false,796545.900000006,796545.700000003,,796545.5,,796577.891,4,500,,
break_continue,html.Screen,10_32_2,2023-11-15T16:54:18.375Z,,,,,,,,,,NaN,,,,,,,,low,high,,,,,,false,,,,false,796546.3000000119,796546.1000000089,,796546,,796577.891,4,500,,
sequence,flow.Sequence,10_32,2023-11-15T16:54:18.375Z,,,,,,,,,,10984.883000008995,completion,,,,,,,low,high,,,,,,false,,,,false,796546.400000006,796546.1000000089,785544.691,785558.400000006,785561.217,796577.891,4,500,,
trial,html.Screen,10_33_0,2023-11-15T16:54:21.073Z,,,,1,-0.0715931084231032,0.011427878877272,,false,hh,2666.5090000060154,response,0.8010128234618513,0.8697022811475087,-0.6725438869750265,0.9031251164933652,0.7961065528812528,-1.006048622128078,high,high,,ISIC_1470250.JPG,9,ISIC_0058768.JPG,214,false,lh,keypress(e),0,false,799244.5,799244.400000006,796561.448,796546.5,796577.891,799261.492,4,500,34,
break,html.Screen,10_33_1,2023-11-15T16:54:21.074Z,,,,,,,,,,NaN,,,,,,,,high,high,,,,,,false,,,,false,799244.900000006,799244.700000003,,799244.700000003,,799261.492,4,500,,
break_continue,html.Screen,10_33_2,2023-11-15T16:54:21.074Z,,,,,,,,,,NaN,,,,,,,,high,high,,,,,,false,,,,false,799245.1000000089,799245,,799244.900000006,,799261.492,4,500,,
sequence,flow.Sequence,10_33,2023-11-15T16:54:21.074Z,,,,,,,,,,2667.109000000055,completion,,,,,,,high,high,,,,,,false,,,,false,799245.200000003,799245,796561.448,796546.400000006,796577.891,799261.492,4,500,,
trial,html.Screen,10_34_0,2023-11-15T16:54:30.962Z,,,,1,0.0388334549081915,-0.0303399972963369,,true,lh,9870.908000005991,response,-0.7308116448711435,0.8697022811475087,-0.6725438869750265,0.908713834988551,0.7961065528812528,-1.006048622128078,low,high,,ISIC_4961708.JPG,10,ISIC_7811951.JPG,86,false,lh,keypress(e),0,false,809132.6000000089,809132.400000006,799244.706,799245.200000003,799261.492,809161.274,4,500,35,
break,html.Screen,10_34_1,2023-11-15T16:54:30.963Z,,,,,,,,,,NaN,,,,,,,,low,high,,,,,,false,,,,false,809133.200000003,809133,,809132.8000000119,,809161.274,4,500,,
break_continue,html.Screen,10_34_2,2023-11-15T16:54:30.963Z,,,,,,,,,,NaN,,,,,,,,low,high,,,,,,false,,,,false,809133.6000000089,809133.400000006,,809133.200000003,,809161.274,4,500,,
sequence,flow.Sequence,10_34,2023-11-15T16:54:30.963Z,,,,,,,,,,9871.908000005991,completion,,,,,,,low,high,,,,,,false,,,,false,809133.8000000119,809133.400000006,799244.706,799245.200000003,799261.492,809161.274,4,500,,
trial,html.Screen,10_35_0,2023-11-15T16:54:33.523Z,,,,1,-0.0258224118104549,0.0029364553353019,,true,hl,2531.526000011945,response,0.8544507134472948,0.8697022811475087,-0.6725438869750265,-0.9244388608707323,0.7961065528812528,-1.006048622128078,high,low,,ISIC_8325226.JPG,9,ISIC_3565564.JPG,30,false,hl,keypress(j),0,false,811693,811692.8000000119,809144.701,809133.900000006,809161.274,811694.588,4,500,36,
break,html.Screen,10_35_1,2023-11-15T16:54:33.523Z,,,,,,,,,,NaN,,,,,,,,high,low,,,,,,false,,,,false,811693.5,811693.400000006,,811693.1000000089,,811694.588,4,500,,
break_continue,html.Screen,10_35_2,2023-11-15T16:54:33.524Z,,,,,,,,,,NaN,,,,,,,,high,low,,,,,,false,,,,false,811694,811693.8000000119,,811693.700000003,,811694.588,4,500,,
sequence,flow.Sequence,10_35,2023-11-15T16:54:33.524Z,,,,,,,,,,2532.526000011945,completion,,,,,,,high,low,,,,,,false,,,,false,811694.1000000089,811693.8000000119,809144.701,809133.8000000119,809161.274,811694.588,4,500,,
trial,html.Screen,10_36_0,2023-11-15T16:54:39.098Z,,,,1,0.0473541545202326,-0.0294076954053606,,true,hh,5573.412000000011,response,0.7262185370068359,0.8697022811475087,-0.6725438869750265,0.9153969930664472,0.7961065528812528,-1.006048622128078,high,high,,ISIC_0034065.JPG,8,ISIC_0063369.JPG,214,false,hh,keypress(i),0,false,817268.1000000089,817268,811677.84,811694.200000003,811694.588,817278.037,4,500,37,
break,html.Screen,10_36_1,2023-11-15T16:54:39.098Z,,,,,,,,,,NaN,,,,,,,,high,high,,,,,,false,,,,false,817268.5,817268.400000006,,817268.200000003,,817278.037,4,500,,
break_continue,html.Screen,10_36_2,2023-11-15T16:54:39.098Z,,,,,,,,,,NaN,,,,,,,,high,high,,,,,,false,,,,false,817268.6000000089,817268.5,,817268.5,,817278.037,4,500,,
sequence,flow.Sequence,10_36,2023-11-15T16:54:39.098Z,,,,,,,,,,5573.912000000011,completion,,,,,,,high,high,,,,,,false,,,,false,817268.6000000089,817268.5,811677.84,811694.200000003,811694.588,817278.037,4,500,,
trial,html.Screen,10_37_0,2023-11-15T16:54:42.314Z,,,,1,0.0326050223870869,0.0579165897319751,,false,lh,3206.2630000119098,response,-0.5689096808758702,0.8697022811475087,-0.6725438869750265,0.7853599960465988,0.7961065528812528,-1.006048622128078,low,high,,ISIC_4570724.JPG,9,ISIC_0014325.JPG,86,false,hh,keypress(i),0,false,820484.400000006,820484.3000000119,817261.058,817268.700000003,817278.037,820494.612,4,500,38,
break,html.Screen,10_37_1,2023-11-15T16:54:42.315Z,,,,,,,,,,NaN,,,,,,,,low,high,,,,,,false,,,,false,820484.900000006,820484.700000003,,820484.6000000089,,820494.612,4,500,,
break_continue,html.Screen,10_37_2,2023-11-15T16:54:42.315Z,,,,,,,,,,NaN,,,,,,,,low,high,,,,,,false,,,,false,820485.1000000089,820485,,820485,,820494.612,4,500,,
sequence,flow.Sequence,10_37,2023-11-15T16:54:42.315Z,,,,,,,,,,3206.962999999989,completion,,,,,,,low,high,,,,,,false,,,,false,820485.200000003,820485,817261.058,817268.700000003,817278.037,820494.612,4,500,,
