sender,sender_type,sender_id,timestamp,meta,,age,blockNo,c1,c2,condition,correct,correctResponse,duration,ended_on,f1,f1_high,f1_low,f2,f2_high,f2_low,feature_level1,feature_level2,gender,img_left,img_reveal,img_right,n_target_images,practice,response,response_action,selection_duration,staircase,time_commit,time_end,time_render,time_run,time_show,time_switch,total_blocks,total_trials,trialNo,url
informed_consent,html.Screen,0,2023-11-15T15:33:02.538Z,"{""labjs_version"":""20.2.4"",""labjs_build"":{""flavor"":""development"",""commit"":""f5b4a49f956347addd546a832a3327688c2c0fef""},""location"":""https://labjs.felixhenninger.com/api/labjs_preview/index.html"",""userAgent"":""Mozilla/5.0 (Windows NT 10.0; Win64; x64) AppleWebKit/537.36 (KHTML, like Gecko) Chrome/119.0.0.0 Safari/537.36"",""platform"":""Win32"",""language"":""en-US"",""locale"":""en-US"",""timeZone"":""America/Chicago"",""timezoneOffset"":360,""screen_width"":1680,""screen_height"":1050,""scroll_width"":825,""scroll_height"":888,""window_innerWidth"":825,""window_innerHeight"":936,""devicePixelRatio"":1}",,,,,,,,,18394.92300001192,response,,,,,,,,,,,,,,,consent,click button,,,19043.099999964237,19034.30000001192,622.556,623.0999999642372,639.377,19041.721,,,,{}
Demography form,html.Form,1,2023-11-15T15:33:11.018Z,,,18,,,,,,,8481.57900001192,form submission,,,,,,,,,male,,,,,,,,,,27523.5,27523.30000001192,19025.272,19043.19999998808,19041.721,27541.59,,,,
Welcome,html.Screen,2,2023-11-15T15:33:13.898Z,,,,,,,"[""asym"",""col""]",,,2860.809999976158,response,,,,,,,,,,,,,,,continue,click button,,,30402.899999976158,30402.399999976158,27524.905,27523.599999964237,27541.59,30430.707,,,,
demo_instructions,html.Screen,3,2023-11-15T15:33:58.402Z,,,,,,,,,,44475.793000000005,response,,,,,,,,,,,,,,,continue,click button,,,74906.89999997616,74906.5,30414.083,30403,30430.707,74933.777,,,,
trial,html.Screen,4_0_0,2023-11-15T15:34:15.919Z,,,,0,0.8561946552009824,-0.9282171889213044,,true,lh,17488.622999976156,response,-1.1224745971429997,0.9999999999999998,-0.9999999999999998,0.8423270217438888,0.9999999999999998,-0.9999999999999998,low,high,,ISIC_3065032.JPG,,ISIC_0057032.JPG,24,true,lh,keypress(e),100,false,92423.39999997616,92422.39999997616,74917.035,74907,74933.777,92451.422,1,16,1,
sequence,flow.Sequence,4_0,2023-11-15T15:34:15.920Z,,,,,,,,,,17488.622999976156,completion,,,,,,,low,high,,,,,,true,,,,false,92424.19999998808,92422.39999997616,74917.035,74907,74933.777,92451.422,1,16,,
trial,html.Screen,4_1_0,2023-11-15T15:34:34.765Z,,,,0,0.9225524349657857,-0.929746784178986,,true,lh,18817.977999976152,response,-1.1235224875125256,0.9999999999999998,-0.9999999999999998,0.8641223012137988,0.9999999999999998,-0.9999999999999998,low,high,,ISIC_0011077.JPG,,ISIC_0033901.JPG,24,true,lh,keypress(e),100,false,111269.80000001192,111269.39999997616,92434.531,92424.5,92451.422,111287.873,1,16,2,
sequence,flow.Sequence,4_1,2023-11-15T15:34:34.766Z,,,,,,,,,,18817.977999976152,completion,,,,,,,low,high,,,,,,true,,,,false,111270.59999996424,111269.39999997616,92434.531,92424.39999997616,92451.422,111287.873,1,16,,
trial,html.Screen,4_2_0,2023-11-15T15:34:42.829Z,,,,0,0.9873794329144926,-0.9500689037516484,,true,lh,8044.126999999993,response,-0.8129823105338526,0.9999999999999998,-0.9999999999999998,0.9655386457143784,0.9999999999999998,-0.9999999999999998,low,high,,ISIC_0013498.JPG,,ISIC_8268025.JPG,24,true,lh,keypress(e),100,false,119332.39999997616,119332,111271.183,111270.89999997616,111287.873,119353.671,1,16,3,
sequence,flow.Sequence,4_2,2023-11-15T15:34:42.829Z,,,,,,,,,,8044.126999999993,completion,,,,,,,low,high,,,,,,true,,,,false,119333.09999996424,119332,111271.183,111270.80000001192,111287.873,119353.671,1,16,,
trial,html.Screen,4_3_0,2023-11-15T15:34:49.595Z,,,,0,0.9225524349657857,-0.929746784178986,,true,lh,6744.428999964235,response,-0.8923602890201078,0.9999999999999998,-0.9999999999999998,0.8351700666074688,0.9999999999999998,-0.9999999999999998,low,high,,ISIC_0011077.JPG,,ISIC_0033103.JPG,24,true,lh,keypress(e),100,false,126098.5,126098.09999996424,119336.865,119333.30000001192,119353.671,126116.857,1,16,4,
sequence,flow.Sequence,4_3,2023-11-15T15:34:49.596Z,,,,,,,,,,6744.428999964235,completion,,,,,,,low,high,,,,,,true,,,,false,126099.19999998808,126098.09999996424,119336.865,119333.30000001192,119353.671,126116.857,1,16,,
trial,html.Screen,4_4_0,2023-11-15T15:34:55.624Z,,,,0,0.918811733700349,0.8487727309970138,,false,ll,6010.242999964234,response,-0.926039388599084,0.9999999999999998,-0.9999999999999998,-0.8602997106237449,0.9999999999999998,-0.9999999999999998,low,low,,ISIC_0028152.JPG,,ISIC_5563553.JPG,111,true,lh,keypress(e),100,false,132127.19999998808,132127.09999996424,126100.015,126099.59999996424,126116.857,132145.017,1,16,5,
sequence,flow.Sequence,4_4,2023-11-15T15:34:55.624Z,,,,,,,,,,6010.242999964234,completion,,,,,,,low,low,,,,,,true,,,,false,132127.39999997616,132127.09999996424,126100.015,126099.5,126116.857,132145.017,1,16,,
trial,html.Screen,4_5_0,2023-11-15T15:35:03.789Z,,,,0,0.838609817323933,0.8422150101593281,,true,ll,8147.6829999880865,response,-1.084404366274825,0.9999999999999998,-0.9999999999999998,-0.8428187899450872,0.9999999999999998,-0.9999999999999998,low,low,,ISIC_0009913.JPG,,ISIC_3530422.JPG,111,true,ll,keypress(f),100,false,140293,140292.69999998808,132128.304,132127.5,132145.017,140310.913,1,16,6,
sequence,flow.Sequence,4_5,2023-11-15T15:35:03.790Z,,,,,,,,,,8147.6829999880865,completion,,,,,,,low,low,,,,,,true,,,,false,140293.69999998808,140292.69999998808,132128.304,132127.39999997616,132145.017,140310.913,1,16,,
trial,html.Screen,4_6_0,2023-11-15T15:35:09.228Z,,,,0,1.0762260610050776,1.1184338818466155,,true,ll,5420.686999964237,response,-0.8479744227240601,0.9999999999999998,-0.9999999999999998,-1.0203856528186417,0.9999999999999998,-0.9999999999999998,low,low,,ISIC_0058666.JPG,,ISIC_3392451.JPG,111,true,ll,keypress(f),100,false,145732.09999996424,145731.59999996424,140294.283,140294,140310.913,145755.019,1,16,7,
sequence,flow.Sequence,4_6,2023-11-15T15:35:09.229Z,,,,,,,,,,5420.686999964237,completion,,,,,,,low,low,,,,,,true,,,,false,145732.69999998808,145731.59999996424,140294.283,140293.89999997616,140310.913,145755.019,1,16,,
trial,html.Screen,4_7_0,2023-11-15T15:35:13.002Z,,,,0,1.086780249085418,0.8982771817382743,,true,ll,3750.2810000119207,response,-0.8588484491384728,0.9999999999999998,-0.9999999999999998,-0.8025117666663619,0.9999999999999998,-0.9999999999999998,low,low,,ISIC_0057821.JPG,,ISIC_6008974.JPG,111,true,ll,keypress(f),100,false,149505.69999998808,149505.30000001192,145738.17,145733,145755.019,149529.067,1,16,8,
sequence,flow.Sequence,4_7,2023-11-15T15:35:13.003Z,,,,,,,,,,3750.2810000119207,completion,,,,,,,low,low,,,,,,true,,,,false,149506.39999997616,149505.30000001192,145738.17,145733,145755.019,149529.067,1,16,,
trial,html.Screen,4_8_0,2023-11-15T15:35:26.808Z,,,,0,-0.8479396253253069,1.011054319516718,,true,hl,13782.43299999999,response,0.8620516892494489,0.9999999999999998,-0.9999999999999998,-1.1108509340502866,0.9999999999999998,-0.9999999999999998,high,low,,ISIC_0063521.JPG,,ISIC_5557806.JPG,24,true,hl,keypress(j),100,false,163312,163311.5,149512.18,149506.69999998808,149529.067,163339.267,1,16,9,
sequence,flow.Sequence,4_8,2023-11-15T15:35:26.809Z,,,,,,,,,,13782.43299999999,completion,,,,,,,high,low,,,,,,true,,,,false,163312.59999996424,163311.5,149512.18,149506.69999998808,149529.067,163339.267,1,16,,
trial,html.Screen,4_9_0,2023-11-15T15:35:34.246Z,,,,0,-1.0003671514840182,0.8992716557663581,,true,hl,7410.4329999880865,response,0.8561946552009824,0.9999999999999998,-0.9999999999999998,-0.9282171889213044,0.9999999999999998,-0.9999999999999998,high,low,,ISIC_0061749.JPG,,ISIC_3065032.JPG,24,true,hl,keypress(j),100,false,170750,170749.69999998808,163322.436,163312.89999997616,163339.267,170770.338,1,16,10,
sequence,flow.Sequence,4_9,2023-11-15T15:35:34.247Z,,,,,,,,,,7410.4329999880865,completion,,,,,,,high,low,,,,,,true,,,,false,170750.69999998808,170749.69999998808,163322.436,163312.89999997616,163339.267,170770.338,1,16,,
trial,html.Screen,4_10_0,2023-11-15T15:35:36.275Z,,,,0,-1.1235224875125256,0.8641223012137988,,true,hl,2007.962000011932,response,0.9046170303418553,0.9999999999999998,-0.9999999999999998,-1.0063426986460375,0.9999999999999998,-0.9999999999999998,high,low,,ISIC_0033901.JPG,,ISIC_0055759.JPG,24,true,hl,keypress(j),100,false,172778.69999998808,172778.30000001192,170753.525,170751,170770.338,172807.524,1,16,11,
sequence,flow.Sequence,4_10,2023-11-15T15:35:36.276Z,,,,,,,,,,2007.962000011932,completion,,,,,,,high,low,,,,,,true,,,,false,172779.30000001192,172778.30000001192,170753.525,170751,170770.338,172807.524,1,16,,
trial,html.Screen,4_11_0,2023-11-15T15:35:42.190Z,,,,0,-1.1501717278509027,0.8228936373136835,,true,hl,5884.875999976153,response,0.9212323139676136,0.9999999999999998,-0.9999999999999998,-0.9882196642247332,0.9999999999999998,-0.9999999999999998,high,low,,ISIC_8398000.JPG,,ISIC_0014255.JPG,24,true,hl,keypress(j),100,false,178692.80000001192,178692.39999997616,172790.912,172779.59999996424,172807.524,178719.219,1,16,12,
sequence,flow.Sequence,4_11,2023-11-15T15:35:42.190Z,,,,,,,,,,5884.875999976153,completion,,,,,,,high,low,,,,,,true,,,,false,178693.59999996424,178692.39999997616,172790.912,172779.59999996424,172807.524,178719.219,1,16,,
trial,html.Screen,4_12_0,2023-11-15T15:35:53.759Z,,,,0,-1.1816316134800355,-0.9439295748587228,,true,hh,11542.081000011909,response,0.838609817323933,0.9999999999999998,-0.9999999999999998,0.8422150101593281,0.9999999999999998,-0.9999999999999998,high,high,,ISIC_8002729.JPG,,ISIC_0009913.JPG,154,true,hh,keypress(i),100,false,190261.69999998808,190261.30000001192,178702.325,178693.80000001192,178719.219,190291.686,1,16,13,
sequence,flow.Sequence,4_12,2023-11-15T15:35:53.759Z,,,,,,,,,,11542.081000011909,completion,,,,,,,high,high,,,,,,true,,,,false,190262.5,190261.30000001192,178702.325,178693.80000001192,178719.219,190291.686,1,16,,
trial,html.Screen,4_13_0,2023-11-15T15:35:56.494Z,,,,0,-0.9191486333136276,-1.080719641270871,,true,hh,2704.814000000013,response,1.180412181282872,0.9999999999999998,-0.9999999999999998,0.8468801232054126,0.9999999999999998,-0.9999999999999998,high,high,,ISIC_0663941.JPG,,ISIC_0033369.JPG,154,true,hh,keypress(i),100,false,192997.19999998808,192996.5,190274.808,190262.80000001192,190291.686,193013.527,1,16,14,
sequence,flow.Sequence,4_13,2023-11-15T15:35:56.495Z,,,,,,,,,,2704.814000000013,completion,,,,,,,high,high,,,,,,true,,,,false,192998,192996.5,190274.808,190262.80000001192,190291.686,193013.527,1,16,,
trial,html.Screen,4_14_0,2023-11-15T15:35:57.929Z,,,,0,-0.8317161304163111,-1.1627560037277045,,true,hh,1417.8729999761563,response,1.0561331896671369,0.9999999999999998,-0.9999999999999998,1.026183861508091,0.9999999999999998,-0.9999999999999998,high,high,,ISIC_5909403.JPG,,ISIC_0026595.JPG,154,true,hh,keypress(i),100,false,194431.80000001192,194431.39999997616,192996.805,192998.19999998808,193013.527,194449.809,1,16,15,
sequence,flow.Sequence,4_14,2023-11-15T15:35:57.929Z,,,,,,,,,,1417.8729999761563,completion,,,,,,,high,high,,,,,,true,,,,false,194432.39999997616,194431.39999997616,192996.805,192998.19999998808,193013.527,194449.809,1,16,,
trial,html.Screen,4_15_0,2023-11-15T15:35:59.491Z,,,,0,-0.8856899178393457,-0.8022149865267544,,true,hh,1543.8909999880707,response,0.9506699737853276,0.9999999999999998,-0.9999999999999998,0.988934053363149,0.9999999999999998,-0.9999999999999998,high,high,,ISIC_1233104.JPG,,ISIC_0014217.JPG,154,true,hh,keypress(i),100,false,195994.09999996424,195993.69999998808,194432.92,194432.59999996424,194449.809,196019.225,1,16,16,
sequence,flow.Sequence,4_15,2023-11-15T15:35:59.492Z,,,,,,,,,,1543.8909999880707,completion,,,,,,,high,high,,,,,,true,,,,false,195994.80000001192,195993.69999998808,194432.92,194432.5,194449.809,196019.225,1,16,,
demonstration_loop,flow.Loop,4,2023-11-15T15:35:59.492Z,,,,,,,,,,121059.92299998808,completion,,,,,,,,,,,,,,true,,,,false,195995.19999998808,195993.69999998808,74917.035,74907,74933.777,196019.225,1,16,,
practice_instructions,html.Screen,5,2023-11-15T15:36:05.339Z,,,,,,,,,,5815.075000011915,response,,,,,,,,,,,,,,,continue,click button,,,201842.09999996424,201834.30000001192,196002.64,195995.5,196019.225,201847.221,,,,
trial,html.Screen,6_0_0,2023-11-15T15:36:14.507Z,,,,1,1.0700930503975157,-0.923753102263735,,true,lh,9163.178999976168,response,-0.9013888878932071,0.9999999999999998,-0.9999999999999998,0.9328095253308732,0.9999999999999998,-0.9999999999999998,low,high,,ISIC_0000022.JPG,,ISIC_0068259.JPG,24,true,lh,keypress(e),0,false,211010.5,211010.39999997616,201830.81,201842.19999998808,201847.221,211031.794,1,20,1,
sequence,flow.Sequence,6_0,2023-11-15T15:36:14.508Z,,,,,,,,,,9163.178999976168,completion,,,,,,,low,high,,,,,,true,,,,false,211010.59999996424,211010.39999997616,201830.81,201842.19999998808,201847.221,211031.794,1,20,,
trial,html.Screen,6_1_0,2023-11-15T15:36:17.772Z,,,,1,1.1592423187534993,-1.067128884093211,,true,lh,3243.1059999761637,response,-0.9013888878932071,0.9999999999999998,-0.9999999999999998,0.9328095253308732,0.9999999999999998,-0.9999999999999998,low,high,,ISIC_6854940.JPG,,ISIC_0068259.JPG,24,true,lh,keypress(e),0,false,214275,214274.89999997616,211015.059,211010.69999998808,211031.794,214288.346,1,20,2,
sequence,flow.Sequence,6_1,2023-11-15T15:36:17.772Z,,,,,,,,,,3243.1059999761637,completion,,,,,,,low,high,,,,,,true,,,,false,214275.19999998808,214274.89999997616,211015.059,211010.69999998808,211031.794,214288.346,1,20,,
trial,html.Screen,6_2_0,2023-11-15T15:36:24.677Z,,,,1,-0.8069690440362255,0.8262727717500657,,true,hl,6891.65400000001,response,1.0822170028935367,0.9999999999999998,-0.9999999999999998,-1.1654796154432183,0.9999999999999998,-0.9999999999999998,high,low,,ISIC_0028469.JPG,,ISIC_7288818.JPG,24,true,hl,keypress(j),0,false,221180.30000001192,221180,214271.648,214275.39999997616,214288.346,221184.894,1,20,3,
sequence,flow.Sequence,6_2,2023-11-15T15:36:24.678Z,,,,,,,,,,6891.65400000001,completion,,,,,,,high,low,,,,,,true,,,,false,221180.80000001192,221180,214271.648,214275.30000001192,214288.346,221184.894,1,20,,
trial,html.Screen,6_3_0,2023-11-15T15:36:32.350Z,,,,1,0.8015753713975186,-1.0067065355978264,,true,lh,7667.406000011921,response,-0.8150886811691144,0.9999999999999998,-0.9999999999999998,0.862416038462147,0.9999999999999998,-0.9999999999999998,low,high,,ISIC_0002119.JPG,,ISIC_0058079.JPG,24,true,lh,keypress(e),0,false,228852.59999996424,228852.30000001192,221168.114,221181.09999996424,221184.894,228866.701,1,20,4,
sequence,flow.Sequence,6_3,2023-11-15T15:36:32.350Z,,,,,,,,,,7667.406000011921,completion,,,,,,,low,high,,,,,,true,,,,false,228853.19999998808,228852.30000001192,221168.114,221181,221184.894,228866.701,1,20,,
trial,html.Screen,6_4_0,2023-11-15T15:36:36.949Z,,,,1,-1.1355178163103097,-0.866806488363904,,true,hh,4585.198999976157,response,1.008094916937765,0.9999999999999998,-0.9999999999999998,0.8318935997015064,0.9999999999999998,-0.9999999999999998,high,high,,ISIC_3520750.JPG,,ISIC_0032751.JPG,154,true,hh,keypress(i),0,false,233452.30000001192,233451.89999997616,228849.847,228853.39999997616,228866.701,233458.702,1,20,5,
sequence,flow.Sequence,6_4,2023-11-15T15:36:36.950Z,,,,,,,,,,4585.198999976157,completion,,,,,,,high,high,,,,,,true,,,,false,233452.80000001192,233451.89999997616,228849.847,228853.30000001192,228866.701,233458.702,1,20,,
trial,html.Screen,6_5_0,2023-11-15T15:36:47.118Z,,,,1,1.1592423187534993,-1.067128884093211,,true,lh,10161.79800000001,response,-0.8070820195894357,0.9999999999999998,-0.9999999999999998,0.8958120092147633,0.9999999999999998,-0.9999999999999998,low,high,,ISIC_6854940.JPG,,ISIC_0060585.JPG,24,true,lh,keypress(e),0,false,243620.80000001192,243620.5,233442.249,233453,233458.702,243628.493,1,20,6,
sequence,flow.Sequence,6_5,2023-11-15T15:36:47.119Z,,,,,,,,,,10161.79800000001,completion,,,,,,,low,high,,,,,,true,,,,false,243621.30000001192,243620.5,233442.249,233452.89999997616,233458.702,243628.493,1,20,,
trial,html.Screen,6_6_0,2023-11-15T15:36:56.062Z,,,,1,-0.8191491070125395,-0.9768428530424166,,true,hh,8935.507000000012,response,0.9900831889164324,0.9999999999999998,-0.9999999999999998,0.9119933515639294,0.9999999999999998,-0.9999999999999998,high,high,,ISIC_2565986.JPG,,ISIC_0058033.JPG,154,true,hh,keypress(i),0,false,252564.30000001192,252564,243611.855,243621.5,243628.493,252579.454,1,20,7,
sequence,flow.Sequence,6_6,2023-11-15T15:36:56.062Z,,,,,,,,,,8935.507000000012,completion,,,,,,,high,high,,,,,,true,,,,false,252564.69999998808,252564,243611.855,243621.5,243628.493,252579.454,1,20,,
trial,html.Screen,6_7_0,2023-11-15T15:37:00.044Z,,,,1,-0.8150886811691144,0.862416038462147,,false,hl,3966.9459999761602,response,1.082730232773217,0.9999999999999998,-0.9999999999999998,-0.8833175387485132,0.9999999999999998,-0.9999999999999998,high,low,,ISIC_0058079.JPG,,ISIC_0011933.JPG,24,true,hh,keypress(i),0,false,256546.59999996424,256546.39999997616,252562.573,252565.09999996424,252579.454,256553.647,1,20,8,
sequence,flow.Sequence,6_7,2023-11-15T15:37:00.044Z,,,,,,,,,,3966.9459999761602,completion,,,,,,,high,low,,,,,,true,,,,false,256546.59999996424,256546.39999997616,252562.573,252565,252579.454,256553.647,1,20,,
trial,html.Screen,6_8_0,2023-11-15T15:37:04.476Z,,,,1,-0.8207155237115402,-0.9831752618289616,,true,hh,4424.95299996424,response,0.9908688855899804,0.9999999999999998,-0.9999999999999998,1.1838250548520497,0.9999999999999998,-0.9999999999999998,high,high,,ISIC_0053929.JPG,,ISIC_0031208.JPG,154,true,hh,keypress(i),0,false,260978.69999998808,260978.59999996424,256537.038,256546.80000001192,256553.647,260995.625,1,20,9,
sequence,flow.Sequence,6_8,2023-11-15T15:37:04.476Z,,,,,,,,,,4424.95299996424,completion,,,,,,,high,high,,,,,,true,,,,false,260978.80000001192,260978.59999996424,256537.038,256546.69999998808,256553.647,260995.625,1,20,,
trial,html.Screen,6_9_0,2023-11-15T15:37:14.382Z,,,,1,0.9304005163834584,0.9903292668457988,,true,ll,9888.574999988079,response,-1.1581797104086708,0.9999999999999998,-0.9999999999999998,-0.8335188945351617,0.9999999999999998,-0.9999999999999998,low,low,,ISIC_3485482.JPG,,ISIC_4168757.JPG,111,true,ll,keypress(f),0,false,270884.6999999881,270884.1999999881,260978.877,260978.89999997616,260995.625,270898.206,1,20,10,
sequence,flow.Sequence,6_9,2023-11-15T15:37:14.382Z,,,,,,,,,,9888.574999988079,completion,,,,,,,low,low,,,,,,true,,,,false,270885.09999996424,270884.1999999881,260978.877,260978.89999997616,260995.625,270898.206,1,20,,
trial,html.Screen,6_10_0,2023-11-15T15:37:21.758Z,,,,1,0.9464457672695302,0.8245045690591577,,true,ll,7361.793999999994,response,-1.0901635293704552,0.9999999999999998,-0.9999999999999998,-1.0348352814358883,0.9999999999999998,-0.9999999999999998,low,low,,ISIC_0027021.JPG,,ISIC_7583134.JPG,111,true,ll,keypress(f),0,false,278260.3000000119,278260,270881.437,270885.39999997616,270898.206,278279.824,1,20,11,
sequence,flow.Sequence,6_10,2023-11-15T15:37:21.758Z,,,,,,,,,,7361.793999999994,completion,,,,,,,low,low,,,,,,true,,,,false,278260.6999999881,278260,270881.437,270885.3000000119,270898.206,278279.824,1,20,,
trial,html.Screen,6_11_0,2023-11-15T15:37:28.781Z,,,,1,-0.8070820195894357,0.8958120092147633,,true,hl,7003.275999964215,response,0.8181754542205604,0.9999999999999998,-0.9999999999999998,-0.8285141543298179,0.9999999999999998,-0.9999999999999998,high,low,,ISIC_0060585.JPG,,ISIC_3812485.JPG,24,true,hl,keypress(j),0,false,285283.1999999881,285283.09999996424,278245.999,278261,278279.824,285292.884,1,20,12,
sequence,flow.Sequence,6_11,2023-11-15T15:37:28.781Z,,,,,,,,,,7003.275999964215,completion,,,,,,,high,low,,,,,,true,,,,false,285283.5,285283.09999996424,278245.999,278260.89999997616,278279.824,285292.884,1,20,,
trial,html.Screen,6_12_0,2023-11-15T15:37:39.780Z,,,,1,-0.9039158082670506,1.0517562064343149,,,,11021.554999999993,timeout,0.8015753713975186,0.9999999999999998,-0.9999999999999998,-1.0067065355978264,0.9999999999999998,-0.9999999999999998,high,low,,ISIC_0015411.JPG,,ISIC_0002119.JPG,24,true,,,0,false,296282.1999999881,296281.8000000119,285276.282,285283.59999996424,285292.884,296314.439,1,20,13,
sequence,flow.Sequence,6_12,2023-11-15T15:37:39.781Z,,,,,,,,,,10988.9160000119,completion,,,,,,,high,low,,,,,,true,,,,false,296282.6999999881,296281.8000000119,285276.282,285283.5,285292.884,296314.439,1,20,,
trial,html.Screen,6_13_0,2023-11-15T15:37:44.981Z,,,,1,0.8561946552009824,-0.9282171889213044,,true,lh,5168.361000011908,response,-1.064425982109969,0.9999999999999998,-0.9999999999999998,0.958564243697126,0.9999999999999998,-0.9999999999999998,low,high,,ISIC_3065032.JPG,,ISIC_3203344.JPG,24,true,lh,keypress(e),0,false,301483,301482.8000000119,296297.827,296282.89999997616,296314.439,301491.046,1,20,14,
sequence,flow.Sequence,6_13,2023-11-15T15:37:44.981Z,,,,,,,,,,5168.361000011908,completion,,,,,,,low,high,,,,,,true,,,,false,301483.09999996424,301482.8000000119,296297.827,296282.8000000119,296314.439,301491.046,1,20,,
trial,html.Screen,6_14_0,2023-11-15T15:37:46.638Z,,,,1,-1.0003671514840182,0.8992716557663581,,true,hl,1648.8539999761852,response,1.155796217969438,0.9999999999999998,-0.9999999999999998,-1.1646564121743912,0.9999999999999998,-0.9999999999999998,high,low,,ISIC_0061749.JPG,,ISIC_2685523.JPG,24,true,hl,keypress(j),0,false,303140.3000000119,303139.89999997616,301474.527,301483.1999999881,301491.046,303144.24,1,20,15,
sequence,flow.Sequence,6_14,2023-11-15T15:37:46.639Z,,,,,,,,,,1648.8539999761852,completion,,,,,,,high,low,,,,,,true,,,,false,303140.6999999881,303139.89999997616,301474.527,301483.1999999881,301491.046,303144.24,1,20,,
trial,html.Screen,6_15_0,2023-11-15T15:37:50.197Z,,,,1,1.1671212908494544,1.1286681796701683,,true,ll,3554.5600000119302,response,-0.9991910338212396,0.9999999999999998,-0.9999999999999998,-1.0085499824556403,0.9999999999999998,-0.9999999999999998,low,low,,ISIC_0065022.JPG,,ISIC_7795549.JPG,111,true,ll,keypress(f),0,false,306699,306698.8000000119,303127.568,303141,303144.24,306701.156,1,20,16,
sequence,flow.Sequence,6_15,2023-11-15T15:37:50.197Z,,,,,,,,,,3554.5600000119302,completion,,,,,,,low,low,,,,,,true,,,,false,306699.1999999881,306698.8000000119,303127.568,303140.89999997616,303144.24,306701.156,1,20,,
trial,html.Screen,6_16_0,2023-11-15T15:37:52.734Z,,,,1,1.0931477426281198,0.8421248340065566,,true,ll,2534.8439999999828,response,-1.004164099430695,0.9999999999999998,-0.9999999999999998,-1.0674669038247562,0.9999999999999998,-0.9999999999999998,low,low,,ISIC_0026531.JPG,,ISIC_0541345.JPG,111,true,ll,keypress(f),0,false,309236.3000000119,309236,306684.648,306699.3000000119,306701.156,309239.475,1,20,17,
sequence,flow.Sequence,6_16,2023-11-15T15:37:52.735Z,,,,,,,,,,2534.8439999999828,completion,,,,,,,low,low,,,,,,true,,,,false,309236.89999997616,309236,306684.648,306699.3000000119,306701.156,309239.475,1,20,,
trial,html.Screen,6_17_0,2023-11-15T15:37:55.926Z,,,,1,1.084683602025889,1.0111744161375118,,true,ll,3188.5250000000233,response,-1.09666761087476,0.9999999999999998,-0.9999999999999998,-0.9917482735105084,0.9999999999999998,-0.9999999999999998,low,low,,ISIC_0069946.JPG,,ISIC_0071754.JPG,111,true,ll,keypress(f),0,false,312428.3000000119,312428,309222.965,309237.1999999881,309239.475,312445.721,1,20,18,
sequence,flow.Sequence,6_17,2023-11-15T15:37:55.927Z,,,,,,,,,,3188.5250000000233,completion,,,,,,,low,low,,,,,,true,,,,false,312428.8000000119,312428,309222.965,309237.09999996424,309239.475,312445.721,1,20,,
trial,html.Screen,6_18_0,2023-11-15T15:37:59.782Z,,,,1,-1.1916474034036555,-0.9241960109301964,,true,hh,3838.1789999761386,response,1.078286816527963,0.9999999999999998,-0.9999999999999998,1.1255116193013075,0.9999999999999998,-0.9999999999999998,high,high,,ISIC_0000297.JPG,,ISIC_0066213.JPG,154,true,hh,keypress(i),0,false,316284.3000000119,316283.89999997616,312429.188,312429.09999996424,312445.721,316304.568,1,20,19,
sequence,flow.Sequence,6_18,2023-11-15T15:37:59.783Z,,,,,,,,,,3838.1789999761386,completion,,,,,,,high,high,,,,,,true,,,,false,316284.8000000119,316283.89999997616,312429.188,312429,312445.721,316304.568,1,20,,
trial,html.Screen,6_19_0,2023-11-15T15:38:04.405Z,,,,1,-0.9462198986993904,-1.067111862128132,,true,hh,4602.031999964209,response,0.8299064093289698,0.9999999999999998,-0.9999999999999998,0.8788083232111502,0.9999999999999998,-0.9999999999999998,high,high,,ISIC_3564461.JPG,,ISIC_0000398.JPG,154,true,hh,keypress(i),0,false,320906.8000000119,320906.59999996424,316269.997,316285,316304.568,320912.134,1,20,20,
sequence,flow.Sequence,6_19,2023-11-15T15:38:04.405Z,,,,,,,,,,4602.031999964209,completion,,,,,,,high,high,,,,,,true,,,,false,320907,320906.59999996424,316269.997,316285,316304.568,320912.134,1,20,,
practice_loop,flow.Loop,6,2023-11-15T15:38:04.405Z,,,,,,,,,,119059.37899996425,completion,,,,,,,,,,,,,,true,,,,false,320907,320906.59999996424,201830.81,201842.19999998808,201847.221,320912.134,1,20,,
stair_instructions,html.Screen,7,2023-11-15T15:38:07.557Z,,,,,,,,,,3146.166000011901,response,,,,,,,,,,,,,,,continue,click button,,,324058.8000000119,324058.3000000119,320895.628,320907,320912.134,324085.139,,,,
trial,html.Screen,8_0_0,2023-11-15T15:38:16.405Z,,,,2,-0.0365381185115645,0.0498888424276865,,true,ll,8821.661000011896,response,-0.894033318100927,0.9999999999999998,-0.9999999999999998,-0.9842451068179496,0.9999999999999998,-0.9999999999999998,low,low,,ISIC_0682543.JPG,,ISIC_0015298.JPG,111,false,ll,keypress(f),0,true,332906.8000000119,332906.8000000119,324068.529,324058.89999997616,324085.139,332918.91,1,40,1,
sequence,flow.Sequence,8_0,2023-11-15T15:38:16.405Z,,,,,,,,,,8821.661000011896,completion,,,,,,,low,low,,,,,,false,,,,true,332907,332906.8000000119,324068.529,324058.8000000119,324085.139,332918.91,1,40,,
trial,html.Screen,8_1_0,2023-11-15T15:38:19.238Z,,,,2,-0.0127364719403411,-0.0549103570808099,,false,hh,2821.0900000000256,response,0.8800173162815772,0.9999999999999998,-0.9999999999999998,0.912069987718464,0.9999999999999998,-0.9999999999999998,high,high,,ISIC_0054705.JPG,,ISIC_0030852.JPG,154,false,ll,keypress(f),0,true,335740.3000000119,335740,332902.188,332907,332918.91,335757.932,1,40,2,
sequence,flow.Sequence,8_1,2023-11-15T15:38:19.239Z,,,,,,,,,,2821.0900000000256,completion,,,,,,,high,high,,,,,,false,,,,true,335740.8000000119,335740,332902.188,332907,332918.91,335757.932,1,40,,
trial,html.Screen,8_2_0,2023-11-15T15:38:24.598Z,,,,2,-0.0311884318403233,0.0697810882761999,,true,hh,5342.167999964266,response,1.1320017221158485,1.0499999999999998,-0.9999999999999998,1.065213496692536,1.0499999999999998,-0.9999999999999998,high,high,,ISIC_4870676.JPG,,ISIC_0030597.JPG,133,false,hh,keypress(i),0,true,341100.39999997616,341100.09999996424,335741.063,335741,335757.932,341118.359,1,40,3,
sequence,flow.Sequence,8_2,2023-11-15T15:38:24.599Z,,,,,,,,,,5342.167999964266,completion,,,,,,,high,high,,,,,,false,,,,true,341100.89999997616,341100.09999996424,335741.063,335740.89999997616,335757.932,341118.359,1,40,,
trial,html.Screen,8_3_0,2023-11-15T15:38:33.845Z,,,,2,-0.0127320821962457,0.0315308940184827,,true,lh,9228.141000000003,response,-0.8644465729542988,1.0499999999999998,-0.9999999999999998,0.8679598285079457,1.0499999999999998,-0.9999999999999998,low,high,,ISIC_8156101.JPG,,ISIC_6718969.JPG,21,false,lh,keypress(e),0,true,350346.59999996424,350346.5,341101.592,341101.1999999881,341118.359,350352.702,1,40,4,
sequence,flow.Sequence,8_3,2023-11-15T15:38:33.845Z,,,,,,,,,,9228.141000000003,completion,,,,,,,low,high,,,,,,false,,,,true,350346.8000000119,350346.5,341101.592,341101.09999996424,341118.359,350352.702,1,40,,
trial,html.Screen,8_4_0,2023-11-15T15:38:38.943Z,,,,2,-0.0565575423757561,0.0536115913979284,,false,lh,5091.598000011931,response,-1.064425982109969,1.0499999999999998,-0.9499999999999997,0.958564243697126,0.9165866626002408,-0.9999999999999998,low,high,,ISIC_0046983.JPG,,ISIC_3203344.JPG,35,false,ll,keypress(f),0,true,355444.6999999881,355444.3000000119,350336.186,350346.89999997616,350352.702,355462.907,1,40,5,
sequence,flow.Sequence,8_4,2023-11-15T15:38:38.943Z,,,,,,,,,,5091.598000011931,completion,,,,,,,low,high,,,,,,false,,,,true,355445.1999999881,355444.3000000119,350336.186,350346.89999997616,350352.702,355462.907,1,40,,
trial,html.Screen,8_5_0,2023-11-15T15:38:47.535Z,,,,2,0.012020985739544,-0.0126097407389903,,false,hl,8573.292999988073,response,1.0264463986917702,1.0499999999999998,-0.9499999999999997,-1.171271535505083,0.9665866626002408,-0.9999999999999998,high,low,,ISIC_0069379.JPG,,ISIC_7889838.JPG,22,false,hh,keypress(i),0,true,364036.5,364036.1999999881,355429.439,355445.39999997616,355462.907,364046.085,1,40,6,
sequence,flow.Sequence,8_5,2023-11-15T15:38:47.535Z,,,,,,,,,,8573.292999988073,completion,,,,,,,high,low,,,,,,false,,,,true,364037.09999996424,364036.1999999881,355429.439,355445.3000000119,355462.907,364046.085,1,40,,
trial,html.Screen,8_6_0,2023-11-15T15:38:50.863Z,,,,2,-0.0311884318403233,0.0697810882761999,,true,hh,3318.0149999642163,response,1.0088070132449485,0.9999999999999998,-0.9499999999999997,0.9026684221154396,0.9665866626002408,-1.0499999999999998,high,high,,ISIC_4870676.JPG,,ISIC_0059314.JPG,153,false,hh,keypress(i),0,true,367364.39999997616,367364.09999996424,364029.247,364037.39999997616,364046.085,367369.19,1,40,7,
sequence,flow.Sequence,8_6,2023-11-15T15:38:50.863Z,,,,,,,,,,3318.0149999642163,completion,,,,,,,high,high,,,,,,false,,,,true,367365,367364.09999996424,364029.247,364037.3000000119,364046.085,367369.19,1,40,,
trial,html.Screen,8_7_0,2023-11-15T15:39:01.857Z,,,,2,-0.0277178575053843,-0.0645068093068572,,,,11021.593999999983,timeout,0.8471355550006346,0.9999999999999998,-0.9499999999999997,0.9005344308932209,0.9665866626002408,-1.0499999999999998,high,high,,ISIC_0010807.JPG,,ISIC_0025744.JPG,153,false,,,0,true,378358.5,378358,367352.694,367365.1999999881,367369.19,378390.784,1,40,8,
sequence,flow.Sequence,8_7,2023-11-15T15:39:01.857Z,,,,,,,,,,10988.809999999998,completion,,,,,,,high,high,,,,,,false,,,,true,378358.89999997616,378358,367352.694,367365.09999996424,367369.19,378390.784,1,40,,
trial,html.Screen,8_8_0,2023-11-15T15:39:11.127Z,,,,2,0.0023664502831079,0.0252784582169994,,false,ll,9237.115999976173,response,-0.9490045439645592,0.9999999999999998,-0.9499999999999997,-1.21751560785155,0.9665866626002408,-1.0499999999999998,low,low,,ISIC_4156010.JPG,,ISIC_3779424.JPG,100,false,hh,keypress(i),0,true,387628.3000000119,387627.89999997616,378374.035,378359.1999999881,378390.784,387642.118,1,40,9,
sequence,flow.Sequence,8_8,2023-11-15T15:39:11.127Z,,,,,,,,,,9237.115999976173,completion,,,,,,,low,low,,,,,,false,,,,true,387628.8000000119,387627.89999997616,378374.035,378359.09999996424,378390.784,387642.118,1,40,,
trial,html.Screen,8_9_0,2023-11-15T15:39:18.303Z,,,,2,0.0310298232022856,0.0697438859399019,,true,ll,7162.281999976141,response,-0.8200367443437355,0.9999999999999998,-0.9999999999999998,-1.1363137800725187,0.9665866626002408,-1.0999999999999999,low,low,,ISIC_0027669.JPG,,ISIC_0553565.JPG,96,false,ll,keypress(f),0,true,394804.8000000119,394804.39999997616,387625.399,387629,387642.118,394822.64,1,40,10,
sequence,flow.Sequence,8_9,2023-11-15T15:39:18.304Z,,,,,,,,,,7162.281999976141,completion,,,,,,,low,low,,,,,,false,,,,true,394805.3000000119,394804.39999997616,387625.399,387629,387642.118,394822.64,1,40,,
trial,html.Screen,8_10_0,2023-11-15T15:39:21.767Z,,,,2,-0.0311884318403233,0.0697810882761999,,true,hh,3445.660000011907,response,1.0490239046679242,0.9999999999999998,-0.9999999999999998,0.8755566396204548,0.9665866626002408,-1.0999999999999999,high,high,,ISIC_4870676.JPG,,ISIC_0071430.JPG,153,false,hh,keypress(i),0,true,398268.5,398268.3000000119,394805.774,394805.59999996424,394822.64,398279.328,1,40,11,
sequence,flow.Sequence,8_10,2023-11-15T15:39:21.767Z,,,,,,,,,,3445.660000011907,completion,,,,,,,high,high,,,,,,false,,,,true,398269.09999996424,398268.3000000119,394805.774,394805.5,394822.64,398279.328,1,40,,
trial,html.Screen,8_11_0,2023-11-15T15:39:24.223Z,,,,2,0.0362472736315994,0.0492979048777824,,true,hh,2444.6720000000205,response,0.9263931440503964,0.9499999999999997,-0.9999999999999998,0.96519839238634,0.9165866626002408,-1.0999999999999999,high,high,,ISIC_5312584.JPG,,ISIC_0053617.JPG,171,false,hh,keypress(i),0,true,400724.3000000119,400724,398262.805,398269.3000000119,398279.328,400734.058,1,40,12,
sequence,flow.Sequence,8_11,2023-11-15T15:39:24.223Z,,,,,,,,,,2444.6720000000205,completion,,,,,,,high,high,,,,,,false,,,,true,400724.8000000119,400724,398262.805,398269.1999999881,398279.328,400734.058,1,40,,
trial,html.Screen,8_12_0,2023-11-15T15:39:28.015Z,,,,2,0.0399381815506136,0.0177751789152893,,false,hl,3781.941999999981,response,1.0961318727760048,0.9499999999999997,-0.9999999999999998,-1.2134960228256146,0.9165866626002408,-1.0999999999999999,high,low,,ISIC_3981425.JPG,,ISIC_9768421.JPG,27,false,hh,keypress(i),0,true,404516.3000000119,404516,400717.438,400725,400734.058,404524.77,1,40,13,
sequence,flow.Sequence,8_12,2023-11-15T15:39:28.015Z,,,,,,,,,,3781.941999999981,completion,,,,,,,high,low,,,,,,false,,,,true,404516.8000000119,404516,400717.438,400725,400734.058,404524.77,1,40,,
trial,html.Screen,8_13_0,2023-11-15T15:39:32.263Z,,,,2,0.0480684603309257,-0.0620119776873313,,false,lh,4239.530000011902,response,-1.064425982109969,0.9806651325811724,-0.9999999999999998,0.958564243697126,0.9165866626002408,-1.15,low,high,,ISIC_0645834.JPG,,ISIC_3203344.JPG,32,false,ll,keypress(f),0,true,408764.59999996424,408764.3000000119,404508.169,404517.09999996424,404524.77,408784.653,1,40,14,
sequence,flow.Sequence,8_13,2023-11-15T15:39:32.263Z,,,,,,,,,,4239.530000011902,completion,,,,,,,low,high,,,,,,false,,,,true,408765.09999996424,408764.3000000119,404508.169,404517,404524.77,408784.653,1,40,,
trial,html.Screen,8_14_0,2023-11-15T15:39:40.543Z,,,,2,-0.0372699196710335,0.0646614895271859,,false,hl,8259.347000000009,response,0.781391003063482,0.9806651325811724,-0.9499999999999997,-0.9644960393010829,0.9665866626002408,-1.15,high,low,,ISIC_1175170.JPG,,ISIC_2087913.JPG,22,false,ll,keypress(f),0,true,417044.3000000119,417044,408749.868,408765.39999997616,408784.653,417049.086,1,40,15,
sequence,flow.Sequence,8_14,2023-11-15T15:39:40.544Z,,,,,,,,,,8259.347000000009,completion,,,,,,,high,low,,,,,,false,,,,true,417044.8000000119,417044,408749.868,408765.3000000119,408784.653,417049.086,1,40,,
trial,html.Screen,8_15_0,2023-11-15T15:39:46.247Z,,,,2,-0.0001106800768269,0.0404747734408496,,true,lh,5699.113999988069,response,-1.0003671514840182,1.0306651325811724,-0.9499999999999997,0.8992716557663581,0.9665866626002408,-1.15,low,high,,ISIC_5706192.JPG,,ISIC_0061749.JPG,29,false,lh,keypress(e),0,true,422748.39999997616,422748.1999999881,417032.581,417045,417049.086,422760.177,1,40,16,
sequence,flow.Sequence,8_15,2023-11-15T15:39:46.248Z,,,,,,,,,,5699.113999988069,completion,,,,,,,low,high,,,,,,false,,,,true,422749,422748.1999999881,417032.581,417044.89999997616,417049.086,422760.177,1,40,,
trial,html.Screen,8_16_0,2023-11-15T15:39:53.087Z,,,,2,-0.0050319651598106,0.047524453347389,,true,ll,6827.822999999975,response,-0.8317161304163111,1.0306651325811724,-0.9499999999999997,-1.1627560037277045,0.9665866626002408,-1.15,low,low,,ISIC_0027081.JPG,,ISIC_5909403.JPG,88,false,ll,keypress(f),0,true,429588.3000000119,429588,422743.656,422749.1999999881,422760.177,429607.469,1,40,17,
sequence,flow.Sequence,8_16,2023-11-15T15:39:53.088Z,,,,,,,,,,6827.822999999975,completion,,,,,,,low,low,,,,,,false,,,,true,429589,429588,422743.656,422749.09999996424,422760.177,429607.469,1,40,,
trial,html.Screen,8_17_0,2023-11-15T15:39:56.903Z,,,,2,0.0402606077562393,-0.0233871780024155,,true,hh,3796.6309999642544,response,0.8650250639951559,1.0306651325811724,-0.8999999999999997,0.7706339518336388,0.9665866626002408,-1.0999999999999999,high,high,,ISIC_0024401.JPG,,ISIC_0061141.JPG,145,false,hh,keypress(i),0,true,433404.39999997616,433404.09999996424,429573.607,429589.3000000119,429607.469,433414.315,1,40,18,
sequence,flow.Sequence,8_17,2023-11-15T15:39:56.904Z,,,,,,,,,,3796.6309999642544,completion,,,,,,,high,high,,,,,,false,,,,true,433404.89999997616,433404.09999996424,429573.607,429589.09999996424,429607.469,433414.315,1,40,,
trial,html.Screen,8_18_0,2023-11-15T15:40:00.029Z,,,,2,0.021811393859175,-0.0534678805668419,,false,lh,3115.9850000119186,response,-0.7246543470035401,1.0306651325811724,-0.8999999999999997,0.8256787796495674,0.7678295079143973,-1.0999999999999999,low,high,,ISIC_0058054.JPG,,ISIC_0026518.JPG,60,false,hh,keypress(i),0,true,436530.5,436530.3000000119,433397.756,433405.09999996424,433414.315,436537.016,1,40,19,
sequence,flow.Sequence,8_18,2023-11-15T15:40:00.029Z,,,,,,,,,,3115.9850000119186,completion,,,,,,,low,high,,,,,,false,,,,true,436530.5,436530.3000000119,433397.756,433405,433414.315,436537.016,1,40,,
trial,html.Screen,8_19_0,2023-11-15T15:40:05.959Z,,,,2,0.0560021488981517,-0.0058131881595011,,true,ll,5922.883999976155,response,-0.8789245418555859,1.0306651325811724,-0.9499999999999997,-1.207575413157872,0.7678295079143973,-1.0999999999999999,low,low,,ISIC_0000077.JPG,,ISIC_0001602.JPG,97,false,ll,keypress(f),0,true,442460.09999996424,442459.89999997616,436520.429,436530.59999996424,436537.016,442465.246,1,40,20,
sequence,flow.Sequence,8_19,2023-11-15T15:40:05.959Z,,,,,,,,,,5922.883999976155,completion,,,,,,,low,low,,,,,,false,,,,true,442460.6999999881,442459.89999997616,436520.429,436530.59999996424,436537.016,442465.246,1,40,,
trial,html.Screen,8_20_0,2023-11-15T15:40:15.071Z,,,,2,-0.0029978997915594,0.0736178673732526,,true,hl,9106.953999988094,response,0.9448560599810628,1.0306651325811724,-0.9499999999999997,-0.9099421612683488,0.7678295079143973,-1.0999999999999999,high,low,,ISIC_9745038.JPG,,ISIC_9684318.JPG,21,false,hl,keypress(j),0,true,451572.5,451572.1999999881,442448.705,442460.89999997616,442465.246,451582.987,1,40,21,
sequence,flow.Sequence,8_20,2023-11-15T15:40:15.072Z,,,,,,,,,,9106.953999988094,completion,,,,,,,high,low,,,,,,false,,,,true,451573,451572.1999999881,442448.705,442460.8000000119,442465.246,451582.987,1,40,,
trial,html.Screen,8_21_0,2023-11-15T15:40:20.669Z,,,,2,0.0534676262527691,0.0384996820289673,,true,hl,5587.212999988056,response,0.7877592509894734,0.9806651325811724,-0.9499999999999997,-1.1264694181779615,0.7678295079143973,-1.0087587872131103,high,low,,ISIC_0030484.JPG,,ISIC_9058340.JPG,25,false,hl,keypress(j),0,true,457170.39999997616,457170.1999999881,451566.392,451573.3000000119,451582.987,457177.096,1,40,22,
sequence,flow.Sequence,8_21,2023-11-15T15:40:20.669Z,,,,,,,,,,5587.212999988056,completion,,,,,,,high,low,,,,,,false,,,,true,457170.5,457170.1999999881,451566.392,451573.1999999881,451582.987,457177.096,1,40,,
trial,html.Screen,8_22_0,2023-11-15T15:40:29.591Z,,,,2,-0.0001106800768269,0.0404747734408496,,true,ll,8915.10399998806,response,-0.8106452071627479,0.9806651325811724,-0.9499999999999997,-0.8209658560483851,0.7678295079143973,-1.0087587872131103,low,low,,ISIC_5706192.JPG,,ISIC_4151356.JPG,115,false,ll,keypress(f),0,true,466092.5,466092.1999999881,457160.674,457170.5,457177.096,466111.619,1,40,23,
sequence,flow.Sequence,8_22,2023-11-15T15:40:29.592Z,,,,,,,,,,8915.10399998806,completion,,,,,,,low,low,,,,,,false,,,,true,466092.89999997616,466092.1999999881,457160.674,457170.5,457177.096,466111.619,1,40,,
trial,html.Screen,8_23_0,2023-11-15T15:40:32.638Z,,,,2,-0.0063515208248796,-0.0194177605767913,,false,hl,3027.080999988073,response,1.082730232773217,0.9806651325811724,-0.9237176371131732,-0.8833175387485132,0.7678295079143973,-0.9237176371131732,high,low,,ISIC_5281908.JPG,,ISIC_0011933.JPG,33,false,hh,keypress(i),0,true,469138.6999999881,469138.6999999881,466077.959,466093.1999999881,466111.619,469150.662,1,40,24,
sequence,flow.Sequence,8_23,2023-11-15T15:40:32.638Z,,,,,,,,,,3027.080999988073,completion,,,,,,,high,low,,,,,,false,,,,true,469138.89999997616,469138.6999999881,466077.959,466093.1999999881,466111.619,469150.662,1,40,,
trial,html.Screen,8_24_0,2023-11-15T15:40:39.624Z,,,,2,0.0060918352854008,-0.029032683404407,,true,hl,6973.537999988068,response,0.8164333039971521,0.9306651325811723,-0.9237176371131732,-0.7749218621525992,0.7678295079143973,-0.9737176371131733,high,low,,ISIC_8436194.JPG,,ISIC_0013079.JPG,37,false,hl,keypress(j),0,true,476124.5,476124.1999999881,469133.945,469139,469150.662,476130.678,1,40,25,
sequence,flow.Sequence,8_24,2023-11-15T15:40:39.624Z,,,,,,,,,,6973.537999988068,completion,,,,,,,high,low,,,,,,false,,,,true,476125,476124.1999999881,469133.945,469139,469150.662,476130.678,1,40,,
trial,html.Screen,8_25_0,2023-11-15T15:40:48.327Z,,,,2,-0.0187970165493076,-0.0417726918052949,,true,lh,8697.221999976144,response,-1.0140243022958364,0.9306651325811723,-0.9237176371131732,0.7084305941404812,0.7678295079143973,-0.9737176371131733,low,high,,ISIC_9312164.JPG,,ISIC_0014946.JPG,57,false,lh,keypress(e),0,true,484828.3000000119,484827.89999997616,476114.154,476125.3000000119,476130.678,484831.016,1,40,26,
sequence,flow.Sequence,8_25,2023-11-15T15:40:48.328Z,,,,,,,,,,8697.221999976144,completion,,,,,,,low,high,,,,,,false,,,,true,484828.8000000119,484827.89999997616,476114.154,476125.1999999881,476130.678,484831.016,1,40,,
trial,html.Screen,8_26_0,2023-11-15T15:40:55.726Z,,,,2,-0.0380440426394326,-0.0685633753763444,,false,ll,7395.683999988076,response,-0.8329154010765664,0.9306651325811723,-0.9237176371131732,-1.086658647698992,0.7178295079143973,-0.9737176371131733,low,low,,ISIC_0032680.JPG,,ISIC_7407847.JPG,129,false,hh,keypress(i),0,true,492226.8000000119,492226.6999999881,484814.385,484829,484831.016,492228.625,1,40,27,
sequence,flow.Sequence,8_26,2023-11-15T15:40:55.726Z,,,,,,,,,,7395.683999988076,completion,,,,,,,low,low,,,,,,false,,,,true,492227,492226.6999999881,484814.385,484828.8000000119,484831.016,492228.625,1,40,,
trial,html.Screen,8_27_0,2023-11-15T15:41:02.559Z,,,,2,-0.010035581303589,0.0100711721396864,,true,hh,6831.375,response,1.0322039773226626,0.9306651325811723,-0.9737176371131733,0.864695074153971,0.7178295079143973,-1.0237176371131733,high,high,,ISIC_0030592.JPG,,ISIC_0013707.JPG,220,false,hh,keypress(i),0,true,499060.3000000119,499060,492212.154,492227,492228.625,499075.499,1,40,28,
sequence,flow.Sequence,8_27,2023-11-15T15:41:02.560Z,,,,,,,,,,6831.375,completion,,,,,,,high,high,,,,,,false,,,,true,499060.89999997616,499060,492212.154,492227,492228.625,499075.499,1,40,,
trial,html.Screen,8_28_0,2023-11-15T15:41:10.760Z,,,,2,0.0166849894750452,-0.0371614812368835,,true,hh,8184.700999988068,response,0.9249269615309152,0.8984495257383167,-0.9737176371131733,0.8763315495780752,0.7178295079143973,-1.0237176371131733,high,high,,ISIC_6231450.JPG,,ISIC_0009992.JPG,233,false,hh,keypress(i),0,true,507260.5,507260.1999999881,499058.773,499061.09999996424,499075.499,507274.639,1,40,29,
sequence,flow.Sequence,8_28,2023-11-15T15:41:10.760Z,,,,,,,,,,8184.700999988068,completion,,,,,,,high,high,,,,,,false,,,,true,507261,507260.1999999881,499058.773,499061.09999996424,499075.499,507274.639,1,40,,
trial,html.Screen,8_29_0,2023-11-15T15:41:15.118Z,,,,2,0.00126575685933,0.0325046559638838,,true,ll,4343.860999999975,response,-1.003694288339796,0.8984495257383167,-0.9737176371131733,-0.8462905128253329,0.8506292555544952,-1.0237176371131733,low,low,,ISIC_5682259.JPG,,ISIC_2876073.JPG,112,false,ll,keypress(f),0,true,511618.6999999881,511618.5,507258.08,507261.3000000119,507274.639,511633.29,1,40,30,
sequence,flow.Sequence,8_29,2023-11-15T15:41:15.118Z,,,,,,,,,,4343.860999999975,completion,,,,,,,low,low,,,,,,false,,,,true,511618.8000000119,511618.5,507258.08,507261.1999999881,507274.639,511633.29,1,40,,
trial,html.Screen,8_30_0,2023-11-15T15:41:20.607Z,,,,2,0.0158987717472563,0.0292472192292015,,true,hh,5474.609999976179,response,0.8103021308201687,0.8984495257383167,-0.9737176371131733,0.6668663166744264,0.8506292555544952,-1.0237176371131733,high,high,,ISIC_1366765.JPG,,ISIC_1496194.JPG,205,false,hh,keypress(i),0,true,517108.09999996424,517107.89999997616,511616.43,511619,511633.29,517127.497,1,40,31,
sequence,flow.Sequence,8_30,2023-11-15T15:41:20.608Z,,,,,,,,,,5474.609999976179,completion,,,,,,,high,high,,,,,,false,,,,true,517108.6999999881,517107.89999997616,511616.43,511618.89999997616,511633.29,517127.497,1,40,,
trial,html.Screen,8_31_0,2023-11-15T15:41:25.672Z,,,,2,0.0450282431170921,0.0102871556606504,,false,lh,5044.702999988105,response,-1.1343164084491792,0.6885842237472974,-0.9737176371131733,0.7599392888539781,0.8506292555544952,-1.0237176371131733,low,high,,ISIC_1805163.JPG,,ISIC_0032265.JPG,42,false,hh,keypress(i),0,true,522172.59999996424,522172.1999999881,517093.851,517109,517127.497,522187.118,1,40,32,
sequence,flow.Sequence,8_31,2023-11-15T15:41:25.672Z,,,,,,,,,,5044.702999988105,completion,,,,,,,low,high,,,,,,false,,,,true,522173.09999996424,522172.1999999881,517093.851,517108.89999997616,517127.497,522187.118,1,40,,
trial,html.Screen,8_32_0,2023-11-15T15:41:31.039Z,,,,2,-0.0199897690678184,-0.0312486875504497,,true,hl,5352.781999976141,response,0.6971413872676647,0.6885842237472974,-1.0237176371131733,-1.040122402473425,0.6634028027642023,-1.0237176371131733,high,low,,ISIC_5482426.JPG,,ISIC_8195528.JPG,68,false,hl,keypress(j),0,true,527540.1999999881,527539.8999999762,522170.338,522173.3000000119,522187.118,527547.324,1,40,33,
sequence,flow.Sequence,8_32,2023-11-15T15:41:31.040Z,,,,,,,,,,5352.781999976141,completion,,,,,,,high,low,,,,,,false,,,,true,527540.6999999881,527539.8999999762,522170.338,522173.1999999881,522187.118,527547.324,1,40,,
trial,html.Screen,8_33_0,2023-11-15T15:41:41.326Z,,,,2,-0.0207120852539861,-0.0589023744433183,,true,ll,10278.976000011899,response,-1.0375203228848855,0.6885842237472974,-1.0237176371131733,-1.0256934713188917,0.6634028027642023,-0.9737176371131733,low,low,,ISIC_7973601.JPG,,ISIC_4264600.JPG,113,false,ll,keypress(f),0,true,537826.3999999762,537826.3000000119,527530.853,527540.8999999762,527547.324,537834.02,1,40,34,
sequence,flow.Sequence,8_33,2023-11-15T15:41:41.326Z,,,,,,,,,,10278.976000011899,completion,,,,,,,low,low,,,,,,false,,,,true,537826.5,537826.3000000119,527530.853,527540.8000000119,527547.324,537834.02,1,40,,
trial,html.Screen,8_34_0,2023-11-15T15:41:46.344Z,,,,2,-0.0029978997915594,0.0736178673732526,,false,lh,5009.8799999761395,response,-0.9121597067937454,0.6885842237472974,-1.0237176371131733,0.4925880247883667,0.6634028027642023,-0.9737176371131733,low,high,,ISIC_9745038.JPG,,ISIC_4153542.JPG,60,false,hh,keypress(i),0,true,542844.1999999881,542843.8999999762,537817.446,537826.5,537834.02,542860.727,1,40,35,
sequence,flow.Sequence,8_34,2023-11-15T15:41:46.344Z,,,,,,,,,,5009.8799999761395,completion,,,,,,,low,high,,,,,,false,,,,true,542844.6999999881,542843.8999999762,537817.446,537826.5,537834.02,542860.727,1,40,,
trial,html.Screen,8_35_0,2023-11-15T15:41:55.671Z,,,,2,0.0480684603309257,-0.0620119776873313,,false,hl,9309.972999988124,response,0.5403636419757261,0.6885842237472974,-1.0737176371131734,-1.0027594364773431,0.6634028027642023,-0.9737176371131733,high,low,,ISIC_0645834.JPG,,ISIC_9745492.JPG,85,false,lh,keypress(e),0,true,552170.8999999762,552170.6999999881,542843.78,542845,542860.727,552178.562,1,40,36,
sequence,flow.Sequence,8_35,2023-11-15T15:41:55.671Z,,,,,,,,,,9309.972999988124,completion,,,,,,,high,low,,,,,,false,,,,true,552170.8999999762,552170.6999999881,542843.78,542844.8999999762,542860.727,552178.562,1,40,,
trial,html.Screen,8_36_0,2023-11-15T15:42:04.080Z,,,,2,0.0339906816361373,0.0603913124071272,,false,lh,8400.937999999966,response,-1.0026266089287914,0.7385842237472975,-1.0737176371131734,0.4867232336906885,0.6634028027642023,-1.0237176371131733,low,high,,ISIC_1258763.JPG,,ISIC_0033520.JPG,54,false,hh,keypress(i),0,true,560579.8000000119,560579.5,552161.951,552171.0999999642,552178.562,560595.158,1,40,37,
sequence,flow.Sequence,8_36,2023-11-15T15:42:04.080Z,,,,,,,,,,8400.937999999966,completion,,,,,,,low,high,,,,,,false,,,,true,560580.0999999642,560579.5,552161.951,552171.0999999642,552178.562,560595.158,1,40,,
trial,html.Screen,8_37_0,2023-11-15T15:42:09.464Z,,,,2,0.0362472736315994,0.0492979048777824,,true,lh,5369.041999988025,response,-1.249142934687179,0.7385842237472975,-1.1237176371131734,0.4197029772927021,0.6134028027642022,-1.0237176371131733,low,high,,ISIC_5312584.JPG,,ISIC_0027514.JPG,51,false,lh,keypress(e),0,true,565964.5,565964.1999999881,560578.436,560580.1999999881,560595.158,565972.06,1,40,38,
sequence,flow.Sequence,8_37,2023-11-15T15:42:09.465Z,,,,,,,,,,5369.041999988025,completion,,,,,,,low,high,,,,,,false,,,,true,565965,565964.1999999881,560578.436,560580.0999999642,560595.158,565972.06,1,40,,
trial,html.Screen,8_38_0,2023-11-15T15:42:16.120Z,,,,2,-0.0245246789155119,0.0615355901813596,,false,ll,6647.639999988023,response,-1.0437497612294713,0.7385842237472975,-1.1237176371131734,-0.93059645456522,0.6134028027642022,-1.0237176371131733,low,low,,ISIC_0034144.JPG,,ISIC_0032357.JPG,82,false,hh,keypress(i),0,true,572620.0999999642,572619.6999999881,565955.565,565965.1999999881,565972.06,572635.222,1,40,39,
sequence,flow.Sequence,8_38,2023-11-15T15:42:16.120Z,,,,,,,,,,6647.639999988023,completion,,,,,,,low,low,,,,,,false,,,,true,572620.5,572619.6999999881,565955.565,565965.1999999881,565972.06,572635.222,1,40,,
trial,html.Screen,8_39_0,2023-11-15T15:42:21.406Z,,,,2,0.0523524458062335,-0.0048771624512062,,false,hl,5270.977999988128,response,0.6707413499192771,0.7385842237472975,-1.1737176371131735,-1.176352590105879,0.6134028027642022,-1.0737176371131734,high,low,,ISIC_0010379.JPG,,ISIC_0567814.JPG,54,false,lh,keypress(e),0,true,577906.3000000119,577906.1999999881,572618.397,572620.8000000119,572635.222,577911.919,1,40,40,
sequence,flow.Sequence,8_39,2023-11-15T15:42:21.406Z,,,,,,,,,,5270.977999988128,completion,,,,,,,high,low,,,,,,false,,,,true,577906.3999999762,577906.1999999881,572618.397,572620.8000000119,572635.222,577911.919,1,40,,
stair_loop,flow.Loop,8,2023-11-15T15:42:21.406Z,,,,,,,,,,253821.06099998805,completion,,,,,,,,,,,,,,false,,,,true,577906.5,577906.1999999881,324068.529,324058.8000000119,324085.139,577911.919,1,40,,
exp_instructions,html.Screen,9,2023-11-15T15:42:48.742Z,,,,,,,,,,27329.980999976164,response,,,,,,,,,,,,,,,continue,keypress(Space),,,605242.3999999762,605241.8999999762,577895.446,577906.5,577911.919,605248.449,,,,
trial,html.Screen,10_0_0,2023-11-15T15:42:52.206Z,,,,1,0.0402606077562393,-0.0233871780024155,,true,hh,3457.650999964215,response,0.9536663296004304,0.8393963825795001,-1.0026599915461971,0.6414189710829215,0.7234787880003342,-1.008535870267508,high,high,,ISIC_0024401.JPG,9,ISIC_0060975.JPG,243,false,hh,keypress(i),0,false,608706.0999999642,608706.0999999642,605231.506,605242.3999999762,605248.449,608721.837,4,500,1,
break,html.Screen,10_0_1,2023-11-15T15:42:52.206Z,,,,,,,,,,NaN,,,,,,,,high,high,,,,,,false,,,,false,608706.5999999642,608706.5,,608706.3000000119,,608721.837,4,500,,
break_continue,html.Screen,10_0_2,2023-11-15T15:42:52.206Z,,,,,,,,,,NaN,,,,,,,,high,high,,,,,,false,,,,false,608706.8000000119,608706.6999999881,,608706.5999999642,,608721.837,4,500,,
sequence,flow.Sequence,10_0,2023-11-15T15:42:52.206Z,,,,,,,,,,3458.2509999880567,completion,,,,,,,high,high,,,,,,false,,,,false,608706.8000000119,608706.6999999881,605231.506,605242.3999999762,605248.449,608721.837,4,500,,
trial,html.Screen,10_1_0,2023-11-15T15:43:03.210Z,,,,1,0.0539169177295974,-0.039571352787207,,,,11021.581999999937,timeout,-1.1569583426015195,0.8393963825795001,-1.0026599915461971,-1.02258614327008,0.7234787880003342,-1.008535870267508,low,low,,ISIC_1076091.JPG,9,ISIC_5705973.JPG,112,false,,,0,false,619710.5999999642,619710.5,608705.148,608707,608721.837,619743.419,4,500,2,
break,html.Screen,10_1_1,2023-11-15T15:43:03.211Z,,,,,,,,,,NaN,,,,,,,,low,low,,,,,,false,,,,false,619711,619710.8999999762,,619710.8000000119,,619743.419,4,500,,
break_continue,html.Screen,10_1_2,2023-11-15T15:43:03.211Z,,,,,,,,,,NaN,,,,,,,,low,low,,,,,,false,,,,false,619711.3000000119,619711.1999999881,,619711.0999999642,,619743.419,4,500,,
sequence,flow.Sequence,10_1,2023-11-15T15:43:03.211Z,,,,,,,,,,10989.362999988021,completion,,,,,,,low,low,,,,,,false,,,,false,619711.3000000119,619711.1999999881,608705.148,608707,608721.837,619743.419,4,500,,
trial,html.Screen,10_2_0,2023-11-15T15:43:14.232Z,,,,1,0.0060934073440827,0.0279108145883031,,,,11021.491000000038,timeout,-1.1679182396424097,0.8393963825795001,-1.0026599915461971,-0.8971678181565197,0.7234787880003342,-1.008535870267508,low,low,,ISIC_0032604.JPG,9,ISIC_0025085.JPG,112,false,,,0,false,630732.0999999642,630731.8999999762,619726.754,619711.3999999762,619743.419,630764.91,4,500,3,
break,html.Screen,10_2_1,2023-11-15T15:43:14.232Z,,,,,,,,,,NaN,,,,,,,,low,low,,,,,,false,,,,false,630732.5999999642,630732.5,,630732.1999999881,,630764.91,4,500,,
break_continue,html.Screen,10_2_2,2023-11-15T15:43:14.232Z,,,,,,,,,,NaN,,,,,,,,low,low,,,,,,false,,,,false,630732.8000000119,630732.8000000119,,630732.6999999881,,630764.91,4,500,,
sequence,flow.Sequence,10_2,2023-11-15T15:43:14.233Z,,,,,,,,,,10989.381000011927,completion,,,,,,,low,low,,,,,,false,,,,false,630733,630732.8000000119,619726.754,619711.3999999762,619743.419,630764.91,4,500,,
trial,html.Screen,10_3_0,2023-11-15T15:43:17.271Z,,,,1,-0.0127364719403411,-0.0549103570808099,,true,hh,3005.9899999761255,response,0.6867531078441103,0.8393963825795001,-1.0026599915461971,0.804908977162254,0.7234787880003342,-1.008535870267508,high,high,,ISIC_0054705.JPG,9,ISIC_0066094.JPG,243,false,hh,keypress(i),0,false,633771.0999999642,633770.8999999762,630748.292,630733.0999999642,630764.91,633787.505,4,500,4,
break,html.Screen,10_3_1,2023-11-15T15:43:17.271Z,,,,,,,,,,NaN,,,,,,,,high,high,,,,,,false,,,,false,633771.5999999642,633771.5,,633771.1999999881,,633787.505,4,500,,
break_continue,html.Screen,10_3_2,2023-11-15T15:43:17.272Z,,,,,,,,,,NaN,,,,,,,,high,high,,,,,,false,,,,false,633771.8999999762,633771.8000000119,,633771.6999999881,,633787.505,4,500,,
sequence,flow.Sequence,10_3,2023-11-15T15:43:17.272Z,,,,,,,,,,3006.8900000118883,completion,,,,,,,high,high,,,,,,false,,,,false,633772.0999999642,633771.8000000119,630748.292,630733.0999999642,630764.91,633787.505,4,500,,
trial,html.Screen,10_4_0,2023-11-15T15:43:20.279Z,,,,1,0.0420795830016583,-0.0226772711905177,,false,lh,2991.9949999999953,response,-1.0140243022958364,0.8393963825795001,-1.0026599915461971,0.7084305941404812,0.7234787880003342,-1.008535870267508,low,high,,ISIC_0638857.JPG,8,ISIC_0014946.JPG,56,false,hh,keypress(i),0,false,636779.8000000119,636779.5,633770.803,633772.1999999881,633787.505,636793.398,4,500,5,
break,html.Screen,10_4_1,2023-11-15T15:43:20.281Z,,,,,,,,,,NaN,,,,,,,,low,high,,,,,,false,,,,false,636781,636780.8000000119,,636780.3000000119,,636793.398,4,500,,
break_continue,html.Screen,10_4_2,2023-11-15T15:43:20.281Z,,,,,,,,,,NaN,,,,,,,,low,high,,,,,,false,,,,false,636781.6999999881,636781.5,,636781.1999999881,,636793.398,4,500,,
sequence,flow.Sequence,10_4,2023-11-15T15:43:20.282Z,,,,,,,,,,2993.9949999999953,completion,,,,,,,low,high,,,,,,false,,,,false,636782,636781.5,633770.803,633772.1999999881,633787.505,636793.398,4,500,,
trial,html.Screen,10_5_0,2023-11-15T15:43:26.624Z,,,,1,-0.0367218428225813,0.0026956749740767,,true,hl,6330.2019999641925,response,0.6599850607985306,0.8393963825795001,-1.0026599915461971,-0.85290800081388,0.7234787880003342,-1.008535870267508,high,low,,ISIC_7212271.JPG,10,ISIC_9125409.JPG,50,false,hl,keypress(j),0,false,643123.8999999762,643123.5999999642,636776.691,636782.3000000119,636793.398,643138.883,4,500,6,
break,html.Screen,10_5_1,2023-11-15T15:43:26.625Z,,,,,,,,,,NaN,,,,,,,,high,low,,,,,,false,,,,false,643125.0999999642,643124.8000000119,,643124.3000000119,,643138.883,4,500,,
break_continue,html.Screen,10_5_2,2023-11-15T15:43:26.625Z,,,,,,,,,,NaN,,,,,,,,high,low,,,,,,false,,,,false,643125.6999999881,643125.5,,643125.3000000119,,643138.883,4,500,,
sequence,flow.Sequence,10_5,2023-11-15T15:43:26.626Z,,,,,,,,,,6332.101999999955,completion,,,,,,,high,low,,,,,,false,,,,false,643126,643125.5,636776.691,636782.1999999881,636793.398,643138.883,4,500,,
trial,html.Screen,10_6_0,2023-11-15T15:43:31.550Z,,,,1,0.0040788697657958,0.0696367106527537,,false,ll,4911.816999988048,response,-0.9116506478817816,0.8393963825795001,-1.0026599915461971,-1.0416072379908032,0.7234787880003342,-1.008535870267508,low,low,,ISIC_0066882.JPG,9,ISIC_3273370.JPG,112,false,hl,keypress(j),0,false,648050.8000000119,648050.6999999881,643122.217,643126.3000000119,643138.883,648065.229,4,500,7,
break,html.Screen,10_6_1,2023-11-15T15:43:31.551Z,,,,,,,,,,NaN,,,,,,,,low,low,,,,,,false,,,,false,648051.0999999642,648051.0999999642,,648050.8999999762,,648065.229,4,500,,
break_continue,html.Screen,10_6_2,2023-11-15T15:43:31.551Z,,,,,,,,,,NaN,,,,,,,,low,low,,,,,,false,,,,false,648051.3999999762,648051.3000000119,,648051.1999999881,,648065.229,4,500,,
sequence,flow.Sequence,10_6,2023-11-15T15:43:31.551Z,,,,,,,,,,4912.41700001189,completion,,,,,,,low,low,,,,,,false,,,,false,648051.5,648051.3000000119,643122.217,643126.3000000119,643138.883,648065.229,4,500,,
trial,html.Screen,10_7_0,2023-11-15T15:43:39.408Z,,,,1,-0.0207120852539861,-0.0589023744433183,,true,ll,7842.370999964187,response,-1.0831477774866454,0.8393963825795001,-1.0026599915461971,-1.0347343776726454,0.7234787880003342,-1.008535870267508,low,low,,ISIC_7973601.JPG,9,ISIC_9475559.JPG,112,false,ll,keypress(f),0,false,655907.8999999762,655907.5999999642,648048.61,648051.5999999642,648065.229,655913.673,4,500,8,
break,html.Screen,10_7_1,2023-11-15T15:43:39.409Z,,,,,,,,,,NaN,,,,,,,,low,low,,,,,,false,,,,false,655909.0999999642,655908.8000000119,,655908.3000000119,,655913.673,4,500,,
break_continue,html.Screen,10_7_2,2023-11-15T15:43:39.409Z,,,,,,,,,,NaN,,,,,,,,low,low,,,,,,false,,,,false,655909.8000000119,655909.5,,655909.3000000119,,655913.673,4,500,,
sequence,flow.Sequence,10_7,2023-11-15T15:43:39.410Z,,,,,,,,,,7844.27099999995,completion,,,,,,,low,low,,,,,,false,,,,false,655910.0999999642,655909.5,648048.61,648051.5999999642,648065.229,655913.673,4,500,,
trial,html.Screen,10_8_0,2023-11-15T15:43:46.352Z,,,,1,0.0057914759495055,-0.018500200317654,,true,hh,6938.327000000048,response,0.6661829716379979,0.8393963825795001,-1.0026599915461971,0.5539660067063851,0.7234787880003342,-1.008535870267508,high,high,,ISIC_0058723.JPG,9,ISIC_0060848.JPG,243,false,hh,keypress(i),0,false,662852.3000000119,662852,655897.111,655910.3000000119,655913.673,662860.46,4,500,9,
break,html.Screen,10_8_1,2023-11-15T15:43:46.353Z,,,,,,,,,,NaN,,,,,,,,high,high,,,,,,false,,,,false,662853.5,662853.0999999642,,662852.6999999881,,662860.46,4,500,,
break_continue,html.Screen,10_8_2,2023-11-15T15:43:46.354Z,,,,,,,,,,NaN,,,,,,,,high,high,,,,,,false,,,,false,662854.1999999881,662853.8999999762,,662853.6999999881,,662860.46,4,500,,
sequence,flow.Sequence,10_8,2023-11-15T15:43:46.354Z,,,,,,,,,,6940.226999976207,completion,,,,,,,high,high,,,,,,false,,,,false,662854.5999999642,662853.8999999762,655897.111,655910.1999999881,655913.673,662860.46,4,500,,
trial,html.Screen,10_9_0,2023-11-15T15:43:51.865Z,,,,1,-0.0001106800768269,0.0404747734408496,,true,lh,5503.239999988116,response,-0.9674279172871372,0.8393963825795001,-1.0026599915461971,0.7134300562904723,0.7234787880003342,-1.008535870267508,low,high,,ISIC_5706192.JPG,9,ISIC_9130157.JPG,56,false,lh,keypress(e),0,false,668364.0999999642,668363.6999999881,662843.924,662854.8000000119,662860.46,668371.212,4,500,10,
break,html.Screen,10_9_1,2023-11-15T15:43:51.866Z,,,,,,,,,,NaN,,,,,,,,low,high,,,,,,false,,,,false,668365.5,668365,,668364.5,,668371.212,4,500,,
break_continue,html.Screen,10_9_2,2023-11-15T15:43:51.867Z,,,,,,,,,,NaN,,,,,,,,low,high,,,,,,false,,,,false,668366.3000000119,668366.0999999642,,668365.8000000119,,668371.212,4,500,,
sequence,flow.Sequence,10_9,2023-11-15T15:43:51.867Z,,,,,,,,,,5505.6399999642745,completion,,,,,,,low,high,,,,,,false,,,,false,668366.6999999881,668366.0999999642,662843.924,662854.6999999881,662860.46,668371.212,4,500,,
trial,html.Screen,10_10_0,2023-11-15T15:44:01.009Z,,,,1,-0.0658524437333868,0.0334357178485904,,true,hl,9136.588000011863,response,0.8087127179888679,0.8393963825795001,-1.0026599915461971,-0.8480635840272462,0.7234787880003342,-1.008535870267508,high,low,,ISIC_8015541.JPG,8,ISIC_3941147.JPG,50,false,hl,keypress(j),0,false,677508.1999999881,677507.8000000119,668354.64,668366.8999999762,668371.212,677522.59,4,500,11,
break,html.Screen,10_10_1,2023-11-15T15:44:01.010Z,,,,,,,,,,NaN,,,,,,,,high,low,,,,,,false,,,,false,677509.3000000119,677509.0999999642,,677508.5,,677522.59,4,500,,
break_continue,html.Screen,10_10_2,2023-11-15T15:44:01.011Z,,,,,,,,,,NaN,,,,,,,,high,low,,,,,,false,,,,false,677510.0999999642,677509.8000000119,,677509.5999999642,,677522.59,4,500,,
sequence,flow.Sequence,10_10,2023-11-15T15:44:01.011Z,,,,,,,,,,9138.588000011863,completion,,,,,,,high,low,,,,,,false,,,,false,677510.3000000119,677509.8000000119,668354.64,668366.8000000119,668371.212,677522.59,4,500,,
trial,html.Screen,10_11_0,2023-11-15T15:44:04.977Z,,,,1,-0.019361072276763,-0.0523902345755568,,true,hl,3953.00999996427,response,0.7705174182595537,0.8393963825795001,-1.0026599915461971,-1.085710894474977,0.7234787880003342,-1.008535870267508,high,low,,ISIC_4066726.JPG,9,ISIC_0013644.JPG,50,false,hl,keypress(j),0,false,681475.8999999762,681475.5999999642,677505.871,677510.5,677522.59,681480.03,4,500,12,
break,html.Screen,10_11_1,2023-11-15T15:44:04.978Z,,,,,,,,,,NaN,,,,,,,,high,low,,,,,,false,,,,false,681477,681476.6999999881,,681476.3000000119,,681480.03,4,500,,
break_continue,html.Screen,10_11_2,2023-11-15T15:44:04.978Z,,,,,,,,,,NaN,,,,,,,,high,low,,,,,,false,,,,false,681477.6999999881,681477.5,,681477.1999999881,,681480.03,4,500,,
sequence,flow.Sequence,10_11,2023-11-15T15:44:04.979Z,,,,,,,,,,3954.9100000000326,completion,,,,,,,high,low,,,,,,false,,,,false,681478.0999999642,681477.5,677505.871,677510.5,677522.59,681480.03,4,500,,
trial,html.Screen,10_12_0,2023-11-15T15:44:13.873Z,,,,1,-0.0327772618698018,0.0056908372048728,,true,hl,8891.86999997613,response,0.9448560599810628,0.8393963825795001,-1.0026599915461971,-0.9099421612683488,0.7234787880003342,-1.008535870267508,high,low,,ISIC_7897925.JPG,9,ISIC_9684318.JPG,50,false,hl,keypress(j),0,false,690372.1999999881,690371.8999999762,681463.563,681478.1999999881,681480.03,690380.694,4,500,13,
break,html.Screen,10_12_1,2023-11-15T15:44:13.874Z,,,,,,,,,,NaN,,,,,,,,high,low,,,,,,false,,,,false,690373.3999999762,690373.0999999642,,690372.6999999881,,690380.694,4,500,,
break_continue,html.Screen,10_12_2,2023-11-15T15:44:13.875Z,,,,,,,,,,NaN,,,,,,,,high,low,,,,,,false,,,,false,690374.0999999642,690373.8000000119,,690373.5999999642,,690380.694,4,500,,
sequence,flow.Sequence,10_12,2023-11-15T15:44:13.875Z,,,,,,,,,,8893.770000011893,completion,,,,,,,high,low,,,,,,false,,,,false,690374.3999999762,690373.8000000119,681463.563,681478.1999999881,681480.03,690380.694,4,500,,
trial,html.Screen,10_13_0,2023-11-15T15:44:20.265Z,,,,1,0.0399381815506136,0.0177751789152893,,false,ll,6383.106000011903,response,-0.8529242055711017,0.8393963825795001,-1.0026599915461971,-1.0761216763182415,0.7234787880003342,-1.008535870267508,low,low,,ISIC_3981425.JPG,8,ISIC_8169564.JPG,112,false,hl,keypress(j),0,false,696764.0999999642,696763.8000000119,690364.233,690374.6999999881,690380.694,696776.443,4,500,14,
break,html.Screen,10_13_1,2023-11-15T15:44:20.266Z,,,,,,,,,,NaN,,,,,,,,low,low,,,,,,false,,,,false,696765.3999999762,696765.0999999642,,696764.5,,696776.443,4,500,,
break_continue,html.Screen,10_13_2,2023-11-15T15:44:20.267Z,,,,,,,,,,NaN,,,,,,,,low,low,,,,,,false,,,,false,696766.0999999642,696765.8000000119,,696765.5999999642,,696776.443,4,500,,
sequence,flow.Sequence,10_13,2023-11-15T15:44:20.267Z,,,,,,,,,,6385.106000011903,completion,,,,,,,low,low,,,,,,false,,,,false,696766.3999999762,696765.8000000119,690364.233,690374.5999999642,690380.694,696776.443,4,500,,
trial,html.Screen,10_14_0,2023-11-15T15:44:25.057Z,,,,1,-0.0500182837729639,0.0231316228640781,,true,lh,4779.357000011951,response,-0.8923602890201078,0.8393963825795001,-1.0026599915461971,0.8351700666074688,0.7234787880003342,-1.008535870267508,low,high,,ISIC_2246150.JPG,8,ISIC_0033103.JPG,56,false,lh,keypress(e),0,false,701556.0999999642,701555.8000000119,696759.779,696766.5999999642,696776.443,701569.348,4,500,15,
break,html.Screen,10_14_1,2023-11-15T15:44:25.058Z,,,,,,,,,,NaN,,,,,,,,low,high,,,,,,false,,,,false,701557.3999999762,701557.0999999642,,701556.5999999642,,701569.348,4,500,,
break_continue,html.Screen,10_14_2,2023-11-15T15:44:25.059Z,,,,,,,,,,NaN,,,,,,,,low,high,,,,,,false,,,,false,701558.6999999881,701558.0999999642,,701557.6999999881,,701569.348,4,500,,
sequence,flow.Sequence,10_14,2023-11-15T15:44:25.060Z,,,,,,,,,,4781.656999964267,completion,,,,,,,low,high,,,,,,false,,,,false,701559.0999999642,701558.0999999642,696759.779,696766.5999999642,696776.443,701569.348,4,500,,
trial,html.Screen,10_15_0,2023-11-15T15:44:32.719Z,,,,1,0.021811393859175,-0.0534678805668419,,false,hl,7649.251999964239,response,0.9566823908868002,0.8393963825795001,-1.0026599915461971,-0.9602125665128364,0.7234787880003342,-1.008535870267508,high,low,,ISIC_0058054.JPG,9,ISIC_0056784.JPG,50,false,hh,keypress(i),0,false,709218.6999999881,709218.5999999642,701552.654,701559.3000000119,701569.348,709234.186,4,500,16,
break,html.Screen,10_15_1,2023-11-15T15:44:32.720Z,,,,,,,,,,NaN,,,,,,,,high,low,,,,,,false,,,,false,709219.1999999881,709219.0999999642,,709218.8999999762,,709234.186,4,500,,
break_continue,html.Screen,10_15_2,2023-11-15T15:44:32.720Z,,,,,,,,,,NaN,,,,,,,,high,low,,,,,,false,,,,false,709219.3999999762,709219.3000000119,,709219.1999999881,,709234.186,4,500,,
sequence,flow.Sequence,10_15,2023-11-15T15:44:32.720Z,,,,,,,,,,7649.952000011923,completion,,,,,,,high,low,,,,,,false,,,,false,709219.3999999762,709219.3000000119,701552.654,701559.3000000119,701569.348,709234.186,4,500,,
trial,html.Screen,10_16_0,2023-11-15T15:44:39.585Z,,,,1,-0.0001106800768269,0.0404747734408496,,true,ll,6849.91399996425,response,-0.913084438298574,0.8393963825795001,-1.0026599915461971,-0.8279199409322678,0.7234787880003342,-1.008535870267508,low,low,,ISIC_5706192.JPG,9,ISIC_8637134.JPG,112,false,ll,keypress(f),0,false,716084.3999999762,716084.0999999642,709217.455,709219.5,709234.186,716097.462,4,500,17,
break,html.Screen,10_16_1,2023-11-15T15:44:39.586Z,,,,,,,,,,NaN,,,,,,,,low,low,,,,,,false,,,,false,716085.5999999642,716085.3000000119,,716084.8000000119,,716097.462,4,500,,
break_continue,html.Screen,10_16_2,2023-11-15T15:44:39.587Z,,,,,,,,,,NaN,,,,,,,,low,low,,,,,,false,,,,false,716086.3000000119,716086.0999999642,,716085.8000000119,,716097.462,4,500,,
sequence,flow.Sequence,10_16,2023-11-15T15:44:39.587Z,,,,,,,,,,6851.91399996425,completion,,,,,,,low,low,,,,,,false,,,,false,716086.5999999642,716086.0999999642,709217.455,709219.5,709234.186,716097.462,4,500,,
trial,html.Screen,10_17_0,2023-11-15T15:44:46.409Z,,,,1,0.040352316356354,0.0039626669358928,,true,hh,6810.1379999641795,response,0.8342692575496539,0.8393963825795001,-1.0026599915461971,0.6379361243845953,0.7234787880003342,-1.008535870267508,high,high,,ISIC_3018550.JPG,9,ISIC_0025766.JPG,243,false,hh,keypress(i),0,false,722908,722907.5999999642,716080.913,716086.8999999762,716097.462,722910.707,4,500,18,
break,html.Screen,10_17_1,2023-11-15T15:44:46.410Z,,,,,,,,,,NaN,,,,,,,,high,high,,,,,,false,,,,false,722909.1999999881,722908.8999999762,,722908.5,,722910.707,4,500,,
break_continue,html.Screen,10_17_2,2023-11-15T15:44:46.411Z,,,,,,,,,,NaN,,,,,,,,high,high,,,,,,false,,,,false,722910.0999999642,722909.8999999762,,722909.5999999642,,722910.707,4,500,,
sequence,flow.Sequence,10_17,2023-11-15T15:44:46.411Z,,,,,,,,,,6812.4379999761,completion,,,,,,,high,high,,,,,,false,,,,false,722910.3999999762,722909.8999999762,716080.913,716086.8000000119,716097.462,722910.707,4,500,,
trial,html.Screen,10_18_0,2023-11-15T15:44:50.345Z,,,,1,-0.0474755744799381,-0.0692210794081785,,false,lh,3933.192999976105,response,-0.8655195794668102,0.8393963825795001,-1.0026599915461971,0.559580240954787,0.7234787880003342,-1.008535870267508,low,high,,ISIC_8794567.JPG,9,ISIC_0033464.JPG,56,false,ll,keypress(f),0,false,726844.1999999881,726843.8999999762,722893.953,722910.5999999642,722910.707,726851.577,4,500,19,
break,html.Screen,10_18_1,2023-11-15T15:44:50.346Z,,,,,,,,,,NaN,,,,,,,,low,high,,,,,,false,,,,false,726845.3000000119,726845.0999999642,,726844.5999999642,,726851.577,4,500,,
break_continue,html.Screen,10_18_2,2023-11-15T15:44:50.347Z,,,,,,,,,,NaN,,,,,,,,low,high,,,,,,false,,,,false,726846,726845.8000000119,,726845.5,,726851.577,4,500,,
sequence,flow.Sequence,10_18,2023-11-15T15:44:50.347Z,,,,,,,,,,3935.093000011868,completion,,,,,,,low,high,,,,,,false,,,,false,726846.3000000119,726845.8000000119,722893.953,722910.5,722910.707,726851.577,4,500,,
trial,html.Screen,10_19_0,2023-11-15T15:44:59.345Z,,,,1,0.0450282431170921,0.0102871556606504,,true,hl,8992.12299998803,response,0.781391003063482,0.8393963825795001,-1.0026599915461971,-0.9644960393010829,0.7234787880003342,-1.008535870267508,high,low,,ISIC_1805163.JPG,9,ISIC_2087913.JPG,50,false,hl,keypress(j),0,false,735844,735843.6999999881,726835.054,726846.5,726851.577,735852.444,4,500,20,
break,html.Screen,10_19_1,2023-11-15T15:44:59.346Z,,,,,,,,,,NaN,,,,,,,,high,low,,,,,,false,,,,false,735845.0999999642,735844.8000000119,,735844.3000000119,,735852.444,4,500,,
break_continue,html.Screen,10_19_2,2023-11-15T15:44:59.347Z,,,,,,,,,,NaN,,,,,,,,high,low,,,,,,false,,,,false,735845.8999999762,735845.6999999881,,735845.3999999762,,735852.444,4,500,,
sequence,flow.Sequence,10_19,2023-11-15T15:44:59.347Z,,,,,,,,,,8994.12299998803,completion,,,,,,,high,low,,,,,,false,,,,false,735846.1999999881,735845.6999999881,726835.054,726846.5,726851.577,735852.444,4,500,,
trial,html.Screen,10_20_0,2023-11-15T15:45:10.343Z,,,,1,0.0060918352854008,-0.029032683404407,,,,11021.47399999993,timeout,0.6456749622660386,0.8393963825795001,-1.0026599915461971,-0.8199857836146117,0.7234787880003342,-1.008535870267508,high,low,,ISIC_8436194.JPG,0,ISIC_0440848.JPG,50,false,,,0,false,746841.5999999642,746841.1999999881,735835.956,735846.5,735852.444,746873.918,4,500,21,
break,html.Screen,10_20_1,2023-11-15T15:45:10.344Z,,,,,,,,,,NaN,,,,,,,,high,low,,,,,,false,,,,false,746842.6999999881,746842.5,,746842,,746873.918,4,500,,
break_continue,html.Screen,10_20_2,2023-11-15T15:45:10.345Z,,,,,,,,,,NaN,,,,,,,,high,low,,,,,,false,,,,false,746843.3999999762,746843.0999999642,,746842.8999999762,,746873.918,4,500,,
sequence,flow.Sequence,10_20,2023-11-15T15:45:10.345Z,,,,,,,,,,10990.65599996422,completion,,,,,,,high,low,,,,,,false,,,,false,746843.6999999881,746843.0999999642,735835.956,735846.3999999762,735852.444,746873.918,4,500,,
trial,html.Screen,10_21_0,2023-11-15T15:45:19.474Z,,,,1,0.012810673904807,-0.00400964452501,,true,ll,9098.082000000053,response,-1.0372661581632368,0.8393963825795001,-1.0026599915461971,-0.8527176805053108,0.7234787880003342,-1.008535870267508,low,low,,ISIC_0064656.JPG,9,ISIC_6340792.JPG,112,false,ll,keypress(f),0,false,755972.3999999762,755972,746857.375,746843.8999999762,746873.918,755975.007,4,500,22,
break,html.Screen,10_21_1,2023-11-15T15:45:19.475Z,,,,,,,,,,NaN,,,,,,,,low,low,,,,,,false,,,,false,755973.5,755973.1999999881,,755972.8000000119,,755975.007,4,500,,
break_continue,html.Screen,10_21_2,2023-11-15T15:45:19.475Z,,,,,,,,,,NaN,,,,,,,,low,low,,,,,,false,,,,false,755974.1999999881,755974,,755973.6999999881,,755975.007,4,500,,
sequence,flow.Sequence,10_21,2023-11-15T15:45:19.476Z,,,,,,,,,,9100.082000000053,completion,,,,,,,low,low,,,,,,false,,,,false,755974.5,755974,746857.375,746843.8999999762,746873.918,755975.007,4,500,,
trial,html.Screen,10_22_0,2023-11-15T15:45:23.393Z,,,,1,-0.0744767864787991,0.0482768027208112,,false,hh,3916.7930000119377,response,0.7020068528122129,0.8393963825795001,-1.0026599915461971,0.5604081067126306,0.7234787880003342,-1.008535870267508,high,high,,ISIC_0011482.JPG,8,ISIC_7400458.JPG,243,false,hl,keypress(j),0,false,759892,759891.8000000119,755958.167,755974.8000000119,755975.007,759899.234,4,500,23,
break,html.Screen,10_22_1,2023-11-15T15:45:23.394Z,,,,,,,,,,NaN,,,,,,,,high,high,,,,,,false,,,,false,759893.1999999881,759892.8999999762,,759892.5,,759899.234,4,500,,
break_continue,html.Screen,10_22_2,2023-11-15T15:45:23.395Z,,,,,,,,,,NaN,,,,,,,,high,high,,,,,,false,,,,false,759893.8000000119,759893.6999999881,,759893.3999999762,,759899.234,4,500,,
sequence,flow.Sequence,10_22,2023-11-15T15:45:23.395Z,,,,,,,,,,3918.692999988096,completion,,,,,,,high,high,,,,,,false,,,,false,759894.1999999881,759893.6999999881,755958.167,755974.6999999881,755975.007,759899.234,4,500,,
trial,html.Screen,10_23_0,2023-11-15T15:45:31.583Z,,,,1,-0.0127320821962457,0.0315308940184827,,true,lh,8182.765999999945,response,-1.0140243022958364,0.8393963825795001,-1.0026599915461971,0.7084305941404812,0.7234787880003342,-1.008535870267508,low,high,,ISIC_8156101.JPG,9,ISIC_0014946.JPG,56,false,lh,keypress(e),0,false,768082.0999999642,768082,759882.66,759894.5,759899.234,768098.494,4,500,24,
break,html.Screen,10_23_1,2023-11-15T15:45:31.584Z,,,,,,,,,,NaN,,,,,,,,low,high,,,,,,false,,,,false,768082.3000000119,768082.3000000119,,768082.1999999881,,768098.494,4,500,,
break_continue,html.Screen,10_23_2,2023-11-15T15:45:31.584Z,,,,,,,,,,NaN,,,,,,,,low,high,,,,,,false,,,,false,768082.5999999642,768082.5,,768082.3999999762,,768098.494,4,500,,
sequence,flow.Sequence,10_23,2023-11-15T15:45:31.584Z,,,,,,,,,,8183.265999999945,completion,,,,,,,low,high,,,,,,false,,,,false,768082.5999999642,768082.5,759882.66,759894.3999999762,759899.234,768098.494,4,500,,
trial,html.Screen,10_24_0,2023-11-15T15:45:34.793Z,,,,1,0.012020985739544,-0.0126097407389903,,true,hh,3193.1059999642894,response,0.7629588153145769,0.8393963825795001,-1.0026599915461971,0.619745818693282,0.7234787880003342,-1.008535870267508,high,high,,ISIC_0069379.JPG,9,ISIC_0067798.JPG,243,false,hh,keypress(i),0,false,771291.8999999762,771291.5999999642,768081.893,768082.5999999642,768098.494,771304.937,4,500,25,
break,html.Screen,10_24_1,2023-11-15T15:45:34.794Z,,,,,,,,,,NaN,,,,,,,,high,high,,,,,,false,,,,false,771293,771292.6999999881,,771292.1999999881,,771304.937,4,500,,
break_continue,html.Screen,10_24_2,2023-11-15T15:45:34.795Z,,,,,,,,,,NaN,,,,,,,,high,high,,,,,,false,,,,false,771293.6999999881,771293.5,,771293.1999999881,,771304.937,4,500,,
sequence,flow.Sequence,10_24,2023-11-15T15:45:34.795Z,,,,,,,,,,3195.006000000052,completion,,,,,,,high,high,,,,,,false,,,,false,771294,771293.5,768081.893,768082.5999999642,768098.494,771304.937,4,500,,
trial,html.Screen,10_25_0,2023-11-15T15:45:39.545Z,,,,1,0.0377791839943904,-0.0227626648172468,,true,ll,4738.8630000118865,response,-1.071052731807262,0.8393963825795001,-1.0026599915461971,-0.8412787617064144,0.7234787880003342,-1.008535870267508,low,low,,ISIC_7167479.JPG,9,ISIC_4269227.JPG,112,false,ll,keypress(f),0,false,776044.0999999642,776043.8000000119,771288.29,771294.1999999881,771304.937,776047.347,4,500,26,
break,html.Screen,10_25_1,2023-11-15T15:45:39.546Z,,,,,,,,,,NaN,,,,,,,,low,low,,,,,,false,,,,false,776045.3000000119,776045.0999999642,,776044.5999999642,,776047.347,4,500,,
break_continue,html.Screen,10_25_2,2023-11-15T15:45:39.547Z,,,,,,,,,,NaN,,,,,,,,low,low,,,,,,false,,,,false,776046,776045.8000000119,,776045.5999999642,,776047.347,4,500,,
sequence,flow.Sequence,10_25,2023-11-15T15:45:39.547Z,,,,,,,,,,4740.8630000118865,completion,,,,,,,low,low,,,,,,false,,,,false,776046.3000000119,776045.8000000119,771288.29,771294.1999999881,771304.937,776047.347,4,500,,
trial,html.Screen,10_26_0,2023-11-15T15:45:46.049Z,,,,1,0.012810673904807,-0.00400964452501,,false,ll,6500.5529999762075,response,-1.1510001454240106,0.8393963825795001,-1.0026599915461971,-1.132540312667795,0.7234787880003342,-1.008535870267508,low,low,,ISIC_0064656.JPG,9,ISIC_0009959.JPG,112,false,hl,keypress(j),0,false,782548.3000000119,782547.8999999762,776030.787,776046.5,776047.347,782560.053,4,500,27,
break,html.Screen,10_26_1,2023-11-15T15:45:46.051Z,,,,,,,,,,NaN,,,,,,,,low,low,,,,,,false,,,,false,782549.5999999642,782549.3000000119,,782548.8000000119,,782560.053,4,500,,
break_continue,html.Screen,10_26_2,2023-11-15T15:45:46.051Z,,,,,,,,,,NaN,,,,,,,,low,low,,,,,,false,,,,false,782550.3000000119,782550.0999999642,,782549.8000000119,,782560.053,4,500,,
sequence,flow.Sequence,10_26,2023-11-15T15:45:46.052Z,,,,,,,,,,6502.752999964287,completion,,,,,,,low,low,,,,,,false,,,,false,782550.6999999881,782550.0999999642,776030.787,776046.3999999762,776047.347,782560.053,4,500,,
trial,html.Screen,10_27_0,2023-11-15T15:45:50.882Z,,,,1,0.0166849894750452,-0.0371614812368835,,false,hl,4819.747000011965,response,0.7809949855371787,0.8393963825795001,-1.0026599915461971,-0.8834146203433249,0.7234787880003342,-1.008535870267508,high,low,,ISIC_6231450.JPG,10,ISIC_7450481.JPG,50,false,hh,keypress(i),0,false,787380.0999999642,787379.8000000119,782543.44,782550.8999999762,782560.053,787386.002,4,500,28,
break,html.Screen,10_27_1,2023-11-15T15:45:50.883Z,,,,,,,,,,NaN,,,,,,,,high,low,,,,,,false,,,,false,787381.1999999881,787381,,787380.5,,787386.002,4,500,,
break_continue,html.Screen,10_27_2,2023-11-15T15:45:50.884Z,,,,,,,,,,NaN,,,,,,,,high,low,,,,,,false,,,,false,787381.8999999762,787381.6999999881,,787381.3999999762,,787386.002,4,500,,
sequence,flow.Sequence,10_27,2023-11-15T15:45:50.884Z,,,,,,,,,,4821.646999988123,completion,,,,,,,high,low,,,,,,false,,,,false,787382.1999999881,787381.6999999881,782543.44,782550.8000000119,782560.053,787386.002,4,500,,
trial,html.Screen,10_28_0,2023-11-15T15:45:54.394Z,,,,1,-0.0187970165493076,-0.0417726918052949,,true,hl,3505.8979999761796,response,0.7184694103740017,0.8393963825795001,-1.0026599915461971,-0.8981519261719684,0.7234787880003342,-1.008535870267508,high,low,,ISIC_9312164.JPG,8,ISIC_8579259.JPG,50,false,hl,keypress(j),0,false,790892.3000000119,790891.8999999762,787369.431,787382.3999999762,787386.002,790909.575,4,500,29,
break,html.Screen,10_28_1,2023-11-15T15:45:54.395Z,,,,,,,,,,NaN,,,,,,,,high,low,,,,,,false,,,,false,790893.3999999762,790893.0999999642,,790892.5999999642,,790909.575,4,500,,
break_continue,html.Screen,10_28_2,2023-11-15T15:45:54.396Z,,,,,,,,,,NaN,,,,,,,,high,low,,,,,,false,,,,false,790894.1999999881,790893.8999999762,,790893.6999999881,,790909.575,4,500,,
sequence,flow.Sequence,10_28,2023-11-15T15:45:54.396Z,,,,,,,,,,3507.8979999761796,completion,,,,,,,high,low,,,,,,false,,,,false,790894.3999999762,790893.8999999762,787369.431,787382.3000000119,787386.002,790909.575,4,500,,
trial,html.Screen,10_29_0,2023-11-15T15:46:05.130Z,,,,1,-0.004212480280886,-0.0518491070608022,,false,hh,10718.524999964284,response,0.7902359375375733,0.8393963825795001,-1.0026599915461971,0.6112049873602644,0.7234787880003342,-1.008535870267508,high,high,,ISIC_2945324.JPG,9,ISIC_0899961.JPG,243,false,lh,keypress(e),0,false,801628.5,801628.0999999642,790892.961,790894.6999999881,790909.575,801647.648,4,500,30,
break,html.Screen,10_29_1,2023-11-15T15:46:05.132Z,,,,,,,,,,NaN,,,,,,,,high,high,,,,,,false,,,,false,801629.8999999762,801629.5,,801628.8999999762,,801647.648,4,500,,
break_continue,html.Screen,10_29_2,2023-11-15T15:46:05.132Z,,,,,,,,,,NaN,,,,,,,,high,high,,,,,,false,,,,false,801630.8000000119,801630.5999999642,,801630.1999999881,,801647.648,4,500,,
sequence,flow.Sequence,10_29,2023-11-15T15:46:05.133Z,,,,,,,,,,10721.024999964284,completion,,,,,,,high,high,,,,,,false,,,,false,801631.0999999642,801630.5999999642,790892.961,790894.5999999642,790909.575,801647.648,4,500,,
trial,html.Screen,10_30_0,2023-11-15T15:46:07.664Z,,,,1,0.021811393859175,-0.0534678805668419,,true,lh,2514.7519999761134,response,-0.8115604202473797,0.8393963825795001,-1.0026599915461971,0.5245321708594455,0.7234787880003342,-1.008535870267508,low,high,,ISIC_0058054.JPG,9,ISIC_0034120.JPG,56,false,lh,keypress(e),0,false,804162.5,804162.3999999762,801613.909,801631.3999999762,801647.648,804168.691,4,500,31,
break,html.Screen,10_30_1,2023-11-15T15:46:07.664Z,,,,,,,,,,NaN,,,,,,,,low,high,,,,,,false,,,,false,804162.8000000119,804162.6999999881,,804162.5999999642,,804168.691,4,500,,
break_continue,html.Screen,10_30_2,2023-11-15T15:46:07.665Z,,,,,,,,,,NaN,,,,,,,,low,high,,,,,,false,,,,false,804162.8999999762,804162.8999999762,,804162.8999999762,,804168.691,4,500,,
sequence,flow.Sequence,10_30,2023-11-15T15:46:07.665Z,,,,,,,,,,2515.2519999761134,completion,,,,,,,low,high,,,,,,false,,,,false,804163,804162.8999999762,801613.909,801631.3000000119,801647.648,804168.691,4,500,,
trial,html.Screen,10_31_0,2023-11-15T15:46:12.042Z,,,,1,-0.0686816131231518,0.0045217849100701,,true,hl,4371.008999988087,response,0.6795011676675823,0.8393963825795001,-1.0026599915461971,-0.9453006131304652,0.7234787880003342,-1.008535870267508,high,low,,ISIC_5707761.JPG,9,ISIC_4229473.JPG,50,false,hl,keypress(j),0,false,808540,808539.6999999881,804152.172,804163.0999999642,804168.691,808543.814,4,500,32,
break,html.Screen,10_31_1,2023-11-15T15:46:12.043Z,,,,,,,,,,NaN,,,,,,,,high,low,,,,,,false,,,,false,808541.0999999642,808540.8999999762,,808540.3999999762,,808543.814,4,500,,
break_continue,html.Screen,10_31_2,2023-11-15T15:46:12.043Z,,,,,,,,,,NaN,,,,,,,,high,low,,,,,,false,,,,false,808541.8000000119,808541.5999999642,,808541.3000000119,,808543.814,4,500,,
sequence,flow.Sequence,10_31,2023-11-15T15:46:12.044Z,,,,,,,,,,4372.908999964246,completion,,,,,,,high,low,,,,,,false,,,,false,808542.0999999642,808541.5999999642,804152.172,804163.0999999642,804168.691,808543.814,4,500,,
trial,html.Screen,10_32_0,2023-11-15T15:46:23.035Z,,,,1,-0.0050319651598106,0.047524453347389,,,,11021.638999999966,timeout,-0.8297121564547995,0.8393963825795001,-1.0026599915461971,0.6431072529043046,0.7234787880003342,-1.008535870267508,low,high,,ISIC_0027081.JPG,9,ISIC_4108397.JPG,56,false,,,0,false,819533.1999999881,819532.8000000119,808527.225,808542.3000000119,808543.814,819565.453,4,500,33,
break,html.Screen,10_32_1,2023-11-15T15:46:23.036Z,,,,,,,,,,NaN,,,,,,,,low,high,,,,,,false,,,,false,819534.3000000119,819534,,819533.5,,819565.453,4,500,,
break_continue,html.Screen,10_32_2,2023-11-15T15:46:23.037Z,,,,,,,,,,NaN,,,,,,,,low,high,,,,,,false,,,,false,819534.8999999762,819534.5999999642,,819534.5,,819565.453,4,500,,
sequence,flow.Sequence,10_32,2023-11-15T15:46:23.037Z,,,,,,,,,,10990.785999964224,completion,,,,,,,low,high,,,,,,false,,,,false,819535.1999999881,819534.5999999642,808527.225,808542.3000000119,808543.814,819565.453,4,500,,
trial,html.Screen,10_33_0,2023-11-15T15:46:30.034Z,,,,1,-0.0733425953790377,0.0558194585272655,,false,lh,6966.7469999881,response,-0.8591294258188253,0.8393963825795001,-1.0026599915461971,0.870797302150167,0.7234787880003342,-1.008535870267508,low,high,,ISIC_0026756.JPG,8,ISIC_0055841.JPG,56,false,ll,keypress(f),0,false,826532.5,826532.1999999881,819548.823,819535.5,819565.453,826545.698,4,500,34,
break,html.Screen,10_33_1,2023-11-15T15:46:30.035Z,,,,,,,,,,NaN,,,,,,,,low,high,,,,,,false,,,,false,826533.6999999881,826533.3000000119,,826532.8999999762,,826545.698,4,500,,
break_continue,html.Screen,10_33_2,2023-11-15T15:46:30.036Z,,,,,,,,,,NaN,,,,,,,,low,high,,,,,,false,,,,false,826534.3999999762,826534.1999999881,,826533.8999999762,,826545.698,4,500,,
sequence,flow.Sequence,10_33,2023-11-15T15:46:30.036Z,,,,,,,,,,6968.7469999881,completion,,,,,,,low,high,,,,,,false,,,,false,826534.6999999881,826534.1999999881,819548.823,819535.3999999762,819565.453,826545.698,4,500,,
trial,html.Screen,10_34_0,2023-11-15T15:46:35.377Z,,,,1,-0.0500182837729639,0.0231316228640781,,true,lh,5329.701999976183,response,-1.1264523937924051,0.8393963825795001,-1.0026599915461971,0.729579583367798,0.7234787880003342,-1.008535870267508,low,high,,ISIC_2246150.JPG,9,ISIC_0032095.JPG,56,false,lh,keypress(e),0,false,831875.6999999881,831875.3999999762,826528.895,826534.8999999762,826545.698,831889.451,4,500,35,
break,html.Screen,10_34_1,2023-11-15T15:46:35.379Z,,,,,,,,,,NaN,,,,,,,,low,high,,,,,,false,,,,false,831876.8999999762,831876.5999999642,,831876.0999999642,,831889.451,4,500,,
break_continue,html.Screen,10_34_2,2023-11-15T15:46:35.379Z,,,,,,,,,,NaN,,,,,,,,low,high,,,,,,false,,,,false,831877.6999999881,831877.5,,831877.1999999881,,831889.451,4,500,,
sequence,flow.Sequence,10_34,2023-11-15T15:46:35.380Z,,,,,,,,,,5331.802000000025,completion,,,,,,,low,high,,,,,,false,,,,false,831878,831877.5,826528.895,826534.8999999762,826545.698,831889.451,4,500,,
trial,html.Screen,10_35_0,2023-11-15T15:46:37.650Z,,,,1,0.0420795830016583,-0.0226772711905177,,true,ll,2258.1489999642363,response,-1.1063796153389187,0.8393963825795001,-1.0026599915461971,-0.8605921333200546,0.7234787880003342,-1.008535870267508,low,low,,ISIC_0638857.JPG,9,ISIC_0064071.JPG,112,false,ll,keypress(f),0,false,834147.8999999762,834147.5999999642,831872.697,831878.1999999881,831889.451,834160.301,4,500,36,
break,html.Screen,10_35_1,2023-11-15T15:46:37.651Z,,,,,,,,,,NaN,,,,,,,,low,low,,,,,,false,,,,false,834149.0999999642,834148.8000000119,,834148.3000000119,,834160.301,4,500,,
break_continue,html.Screen,10_35_2,2023-11-15T15:46:37.651Z,,,,,,,,,,NaN,,,,,,,,low,low,,,,,,false,,,,false,834149.8000000119,834149.5999999642,,834149.3000000119,,834160.301,4,500,,
sequence,flow.Sequence,10_35,2023-11-15T15:46:37.652Z,,,,,,,,,,2260.1489999642363,completion,,,,,,,low,low,,,,,,false,,,,false,834150.1999999881,834149.5999999642,831872.697,831878.1999999881,831889.451,834160.301,4,500,,
trial,html.Screen,10_36_0,2023-11-15T15:46:40.506Z,,,,1,0.0399381815506136,0.0177751789152893,,false,hl,2843.6990000000224,response,0.7753299102004093,0.8393963825795001,-1.0026599915461971,-1.053851019509641,0.7234787880003342,-1.008535870267508,high,low,,ISIC_3981425.JPG,9,ISIC_9511832.JPG,50,false,hh,keypress(i),0,false,837004.3000000119,837004,834143.869,834150.3999999762,834160.301,837015.915,4,500,37,
break,html.Screen,10_36_1,2023-11-15T15:46:40.507Z,,,,,,,,,,NaN,,,,,,,,high,low,,,,,,false,,,,false,837005.5,837005.3000000119,,837004.8000000119,,837015.915,4,500,,
break_continue,html.Screen,10_36_2,2023-11-15T15:46:40.508Z,,,,,,,,,,NaN,,,,,,,,high,low,,,,,,false,,,,false,837006.1999999881,837005.8999999762,,837005.6999999881,,837015.915,4,500,,
sequence,flow.Sequence,10_36,2023-11-15T15:46:40.508Z,,,,,,,,,,2845.5989999761805,completion,,,,,,,high,low,,,,,,false,,,,false,837006.5,837005.8999999762,834143.869,834150.3000000119,834160.301,837015.915,4,500,,
trial,html.Screen,10_37_0,2023-11-15T15:46:43.194Z,,,,1,-0.0646883165340005,-0.0250974824557198,,true,hh,2675.784999988042,response,0.7291462397404709,0.8393963825795001,-1.0026599915461971,0.9195149254716736,0.7234787880003342,-1.008535870267508,high,high,,ISIC_0069515.JPG,9,ISIC_3445468.JPG,243,false,hh,keypress(i),0,false,839692,839691.6999999881,836999.328,837006.8000000119,837015.915,839704.63,4,500,38,
break,html.Screen,10_37_1,2023-11-15T15:46:43.195Z,,,,,,,,,,NaN,,,,,,,,high,high,,,,,,false,,,,false,839693.0999999642,839692.8000000119,,839692.3999999762,,839704.63,4,500,,
break_continue,html.Screen,10_37_2,2023-11-15T15:46:43.195Z,,,,,,,,,,NaN,,,,,,,,high,high,,,,,,false,,,,false,839693.8000000119,839693.5,,839693.3999999762,,839704.63,4,500,,
sequence,flow.Sequence,10_37,2023-11-15T15:46:43.196Z,,,,,,,,,,2677.5849999999627,completion,,,,,,,high,high,,,,,,false,,,,false,839694.0999999642,839693.5,836999.328,837006.5999999642,837015.915,839704.63,4,500,,
trial,html.Screen,10_38_0,2023-11-15T15:46:49.936Z,,,,1,0.0560021488981517,-0.0058131881595011,,true,ll,6729.469999964233,response,-0.8579451262594331,0.8393963825795001,-1.0026599915461971,-0.8472659344792351,0.7234787880003342,-1.008535870267508,low,low,,ISIC_0000077.JPG,9,ISIC_0067172.JPG,112,false,ll,keypress(f),0,false,846434.1999999881,846434.0999999642,839687.721,839694.3000000119,839704.63,846450.918,4,500,39,
break,html.Screen,10_38_1,2023-11-15T15:46:49.937Z,,,,,,,,,,NaN,,,,,,,,low,low,,,,,,false,,,,false,846434.5,846434.3000000119,,846434.3000000119,,846450.918,4,500,,
break_continue,html.Screen,10_38_2,2023-11-15T15:46:49.937Z,,,,,,,,,,NaN,,,,,,,,low,low,,,,,,false,,,,false,846434.8000000119,846434.6999999881,,846434.5999999642,,846450.918,4,500,,
sequence,flow.Sequence,10_38,2023-11-15T15:46:49.937Z,,,,,,,,,,6730.069999988074,completion,,,,,,,low,low,,,,,,false,,,,false,846434.8000000119,846434.6999999881,839687.721,839694.3000000119,839704.63,846450.918,4,500,,
trial,html.Screen,10_39_0,2023-11-15T15:46:55.682Z,,,,1,-0.0372699196710335,0.0646614895271859,,false,lh,5729.082000000053,response,-0.9674279172871372,0.8393963825795001,-1.0026599915461971,0.7134300562904723,0.7234787880003342,-1.008535870267508,low,high,,ISIC_1175170.JPG,9,ISIC_9130157.JPG,56,false,hh,keypress(i),0,false,852180.3999999762,852180,846434.385,846434.8000000119,846450.918,852195.6,4,500,40,
break,html.Screen,10_39_1,2023-11-15T15:46:55.684Z,,,,,,,,,,NaN,,,,,,,,low,high,,,,,,false,,,,false,852181.5,852181.1999999881,,852180.6999999881,,852195.6,4,500,,
break_continue,html.Screen,10_39_2,2023-11-15T15:46:55.684Z,,,,,,,,,,NaN,,,,,,,,low,high,,,,,,false,,,,false,852182.3000000119,852182,,852181.8000000119,,852195.6,4,500,,
sequence,flow.Sequence,10_39,2023-11-15T15:46:55.685Z,,,,,,,,,,5731.082000000053,completion,,,,,,,low,high,,,,,,false,,,,false,852182.5999999642,852182,846434.385,846434.8000000119,846450.918,852195.6,4,500,,
trial,html.Screen,10_40_0,2023-11-15T15:47:03.281Z,,,,1,-0.0729466326865927,0.0055109446314237,,false,hl,7582.799999976181,response,0.7368905194906678,0.8393963825795001,-1.0026599915461971,-0.8863051738178956,0.7234787880003342,-1.008535870267508,high,low,,ISIC_0032597.JPG,9,ISIC_8001757.JPG,50,false,ll,keypress(f),0,false,859778.5999999642,859778.3999999762,852178.936,852182.8999999762,852195.6,859793.681,4,500,41,
break,html.Screen,10_40_1,2023-11-15T15:47:03.281Z,,,,,,,,,,NaN,,,,,,,,high,low,,,,,,false,,,,false,859779,859778.8999999762,,859778.6999999881,,859793.681,4,500,,
break_continue,html.Screen,10_40_2,2023-11-15T15:47:03.281Z,,,,,,,,,,NaN,,,,,,,,high,low,,,,,,false,,,,false,859779.1999999881,859779.0999999642,,859779.0999999642,,859793.681,4,500,,
sequence,flow.Sequence,10_40,2023-11-15T15:47:03.281Z,,,,,,,,,,7583.4999999642605,completion,,,,,,,high,low,,,,,,false,,,,false,859779.3000000119,859779.0999999642,852178.936,852182.8000000119,852195.6,859793.681,4,500,,
trial,html.Screen,10_41_0,2023-11-15T15:47:09.569Z,,,,1,-0.0597592587797575,,,false,lh,6272.819000000018,response,-0.8277658066009654,0.8393963825795001,-1.0026599915461971,0.708917192410697,0.7234787880003342,-1.008535870267508,low,high,,ISIC_0071367.JPG,9,ISIC_0033168.JPG,56,false,hl,keypress(j),0,false,866066.5999999642,866066.5,859777.031,859779.3999999762,859793.681,866072.367,4,500,42,
break,html.Screen,10_41_1,2023-11-15T15:47:09.569Z,,,,,,,,,,NaN,,,,,,,,low,high,,,,,,false,,,,false,866066.8999999762,866066.8000000119,,866066.6999999881,,866072.367,4,500,,
break_continue,html.Screen,10_41_2,2023-11-15T15:47:09.569Z,,,,,,,,,,NaN,,,,,,,,low,high,,,,,,false,,,,false,866067.0999999642,866067.0999999642,,866067,,866072.367,4,500,,
sequence,flow.Sequence,10_41,2023-11-15T15:47:09.569Z,,,,,,,,,,6273.418999964255,completion,,,,,,,low,high,,,,,,false,,,,false,866067.1999999881,866067.0999999642,859777.031,859779.3999999762,859793.681,866072.367,4,500,,
trial,html.Screen,10_42_0,2023-11-15T15:47:16.658Z,,,,1,0.0399381815506136,0.0177751789152893,,true,hl,7083.532999976189,response,0.7450700429395554,0.8393963825795001,-1.0026599915461971,-1.1659665266603083,0.7234787880003342,-1.008535870267508,high,low,,ISIC_3981425.JPG,9,ISIC_3736075.JPG,50,false,hl,keypress(j),0,false,873156.1999999881,873155.8999999762,866055.805,866067.3000000119,866072.367,873169.685,4,500,43,
break,html.Screen,10_42_1,2023-11-15T15:47:16.659Z,,,,,,,,,,NaN,,,,,,,,high,low,,,,,,false,,,,false,873157.3000000119,873157,,873156.5,,873169.685,4,500,,
break_continue,html.Screen,10_42_2,2023-11-15T15:47:16.660Z,,,,,,,,,,NaN,,,,,,,,high,low,,,,,,false,,,,false,873158,873157.8000000119,,873157.3999999762,,873169.685,4,500,,
sequence,flow.Sequence,10_42,2023-11-15T15:47:16.660Z,,,,,,,,,,7085.433000011952,completion,,,,,,,high,low,,,,,,false,,,,false,873158.1999999881,873157.8000000119,866055.805,866067.3000000119,866072.367,873169.685,4,500,,
trial,html.Screen,10_43_0,2023-11-15T15:47:19.154Z,,,,1,-0.0372699196710335,0.0646614895271859,,false,hh,2482.115000011865,response,0.6993338627325044,0.8393963825795001,-1.0026599915461971,0.6558016348302559,0.7234787880003342,-1.008535870267508,high,high,,ISIC_1175170.JPG,8,ISIC_0067985.JPG,243,false,hl,keypress(j),0,false,875652.1999999881,875651.8000000119,873153.033,873158.5,873169.685,875657.69,4,500,44,
break,html.Screen,10_43_1,2023-11-15T15:47:19.155Z,,,,,,,,,,NaN,,,,,,,,high,high,,,,,,false,,,,false,875653.3000000119,875653.0999999642,,875652.5999999642,,875657.69,4,500,,
break_continue,html.Screen,10_43_2,2023-11-15T15:47:19.156Z,,,,,,,,,,NaN,,,,,,,,high,high,,,,,,false,,,,false,875654.0999999642,875653.8000000119,,875653.5999999642,,875657.69,4,500,,
sequence,flow.Sequence,10_43,2023-11-15T15:47:19.156Z,,,,,,,,,,2484.115000011865,completion,,,,,,,high,high,,,,,,false,,,,false,875654.3999999762,875653.8000000119,873153.033,873158.3999999762,873169.685,875657.69,4,500,,
trial,html.Screen,10_44_0,2023-11-15T15:47:22.355Z,,,,1,0.0399381815506136,0.0177751789152893,,true,hl,3194.409999964293,response,0.6714344890480403,0.8393963825795001,-1.0026599915461971,-1.1317411618506656,0.7234787880003342,-1.008535870267508,high,low,,ISIC_3981425.JPG,9,ISIC_3691320.JPG,50,false,hl,keypress(j),0,false,878852.5,878852.0999999642,875641.175,875654.6999999881,875657.69,878863.948,4,500,45,
break,html.Screen,10_44_1,2023-11-15T15:47:22.356Z,,,,,,,,,,NaN,,,,,,,,high,low,,,,,,false,,,,false,878853.6999999881,878853.3999999762,,878852.8000000119,,878863.948,4,500,,
break_continue,html.Screen,10_44_2,2023-11-15T15:47:22.356Z,,,,,,,,,,NaN,,,,,,,,high,low,,,,,,false,,,,false,878854.5,878854.0999999642,,878853.8999999762,,878863.948,4,500,,
sequence,flow.Sequence,10_44,2023-11-15T15:47:22.357Z,,,,,,,,,,3196.409999964293,completion,,,,,,,high,low,,,,,,false,,,,false,878854.6999999881,878854.0999999642,875641.175,875654.5999999642,875657.69,878863.948,4,500,,
trial,html.Screen,10_45_0,2023-11-15T15:47:24.097Z,,,,1,-0.0488365673064833,0.0229344142397166,,true,hl,1730.852000011946,response,0.6971413872676647,0.8393963825795001,-1.0026599915461971,-1.040122402473425,0.7234787880003342,-1.008535870267508,high,low,,ISIC_0056915.JPG,8,ISIC_8195528.JPG,50,false,hl,keypress(j),0,false,880595,880594.8000000119,878847.496,878854.8999999762,878863.948,880600.614,4,500,46,
break,html.Screen,10_45_1,2023-11-15T15:47:24.098Z,,,,,,,,,,NaN,,,,,,,,high,low,,,,,,false,,,,false,880595.6999999881,880595.5999999642,,880595.1999999881,,880600.614,4,500,,
break_continue,html.Screen,10_45_2,2023-11-15T15:47:24.098Z,,,,,,,,,,NaN,,,,,,,,high,low,,,,,,false,,,,false,880596.0999999642,880596,,880595.8000000119,,880600.614,4,500,,
sequence,flow.Sequence,10_45,2023-11-15T15:47:24.098Z,,,,,,,,,,1732.0520000000251,completion,,,,,,,high,low,,,,,,false,,,,false,880596.1999999881,880596,878847.496,878854.8999999762,878863.948,880600.614,4,500,,
trial,html.Screen,10_46_0,2023-11-15T15:47:35.092Z,,,,1,-0.0646883165340005,-0.0250974824557198,,,,11021.656000000075,timeout,-0.8191491070125395,0.8393963825795001,-1.0026599915461971,-0.9768428530424166,0.7234787880003342,-1.008535870267508,low,low,,ISIC_0069515.JPG,9,ISIC_2565986.JPG,112,false,,,0,false,891589.8999999762,891589.5999999642,880584.12,880596.3999999762,880600.614,891622.27,4,500,47,
break,html.Screen,10_46_1,2023-11-15T15:47:35.093Z,,,,,,,,,,NaN,,,,,,,,low,low,,,,,,false,,,,false,891590.8000000119,891590.5999999642,,891590.1999999881,,891622.27,4,500,,
break_continue,html.Screen,10_46_2,2023-11-15T15:47:35.093Z,,,,,,,,,,NaN,,,,,,,,low,low,,,,,,false,,,,false,891591.3999999762,891591.1999999881,,891591,,891622.27,4,500,,
sequence,flow.Sequence,10_46,2023-11-15T15:47:35.094Z,,,,,,,,,,10990.585999988136,completion,,,,,,,low,low,,,,,,false,,,,false,891591.5999999642,891591.1999999881,880584.12,880596.3999999762,880600.614,891622.27,4,500,,
trial,html.Screen,10_47_0,2023-11-15T15:47:38.347Z,,,,1,-0.0050319651598106,0.047524453347389,,true,hl,3221.9299999880604,response,0.6691956703601462,0.8393963825795001,-1.0026599915461971,-0.9155564240089548,0.7234787880003342,-1.008535870267508,high,low,,ISIC_0027081.JPG,9,ISIC_0010581.JPG,50,false,hl,keypress(j),0,false,894844.5,894844.1999999881,891605.545,891591.8000000119,891622.27,894861.766,4,500,48,
break,html.Screen,10_47_1,2023-11-15T15:47:38.348Z,,,,,,,,,,NaN,,,,,,,,high,low,,,,,,false,,,,false,894845.5999999642,894845.3000000119,,894844.8999999762,,894861.766,4,500,,
break_continue,html.Screen,10_47_2,2023-11-15T15:47:38.348Z,,,,,,,,,,NaN,,,,,,,,high,low,,,,,,false,,,,false,894846.3000000119,894846.0999999642,,894845.8000000119,,894861.766,4,500,,
sequence,flow.Sequence,10_47,2023-11-15T15:47:38.349Z,,,,,,,,,,3223.8299999642186,completion,,,,,,,high,low,,,,,,false,,,,false,894846.5999999642,894846.0999999642,891605.545,891591.8000000119,891622.27,894861.766,4,500,,
trial,html.Screen,10_48_0,2023-11-15T15:47:42.144Z,,,,1,0.0395849059583371,-0.049996355475379,,false,ll,3780.534000011976,response,-1.1355178163103097,0.8393963825795001,-1.0026599915461971,-0.866806488363904,0.7234787880003342,-1.008535870267508,low,low,,ISIC_4042619.JPG,9,ISIC_3520750.JPG,112,false,hh,keypress(i),0,false,898642.3999999762,898642.3000000119,894845.114,894846.8000000119,894861.766,898652.405,4,500,49,
break,html.Screen,10_48_1,2023-11-15T15:47:42.145Z,,,,,,,,,,NaN,,,,,,,,low,low,,,,,,false,,,,false,898642.8999999762,898642.8000000119,,898642.5,,898652.405,4,500,,
break_continue,html.Screen,10_48_2,2023-11-15T15:47:42.145Z,,,,,,,,,,NaN,,,,,,,,low,low,,,,,,false,,,,false,898643.1999999881,898643.0999999642,,898643,,898652.405,4,500,,
sequence,flow.Sequence,10_48,2023-11-15T15:47:42.145Z,,,,,,,,,,3781.333999964292,completion,,,,,,,low,low,,,,,,false,,,,false,898643.1999999881,898643.0999999642,894845.114,894846.8000000119,894861.766,898652.405,4,500,,
trial,html.Screen,10_49_0,2023-11-15T15:47:44.034Z,,,,1,-0.0207120852539861,-0.0589023744433183,,true,hl,1879.395000011893,response,0.8087127179888679,0.8393963825795001,-1.0026599915461971,-0.8480635840272462,0.7234787880003342,-1.008535870267508,high,low,,ISIC_7973601.JPG,9,ISIC_3941147.JPG,50,false,hl,keypress(j),0,false,900532.0999999642,900531.8000000119,898635.802,898643.3999999762,898652.405,900539.441,4,500,50,
break,html.Screen,10_49_1,2023-11-15T15:47:44.035Z,,,,,,,,,,NaN,,,,,,,,high,low,,,,,,false,,,,false,900533.3000000119,900533.0999999642,,900532.5,,900539.441,4,500,,
break_continue,html.Screen,10_49_2,2023-11-15T15:47:44.036Z,,,,,,,,,,NaN,,,,,,,,high,low,,,,,,false,,,,false,900534,900533.8000000119,,900533.5,,900539.441,4,500,,
sequence,flow.Sequence,10_49,2023-11-15T15:47:44.036Z,,,,,,,,,,1881.395000011893,completion,,,,,,,high,low,,,,,,false,,,,false,900534.1999999881,900533.8000000119,898635.802,898643.3999999762,898652.405,900539.441,4,500,,
trial,html.Screen,10_50_0,2023-11-15T15:47:48.899Z,,,,1,-0.0488365673064833,0.0229344142397166,,false,hh,4856.4589999761665,response,0.9303292478996148,0.8393963825795001,-1.0026599915461971,0.8099604275482958,0.7234787880003342,-1.008535870267508,high,high,,ISIC_0056915.JPG,8,ISIC_0068580.JPG,243,false,ll,keypress(f),0,false,905396.1999999881,905395.8999999762,900522.824,900534.5,900539.441,905398.972,4,500,51,
break,html.Screen,10_50_1,2023-11-15T15:47:48.900Z,,,,,,,,,,NaN,,,,,,,,high,high,,,,,,false,,,,false,905397.3999999762,905397.0999999642,,905396.6999999881,,905398.972,4,500,,
