sender,sender_type,sender_id,timestamp,meta,,age,blockNo,c1,c2,condition,correct,correctResponse,duration,ended_on,f1,f1_high,f1_low,f2,f2_high,f2_low,feature_level1,feature_level2,gender,img_left,img_reveal,img_right,n_target_images,practice,response,response_action,selection_duration,staircase,time_commit,time_end,time_render,time_run,time_show,time_switch,total_blocks,total_trials,trialNo,url
informed_consent,html.Screen,0,2023-11-15T15:19:30.022Z,"{""labjs_version"":""20.2.4"",""labjs_build"":{""flavor"":""development"",""commit"":""f5b4a49f956347addd546a832a3327688c2c0fef""},""location"":""https://labjs.felixhenninger.com/api/labjs_preview/index.html"",""userAgent"":""Mozilla/5.0 (Windows NT 10.0; Win64; x64) AppleWebKit/537.36 (KHTML, like Gecko) Chrome/119.0.0.0 Safari/537.36"",""platform"":""Win32"",""language"":""en-US"",""locale"":""en-US"",""timeZone"":""America/Chicago"",""timezoneOffset"":360,""screen_width"":1920,""screen_height"":1080,""scroll_width"":945,""scroll_height"":918,""window_innerWidth"":945,""window_innerHeight"":966,""devicePixelRatio"":1}",,,,,,,,,67181.72399999702,response,,,,,,,,,,,,,,,consent,click button,,,67683.69999998808,67675.79999999702,477.429,472.69999998807907,494.076,67677.517,,,,{}
Demography form,html.Form,1,2023-11-15T15:19:38.792Z,,,18,,,,,,,8775.582999994032,form submission,,,,,,,,,female,,,,,,,,,,76453.19999998808,76453.09999999404,67661.09,67683.89999999106,67677.517,76460.878,,,,
Welcome,html.Screen,2,2023-11-15T15:20:11.976Z,,,,,,,"[""asym"",""bor""]",,,33175.02199999106,response,,,,,,,,,,,,,,,continue,click button,,,109636.69999998808,109635.89999999106,76444.211,76453.29999999702,76460.878,109644.2,,,,
demo_instructions,html.Screen,3,2023-11-15T15:20:50.400Z,,,,,,,,,,38415.89999999404,response,,,,,,,,,,,,,,,continue,click button,,,148060.59999999404,148060.09999999404,109627.574,109636.79999999702,109644.2,148077.799,,,,
trial,html.Screen,4_0_0,2023-11-15T15:21:06.459Z,,,,0,1.0213365328004047,-1.088524359911891,,true,lh,16041.701000000001,response,-0.8979276789594874,1.0499999999999998,-1.0499999999999998,0.925374811016654,1.0499999999999998,-1.0499999999999998,low,high,,ISIC_5434229.JPG,,ISIC_4208361.JPG,21,true,lh,keypress(e),100,false,164119.79999999702,164119.5,148060.964,148060.79999999702,148077.799,164144.376,1,16,1,
sequence,flow.Sequence,4_0,2023-11-15T15:21:06.459Z,,,,,,,,,,16041.701000000001,completion,,,,,,,low,high,,,,,,true,,,,false,164120.19999998808,164119.5,148060.964,148060.79999999702,148077.799,164144.376,1,16,,
trial,html.Screen,4_1_0,2023-11-15T15:21:08.785Z,,,,0,0.9235571765207048,-1.0008081653938232,,true,lh,2301.7239999940502,response,-1.2075172235545184,1.0499999999999998,-1.0499999999999998,0.9116724966267612,1.0499999999999998,-1.0499999999999998,low,high,,ISIC_8796632.JPG,,ISIC_0024235.JPG,21,true,lh,keypress(e),100,false,166446.19999998808,166446.09999999404,164127.701,164120.29999999702,164144.376,166477.644,1,16,2,
sequence,flow.Sequence,4_1,2023-11-15T15:21:08.785Z,,,,,,,,,,2301.7239999940502,completion,,,,,,,low,high,,,,,,true,,,,false,166446.39999999106,166446.09999999404,164127.701,164120.19999998808,164144.376,166477.644,1,16,,
trial,html.Screen,4_2_0,2023-11-15T15:21:16.150Z,,,,0,0.8947611078712571,-0.8960964505004638,,true,lh,7332.555999988079,response,-1.0751036484083878,1.0499999999999998,-1.0499999999999998,1.143906455483852,1.0499999999999998,-1.0499999999999998,low,high,,ISIC_6441128.JPG,,ISIC_0064406.JPG,21,true,lh,keypress(e),100,false,173810.39999999106,173810.19999998808,166461.238,166446.5,166477.644,173827.877,1,16,3,
sequence,flow.Sequence,4_2,2023-11-15T15:21:16.151Z,,,,,,,,,,7332.555999988079,completion,,,,,,,low,high,,,,,,true,,,,false,173810.69999998808,173810.19999998808,166461.238,166446.5,166477.644,173827.877,1,16,,
trial,html.Screen,4_3_0,2023-11-15T15:21:19.836Z,,,,0,0.8655167308525522,-0.9298580423306444,,true,lh,3667.722999994032,response,-0.869932994914832,1.0499999999999998,-1.0499999999999998,0.8880533324432531,1.0499999999999998,-1.0499999999999998,low,high,,ISIC_4603706.JPG,,ISIC_8617084.JPG,21,true,lh,keypress(e),100,false,177495.79999999702,177495.59999999404,173811.036,173810.79999999702,173827.877,177527.667,1,16,4,
sequence,flow.Sequence,4_3,2023-11-15T15:21:19.836Z,,,,,,,,,,3667.722999994032,completion,,,,,,,low,high,,,,,,true,,,,false,177496.09999999404,177495.59999999404,173811.036,173810.79999999702,173827.877,177527.667,1,16,,
trial,html.Screen,4_4_0,2023-11-15T15:21:22.367Z,,,,0,0.9545500235555924,1.2140255839622307,,true,ll,2499.7329999910726,response,-1.131522954199764,1.0499999999999998,-1.0499999999999998,-1.1047184491749509,1.0499999999999998,-1.0499999999999998,low,low,,ISIC_8704257.JPG,,ISIC_1868816.JPG,111,true,ll,keypress(f),100,false,180027.5,180027.39999999106,177511.181,177496.19999998808,177527.667,180044.32,1,16,5,
sequence,flow.Sequence,4_4,2023-11-15T15:21:22.368Z,,,,,,,,,,2499.7329999910726,completion,,,,,,,low,low,,,,,,true,,,,false,180027.79999999702,180027.39999999106,177511.181,177496.19999998808,177527.667,180044.32,1,16,,
trial,html.Screen,4_5_0,2023-11-15T15:21:30.678Z,,,,0,1.2254187569955004,1.174555235109734,,true,ll,8293.279999994033,response,-1.0769490291795207,1.0499999999999998,-1.0499999999999998,-1.0174515954885954,1.0499999999999998,-1.0499999999999998,low,low,,ISIC_0027187.JPG,,ISIC_0028135.JPG,111,true,ll,keypress(f),100,false,188337.69999998808,188337.59999999404,180027.667,180027.89999999106,180044.32,188361.044,1,16,6,
sequence,flow.Sequence,4_5,2023-11-15T15:21:30.678Z,,,,,,,,,,8293.279999994033,completion,,,,,,,low,low,,,,,,true,,,,false,188337.89999999106,188337.59999999404,180027.667,180027.89999999106,180044.32,188361.044,1,16,,
trial,html.Screen,4_6_0,2023-11-15T15:21:33.226Z,,,,0,0.8926778502294954,0.9164454040166848,,true,ll,2524.555999994045,response,-1.200284020742371,1.0499999999999998,-1.0499999999999998,-1.0002918079433898,1.0499999999999998,-1.0499999999999998,low,low,,ISIC_0011460.JPG,,ISIC_0678758.JPG,111,true,ll,keypress(f),100,false,190885.69999998808,190885.59999999404,188344.603,188338,188361.044,190911.07,1,16,7,
sequence,flow.Sequence,4_6,2023-11-15T15:21:33.226Z,,,,,,,,,,2524.555999994045,completion,,,,,,,low,low,,,,,,true,,,,false,190886,190885.59999999404,188344.603,188338,188361.044,190911.07,1,16,,
trial,html.Screen,4_7_0,2023-11-15T15:21:35.598Z,,,,0,1.2296334397777855,1.022420086815287,,true,ll,2346.729999997013,response,-1.1920465299859582,1.0499999999999998,-1.0499999999999998,-0.9548921292696696,1.0499999999999998,-1.0499999999999998,low,low,,ISIC_0073173.JPG,,ISIC_5566396.JPG,111,true,ll,keypress(f),100,false,193258.09999999404,193257.79999999702,190894.499,190886.09999999404,190911.07,193277.854,1,16,8,
sequence,flow.Sequence,4_7,2023-11-15T15:21:35.598Z,,,,,,,,,,2346.729999997013,completion,,,,,,,low,low,,,,,,true,,,,false,193258.5,193257.79999999702,190894.499,190886.09999999404,190911.07,193277.854,1,16,,
trial,html.Screen,4_8_0,2023-11-15T15:21:46.919Z,,,,0,-0.8534691366511764,1.03975580494588,,true,hl,11301.045999991067,response,0.7723849213858904,0.9499999999999997,-0.9499999999999997,-0.888372424147899,0.9499999999999997,-0.9499999999999997,high,low,,ISIC_0056788.JPG,,ISIC_3884221.JPG,26,true,hl,keypress(j),100,false,204579.09999999404,204578.89999999106,193261.062,193258.59999999404,193277.854,204611.282,1,16,9,
sequence,flow.Sequence,4_8,2023-11-15T15:21:46.919Z,,,,,,,,,,11301.045999991067,completion,,,,,,,high,low,,,,,,true,,,,false,204579.29999999702,204578.89999999106,193261.062,193258.5,193277.854,204611.282,1,16,,
trial,html.Screen,4_9_0,2023-11-15T15:21:54.123Z,,,,0,-0.879102500583965,1.0933081951979773,,true,hl,7171.617999991053,response,1.0022829373011404,0.9499999999999997,-0.9499999999999997,-0.8311726972863814,0.9499999999999997,-0.9499999999999997,high,low,,ISIC_0046223.JPG,,ISIC_0033287.JPG,26,true,hl,keypress(j),100,false,211783,211782.89999999106,204594.63,204579.39999999106,204611.282,211811.06,1,16,10,
sequence,flow.Sequence,4_9,2023-11-15T15:21:54.123Z,,,,,,,,,,7171.617999991053,completion,,,,,,,high,low,,,,,,true,,,,false,211783.19999998808,211782.89999999106,204594.63,204579.29999999702,204611.282,211811.06,1,16,,
trial,html.Screen,4_10_0,2023-11-15T15:22:01.648Z,,,,0,-0.9696118525781644,0.9244148283103414,,true,hl,7496.539999994042,response,1.0213365328004047,0.9499999999999997,-0.9499999999999997,-1.088524359911891,0.9499999999999997,-0.9499999999999997,high,low,,ISIC_7927525.JPG,,ISIC_5434229.JPG,26,true,hl,keypress(j),100,false,219307.69999998808,219307.59999999404,211794.636,211783.29999999702,211811.06,219327.743,1,16,11,
sequence,flow.Sequence,4_10,2023-11-15T15:22:01.648Z,,,,,,,,,,7496.539999994042,completion,,,,,,,high,low,,,,,,true,,,,false,219307.89999999106,219307.59999999404,211794.636,211783.29999999702,211811.06,219327.743,1,16,,
trial,html.Screen,4_11_0,2023-11-15T15:22:04.643Z,,,,0,-1.1181734135756094,0.944560381774994,,true,hl,2975.2570000000123,response,0.7871162143493278,0.9499999999999997,-0.9499999999999997,-0.8429329800778957,0.9499999999999997,-0.9499999999999997,high,low,,ISIC_9688534.JPG,,ISIC_3439215.JPG,26,true,hl,keypress(j),100,false,222303.09999999404,222303,219311.092,219308,219327.743,222327.834,1,16,12,
sequence,flow.Sequence,4_11,2023-11-15T15:22:04.643Z,,,,,,,,,,2975.2570000000123,completion,,,,,,,high,low,,,,,,true,,,,false,222303.29999999702,222303,219311.092,219308,219327.743,222327.834,1,16,,
trial,html.Screen,4_12_0,2023-11-15T15:22:07.382Z,,,,0,-0.8012073849444404,-0.8279987487454253,,true,hh,2714.5659999910567,response,0.9254369922344792,0.9499999999999997,-0.9499999999999997,0.801722142776163,0.9499999999999997,-0.9499999999999997,high,high,,ISIC_0030703.JPG,,ISIC_3236964.JPG,167,true,hh,keypress(i),100,false,225042.39999999106,225042.39999999106,222311.182,222303.29999999702,222327.834,225061.267,1,16,13,
sequence,flow.Sequence,4_12,2023-11-15T15:22:07.383Z,,,,,,,,,,2714.5659999910567,completion,,,,,,,high,high,,,,,,true,,,,false,225042.59999999404,225042.39999999106,222311.182,222303.29999999702,222327.834,225061.267,1,16,,
trial,html.Screen,4_13_0,2023-11-15T15:22:09.402Z,,,,0,-1.057008495826831,-1.1278122585028287,,true,hh,2001.1329999910668,response,0.7858981101622865,0.9499999999999997,-0.9499999999999997,1.098700382725708,0.9499999999999997,-0.9499999999999997,high,high,,ISIC_2819798.JPG,,ISIC_0059733.JPG,167,true,hh,keypress(i),100,false,227062.59999999404,227062.39999999106,225044.402,225042.69999998808,225061.267,227094.663,1,16,14,
sequence,flow.Sequence,4_13,2023-11-15T15:22:09.403Z,,,,,,,,,,2001.1329999910668,completion,,,,,,,high,high,,,,,,true,,,,false,227062.69999998808,227062.39999999106,225044.402,225042.69999998808,225061.267,227094.663,1,16,,
trial,html.Screen,4_14_0,2023-11-15T15:22:11.039Z,,,,0,-1.0859458972647518,-0.9241823104580792,,true,hh,1603.7369999910588,response,0.7794764467486859,0.9499999999999997,-0.9499999999999997,0.9078715061989836,0.9499999999999997,-0.9499999999999997,high,high,,ISIC_0011721.JPG,,ISIC_9210255.JPG,167,true,hh,keypress(i),100,false,228698.59999999404,228698.39999999106,227077.866,227062.89999999106,227094.663,228727.852,1,16,15,
sequence,flow.Sequence,4_14,2023-11-15T15:22:11.039Z,,,,,,,,,,1603.7369999910588,completion,,,,,,,high,high,,,,,,true,,,,false,228698.69999998808,228698.39999999106,227077.866,227062.79999999702,227094.663,228727.852,1,16,,
trial,html.Screen,4_15_0,2023-11-15T15:22:13.027Z,,,,0,-0.7647549879784493,-0.777443662430605,,true,hh,1959.0479999910458,response,0.8990371936242809,0.9499999999999997,-0.9499999999999997,0.9654850730344297,0.9499999999999997,-0.9499999999999997,high,high,,ISIC_0012435.JPG,,ISIC_0010308.JPG,167,true,hh,keypress(i),100,false,230687.09999999404,230686.89999999106,228711.323,228698.79999999702,228727.852,230711.143,1,16,16,
sequence,flow.Sequence,4_15,2023-11-15T15:22:13.028Z,,,,,,,,,,1959.0479999910458,completion,,,,,,,high,high,,,,,,true,,,,false,230687.5,230686.89999999106,228711.323,228698.79999999702,228727.852,230711.143,1,16,,
demonstration_loop,flow.Loop,4,2023-11-15T15:22:13.028Z,,,,,,,,,,82609.10099999106,completion,,,,,,,,,,,,,,true,,,,false,230687.69999998808,230686.89999999106,148060.964,148060.79999999702,148077.799,230711.143,1,16,,
practice_instructions,html.Screen,5,2023-11-15T15:22:27.377Z,,,,,,,,,,14316.956999994029,response,,,,,,,,,,,,,,,continue,click button,,,245036.89999999106,245028.09999999404,230694.468,230687.79999999702,230711.143,245044.442,,,,
trial,html.Screen,6_0_0,2023-11-15T15:22:30.754Z,,,,1,0.8023139365538781,0.8089024151174812,,true,ll,3369.3579999970098,response,-0.7647836924873925,0.9499999999999997,-0.9499999999999997,-0.8316555381467203,0.9499999999999997,-0.9499999999999997,low,low,,ISIC_3897960.JPG,,ISIC_0027145.JPG,142,true,ll,keypress(f),0,false,248414.09999999404,248413.79999999702,245027.855,245037.09999999404,245044.442,248444.637,1,20,1,
sequence,flow.Sequence,6_0,2023-11-15T15:22:30.755Z,,,,,,,,,,3369.3579999970098,completion,,,,,,,low,low,,,,,,true,,,,false,248414.5,248413.79999999702,245027.855,245037.09999999404,245044.442,248444.637,1,20,,
trial,html.Screen,6_1_0,2023-11-15T15:22:33.465Z,,,,1,-0.8534691366511764,1.03975580494588,,true,hl,2679.662999997032,response,1.0213365328004047,0.9499999999999997,-0.9499999999999997,-1.088524359911891,0.9499999999999997,-0.9499999999999997,high,low,,ISIC_0056788.JPG,,ISIC_5434229.JPG,26,true,hl,keypress(j),0,false,251124.29999999702,251124.29999999702,248427.828,248414.69999998808,248444.637,251127.731,1,20,2,
sequence,flow.Sequence,6_1,2023-11-15T15:22:33.465Z,,,,,,,,,,2679.662999997032,completion,,,,,,,high,low,,,,,,true,,,,false,251124.5,251124.29999999702,248427.828,248414.69999998808,248444.637,251127.731,1,20,,
trial,html.Screen,6_2_0,2023-11-15T15:22:35.033Z,,,,1,-0.7877939497981142,0.8415032780288271,,true,hl,1564.8689999940398,response,0.796241477082623,0.9499999999999997,-0.9499999999999997,-0.9017449335975743,0.9499999999999997,-0.9499999999999997,high,low,,ISIC_0067308.JPG,,ISIC_8588033.JPG,26,true,hl,keypress(j),0,false,252692.79999999702,252692.59999999404,251111.005,251124.5,251127.731,252694.431,1,20,3,
sequence,flow.Sequence,6_2,2023-11-15T15:22:35.033Z,,,,,,,,,,1564.8689999940398,completion,,,,,,,high,low,,,,,,true,,,,false,252693,252692.59999999404,251111.005,251124.5,251127.731,252694.431,1,20,,
trial,html.Screen,6_3_0,2023-11-15T15:22:36.618Z,,,,1,-0.9579209317488,1.0147487101263497,,true,hl,1582.6689999940281,response,0.8200962008791046,0.9499999999999997,-0.9499999999999997,-0.7936051642828523,0.9499999999999997,-0.9499999999999997,high,low,,ISIC_8124482.JPG,,ISIC_0027031.JPG,26,true,hl,keypress(j),0,false,254277.29999999702,254277.09999999404,252677.724,252693.09999999404,252694.431,254294.628,1,20,4,
sequence,flow.Sequence,6_3,2023-11-15T15:22:36.618Z,,,,,,,,,,1582.6689999940281,completion,,,,,,,high,low,,,,,,true,,,,false,254277.59999999404,254277.09999999404,252677.724,252693.09999999404,252694.431,254294.628,1,20,,
trial,html.Screen,6_4_0,2023-11-15T15:22:39.226Z,,,,1,0.7911024675435955,-0.7975977016137676,,true,lh,2590.9719999940426,response,-1.0656673213158945,0.9499999999999997,-0.9499999999999997,0.8082541692781954,0.9499999999999997,-0.9499999999999997,low,high,,ISIC_5813642.JPG,,ISIC_0033985.JPG,28,true,lh,keypress(e),0,false,256885.79999999702,256885.59999999404,254277.872,254277.69999998808,254294.628,256894.492,1,20,5,
sequence,flow.Sequence,6_4,2023-11-15T15:22:39.227Z,,,,,,,,,,2590.9719999940426,completion,,,,,,,low,high,,,,,,true,,,,false,256886.19999998808,256885.59999999404,254277.872,254277.69999998808,254294.628,256894.492,1,20,,
trial,html.Screen,6_5_0,2023-11-15T15:22:41.177Z,,,,1,0.943978570218156,0.9420387258741144,,true,ll,1942.407999991061,response,-0.9029354290897352,0.9499999999999997,-0.9499999999999997,-1.1346860677105404,0.9499999999999997,-0.9499999999999997,low,low,,ISIC_0011642.JPG,,ISIC_4153687.JPG,142,true,ll,keypress(f),0,false,258837.09999999404,258836.89999999106,256877.941,256886.29999999702,256894.492,258844.477,1,20,6,
sequence,flow.Sequence,6_5,2023-11-15T15:22:41.178Z,,,,,,,,,,1942.407999991061,completion,,,,,,,low,low,,,,,,true,,,,false,258837.29999999702,258836.89999999106,256877.941,256886.29999999702,256894.492,258844.477,1,20,,
trial,html.Screen,6_6_0,2023-11-15T15:22:42.329Z,,,,1,-0.990489579313564,0.7747897983133127,,true,hl,1144.122999994026,response,0.991146183030456,0.9499999999999997,-0.9499999999999997,-0.9949639823722534,0.9499999999999997,-0.9499999999999997,high,low,,ISIC_7030404.JPG,,ISIC_6342224.JPG,26,true,hl,keypress(j),0,false,259988.69999998808,259988.59999999404,258827.833,258837.5,258844.477,259994.557,1,20,7,
sequence,flow.Sequence,6_6,2023-11-15T15:22:42.329Z,,,,,,,,,,1144.122999994026,completion,,,,,,,high,low,,,,,,true,,,,false,259988.79999999702,259988.59999999404,258827.833,258837.5,258844.477,259994.557,1,20,,
trial,html.Screen,6_7_0,2023-11-15T15:22:43.393Z,,,,1,0.8035152873995188,-0.82868450251632,,true,lh,1058.0429999940388,response,-1.020990671779317,0.9499999999999997,-0.9499999999999997,1.0116513850520903,0.9499999999999997,-0.9499999999999997,low,high,,ISIC_0010671.JPG,,ISIC_0011995.JPG,28,true,lh,keypress(e),0,false,261052.79999999702,261052.59999999404,259977.799,259988.89999999106,259994.557,261061.194,1,20,8,
sequence,flow.Sequence,6_7,2023-11-15T15:22:43.393Z,,,,,,,,,,1058.0429999940388,completion,,,,,,,low,high,,,,,,true,,,,false,261052.89999999106,261052.59999999404,259977.799,259988.89999999106,259994.557,261061.194,1,20,,
trial,html.Screen,6_8_0,2023-11-15T15:22:44.905Z,,,,1,1.0996798766352407,0.9259269949251356,,true,ll,1503.405999994051,response,-0.8093923499033241,0.9499999999999997,-0.9499999999999997,-1.102485543525293,0.9499999999999997,-0.9499999999999997,low,low,,ISIC_0030970.JPG,,ISIC_1208705.JPG,142,true,ll,keypress(f),0,false,262564.89999999106,262564.59999999404,261044.409,261053,261061.194,262577.757,1,20,9,
sequence,flow.Sequence,6_8,2023-11-15T15:22:44.905Z,,,,,,,,,,1503.405999994051,completion,,,,,,,low,low,,,,,,true,,,,false,262565.09999999404,262564.59999999404,261044.409,261052.89999999106,261061.194,262577.757,1,20,,
trial,html.Screen,6_9_0,2023-11-15T15:22:47.153Z,,,,1,0.8426512029386741,0.7924499678897714,,true,ll,2234.8429999940563,response,-0.9191486333136276,0.9499999999999997,-0.9499999999999997,-1.001866590114321,0.9499999999999997,-0.9499999999999997,low,low,,ISIC_0013636.JPG,,ISIC_0663941.JPG,142,true,ll,keypress(f),0,false,264812.799999997,264812.59999999404,262561.195,262565.1999999881,262577.757,264827.762,1,20,10,
sequence,flow.Sequence,6_9,2023-11-15T15:22:47.153Z,,,,,,,,,,2234.8429999940563,completion,,,,,,,low,low,,,,,,true,,,,false,264812.89999999106,264812.59999999404,262561.195,262565.1999999881,262577.757,264827.762,1,20,,
trial,html.Screen,6_10_0,2023-11-15T15:22:48.449Z,,,,1,0.796241477082623,-0.9017449335975743,,true,lh,1280.6379999910714,response,-0.8179805381029407,0.9499999999999997,-0.9499999999999997,0.8578467162767749,0.9499999999999997,-0.9499999999999997,low,high,,ISIC_8588033.JPG,,ISIC_0067253.JPG,28,true,lh,keypress(e),0,false,266108.59999999404,266108.39999999106,264811.125,264813,264827.762,266111.124,1,20,11,
sequence,flow.Sequence,6_10,2023-11-15T15:22:48.449Z,,,,,,,,,,1280.6379999910714,completion,,,,,,,low,high,,,,,,true,,,,false,266108.799999997,266108.39999999106,264811.125,264812.89999999106,264827.762,266111.124,1,20,,
trial,html.Screen,6_11_0,2023-11-15T15:22:49.713Z,,,,1,0.9866439901618108,0.9294281370493894,,true,ll,1261.4759999940288,response,-0.9102336581208296,0.9499999999999997,-0.9499999999999997,-1.0305113346799688,0.9499999999999997,-0.9499999999999997,low,low,,ISIC_0072953.JPG,,ISIC_0068530.JPG,142,true,ll,keypress(f),0,false,267372.799999997,267372.59999999404,266094.668,266108.799999997,266111.124,267377.796,1,20,12,
sequence,flow.Sequence,6_11,2023-11-15T15:22:49.713Z,,,,,,,,,,1261.4759999940288,completion,,,,,,,low,low,,,,,,true,,,,false,267372.89999999106,267372.59999999404,266094.668,266108.799999997,266111.124,267377.796,1,20,,
trial,html.Screen,6_12_0,2023-11-15T15:22:51.569Z,,,,1,-1.0113132640329443,-0.7686728458591023,,true,hh,1850.903999988106,response,0.9441762364280936,0.9499999999999997,-0.9499999999999997,0.7652061050527971,0.9499999999999997,-0.9499999999999997,high,high,,ISIC_9675304.JPG,,ISIC_0065521.JPG,167,true,hh,keypress(i),0,false,269229,269228.6999999881,267361.139,267373,267377.796,269244.736,1,20,13,
sequence,flow.Sequence,6_12,2023-11-15T15:22:51.570Z,,,,,,,,,,1850.903999988106,completion,,,,,,,high,high,,,,,,true,,,,false,269229.1999999881,269228.6999999881,267361.139,267373,267377.796,269244.736,1,20,,
trial,html.Screen,6_13_0,2023-11-15T15:22:58.762Z,,,,1,-0.9493297220358412,-0.9126122723623854,,true,hh,7176.563999997044,response,1.064818044116379,0.9499999999999997,-0.9499999999999997,1.0146741178993408,0.9499999999999997,-0.9499999999999997,high,high,,ISIC_9738202.JPG,,ISIC_0032504.JPG,167,true,hh,keypress(i),0,false,276421.39999999106,276421.299999997,269227.972,269229.39999999106,269244.736,276427.849,1,20,14,
sequence,flow.Sequence,6_13,2023-11-15T15:22:58.762Z,,,,,,,,,,7176.563999997044,completion,,,,,,,high,high,,,,,,true,,,,false,276421.6999999881,276421.299999997,269227.972,269229.299999997,269244.736,276427.849,1,20,,
trial,html.Screen,6_14_0,2023-11-15T15:23:06.242Z,,,,1,1.0213365328004047,-1.088524359911891,,true,lh,7473.151000000013,response,-0.8809306963311293,0.9499999999999997,-0.9499999999999997,0.8614910030038974,0.9499999999999997,-0.9499999999999997,low,high,,ISIC_5434229.JPG,,ISIC_0013731.JPG,28,true,lh,keypress(e),0,false,283901.1999999881,283901,276411.069,276422,276427.849,283911.167,1,20,15,
sequence,flow.Sequence,6_14,2023-11-15T15:23:06.242Z,,,,,,,,,,7473.151000000013,completion,,,,,,,low,high,,,,,,true,,,,false,283901.39999999106,283901,276411.069,276421.89999999106,276427.849,283911.167,1,20,,
trial,html.Screen,6_15_0,2023-11-15T15:23:09.074Z,,,,1,-1.056824784611021,-0.8736902702135552,,true,hh,2822.132999997004,response,0.7902359375375733,0.9499999999999997,-0.9499999999999997,0.8607451825540537,0.9499999999999997,-0.9499999999999997,high,high,,ISIC_0014026.JPG,,ISIC_0899961.JPG,167,true,hh,keypress(i),0,false,286733.5,286733.299999997,283894.31,283901.59999999404,283911.167,286744.473,1,20,16,
sequence,flow.Sequence,6_15,2023-11-15T15:23:09.074Z,,,,,,,,,,2822.132999997004,completion,,,,,,,high,high,,,,,,true,,,,false,286734,286733.299999997,283894.31,283901.5,283911.167,286744.473,1,20,,
trial,html.Screen,6_16_0,2023-11-15T15:23:12.322Z,,,,1,0.887838744955182,-0.7545096650863988,,true,lh,3236.6269999940414,response,-0.869932994914832,0.9499999999999997,-0.9499999999999997,0.8880533324432531,0.9499999999999997,-0.9499999999999997,low,high,,ISIC_1488727.JPG,,ISIC_8617084.JPG,28,true,lh,keypress(e),0,false,289981.1999999881,289981.09999999404,286727.813,286734.1999999881,286744.473,289994.673,1,20,17,
sequence,flow.Sequence,6_16,2023-11-15T15:23:12.322Z,,,,,,,,,,3236.6269999940414,completion,,,,,,,low,high,,,,,,true,,,,false,289981.5,289981.09999999404,286727.813,286734.09999999404,286744.473,289994.673,1,20,,
trial,html.Screen,6_17_0,2023-11-15T15:23:18.259Z,,,,1,-0.8529242055711017,-0.9691635021928308,,true,hh,5922.82699999999,response,1.1345705036261835,0.9499999999999997,-0.9499999999999997,0.8852009725300015,0.9499999999999997,-0.9499999999999997,high,high,,ISIC_8169564.JPG,,ISIC_0027149.JPG,167,true,hh,keypress(i),0,false,295917.59999999404,295917.5,289977.83,289981.6999999881,289994.673,295927.836,1,20,18,
sequence,flow.Sequence,6_17,2023-11-15T15:23:18.259Z,,,,,,,,,,5922.82699999999,completion,,,,,,,high,high,,,,,,true,,,,false,295918,295917.5,289977.83,289981.59999999404,289994.673,295927.836,1,20,,
trial,html.Screen,6_18_0,2023-11-15T15:23:21.210Z,,,,1,-1.0769490291795207,-1.0174515954885954,,true,hh,2940.9639999970095,response,0.7846840640804751,0.9499999999999997,-0.9499999999999997,1.0912590313299513,0.9499999999999997,-0.9499999999999997,high,high,,ISIC_0028135.JPG,,ISIC_0026352.JPG,167,true,hh,keypress(i),0,false,298869,298868.799999997,295911.067,295918.09999999404,295927.836,298877.909,1,20,19,
sequence,flow.Sequence,6_18,2023-11-15T15:23:21.210Z,,,,,,,,,,2940.9639999970095,completion,,,,,,,high,high,,,,,,true,,,,false,298869.299999997,298868.799999997,295911.067,295918.09999999404,295927.836,298877.909,1,20,,
trial,html.Screen,6_19_0,2023-11-15T15:23:23.482Z,,,,1,-0.7784583866003763,0.9641514808986528,,true,hl,2263.290999988094,response,0.7870237732709365,0.9499999999999997,-0.9499999999999997,-0.9172955251119376,0.9499999999999997,-0.9499999999999997,high,low,,ISIC_0011924.JPG,,ISIC_0057716.JPG,26,true,hl,keypress(j),0,false,301141.5,301141.1999999881,298861.095,298869.39999999106,298877.909,301144.523,1,20,20,
sequence,flow.Sequence,6_19,2023-11-15T15:23:23.483Z,,,,,,,,,,2263.290999988094,completion,,,,,,,high,low,,,,,,true,,,,false,301141.799999997,301141.1999999881,298861.095,298869.39999999106,298877.909,301144.523,1,20,,
practice_loop,flow.Loop,6,2023-11-15T15:23:23.483Z,,,,,,,,,,56096.75799998807,completion,,,,,,,,,,,,,,true,,,,false,301142.09999999404,301141.1999999881,245027.855,245037,245044.442,301144.523,1,20,,
stair_instructions,html.Screen,7,2023-11-15T15:23:32.297Z,,,,,,,,,,8811.477000000014,response,,,,,,,,,,,,,,,continue,click button,,,309956.5,309956,301128.004,301142.09999999404,301144.523,309961.183,,,,
trial,html.Screen,8_0_0,2023-11-15T15:23:43.245Z,,,,2,0.039728379742806,-0.0228701131373768,,false,hl,10942.91699999402,response,0.7870237732709365,0.9499999999999997,-0.9499999999999997,-0.9172955251119376,0.9499999999999997,-0.9499999999999997,high,low,,ISIC_0054073.JPG,,ISIC_0057716.JPG,26,false,lh,keypress(e),0,true,320904.09999999404,320904.09999999404,309944.511,309956.6999999881,309961.183,320928.006,1,40,1,
sequence,flow.Sequence,8_0,2023-11-15T15:23:43.245Z,,,,,,,,,,10942.91699999402,completion,,,,,,,high,low,,,,,,false,,,,true,320904.1999999881,320904.09999999404,309944.511,309956.6999999881,309961.183,320928.006,1,40,,
trial,html.Screen,8_1_0,2023-11-15T15:23:47.162Z,,,,2,0.007397293189458,0.0174716772037504,,false,lh,3892.5939999940456,response,-1.0656673213158945,0.9999999999999998,-0.9499999999999997,0.8082541692781954,0.9499999999999997,-0.9999999999999998,low,high,,ISIC_0056226.JPG,,ISIC_0033985.JPG,28,false,ll,keypress(f),0,true,324820.6999999881,324820.59999999404,320911.421,320904.39999999106,320928.006,324827.822,1,40,2,
sequence,flow.Sequence,8_1,2023-11-15T15:23:47.162Z,,,,,,,,,,3892.5939999940456,completion,,,,,,,low,high,,,,,,false,,,,true,324820.89999999106,324820.59999999404,320911.421,320904.39999999106,320928.006,324827.822,1,40,,
trial,html.Screen,8_2_0,2023-11-15T15:23:49.801Z,,,,2,0.0608867680161491,0.0206384042070211,,false,lh,2632.3779999880935,response,-0.991282840649944,0.9999999999999998,-0.9499999999999997,0.9397921099839784,0.9999999999999998,-0.9999999999999998,low,high,,ISIC_0640806.JPG,,ISIC_0000463.JPG,26,false,ll,keypress(f),0,true,327460.1999999881,327460.1999999881,324811.219,324820.89999999106,324827.822,327479.3,1,40,3,
sequence,flow.Sequence,8_2,2023-11-15T15:23:49.801Z,,,,,,,,,,2632.3779999880935,completion,,,,,,,low,high,,,,,,false,,,,true,327460.299999997,327460.1999999881,324811.219,324820.89999999106,324827.822,327479.3,1,40,,
trial,html.Screen,8_3_0,2023-11-15T15:23:54.138Z,,,,2,-0.000047919190197942736,-0.0462652940855003,,true,ll,4317.299999994051,response,-1.048330701104555,0.9999999999999998,-0.9784750809829192,-0.8086625502956353,1.0499999999999998,-0.9999999999999998,low,low,,ISIC_0011507.JPG,,ISIC_0030508.JPG,139,false,ll,keypress(f),0,true,331796.6999999881,331796.59999999404,327444.696,327460.39999999106,327479.3,331811.184,1,40,4,
sequence,flow.Sequence,8_3,2023-11-15T15:23:54.138Z,,,,,,,,,,4317.299999994051,completion,,,,,,,low,low,,,,,,false,,,,true,331797,331796.59999999404,327444.696,327460.39999999106,327479.3,331811.184,1,40,,
trial,html.Screen,8_4_0,2023-11-15T15:23:58.658Z,,,,2,0.0027483411352856,0.0100996915276271,,false,lh,4505.815999999992,response,-0.8809306963311293,0.9999999999999998,-0.9784750809829192,0.8614910030038974,1.0499999999999998,-0.9999999999999998,low,high,,ISIC_7364041.JPG,,ISIC_0013731.JPG,21,false,ll,keypress(f),0,true,336317.09999999404,336317,331794.496,331797.09999999404,331811.184,336327.89,1,40,5,
sequence,flow.Sequence,8_4,2023-11-15T15:23:58.658Z,,,,,,,,,,4505.815999999992,completion,,,,,,,low,high,,,,,,false,,,,true,336317.299999997,336317,331794.496,331797,331811.184,336327.89,1,40,,
trial,html.Screen,8_5_0,2023-11-15T15:24:01.729Z,,,,2,-0.0644357632656846,-0.0501167370292348,,true,ll,3060.409999997006,response,-0.7856271305833468,0.9999999999999998,-0.7947966233133823,-1.154752290903168,1.0999999999999999,-0.9999999999999998,low,low,,ISIC_5207050.JPG,,ISIC_8284685.JPG,165,false,ll,keypress(f),0,true,339388.5,339388.299999997,336311.284,336317.39999999106,336327.89,339394.549,1,40,6,
sequence,flow.Sequence,8_5,2023-11-15T15:24:01.729Z,,,,,,,,,,3060.409999997006,completion,,,,,,,low,low,,,,,,false,,,,true,339388.59999999404,339388.299999997,336311.284,336317.39999999106,336327.89,339394.549,1,40,,
trial,html.Screen,8_6_0,2023-11-15T15:24:12.720Z,,,,2,0.0660839342637046,-0.0657899819532072,,,,11016.756999999983,timeout,-0.8979276789594874,0.9999999999999998,-0.7947966233133823,0.925374811016654,1.0999999999999999,-0.9201897107432573,low,high,,ISIC_0065477.JPG,,ISIC_4208361.JPG,33,false,,,0,true,350378.6999999881,350378.5,339377.848,339388.59999999404,339394.549,350411.306,1,40,7,
sequence,flow.Sequence,8_6,2023-11-15T15:24:12.721Z,,,,,,,,,,10983.951000000001,completion,,,,,,,low,high,,,,,,false,,,,true,350379.09999999404,350378.5,339377.848,339388.59999999404,339394.549,350411.306,1,40,,
trial,html.Screen,8_7_0,2023-11-15T15:24:20.372Z,,,,2,-0.0693466529227737,-0.044703434393184,,true,ll,7618.4939999970375,response,-0.7483736986316007,0.9999999999999998,-0.7947966233133823,-0.9623853708853938,1.0999999999999999,-0.9201897107432573,low,low,,ISIC_0004217.JPG,,ISIC_2844085.JPG,193,false,ll,keypress(f),0,true,358030.09999999404,358029.799999997,350394.615,350379.1999999881,350411.306,358044.656,1,40,8,
sequence,flow.Sequence,8_7,2023-11-15T15:24:20.372Z,,,,,,,,,,7618.4939999970375,completion,,,,,,,low,low,,,,,,false,,,,true,358030.799999997,358029.799999997,350394.615,350379.1999999881,350411.306,358044.656,1,40,,
trial,html.Screen,8_8_0,2023-11-15T15:24:23.899Z,,,,2,-0.0265457942157377,-0.0704357137706731,,false,hl,3512.6439999970025,response,0.8484262439038232,0.9499999999999997,-0.7553795347584972,-0.6791355686919245,1.0499999999999998,-0.8701897107432572,high,low,,ISIC_3123377.JPG,,ISIC_9436034.JPG,34,false,hh,keypress(i),0,true,361557.5,361557.299999997,358027.754,358031.1999999881,358044.656,361561.265,1,40,9,
sequence,flow.Sequence,8_8,2023-11-15T15:24:23.899Z,,,,,,,,,,3512.6439999970025,completion,,,,,,,high,low,,,,,,false,,,,true,361557.799999997,361557.299999997,358027.754,358031.09999999404,358044.656,361561.265,1,40,,
trial,html.Screen,8_9_0,2023-11-15T15:24:26.922Z,,,,2,-0.0516762988734011,0.0130195499281172,,true,hh,3019.3349999940256,response,1.1135119625680223,0.9499999999999997,-0.7553795347584972,0.8824045702297937,1.0499999999999998,-0.9201897107432573,high,high,,ISIC_9978498.JPG,,ISIC_6899527.JPG,133,false,hh,keypress(i),0,true,364580.799999997,364580.59999999404,361544.534,361557.89999999106,361561.265,364594.782,1,40,10,
sequence,flow.Sequence,8_9,2023-11-15T15:24:26.922Z,,,,,,,,,,3019.3349999940256,completion,,,,,,,high,high,,,,,,false,,,,true,364580.89999999106,364580.59999999404,361544.534,361557.89999999106,361561.265,364594.782,1,40,,
trial,html.Screen,8_10_0,2023-11-15T15:24:30.938Z,,,,2,0.0329095507339554,-0.0382899749693245,,false,lh,4001.817999994033,response,-0.7306047092126615,0.9479582663989079,-0.7553795347584972,0.9725548307155644,1.0499999999999998,-0.9201897107432573,low,high,,ISIC_8812781.JPG,,ISIC_0065469.JPG,41,false,ll,keypress(f),0,true,368596.799999997,368596.59999999404,364578.066,364581,364594.782,368611.513,1,40,11,
sequence,flow.Sequence,8_10,2023-11-15T15:24:30.938Z,,,,,,,,,,4001.817999994033,completion,,,,,,,low,high,,,,,,false,,,,true,368596.89999999106,368596.59999999404,364578.066,364580.89999999106,364594.782,368611.513,1,40,,
trial,html.Screen,8_11_0,2023-11-15T15:24:33.570Z,,,,2,-0.0516762988734011,0.0130195499281172,,false,hl,2617.0869999940624,response,0.991146183030456,0.9479582663989079,-0.7553795347584972,-0.9949639823722534,1.0999999999999999,-0.9201897107432573,high,low,,ISIC_9978498.JPG,,ISIC_6342224.JPG,26,false,hh,keypress(i),0,true,371228.6999999881,371228.59999999404,368594.465,368597,368611.513,371244.842,1,40,12,
sequence,flow.Sequence,8_11,2023-11-15T15:24:33.570Z,,,,,,,,,,2617.0869999940624,completion,,,,,,,high,low,,,,,,false,,,,true,371228.89999999106,371228.59999999404,368594.465,368596.89999999106,368611.513,371244.842,1,40,,
trial,html.Screen,8_12_0,2023-11-15T15:24:35.796Z,,,,2,0.039728379742806,-0.0228701131373768,,true,hh,2208.9579999970156,response,0.8275724656944242,0.9479582663989079,-0.7553795347584972,1.032932228318526,1.0999999999999999,-0.9701897107432573,high,high,,ISIC_0054073.JPG,,ISIC_0011463.JPG,136,false,hh,keypress(i),0,true,373454,373453.799999997,371228.085,371229,371244.842,373461.32,1,40,13,
sequence,flow.Sequence,8_12,2023-11-15T15:24:35.796Z,,,,,,,,,,2208.9579999970156,completion,,,,,,,high,high,,,,,,false,,,,true,373454.39999999106,373453.799999997,371228.085,371228.89999999106,371244.842,373461.32,1,40,,
trial,html.Screen,8_13_0,2023-11-15T15:24:42.138Z,,,,2,0.0651705891246238,-0.0394586219902573,,true,hl,6335.379999988072,response,0.7118141631588264,0.8802523470064751,-0.7553795347584972,-1.0369885917487718,1.0999999999999999,-0.9701897107432573,high,low,,ISIC_0013491.JPG,,ISIC_6917681.JPG,32,false,hl,keypress(j),0,true,379796.799999997,379796.6999999881,373444.586,373454.59999999404,373461.32,379811.27,1,40,14,
sequence,flow.Sequence,8_13,2023-11-15T15:24:42.139Z,,,,,,,,,,6335.379999988072,completion,,,,,,,high,low,,,,,,false,,,,true,379797.09999999404,379796.6999999881,373444.586,373454.5,373461.32,379811.27,1,40,,
trial,html.Screen,8_14_0,2023-11-15T15:24:45.251Z,,,,2,-0.0159061451859594,-0.0296598845560212,,false,lh,3098.029999997001,response,-0.6290784713565712,0.8802523470064751,-0.7553795347584972,0.9294537734479156,1.0999999999999999,-0.9701897107432573,low,high,,ISIC_0072564.JPG,,ISIC_0054770.JPG,35,false,hh,keypress(i),0,true,382909.5,382909.299999997,379794.387,379797.09999999404,379811.27,382928.551,1,40,15,
sequence,flow.Sequence,8_14,2023-11-15T15:24:45.251Z,,,,,,,,,,3098.029999997001,completion,,,,,,,low,high,,,,,,false,,,,true,382909.89999999106,382909.299999997,379794.387,379797.09999999404,379811.27,382928.551,1,40,,
trial,html.Screen,8_15_0,2023-11-15T15:24:48.899Z,,,,2,-0.000047919190197942736,-0.0462652940855003,,true,ll,3628.3489999910817,response,-0.9612329482175124,0.8802523470064751,-0.8053795347584972,-0.8723650867900061,1.0499999999999998,-0.9701897107432573,low,low,,ISIC_0011507.JPG,,ISIC_4563766.JPG,173,false,ll,keypress(f),0,true,386557,386556.89999999106,382894.556,382910.09999999404,382928.551,386561.273,1,40,16,
sequence,flow.Sequence,8_15,2023-11-15T15:24:48.899Z,,,,,,,,,,3628.3489999910817,completion,,,,,,,low,low,,,,,,false,,,,true,386557.1999999881,386556.89999999106,382894.556,382910.09999999404,382928.551,386561.273,1,40,,
trial,html.Screen,8_16_0,2023-11-15T15:24:54.002Z,,,,2,-0.0245376145053177,0.0436993426328401,,false,ll,5099.426999988093,response,-0.9191486333136276,0.8802523470064751,-0.8053795347584972,-1.001866590114321,1.0499999999999998,-0.8667990175037592,low,low,,ISIC_0056444.JPG,,ISIC_0663941.JPG,217,false,hh,keypress(i),0,true,391660.799999997,391660.6999999881,386544.719,386557.299999997,386561.273,391677.962,1,40,17,
sequence,flow.Sequence,8_16,2023-11-15T15:24:54.002Z,,,,,,,,,,5099.426999988093,completion,,,,,,,low,low,,,,,,false,,,,true,391660.89999999106,391660.6999999881,386544.719,386557.299999997,386561.273,391677.962,1,40,,
trial,html.Screen,8_17_0,2023-11-15T15:24:56.075Z,,,,2,0.0336891949856763,0.060314732178219,,false,lh,2055.3379999970202,response,-0.9454713230140772,0.8802523470064751,-0.8553795347584973,0.9245167441969216,1.0499999999999998,-0.9167990175037593,low,high,,ISIC_6192289.JPG,,ISIC_9101055.JPG,31,false,hh,keypress(i),0,true,393733.59999999404,393733.299999997,391644.688,391661,391677.962,393744.823,1,40,18,
sequence,flow.Sequence,8_17,2023-11-15T15:24:56.075Z,,,,,,,,,,2055.3379999970202,completion,,,,,,,low,high,,,,,,false,,,,true,393734,393733.299999997,391644.688,391661,391677.962,393744.823,1,40,,
trial,html.Screen,8_18_0,2023-11-15T15:24:59.467Z,,,,2,-0.0220322185490382,-0.0740918837949419,,true,ll,3380.0769999910844,response,-0.7848333827448511,0.8802523470064751,-0.9053795347584973,-0.9249180304825352,1.0499999999999998,-0.9167990175037593,low,low,,ISIC_8105020.JPG,,ISIC_6778515.JPG,165,false,ll,keypress(f),0,true,397125,397124.89999999106,393728.153,393734.09999999404,393744.823,397127.99,1,40,19,
sequence,flow.Sequence,8_18,2023-11-15T15:24:59.467Z,,,,,,,,,,3380.0769999910844,completion,,,,,,,low,low,,,,,,false,,,,true,397125.1999999881,397124.89999999106,393728.153,393734.09999999404,393744.823,397127.99,1,40,,
trial,html.Screen,8_19_0,2023-11-15T15:25:04.339Z,,,,2,-0.0644357632656846,-0.0501167370292348,,false,hl,4869.309999997029,response,0.8947611078712571,0.8802523470064751,-0.9053795347584973,-0.8960964505004638,1.0499999999999998,-0.9167990175037593,high,low,,ISIC_5207050.JPG,,ISIC_6441128.JPG,35,false,lh,keypress(e),0,true,401997.59999999404,401997.299999997,397111.291,397125.299999997,397127.99,402011.304,1,40,20,
sequence,flow.Sequence,8_19,2023-11-15T15:25:04.339Z,,,,,,,,,,4869.309999997029,completion,,,,,,,high,low,,,,,,false,,,,true,401997.89999999106,401997.299999997,397111.291,397125.1999999881,397127.99,402011.304,1,40,,
trial,html.Screen,8_20_0,2023-11-15T15:25:09.147Z,,,,2,-0.000047919190197942736,-0.0462652940855003,,false,ll,4793.595999991056,response,-0.8728834820669534,0.9302523470064752,-0.9053795347584973,-0.9788202580034188,1.0499999999999998,-0.9667990175037593,low,low,,ISIC_0011507.JPG,,ISIC_7519627.JPG,161,false,hh,keypress(i),0,true,406805.09999999404,406804.89999999106,401994.502,401998.09999999404,402011.304,406811.334,1,40,21,
sequence,flow.Sequence,8_20,2023-11-15T15:25:09.147Z,,,,,,,,,,4793.595999991056,completion,,,,,,,low,low,,,,,,false,,,,true,406805.39999999106,406804.89999999106,401994.502,401998,402011.304,406811.334,1,40,,
trial,html.Screen,8_21_0,2023-11-15T15:25:14.091Z,,,,2,-0.0149482827359613,0.0661630859332833,,false,lh,4937.465999997046,response,-0.869932994914832,0.9302523470064752,-0.9553795347584974,0.8880533324432531,1.0499999999999998,-1.0167990175037593,low,high,,ISIC_6815524.JPG,,ISIC_8617084.JPG,23,false,ll,keypress(f),0,true,411749,411748.799999997,406794.672,406805.5,406811.334,411761.448,1,40,22,
sequence,flow.Sequence,8_21,2023-11-15T15:25:14.091Z,,,,,,,,,,4937.465999997046,completion,,,,,,,low,high,,,,,,false,,,,true,411749.1999999881,411748.799999997,406794.672,406805.5,406811.334,411761.448,1,40,,
trial,html.Screen,8_22_0,2023-11-15T15:25:16.563Z,,,,2,-0.0087912446525382,-0.0619041869188676,,true,ll,2459.6519999940647,response,-0.898110633304784,0.9302523470064752,-0.9553795347584974,-0.9140284419528476,1.0999999999999999,-1.0167990175037593,low,low,,ISIC_7185913.JPG,,ISIC_7210119.JPG,133,false,ll,keypress(f),0,true,414221.299999997,414221.09999999404,411744.626,411749.299999997,411761.448,414227.954,1,40,23,
sequence,flow.Sequence,8_22,2023-11-15T15:25:16.564Z,,,,,,,,,,2459.6519999940647,completion,,,,,,,low,low,,,,,,false,,,,true,414221.59999999404,414221.09999999404,411744.626,411749.299999997,411761.448,414227.954,1,40,,
trial,html.Screen,8_23_0,2023-11-15T15:25:19.651Z,,,,2,-0.0565575423757561,-0.0394300226801425,,true,ll,3080.745999988052,response,-0.8318514901182542,0.9302523470064752,-0.8560695376288158,-0.9538458994523976,1.0999999999999999,-1.0167990175037593,low,low,,ISIC_0046983.JPG,,ISIC_3161477.JPG,149,false,ll,keypress(f),0,true,417308.89999999106,417308.6999999881,414211.471,414221.6999999881,414227.954,417311.333,1,40,24,
sequence,flow.Sequence,8_23,2023-11-15T15:25:19.651Z,,,,,,,,,,3080.745999988052,completion,,,,,,,low,low,,,,,,false,,,,true,417309.09999999404,417308.6999999881,414211.471,414221.6999999881,414227.954,417311.333,1,40,,
trial,html.Screen,8_24_0,2023-11-15T15:25:21.988Z,,,,2,-0.0516762988734011,0.0130195499281172,,true,hh,2333.9669999970356,response,0.9787884514439864,0.9302523470064752,-0.8560695376288158,1.139528725910855,1.0999999999999999,-0.8428486947853259,high,high,,ISIC_9978498.JPG,,ISIC_0032726.JPG,140,false,hh,keypress(i),0,true,419645.5,419645.299999997,417294.758,417309.09999999404,417311.333,419661.569,1,40,25,
sequence,flow.Sequence,8_24,2023-11-15T15:25:21.988Z,,,,,,,,,,2333.9669999970356,completion,,,,,,,high,high,,,,,,false,,,,true,419646,419645.299999997,417294.758,417309.09999999404,417311.333,419661.569,1,40,,
trial,html.Screen,8_25_0,2023-11-15T15:25:24.699Z,,,,2,-0.0097091270150747,0.0417921315885292,,false,hl,2695.3309999910416,response,1.0022829373011404,0.9302523470064752,-0.8560695376288158,-0.8311726972863814,1.0999999999999999,-0.8428486947853259,high,low,,ISIC_3967213.JPG,,ISIC_0033287.JPG,36,false,hh,keypress(i),0,true,422357.09999999404,422356.89999999106,419644.648,419646.09999999404,419661.569,422361.345,1,40,26,
sequence,flow.Sequence,8_25,2023-11-15T15:25:24.699Z,,,,,,,,,,2695.3309999910416,completion,,,,,,,high,low,,,,,,false,,,,true,422357.299999997,422356.89999999106,419644.648,419646.09999999404,419661.569,422361.345,1,40,,
trial,html.Screen,8_26_0,2023-11-15T15:25:26.547Z,,,,2,-0.013431314305098,0.0140597582944232,,true,hh,1843.155000000028,response,0.9866439901618108,1.0209058316059976,-0.8560695376288158,0.9294281370493894,1.0999999999999999,-0.8928486947853259,high,high,,ISIC_0069617.JPG,,ISIC_0072953.JPG,130,false,hh,keypress(i),0,true,424204.5,424204.5,422344.77,422357.299999997,422361.345,424211.406,1,40,27,
sequence,flow.Sequence,8_26,2023-11-15T15:25:26.547Z,,,,,,,,,,1843.155000000028,completion,,,,,,,high,high,,,,,,false,,,,true,424204.6999999881,424204.5,422344.77,422357.299999997,422361.345,424211.406,1,40,,
trial,html.Screen,8_27_0,2023-11-15T15:25:29.731Z,,,,2,-0.0021038737988857,0.0570427519488725,,true,hh,3177.0939999999828,response,0.9293599144917216,1.0209058316059976,-0.8560695376288158,0.7261723159116604,0.9080360636056001,-0.8928486947853259,high,high,,ISIC_3596927.JPG,,ISIC_0011031.JPG,164,false,hh,keypress(i),0,true,427388.6999999881,427388.5,424194.613,424204.6999999881,424211.406,427394.622,1,40,28,
sequence,flow.Sequence,8_27,2023-11-15T15:25:29.731Z,,,,,,,,,,3177.0939999999828,completion,,,,,,,high,high,,,,,,false,,,,true,427388.799999997,427388.5,424194.613,424204.6999999881,424211.406,427394.622,1,40,,
trial,html.Screen,8_28_0,2023-11-15T15:25:32.819Z,,,,2,-0.0565575423757561,-0.0394300226801425,,false,hl,3082.2779999910854,response,0.6864497754928831,0.777766115201691,-0.8560695376288158,-1.0456580051873738,0.9080360636056001,-0.8928486947853259,high,low,,ISIC_0046983.JPG,,ISIC_0055388.JPG,51,false,ll,keypress(f),0,true,430477.09999999404,430476.89999999106,427378.036,427388.89999999106,427394.622,430494.675,1,40,29,
sequence,flow.Sequence,8_28,2023-11-15T15:25:32.819Z,,,,,,,,,,3082.2779999910854,completion,,,,,,,high,low,,,,,,false,,,,true,430477.299999997,430476.89999999106,427378.036,427388.89999999106,427394.622,430494.675,1,40,,
trial,html.Screen,8_29_0,2023-11-15T15:25:34.587Z,,,,2,0.0194167651857046,0.0726253809408601,,false,hl,1750.224999991071,response,0.6864497754928831,0.8277661152016911,-0.8560695376288158,-1.0456580051873738,0.9080360636056001,-0.8928486947853259,high,low,,ISIC_0056692.JPG,,ISIC_0055388.JPG,50,false,ll,keypress(f),0,true,432245.09999999404,432244.89999999106,430461.292,430477.5,430494.675,432261.582,1,40,30,
sequence,flow.Sequence,8_29,2023-11-15T15:25:34.587Z,,,,,,,,,,1750.224999991071,completion,,,,,,,high,low,,,,,,false,,,,true,432245.1999999881,432244.89999999106,430461.292,430477.39999999106,430494.675,432261.582,1,40,,
trial,html.Screen,8_30_0,2023-11-15T15:25:36.619Z,,,,2,-0.0552031398781121,-0.0652612426529481,,true,hh,2015.1179999880842,response,0.6881280006502103,0.8777661152016911,-0.8560695376288158,1.0605529903237636,0.9080360636056001,-0.9956580051873738,high,high,,ISIC_0024226.JPG,,ISIC_0011365.JPG,199,false,hh,keypress(i),0,true,434276.89999999106,434276.6999999881,432244.716,432245.299999997,432261.582,434295.977,1,40,31,
sequence,flow.Sequence,8_30,2023-11-15T15:25:36.619Z,,,,,,,,,,2015.1179999880842,completion,,,,,,,high,high,,,,,,false,,,,true,434277,434276.6999999881,432244.716,432245.299999997,432261.582,434295.977,1,40,,
trial,html.Screen,8_31_0,2023-11-15T15:25:45.787Z,,,,2,0.0247880219471745,-0.0687761754603142,,true,hh,9148.422999991046,response,1.0296906379811772,0.8777661152016911,-0.8560695376288158,0.8063996897274507,0.8243404954869868,-0.9956580051873738,high,high,,ISIC_0031745.JPG,,ISIC_0015046.JPG,219,false,hh,keypress(i),0,true,443444.5,443444.39999999106,434261.529,434277,434295.977,443461.356,1,40,32,
sequence,flow.Sequence,8_31,2023-11-15T15:25:45.787Z,,,,,,,,,,9148.422999991046,completion,,,,,,,high,high,,,,,,false,,,,true,443444.6999999881,443444.39999999106,434261.529,434277,434295.977,443461.356,1,40,,
trial,html.Screen,8_32_0,2023-11-15T15:25:47.491Z,,,,2,-0.0552031398781121,-0.0652612426529481,,true,hh,1687.2439999940107,response,1.0437232404340642,0.8680451638543139,-0.8560695376288158,0.7530783329910251,0.8243404954869868,-0.9956580051873738,high,high,,ISIC_0024226.JPG,,ISIC_0000549.JPG,218,false,hh,keypress(i),0,true,445148.799999997,445148.59999999404,443444.467,443444.6999999881,443461.356,445161.611,1,40,33,
sequence,flow.Sequence,8_32,2023-11-15T15:25:47.491Z,,,,,,,,,,1687.2439999940107,completion,,,,,,,high,high,,,,,,false,,,,true,445148.89999999106,445148.59999999404,443444.467,443444.6999999881,443461.356,445161.611,1,40,,
trial,html.Screen,8_33_0,2023-11-15T15:25:53.611Z,,,,2,-0.0533723079251252,-0.0299718727255261,,false,hh,6106.889000000025,response,0.829909234884455,0.8680451638543139,-0.8560695376288158,1.0304874376319082,0.8484007867125446,-0.9956580051873738,high,high,,ISIC_6562871.JPG,,ISIC_9211072.JPG,218,false,lh,keypress(e),0,true,451268.59999999404,451268.5,445144.728,445148.89999999106,445161.611,451278.027,1,40,34,
sequence,flow.Sequence,8_33,2023-11-15T15:25:53.611Z,,,,,,,,,,6106.889000000025,completion,,,,,,,high,high,,,,,,false,,,,true,451268.799999997,451268.5,445144.728,445148.89999999106,445161.611,451278.027,1,40,,
trial,html.Screen,8_34_0,2023-11-15T15:26:00.195Z,,,,2,-0.013431314305098,0.0140597582944232,,false,lh,6574.772999997018,response,-0.8697146877414776,0.9180451638543139,-0.8560695376288158,0.6517139161026179,0.8484007867125446,-0.9956580051873738,low,high,,ISIC_0069617.JPG,,ISIC_6552552.JPG,54,false,hl,keypress(j),0,true,457852.89999999106,457852.799999997,451261.397,451268.799999997,451278.027,457861.39,1,40,35,
sequence,flow.Sequence,8_34,2023-11-15T15:26:00.195Z,,,,,,,,,,6574.772999997018,completion,,,,,,,low,high,,,,,,false,,,,true,457853,457852.799999997,451261.397,451268.799999997,451278.027,457861.39,1,40,,
trial,html.Screen,8_35_0,2023-11-15T15:26:02.899Z,,,,2,-0.0292059717970335,-0.0718256867525069,,false,hl,2695.409999997006,response,0.991146183030456,0.9180451638543139,-0.9060695376288158,-0.9949639823722534,0.8984007867125446,-0.9956580051873738,high,low,,ISIC_1114966.JPG,,ISIC_6342224.JPG,24,false,lh,keypress(e),0,true,460556.89999999106,460556.799999997,457844.714,457853.09999999404,457861.39,460561.391,1,40,36,
sequence,flow.Sequence,8_35,2023-11-15T15:26:02.899Z,,,,,,,,,,2695.409999997006,completion,,,,,,,high,low,,,,,,false,,,,true,460557,460556.799999997,457844.714,457853.09999999404,457861.39,460561.391,1,40,,
trial,html.Screen,8_36_0,2023-11-15T15:26:06.899Z,,,,2,-0.0533723079251252,-0.0299718727255261,,false,hl,3995.308999988076,response,0.7871162143493278,0.9180451638543139,-0.8560695376288158,-0.8429329800778957,0.8484007867125446,-0.9956580051873738,high,low,,ISIC_6562871.JPG,,ISIC_3439215.JPG,24,false,hh,keypress(i),0,true,464556.799999997,464556.6999999881,460544.879,460557,460561.391,464561.384,1,40,37,
sequence,flow.Sequence,8_36,2023-11-15T15:26:06.899Z,,,,,,,,,,3995.308999988076,completion,,,,,,,high,low,,,,,,false,,,,true,464556.89999999106,464556.6999999881,460544.879,460557,460561.391,464561.384,1,40,,
trial,html.Screen,8_37_0,2023-11-15T15:26:08.867Z,,,,2,-0.0051189696037511,0.0396625911332438,,true,ll,1963.4159999969997,response,-0.7483736986316007,0.9180451638543139,-0.8560695376288158,-0.9623853708853938,0.8484007867125446,-1.0456580051873738,low,low,,ISIC_9742891.JPG,,ISIC_2844085.JPG,140,false,ll,keypress(f),0,true,466525,466524.799999997,464544.661,464557,464561.384,466528.034,1,40,38,
sequence,flow.Sequence,8_37,2023-11-15T15:26:08.867Z,,,,,,,,,,1963.4159999969997,completion,,,,,,,low,low,,,,,,false,,,,true,466525.1999999881,466524.799999997,464544.661,464556.89999999106,464561.384,466528.034,1,40,,
trial,html.Screen,8_38_0,2023-11-15T15:26:10.708Z,,,,2,0.0069555338059566,-0.0310100918136373,,false,hh,1837.5659999940544,response,0.9036336285714612,0.9180451638543139,-0.8560695376288158,0.6879795296832877,0.8484007867125446,-1.0456580051873738,high,high,,ISIC_0011177.JPG,,ISIC_0062158.JPG,208,false,ll,keypress(f),0,true,468365.89999999106,468365.59999999404,466511.393,466525.1999999881,466528.034,468378.088,1,40,39,
sequence,flow.Sequence,8_38,2023-11-15T15:26:10.708Z,,,,,,,,,,1837.5659999940544,completion,,,,,,,high,high,,,,,,false,,,,true,468366.299999997,468365.59999999404,466511.393,466525.1999999881,466528.034,468378.088,1,40,,
trial,html.Screen,8_39_0,2023-11-15T15:26:16.403Z,,,,2,-0.0691769743257167,0.0638501824668941,,false,lh,5682.61199998809,response,-0.6603971718247816,0.9680451638543139,-0.8560695376288158,0.7874599008938432,0.8984007867125446,-1.0456580051873738,low,high,,ISIC_0031914.JPG,,ISIC_2822718.JPG,45,false,hl,keypress(j),0,true,474060.799999997,474060.6999999881,468361.552,468366.39999999106,468378.088,474078.08,1,40,40,
sequence,flow.Sequence,8_39,2023-11-15T15:26:16.404Z,,,,,,,,,,5682.61199998809,completion,,,,,,,low,high,,,,,,false,,,,true,474061,474060.6999999881,468361.552,468366.39999999106,468378.088,474078.08,1,40,,
stair_loop,flow.Loop,8,2023-11-15T15:26:16.404Z,,,,,,,,,,164099.51699998806,completion,,,,,,,,,,,,,,false,,,,true,474061.09999999404,474060.6999999881,309944.511,309956.6999999881,309961.183,474078.08,1,40,,
exp_instructions,html.Screen,9,2023-11-15T15:27:00.228Z,,,,,,,,,,43806.419999999984,response,,,,,,,,,,,,,,,continue,keypress(Space),,,517885,517884.5,474061.318,474061.09999999404,474078.08,517894.804,,,,
trial,html.Screen,10_0_0,2023-11-15T15:27:04.802Z,,,,1,0.0511770300585718,0.029030243555971,,false,hh,4564.195999999996,response,0.8360440386579719,0.9139375758446059,-0.870966037198268,1.1017564906891342,0.9459815376192091,-0.9690434145300362,high,high,,ISIC_6652978.JPG,8,ISIC_0029026.JPG,179,false,ll,keypress(f),0,false,522459.09999999404,522459,517878.224,517885.1999999881,517894.804,522461.437,4,500,1,
break,html.Screen,10_0_1,2023-11-15T15:27:04.802Z,,,,,,,,,,NaN,,,,,,,,high,high,,,,,,false,,,,false,522459.5,522459.39999999106,,522459.1999999881,,522461.437,4,500,,
break_continue,html.Screen,10_0_2,2023-11-15T15:27:04.802Z,,,,,,,,,,NaN,,,,,,,,high,high,,,,,,false,,,,false,522459.6999999881,522459.6999999881,,522459.59999999404,,522461.437,4,500,,
sequence,flow.Sequence,10_0,2023-11-15T15:27:04.802Z,,,,,,,,,,4564.895999988075,completion,,,,,,,high,high,,,,,,false,,,,false,522459.799999997,522459.6999999881,517878.224,517885.1999999881,517894.804,522461.437,4,500,,
trial,html.Screen,10_1_0,2023-11-15T15:27:07.420Z,,,,1,-0.013431314305098,0.0140597582944232,,false,hl,2615.6629999940633,response,0.8816288864119318,0.9139375758446059,-0.870966037198268,-0.801867301188093,0.9459815376192091,-0.9690434145300362,high,low,,ISIC_0069617.JPG,8,ISIC_9196783.JPG,27,false,hh,keypress(i),0,false,525077.299999997,525077.099999994,522444.736,522459.89999999106,522461.437,525095.024,4,500,2,
break,html.Screen,10_1_1,2023-11-15T15:27:07.421Z,,,,,,,,,,NaN,,,,,,,,high,low,,,,,,false,,,,false,525078,525077.799999997,,525077.5,,525095.024,4,500,,
break_continue,html.Screen,10_1_2,2023-11-15T15:27:07.421Z,,,,,,,,,,NaN,,,,,,,,high,low,,,,,,false,,,,false,525078.3999999911,525078.3999999911,,525078.099999994,,525095.024,4,500,,
sequence,flow.Sequence,10_1,2023-11-15T15:27:07.421Z,,,,,,,,,,2616.962999991083,completion,,,,,,,high,low,,,,,,false,,,,false,525078.599999994,525078.3999999911,522444.736,522459.799999997,522461.437,525095.024,4,500,,
trial,html.Screen,10_2_0,2023-11-15T15:27:12.100Z,,,,1,-0.0113873532168551,-0.0054999201556291,,false,lh,4661.8759999910835,response,-0.8179805381029407,0.9139375758446059,-0.870966037198268,0.8578467162767749,0.9459815376192091,-0.9690434145300362,low,high,,ISIC_8812621.JPG,9,ISIC_0067253.JPG,38,false,hh,keypress(i),0,false,529757,529756.8999999911,525061.636,525078.6999999881,525095.024,529761.478,4,500,3,
break,html.Screen,10_2_1,2023-11-15T15:27:12.100Z,,,,,,,,,,NaN,,,,,,,,low,high,,,,,,false,,,,false,529757.3999999911,529757.299999997,,529757.099999994,,529761.478,4,500,,
break_continue,html.Screen,10_2_2,2023-11-15T15:27:12.101Z,,,,,,,,,,NaN,,,,,,,,low,high,,,,,,false,,,,false,529757.6999999881,529757.5,,529757.3999999911,,529761.478,4,500,,
sequence,flow.Sequence,10_2,2023-11-15T15:27:12.101Z,,,,,,,,,,4662.476000000024,completion,,,,,,,low,high,,,,,,false,,,,false,529757.6999999881,529757.5,525061.636,525078.6999999881,525095.024,529761.478,4,500,,
trial,html.Screen,10_3_0,2023-11-15T15:27:16.828Z,,,,1,0.0456515796420274,-0.0273567130070961,,false,lh,4723.521999999997,response,-0.7836356408583546,0.9139375758446059,-0.870966037198268,1.1197925594706428,0.9459815376192091,-0.9690434145300362,low,high,,ISIC_0068610.JPG,8,ISIC_0024961.JPG,38,false,hh,keypress(i),0,false,534485.099999994,534485,529744.723,529757.799999997,529761.478,534494.866,4,500,4,
break,html.Screen,10_3_1,2023-11-15T15:27:16.829Z,,,,,,,,,,NaN,,,,,,,,low,high,,,,,,false,,,,false,534485.5,534485.5,,534485.1999999881,,534494.866,4,500,,
break_continue,html.Screen,10_3_2,2023-11-15T15:27:16.829Z,,,,,,,,,,NaN,,,,,,,,low,high,,,,,,false,,,,false,534485.8999999911,534485.799999997,,534485.599999994,,534494.866,4,500,,
sequence,flow.Sequence,10_3,2023-11-15T15:27:16.829Z,,,,,,,,,,4724.321999997017,completion,,,,,,,low,high,,,,,,false,,,,false,534485.8999999911,534485.799999997,529744.723,529757.6999999881,529761.478,534494.866,4,500,,
trial,html.Screen,10_4_0,2023-11-15T15:27:21.524Z,,,,1,0.0107854985447517,0.0478010417136109,,false,hh,4685.633999999962,response,0.728025646114591,0.9139375758446059,-0.870966037198268,0.8706009868766001,0.9459815376192091,-0.9690434145300362,high,high,,ISIC_0010500.JPG,9,ISIC_6452498.JPG,179,false,hl,keypress(j),0,false,539180.599999994,539180.5,534478.227,534486,534494.866,539194.988,4,500,5,
break,html.Screen,10_4_1,2023-11-15T15:27:21.524Z,,,,,,,,,,NaN,,,,,,,,high,high,,,,,,false,,,,false,539181,539180.8999999911,,539180.6999999881,,539194.988,4,500,,
break_continue,html.Screen,10_4_2,2023-11-15T15:27:21.524Z,,,,,,,,,,NaN,,,,,,,,high,high,,,,,,false,,,,false,539181.1999999881,539181.099999994,,539181,,539194.988,4,500,,
sequence,flow.Sequence,10_4,2023-11-15T15:27:21.524Z,,,,,,,,,,4686.233999994001,completion,,,,,,,high,high,,,,,,false,,,,false,539181.1999999881,539181.099999994,534478.227,534486,534494.866,539194.988,4,500,,
trial,html.Screen,10_5_0,2023-11-15T15:27:23.532Z,,,,1,-0.0159061451859594,-0.0296598845560212,,true,hh,1993.711999988067,response,1.0678895386758027,0.9139375758446059,-0.870966037198268,1.0279759018569252,0.9459815376192091,-0.9690434145300362,high,high,,ISIC_0072564.JPG,9,ISIC_0069933.JPG,179,false,hh,keypress(i),0,false,541188.799999997,541188.6999999881,539178.103,539181.1999999881,539194.988,541194.844,4,500,6,
break,html.Screen,10_5_1,2023-11-15T15:27:23.532Z,,,,,,,,,,NaN,,,,,,,,high,high,,,,,,false,,,,false,541189.3999999911,541189.1999999881,,541189,,541194.844,4,500,,
break_continue,html.Screen,10_5_2,2023-11-15T15:27:23.533Z,,,,,,,,,,NaN,,,,,,,,high,high,,,,,,false,,,,false,541189.599999994,541189.5,,541189.5,,541194.844,4,500,,
sequence,flow.Sequence,10_5,2023-11-15T15:27:23.533Z,,,,,,,,,,1994.511999999988,completion,,,,,,,high,high,,,,,,false,,,,false,541189.799999997,541189.5,539178.103,539181.1999999881,539194.988,541194.844,4,500,,
trial,html.Screen,10_6_0,2023-11-15T15:27:25.308Z,,,,1,0.039728379742806,-0.0228701131373768,,false,hl,1769.7559999939986,response,1.0213365328004047,0.9139375758446059,-0.870966037198268,-1.088524359911891,0.9459815376192091,-0.9690434145300362,high,low,,ISIC_0054073.JPG,9,ISIC_5434229.JPG,27,false,hh,keypress(i),0,false,542964.799999997,542964.599999994,541178.231,541189.8999999911,541194.844,542978.294,4,500,7,
break,html.Screen,10_6_1,2023-11-15T15:27:25.308Z,,,,,,,,,,NaN,,,,,,,,high,low,,,,,,false,,,,false,542965.099999994,542965.099999994,,542964.8999999911,,542978.294,4,500,,
break_continue,html.Screen,10_6_2,2023-11-15T15:27:25.308Z,,,,,,,,,,NaN,,,,,,,,high,low,,,,,,false,,,,false,542965.3999999911,542965.299999997,,542965.1999999881,,542978.294,4,500,,
sequence,flow.Sequence,10_6,2023-11-15T15:27:25.309Z,,,,,,,,,,1770.4559999969788,completion,,,,,,,high,low,,,,,,false,,,,false,542965.599999994,542965.299999997,541178.231,541189.8999999911,541194.844,542978.294,4,500,,
trial,html.Screen,10_7_0,2023-11-15T15:27:28.228Z,,,,1,-0.0159061451859594,-0.0296598845560212,,true,ll,2906.7060000000056,response,-0.8626849314423831,0.9139375758446059,-0.870966037198268,-0.8919402924145458,0.9459815376192091,-0.9690434145300362,low,low,,ISIC_0072564.JPG,8,ISIC_0026371.JPG,159,false,ll,keypress(f),0,false,545885.1999999881,545885,542961.581,542965.599999994,542978.294,545894.874,4,500,8,
break,html.Screen,10_7_1,2023-11-15T15:27:28.229Z,,,,,,,,,,NaN,,,,,,,,low,low,,,,,,false,,,,false,545885.6999999881,545885.5,,545885.299999997,,545894.874,4,500,,
break_continue,html.Screen,10_7_2,2023-11-15T15:27:28.229Z,,,,,,,,,,NaN,,,,,,,,low,low,,,,,,false,,,,false,545886,545885.8999999911,,545885.799999997,,545894.874,4,500,,
sequence,flow.Sequence,10_7,2023-11-15T15:27:28.229Z,,,,,,,,,,2907.605999991065,completion,,,,,,,low,low,,,,,,false,,,,false,545886.099999994,545885.8999999911,542961.581,542965.599999994,542978.294,545894.874,4,500,,
trial,html.Screen,10_8_0,2023-11-15T15:27:30.381Z,,,,1,-0.0245585387483123,0.053462758614929,,true,ll,2142.525999991107,response,-0.8814695482989191,0.9139375758446059,-0.870966037198268,-0.8440767077088777,0.9459815376192091,-0.9690434145300362,low,low,,ISIC_3389704.JPG,10,ISIC_6392461.JPG,159,false,ll,keypress(f),0,false,548037.799999997,548037.3999999911,545878.225,545886.299999997,545894.874,548044.833,4,500,9,
break,html.Screen,10_8_1,2023-11-15T15:27:30.382Z,,,,,,,,,,NaN,,,,,,,,low,low,,,,,,false,,,,false,548038.8999999911,548038.5,,548038.099999994,,548044.833,4,500,,
break_continue,html.Screen,10_8_2,2023-11-15T15:27:30.383Z,,,,,,,,,,NaN,,,,,,,,low,low,,,,,,false,,,,false,548039.5,548039.299999997,,548039,,548044.833,4,500,,
sequence,flow.Sequence,10_8,2023-11-15T15:27:30.383Z,,,,,,,,,,2144.4259999970673,completion,,,,,,,low,low,,,,,,false,,,,false,548039.6999999881,548039.299999997,545878.225,545886.1999999881,545894.874,548044.833,4,500,,
trial,html.Screen,10_9_0,2023-11-15T15:27:32.828Z,,,,1,-0.0245376145053177,0.0436993426328401,,false,hl,2440.167000000016,response,0.991146183030456,0.9139375758446059,-0.870966037198268,-0.9949639823722534,0.9459815376192091,-0.9690434145300362,high,low,,ISIC_0056444.JPG,8,ISIC_6342224.JPG,27,false,lh,keypress(e),0,false,550485.099999994,550485,548028.291,548039.8999999911,548044.833,550494.828,4,500,10,
break,html.Screen,10_9_1,2023-11-15T15:27:32.829Z,,,,,,,,,,NaN,,,,,,,,high,low,,,,,,false,,,,false,550485.799999997,550485.599999994,,550485.299999997,,550494.828,4,500,,
break_continue,html.Screen,10_9_2,2023-11-15T15:27:32.829Z,,,,,,,,,,NaN,,,,,,,,high,low,,,,,,false,,,,false,550486.099999994,550485.8999999911,,550485.8999999911,,550494.828,4,500,,
sequence,flow.Sequence,10_9,2023-11-15T15:27:32.829Z,,,,,,,,,,2441.066999991075,completion,,,,,,,high,low,,,,,,false,,,,false,550486.099999994,550485.8999999911,548028.291,548039.799999997,548044.833,550494.828,4,500,,
trial,html.Screen,10_10_0,2023-11-15T15:27:37.292Z,,,,1,0.0085520978188085,-0.0464691161264081,,false,ll,4453.57199999108,response,-0.7845592613519311,0.9139375758446059,-0.870966037198268,-1.1644746776963744,0.9459815376192091,-0.9690434145300362,low,low,,ISIC_0758797.JPG,9,ISIC_9193127.JPG,159,false,hl,keypress(j),0,false,554948.5,554948.3999999911,550478.257,550486.1999999881,550494.828,554961.513,4,500,11,
break,html.Screen,10_10_1,2023-11-15T15:27:37.292Z,,,,,,,,,,NaN,,,,,,,,low,low,,,,,,false,,,,false,554948.799999997,554948.799999997,,554948.599999994,,554961.513,4,500,,
break_continue,html.Screen,10_10_2,2023-11-15T15:27:37.292Z,,,,,,,,,,NaN,,,,,,,,low,low,,,,,,false,,,,false,554949.099999994,554949,,554948.8999999911,,554961.513,4,500,,
sequence,flow.Sequence,10_10,2023-11-15T15:27:37.292Z,,,,,,,,,,4454.1720000000205,completion,,,,,,,low,low,,,,,,false,,,,false,554949.099999994,554949,550478.257,550486.1999999881,550494.828,554961.513,4,500,,
trial,html.Screen,10_11_0,2023-11-15T15:27:39.315Z,,,,1,-0.009234249673026,-0.0627190878028592,,true,hh,2010.7869999969844,response,1.0774704182387804,0.9139375758446059,-0.870966037198268,1.0186619444121927,0.9459815376192091,-0.9690434145300362,high,high,,ISIC_0053760.JPG,10,ISIC_0066564.JPG,179,false,hh,keypress(i),0,false,556972.3999999911,556972.299999997,554944.828,554949.099999994,554961.513,556978.139,4,500,12,
break,html.Screen,10_11_1,2023-11-15T15:27:39.316Z,,,,,,,,,,NaN,,,,,,,,high,high,,,,,,false,,,,false,556972.6999999881,556972.6999999881,,556972.599999994,,556978.139,4,500,,
break_continue,html.Screen,10_11_2,2023-11-15T15:27:39.316Z,,,,,,,,,,NaN,,,,,,,,high,high,,,,,,false,,,,false,556972.8999999911,556972.8999999911,,556972.799999997,,556978.139,4,500,,
sequence,flow.Sequence,10_11,2023-11-15T15:27:39.316Z,,,,,,,,,,2011.386999991024,completion,,,,,,,high,high,,,,,,false,,,,false,556972.8999999911,556972.8999999911,554944.828,554949.099999994,554961.513,556978.139,4,500,,
trial,html.Screen,10_12_0,2023-11-15T15:27:41.580Z,,,,1,0.0608867680161491,0.0206384042070211,,false,lh,2258.460999994073,response,-0.741457422468111,0.9139375758446059,-0.870966037198268,0.7988724407180966,0.9459815376192091,-0.9690434145300362,low,high,,ISIC_0640806.JPG,9,ISIC_0064936.JPG,38,false,hl,keypress(j),0,false,559236.6999999881,559236.599999994,556961.447,556973,556978.139,559244.878,4,500,13,
break,html.Screen,10_12_1,2023-11-15T15:27:41.580Z,,,,,,,,,,NaN,,,,,,,,low,high,,,,,,false,,,,false,559237.1999999881,559237.099999994,,559237,,559244.878,4,500,,
break_continue,html.Screen,10_12_2,2023-11-15T15:27:41.580Z,,,,,,,,,,NaN,,,,,,,,low,high,,,,,,false,,,,false,559237.5,559237.3999999911,,559237.1999999881,,559244.878,4,500,,
sequence,flow.Sequence,10_12,2023-11-15T15:27:41.581Z,,,,,,,,,,2259.260999991093,completion,,,,,,,low,high,,,,,,false,,,,false,559237.5,559237.3999999911,556961.447,556973,556978.139,559244.878,4,500,,
trial,html.Screen,10_13_0,2023-11-15T15:27:45.117Z,,,,1,0.0450282431170921,,,true,hh,3528.4219999969937,response,1.0351900568634125,0.9139375758446059,-0.870966037198268,1.060448537312289,0.9459815376192091,-0.9690434145300362,high,high,,ISIC_1805163.JPG,9,ISIC_4377208.JPG,179,false,hh,keypress(i),0,false,562773.599999994,562773.299999997,559228.143,559237.599999994,559244.878,562778.203,4,500,14,
break,html.Screen,10_13_1,2023-11-15T15:27:45.118Z,,,,,,,,,,NaN,,,,,,,,high,high,,,,,,false,,,,false,562774.599999994,562774.299999997,,562773.8999999911,,562778.203,4,500,,
break_continue,html.Screen,10_13_2,2023-11-15T15:27:45.118Z,,,,,,,,,,NaN,,,,,,,,high,high,,,,,,false,,,,false,562775,562774.799999997,,562774.6999999881,,562778.203,4,500,,
sequence,flow.Sequence,10_13,2023-11-15T15:27:45.118Z,,,,,,,,,,3529.9219999969937,completion,,,,,,,high,high,,,,,,false,,,,false,562775.1999999881,562774.799999997,559228.143,559237.599999994,559244.878,562778.203,4,500,,
trial,html.Screen,10_14_0,2023-11-15T15:27:47.813Z,,,,1,-0.0113873532168551,-0.0054999201556291,,true,ll,2691.39699999406,response,-0.6911606560512203,0.9139375758446059,-0.870966037198268,-1.118362292241435,0.9459815376192091,-0.9690434145300362,low,low,,ISIC_8812621.JPG,9,ISIC_9109361.JPG,159,false,ll,keypress(f),0,false,565469.8999999911,565469.599999994,562761.614,562775.3999999911,562778.203,565478.232,4,500,15,
break,html.Screen,10_14_1,2023-11-15T15:27:47.814Z,,,,,,,,,,NaN,,,,,,,,low,low,,,,,,false,,,,false,565470.799999997,565470.5,,565470.1999999881,,565478.232,4,500,,
break_continue,html.Screen,10_14_2,2023-11-15T15:27:47.814Z,,,,,,,,,,NaN,,,,,,,,low,low,,,,,,false,,,,false,565471.299999997,565471.099999994,,565471,,565478.232,4,500,,
sequence,flow.Sequence,10_14,2023-11-15T15:27:47.815Z,,,,,,,,,,2692.89699999406,completion,,,,,,,low,low,,,,,,false,,,,false,565471.599999994,565471.099999994,562761.614,562775.299999997,562778.203,565478.232,4,500,,
trial,html.Screen,10_15_0,2023-11-15T15:27:51.844Z,,,,1,0.0511770300585718,0.029030243555971,,false,hl,4022.76800000004,response,0.9873794329144926,0.9139375758446059,-0.870966037198268,-0.7991077882008257,0.9459815376192091,-0.9690434145300362,high,low,,ISIC_6652978.JPG,9,ISIC_0013498.JPG,27,false,hh,keypress(i),0,false,569501.299999997,569501,565461.539,565471.8999999911,565478.232,569511.572,4,500,16,
break,html.Screen,10_15_1,2023-11-15T15:27:51.845Z,,,,,,,,,,NaN,,,,,,,,high,low,,,,,,false,,,,false,569501.799999997,569501.6999999881,,569501.3999999911,,569511.572,4,500,,
break_continue,html.Screen,10_15_2,2023-11-15T15:27:51.845Z,,,,,,,,,,NaN,,,,,,,,high,low,,,,,,false,,,,false,569502.1999999881,569502.099999994,,569501.8999999911,,569511.572,4,500,,
sequence,flow.Sequence,10_15,2023-11-15T15:27:51.845Z,,,,,,,,,,4023.8679999940796,completion,,,,,,,high,low,,,,,,false,,,,false,569502.299999997,569502.099999994,565461.539,565471.799999997,565478.232,569511.572,4,500,,
trial,html.Screen,10_16_0,2023-11-15T15:27:54.388Z,,,,1,0.0363437082783146,0.0333332186217051,,false,lh,2533.727999996976,response,-1.011737552725394,0.9139375758446059,-0.870966037198268,0.8500530224490773,0.9459815376192091,-0.9690434145300362,low,high,,ISIC_3314555.JPG,9,ISIC_2998367.JPG,38,false,hh,keypress(i),0,false,572045.3999999911,572045.299999997,569494.967,569502.3999999911,569511.572,572061.574,4,500,17,
break,html.Screen,10_16_1,2023-11-15T15:27:54.389Z,,,,,,,,,,NaN,,,,,,,,low,high,,,,,,false,,,,false,572046.099999994,572045.8999999911,,572045.6999999881,,572061.574,4,500,,
break_continue,html.Screen,10_16_2,2023-11-15T15:27:54.390Z,,,,,,,,,,NaN,,,,,,,,low,high,,,,,,false,,,,false,572046.5,572046.299999997,,572046.1999999881,,572061.574,4,500,,
sequence,flow.Sequence,10_16,2023-11-15T15:27:54.390Z,,,,,,,,,,2534.727999996976,completion,,,,,,,low,high,,,,,,false,,,,false,572046.599999994,572046.299999997,569494.967,569502.299999997,569511.572,572061.574,4,500,,
trial,html.Screen,10_17_0,2023-11-15T15:28:00.060Z,,,,1,-0.0245376145053177,0.0436993426328401,,false,hl,5655.125999988057,response,0.7870237732709365,0.9139375758446059,-0.870966037198268,-0.9172955251119376,0.9459815376192091,-0.9690434145300362,high,low,,ISIC_0056444.JPG,9,ISIC_0057716.JPG,27,false,lh,keypress(e),0,false,577716.6999999881,577716.6999999881,572045.025,572046.799999997,572061.574,577728.219,4,500,18,
break,html.Screen,10_17_1,2023-11-15T15:28:00.060Z,,,,,,,,,,NaN,,,,,,,,high,low,,,,,,false,,,,false,577717.099999994,577717,,577716.8999999911,,577728.219,4,500,,
break_continue,html.Screen,10_17_2,2023-11-15T15:28:00.060Z,,,,,,,,,,NaN,,,,,,,,high,low,,,,,,false,,,,false,577717.3999999911,577717.299999997,,577717.1999999881,,577728.219,4,500,,
sequence,flow.Sequence,10_17,2023-11-15T15:28:00.060Z,,,,,,,,,,5655.725999996997,completion,,,,,,,high,low,,,,,,false,,,,false,577717.5,577717.299999997,572045.025,572046.799999997,572061.574,577728.219,4,500,,
trial,html.Screen,10_18_0,2023-11-15T15:28:04.020Z,,,,1,0.0217698886732706,-0.0410870915161425,,true,hh,3948.980999988038,response,0.7916641003387539,0.9139375758446059,-0.870966037198268,0.8795523971208432,0.9459815376192091,-0.9690434145300362,high,high,,ISIC_0072173.JPG,9,ISIC_0069635.JPG,179,false,hh,keypress(i),0,false,581677.299999997,581677.1999999881,577711.628,577717.5,577728.219,581696.301,4,500,19,
break,html.Screen,10_18_1,2023-11-15T15:28:04.021Z,,,,,,,,,,NaN,,,,,,,,high,high,,,,,,false,,,,false,581677.8999999911,581677.799999997,,581677.599999994,,581696.301,4,500,,
break_continue,html.Screen,10_18_2,2023-11-15T15:28:04.021Z,,,,,,,,,,NaN,,,,,,,,high,high,,,,,,false,,,,false,581678.3999999911,581678.299999997,,581678.099999994,,581696.301,4,500,,
sequence,flow.Sequence,10_18,2023-11-15T15:28:04.022Z,,,,,,,,,,3950.080999996979,completion,,,,,,,high,high,,,,,,false,,,,false,581678.5,581678.299999997,577711.628,577717.5,577728.219,581696.301,4,500,,
trial,html.Screen,10_19_0,2023-11-15T15:28:06.276Z,,,,1,-0.0134764727102299,-0.0033499036460912,,false,hh,2236.3989999881014,response,1.0996798766352407,0.9139375758446059,-0.870966037198268,0.9259269949251356,0.9459815376192091,-0.9690434145300362,high,high,,ISIC_0009998.JPG,9,ISIC_0030970.JPG,179,false,ll,keypress(f),0,false,583932.8999999911,583932.6999999881,581661.609,581678.599999994,581696.301,583945.148,4,500,20,
break,html.Screen,10_19_1,2023-11-15T15:28:06.276Z,,,,,,,,,,NaN,,,,,,,,high,high,,,,,,false,,,,false,583933.1999999881,583933.099999994,,583933,,583945.148,4,500,,
break_continue,html.Screen,10_19_2,2023-11-15T15:28:06.276Z,,,,,,,,,,NaN,,,,,,,,high,high,,,,,,false,,,,false,583933.299999997,583933.299999997,,583933.1999999881,,583945.148,4,500,,
sequence,flow.Sequence,10_19,2023-11-15T15:28:06.276Z,,,,,,,,,,2236.998999997042,completion,,,,,,,high,high,,,,,,false,,,,false,583933.3999999911,583933.299999997,581661.609,581678.599999994,581696.301,583945.148,4,500,,
trial,html.Screen,10_20_0,2023-11-15T15:28:09.045Z,,,,1,0.0608867680161491,0.0206384042070211,,false,hl,2756.3519999999553,response,0.8655167308525522,0.9139375758446059,-0.870966037198268,-0.9298580423306444,0.9459815376192091,-0.9690434145300362,high,low,,ISIC_0640806.JPG,9,ISIC_4603706.JPG,27,false,ll,keypress(f),0,false,586701.6999999881,586701.5,583928.338,583933.5,583945.148,586711.599,4,500,21,
break,html.Screen,10_20_1,2023-11-15T15:28:09.046Z,,,,,,,,,,NaN,,,,,,,,high,low,,,,,,false,,,,false,586702.599999994,586702.3999999911,,586702.099999994,,586711.599,4,500,,
break_continue,html.Screen,10_20_2,2023-11-15T15:28:09.046Z,,,,,,,,,,NaN,,,,,,,,high,low,,,,,,false,,,,false,586703.099999994,586703,,586702.799999997,,586711.599,4,500,,
sequence,flow.Sequence,10_20,2023-11-15T15:28:09.046Z,,,,,,,,,,2757.8519999999553,completion,,,,,,,high,low,,,,,,false,,,,false,586703.299999997,586703,583928.338,583933.5,583945.148,586711.599,4,500,,
trial,html.Screen,10_21_0,2023-11-15T15:28:14.621Z,,,,1,-0.0149482827359613,0.0661630859332833,,false,hh,5565.700999996974,response,1.018568530854085,0.9139375758446059,-0.870966037198268,0.830218316692649,0.9459815376192091,-0.9690434145300362,high,high,,ISIC_6815524.JPG,10,ISIC_0057180.JPG,179,false,lh,keypress(e),0,false,592277.5,592277.299999997,586694.925,586703.5,586711.599,592295.066,4,500,22,
break,html.Screen,10_21_1,2023-11-15T15:28:14.622Z,,,,,,,,,,NaN,,,,,,,,high,high,,,,,,false,,,,false,592278.099999994,592278,,592277.6999999881,,592295.066,4,500,,
break_continue,html.Screen,10_21_2,2023-11-15T15:28:14.622Z,,,,,,,,,,NaN,,,,,,,,high,high,,,,,,false,,,,false,592278.5,592278.3999999911,,592278.299999997,,592295.066,4,500,,
sequence,flow.Sequence,10_21,2023-11-15T15:28:14.622Z,,,,,,,,,,5566.800999991014,completion,,,,,,,high,high,,,,,,false,,,,false,592278.6999999881,592278.3999999911,586694.925,586703.5,586711.599,592295.066,4,500,,
trial,html.Screen,10_22_0,2023-11-15T15:28:17.005Z,,,,1,-0.0277178575053843,0.0395587463147856,,true,hh,2366.233999997028,response,0.829909234884455,0.9139375758446059,-0.870966037198268,1.0304874376319082,0.9459815376192091,-0.9690434145300362,high,high,,ISIC_0010807.JPG,8,ISIC_9211072.JPG,179,false,hh,keypress(i),0,false,594661.5,594661.299999997,592261.764,592278.8999999911,592295.066,594678.257,4,500,23,
break,html.Screen,10_22_1,2023-11-15T15:28:17.006Z,,,,,,,,,,NaN,,,,,,,,high,high,,,,,,false,,,,false,594662.1999999881,594662.099999994,,594661.799999997,,594678.257,4,500,,
break_continue,html.Screen,10_22_2,2023-11-15T15:28:17.006Z,,,,,,,,,,NaN,,,,,,,,high,high,,,,,,false,,,,false,594662.6999999881,594662.5,,594662.299999997,,594678.257,4,500,,
sequence,flow.Sequence,10_22,2023-11-15T15:28:17.006Z,,,,,,,,,,2367.4340000000084,completion,,,,,,,high,high,,,,,,false,,,,false,594662.8999999911,594662.5,592261.764,592278.799999997,592295.066,594678.257,4,500,,
trial,html.Screen,10_23_0,2023-11-15T15:28:19.940Z,,,,1,0.0107854985447517,0.0478010417136109,,true,ll,2918.442999988096,response,-0.7276520909788942,0.9139375758446059,-0.870966037198268,-1.1568655848993683,0.9459815376192091,-0.9690434145300362,low,low,,ISIC_0010500.JPG,9,ISIC_0029934.JPG,159,false,ll,keypress(f),0,false,597596.6999999881,597596.6999999881,594661.704,594663,594678.257,597611.736,4,500,24,
break,html.Screen,10_23_1,2023-11-15T15:28:19.941Z,,,,,,,,,,NaN,,,,,,,,low,low,,,,,,false,,,,false,597597.099999994,597597,,597596.8999999911,,597611.736,4,500,,
break_continue,html.Screen,10_23_2,2023-11-15T15:28:19.941Z,,,,,,,,,,NaN,,,,,,,,low,low,,,,,,false,,,,false,597597.299999997,597597.099999994,,597597.099999994,,597611.736,4,500,,
sequence,flow.Sequence,10_23,2023-11-15T15:28:19.941Z,,,,,,,,,,2918.8429999940563,completion,,,,,,,low,low,,,,,,false,,,,false,597597.299999997,597597.099999994,594661.704,594663,594678.257,597611.736,4,500,,
trial,html.Screen,10_24_0,2023-11-15T15:28:22.732Z,,,,1,-0.000047919190197942736,-0.0462652940855003,,false,hl,2776.9639999880455,response,0.7723849213858904,0.9139375758446059,-0.870966037198268,-0.888372424147899,0.9459815376192091,-0.9690434145300362,high,low,,ISIC_0011507.JPG,9,ISIC_3884221.JPG,27,false,hh,keypress(i),0,false,600388.799999997,600388.6999999881,597594.822,597597.299999997,597611.736,600394.945,4,500,25,
break,html.Screen,10_24_1,2023-11-15T15:28:22.733Z,,,,,,,,,,NaN,,,,,,,,high,low,,,,,,false,,,,false,600389.1999999881,600389.099999994,,600389,,600394.945,4,500,,
break_continue,html.Screen,10_24_2,2023-11-15T15:28:22.733Z,,,,,,,,,,NaN,,,,,,,,high,low,,,,,,false,,,,false,600389.3999999911,600389.299999997,,600389.299999997,,600394.945,4,500,,
sequence,flow.Sequence,10_24,2023-11-15T15:28:22.733Z,,,,,,,,,,2777.5639999969862,completion,,,,,,,high,low,,,,,,false,,,,false,600389.5,600389.299999997,597594.822,597597.299999997,597611.736,600394.945,4,500,,
trial,html.Screen,10_25_0,2023-11-15T15:28:27.781Z,,,,1,0.007397293189458,0.0174716772037504,,false,lh,5041.9549999911105,response,-0.8579451262594331,0.9139375758446059,-0.870966037198268,0.9633172970727744,0.9459815376192091,-0.9690434145300362,low,high,,ISIC_0056226.JPG,10,ISIC_0067172.JPG,38,false,ll,keypress(f),0,false,605437,605436.8999999911,600378.39,600389.5,600394.945,605444.932,4,500,26,
break,html.Screen,10_25_1,2023-11-15T15:28:27.781Z,,,,,,,,,,NaN,,,,,,,,low,high,,,,,,false,,,,false,605437.5,605437.3999999911,,605437.099999994,,605444.932,4,500,,
break_continue,html.Screen,10_25_2,2023-11-15T15:28:27.781Z,,,,,,,,,,NaN,,,,,,,,low,high,,,,,,false,,,,false,605437.799999997,605437.6999999881,,605437.599999994,,605444.932,4,500,,
sequence,flow.Sequence,10_25,2023-11-15T15:28:27.781Z,,,,,,,,,,5042.75499998813,completion,,,,,,,low,high,,,,,,false,,,,false,605437.8999999911,605437.6999999881,600378.39,600389.5,600394.945,605444.932,4,500,,
trial,html.Screen,10_26_0,2023-11-15T15:28:30.293Z,,,,1,-0.0134764727102299,-0.0033499036460912,,false,ll,2504.2679999880493,response,-0.8513702094329779,0.9139375758446059,-0.870966037198268,-0.8646686295881743,0.9459815376192091,-0.9690434145300362,low,low,,ISIC_0009998.JPG,8,ISIC_1881133.JPG,159,false,hh,keypress(i),0,false,607949.3999999911,607949.1999999881,605428.286,605438.099999994,605444.932,607961.717,4,500,27,
break,html.Screen,10_26_1,2023-11-15T15:28:30.294Z,,,,,,,,,,NaN,,,,,,,,low,low,,,,,,false,,,,false,607950.099999994,607949.8999999911,,607949.599999994,,607961.717,4,500,,
break_continue,html.Screen,10_26_2,2023-11-15T15:28:30.294Z,,,,,,,,,,NaN,,,,,,,,low,low,,,,,,false,,,,false,607950.5,607950.299999997,,607950.1999999881,,607961.717,4,500,,
sequence,flow.Sequence,10_26,2023-11-15T15:28:30.294Z,,,,,,,,,,2505.36799999699,completion,,,,,,,low,low,,,,,,false,,,,false,607950.6999999881,607950.299999997,605428.286,605438.099999994,605444.932,607961.717,4,500,,
trial,html.Screen,10_27_0,2023-11-15T15:28:32.189Z,,,,1,-0.0552031398781121,-0.0652612426529481,,true,ll,1883.482999988133,response,-0.6830586610781685,0.9139375758446059,-0.870966037198268,-0.9120764824099044,0.9459815376192091,-0.9690434145300362,low,low,,ISIC_0024226.JPG,9,ISIC_0033689.JPG,159,false,ll,keypress(f),0,false,609845.3999999911,609845.1999999881,607945.025,607950.799999997,607961.717,609861.592,4,500,28,
break,html.Screen,10_27_1,2023-11-15T15:28:32.190Z,,,,,,,,,,NaN,,,,,,,,low,low,,,,,,false,,,,false,609846.099999994,609845.8999999911,,609845.599999994,,609861.592,4,500,,
break_continue,html.Screen,10_27_2,2023-11-15T15:28:32.190Z,,,,,,,,,,NaN,,,,,,,,low,low,,,,,,false,,,,false,609846.3999999911,609846.299999997,,609846.1999999881,,609861.592,4,500,,
sequence,flow.Sequence,10_27,2023-11-15T15:28:32.190Z,,,,,,,,,,1884.5829999970738,completion,,,,,,,low,low,,,,,,false,,,,false,609846.599999994,609846.299999997,607945.025,607950.799999997,607961.717,609861.592,4,500,,
trial,html.Screen,10_28_0,2023-11-15T15:28:35.805Z,,,,1,0.0194167651857046,0.0726253809408601,,true,ll,3599.3079999911133,response,-0.8859261802814055,0.9139375758446059,-0.870966037198268,-0.9191342361964594,0.9459815376192091,-0.9690434145300362,low,low,,ISIC_0056692.JPG,9,ISIC_0029395.JPG,159,false,ll,keypress(f),0,false,613461,613460.8999999911,609844.999,609846.6999999881,609861.592,613478.342,4,500,29,
break,html.Screen,10_28_1,2023-11-15T15:28:35.805Z,,,,,,,,,,NaN,,,,,,,,low,low,,,,,,false,,,,false,613461.299999997,613461.299999997,,613461.099999994,,613478.342,4,500,,
break_continue,html.Screen,10_28_2,2023-11-15T15:28:35.805Z,,,,,,,,,,NaN,,,,,,,,low,low,,,,,,false,,,,false,613461.599999994,613461.599999994,,613461.3999999911,,613478.342,4,500,,
sequence,flow.Sequence,10_28,2023-11-15T15:28:35.805Z,,,,,,,,,,3600.0079999940936,completion,,,,,,,low,low,,,,,,false,,,,false,613461.6999999881,613461.599999994,609844.999,609846.599999994,609861.592,613478.342,4,500,,
trial,html.Screen,10_29_0,2023-11-15T15:28:38.589Z,,,,1,-0.040191644178716,0.0622582668671422,,false,hl,2766.658000000054,response,0.7468996036626098,0.9139375758446059,-0.870966037198268,-0.8073835700282378,0.9459815376192091,-0.9690434145300362,high,low,,ISIC_6207688.JPG,9,ISIC_5335139.JPG,27,false,hh,keypress(i),0,false,616245.299999997,616245,613444.975,613461.799999997,613478.342,616261.625,4,500,30,
break,html.Screen,10_29_1,2023-11-15T15:28:38.589Z,,,,,,,,,,NaN,,,,,,,,high,low,,,,,,false,,,,false,616245.799999997,616245.6999999881,,616245.5,,616261.625,4,500,,
break_continue,html.Screen,10_29_2,2023-11-15T15:28:38.590Z,,,,,,,,,,NaN,,,,,,,,high,low,,,,,,false,,,,false,616246.299999997,616246.1999999881,,616246,,616261.625,4,500,,
sequence,flow.Sequence,10_29,2023-11-15T15:28:38.590Z,,,,,,,,,,2767.857999988133,completion,,,,,,,high,low,,,,,,false,,,,false,616246.5,616246.1999999881,613444.975,613461.799999997,613478.342,616261.625,4,500,,
trial,html.Screen,10_30_0,2023-11-15T15:28:43.052Z,,,,1,-0.0348234368746005,0.0236866303880924,,false,lh,4446.9749999940395,response,-0.7016683761932542,0.9139375758446059,-0.870966037198268,1.043794098855853,0.9459815376192091,-0.9690434145300362,low,high,,ISIC_0011099.JPG,9,ISIC_0033117.JPG,38,false,hl,keypress(j),0,false,620708.6999999881,620708.599999994,616245.059,616246.599999994,616261.625,620711.594,4,500,31,
break,html.Screen,10_30_1,2023-11-15T15:28:43.053Z,,,,,,,,,,NaN,,,,,,,,low,high,,,,,,false,,,,false,620709,620708.8999999911,,620708.6999999881,,620711.594,4,500,,
break_continue,html.Screen,10_30_2,2023-11-15T15:28:43.053Z,,,,,,,,,,NaN,,,,,,,,low,high,,,,,,false,,,,false,620709.299999997,620709.1999999881,,620709,,620711.594,4,500,,
sequence,flow.Sequence,10_30,2023-11-15T15:28:43.053Z,,,,,,,,,,4447.574999988079,completion,,,,,,,low,high,,,,,,false,,,,false,620709.299999997,620709.1999999881,616245.059,616246.5,616261.625,620711.594,4,500,,
trial,html.Screen,10_31_0,2023-11-15T15:28:46.940Z,,,,1,0.0329095507339554,-0.0382899749693245,,true,hh,3885.205999996979,response,0.8990371936242809,0.9139375758446059,-0.870966037198268,0.9654850730344297,0.9459815376192091,-0.9690434145300362,high,high,,ISIC_8812781.JPG,9,ISIC_0010308.JPG,179,false,hh,keypress(i),0,false,624597,624596.799999997,620694.906,620709.3999999911,620711.594,624611.844,4,500,32,
break,html.Screen,10_31_1,2023-11-15T15:28:46.941Z,,,,,,,,,,NaN,,,,,,,,high,high,,,,,,false,,,,false,624597.3999999911,624597.3999999911,,624597.1999999881,,624611.844,4,500,,
break_continue,html.Screen,10_31_2,2023-11-15T15:28:46.941Z,,,,,,,,,,NaN,,,,,,,,high,high,,,,,,false,,,,false,624597.799999997,624597.6999999881,,624597.599999994,,624611.844,4,500,,
sequence,flow.Sequence,10_31,2023-11-15T15:28:46.941Z,,,,,,,,,,3886.105999988038,completion,,,,,,,high,high,,,,,,false,,,,false,624598,624597.6999999881,620694.906,620709.3999999911,620711.594,624611.844,4,500,,
trial,html.Screen,10_32_0,2023-11-15T15:28:48.845Z,,,,1,0.0050679133050021,-0.0009714874637896,,false,hl,1889.4559999969788,response,1.0213365328004047,0.9139375758446059,-0.870966037198268,-1.088524359911891,0.9459815376192091,-0.9690434145300362,high,low,,ISIC_9848743.JPG,10,ISIC_5434229.JPG,27,false,hh,keypress(i),0,false,626501.5,626501.299999997,624594.888,624598,624611.844,626511.632,4,500,33,
break,html.Screen,10_32_1,2023-11-15T15:28:48.846Z,,,,,,,,,,NaN,,,,,,,,high,low,,,,,,false,,,,false,626502.099999994,626502,,626501.6999999881,,626511.632,4,500,,
break_continue,html.Screen,10_32_2,2023-11-15T15:28:48.846Z,,,,,,,,,,NaN,,,,,,,,high,low,,,,,,false,,,,false,626502.5,626502.3999999911,,626502.1999999881,,626511.632,4,500,,
sequence,flow.Sequence,10_32,2023-11-15T15:28:48.846Z,,,,,,,,,,1890.5559999910183,completion,,,,,,,high,low,,,,,,false,,,,false,626502.599999994,626502.3999999911,624594.888,624598,624611.844,626511.632,4,500,,
trial,html.Screen,10_33_0,2023-11-15T15:28:54.101Z,,,,1,0.0415913596725838,-0.0543422987007948,,false,lh,5245.567999988096,response,-0.9433720631499012,0.9139375758446059,-0.870966037198268,1.0582071940347648,0.9459815376192091,-0.9690434145300362,low,high,,ISIC_0027956.JPG,9,ISIC_4890201.JPG,38,false,ll,keypress(f),0,false,631757.299999997,631757.1999999881,626495.071,626502.6999999881,626511.632,631761.626,4,500,34,
break,html.Screen,10_33_1,2023-11-15T15:28:54.101Z,,,,,,,,,,NaN,,,,,,,,low,high,,,,,,false,,,,false,631757.8999999911,631757.799999997,,631757.5,,631761.626,4,500,,
break_continue,html.Screen,10_33_2,2023-11-15T15:28:54.102Z,,,,,,,,,,NaN,,,,,,,,low,high,,,,,,false,,,,false,631758.3999999911,631758.1999999881,,631758.099999994,,631761.626,4,500,,
sequence,flow.Sequence,10_33,2023-11-15T15:28:54.102Z,,,,,,,,,,5246.567999988096,completion,,,,,,,low,high,,,,,,false,,,,false,631758.5,631758.1999999881,626495.071,626502.6999999881,626511.632,631761.626,4,500,,
trial,html.Screen,10_34_0,2023-11-15T15:28:56.397Z,,,,1,0.0111354529246037,-0.0585810480909377,,false,lh,2291.973999993992,response,-0.991282840649944,0.9139375758446059,-0.870966037198268,0.9397921099839784,0.9459815376192091,-0.9690434145300362,low,high,,ISIC_7858034.JPG,9,ISIC_0000463.JPG,38,false,ll,keypress(f),0,false,634053.799999997,634053.599999994,631744.92,631758.599999994,631761.626,634061.61,4,500,35,
break,html.Screen,10_34_1,2023-11-15T15:28:56.398Z,,,,,,,,,,NaN,,,,,,,,low,high,,,,,,false,,,,false,634054.799999997,634054.599999994,,634054.099999994,,634061.61,4,500,,
break_continue,html.Screen,10_34_2,2023-11-15T15:28:56.399Z,,,,,,,,,,NaN,,,,,,,,low,high,,,,,,false,,,,false,634055.5,634055.1999999881,,634055,,634061.61,4,500,,
sequence,flow.Sequence,10_34,2023-11-15T15:28:56.399Z,,,,,,,,,,2293.5739999880316,completion,,,,,,,low,high,,,,,,false,,,,false,634055.6999999881,634055.1999999881,631744.92,631758.599999994,631761.626,634061.61,4,500,,
trial,html.Screen,10_35_0,2023-11-15T15:29:02.261Z,,,,1,0.0511770300585718,0.029030243555971,,false,ll,5855.390000000014,response,-0.7969140985091036,0.9139375758446059,-0.870966037198268,-0.9215855883749826,0.9459815376192091,-0.9690434145300362,low,low,,ISIC_6652978.JPG,9,ISIC_0027431.JPG,159,false,lh,keypress(e),0,false,639917.299999997,639917,634045.002,634055.8999999911,634061.61,639928.254,4,500,36,
break,html.Screen,10_35_1,2023-11-15T15:29:02.261Z,,,,,,,,,,NaN,,,,,,,,low,low,,,,,,false,,,,false,639917.799999997,639917.599999994,,639917.5,,639928.254,4,500,,
break_continue,html.Screen,10_35_2,2023-11-15T15:29:02.262Z,,,,,,,,,,NaN,,,,,,,,low,low,,,,,,false,,,,false,639918.1999999881,639918.099999994,,639918,,639928.254,4,500,,
sequence,flow.Sequence,10_35,2023-11-15T15:29:02.262Z,,,,,,,,,,5856.4899999940535,completion,,,,,,,low,low,,,,,,false,,,,false,639918.299999997,639918.099999994,634045.002,634055.799999997,634061.61,639928.254,4,500,,
trial,html.Screen,10_36_0,2023-11-15T15:29:05.380Z,,,,1,-0.0112310719058792,0.0469047359904117,,true,lh,3108.145999991102,response,-0.8579451262594331,0.9139375758446059,-0.870966037198268,0.9633172970727744,0.9459815376192091,-0.9690434145300362,low,high,,ISIC_0068184.JPG,9,ISIC_0067172.JPG,38,false,lh,keypress(e),0,false,643036.5,643036.3999999911,639911.658,639918.5,639928.254,643044.934,4,500,37,
break,html.Screen,10_36_1,2023-11-15T15:29:05.380Z,,,,,,,,,,NaN,,,,,,,,low,high,,,,,,false,,,,false,643036.799999997,643036.6999999881,,643036.599999994,,643044.934,4,500,,
break_continue,html.Screen,10_36_2,2023-11-15T15:29:05.380Z,,,,,,,,,,NaN,,,,,,,,low,high,,,,,,false,,,,false,643037,643036.8999999911,,643036.799999997,,643044.934,4,500,,
sequence,flow.Sequence,10_36,2023-11-15T15:29:05.381Z,,,,,,,,,,3108.645999991102,completion,,,,,,,low,high,,,,,,false,,,,false,643037,643036.8999999911,639911.658,639918.5,639928.254,643044.934,4,500,,
trial,html.Screen,10_37_0,2023-11-15T15:29:07.566Z,,,,1,0.039728379742806,-0.0228701131373768,,false,hl,2177.0659999999916,response,0.7723849213858904,0.9139375758446059,-0.870966037198268,-0.888372424147899,0.9459815376192091,-0.9690434145300362,high,low,,ISIC_0054073.JPG,8,ISIC_3884221.JPG,27,false,hh,keypress(i),0,false,645222.1999999881,645222,643028.36,643037.099999994,643044.934,645228.321,4,500,38,
break,html.Screen,10_37_1,2023-11-15T15:29:07.566Z,,,,,,,,,,NaN,,,,,,,,high,low,,,,,,false,,,,false,645222.799999997,645222.6999999881,,645222.3999999911,,645228.321,4,500,,
break_continue,html.Screen,10_37_2,2023-11-15T15:29:07.567Z,,,,,,,,,,NaN,,,,,,,,high,low,,,,,,false,,,,false,645223.099999994,645223,,645223,,645228.321,4,500,,
sequence,flow.Sequence,10_37,2023-11-15T15:29:07.567Z,,,,,,,,,,2178.0659999999916,completion,,,,,,,high,low,,,,,,false,,,,false,645223.299999997,645223,643028.36,643037,643044.934,645228.321,4,500,,
trial,html.Screen,10_38_0,2023-11-15T15:29:10.340Z,,,,1,-0.0565575423757561,-0.0394300226801425,,false,hh,2768.2789999940433,response,0.9106525024234248,0.9139375758446059,-0.870966037198268,0.944391889009556,0.9459815376192091,-0.9690434145300362,high,high,,ISIC_0046983.JPG,9,ISIC_0058676.JPG,179,false,ll,keypress(f),0,false,647996.799999997,647996.599999994,645211.639,645223.3999999911,645228.321,648011.711,4,500,39,
break,html.Screen,10_38_1,2023-11-15T15:29:10.341Z,,,,,,,,,,NaN,,,,,,,,high,high,,,,,,false,,,,false,647997.099999994,647997,,647996.8999999911,,648011.711,4,500,,
break_continue,html.Screen,10_38_2,2023-11-15T15:29:10.341Z,,,,,,,,,,NaN,,,,,,,,high,high,,,,,,false,,,,false,647997.299999997,647997.1999999881,,647997.099999994,,648011.711,4,500,,
sequence,flow.Sequence,10_38,2023-11-15T15:29:10.341Z,,,,,,,,,,2768.878999988083,completion,,,,,,,high,high,,,,,,false,,,,false,647997.299999997,647997.1999999881,645211.639,645223.299999997,645228.321,648011.711,4,500,,
trial,html.Screen,10_39_0,2023-11-15T15:29:14.117Z,,,,1,-0.009234249673026,-0.0627190878028592,,false,lh,3761.3889999940293,response,-0.8534691366511764,0.9139375758446059,-0.870966037198268,1.03975580494588,0.9459815376192091,-0.9690434145300362,low,high,,ISIC_0053760.JPG,10,ISIC_0056788.JPG,38,false,ll,keypress(f),0,false,651773.299999997,651773.099999994,647994.979,647997.3999999911,648011.711,651778.322,4,500,40,
break,html.Screen,10_39_1,2023-11-15T15:29:14.118Z,,,,,,,,,,NaN,,,,,,,,low,high,,,,,,false,,,,false,651773.799999997,651773.599999994,,651773.3999999911,,651778.322,4,500,,
break_continue,html.Screen,10_39_2,2023-11-15T15:29:14.118Z,,,,,,,,,,NaN,,,,,,,,low,high,,,,,,false,,,,false,651774.099999994,651774,,651773.799999997,,651778.322,4,500,,
sequence,flow.Sequence,10_39,2023-11-15T15:29:14.118Z,,,,,,,,,,3762.2889999999898,completion,,,,,,,low,high,,,,,,false,,,,false,651774.1999999881,651774,647994.979,647997.3999999911,648011.711,651778.322,4,500,,
trial,html.Screen,10_40_0,2023-11-15T15:29:16.054Z,,,,1,-0.0533723079251252,-0.0299718727255261,,false,hl,1930.8779999880353,response,0.8947611078712571,0.9139375758446059,-0.870966037198268,-0.8960964505004638,0.9459815376192091,-0.9690434145300362,high,low,,ISIC_6562871.JPG,9,ISIC_6441128.JPG,27,false,hh,keypress(i),0,false,653709.5,653709.1999999881,651761.826,651774.299999997,651778.322,653711.666,4,500,41,
break,html.Screen,10_40_1,2023-11-15T15:29:16.054Z,,,,,,,,,,NaN,,,,,,,,high,low,,,,,,false,,,,false,653710,653709.8999999911,,653709.6999999881,,653711.666,4,500,,
break_continue,html.Screen,10_40_2,2023-11-15T15:29:16.055Z,,,,,,,,,,NaN,,,,,,,,high,low,,,,,,false,,,,false,653710.5,653710.3999999911,,653710.299999997,,653711.666,4,500,,
sequence,flow.Sequence,10_40,2023-11-15T15:29:16.055Z,,,,,,,,,,1932.0779999910155,completion,,,,,,,high,low,,,,,,false,,,,false,653710.6999999881,653710.3999999911,651761.826,651774.299999997,651778.322,653711.666,4,500,,
trial,html.Screen,10_41_0,2023-11-15T15:29:18.533Z,,,,1,-0.0021038737988857,0.0570427519488725,,false,hh,2477.233999991091,response,0.7217326688439986,0.9139375758446059,-0.870966037198268,0.7521168894214699,0.9459815376192091,-0.9690434145300362,high,high,,ISIC_3596927.JPG,9,ISIC_0030080.JPG,179,false,ll,keypress(f),0,false,656189.099999994,656188.8999999911,653695.102,653710.8999999911,653711.666,656194.999,4,500,42,
break,html.Screen,10_41_1,2023-11-15T15:29:18.534Z,,,,,,,,,,NaN,,,,,,,,high,high,,,,,,false,,,,false,656189.599999994,656189.5,,656189.299999997,,656194.999,4,500,,
break_continue,html.Screen,10_41_2,2023-11-15T15:29:18.534Z,,,,,,,,,,NaN,,,,,,,,high,high,,,,,,false,,,,false,656190,656189.8999999911,,656189.6999999881,,656194.999,4,500,,
sequence,flow.Sequence,10_41,2023-11-15T15:29:18.534Z,,,,,,,,,,2478.233999991091,completion,,,,,,,high,high,,,,,,false,,,,false,656190.099999994,656189.8999999911,653695.102,653710.799999997,653711.666,656194.999,4,500,,
trial,html.Screen,10_42_0,2023-11-15T15:29:20.502Z,,,,1,0.0593670819812057,-0.0718390543903236,,false,lh,1962.7009999881266,response,-0.6741876485718082,0.9139375758446059,-0.870966037198268,0.7591012084956917,0.9459815376192091,-0.9690434145300362,low,high,,ISIC_0062367.JPG,10,ISIC_7539727.JPG,38,false,ll,keypress(f),0,false,658157.8999999911,658157.6999999881,656178.276,656190.1999999881,656194.999,658161.663,4,500,43,
break,html.Screen,10_42_1,2023-11-15T15:29:20.503Z,,,,,,,,,,NaN,,,,,,,,low,high,,,,,,false,,,,false,658158.5,658158.3999999911,,658158.099999994,,658161.663,4,500,,
break_continue,html.Screen,10_42_2,2023-11-15T15:29:20.503Z,,,,,,,,,,NaN,,,,,,,,low,high,,,,,,false,,,,false,658158.8999999911,658158.799999997,,658158.599999994,,658161.663,4,500,,
sequence,flow.Sequence,10_42,2023-11-15T15:29:20.503Z,,,,,,,,,,1963.8009999970673,completion,,,,,,,low,high,,,,,,false,,,,false,658159.099999994,658158.799999997,656178.276,656190.1999999881,656194.999,658161.663,4,500,,
trial,html.Screen,10_43_0,2023-11-15T15:29:25.213Z,,,,1,-0.0693466529227737,-0.044703434393184,,false,ll,4707.236999991117,response,-0.952434586184464,0.9139375758446059,-0.870966037198268,-0.870679752281305,0.9459815376192091,-0.9690434145300362,low,low,,ISIC_0004217.JPG,9,ISIC_5791954.JPG,159,false,hh,keypress(i),0,false,662869.099999994,662868.8999999911,658145.13,658159.099999994,658161.663,662878.367,4,500,44,
break,html.Screen,10_43_1,2023-11-15T15:29:25.214Z,,,,,,,,,,NaN,,,,,,,,low,low,,,,,,false,,,,false,662869.5,662869.3999999911,,662869.299999997,,662878.367,4,500,,
break_continue,html.Screen,10_43_2,2023-11-15T15:29:25.214Z,,,,,,,,,,NaN,,,,,,,,low,low,,,,,,false,,,,false,662869.799999997,662869.6999999881,,662869.599999994,,662878.367,4,500,,
sequence,flow.Sequence,10_43,2023-11-15T15:29:25.214Z,,,,,,,,,,4708.036999988137,completion,,,,,,,low,low,,,,,,false,,,,false,662869.8999999911,662869.6999999881,658145.13,658159.099999994,658161.663,662878.367,4,500,,
trial,html.Screen,10_44_0,2023-11-15T15:29:28.366Z,,,,1,-0.0362376068089956,-0.047825070846155,,true,ll,3143.4329999970505,response,-0.8005752697082944,0.9139375758446059,-0.870966037198268,-0.8062281749376046,0.9459815376192091,-0.9690434145300362,low,low,,ISIC_6985114.JPG,9,ISIC_0031104.JPG,159,false,ll,keypress(f),0,false,666022,666021.799999997,662861.69,662870,662878.367,666028.355,4,500,45,
break,html.Screen,10_44_1,2023-11-15T15:29:28.367Z,,,,,,,,,,NaN,,,,,,,,low,low,,,,,,false,,,,false,666023,666022.799999997,,666022.3999999911,,666028.355,4,500,,
break_continue,html.Screen,10_44_2,2023-11-15T15:29:28.368Z,,,,,,,,,,NaN,,,,,,,,low,low,,,,,,false,,,,false,666023.599999994,666023.3999999911,,666023.1999999881,,666028.355,4,500,,
sequence,flow.Sequence,10_44,2023-11-15T15:29:28.368Z,,,,,,,,,,3145.03299999109,completion,,,,,,,low,low,,,,,,false,,,,false,666023.8999999911,666023.3999999911,662861.69,662869.8999999911,662878.367,666028.355,4,500,,
trial,html.Screen,10_45_0,2023-11-15T15:29:32.102Z,,,,1,-0.0220322185490382,-0.0740918837949419,,false,lh,3728.9449999970384,response,-0.8809306963311293,0.9139375758446059,-0.870966037198268,0.8614910030038974,0.9459815376192091,-0.9690434145300362,low,high,,ISIC_8105020.JPG,9,ISIC_0013731.JPG,38,false,ll,keypress(f),0,false,669757.3999999911,669757.299999997,666011.797,666024,666028.355,669761.689,4,500,46,
break,html.Screen,10_45_1,2023-11-15T15:29:32.102Z,,,,,,,,,,NaN,,,,,,,,low,high,,,,,,false,,,,false,669758.099999994,669757.8999999911,,669757.599999994,,669761.689,4,500,,
break_continue,html.Screen,10_45_2,2023-11-15T15:29:32.103Z,,,,,,,,,,NaN,,,,,,,,low,high,,,,,,false,,,,false,669758.3999999911,669758.299999997,,669758.1999999881,,669761.689,4,500,,
sequence,flow.Sequence,10_45,2023-11-15T15:29:32.103Z,,,,,,,,,,3729.9449999970384,completion,,,,,,,low,high,,,,,,false,,,,false,669758.599999994,669758.299999997,666011.797,666024,666028.355,669761.689,4,500,,
trial,html.Screen,10_46_0,2023-11-15T15:29:38.926Z,,,,1,-0.0112310719058792,0.0469047359904117,,false,hl,6820.010999988066,response,0.8655167308525522,0.9139375758446059,-0.870966037198268,-0.9298580423306444,0.9459815376192091,-0.9690434145300362,high,low,,ISIC_0068184.JPG,10,ISIC_4603706.JPG,27,false,hh,keypress(i),0,false,676582,676581.6999999881,669745.044,669758.799999997,669761.689,676595.065,4,500,47,
break,html.Screen,10_46_1,2023-11-15T15:29:38.927Z,,,,,,,,,,NaN,,,,,,,,high,low,,,,,,false,,,,false,676582.799999997,676582.599999994,,676582.299999997,,676595.065,4,500,,
break_continue,html.Screen,10_46_2,2023-11-15T15:29:38.927Z,,,,,,,,,,NaN,,,,,,,,high,low,,,,,,false,,,,false,676583.299999997,676583.099999994,,676583,,676595.065,4,500,,
sequence,flow.Sequence,10_46,2023-11-15T15:29:38.928Z,,,,,,,,,,6821.4109999940265,completion,,,,,,,high,low,,,,,,false,,,,false,676583.5,676583.099999994,669745.044,669758.799999997,669761.689,676595.065,4,500,,
trial,html.Screen,10_47_0,2023-11-15T15:29:40.741Z,,,,1,0.0116094682222121,-0.0258434522530318,,false,hl,1801.7349999970756,response,0.948927472020595,0.9139375758446059,-0.870966037198268,-1.0660437155921598,0.9459815376192091,-0.9690434145300362,high,low,,ISIC_9239632.JPG,9,ISIC_5808758.JPG,27,false,hh,keypress(i),0,false,678397,678396.799999997,676578.46,676583.599999994,676595.065,678411.912,4,500,48,
break,html.Screen,10_47_1,2023-11-15T15:29:40.742Z,,,,,,,,,,NaN,,,,,,,,high,low,,,,,,false,,,,false,678397.5,678397.3999999911,,678397.099999994,,678411.912,4,500,,
break_continue,html.Screen,10_47_2,2023-11-15T15:29:40.742Z,,,,,,,,,,NaN,,,,,,,,high,low,,,,,,false,,,,false,678397.799999997,678397.6999999881,,678397.599999994,,678411.912,4,500,,
sequence,flow.Sequence,10_47,2023-11-15T15:29:40.742Z,,,,,,,,,,1802.634999988135,completion,,,,,,,high,low,,,,,,false,,,,false,678398,678397.6999999881,676578.46,676583.599999994,676595.065,678411.912,4,500,,
trial,html.Screen,10_48_0,2023-11-15T15:29:43.845Z,,,,1,-0.040191644178716,0.0622582668671422,,false,hl,3088.6879999940284,response,0.7871162143493278,0.9139375758446059,-0.870966037198268,-0.8429329800778957,0.9459815376192091,-0.9690434145300362,high,low,,ISIC_6207688.JPG,9,ISIC_3439215.JPG,27,false,hh,keypress(i),0,false,681500.799999997,681500.599999994,678394.982,678398.099999994,678411.912,681511.779,4,500,49,
break,html.Screen,10_48_1,2023-11-15T15:29:43.845Z,,,,,,,,,,NaN,,,,,,,,high,low,,,,,,false,,,,false,681501,681501,,681500.8999999911,,681511.779,4,500,,
break_continue,html.Screen,10_48_2,2023-11-15T15:29:43.845Z,,,,,,,,,,NaN,,,,,,,,high,low,,,,,,false,,,,false,681501.299999997,681501.1999999881,,681501.1999999881,,681511.779,4,500,,
sequence,flow.Sequence,10_48,2023-11-15T15:29:43.845Z,,,,,,,,,,3089.287999988068,completion,,,,,,,high,low,,,,,,false,,,,false,681501.299999997,681501.1999999881,678394.982,678398,678411.912,681511.779,4,500,,
trial,html.Screen,10_49_0,2023-11-15T15:29:45.917Z,,,,1,-0.0348234368746005,0.0236866303880924,,false,hh,2061.120999991079,response,0.7858981101622865,0.9139375758446059,-0.870966037198268,1.098700382725708,0.9459815376192091,-0.9690434145300362,high,high,,ISIC_0011099.JPG,9,ISIC_0059733.JPG,179,false,ll,keypress(f),0,false,683573,683572.8999999911,681495.075,681501.3999999911,681511.779,683578.35,4,500,50,
break,html.Screen,10_49_1,2023-11-15T15:29:45.917Z,,,,,,,,,,NaN,,,,,,,,high,high,,,,,,false,,,,false,683573.299999997,683573.1999999881,,683573.099999994,,683578.35,4,500,,
break_continue,html.Screen,10_49_2,2023-11-15T15:29:45.918Z,,,,,,,,,,NaN,,,,,,,,high,high,,,,,,false,,,,false,683573.5,683573.3999999911,,683573.299999997,,683578.35,4,500,,
sequence,flow.Sequence,10_49,2023-11-15T15:29:45.918Z,,,,,,,,,,2061.620999991079,completion,,,,,,,high,high,,,,,,false,,,,false,683573.599999994,683573.3999999911,681495.075,681501.3999999911,681511.779,683578.35,4,500,,
