sender,sender_type,sender_id,timestamp,meta,,age,blockNo,c1,c2,condition,correct,correctResponse,duration,ended_on,f1,f1_high,f1_low,f2,f2_high,f2_low,feature_level1,feature_level2,gender,img_left,img_reveal,img_right,n_target_images,practice,response,response_action,selection_duration,staircase,time_commit,time_end,time_render,time_run,time_show,time_switch,total_blocks,total_trials,trialNo,url
informed_consent,html.Screen,0,2023-11-15T15:33:04.507Z,"{""labjs_version"":""20.2.4"",""labjs_build"":{""flavor"":""development"",""commit"":""f5b4a49f956347addd546a832a3327688c2c0fef""},""location"":""https://labjs.felixhenninger.com/api/labjs_preview/index.html"",""userAgent"":""Mozilla/5.0 (Windows NT 10.0; Win64; x64) AppleWebKit/537.36 (KHTML, like Gecko) Chrome/119.0.0.0 Safari/537.36"",""platform"":""Win32"",""language"":""en-US"",""locale"":""en-US"",""timeZone"":""America/Chicago"",""timezoneOffset"":360,""screen_width"":1920,""screen_height"":1080,""scroll_width"":945,""scroll_height"":918,""window_innerWidth"":945,""window_innerHeight"":966,""devicePixelRatio"":1}",,,,,,,,,31464.169000035763,response,,,,,,,,,,,,,,,consent,click button,,,31981.5,31973.400000035763,492.551,640.5,509.231,31859.188,,,,{}
Demography form,html.Form,1,2023-11-15T15:33:25.754Z,,,18,,,,,,,21369.812,form submission,,,,,,,,,female,,,,,,,,,,53229.30000001192,53229,31842.764,31981.80000001192,31859.188,53093.362,,,,
Welcome,html.Screen,2,2023-11-15T15:33:55.652Z,,,,,,,"[""bor"",""col""]",,,30032.93800001192,response,,,,,,,,,,,,,,,continue,click button,,,83127,83126.30000001192,53059.156,53229.30000001192,53093.362,83009.395,,,,
demo_instructions,html.Screen,3,2023-11-15T15:34:04.611Z,,,,,,,,,,9076.104999999996,response,,,,,,,,,,,,,,,continue,click button,,,92086.19999998808,92085.5,82992.736,83127,83009.395,91942.445,,,,
trial,html.Screen,4_0_0,2023-11-15T15:34:11.203Z,,,,0,0.8350129142228142,-0.8172547818270586,,true,lh,6735.254999988072,response,-0.7088606387153258,0.8999999999999997,-0.8999999999999997,0.948610930521224,0.8999999999999997,-0.8999999999999997,low,high,,ISIC_0301568.JPG,,ISIC_0026293.JPG,29,true,lh,keypress(e),100,false,98677.90000003576,98677.69999998808,91926.021,92086.40000003576,91942.445,98559.212,1,16,1,
sequence,flow.Sequence,4_0,2023-11-15T15:34:11.208Z,,,,,,,,,,6735.254999988072,completion,,,,,,,low,high,,,,,,true,,,,false,98683.10000002384,98677.69999998808,91926.021,92086.40000003576,91942.445,98559.212,1,16,,
trial,html.Screen,4_1_0,2023-11-15T15:34:18.635Z,,,,0,1.0116417541846066,-1.033442916947398,,true,lh,7550.388000023842,response,-0.8954803463300026,0.8999999999999997,-0.8999999999999997,0.7071819047913821,0.8999999999999997,-0.8999999999999997,low,high,,ISIC_0031389.JPG,,ISIC_0033071.JPG,29,true,lh,keypress(e),100,false,106109.80000001192,106109.60000002384,98542.709,98683.19999998808,98559.212,105992.626,1,16,2,
sequence,flow.Sequence,4_1,2023-11-15T15:34:18.635Z,,,,,,,,,,7550.388000023842,completion,,,,,,,low,high,,,,,,true,,,,false,106110,106109.60000002384,98542.709,98683.19999998808,98559.212,105992.626,1,16,,
trial,html.Screen,4_2_0,2023-11-15T15:34:25.742Z,,,,0,0.7692916291112835,-0.7818604706992622,,true,lh,7223.974000023838,response,-1.058275612142778,0.8999999999999997,-0.8999999999999997,0.7824898568540655,0.8999999999999997,-0.8999999999999997,low,high,,ISIC_7844825.JPG,,ISIC_4906385.JPG,29,true,lh,keypress(e),100,false,113216.80000001192,113216.60000002384,105975.955,106110,105992.626,113092.601,1,16,3,
sequence,flow.Sequence,4_2,2023-11-15T15:34:25.742Z,,,,,,,,,,7223.974000023838,completion,,,,,,,low,high,,,,,,true,,,,false,113217,113216.60000002384,105975.955,106110,105992.626,113092.601,1,16,,
trial,html.Screen,4_3_0,2023-11-15T15:34:37.105Z,,,,0,0.7692916291112835,-0.7818604706992622,,true,lh,11487.499000023847,response,-1.0369885917487718,0.8999999999999997,-0.8999999999999997,0.8486937878412699,0.8999999999999997,-0.8999999999999997,low,high,,ISIC_7844825.JPG,,ISIC_6917681.JPG,29,true,lh,keypress(e),100,false,124580.19999998808,124580.10000002384,113076.032,113217.10000002384,113092.601,124459.292,1,16,4,
sequence,flow.Sequence,4_3,2023-11-15T15:34:37.106Z,,,,,,,,,,11487.499000023847,completion,,,,,,,low,high,,,,,,true,,,,false,124580.40000003576,124580.10000002384,113076.032,113217.10000002384,113092.601,124459.292,1,16,,
trial,html.Screen,4_4_0,2023-11-15T15:34:48.245Z,,,,0,0.9602936946729488,0.747034716272411,,true,ll,11260.108000035762,response,-1.0008081653938232,0.8999999999999997,-0.8999999999999997,-0.7832040253954599,0.8999999999999997,-0.8999999999999997,low,low,,ISIC_0205127.JPG,,ISIC_8796632.JPG,169,true,ll,keypress(f),100,false,135719.60000002384,135719.40000003576,124442.685,124580.5,124459.292,135592.398,1,16,5,
sequence,flow.Sequence,4_4,2023-11-15T15:34:48.245Z,,,,,,,,,,11260.108000035762,completion,,,,,,,low,low,,,,,,true,,,,false,135719.69999998808,135719.40000003576,124442.685,124580.40000003576,124459.292,135592.398,1,16,,
trial,html.Screen,4_5_0,2023-11-15T15:35:01.528Z,,,,0,0.8475699534335533,1.0082663551580755,,true,ll,13409.801999988093,response,-0.9867903749582616,0.8999999999999997,-0.8999999999999997,-0.779537769597012,0.8999999999999997,-0.8999999999999997,low,low,,ISIC_0066429.JPG,,ISIC_7168122.JPG,169,true,ll,keypress(f),100,false,149002.40000003576,149002.19999998808,135575.752,135719.90000003576,135592.398,148875.754,1,16,6,
sequence,flow.Sequence,4_5,2023-11-15T15:35:01.528Z,,,,,,,,,,13409.801999988093,completion,,,,,,,low,low,,,,,,true,,,,false,149002.5,149002.19999998808,135575.752,135719.90000003576,135592.398,148875.754,1,16,,
trial,html.Screen,4_6_0,2023-11-15T15:35:04.971Z,,,,0,0.7390449930107234,0.708917192410697,,true,ll,3569.2460000000137,response,-1.090663233695186,0.8999999999999997,-0.8999999999999997,-0.832189069975425,0.8999999999999997,-0.8999999999999997,low,low,,ISIC_0033168.JPG,,ISIC_0057344.JPG,169,true,ll,keypress(f),100,false,152445.19999998808,152445,148859.156,149002.60000002384,148875.754,152325.836,1,16,7,
sequence,flow.Sequence,4_6,2023-11-15T15:35:04.971Z,,,,,,,,,,3569.2460000000137,completion,,,,,,,low,low,,,,,,true,,,,false,152445.40000003576,152445,148859.156,149002.60000002384,148875.754,152325.836,1,16,,
trial,html.Screen,4_7_0,2023-11-15T15:35:07.533Z,,,,0,0.8481980365756594,0.9581202232187236,,true,ll,2681.4640000119107,response,-0.8312854004298869,0.8999999999999997,-0.8999999999999997,-0.7459511759516213,0.8999999999999997,-0.8999999999999997,low,low,,ISIC_0031784.JPG,,ISIC_8690205.JPG,169,true,ll,keypress(f),100,false,155007.5,155007.30000001192,152309.31,152445.40000003576,152325.836,154892.656,1,16,8,
sequence,flow.Sequence,4_7,2023-11-15T15:35:07.533Z,,,,,,,,,,2681.4640000119107,completion,,,,,,,low,low,,,,,,true,,,,false,155007.69999998808,155007.30000001192,152309.31,152445.40000003576,152325.836,154892.656,1,16,,
trial,html.Screen,4_8_0,2023-11-15T15:35:19.154Z,,,,0,-0.7246771568562105,0.9161385080362604,,true,hl,11735.144000011933,response,1.045301444872812,0.8999999999999997,-0.8999999999999997,-1.0872560254441277,0.8999999999999997,-0.8999999999999997,high,low,,ISIC_0028225.JPG,,ISIC_4507700.JPG,43,true,hl,keypress(j),100,false,166627.90000003576,166627.80000001192,154875.959,155007.80000001192,154892.656,166509.29,1,16,9,
sequence,flow.Sequence,4_8,2023-11-15T15:35:19.154Z,,,,,,,,,,11735.144000011933,completion,,,,,,,high,low,,,,,,true,,,,false,166628,166627.80000001192,154875.959,155007.80000001192,154892.656,166509.29,1,16,,
trial,html.Screen,4_9_0,2023-11-15T15:35:28.533Z,,,,0,-1.0369885917487718,0.8486937878412699,,true,hl,9497.610000035755,response,0.7723423895392068,0.8999999999999997,-0.8999999999999997,-0.7630051745722757,0.8999999999999997,-0.8999999999999997,high,low,,ISIC_6917681.JPG,,ISIC_9694911.JPG,43,true,hl,keypress(j),100,false,176007,176006.90000003576,166492.54,166628.10000002384,166509.29,175892.553,1,16,10,
sequence,flow.Sequence,4_9,2023-11-15T15:35:28.533Z,,,,,,,,,,9497.610000035755,completion,,,,,,,high,low,,,,,,true,,,,false,176007.19999998808,176006.90000003576,166492.54,166628.10000002384,166509.29,175892.553,1,16,,
trial,html.Screen,4_10_0,2023-11-15T15:35:36.073Z,,,,0,-0.8828738626295417,0.8288177599439582,,true,hl,7654.7470000119065,response,0.8067627078956657,0.8999999999999997,-0.8999999999999997,-0.7115865750196155,0.8999999999999997,-0.8999999999999997,high,low,,ISIC_0056041.JPG,,ISIC_0010014.JPG,43,true,hl,keypress(j),100,false,183547.5,183547.30000001192,175875.878,176007.30000001192,175892.553,183426.122,1,16,11,
sequence,flow.Sequence,4_10,2023-11-15T15:35:36.073Z,,,,,,,,,,7654.7470000119065,completion,,,,,,,high,low,,,,,,true,,,,false,183547.60000002384,183547.30000001192,175875.878,176007.30000001192,175892.553,183426.122,1,16,,
trial,html.Screen,4_11_0,2023-11-15T15:35:43.740Z,,,,0,-0.789083277544982,0.7172067273002093,,true,hl,7788.577999988076,response,0.7396001261916139,0.8999999999999997,-0.8999999999999997,-0.9901017340796716,0.8999999999999997,-0.8999999999999997,high,low,,ISIC_0011030.JPG,,ISIC_8679617.JPG,43,true,hl,keypress(j),100,false,191214.80000001192,191214.69999998808,183409.191,183547.60000002384,183426.122,191092.513,1,16,12,
sequence,flow.Sequence,4_11,2023-11-15T15:35:43.741Z,,,,,,,,,,7788.577999988076,completion,,,,,,,high,low,,,,,,true,,,,false,191215,191214.69999998808,183409.191,183547.60000002384,183426.122,191092.513,1,16,,
trial,html.Screen,4_12_0,2023-11-15T15:35:52.176Z,,,,0,-1.0257168197307909,-1.0403166496930305,,true,hh,8557.787000011915,response,0.8271218144663375,0.8999999999999997,-0.8999999999999997,0.8321547684171402,0.8999999999999997,-0.8999999999999997,high,high,,ISIC_1690909.JPG,,ISIC_0046224.JPG,184,true,hh,keypress(i),100,false,199650.5,199650.30000001192,191075.735,191215.10000002384,191092.513,199525.695,1,16,13,
sequence,flow.Sequence,4_12,2023-11-15T15:35:52.177Z,,,,,,,,,,8557.787000011915,completion,,,,,,,high,high,,,,,,true,,,,false,199650.60000002384,199650.30000001192,191075.735,191215.10000002384,191092.513,199525.695,1,16,,
trial,html.Screen,4_13_0,2023-11-15T15:35:56.211Z,,,,0,-0.905890181856784,-0.7211537413352586,,true,hh,4159.705000035756,response,0.8137027730168936,0.8999999999999997,-0.8999999999999997,0.7771609347349258,0.8999999999999997,-0.8999999999999997,high,high,,ISIC_6507640.JPG,,ISIC_7899041.JPG,184,true,hh,keypress(i),100,false,203685.5,203685.40000003576,199509.089,199650.69999998808,199525.695,203559.02,1,16,14,
sequence,flow.Sequence,4_13,2023-11-15T15:35:56.212Z,,,,,,,,,,4159.705000035756,completion,,,,,,,high,high,,,,,,true,,,,false,203685.69999998808,203685.40000003576,199509.089,199650.69999998808,199525.695,203559.02,1,16,,
trial,html.Screen,4_14_0,2023-11-15T15:36:04.790Z,,,,0,-0.7607573190812582,-0.7880740841769366,,true,hh,8704.780000011931,response,0.7398963495705471,0.8999999999999997,-0.8999999999999997,0.7880820832288019,0.8999999999999997,-0.8999999999999997,high,high,,ISIC_2178689.JPG,,ISIC_0011778.JPG,184,true,hh,keypress(i),100,false,212263.90000003576,212263.80000001192,203542.495,203685.69999998808,203559.02,212142.462,1,16,15,
sequence,flow.Sequence,4_14,2023-11-15T15:36:04.790Z,,,,,,,,,,8704.780000011931,completion,,,,,,,high,high,,,,,,true,,,,false,212264.10000002384,212263.80000001192,203542.495,203685.69999998808,203559.02,212142.462,1,16,,
trial,html.Screen,4_15_0,2023-11-15T15:36:14.425Z,,,,0,-1.0257168197307909,-1.0403166496930305,,true,hh,9756.338000011921,response,0.8642861042532918,0.8999999999999997,-0.8999999999999997,0.7071725768452852,0.8999999999999997,-0.8999999999999997,high,high,,ISIC_1690909.JPG,,ISIC_0011315.JPG,184,true,hh,keypress(i),100,false,221898.90000003576,221898.80000001192,212125.91,212264.19999998808,212142.462,221775.832,1,16,16,
sequence,flow.Sequence,4_15,2023-11-15T15:36:14.425Z,,,,,,,,,,9756.338000011921,completion,,,,,,,high,high,,,,,,true,,,,false,221899.10000002384,221898.80000001192,212125.91,212264.10000002384,212142.462,221775.832,1,16,,
demonstration_loop,flow.Loop,4,2023-11-15T15:36:14.425Z,,,,,,,,,,129956.35500001191,completion,,,,,,,,,,,,,,true,,,,false,221899.19999998808,221898.80000001192,91926.021,92086.40000003576,91942.445,221775.832,1,16,,
practice_instructions,html.Screen,5,2023-11-15T15:36:25.186Z,,,,,,,,,,10877.468000011926,response,,,,,,,,,,,,,,,continue,click button,,,232660.10000002384,232653.30000001192,221758.973,221899.19999998808,221775.832,232525.732,,,,
trial,html.Screen,6_0_0,2023-11-15T15:36:29.061Z,,,,1,0.9159664042920548,0.96519839238634,,true,ll,4009.46799998809,response,-0.8044219203899928,0.8999999999999997,-0.8999999999999997,-0.7681076927463542,0.8999999999999997,-0.8999999999999997,low,low,,ISIC_0053617.JPG,,ISIC_0028768.JPG,169,true,ll,keypress(f),0,false,236535.30000001192,236535.19999998808,232508.956,232660.19999998808,232525.732,236408.948,1,20,1,
sequence,flow.Sequence,6_0,2023-11-15T15:36:29.061Z,,,,,,,,,,4009.46799998809,completion,,,,,,,low,low,,,,,,true,,,,false,236535.40000003576,236535.19999998808,232508.956,232660.19999998808,232525.732,236408.948,1,20,,
trial,html.Screen,6_1_0,2023-11-15T15:36:30.516Z,,,,1,-1.0453124399868816,0.8986747280184286,,true,hl,1580.9520000357588,response,0.7872534775441857,0.8999999999999997,-0.8999999999999997,-0.8441107693833454,0.8999999999999997,-0.8999999999999997,high,low,,ISIC_0013967.JPG,,ISIC_0028788.JPG,43,true,hl,keypress(j),0,false,237990,237989.90000003576,236392.272,236535.5,236408.948,237858.941,1,20,2,
sequence,flow.Sequence,6_1,2023-11-15T15:36:30.516Z,,,,,,,,,,1580.9520000357588,completion,,,,,,,high,low,,,,,,true,,,,false,237990.10000002384,237989.90000003576,236392.272,236535.5,236408.948,237858.941,1,20,,
trial,html.Screen,6_2_0,2023-11-15T15:36:32.501Z,,,,1,-1.0329549150636406,1.01584100839286,,true,hl,2115.959000035771,response,0.8987343013179191,0.8999999999999997,-0.8999999999999997,-0.8149073454566363,0.8999999999999997,-0.8999999999999997,high,low,,ISIC_0054670.JPG,,ISIC_0472513.JPG,43,true,hl,keypress(j),0,false,239974.90000003576,239974.90000003576,237842.506,237990.19999998808,237858.941,239842.541,1,20,3,
sequence,flow.Sequence,6_2,2023-11-15T15:36:32.501Z,,,,,,,,,,2115.959000035771,completion,,,,,,,high,low,,,,,,true,,,,false,239975,239974.90000003576,237842.506,237990.19999998808,237858.941,239842.541,1,20,,
trial,html.Screen,6_3_0,2023-11-15T15:36:36.805Z,,,,1,0.9984751310732674,0.7993808609040723,,true,ll,4436.359000035765,response,-0.7056033055793339,0.8999999999999997,-0.8999999999999997,-0.9454619685729876,0.8999999999999997,-0.8999999999999997,low,low,,ISIC_0032510.JPG,,ISIC_1410408.JPG,169,true,ll,keypress(f),0,false,244278.90000003576,244278.90000003576,239825.546,239975.10000002384,239842.541,244142.541,1,20,4,
sequence,flow.Sequence,6_3,2023-11-15T15:36:36.805Z,,,,,,,,,,4436.359000035765,completion,,,,,,,low,low,,,,,,true,,,,false,244279.10000002384,244278.90000003576,239825.546,239975,239842.541,244142.541,1,20,,
trial,html.Screen,6_4_0,2023-11-15T15:36:43.189Z,,,,1,-1.0329549150636406,1.01584100839286,,true,hl,6520.459000000003,response,0.7438008784971919,0.8999999999999997,-0.8999999999999997,-0.7701607600068142,0.8999999999999997,-0.8999999999999997,high,low,,ISIC_0054670.JPG,,ISIC_8493108.JPG,43,true,hl,keypress(j),0,false,250663.10000002384,250663,244125.706,244279.19999998808,244142.541,250525.59,1,20,5,
sequence,flow.Sequence,6_4,2023-11-15T15:36:43.189Z,,,,,,,,,,6520.459000000003,completion,,,,,,,high,low,,,,,,true,,,,false,250663.19999998808,250663,244125.706,244279.10000002384,244142.541,250525.59,1,20,,
trial,html.Screen,6_5_0,2023-11-15T15:36:48.661Z,,,,1,-1.004723718805983,-0.746205213256203,,true,hh,5609.310000035766,response,0.9522933323146734,0.8999999999999997,-0.8999999999999997,0.7143840288172854,0.8999999999999997,-0.8999999999999997,high,high,,ISIC_6717322.JPG,,ISIC_0011349.JPG,184,true,hh,keypress(i),0,false,256134.90000003576,256134.90000003576,250508.914,250663.30000001192,250525.59,255992.266,1,20,6,
sequence,flow.Sequence,6_5,2023-11-15T15:36:48.661Z,,,,,,,,,,5609.310000035766,completion,,,,,,,high,high,,,,,,true,,,,false,256135,256134.90000003576,250508.914,250663.30000001192,250525.59,255992.266,1,20,,
trial,html.Screen,6_6_0,2023-11-15T15:36:53.541Z,,,,1,-0.7308116448711435,0.908713834988551,,true,hl,5022.1340000357595,response,0.7723423895392068,0.8999999999999997,-0.8999999999999997,-0.7630051745722757,0.8999999999999997,-0.8999999999999997,high,low,,ISIC_7811951.JPG,,ISIC_9694911.JPG,43,true,hl,keypress(j),0,false,261014.60000002384,261014.40000003576,255975.438,256135.10000002384,255992.266,260875.802,1,20,7,
sequence,flow.Sequence,6_6,2023-11-15T15:36:53.541Z,,,,,,,,,,5022.1340000357595,completion,,,,,,,high,low,,,,,,true,,,,false,261014.69999998808,261014.40000003576,255975.438,256135.10000002384,255992.266,260875.802,1,20,,
trial,html.Screen,6_7_0,2023-11-15T15:36:56.437Z,,,,1,0.9633172970727744,-0.8472659344792351,,false,lh,3035.0980000357667,response,-0.8513427412482127,0.8999999999999997,-0.8999999999999997,0.9295303568095064,0.8999999999999997,-0.8999999999999997,low,high,,ISIC_0067172.JPG,,ISIC_0034164.JPG,29,true,hl,keypress(j),0,false,263911,263910.90000003576,260859.03,261014.69999998808,260875.802,263775.574,1,20,8,
sequence,flow.Sequence,6_7,2023-11-15T15:36:56.437Z,,,,,,,,,,3035.0980000357667,completion,,,,,,,low,high,,,,,,true,,,,false,263911.10000002384,263910.90000003576,260859.03,261014.69999998808,260875.802,263775.574,1,20,,
trial,html.Screen,6_8_0,2023-11-15T15:37:00.069Z,,,,1,-0.8538847735848973,-0.979053170316694,,true,hh,3767.3260000357404,response,0.7261723159116604,0.8999999999999997,-0.8999999999999997,1.045616100036335,0.8999999999999997,-0.8999999999999997,high,high,,ISIC_1269461.JPG,,ISIC_0011031.JPG,184,true,hh,keypress(i),0,false,267543,267542.90000003576,263759.096,263911.1999999881,263775.574,267409.175,1,20,9,
sequence,flow.Sequence,6_8,2023-11-15T15:37:00.069Z,,,,,,,,,,3767.3260000357404,completion,,,,,,,high,high,,,,,,true,,,,false,267543.10000002384,267542.90000003576,263759.096,263911.10000002384,263775.574,267409.175,1,20,,
trial,html.Screen,6_9_0,2023-11-15T15:37:02.869Z,,,,1,0.7770513300237836,0.912069987718464,,true,ll,2933.8250000000116,response,-1.0211808747755002,0.8999999999999997,-0.8999999999999997,-0.9580728810269548,0.8999999999999997,-0.8999999999999997,low,low,,ISIC_0030852.JPG,,ISIC_1211506.JPG,169,true,ll,keypress(f),0,false,270343.10000002384,270343,267392.403,267543.1999999881,267409.175,270209.163,1,20,10,
sequence,flow.Sequence,6_9,2023-11-15T15:37:02.869Z,,,,,,,,,,2933.8250000000116,completion,,,,,,,low,low,,,,,,true,,,,false,270343.10000002384,270343,267392.403,267543.1999999881,267409.175,270209.163,1,20,,
trial,html.Screen,6_10_0,2023-11-15T15:37:05.621Z,,,,1,0.9111352818043872,-0.7517932332411794,,true,lh,2885.5369999880786,response,-1.0453124399868816,0.8999999999999997,-0.8999999999999997,0.8986747280184286,0.8999999999999997,-0.8999999999999997,low,high,,ISIC_3346045.JPG,,ISIC_0013967.JPG,29,true,lh,keypress(e),0,false,273094.8000000119,273094.6999999881,270192.271,270343.1999999881,270209.163,272959.158,1,20,11,
sequence,flow.Sequence,6_10,2023-11-15T15:37:05.621Z,,,,,,,,,,2885.5369999880786,completion,,,,,,,low,high,,,,,,true,,,,false,273094.90000003576,273094.6999999881,270192.271,270343.1999999881,270209.163,272959.158,1,20,,
trial,html.Screen,6_11_0,2023-11-15T15:37:10.869Z,,,,1,1.0926414044454305,-0.7741624649032207,,true,lh,5383.742000035767,response,-1.0329549150636406,0.8999999999999997,-0.8999999999999997,1.01584100839286,0.8999999999999997,-0.8999999999999997,low,high,,ISIC_2355513.JPG,,ISIC_0054670.JPG,29,true,lh,keypress(e),0,false,278343.10000002384,278342.90000003576,272942.352,273094.90000003576,272959.158,278209.15,1,20,12,
sequence,flow.Sequence,6_11,2023-11-15T15:37:10.869Z,,,,,,,,,,5383.742000035767,completion,,,,,,,low,high,,,,,,true,,,,false,278343.10000002384,278342.90000003576,272942.352,273094.90000003576,272959.158,278209.15,1,20,,
trial,html.Screen,6_12_0,2023-11-15T15:37:13.381Z,,,,1,1.098939882801048,0.7469537600215133,,true,ll,2645.7500000357395,response,-1.0757050222000146,0.8999999999999997,-0.8999999999999997,-0.9214423600454036,0.8999999999999997,-0.8999999999999997,low,low,,ISIC_0059897.JPG,,ISIC_5152859.JPG,169,true,ll,keypress(f),0,false,280854.90000003576,280854.90000003576,278192.511,278343.1999999881,278209.15,280742.493,1,20,13,
sequence,flow.Sequence,6_12,2023-11-15T15:37:13.381Z,,,,,,,,,,2645.7500000357395,completion,,,,,,,low,low,,,,,,true,,,,false,280855,280854.90000003576,278192.511,278343.1999999881,278209.15,280742.493,1,20,,
trial,html.Screen,6_13_0,2023-11-15T15:37:22.133Z,,,,1,0.7692916291112835,-0.7818604706992622,,true,lh,8864.607000023825,response,-0.8828738626295417,0.8999999999999997,-0.8999999999999997,0.8288177599439582,0.8999999999999997,-0.8999999999999997,low,high,,ISIC_7844825.JPG,,ISIC_0056041.JPG,29,true,lh,keypress(e),0,false,289607.1999999881,289607.10000002384,280725.998,280855.10000002384,280742.493,289475.764,1,20,14,
sequence,flow.Sequence,6_13,2023-11-15T15:37:22.133Z,,,,,,,,,,8864.607000023825,completion,,,,,,,low,high,,,,,,true,,,,false,289607.1999999881,289607.10000002384,280725.998,280855.10000002384,280742.493,289475.764,1,20,,
trial,html.Screen,6_14_0,2023-11-15T15:37:30.021Z,,,,1,-0.8719231363109603,0.7704280220140033,,true,hl,8019.136000035738,response,0.7438008784971919,0.8999999999999997,-0.8999999999999997,-0.7701607600068142,0.8999999999999997,-0.8999999999999997,high,low,,ISIC_0029453.JPG,,ISIC_8493108.JPG,43,true,hl,keypress(j),0,false,297495,297494.90000003576,289458.857,289607.1999999881,289475.764,297358.949,1,20,15,
sequence,flow.Sequence,6_14,2023-11-15T15:37:30.021Z,,,,,,,,,,8019.136000035738,completion,,,,,,,high,low,,,,,,true,,,,false,297495.10000002384,297494.90000003576,289458.857,289607.1999999881,289475.764,297358.949,1,20,,
trial,html.Screen,6_15_0,2023-11-15T15:37:35.701Z,,,,1,-0.9786113496628154,-1.040122402473425,,true,hh,5815.95100003574,response,0.7863202439789435,0.8999999999999997,-0.8999999999999997,1.0644234101027583,0.8999999999999997,-0.8999999999999997,high,high,,ISIC_8195528.JPG,,ISIC_0071576.JPG,184,true,hh,keypress(i),0,false,303175,303174.90000003576,297342.234,297495.1999999881,297358.949,303042.469,1,20,16,
sequence,flow.Sequence,6_15,2023-11-15T15:37:35.701Z,,,,,,,,,,5815.95100003574,completion,,,,,,,high,high,,,,,,true,,,,false,303175.1999999881,303174.90000003576,297342.234,297495.1999999881,297358.949,303042.469,1,20,,
trial,html.Screen,6_16_0,2023-11-15T15:37:43.925Z,,,,1,0.9662688541319592,-0.929746784178986,,true,lh,8356.230999988096,response,-0.7883321712536753,0.8999999999999997,-0.8999999999999997,1.0011430756825364,0.8999999999999997,-0.8999999999999997,low,high,,ISIC_0011077.JPG,,ISIC_9828853.JPG,29,true,lh,keypress(e),0,false,311398.90000003576,311398.6999999881,303025.459,303175.1999999881,303042.469,311258.996,1,20,17,
sequence,flow.Sequence,6_16,2023-11-15T15:37:43.925Z,,,,,,,,,,8356.230999988096,completion,,,,,,,low,high,,,,,,true,,,,false,311398.90000003576,311398.6999999881,303025.459,303175.1999999881,303042.469,311258.996,1,20,,
trial,html.Screen,6_17_0,2023-11-15T15:37:49.429Z,,,,1,-0.9381357191664412,-0.7568873197636701,,true,hh,5643.904000035778,response,1.0394767720056428,0.8999999999999997,-0.8999999999999997,0.9642448420571276,0.8999999999999997,-0.8999999999999997,high,high,,ISIC_9808863.JPG,,ISIC_0032823.JPG,184,true,hh,keypress(i),0,false,316903,316902.90000003576,311242.138,311399,311258.996,316758.812,1,20,18,
sequence,flow.Sequence,6_17,2023-11-15T15:37:49.429Z,,,,,,,,,,5643.904000035778,completion,,,,,,,high,high,,,,,,true,,,,false,316903.10000002384,316902.90000003576,311242.138,311398.90000003576,311258.996,316758.812,1,20,,
trial,html.Screen,6_18_0,2023-11-15T15:38:00.415Z,,,,1,-0.8379442136072591,-0.8260692529258827,,,,11016.864000000001,timeout,0.8110369560965408,0.8999999999999997,-0.8999999999999997,0.7091309063434607,0.8999999999999997,-0.8999999999999997,high,high,,ISIC_0013213.JPG,,ISIC_0030901.JPG,184,true,,,0,false,327889.3000000119,327889.1999999881,316742.299,316903.1999999881,316758.812,327775.676,1,20,19,
sequence,flow.Sequence,6_18,2023-11-15T15:38:00.416Z,,,,,,,,,,11130.387999988103,completion,,,,,,,high,high,,,,,,true,,,,false,327889.40000003576,327889.1999999881,316742.299,316903.1999999881,316758.812,327775.676,1,20,,
trial,html.Screen,6_19_0,2023-11-15T15:38:03.557Z,,,,1,0.7863202439789435,1.0644234101027583,,true,ll,3255.1240000119433,response,-0.7437478502701496,0.8999999999999997,-0.8999999999999997,-0.7199001727136436,0.8999999999999997,-0.8999999999999997,low,low,,ISIC_0071576.JPG,,ISIC_1226882.JPG,169,true,ll,keypress(f),0,false,331030.90000003576,331030.8000000119,327759.028,327889.40000003576,327775.676,330892.269,1,20,20,
sequence,flow.Sequence,6_19,2023-11-15T15:38:03.557Z,,,,,,,,,,3255.1240000119433,completion,,,,,,,low,low,,,,,,true,,,,false,331031,331030.8000000119,327759.028,327889.40000003576,327775.676,330892.269,1,20,,
practice_loop,flow.Loop,6,2023-11-15T15:38:03.557Z,,,,,,,,,,98505.06800001193,completion,,,,,,,,,,,,,,true,,,,false,331031.10000002384,331030.8000000119,232508.956,232660.19999998808,232525.732,330892.269,1,20,,
stair_instructions,html.Screen,7,2023-11-15T15:38:09.428Z,,,,,,,,,,6008.831000023871,response,,,,,,,,,,,,,,,continue,click button,,,336901.6999999881,336901.10000002384,330875.856,331031.10000002384,330892.269,336758.856,,,,
trial,html.Screen,8_0_0,2023-11-15T15:38:20.417Z,,,,2,0.0123274848503577,-0.0516828290734233,,,,11016.585999999952,timeout,-0.8719231363109603,0.8999999999999997,-0.8999999999999997,0.7704280220140033,0.8999999999999997,-0.8999999999999997,low,high,,ISIC_0056790.JPG,,ISIC_0029453.JPG,29,false,,,0,true,347891.3000000119,347891.1999999881,336742.407,336901.90000003576,336758.856,347775.442,1,40,1,
sequence,flow.Sequence,8_0,2023-11-15T15:38:20.418Z,,,,,,,,,,11132.34399998805,completion,,,,,,,low,high,,,,,,false,,,,true,347891.40000003576,347891.1999999881,336742.407,336901.90000003576,336758.856,347775.442,1,40,,
trial,html.Screen,8_1_0,2023-11-15T15:38:31.016Z,,,,2,-0.0572065166118795,0.0247840126545907,,false,hh,10714.257999988098,response,0.9688707770680516,0.8999999999999997,-0.8999999999999997,0.9499175879831224,0.8999999999999997,-0.8999999999999997,high,high,,ISIC_0024565.JPG,,ISIC_0024962.JPG,184,false,lh,keypress(e),0,true,358489.6999999881,358489.6999999881,347758.956,347891.40000003576,347775.442,358359.057,1,40,2,
sequence,flow.Sequence,8_1,2023-11-15T15:38:31.016Z,,,,,,,,,,10714.257999988098,completion,,,,,,,high,high,,,,,,false,,,,true,358489.8000000119,358489.6999999881,347758.956,347891.40000003576,347775.442,358359.057,1,40,,
trial,html.Screen,8_2_0,2023-11-15T15:38:41.543Z,,,,2,0.0074667911845194,-0.018500200317654,,true,hh,10657.843000035791,response,0.9836672814341636,0.9499999999999997,-0.8999999999999997,1.0629122718286683,0.8999999999999997,-0.8999999999999997,high,high,,ISIC_0058723.JPG,,ISIC_0062161.JPG,170,false,hh,keypress(i),0,true,369017.10000002384,369016.90000003576,358342.131,358489.8000000119,358359.057,368875.468,1,40,3,
sequence,flow.Sequence,8_2,2023-11-15T15:38:41.543Z,,,,,,,,,,10657.843000035791,completion,,,,,,,high,high,,,,,,false,,,,true,369017.1999999881,369016.90000003576,358342.131,358489.8000000119,358359.057,368875.468,1,40,,
trial,html.Screen,8_3_0,2023-11-15T15:38:52.410Z,,,,2,-0.07101539702336,0.0351358305415709,,,,10866.63400000002,timeout,-0.7991459998473059,0.9499999999999997,-0.8999999999999997,1.0280788723474688,0.9732897766314159,-0.8999999999999997,low,high,,ISIC_0033279.JPG,,ISIC_7951202.JPG,21,false,,,0,true,379884.10000002384,379884,368858.614,369017.1999999881,368875.468,379742.102,1,40,4,
sequence,flow.Sequence,8_3,2023-11-15T15:38:52.410Z,,,,,,,,,,11008.532000000007,completion,,,,,,,low,high,,,,,,false,,,,true,379884.1999999881,379884,368858.614,369017.1999999881,368875.468,379742.102,1,40,,
trial,html.Screen,8_4_0,2023-11-15T15:38:57.781Z,,,,2,-0.0286056110007553,-0.036125199756515,,true,ll,5512.097999988066,response,-1.0828565020249128,0.9499999999999997,-0.8999999999999997,-0.7576926748805504,0.9732897766314159,-0.8999999999999997,low,low,,ISIC_6535558.JPG,,ISIC_3105924.JPG,169,false,ll,keypress(f),0,true,385254.3000000119,385254.1999999881,379725.622,379884.3000000119,379742.102,385126.508,1,40,5,
sequence,flow.Sequence,8_4,2023-11-15T15:38:57.781Z,,,,,,,,,,5512.097999988066,completion,,,,,,,low,low,,,,,,false,,,,true,385254.40000003576,385254.1999999881,379725.622,379884.3000000119,379742.102,385126.508,1,40,,
trial,html.Screen,8_5_0,2023-11-15T15:39:07.269Z,,,,2,0.0632965338582772,0.0107588824722911,,true,hl,9616.39200003579,response,0.7552468233268477,0.9499999999999997,-0.8999999999999997,-0.71846037114465,0.9732897766314159,-0.8999999999999997,high,low,,ISIC_1265755.JPG,,ISIC_2354070.JPG,35,false,hl,keypress(j),0,true,394743,394742.90000003576,385092.012,385254.40000003576,385126.508,394608.963,1,40,6,
sequence,flow.Sequence,8_5,2023-11-15T15:39:07.269Z,,,,,,,,,,9616.39200003579,completion,,,,,,,high,low,,,,,,false,,,,true,394743.10000002384,394742.90000003576,385092.012,385254.40000003576,385126.508,394608.963,1,40,,
trial,html.Screen,8_6_0,2023-11-15T15:39:18.265Z,,,,2,-0.07101539702336,0.0351358305415709,,,,11016.829000000027,timeout,0.9321091908076364,0.8999999999999997,-0.8999999999999997,-0.6555598709090513,0.9732897766314159,-0.6880765230126001,high,low,,ISIC_0033279.JPG,,ISIC_0160831.JPG,69,false,,,0,true,405739,405739,394591.754,394743.1999999881,394608.963,405625.792,1,40,7,
sequence,flow.Sequence,8_6,2023-11-15T15:39:18.265Z,,,,,,,,,,11130.037000000011,completion,,,,,,,high,low,,,,,,false,,,,true,405739.1999999881,405739,394591.754,394743.1999999881,394608.963,405625.792,1,40,,
trial,html.Screen,8_7_0,2023-11-15T15:39:26.053Z,,,,2,0.0074667911845194,-0.018500200317654,,false,hl,7901.008000011905,response,0.8195763659090913,0.8999999999999997,-0.8999999999999997,-0.6274121773284311,0.9732897766314159,-0.6880765230126001,high,low,,ISIC_0058723.JPG,,ISIC_0011493.JPG,69,false,hh,keypress(i),0,true,413526.90000003576,413526.8000000119,405609.002,405739.1999999881,405625.792,413392.163,1,40,8,
sequence,flow.Sequence,8_7,2023-11-15T15:39:26.053Z,,,,,,,,,,7901.008000011905,completion,,,,,,,high,low,,,,,,false,,,,true,413526.90000003576,413526.8000000119,405609.002,405739.1999999881,405625.792,413392.163,1,40,,
trial,html.Screen,8_8_0,2023-11-15T15:39:32.021Z,,,,2,0.0564512008196606,-0.0205312570039753,,true,lh,6102.6370000119205,response,-0.8513427412482127,0.8999999999999997,-0.8999999999999997,0.9295303568095064,0.9732897766314159,-0.7380765230126002,low,high,,ISIC_9019691.JPG,,ISIC_0034164.JPG,21,false,lh,keypress(e),0,true,419494.8000000119,419494.8000000119,413375.118,413527,413392.163,419358.871,1,40,9,
sequence,flow.Sequence,8_8,2023-11-15T15:39:32.021Z,,,,,,,,,,6102.6370000119205,completion,,,,,,,low,high,,,,,,false,,,,true,419495.10000002384,419494.8000000119,413375.118,413527,413392.163,419358.871,1,40,,
trial,html.Screen,8_9_0,2023-11-15T15:39:36.981Z,,,,2,0.0388181790775959,-0.0049623405709465,,true,hh,5095.929000011936,response,1.0028306951898116,0.8999999999999997,-0.8499999999999996,0.8421248340065566,0.9732897766314159,-0.7380765230126002,high,high,,ISIC_0061880.JPG,,ISIC_0026531.JPG,175,false,hh,keypress(i),0,true,424454.90000003576,424454.8000000119,419342.148,419495.10000002384,419358.871,424325.823,1,40,10,
sequence,flow.Sequence,8_9,2023-11-15T15:39:36.981Z,,,,,,,,,,5095.929000011936,completion,,,,,,,high,high,,,,,,false,,,,true,424455,424454.8000000119,419342.148,419495.10000002384,419358.871,424325.823,1,40,,
trial,html.Screen,8_10_0,2023-11-15T15:39:42.357Z,,,,2,-0.068830656047477,0.0471494209282208,,true,ll,5504.876999988104,response,-0.6911444680241884,0.8358275954080314,-0.8499999999999996,-0.7007362209362324,0.8358275954080314,-0.7380765230126002,low,low,,ISIC_0029982.JPG,,ISIC_4314089.JPG,247,false,ll,keypress(f),0,true,429830.8000000119,429830.6999999881,424308.671,424455,424325.823,429692.204,1,40,11,
sequence,flow.Sequence,8_10,2023-11-15T15:39:42.357Z,,,,,,,,,,5504.876999988104,completion,,,,,,,low,low,,,,,,false,,,,true,429830.90000003576,429830.6999999881,424308.671,424455,424325.823,429692.204,1,40,,
trial,html.Screen,8_11_0,2023-11-15T15:39:48.437Z,,,,2,-0.0267918352484299,-0.0630167830859455,,false,hl,6218.295999999973,response,0.8029582393850244,0.8358275954080314,-0.8499999999999996,-0.6027030300284673,0.8358275954080314,-0.7380765230126002,high,low,,ISIC_0064874.JPG,,ISIC_0057259.JPG,78,false,ll,keypress(f),0,true,435910.6999999881,435910.5,429675.315,429830.90000003576,429692.204,435775.423,1,40,12,
sequence,flow.Sequence,8_11,2023-11-15T15:39:48.437Z,,,,,,,,,,6218.295999999973,completion,,,,,,,high,low,,,,,,false,,,,true,435910.6999999881,435910.5,429675.315,429830.90000003576,429692.204,435775.423,1,40,,
trial,html.Screen,8_12_0,2023-11-15T15:39:56.197Z,,,,2,-0.0447960916594447,-0.0451557856659748,,false,hh,7895.377000011911,response,0.8391777575366977,0.8858275954080315,-0.8499999999999996,0.7621432835508051,0.8358275954080314,-0.6017196254823498,high,high,,ISIC_1379405.JPG,,ISIC_0001138.JPG,189,false,hl,keypress(j),0,true,443670.8000000119,443670.8000000119,435758.788,435910.8000000119,435775.423,443543.242,1,40,13,
sequence,flow.Sequence,8_12,2023-11-15T15:39:56.197Z,,,,,,,,,,7895.377000011911,completion,,,,,,,high,high,,,,,,false,,,,true,443670.90000003576,443670.8000000119,435758.788,435910.8000000119,435775.423,443543.242,1,40,,
trial,html.Screen,8_13_0,2023-11-15T15:40:04.421Z,,,,2,0.0603356922898045,0.0630785445312754,,false,hl,8351.457999988052,response,0.8808584409873765,0.8858275954080315,-0.8499999999999996,-0.5369726749805327,0.8858275954080315,-0.6017196254823498,high,low,,ISIC_9996128.JPG,,ISIC_0026664.JPG,79,false,hh,keypress(i),0,true,451894.8000000119,451894.6999999881,443508.643,443671,443543.242,451758.694,1,40,14,
sequence,flow.Sequence,8_13,2023-11-15T15:40:04.421Z,,,,,,,,,,8351.457999988052,completion,,,,,,,high,low,,,,,,false,,,,true,451894.8000000119,451894.6999999881,443508.643,443670.90000003576,443543.242,451758.694,1,40,,
trial,html.Screen,8_14_0,2023-11-15T15:40:12.005Z,,,,2,0.0527477970410472,0.0575970798158164,,false,lh,7719.505999988061,response,-0.7010101889216934,0.810018099262037,-0.8499999999999996,0.9022783418178474,0.8858275954080315,-0.6517196254823499,low,high,,ISIC_0667763.JPG,,ISIC_0057858.JPG,40,false,hh,keypress(i),0,true,459478.3000000119,459478.1999999881,451741.984,451894.8000000119,451758.694,459342.215,1,40,15,
sequence,flow.Sequence,8_14,2023-11-15T15:40:12.005Z,,,,,,,,,,7719.505999988061,completion,,,,,,,low,high,,,,,,false,,,,true,459478.40000003576,459478.1999999881,451741.984,451894.8000000119,451758.694,459342.215,1,40,,
trial,html.Screen,8_15_0,2023-11-15T15:40:16.726Z,,,,2,,0.0102871556606504,,false,ll,4856.784999999974,response,-0.850194793725365,0.810018099262037,-0.8999999999999997,-0.4692086597130525,0.8858275954080315,-0.6517196254823499,low,low,,ISIC_1805163.JPG,,ISIC_8427534.JPG,255,false,lh,keypress(e),0,true,464199.1999999881,464199,459325.267,459478.5,459342.215,464058.682,1,40,16,
sequence,flow.Sequence,8_15,2023-11-15T15:40:16.726Z,,,,,,,,,,4856.784999999974,completion,,,,,,,low,low,,,,,,false,,,,true,464199.3000000119,464199,459325.267,459478.5,459342.215,464058.682,1,40,,
trial,html.Screen,8_16_0,2023-11-15T15:40:26.853Z,,,,2,0.001445457736793,0.0165307427449982,,false,hl,10268.017999988107,response,0.6471031362916833,0.810018099262037,-0.8999999999999997,-0.5503323978719202,0.8858275954080315,-0.7017196254823499,high,low,,ISIC_0027350.JPG,,ISIC_0008636.JPG,87,false,ll,keypress(f),0,true,474326.8000000119,474326.6999999881,464042.32,464199.3000000119,464058.682,474192.079,1,40,17,
sequence,flow.Sequence,8_16,2023-11-15T15:40:26.853Z,,,,,,,,,,10268.017999988107,completion,,,,,,,high,low,,,,,,false,,,,true,474326.90000003576,474326.6999999881,464042.32,464199.3000000119,464058.682,474192.079,1,40,,
trial,html.Screen,8_17_0,2023-11-15T15:40:36.117Z,,,,2,-0.066631540328269,-0.005292120470259,,false,ll,9398.420999999973,response,-0.8692576729104817,0.8600180992620371,-0.8999999999999997,-0.7554562761747954,0.8858275954080315,-0.7017196254823499,low,low,,ISIC_8041550.JPG,,ISIC_6963954.JPG,233,false,hl,keypress(j),0,true,483590.5,483590.5,474175.268,474327,474192.079,483458.911,1,40,18,
sequence,flow.Sequence,8_17,2023-11-15T15:40:36.117Z,,,,,,,,,,9398.420999999973,completion,,,,,,,low,low,,,,,,false,,,,true,483590.60000002384,483590.5,474175.268,474327,474192.079,483458.911,1,40,,
trial,html.Screen,8_18_0,2023-11-15T15:40:41.109Z,,,,2,0.0109416414475118,0.005246498750811,,true,hl,5123.788999988057,response,0.8140398867745896,0.8600180992620371,-0.9499999999999997,-0.6934224282808171,0.8858275954080315,-0.6028943370233577,high,low,,ISIC_0064279.JPG,,ISIC_7196249.JPG,87,false,hl,keypress(j),0,true,488582.90000003576,488582.6999999881,483441.858,483590.6999999881,483458.911,488441.968,1,40,19,
sequence,flow.Sequence,8_18,2023-11-15T15:40:41.109Z,,,,,,,,,,5123.788999988057,completion,,,,,,,high,low,,,,,,false,,,,true,488583,488582.6999999881,483441.858,483590.6999999881,483458.911,488441.968,1,40,,
trial,html.Screen,8_19_0,2023-11-15T15:40:45.205Z,,,,2,-0.066631540328269,-0.005292120470259,,true,ll,4236.731999988086,response,-1.081648776042646,0.8600180992620371,-0.9499999999999997,-0.4377641192178103,0.8858275954080315,-0.6028943370233577,low,low,,ISIC_8041550.JPG,,ISIC_0011064.JPG,257,false,ll,keypress(f),0,true,492678.8000000119,492678.6999999881,488425.429,488583,488441.968,492542.144,1,40,20,
sequence,flow.Sequence,8_19,2023-11-15T15:40:45.205Z,,,,,,,,,,4236.731999988086,completion,,,,,,,low,low,,,,,,false,,,,true,492678.90000003576,492678.6999999881,488425.429,488583,488441.968,492542.144,1,40,,
trial,html.Screen,8_20_0,2023-11-15T15:40:49.845Z,,,,2,0.0241900387072296,-0.0339955304424736,,false,hl,4776.456000023871,response,0.9633172970727744,0.8600180992620371,-0.9499999999999997,-0.8472659344792351,0.8858275954080315,-0.7097064476302282,high,low,,ISIC_0010789.JPG,,ISIC_0067172.JPG,71,false,lh,keypress(e),0,true,497318.8000000119,497318.60000002384,492525.635,492678.90000003576,492542.144,497175.307,1,40,21,
sequence,flow.Sequence,8_20,2023-11-15T15:40:49.845Z,,,,,,,,,,4776.456000023871,completion,,,,,,,high,low,,,,,,false,,,,true,497318.90000003576,497318.60000002384,492525.635,492678.90000003576,492542.144,497175.307,1,40,,
trial,html.Screen,8_21_0,2023-11-15T15:40:54.965Z,,,,2,-0.0480293506029756,-0.0744454320613987,,true,lh,5263.29300002387,response,-0.8719231363109603,0.9100180992620371,-0.9499999999999997,0.7704280220140033,0.8858275954080315,-0.7597064476302282,low,high,,ISIC_1798471.JPG,,ISIC_0029453.JPG,24,false,lh,keypress(e),0,true,502438.60000002384,502438.60000002384,497158.511,497318.90000003576,497175.307,502308.89,1,40,22,
sequence,flow.Sequence,8_21,2023-11-15T15:40:54.965Z,,,,,,,,,,5263.29300002387,completion,,,,,,,low,high,,,,,,false,,,,true,502438.6999999881,502438.60000002384,497158.511,497318.90000003576,497175.307,502308.89,1,40,,
trial,html.Screen,8_22_0,2023-11-15T15:41:05.253Z,,,,2,-0.0501343550751953,-0.0101991443736165,,true,hh,10417.809999988065,response,0.7703115346624738,0.9100180992620371,-0.8999999999999997,0.6485110660078686,0.8358275954080314,-0.7597064476302282,high,high,,ISIC_4232761.JPG,,ISIC_6561111.JPG,186,false,hh,keypress(i),0,true,512726.90000003576,512726.6999999881,502291.796,502438.8000000119,502308.89,512592.038,1,40,23,
sequence,flow.Sequence,8_22,2023-11-15T15:41:05.253Z,,,,,,,,,,10417.809999988065,completion,,,,,,,high,high,,,,,,false,,,,true,512727,512726.6999999881,502291.796,502438.8000000119,502308.89,512592.038,1,40,,
trial,html.Screen,8_23_0,2023-11-15T15:41:09.780Z,,,,2,-0.0586798548295751,0.0060040805764433,,true,lh,4661.862000035762,response,-0.8513427412482127,0.9100180992620371,-0.8999999999999997,0.9295303568095064,0.8358275954080314,-0.7597064476302282,low,high,,ISIC_1552232.JPG,,ISIC_0034164.JPG,39,false,lh,keypress(e),0,true,517254.10000002384,517253.90000003576,512574.953,512727,512592.038,517125.774,1,40,24,
sequence,flow.Sequence,8_23,2023-11-15T15:41:09.781Z,,,,,,,,,,4661.862000035762,completion,,,,,,,low,high,,,,,,false,,,,true,517254.10000002384,517253.90000003576,512574.953,512727,512592.038,517125.774,1,40,,
trial,html.Screen,8_24_0,2023-11-15T15:41:19.668Z,,,,2,0.0349011973222753,-0.065080527952874,,true,hh,10015.826000023866,response,0.7331902152638365,0.9100180992620371,-0.8999999999999997,0.9466874538814276,0.7858275954080314,-0.7597064476302282,high,high,,ISIC_3898738.JPG,,ISIC_0012107.JPG,202,false,hh,keypress(i),0,true,527141.8000000119,527141.6000000238,517092.092,517254.1999999881,517125.774,527008.6,1,40,25,
sequence,flow.Sequence,8_24,2023-11-15T15:41:19.668Z,,,,,,,,,,10015.826000023866,completion,,,,,,,high,high,,,,,,false,,,,true,527141.8000000119,527141.6000000238,517092.092,517254.1999999881,517125.774,527008.6,1,40,,
trial,html.Screen,8_25_0,2023-11-15T15:41:26.069Z,,,,2,-0.0715931084231032,0.011427878877272,,true,ll,6534.099999988102,response,-0.8332023934285325,0.789938834572632,-0.8999999999999997,-0.6782360910758641,0.7858275954080314,-0.7597064476302282,low,low,,ISIC_1470250.JPG,,ISIC_2119925.JPG,226,false,ll,keypress(f),0,true,533542.8000000119,533542.6999999881,526991.859,527142,527008.6,533409.028,1,40,26,
sequence,flow.Sequence,8_25,2023-11-15T15:41:26.069Z,,,,,,,,,,6534.099999988102,completion,,,,,,,low,low,,,,,,false,,,,true,533543,533542.6999999881,526991.859,527141.9000000358,527008.6,533409.028,1,40,,
trial,html.Screen,8_26_0,2023-11-15T15:41:34.533Z,,,,2,0.0273855825278348,-0.0566295048930719,,false,hh,8597.67199998803,response,0.9098472152998628,0.789938834572632,-0.7057192422521983,0.6151944870640241,0.7858275954080314,-0.7597064476302282,high,high,,ISIC_0000141.JPG,,ISIC_0026266.JPG,255,false,hl,keypress(j),0,true,542006.9000000358,542006.6999999881,533391.913,533543,533409.028,541875.476,1,40,27,
sequence,flow.Sequence,8_26,2023-11-15T15:41:34.533Z,,,,,,,,,,8597.67199998803,completion,,,,,,,high,high,,,,,,false,,,,true,542006.9000000358,542006.6999999881,533391.913,533543,533409.028,541875.476,1,40,,
trial,html.Screen,8_27_0,2023-11-15T15:41:45.416Z,,,,2,-0.066631540328269,-0.005292120470259,,,,10883.09899999993,timeout,0.7872534775441857,0.789938834572632,-0.7057192422521983,-0.8441107693833454,0.8358275954080314,-0.7597064476302282,high,low,,ISIC_8041550.JPG,,ISIC_0028788.JPG,86,false,,,0,true,552889.9000000358,552889.8000000119,541858.479,542007,541875.476,552758.575,1,40,28,
sequence,flow.Sequence,8_27,2023-11-15T15:41:45.417Z,,,,,,,,,,11014.324000011897,completion,,,,,,,high,low,,,,,,false,,,,true,552890,552889.8000000119,541858.479,542007,541875.476,552758.575,1,40,,
trial,html.Screen,8_28_0,2023-11-15T15:41:48.917Z,,,,2,-0.0572065166118795,0.0247840126545907,,true,lh,3632.0250000238884,response,-0.7991459998473059,0.789938834572632,-0.7057192422521983,1.0280788723474688,0.8358275954080314,-0.7597064476302282,low,high,,ISIC_0024565.JPG,,ISIC_7951202.JPG,73,false,lh,keypress(e),0,true,556390.6999999881,556390.6000000238,552741.899,552890.1000000238,552758.575,556258.573,1,40,29,
sequence,flow.Sequence,8_28,2023-11-15T15:41:48.917Z,,,,,,,,,,3632.0250000238884,completion,,,,,,,low,high,,,,,,false,,,,true,556390.8000000119,556390.6000000238,552741.899,552890,552758.575,556258.573,1,40,,
trial,html.Screen,8_29_0,2023-11-15T15:41:52.357Z,,,,2,-0.0283578106329894,0.0088840758711548,,true,ll,3571.527000023867,response,-0.6226715515705052,0.789938834572632,-0.7057192422521983,-0.6291045931325249,0.8358275954080314,-0.7597064476302282,low,low,,ISIC_0060707.JPG,,ISIC_1113265.JPG,307,false,ll,keypress(f),0,true,559830.1999999881,559830.1000000238,556241.799,556390.9000000358,556258.573,559691.891,1,40,30,
sequence,flow.Sequence,8_29,2023-11-15T15:41:52.357Z,,,,,,,,,,3571.527000023867,completion,,,,,,,low,low,,,,,,false,,,,true,559830.4000000358,559830.1000000238,556241.799,556390.9000000358,556258.573,559691.891,1,40,,
trial,html.Screen,8_30_0,2023-11-15T15:41:57.413Z,,,,2,0.055893254685579,0.0187125006410995,,false,lh,5194.209000023897,response,-0.4655679114662066,0.789938834572632,-0.6557192422521982,0.8479906343772748,0.8358275954080314,-0.7097064476302282,low,high,,ISIC_0011779.JPG,,ISIC_0033309.JPG,80,false,hh,keypress(i),0,true,564886.1000000238,564886.1000000238,559675.133,559830.4000000358,559691.891,564741.884,1,40,31,
sequence,flow.Sequence,8_30,2023-11-15T15:41:57.413Z,,,,,,,,,,5194.209000023897,completion,,,,,,,low,high,,,,,,false,,,,true,564886.1999999881,564886.1000000238,559675.133,559830.4000000358,559691.891,564741.884,1,40,,
trial,html.Screen,8_31_0,2023-11-15T15:42:02.308Z,,,,2,-0.0267918352484299,-0.0630167830859455,,true,hl,5039.916000011959,response,0.6689188192377725,0.789938834572632,-0.7057192422521983,-0.5968828280129066,0.8880347533623718,-0.7097064476302282,high,low,,ISIC_0064874.JPG,,ISIC_9126343.JPG,92,false,hl,keypress(j),0,true,569781.8000000119,569781.8000000119,564725.055,564886.3000000119,564741.884,569641.973,1,40,32,
sequence,flow.Sequence,8_31,2023-11-15T15:42:02.309Z,,,,,,,,,,5039.916000011959,completion,,,,,,,high,low,,,,,,false,,,,true,569782,569781.8000000119,564725.055,564886.3000000119,564741.884,569641.973,1,40,,
trial,html.Screen,8_32_0,2023-11-15T15:42:07.892Z,,,,2,0.049790040126711,-0.0195291725171472,,false,hh,5723.827000011923,response,0.8112967657138724,0.739938834572632,-0.7057192422521983,1.048362273165083,0.8880347533623718,-0.7097064476302282,high,high,,ISIC_0372902.JPG,,ISIC_4120174.JPG,224,false,hl,keypress(j),0,true,575365.9000000358,575365.8000000119,569625.04,569782,569641.973,575225.225,1,40,33,
sequence,flow.Sequence,8_32,2023-11-15T15:42:07.893Z,,,,,,,,,,5723.827000011923,completion,,,,,,,high,high,,,,,,false,,,,true,575366,575365.8000000119,569625.04,569782,569641.973,575225.225,1,40,,
trial,html.Screen,8_33_0,2023-11-15T15:42:13.845Z,,,,2,0.0586587895724749,0.0220047273041276,,true,ll,6092.675000035786,response,-0.52894250964363,0.739938834572632,-0.7057192422521983,-0.643383540076722,0.9380347533623719,-0.7097064476302282,low,low,,ISIC_0028320.JPG,,ISIC_1331993.JPG,318,false,ll,keypress(f),0,true,581318,581317.9000000358,575208.369,575366,575225.225,581175.23,1,40,34,
sequence,flow.Sequence,8_33,2023-11-15T15:42:13.845Z,,,,,,,,,,6092.675000035786,completion,,,,,,,low,low,,,,,,false,,,,true,581318.1999999881,581317.9000000358,575208.369,575366,575225.225,581175.23,1,40,,
trial,html.Screen,8_34_0,2023-11-15T15:42:20.677Z,,,,2,-0.0286056110007553,-0.036125199756515,,false,lh,6975.07000001194,response,-0.7883321712536753,0.739938834572632,-0.7057192422521983,1.0011430756825364,0.9380347533623719,-0.536163024860176,low,high,,ISIC_6535558.JPG,,ISIC_9828853.JPG,50,false,ll,keypress(f),0,true,588150.3000000119,588150.3000000119,581158.35,581318.1999999881,581175.23,588008.541,1,40,35,
sequence,flow.Sequence,8_34,2023-11-15T15:42:20.677Z,,,,,,,,,,6975.07000001194,completion,,,,,,,low,high,,,,,,false,,,,true,588150.5,588150.3000000119,581158.35,581318.1999999881,581175.23,588008.541,1,40,,
trial,html.Screen,8_35_0,2023-11-15T15:42:24.709Z,,,,2,0.0273175221875807,0.0515126441328492,,true,lh,4173.959000000032,response,-0.4304519406921251,0.739938834572632,-0.6086373404486526,0.9730861454989512,0.9880347533623719,-0.536163024860176,low,high,,ISIC_0064034.JPG,,ISIC_0207268.JPG,58,false,lh,keypress(e),0,true,592182.6999999881,592182.5,587991.644,588150.5,588008.541,592041.904,1,40,36,
sequence,flow.Sequence,8_35,2023-11-15T15:42:24.709Z,,,,,,,,,,4173.959000000032,completion,,,,,,,low,high,,,,,,false,,,,true,592182.8000000119,592182.5,587991.644,588150.5,588008.541,592041.904,1,40,,
trial,html.Screen,8_36_0,2023-11-15T15:42:29.973Z,,,,2,-0.0423567271646023,-0.0380126882576854,,false,hh,5404.196000023861,response,0.6599510720187666,0.739938834572632,-0.6086373404486526,1.03005454747145,0.9880347533623719,-0.536163024860176,high,high,,ISIC_0046932.JPG,,ISIC_5527224.JPG,196,false,ll,keypress(f),0,true,597446.1999999881,597446.1000000238,592025.065,592182.8000000119,592041.904,597308.626,1,40,37,
sequence,flow.Sequence,8_36,2023-11-15T15:42:29.973Z,,,,,,,,,,5404.196000023861,completion,,,,,,,high,high,,,,,,false,,,,true,597446.3000000119,597446.1000000238,592025.065,592182.8000000119,592041.904,597308.626,1,40,,
trial,html.Screen,8_37_0,2023-11-15T15:42:40.965Z,,,,2,-0.0105349256029223,0.0723574625425557,,,,11016.500999999931,timeout,-0.6990723246540984,0.789938834572632,-0.6086373404486526,-0.6480252642445372,1.038034753362372,-0.536163024860176,low,low,,ISIC_0058998.JPG,,ISIC_0014190.JPG,408,false,,,0,true,608438.8000000119,608438.6999999881,597292.174,597446.3000000119,597308.626,608325.127,1,40,38,
sequence,flow.Sequence,8_37,2023-11-15T15:42:40.966Z,,,,,,,,,,11130.073999988032,completion,,,,,,,low,low,,,,,,false,,,,true,608439,608438.6999999881,597292.174,597446.3000000119,597308.626,608325.127,1,40,,
trial,html.Screen,8_38_0,2023-11-15T15:42:51.982Z,,,,2,0.039520186367207,0.0377961575607372,,,,11016.71000000008,timeout,0.7331902152638365,0.789938834572632,-0.6086373404486526,0.9466874538814276,1.038034753362372,-0.536163024860176,high,high,,ISIC_6356149.JPG,,ISIC_0012107.JPG,185,false,,,0,true,619455.6000000238,619455.5,608308.761,608439,608325.127,619341.837,1,40,39,
sequence,flow.Sequence,8_38,2023-11-15T15:42:51.982Z,,,,,,,,,,11130.373000000021,completion,,,,,,,high,high,,,,,,false,,,,true,619455.6999999881,619455.5,608308.761,608439,608325.127,619341.837,1,40,,
trial,html.Screen,8_39_0,2023-11-15T15:43:02.999Z,,,,2,0.0527477970410472,0.0575970798158164,,,,11016.935999999987,timeout,-0.5411713028221757,0.789938834572632,-0.6086373404486526,-0.4653595210966108,1.038034753362372,-0.536163024860176,low,low,,ISIC_0667763.JPG,,ISIC_8278912.JPG,408,false,,,0,true,630472.1000000238,630472,619325.19,619455.8000000119,619341.837,630358.773,1,40,40,
sequence,flow.Sequence,8_39,2023-11-15T15:43:02.999Z,,,,,,,,,,11130.162999999942,completion,,,,,,,low,low,,,,,,false,,,,true,630472.1999999881,630472,619325.19,619455.8000000119,619341.837,630358.773,1,40,,
stair_loop,flow.Loop,8,2023-11-15T15:43:02.999Z,,,,,,,,,,293713.144,completion,,,,,,,,,,,,,,false,,,,true,630472.1999999881,630472,336742.407,336901.8000000119,336758.856,630358.773,1,40,,
exp_instructions,html.Screen,9,2023-11-15T15:43:13.381Z,,,,,,,,,,10495.226999999955,response,,,,,,,,,,,,,,,continue,keypress(Space),,,640854.5,640854,630341.921,630472.3000000119,630358.773,640725.399,,,,
trial,html.Screen,10_0_0,2023-11-15T15:43:24.269Z,,,,1,0.0080817964357627,-0.0444435264307931,,,,10883.107000000076,timeout,-0.665036167819071,0.8049586507449833,-0.7422329941256522,-0.7131116827754012,0.8943208164874846,-0.6801434207992128,low,low,,ISIC_0013165.JPG,9,ISIC_8397011.JPG,322,false,,,0,false,651742.6999999881,651742.5,640708.544,640854.6000000238,640725.399,651608.506,4,500,1,
break,html.Screen,10_0_1,2023-11-15T15:43:24.270Z,,,,,,,,,,NaN,,,,,,,,low,low,,,,,,false,,,,false,651743.1000000238,651743,,651742.6999999881,,651608.506,4,500,,
break_continue,html.Screen,10_0_2,2023-11-15T15:43:24.270Z,,,,,,,,,,NaN,,,,,,,,low,low,,,,,,false,,,,false,651743.4000000358,651743.3000000119,,651743.1999999881,,651608.506,4,500,,
sequence,flow.Sequence,10_0,2023-11-15T15:43:24.270Z,,,,,,,,,,11017.901000011945,completion,,,,,,,low,low,,,,,,false,,,,false,651743.5,651743.3000000119,640708.544,640854.6000000238,640725.399,651608.506,4,500,,
trial,html.Screen,10_1_0,2023-11-15T15:43:29.543Z,,,,1,-0.0044063257337227,-0.0172548282859886,,false,hl,5408.193999988027,response,0.7801125028333664,0.8049586507449833,-0.7422329941256522,-0.566453719006178,0.8943208164874846,-0.6801434207992128,high,low,,ISIC_7413786.JPG,9,ISIC_0078703.JPG,94,false,ll,keypress(f),0,false,657016.9000000358,657016.6999999881,651592.039,651743.5,651608.506,656875.119,4,500,2,
break,html.Screen,10_1_1,2023-11-15T15:43:29.544Z,,,,,,,,,,NaN,,,,,,,,high,low,,,,,,false,,,,false,657017.1999999881,657017.1000000238,,657016.9000000358,,656875.119,4,500,,
break_continue,html.Screen,10_1_2,2023-11-15T15:43:29.544Z,,,,,,,,,,NaN,,,,,,,,high,low,,,,,,false,,,,false,657017.5,657017.3000000119,,657017.1999999881,,656875.119,4,500,,
sequence,flow.Sequence,10_1,2023-11-15T15:43:29.544Z,,,,,,,,,,5408.794000011869,completion,,,,,,,high,low,,,,,,false,,,,false,657017.5,657017.3000000119,651592.039,651743.5,651608.506,656875.119,4,500,,
trial,html.Screen,10_2_0,2023-11-15T15:43:39.877Z,,,,1,-0.0462522625051681,-0.0088419594888635,,false,lh,10475.181000011973,response,-0.6949850178600343,0.8049586507449833,-0.7422329941256522,0.7575200627443553,0.8943208164874846,-0.6801434207992128,low,high,,ISIC_1945381.JPG,8,ISIC_0025812.JPG,49,false,ll,keypress(f),0,false,667350.5,667350.3000000119,656858.725,657017.5,656875.119,667208.511,4,500,3,
break,html.Screen,10_2_1,2023-11-15T15:43:39.877Z,,,,,,,,,,NaN,,,,,,,,low,high,,,,,,false,,,,false,667350.6999999881,667350.6999999881,,667350.5,,667208.511,4,500,,
break_continue,html.Screen,10_2_2,2023-11-15T15:43:39.878Z,,,,,,,,,,NaN,,,,,,,,low,high,,,,,,false,,,,false,667350.9000000358,667350.8000000119,,667350.8000000119,,667208.511,4,500,,
sequence,flow.Sequence,10_2,2023-11-15T15:43:39.878Z,,,,,,,,,,10475.681000011973,completion,,,,,,,low,high,,,,,,false,,,,false,667351,667350.8000000119,656858.725,657017.5,656875.119,667208.511,4,500,,
trial,html.Screen,10_3_0,2023-11-15T15:43:50.197Z,,,,1,-0.0258224118104549,0.0029364553353019,,true,lh,10461.889000035706,response,-0.8954803463300026,0.8049586507449833,-0.7422329941256522,0.7071819047913821,0.8943208164874846,-0.6801434207992128,low,high,,ISIC_8325226.JPG,9,ISIC_0033071.JPG,49,false,lh,keypress(e),0,false,677670.6000000238,677670.4000000358,667192.038,667351,667208.511,677542.249,4,500,4,
break,html.Screen,10_3_1,2023-11-15T15:43:50.198Z,,,,,,,,,,NaN,,,,,,,,low,high,,,,,,false,,,,false,677670.8000000119,677670.8000000119,,677670.6000000238,,677542.249,4,500,,
break_continue,html.Screen,10_3_2,2023-11-15T15:43:50.198Z,,,,,,,,,,NaN,,,,,,,,low,high,,,,,,false,,,,false,677671.1000000238,677671,,677670.9000000358,,677542.249,4,500,,
sequence,flow.Sequence,10_3,2023-11-15T15:43:50.198Z,,,,,,,,,,10462.488999999943,completion,,,,,,,low,high,,,,,,false,,,,false,677671.1999999881,677671,667192.038,667351,667208.511,677542.249,4,500,,
trial,html.Screen,10_4_0,2023-11-15T15:44:01.080Z,,,,1,0.0603356922898045,0.0630785445312754,,,,10884.157000000007,timeout,-0.6578798308546684,0.8049586507449833,-0.7422329941256522,0.7317265360348413,0.8943208164874846,-0.6801434207992128,low,high,,ISIC_9996128.JPG,8,ISIC_9690263.JPG,49,false,,,0,false,688553.6999999881,688553.5,677508.706,677671.3000000119,677542.249,688426.406,4,500,5,
break,html.Screen,10_4_1,2023-11-15T15:44:01.081Z,,,,,,,,,,NaN,,,,,,,,low,high,,,,,,false,,,,false,688554,688553.8000000119,,688553.6999999881,,688426.406,4,500,,
break_continue,html.Screen,10_4_2,2023-11-15T15:44:01.081Z,,,,,,,,,,NaN,,,,,,,,low,high,,,,,,false,,,,false,688554.3000000119,688554.1000000238,,688554,,688426.406,4,500,,
sequence,flow.Sequence,10_4,2023-11-15T15:44:01.081Z,,,,,,,,,,11011.85100002389,completion,,,,,,,low,high,,,,,,false,,,,false,688554.4000000358,688554.1000000238,677508.706,677671.3000000119,677542.249,688426.406,4,500,,
trial,html.Screen,10_5_0,2023-11-15T15:44:11.963Z,,,,1,0.0607839218394147,0.0567408401627122,,,,10865.331000000006,timeout,0.7305475296009624,0.8049586507449833,-0.7422329941256522,-0.7442779237098178,0.8943208164874846,-0.6801434207992128,high,low,,ISIC_0026901.JPG,9,ISIC_7266604.JPG,94,false,,,0,false,699436.1000000238,699436,688391.888,688554.5,688426.406,699291.737,4,500,6,
break,html.Screen,10_5_1,2023-11-15T15:44:11.963Z,,,,,,,,,,NaN,,,,,,,,high,low,,,,,,false,,,,false,699436.4000000358,699436.3000000119,,699436.1000000238,,699291.737,4,500,,
break_continue,html.Screen,10_5_2,2023-11-15T15:44:11.964Z,,,,,,,,,,NaN,,,,,,,,high,low,,,,,,false,,,,false,699436.6999999881,699436.6000000238,,699436.5,,699291.737,4,500,,
sequence,flow.Sequence,10_5,2023-11-15T15:44:11.964Z,,,,,,,,,,11010.194000023883,completion,,,,,,,high,low,,,,,,false,,,,false,699436.8000000119,699436.6000000238,688391.888,688554.4000000358,688426.406,699291.737,4,500,,
trial,html.Screen,10_6_0,2023-11-15T15:44:19.813Z,,,,1,0.0418938536494534,-0.0678614270583654,,true,lh,7994.563000011956,response,-0.6820087657417985,0.8049586507449833,-0.7422329941256522,0.6990995805340022,0.8943208164874846,-0.6801434207992128,low,high,,ISIC_0027573.JPG,9,ISIC_4728968.JPG,49,false,lh,keypress(e),0,false,707286.4000000358,707286.3000000119,699275.089,699436.8000000119,699291.737,707141.71,4,500,7,
break,html.Screen,10_6_1,2023-11-15T15:44:19.814Z,,,,,,,,,,NaN,,,,,,,,low,high,,,,,,false,,,,false,707286.8000000119,707286.6999999881,,707286.6000000238,,707141.71,4,500,,
break_continue,html.Screen,10_6_2,2023-11-15T15:44:19.814Z,,,,,,,,,,NaN,,,,,,,,low,high,,,,,,false,,,,false,707287,707286.9000000358,,707286.9000000358,,707141.71,4,500,,
sequence,flow.Sequence,10_6,2023-11-15T15:44:19.814Z,,,,,,,,,,7995.163000035798,completion,,,,,,,low,high,,,,,,false,,,,false,707287,707286.9000000358,699275.089,699436.8000000119,699291.737,707141.71,4,500,,
trial,html.Screen,10_7_0,2023-11-15T15:44:24.309Z,,,,1,-0.0586798548295751,0.0060040805764433,,false,hh,4640.790000000037,response,0.9373876279903552,0.8049586507449833,-0.7422329941256522,0.8494489003914609,0.8943208164874846,-0.6801434207992128,high,high,,ISIC_1552232.JPG,9,ISIC_2554114.JPG,212,false,lh,keypress(e),0,false,711782.6000000238,711782.5,707124.816,707287.1000000238,707141.71,711641.754,4,500,8,
break,html.Screen,10_7_1,2023-11-15T15:44:24.310Z,,,,,,,,,,NaN,,,,,,,,high,high,,,,,,false,,,,false,711782.9000000358,711782.8000000119,,711782.6999999881,,711641.754,4,500,,
break_continue,html.Screen,10_7_2,2023-11-15T15:44:24.310Z,,,,,,,,,,NaN,,,,,,,,high,high,,,,,,false,,,,false,711783.1000000238,711782.9000000358,,711782.9000000358,,711641.754,4,500,,
sequence,flow.Sequence,10_7,2023-11-15T15:44:24.310Z,,,,,,,,,,4641.1900000358,completion,,,,,,,high,high,,,,,,false,,,,false,711783.1999999881,711782.9000000358,707124.816,707287.1000000238,707141.71,711641.754,4,500,,
trial,html.Screen,10_8_0,2023-11-15T15:44:32.053Z,,,,1,-0.0715931084231032,0.011427878877272,,true,ll,7884.546000011964,response,-0.7685659417173671,0.8049586507449833,-0.7422329941256522,-0.6296717341577099,0.8943208164874846,-0.6801434207992128,low,low,,ISIC_1470250.JPG,9,ISIC_5071555.JPG,322,false,ll,keypress(f),0,false,719526.5,719526.3000000119,711624.929,711783.1999999881,711641.754,719391.87,4,500,9,
break,html.Screen,10_8_1,2023-11-15T15:44:32.054Z,,,,,,,,,,NaN,,,,,,,,low,low,,,,,,false,,,,false,719526.8000000119,719526.6000000238,,719526.5,,719391.87,4,500,,
break_continue,html.Screen,10_8_2,2023-11-15T15:44:32.054Z,,,,,,,,,,NaN,,,,,,,,low,low,,,,,,false,,,,false,719527,719526.9000000358,,719526.9000000358,,719391.87,4,500,,
sequence,flow.Sequence,10_8,2023-11-15T15:44:32.054Z,,,,,,,,,,7885.146000035806,completion,,,,,,,low,low,,,,,,false,,,,false,719527.1000000238,719526.9000000358,711624.929,711783.1999999881,711641.754,719391.87,4,500,,
trial,html.Screen,10_9_0,2023-11-15T15:44:43.050Z,,,,1,-0.0258224118104549,0.0029364553353019,,,,11016.609999999986,timeout,-0.5588183806237456,0.8049586507449833,-0.7422329941256522,-0.8344419759923906,0.8943208164874846,-0.6801434207992128,low,low,,ISIC_8325226.JPG,9,ISIC_0007619.JPG,322,false,,,0,false,730522.8000000119,730522.8000000119,719374.941,719527.1999999881,719391.87,730408.48,4,500,10,
break,html.Screen,10_9_1,2023-11-15T15:44:43.050Z,,,,,,,,,,NaN,,,,,,,,low,low,,,,,,false,,,,false,730523.1999999881,730523,,730522.9000000358,,730408.48,4,500,,
break_continue,html.Screen,10_9_2,2023-11-15T15:44:43.050Z,,,,,,,,,,NaN,,,,,,,,low,low,,,,,,false,,,,false,730523.3000000119,730523.1999999881,,730523.1999999881,,730408.48,4,500,,
sequence,flow.Sequence,10_9,2023-11-15T15:44:43.050Z,,,,,,,,,,11131.329999988084,completion,,,,,,,low,low,,,,,,false,,,,false,730523.4000000358,730523.1999999881,719374.941,719527.1000000238,719391.87,730408.48,4,500,,
trial,html.Screen,10_10_0,2023-11-15T15:44:46.725Z,,,,1,0.0367060100866019,0.0630207980628495,,true,hl,3789.9200000357814,response,0.668743426211716,0.8049586507449833,-0.7422329941256522,-0.8048041299922801,0.8943208164874846,-0.6801434207992128,high,low,,ISIC_0028396.JPG,9,ISIC_9403390.JPG,94,false,hl,keypress(j),0,false,734198.5,734198.4000000358,730391.794,730523.4000000358,730408.48,734058.456,4,500,11,
break,html.Screen,10_10_1,2023-11-15T15:44:46.726Z,,,,,,,,,,NaN,,,,,,,,high,low,,,,,,false,,,,false,734198.8000000119,734198.6999999881,,734198.5,,734058.456,4,500,,
break_continue,html.Screen,10_10_2,2023-11-15T15:44:46.726Z,,,,,,,,,,NaN,,,,,,,,high,low,,,,,,false,,,,false,734199,734198.9000000358,,734198.9000000358,,734058.456,4,500,,
sequence,flow.Sequence,10_10,2023-11-15T15:44:46.726Z,,,,,,,,,,3790.4200000357814,completion,,,,,,,high,low,,,,,,false,,,,false,734199,734198.9000000358,730391.794,730523.4000000358,730408.48,734058.456,4,500,,
trial,html.Screen,10_11_0,2023-11-15T15:44:50.853Z,,,,1,0.0528688218207886,-0.0356788458032396,,false,ll,4267.844000011915,response,-0.940974390526586,0.8049586507449833,-0.7422329941256522,-0.8027264864579817,0.8943208164874846,-0.6801434207992128,low,low,,ISIC_5287748.JPG,9,ISIC_0032341.JPG,322,false,lh,keypress(e),0,false,738326.4000000358,738326.3000000119,734041.844,734199.1000000238,734058.456,738191.735,4,500,12,
break,html.Screen,10_11_1,2023-11-15T15:44:50.854Z,,,,,,,,,,NaN,,,,,,,,low,low,,,,,,false,,,,false,738326.8000000119,738326.8000000119,,738326.6000000238,,738191.735,4,500,,
break_continue,html.Screen,10_11_2,2023-11-15T15:44:50.854Z,,,,,,,,,,NaN,,,,,,,,low,low,,,,,,false,,,,false,738327.1000000238,738326.9000000358,,738326.8000000119,,738191.735,4,500,,
sequence,flow.Sequence,10_11,2023-11-15T15:44:50.854Z,,,,,,,,,,4268.444000035757,completion,,,,,,,low,low,,,,,,false,,,,false,738327.1000000238,738326.9000000358,734041.844,734199,734058.456,738191.735,4,500,,
trial,html.Screen,10_12_0,2023-11-15T15:44:55.605Z,,,,1,0.0497314815986203,-0.0303374618795786,,true,ll,4886.365000023856,response,-0.5592951332932481,0.8049586507449833,-0.7422329941256522,-0.6482176485839187,0.8943208164874846,-0.6801434207992128,low,low,,ISIC_6023504.JPG,9,ISIC_2147549.JPG,322,false,ll,keypress(f),0,false,743078.3000000119,743078.1000000238,738175.194,738327.1000000238,738191.735,742941.945,4,500,13,
break,html.Screen,10_12_1,2023-11-15T15:44:55.605Z,,,,,,,,,,NaN,,,,,,,,low,low,,,,,,false,,,,false,743078.5,743078.5,,743078.3000000119,,742941.945,4,500,,
break_continue,html.Screen,10_12_2,2023-11-15T15:44:55.606Z,,,,,,,,,,NaN,,,,,,,,low,low,,,,,,false,,,,false,743078.8000000119,743078.6999999881,,743078.6000000238,,742941.945,4,500,,
sequence,flow.Sequence,10_12,2023-11-15T15:44:55.606Z,,,,,,,,,,4886.964999988093,completion,,,,,,,low,low,,,,,,false,,,,false,743078.9000000358,743078.6999999881,738175.194,738327.1000000238,738191.735,742941.945,4,500,,
trial,html.Screen,10_13_0,2023-11-15T15:45:06.488Z,,,,1,0.0426957918502628,0.044166030546046,,,,10883.205000000075,timeout,-0.9302524814995784,0.8049586507449833,-0.7422329941256522,-0.6219652517176535,0.8943208164874846,-0.6801434207992128,low,low,,ISIC_4649440.JPG,9,ISIC_5573566.JPG,322,false,,,0,false,753960.9000000358,753960.9000000358,742924.911,743079,742941.945,753825.15,4,500,14,
break,html.Screen,10_13_1,2023-11-15T15:45:06.488Z,,,,,,,,,,NaN,,,,,,,,low,low,,,,,,false,,,,false,753961.1999999881,753961.1999999881,,753961.1000000238,,753825.15,4,500,,
break_continue,html.Screen,10_13_2,2023-11-15T15:45:06.488Z,,,,,,,,,,NaN,,,,,,,,low,low,,,,,,false,,,,false,753961.6000000238,753961.4000000358,,753961.3000000119,,753825.15,4,500,,
sequence,flow.Sequence,10_13,2023-11-15T15:45:06.488Z,,,,,,,,,,11019.455000035814,completion,,,,,,,low,low,,,,,,false,,,,false,753961.6000000238,753961.4000000358,742924.911,743079,742941.945,753825.15,4,500,,
trial,html.Screen,10_14_0,2023-11-15T15:45:10.949Z,,,,1,-0.0633291412406864,0.0446580444004686,,false,ll,4597.349999999977,response,-0.5666715916722922,0.8049586507449833,-0.7422329941256522,-0.5765847778545962,0.8943208164874846,-0.6801434207992128,low,low,,ISIC_0010718.JPG,9,ISIC_8814612.JPG,322,false,lh,keypress(e),0,false,758422.6000000238,758422.5,753808.506,753961.6999999881,753825.15,758291.927,4,500,15,
break,html.Screen,10_14_1,2023-11-15T15:45:10.950Z,,,,,,,,,,NaN,,,,,,,,low,low,,,,,,false,,,,false,758422.9000000358,758422.8000000119,,758422.6999999881,,758291.927,4,500,,
break_continue,html.Screen,10_14_2,2023-11-15T15:45:10.950Z,,,,,,,,,,NaN,,,,,,,,low,low,,,,,,false,,,,false,758423.1999999881,758423,,758423,,758291.927,4,500,,
sequence,flow.Sequence,10_14,2023-11-15T15:45:10.950Z,,,,,,,,,,4597.849999999977,completion,,,,,,,low,low,,,,,,false,,,,false,758423.1999999881,758423,753808.506,753961.6999999881,753825.15,758291.927,4,500,,
trial,html.Screen,10_15_0,2023-11-15T15:45:18.005Z,,,,1,0.0010920693448107,0.0492408806128631,,false,ll,7186.272999988054,response,-0.8443539935286377,0.8049586507449833,-0.7422329941256522,-0.8083712509772605,0.8943208164874846,-0.6801434207992128,low,low,,ISIC_6155981.JPG,8,ISIC_1072321.JPG,322,false,lh,keypress(e),0,false,765478.3000000119,765478.1999999881,758275.074,758423.3000000119,758291.927,765341.747,4,500,16,
break,html.Screen,10_15_1,2023-11-15T15:45:18.006Z,,,,,,,,,,NaN,,,,,,,,low,low,,,,,,false,,,,false,765478.6999999881,765478.6000000238,,765478.4000000358,,765341.747,4,500,,
break_continue,html.Screen,10_15_2,2023-11-15T15:45:18.006Z,,,,,,,,,,NaN,,,,,,,,low,low,,,,,,false,,,,false,765478.9000000358,765478.8000000119,,765478.8000000119,,765341.747,4,500,,
sequence,flow.Sequence,10_15,2023-11-15T15:45:18.006Z,,,,,,,,,,7186.873000011896,completion,,,,,,,low,low,,,,,,false,,,,false,765479,765478.8000000119,758275.074,758423.3000000119,758291.927,765341.747,4,500,,
trial,html.Screen,10_16_0,2023-11-15T15:45:24.037Z,,,,1,0.0388334549081915,-0.0303399972963369,,false,ll,6168.753000000026,response,-0.7260344989951255,0.8049586507449833,-0.7422329941256522,-0.6552900119355387,0.8943208164874846,-0.6801434207992128,low,low,,ISIC_4961708.JPG,9,ISIC_6166247.JPG,322,false,lh,keypress(e),0,false,771510.6000000238,771510.5,765325.197,765479,765341.747,771374.961,4,500,17,
break,html.Screen,10_16_1,2023-11-15T15:45:24.038Z,,,,,,,,,,NaN,,,,,,,,low,low,,,,,,false,,,,false,771511,771510.9000000358,,771510.6999999881,,771374.961,4,500,,
break_continue,html.Screen,10_16_2,2023-11-15T15:45:24.038Z,,,,,,,,,,NaN,,,,,,,,low,low,,,,,,false,,,,false,771511.1999999881,771511.1000000238,,771511,,771374.961,4,500,,
sequence,flow.Sequence,10_16,2023-11-15T15:45:24.038Z,,,,,,,,,,6169.353000023868,completion,,,,,,,low,low,,,,,,false,,,,false,771511.1999999881,771511.1000000238,765325.197,765479,765341.747,771374.961,4,500,,
trial,html.Screen,10_17_0,2023-11-15T15:45:28.901Z,,,,1,-0.0586798548295751,0.0060040805764433,,false,hh,4999.339000011911,response,0.6743283542161748,0.8049586507449833,-0.7422329941256522,1.0095781284358312,0.8943208164874846,-0.6801434207992128,high,high,,ISIC_1552232.JPG,10,ISIC_0033232.JPG,212,false,lh,keypress(e),0,false,776374.4000000358,776374.3000000119,771358.396,771511.3000000119,771374.961,776241.91,4,500,18,
break,html.Screen,10_17_1,2023-11-15T15:45:28.902Z,,,,,,,,,,NaN,,,,,,,,high,high,,,,,,false,,,,false,776374.8000000119,776374.6999999881,,776374.5,,776241.91,4,500,,
break_continue,html.Screen,10_17_2,2023-11-15T15:45:28.902Z,,,,,,,,,,NaN,,,,,,,,high,high,,,,,,false,,,,false,776375,776374.9000000358,,776374.8000000119,,776241.91,4,500,,
sequence,flow.Sequence,10_17,2023-11-15T15:45:28.902Z,,,,,,,,,,4999.9390000357525,completion,,,,,,,high,high,,,,,,false,,,,false,776375,776374.9000000358,771358.396,771511.3000000119,771374.961,776241.91,4,500,,
trial,html.Screen,10_18_0,2023-11-15T15:45:34.805Z,,,,1,0.0473541545202326,-0.0294076954053606,,true,hl,6036.190000023809,response,0.6181436781814378,0.8049586507449833,-0.7422329941256522,-0.621332215027405,0.8943208164874846,-0.6801434207992128,high,low,,ISIC_0034065.JPG,9,ISIC_6446779.JPG,94,false,hl,keypress(j),0,false,782278.3000000119,782278.1000000238,776225.058,776375,776241.91,782141.662,4,500,19,
break,html.Screen,10_18_1,2023-11-15T15:45:34.805Z,,,,,,,,,,NaN,,,,,,,,high,low,,,,,,false,,,,false,782278.6000000238,782278.5,,782278.3000000119,,782141.662,4,500,,
break_continue,html.Screen,10_18_2,2023-11-15T15:45:34.806Z,,,,,,,,,,NaN,,,,,,,,high,low,,,,,,false,,,,false,782278.8000000119,782278.6999999881,,782278.6999999881,,782141.662,4,500,,
sequence,flow.Sequence,10_18,2023-11-15T15:45:34.806Z,,,,,,,,,,6036.7899999880465,completion,,,,,,,high,low,,,,,,false,,,,false,782278.9000000358,782278.6999999881,776225.058,776375,776241.91,782141.662,4,500,,
trial,html.Screen,10_19_0,2023-11-15T15:45:42.133Z,,,,1,-0.068830656047477,0.0471494209282208,,true,lh,7464.738000035752,response,-0.6360398095473613,0.8049586507449833,-0.7422329941256522,0.8410554198353576,0.8943208164874846,-0.6801434207992128,low,high,,ISIC_0029982.JPG,8,ISIC_6032520.JPG,49,false,lh,keypress(e),0,false,789606.5,789606.4000000358,782124.957,782278.9000000358,782141.662,789475.212,4,500,20,
break,html.Screen,10_19_1,2023-11-15T15:45:42.134Z,,,,,,,,,,NaN,,,,,,,,low,high,,,,,,false,,,,false,789606.8000000119,789606.6999999881,,789606.5,,789475.212,4,500,,
break_continue,html.Screen,10_19_2,2023-11-15T15:45:42.134Z,,,,,,,,,,NaN,,,,,,,,low,high,,,,,,false,,,,false,789607.1000000238,789607,,789606.8000000119,,789475.212,4,500,,
sequence,flow.Sequence,10_19,2023-11-15T15:45:42.134Z,,,,,,,,,,7465.337999999989,completion,,,,,,,low,high,,,,,,false,,,,false,789607.1000000238,789607,782124.957,782278.9000000358,782141.662,789475.212,4,500,,
trial,html.Screen,10_20_0,2023-11-15T15:45:49.381Z,,,,1,0.0326050223870869,0.0579165897319751,,false,hl,7378.787999999942,response,0.6246335581732997,0.8049586507449833,-0.7422329941256522,-0.5805958148571913,0.8943208164874846,-0.6801434207992128,high,low,,ISIC_4570724.JPG,8,ISIC_0068477.JPG,94,false,hh,keypress(i),0,false,796854.1999999881,796854,789458.418,789607.1000000238,789475.212,796725.147,4,500,21,
break,html.Screen,10_20_1,2023-11-15T15:45:49.381Z,,,,,,,,,,NaN,,,,,,,,high,low,,,,,,false,,,,false,796854.5,796854.5,,796854.3000000119,,796725.147,4,500,,
break_continue,html.Screen,10_20_2,2023-11-15T15:45:49.382Z,,,,,,,,,,NaN,,,,,,,,high,low,,,,,,false,,,,false,796854.8000000119,796854.6999999881,,796854.6000000238,,796725.147,4,500,,
sequence,flow.Sequence,10_20,2023-11-15T15:45:49.382Z,,,,,,,,,,7379.487999988021,completion,,,,,,,high,low,,,,,,false,,,,false,796854.8000000119,796854.6999999881,789458.418,789607.1000000238,789475.212,796725.147,4,500,,
trial,html.Screen,10_21_0,2023-11-15T15:45:56.485Z,,,,1,-0.0715931084231032,0.011427878877272,,false,hl,7232.853000000003,response,0.8808584409873765,0.8049586507449833,-0.7422329941256522,-0.5369726749805327,0.8943208164874846,-0.6801434207992128,high,low,,ISIC_1470250.JPG,9,ISIC_0026664.JPG,94,false,hh,keypress(i),0,false,803958.1999999881,803958,796691.875,796854.9000000358,796725.147,803825.379,4,500,22,
break,html.Screen,10_21_1,2023-11-15T15:45:56.485Z,,,,,,,,,,NaN,,,,,,,,high,low,,,,,,false,,,,false,803958.5,803958.4000000358,,803958.1999999881,,803825.379,4,500,,
break_continue,html.Screen,10_21_2,2023-11-15T15:45:56.486Z,,,,,,,,,,NaN,,,,,,,,high,low,,,,,,false,,,,false,803958.6999999881,803958.6000000238,,803958.6000000238,,803825.379,4,500,,
sequence,flow.Sequence,10_21,2023-11-15T15:45:56.486Z,,,,,,,,,,7233.453000023845,completion,,,,,,,high,low,,,,,,false,,,,false,803958.8000000119,803958.6000000238,796691.875,796854.9000000358,796725.147,803825.379,4,500,,
trial,html.Screen,10_22_0,2023-11-15T15:46:03.445Z,,,,1,-0.0267918352484299,-0.0630167830859455,,false,hh,7092.820999988122,response,0.6844945139045154,0.8049586507449833,-0.7422329941256522,0.7275443040296472,0.8943208164874846,-0.6801434207992128,high,high,,ISIC_0064874.JPG,9,ISIC_0033025.JPG,212,false,lh,keypress(e),0,false,810918.3000000119,810918.1999999881,803808.081,803958.8000000119,803825.379,810774.923,4,500,23,
break,html.Screen,10_22_1,2023-11-15T15:46:03.446Z,,,,,,,,,,NaN,,,,,,,,high,high,,,,,,false,,,,false,810918.6000000238,810918.6000000238,,810918.4000000358,,810774.923,4,500,,
break_continue,html.Screen,10_22_2,2023-11-15T15:46:03.446Z,,,,,,,,,,NaN,,,,,,,,high,high,,,,,,false,,,,false,810918.8000000119,810918.8000000119,,810918.6999999881,,810774.923,4,500,,
sequence,flow.Sequence,10_22,2023-11-15T15:46:03.446Z,,,,,,,,,,7093.421000011964,completion,,,,,,,high,high,,,,,,false,,,,false,810919,810918.8000000119,803808.081,803958.8000000119,803825.379,810774.923,4,500,,
trial,html.Screen,10_23_0,2023-11-15T15:46:08.565Z,,,,1,-0.0423567271646023,-0.0380126882576854,,true,ll,5263.2769999881275,response,-0.5554094298225696,0.8049586507449833,-0.7422329941256522,-0.5372562476192702,0.8943208164874846,-0.6801434207992128,low,low,,ISIC_0046932.JPG,9,ISIC_4249893.JPG,322,false,ll,keypress(f),0,false,816038.3000000119,816038.1999999881,810758.358,810919,810774.923,815908.692,4,500,24,
break,html.Screen,10_23_1,2023-11-15T15:46:08.566Z,,,,,,,,,,NaN,,,,,,,,low,low,,,,,,false,,,,false,816038.6000000238,816038.5,,816038.4000000358,,815908.692,4,500,,
break_continue,html.Screen,10_23_2,2023-11-15T15:46:08.566Z,,,,,,,,,,NaN,,,,,,,,low,low,,,,,,false,,,,false,816038.8000000119,816038.6999999881,,816038.6999999881,,815908.692,4,500,,
sequence,flow.Sequence,10_23,2023-11-15T15:46:08.566Z,,,,,,,,,,5263.7769999881275,completion,,,,,,,low,low,,,,,,false,,,,false,816038.9000000358,816038.6999999881,810758.358,810919,810774.923,815908.692,4,500,,
trial,html.Screen,10_24_0,2023-11-15T15:46:13.669Z,,,,1,0.049790040126711,-0.0195291725171472,,true,hl,5233.608000011882,response,0.610833248328665,0.8049586507449833,-0.7422329941256522,-0.6643349704405189,0.8943208164874846,-0.6801434207992128,high,low,,ISIC_0372902.JPG,8,ISIC_0003052.JPG,94,false,hl,keypress(j),0,false,821142.4000000358,821142.3000000119,815891.706,816038.9000000358,815908.692,821008.51,4,500,25,
break,html.Screen,10_24_1,2023-11-15T15:46:13.670Z,,,,,,,,,,NaN,,,,,,,,high,low,,,,,,false,,,,false,821142.6999999881,821142.6000000238,,821142.5,,821008.51,4,500,,
break_continue,html.Screen,10_24_2,2023-11-15T15:46:13.670Z,,,,,,,,,,NaN,,,,,,,,high,low,,,,,,false,,,,false,821143,821142.8000000119,,821142.6999999881,,821008.51,4,500,,
sequence,flow.Sequence,10_24,2023-11-15T15:46:13.670Z,,,,,,,,,,5234.108000011882,completion,,,,,,,high,low,,,,,,false,,,,false,821143,821142.8000000119,815891.706,816038.9000000358,815908.692,821008.51,4,500,,
trial,html.Screen,10_25_0,2023-11-15T15:46:18.053Z,,,,1,0.0607839218394147,0.0567408401627122,,true,lh,4517.790000011912,response,-0.8110121381849364,0.8049586507449833,-0.7422329941256522,0.7563142141851558,0.8943208164874846,-0.6801434207992128,low,high,,ISIC_0026901.JPG,9,ISIC_0033605.JPG,49,false,lh,keypress(e),0,false,825526.3000000119,825526.3000000119,820991.704,821143.1000000238,821008.51,825391.845,4,500,26,
break,html.Screen,10_25_1,2023-11-15T15:46:18.054Z,,,,,,,,,,NaN,,,,,,,,low,high,,,,,,false,,,,false,825526.6000000238,825526.6000000238,,825526.4000000358,,825391.845,4,500,,
break_continue,html.Screen,10_25_2,2023-11-15T15:46:18.054Z,,,,,,,,,,NaN,,,,,,,,low,high,,,,,,false,,,,false,825526.8000000119,825526.6999999881,,825526.6000000238,,825391.845,4,500,,
sequence,flow.Sequence,10_25,2023-11-15T15:46:18.054Z,,,,,,,,,,4518.18999998807,completion,,,,,,,low,high,,,,,,false,,,,false,825526.9000000358,825526.6999999881,820991.704,821143.1000000238,821008.51,825391.845,4,500,,
trial,html.Screen,10_26_0,2023-11-15T15:46:26.757Z,,,,1,-0.0367706518941078,0.0161069838272154,,true,lh,8838.25500002387,response,-0.6820087657417985,0.8049586507449833,-0.7422329941256522,0.6990995805340022,0.8943208164874846,-0.6801434207992128,low,high,,ISIC_0033419.JPG,10,ISIC_4728968.JPG,49,false,lh,keypress(e),0,false,834230.1999999881,834230.1000000238,825375.229,825526.9000000358,825391.845,834091.704,4,500,27,
break,html.Screen,10_26_1,2023-11-15T15:46:26.757Z,,,,,,,,,,NaN,,,,,,,,low,high,,,,,,false,,,,false,834230.6000000238,834230.5,,834230.3000000119,,834091.704,4,500,,
break_continue,html.Screen,10_26_2,2023-11-15T15:46:26.758Z,,,,,,,,,,NaN,,,,,,,,low,high,,,,,,false,,,,false,834230.8000000119,834230.6999999881,,834230.6000000238,,834091.704,4,500,,
sequence,flow.Sequence,10_26,2023-11-15T15:46:26.758Z,,,,,,,,,,8838.854999988107,completion,,,,,,,low,high,,,,,,false,,,,false,834230.9000000358,834230.6999999881,825375.229,825526.9000000358,825391.845,834091.704,4,500,,
trial,html.Screen,10_27_0,2023-11-15T15:46:33.653Z,,,,1,-0.0044063257337227,-0.0172548282859886,,false,hh,7034.596000011894,response,0.7908195179596742,0.8049586507449833,-0.7422329941256522,0.846286768918253,0.8943208164874846,-0.6801434207992128,high,high,,ISIC_7413786.JPG,9,ISIC_0033843.JPG,212,false,hl,keypress(j),0,false,841126.5,841126.3000000119,834074.802,834230.9000000358,834091.704,840991.649,4,500,28,
break,html.Screen,10_27_1,2023-11-15T15:46:33.654Z,,,,,,,,,,NaN,,,,,,,,high,high,,,,,,false,,,,false,841126.6999999881,841126.6999999881,,841126.6000000238,,840991.649,4,500,,
break_continue,html.Screen,10_27_2,2023-11-15T15:46:33.654Z,,,,,,,,,,NaN,,,,,,,,high,high,,,,,,false,,,,false,841127,841126.9000000358,,841126.6999999881,,840991.649,4,500,,
sequence,flow.Sequence,10_27,2023-11-15T15:46:33.654Z,,,,,,,,,,7035.196000035736,completion,,,,,,,high,high,,,,,,false,,,,false,841127.1000000238,841126.9000000358,834074.802,834230.9000000358,834091.704,840991.649,4,500,,
trial,html.Screen,10_28_0,2023-11-15T15:46:44.645Z,,,,1,-0.0586798548295751,0.0060040805764433,,true,ll,11126.751000035787,response,-0.5978055641030107,0.8049586507449833,-0.7422329941256522,-0.628410375243429,0.8943208164874846,-0.6801434207992128,low,low,,ISIC_1552232.JPG,9,ISIC_0028394.JPG,322,false,ll,keypress(f),0,false,852118.5,852118.4000000358,840974.731,841127.1000000238,840991.649,851991.585,4,500,29,
break,html.Screen,10_28_1,2023-11-15T15:46:44.646Z,,,,,,,,,,NaN,,,,,,,,low,low,,,,,,false,,,,false,852118.9000000358,852118.8000000119,,852118.6000000238,,851991.585,4,500,,
break_continue,html.Screen,10_28_2,2023-11-15T15:46:44.646Z,,,,,,,,,,NaN,,,,,,,,low,low,,,,,,false,,,,false,852119,852118.9000000358,,852118.9000000358,,851991.585,4,500,,
sequence,flow.Sequence,10_28,2023-11-15T15:46:44.646Z,,,,,,,,,,11127.251000035787,completion,,,,,,,low,low,,,,,,false,,,,false,852119,852118.9000000358,840974.731,841127.1000000238,840991.649,851991.585,4,500,,
trial,html.Screen,10_29_0,2023-11-15T15:46:52.741Z,,,,1,-0.0119001144851157,0.0063430114540141,,false,ll,8222.614999988116,response,-0.6127840548447773,0.8049586507449833,-0.7422329941256522,-0.5320269114940154,0.8943208164874846,-0.6801434207992128,low,low,,ISIC_0003822.JPG,9,ISIC_3222447.JPG,322,false,hl,keypress(j),0,false,860214.1999999881,860214.1999999881,851974.918,852119,851991.585,860074.893,4,500,30,
break,html.Screen,10_29_1,2023-11-15T15:46:52.742Z,,,,,,,,,,NaN,,,,,,,,low,low,,,,,,false,,,,false,860214.5,860214.4000000358,,860214.3000000119,,860074.893,4,500,,
break_continue,html.Screen,10_29_2,2023-11-15T15:46:52.742Z,,,,,,,,,,NaN,,,,,,,,low,low,,,,,,false,,,,false,860214.8000000119,860214.6000000238,,860214.6000000238,,860074.893,4,500,,
sequence,flow.Sequence,10_29,2023-11-15T15:46:52.742Z,,,,,,,,,,8223.01500002388,completion,,,,,,,low,low,,,,,,false,,,,false,860214.8000000119,860214.6000000238,851974.918,852119,851991.585,860074.893,4,500,,
trial,html.Screen,10_30_0,2023-11-15T15:47:03.608Z,,,,1,-0.0286056110007553,-0.036125199756515,,,,10866.745999999926,timeout,-0.6053594235836648,0.8049586507449833,-0.7422329941256522,0.9666375392777208,0.8943208164874846,-0.6801434207992128,low,high,,ISIC_6535558.JPG,9,ISIC_0068314.JPG,49,false,,,0,false,871080.6000000238,871080.5,860058.408,860214.9000000358,860074.893,870941.639,4,500,31,
break,html.Screen,10_30_1,2023-11-15T15:47:03.608Z,,,,,,,,,,NaN,,,,,,,,low,high,,,,,,false,,,,false,871080.9000000358,871080.9000000358,,871080.6999999881,,870941.639,4,500,,
break_continue,html.Screen,10_30_2,2023-11-15T15:47:03.608Z,,,,,,,,,,NaN,,,,,,,,low,high,,,,,,false,,,,false,871081.3000000119,871081.1999999881,,871081,,870941.639,4,500,,
sequence,flow.Sequence,10_30,2023-11-15T15:47:03.608Z,,,,,,,,,,11006.306999988039,completion,,,,,,,low,high,,,,,,false,,,,false,871081.4000000358,871081.1999999881,860058.408,860214.8000000119,860074.893,870941.639,4,500,,
trial,html.Screen,10_31_0,2023-11-15T15:47:14.475Z,,,,1,0.0145962222125655,0.0525495878509009,,,,10866.704000000027,timeout,0.9340146106918494,0.8049586507449833,-0.7422329941256522,0.8683758859171238,0.8943208164874846,-0.6801434207992128,high,high,,ISIC_4248013.JPG,8,ISIC_0065204.JPG,212,false,,,0,false,881947.8000000119,881947.6999999881,870925.122,871081.4000000358,870941.639,881808.343,4,500,32,
break,html.Screen,10_31_1,2023-11-15T15:47:14.475Z,,,,,,,,,,NaN,,,,,,,,high,high,,,,,,false,,,,false,881948.1000000238,881948.1000000238,,881947.9000000358,,881808.343,4,500,,
break_continue,html.Screen,10_31_2,2023-11-15T15:47:14.476Z,,,,,,,,,,NaN,,,,,,,,high,high,,,,,,false,,,,false,881948.4000000358,881948.3000000119,,881948.1999999881,,881808.343,4,500,,
sequence,flow.Sequence,10_31,2023-11-15T15:47:14.476Z,,,,,,,,,,11006.661000011954,completion,,,,,,,high,high,,,,,,false,,,,false,881948.5,881948.3000000119,870925.122,871081.4000000358,870941.639,881808.343,4,500,,
trial,html.Screen,10_32_0,2023-11-15T15:47:19.861Z,,,,1,0.0426957918502628,0.044166030546046,,false,ll,5525.957000011927,response,-0.7111651995310534,0.8049586507449833,-0.7422329941256522,-0.6306364031521975,0.8943208164874846,-0.6801434207992128,low,low,,ISIC_4649440.JPG,9,ISIC_0003132.JPG,322,false,hl,keypress(j),0,false,887334.4000000358,887334.3000000119,881791.705,881948.5,881808.343,887191.58,4,500,33,
break,html.Screen,10_32_1,2023-11-15T15:47:19.862Z,,,,,,,,,,NaN,,,,,,,,low,low,,,,,,false,,,,false,887334.6999999881,887334.6999999881,,887334.5,,887191.58,4,500,,
break_continue,html.Screen,10_32_2,2023-11-15T15:47:19.862Z,,,,,,,,,,NaN,,,,,,,,low,low,,,,,,false,,,,false,887335,887334.9000000358,,887334.8000000119,,887191.58,4,500,,
sequence,flow.Sequence,10_32,2023-11-15T15:47:19.862Z,,,,,,,,,,5526.557000035769,completion,,,,,,,low,low,,,,,,false,,,,false,887335,887334.9000000358,881791.705,881948.5,881808.343,887191.58,4,500,,
trial,html.Screen,10_33_0,2023-11-15T15:47:23.653Z,,,,1,0.0367060100866019,0.0630207980628495,,false,hl,3934.5200000238838,response,0.8067627078956657,0.8049586507449833,-0.7422329941256522,-0.7115865750196155,0.8943208164874846,-0.6801434207992128,high,low,,ISIC_0028396.JPG,9,ISIC_0010014.JPG,94,false,lh,keypress(e),0,false,891126.1999999881,891126.1000000238,887174.856,887335.1000000238,887191.58,890991.774,4,500,34,
break,html.Screen,10_33_1,2023-11-15T15:47:23.654Z,,,,,,,,,,NaN,,,,,,,,high,low,,,,,,false,,,,false,891126.5,891126.4000000358,,891126.1999999881,,890991.774,4,500,,
break_continue,html.Screen,10_33_2,2023-11-15T15:47:23.654Z,,,,,,,,,,NaN,,,,,,,,high,low,,,,,,false,,,,false,891126.6999999881,891126.6000000238,,891126.5,,890991.774,4,500,,
sequence,flow.Sequence,10_33,2023-11-15T15:47:23.654Z,,,,,,,,,,3935.0200000238838,completion,,,,,,,high,low,,,,,,false,,,,false,891126.8000000119,891126.6000000238,887174.856,887335.1000000238,887191.58,890991.774,4,500,,
trial,html.Screen,10_34_0,2023-11-15T15:47:30.374Z,,,,1,0.0497314815986203,-0.0303374618795786,,true,hh,6854.626000035787,response,0.6486277845374733,0.8049586507449833,-0.7422329941256522,0.9839443294124354,0.8943208164874846,-0.6801434207992128,high,high,,ISIC_6023504.JPG,8,ISIC_0056440.JPG,212,false,hh,keypress(i),0,false,897846.6000000238,897846.4000000358,890975.173,891126.8000000119,890991.774,897708.342,4,500,35,
break,html.Screen,10_34_1,2023-11-15T15:47:30.374Z,,,,,,,,,,NaN,,,,,,,,high,high,,,,,,false,,,,false,897846.8000000119,897846.8000000119,,897846.6999999881,,897708.342,4,500,,
break_continue,html.Screen,10_34_2,2023-11-15T15:47:30.374Z,,,,,,,,,,NaN,,,,,,,,high,high,,,,,,false,,,,false,897847.1000000238,897847,,897846.9000000358,,897708.342,4,500,,
sequence,flow.Sequence,10_34,2023-11-15T15:47:30.374Z,,,,,,,,,,6855.226000000024,completion,,,,,,,high,high,,,,,,false,,,,false,897847.1999999881,897847,890975.173,891126.8000000119,890991.774,897708.342,4,500,,
trial,html.Screen,10_35_0,2023-11-15T15:47:33.973Z,,,,1,-0.0715931084231032,0.011427878877272,,false,ll,3737.857999988133,response,-0.6985990277933694,0.8049586507449833,-0.7422329941256522,-0.5100391918980829,0.8943208164874846,-0.6801434207992128,low,low,,ISIC_1470250.JPG,10,ISIC_2015441.JPG,322,false,lh,keypress(e),0,false,901446.4000000358,901446.1999999881,897691.685,897847.1999999881,897708.342,901308.137,4,500,36,
break,html.Screen,10_35_1,2023-11-15T15:47:33.974Z,,,,,,,,,,NaN,,,,,,,,low,low,,,,,,false,,,,false,901446.6000000238,901446.5,,901446.4000000358,,901308.137,4,500,,
break_continue,html.Screen,10_35_2,2023-11-15T15:47:33.974Z,,,,,,,,,,NaN,,,,,,,,low,low,,,,,,false,,,,false,901446.9000000358,901446.8000000119,,901446.6999999881,,901308.137,4,500,,
sequence,flow.Sequence,10_35,2023-11-15T15:47:33.974Z,,,,,,,,,,3738.458000011975,completion,,,,,,,low,low,,,,,,false,,,,false,901446.9000000358,901446.8000000119,897691.685,897847.1999999881,897708.342,901308.137,4,500,,
trial,html.Screen,10_36_0,2023-11-15T15:47:41.462Z,,,,1,0.0644356642124594,-0.0565130492997401,,false,hl,7626.163000011933,response,0.9762052952069274,0.8049586507449833,-0.7422329941256522,-0.5466893998883133,0.8943208164874846,-0.6801434207992128,high,low,,ISIC_7520843.JPG,9,ISIC_0063742.JPG,94,false,ll,keypress(f),0,false,908934.5,908934.3000000119,901291.613,901446.9000000358,901308.137,908791.453,4,500,37,
break,html.Screen,10_36_1,2023-11-15T15:47:41.462Z,,,,,,,,,,NaN,,,,,,,,high,low,,,,,,false,,,,false,908934.8000000119,908934.8000000119,,908934.6000000238,,908791.453,4,500,,
break_continue,html.Screen,10_36_2,2023-11-15T15:47:41.462Z,,,,,,,,,,NaN,,,,,,,,high,low,,,,,,false,,,,false,908935,908934.9000000358,,908934.8000000119,,908791.453,4,500,,
sequence,flow.Sequence,10_36,2023-11-15T15:47:41.462Z,,,,,,,,,,7626.763000035775,completion,,,,,,,high,low,,,,,,false,,,,false,908935.1000000238,908934.9000000358,901291.613,901446.9000000358,901308.137,908791.453,4,500,,
trial,html.Screen,10_37_0,2023-11-15T15:47:45.045Z,,,,1,0.0010920693448107,0.0492408806128631,,true,lh,3726.6470000238623,response,-0.6428017625736049,0.8049586507449833,-0.7422329941256522,0.8080600569333839,0.8943208164874846,-0.6801434207992128,low,high,,ISIC_6155981.JPG,8,ISIC_9244047.JPG,49,false,lh,keypress(e),0,false,912518.3000000119,912518.1000000238,908774.98,908935.1000000238,908791.453,912374.826,4,500,38,
break,html.Screen,10_37_1,2023-11-15T15:47:45.046Z,,,,,,,,,,NaN,,,,,,,,low,high,,,,,,false,,,,false,912518.6999999881,912518.6000000238,,912518.4000000358,,912374.826,4,500,,
break_continue,html.Screen,10_37_2,2023-11-15T15:47:45.046Z,,,,,,,,,,NaN,,,,,,,,low,high,,,,,,false,,,,false,912518.9000000358,912518.6999999881,,912518.6999999881,,912374.826,4,500,,
sequence,flow.Sequence,10_37,2023-11-15T15:47:45.046Z,,,,,,,,,,3727.2469999880996,completion,,,,,,,low,high,,,,,,false,,,,false,912519,912518.6999999881,908774.98,908935.1000000238,908791.453,912374.826,4,500,,
trial,html.Screen,10_38_0,2023-11-15T15:47:49.637Z,,,,1,0.0010920693448107,0.0492408806128631,,false,ll,4735.173999999999,response,-0.934080360486692,0.8049586507449833,-0.7422329941256522,-0.6153641935770555,0.8943208164874846,-0.6801434207992128,low,low,,ISIC_6155981.JPG,9,ISIC_0010684.JPG,322,false,lh,keypress(e),0,false,917110.1000000238,917110,912358.294,912519,912374.826,916974.99,4,500,39,
break,html.Screen,10_38_1,2023-11-15T15:47:49.638Z,,,,,,,,,,NaN,,,,,,,,low,low,,,,,,false,,,,false,917110.4000000358,917110.3000000119,,917110.1999999881,,916974.99,4,500,,
break_continue,html.Screen,10_38_2,2023-11-15T15:47:49.638Z,,,,,,,,,,NaN,,,,,,,,low,low,,,,,,false,,,,false,917110.6000000238,917110.6000000238,,917110.4000000358,,916974.99,4,500,,
sequence,flow.Sequence,10_38,2023-11-15T15:47:49.638Z,,,,,,,,,,4735.774000023841,completion,,,,,,,low,low,,,,,,false,,,,false,917110.6000000238,917110.6000000238,912358.294,912519,912374.826,916974.99,4,500,,
trial,html.Screen,10_39_0,2023-11-15T15:47:54.550Z,,,,1,0.0409660561823769,-0.039283578935498,,true,ll,5047.31000001193,response,-0.8332023934285325,0.8049586507449833,-0.7422329941256522,-0.6782360910758641,0.8943208164874846,-0.6801434207992128,low,low,,ISIC_0479264.JPG,9,ISIC_2119925.JPG,322,false,ll,keypress(f),0,false,922022.4000000358,922022.3000000119,916958.106,917110.6999999881,916974.99,921891.713,4,500,40,
break,html.Screen,10_39_1,2023-11-15T15:47:54.550Z,,,,,,,,,,NaN,,,,,,,,low,low,,,,,,false,,,,false,922022.6999999881,922022.6999999881,,922022.5,,921891.713,4,500,,
break_continue,html.Screen,10_39_2,2023-11-15T15:47:54.550Z,,,,,,,,,,NaN,,,,,,,,low,low,,,,,,false,,,,false,922022.9000000358,922022.8000000119,,922022.6999999881,,921891.713,4,500,,
sequence,flow.Sequence,10_39,2023-11-15T15:47:54.550Z,,,,,,,,,,5047.81000001193,completion,,,,,,,low,low,,,,,,false,,,,false,922023,922022.8000000119,916958.106,917110.6999999881,916974.99,921891.713,4,500,,
trial,html.Screen,10_40_0,2023-11-15T15:47:59.365Z,,,,1,0.0146597765042814,0.06222227493177,,false,hl,4946.587000011932,response,0.7872534775441857,0.8049586507449833,-0.7422329941256522,-0.8441107693833454,0.8943208164874846,-0.6801434207992128,high,low,,ISIC_5982769.JPG,9,ISIC_0028788.JPG,94,false,lh,keypress(e),0,false,926838.3000000119,926838.3000000119,921875.006,922023,921891.713,926708.565,4,500,41,
break,html.Screen,10_40_1,2023-11-15T15:47:59.366Z,,,,,,,,,,NaN,,,,,,,,high,low,,,,,,false,,,,false,926838.6000000238,926838.5,,926838.4000000358,,926708.565,4,500,,
break_continue,html.Screen,10_40_2,2023-11-15T15:47:59.366Z,,,,,,,,,,NaN,,,,,,,,high,low,,,,,,false,,,,false,926838.8000000119,926838.6999999881,,926838.6000000238,,926708.565,4,500,,
sequence,flow.Sequence,10_40,2023-11-15T15:47:59.366Z,,,,,,,,,,4946.98699998809,completion,,,,,,,high,low,,,,,,false,,,,false,926838.8000000119,926838.6999999881,921875.006,922023,921891.713,926708.565,4,500,,
trial,html.Screen,10_41_0,2023-11-15T15:48:04.469Z,,,,1,-0.0119001144851157,0.0063430114540141,,false,lh,5233.435000000056,response,-0.6820087657417985,0.8049586507449833,-0.7422329941256522,0.6990995805340022,0.8943208164874846,-0.6801434207992128,low,high,,ISIC_0003822.JPG,9,ISIC_4728968.JPG,49,false,hl,keypress(j),0,false,931942,931942,926691.454,926838.8000000119,926708.565,931808.327,4,500,42,
break,html.Screen,10_41_1,2023-11-15T15:48:04.469Z,,,,,,,,,,NaN,,,,,,,,low,high,,,,,,false,,,,false,931942.3000000119,931942.3000000119,,931942.1999999881,,931808.327,4,500,,
break_continue,html.Screen,10_41_2,2023-11-15T15:48:04.470Z,,,,,,,,,,NaN,,,,,,,,low,high,,,,,,false,,,,false,931942.6999999881,931942.6000000238,,931942.5,,931808.327,4,500,,
sequence,flow.Sequence,10_41,2023-11-15T15:48:04.470Z,,,,,,,,,,5234.035000023898,completion,,,,,,,low,high,,,,,,false,,,,false,931942.6999999881,931942.6000000238,926691.454,926838.8000000119,926708.565,931808.327,4,500,,
trial,html.Screen,10_42_0,2023-11-15T15:48:11.796Z,,,,1,0.0146597765042814,0.06222227493177,,true,ll,7460.872999988031,response,-0.8102184119880042,0.8049586507449833,-0.7422329941256522,-0.8335849494917403,0.8943208164874846,-0.6801434207992128,low,low,,ISIC_5982769.JPG,9,ISIC_6168754.JPG,322,false,ll,keypress(f),0,false,939269.3000000119,939269.1999999881,931791.708,931942.6999999881,931808.327,939124.755,4,500,43,
break,html.Screen,10_42_1,2023-11-15T15:48:11.797Z,,,,,,,,,,NaN,,,,,,,,low,low,,,,,,false,,,,false,939269.6000000238,939269.5,,939269.4000000358,,939124.755,4,500,,
break_continue,html.Screen,10_42_2,2023-11-15T15:48:11.797Z,,,,,,,,,,NaN,,,,,,,,low,low,,,,,,false,,,,false,939269.9000000358,939269.8000000119,,939269.6999999881,,939124.755,4,500,,
sequence,flow.Sequence,10_42,2023-11-15T15:48:11.797Z,,,,,,,,,,7461.4730000118725,completion,,,,,,,low,low,,,,,,false,,,,false,939270,939269.8000000119,931791.708,931942.6999999881,931808.327,939124.755,4,500,,
trial,html.Screen,10_43_0,2023-11-15T15:48:19.157Z,,,,1,-0.0204987932325723,0.0619049476763945,,false,ll,7505.345000023837,response,-0.6638243397950727,0.8049586507449833,-0.7422329941256522,-0.7225018190744066,0.8943208164874846,-0.6801434207992128,low,low,,ISIC_0887792.JPG,8,ISIC_0033320.JPG,322,false,lh,keypress(e),0,false,946630.3000000119,946630.1000000238,939108.014,939270,939124.755,946491.566,4,500,44,
break,html.Screen,10_43_1,2023-11-15T15:48:19.158Z,,,,,,,,,,NaN,,,,,,,,low,low,,,,,,false,,,,false,946630.5,946630.5,,946630.3000000119,,946491.566,4,500,,
break_continue,html.Screen,10_43_2,2023-11-15T15:48:19.158Z,,,,,,,,,,NaN,,,,,,,,low,low,,,,,,false,,,,false,946630.8000000119,946630.6999999881,,946630.6000000238,,946491.566,4,500,,
sequence,flow.Sequence,10_43,2023-11-15T15:48:19.158Z,,,,,,,,,,7505.944999988074,completion,,,,,,,low,low,,,,,,false,,,,false,946630.9000000358,946630.6999999881,939108.014,939270,939124.755,946491.566,4,500,,
trial,html.Screen,10_44_0,2023-11-15T15:48:25.157Z,,,,1,-0.0643519619373155,-0.0340638715725122,,false,lh,6138.633999988087,response,-0.6904571159175875,0.8049586507449833,-0.7422329941256522,0.8338159233479188,0.8943208164874846,-0.6801434207992128,low,high,,ISIC_0066401.JPG,9,ISIC_6381981.JPG,49,false,hh,keypress(i),0,false,952630.3000000119,952630.1999999881,946474.851,946630.9000000358,946491.566,952491.59,4,500,45,
break,html.Screen,10_44_1,2023-11-15T15:48:25.158Z,,,,,,,,,,NaN,,,,,,,,low,high,,,,,,false,,,,false,952630.6000000238,952630.6000000238,,952630.4000000358,,952491.59,4,500,,
break_continue,html.Screen,10_44_2,2023-11-15T15:48:25.158Z,,,,,,,,,,NaN,,,,,,,,low,high,,,,,,false,,,,false,952630.8000000119,952630.6999999881,,952630.6000000238,,952491.59,4,500,,
sequence,flow.Sequence,10_44,2023-11-15T15:48:25.158Z,,,,,,,,,,6139.133999988087,completion,,,,,,,low,high,,,,,,false,,,,false,952630.9000000358,952630.6999999881,946474.851,946630.9000000358,946491.566,952491.59,4,500,,
trial,html.Screen,10_45_0,2023-11-15T15:48:32.549Z,,,,1,-0.0423567271646023,-0.0380126882576854,,false,hl,7530.109999988112,response,0.8808584409873765,0.8049586507449833,-0.7422329941256522,-0.5369726749805327,0.8943208164874846,-0.6801434207992128,high,low,,ISIC_0046932.JPG,9,ISIC_0026664.JPG,94,false,hh,keypress(i),0,false,960021.8000000119,960021.6999999881,952474.974,952631,952491.59,959891.512,4,500,46,
break,html.Screen,10_45_1,2023-11-15T15:48:32.549Z,,,,,,,,,,NaN,,,,,,,,high,low,,,,,,false,,,,false,960022,960022,,960021.8000000119,,959891.512,4,500,,
break_continue,html.Screen,10_45_2,2023-11-15T15:48:32.549Z,,,,,,,,,,NaN,,,,,,,,high,low,,,,,,false,,,,false,960022.3000000119,960022.1999999881,,960022.1000000238,,959891.512,4,500,,
sequence,flow.Sequence,10_45,2023-11-15T15:48:32.549Z,,,,,,,,,,7530.609999988112,completion,,,,,,,high,low,,,,,,false,,,,false,960022.4000000358,960022.1999999881,952474.974,952631,952491.59,959891.512,4,500,,
trial,html.Screen,10_46_0,2023-11-15T15:48:43.549Z,,,,1,0.0223011224608011,-0.0466190802905965,,,,11016.73900000006,timeout,-0.8115434332647807,0.8049586507449833,-0.7422329941256522,-0.7797153835685641,0.8943208164874846,-0.6801434207992128,low,low,,ISIC_0028041.JPG,9,ISIC_7300631.JPG,322,false,,,0,false,971021.8000000119,971021.6000000238,959874.812,960022.4000000358,959891.512,970908.251,4,500,47,
break,html.Screen,10_46_1,2023-11-15T15:48:43.549Z,,,,,,,,,,NaN,,,,,,,,low,low,,,,,,false,,,,false,971021.9000000358,971021.9000000358,,971021.8000000119,,970908.251,4,500,,
break_continue,html.Screen,10_46_2,2023-11-15T15:48:43.549Z,,,,,,,,,,NaN,,,,,,,,low,low,,,,,,false,,,,false,971022.1999999881,971022.1000000238,,971022.1000000238,,970908.251,4,500,,
sequence,flow.Sequence,10_46,2023-11-15T15:48:43.549Z,,,,,,,,,,11130.588000023854,completion,,,,,,,low,low,,,,,,false,,,,false,971022.1999999881,971022.1000000238,959874.812,960022.4000000358,959891.512,970908.251,4,500,,
trial,html.Screen,10_47_0,2023-11-15T15:48:51.157Z,,,,1,0.0418938536494534,-0.0678614270583654,,true,ll,7721.849000023794,response,-0.6177871671276862,0.8049586507449833,-0.7422329941256522,-0.6018747417616604,0.8943208164874846,-0.6801434207992128,low,low,,ISIC_0027573.JPG,8,ISIC_3356776.JPG,322,false,ll,keypress(f),0,false,978630.1999999881,978630.1000000238,970891.577,971022.1999999881,970908.251,978491.507,4,500,48,
break,html.Screen,10_47_1,2023-11-15T15:48:51.158Z,,,,,,,,,,NaN,,,,,,,,low,low,,,,,,false,,,,false,978630.6000000238,978630.4000000358,,978630.3000000119,,978491.507,4,500,,
break_continue,html.Screen,10_47_2,2023-11-15T15:48:51.158Z,,,,,,,,,,NaN,,,,,,,,low,low,,,,,,false,,,,false,978630.8000000119,978630.6999999881,,978630.6000000238,,978491.507,4,500,,
sequence,flow.Sequence,10_47,2023-11-15T15:48:51.158Z,,,,,,,,,,7722.448999988032,completion,,,,,,,low,low,,,,,,false,,,,false,978630.9000000358,978630.6999999881,970891.577,971022.1999999881,970908.251,978491.507,4,500,,
trial,html.Screen,10_48_0,2023-11-15T15:48:56.997Z,,,,1,0.0107170641394226,-0.0596294643429623,,false,ll,5978.593000023859,response,-0.6750572801714667,0.8049586507449833,-0.7422329941256522,-0.6734945864673804,0.8943208164874846,-0.6801434207992128,low,low,,ISIC_0005291.JPG,9,ISIC_7972996.JPG,322,false,lh,keypress(e),0,false,984470.1999999881,984470.1000000238,978474.729,978630.9000000358,978491.507,984341.909,4,500,49,
break,html.Screen,10_48_1,2023-11-15T15:48:56.998Z,,,,,,,,,,NaN,,,,,,,,low,low,,,,,,false,,,,false,984470.5,984470.4000000358,,984470.1999999881,,984341.909,4,500,,
break_continue,html.Screen,10_48_2,2023-11-15T15:48:56.998Z,,,,,,,,,,NaN,,,,,,,,low,low,,,,,,false,,,,false,984470.6999999881,984470.6000000238,,984470.6000000238,,984341.909,4,500,,
sequence,flow.Sequence,10_48,2023-11-15T15:48:56.998Z,,,,,,,,,,5979.093000023859,completion,,,,,,,low,low,,,,,,false,,,,false,984470.6999999881,984470.6000000238,978474.729,978630.9000000358,978491.507,984341.909,4,500,,
trial,html.Screen,10_49_0,2023-11-15T15:49:00.437Z,,,,1,-0.0367706518941078,0.0161069838272154,,false,ll,3567.9910000357777,response,-0.8298439577079886,0.8049586507449833,-0.7422329941256522,-0.5975591074164067,0.8943208164874846,-0.6801434207992128,low,low,,ISIC_0033419.JPG,9,ISIC_0012222.JPG,322,false,lh,keypress(e),0,false,987910.1000000238,987909.9000000358,984308.365,984470.8000000119,984341.909,987774.901,4,500,50,
break,html.Screen,10_49_1,2023-11-15T15:49:00.438Z,,,,,,,,,,NaN,,,,,,,,low,low,,,,,,false,,,,false,987910.3000000119,987910.3000000119,,987910.1999999881,,987774.901,4,500,,
break_continue,html.Screen,10_49_2,2023-11-15T15:49:00.438Z,,,,,,,,,,NaN,,,,,,,,low,low,,,,,,false,,,,false,987910.6000000238,987910.5,,987910.4000000358,,987774.901,4,500,,
sequence,flow.Sequence,10_49,2023-11-15T15:49:00.438Z,,,,,,,,,,3568.591000000015,completion,,,,,,,low,low,,,,,,false,,,,false,987910.6999999881,987910.5,984308.365,984470.8000000119,984341.909,987774.901,4,500,,
trial,html.Screen,10_50_0,2023-11-15T15:49:08.741Z,,,,1,0.0388181790775959,-0.0049623405709465,,false,lh,8438.499000035808,response,-0.573169295933421,0.8049586507449833,-0.7422329941256522,0.8950809910905615,0.8943208164874846,-0.6801434207992128,low,high,,ISIC_0061880.JPG,8,ISIC_0056339.JPG,49,false,hh,keypress(i),0,false,996213.5,996213.4000000358,987758.188,987910.6999999881,987774.901,996074.777,4,500,51,
break,html.Screen,10_50_1,2023-11-15T15:49:08.741Z,,,,,,,,,,NaN,,,,,,,,low,high,,,,,,false,,,,false,996213.9000000358,996213.6999999881,,996213.6000000238,,996074.777,4,500,,
