sender,sender_type,sender_id,timestamp,meta,,age,blockNo,c1,c2,condition,correct,correctResponse,duration,ended_on,f1,f1_high,f1_low,f2,f2_high,f2_low,feature_level1,feature_level2,gender,img_left,img_reveal,img_right,n_target_images,practice,response,response_action,selection_duration,staircase,time_commit,time_end,time_render,time_run,time_show,time_switch,total_blocks,total_trials,trialNo,url
informed_consent,html.Screen,0,2023-11-15T16:42:20.121Z,"{""labjs_version"":""20.2.4"",""labjs_build"":{""flavor"":""development"",""commit"":""f5b4a49f956347addd546a832a3327688c2c0fef""},""location"":""https://labjs.felixhenninger.com/api/labjs_preview/index.html"",""userAgent"":""Mozilla/5.0 (Windows NT 10.0; Win64; x64) AppleWebKit/537.36 (KHTML, like Gecko) Chrome/119.0.0.0 Safari/537.36"",""platform"":""Win32"",""language"":""en-US"",""locale"":""en-US"",""timeZone"":""America/Chicago"",""timezoneOffset"":360,""screen_width"":1680,""screen_height"":1050,""scroll_width"":825,""scroll_height"":888,""window_innerWidth"":825,""window_innerHeight"":936,""devicePixelRatio"":1}",,,,,,,,,33702.98399998808,response,,,,,,,,,,,,,,,consent,click button,,,34352.5,34344.19999998808,624.395,622.0999999940395,641.216,34356.778,,,,{}
Demography form,html.Form,1,2023-11-15T16:42:25.833Z,,,18,,,,,,,5707.722000000002,form submission,,,,,,,,,female,,,,,,,,,,40064.69999998808,40064.5,34340.187,34352.69999998808,34356.778,40084.834,,,,
Welcome,html.Screen,2,2023-11-15T16:42:55.513Z,,,,,,,"[""asym"",""col""]",,,29659.265999994037,response,,,,,,,,,,,,,,,continue,click button,,,69744.59999999404,69744.09999999404,40067.893,40064.80000001192,40084.834,69775.97,,,,
demo_instructions,html.Screen,3,2023-11-15T16:43:27.994Z,,,,,,,,,,32448.33000001192,response,,,,,,,,,,,,,,,continue,click button,,,102224.90000000596,102224.30000001192,69759.213,69744.80000001192,69775.97,102238.94,,,,
trial,html.Screen,4_0_0,2023-11-15T16:43:34.966Z,,,,0,0.8620516892494489,-1.1108509340502866,,true,lh,6957.960000005958,response,-0.8150886811691144,0.9999999999999998,-0.9999999999999998,0.862416038462147,0.9999999999999998,-0.9999999999999998,low,high,,ISIC_5557806.JPG,,ISIC_0058079.JPG,24,true,lh,keypress(e),100,false,109197.40000000596,109196.90000000596,102222.412,102225,102238.94,109219.33,1,16,1,
sequence,flow.Sequence,4_0,2023-11-15T16:43:34.967Z,,,,,,,,,,6957.960000005958,completion,,,,,,,low,high,,,,,,true,,,,false,109198.19999998808,109196.90000000596,102222.412,102225,102238.94,109219.33,1,16,,
trial,html.Screen,4_1_0,2023-11-15T16:43:42.756Z,,,,0,1.1547137855907486,-1.0185275168641534,,true,lh,7767.869999988077,response,-0.8479396253253069,0.9999999999999998,-0.9999999999999998,1.011054319516718,0.9999999999999998,-0.9999999999999998,low,high,,ISIC_7604870.JPG,,ISIC_0063521.JPG,24,true,lh,keypress(e),100,false,116987.59999999404,116987.19999998808,109202.529,109198.5,109219.33,117017.633,1,16,2,
sequence,flow.Sequence,4_1,2023-11-15T16:43:42.757Z,,,,,,,,,,7767.869999988077,completion,,,,,,,low,high,,,,,,true,,,,false,116988.30000001192,116987.19999998808,109202.529,109198.40000000596,109219.33,117017.633,1,16,,
trial,html.Screen,4_2_0,2023-11-15T16:43:51.857Z,,,,0,0.8181754542205604,-0.8285141543298179,,true,lh,9070.16700001192,response,-0.8070820195894357,0.9999999999999998,-0.9999999999999998,0.8958120092147633,0.9999999999999998,-0.9999999999999998,low,high,,ISIC_3812485.JPG,,ISIC_0060585.JPG,24,true,lh,keypress(e),100,false,126088.19999998808,126087.80000001192,117001.209,116988.69999998808,117017.633,126118.796,1,16,3,
sequence,flow.Sequence,4_2,2023-11-15T16:43:51.857Z,,,,,,,,,,9070.16700001192,completion,,,,,,,low,high,,,,,,true,,,,false,126088.80000001192,126087.80000001192,117001.209,116988.59999999404,117017.633,126118.796,1,16,,
trial,html.Screen,4_3_0,2023-11-15T16:43:56.780Z,,,,0,0.8181754542205604,-0.8285141543298179,,true,lh,4892.303999994037,response,-1.00615481805876,0.9999999999999998,-0.9999999999999998,0.8428903771195875,0.9999999999999998,-0.9999999999999998,low,high,,ISIC_3812485.JPG,,ISIC_0069970.JPG,24,true,lh,keypress(e),100,false,131011.69999998808,131011.09999999404,126102.278,126089,126118.796,131028.349,1,16,4,
sequence,flow.Sequence,4_3,2023-11-15T16:43:56.781Z,,,,,,,,,,4892.303999994037,completion,,,,,,,low,high,,,,,,true,,,,false,131012.5,131011.09999999404,126102.278,126088.90000000596,126118.796,131028.349,1,16,,
trial,html.Screen,4_4_0,2023-11-15T16:44:07.465Z,,,,0,0.8847502213514871,0.9725947392713435,,true,ll,10667.951000011919,response,-0.8867858784567559,0.9999999999999998,-0.9999999999999998,-0.8318206308101198,0.9999999999999998,-0.9999999999999998,low,low,,ISIC_0073044.JPG,,ISIC_0032494.JPG,111,true,ll,keypress(f),100,false,141696.59999999404,141696.30000001192,131011.716,131012.80000001192,131028.349,141715.782,1,16,5,
sequence,flow.Sequence,4_4,2023-11-15T16:44:07.466Z,,,,,,,,,,10667.951000011919,completion,,,,,,,low,low,,,,,,true,,,,false,141697.19999998808,141696.30000001192,131011.716,131012.59999999404,131028.349,141715.782,1,16,,
trial,html.Screen,4_5_0,2023-11-15T16:44:12.437Z,,,,0,1.042500842905652,1.083053464502593,,true,ll,4952.2179999999935,response,-1.003694288339796,0.9999999999999998,-0.9999999999999998,-0.8462905128253329,0.9999999999999998,-0.9999999999999998,low,low,,ISIC_0071135.JPG,,ISIC_2876073.JPG,111,true,ll,keypress(f),100,false,146668.5,146668,141699.088,141697.40000000596,141715.782,146692.308,1,16,6,
sequence,flow.Sequence,4_5,2023-11-15T16:44:12.438Z,,,,,,,,,,4952.2179999999935,completion,,,,,,,low,low,,,,,,true,,,,false,146669.09999999404,146668,141699.088,141697.30000001192,141715.782,146692.308,1,16,,
trial,html.Screen,4_6_0,2023-11-15T16:44:19.202Z,,,,0,0.8868080718134892,0.8837963869804757,,true,ll,6739.5920000059705,response,-1.0372661581632368,0.9999999999999998,-0.9999999999999998,-0.8527176805053108,0.9999999999999998,-0.9999999999999998,low,low,,ISIC_0068895.JPG,,ISIC_6340792.JPG,111,true,ll,keypress(f),100,false,153432.40000000596,153431.90000000596,146675.457,146669.30000001192,146692.308,153455.516,1,16,7,
sequence,flow.Sequence,4_6,2023-11-15T16:44:19.202Z,,,,,,,,,,6739.5920000059705,completion,,,,,,,low,low,,,,,,true,,,,false,153433,153431.90000000596,146675.457,146669.30000001192,146692.308,153455.516,1,16,,
trial,html.Screen,4_7_0,2023-11-15T16:44:29.471Z,,,,0,1.1618928077758934,0.9630799724002608,,true,ll,10245.683999988076,response,-1.0103403743290518,0.9999999999999998,-0.9999999999999998,-0.8700511901947987,0.9999999999999998,-0.9999999999999998,low,low,,ISIC_0034076.JPG,,ISIC_1254469.JPG,111,true,ll,keypress(f),100,false,163701.40000000596,163701.19999998808,153438.614,153433.30000001192,153455.516,163725.223,1,16,8,
sequence,flow.Sequence,4_7,2023-11-15T16:44:29.471Z,,,,,,,,,,10245.683999988076,completion,,,,,,,low,low,,,,,,true,,,,false,163701.69999998808,163701.19999998808,153438.614,153433.30000001192,153455.516,163725.223,1,16,,
trial,html.Screen,4_8_0,2023-11-15T16:44:40.486Z,,,,0,-1.1501717278509027,0.8228936373136835,,true,hl,10991.077000011923,response,0.9448560599810628,0.9999999999999998,-0.9999999999999998,-0.9099421612683488,0.9999999999999998,-0.9999999999999998,high,low,,ISIC_8398000.JPG,,ISIC_9684318.JPG,24,true,hl,keypress(j),100,false,174716.80000001192,174716.30000001192,163708.569,163701.80000001192,163725.223,174746.699,1,16,9,
sequence,flow.Sequence,4_8,2023-11-15T16:44:40.487Z,,,,,,,,,,10991.077000011923,completion,,,,,,,high,low,,,,,,true,,,,false,174717.40000000596,174716.30000001192,163708.569,163701.69999998808,163725.223,174746.699,1,16,,
trial,html.Screen,4_9_0,2023-11-15T16:44:43.603Z,,,,0,-0.8923602890201078,0.8351700666074688,,true,hl,3086.3010000000068,response,0.8620516892494489,0.9999999999999998,-0.9999999999999998,-1.1108509340502866,0.9999999999999998,-0.9999999999999998,high,low,,ISIC_0033103.JPG,,ISIC_5557806.JPG,24,true,hl,keypress(j),100,false,177833.30000001192,177833,174730.08,174717.59999999404,174746.699,177852.708,1,16,10,
sequence,flow.Sequence,4_9,2023-11-15T16:44:43.603Z,,,,,,,,,,3086.3010000000068,completion,,,,,,,high,low,,,,,,true,,,,false,177833.90000000596,177833,174730.08,174717.5,174746.699,177852.708,1,16,,
trial,html.Screen,4_10_0,2023-11-15T16:44:45.915Z,,,,0,-0.8591294258188253,0.870797302150167,,true,hl,2292.692000005947,response,0.8588347582642082,0.9999999999999998,-0.9999999999999998,-0.8899503828496784,0.9999999999999998,-0.9999999999999998,high,low,,ISIC_0055841.JPG,,ISIC_0174983.JPG,24,true,hl,keypress(j),100,false,180145.69999998808,180145.40000000596,177836.142,177834,177852.708,180173.993,1,16,11,
sequence,flow.Sequence,4_10,2023-11-15T16:44:45.916Z,,,,,,,,,,2292.692000005947,completion,,,,,,,high,low,,,,,,true,,,,false,180146.40000000596,180145.40000000596,177836.142,177834,177852.708,180173.993,1,16,,
trial,html.Screen,4_11_0,2023-11-15T16:44:48.521Z,,,,0,-0.8644465729542988,0.8679598285079457,,true,hl,2577.106999994052,response,0.8087127179888679,0.9999999999999998,-0.9999999999999998,-0.8480635840272462,0.9999999999999998,-0.9999999999999998,high,low,,ISIC_6718969.JPG,,ISIC_3941147.JPG,24,true,hl,keypress(j),100,false,182751.5,182751.09999999404,180157.284,180146.80000001192,180173.993,182779.028,1,16,12,
sequence,flow.Sequence,4_11,2023-11-15T16:44:48.521Z,,,,,,,,,,2577.106999994052,completion,,,,,,,high,low,,,,,,true,,,,false,182752,182751.09999999404,180157.284,180146.69999998808,180173.993,182779.028,1,16,,
trial,html.Screen,4_12_0,2023-11-15T16:44:52.450Z,,,,0,-1.071052731807262,-0.8412787617064144,,true,hh,3900.8720000059693,response,1.018568530854085,0.9999999999999998,-0.9999999999999998,1.1850528225859975,0.9999999999999998,-0.9999999999999998,high,high,,ISIC_4269227.JPG,,ISIC_0057180.JPG,154,true,hh,keypress(i),100,false,186680.30000001192,186679.90000000596,182762.492,182752.30000001192,182779.028,186703.422,1,16,13,
sequence,flow.Sequence,4_12,2023-11-15T16:44:52.450Z,,,,,,,,,,3900.8720000059693,completion,,,,,,,high,high,,,,,,true,,,,false,186681,186679.90000000596,182762.492,182752.19999998808,182779.028,186703.422,1,16,,
trial,html.Screen,4_13_0,2023-11-15T16:44:55.997Z,,,,0,-0.8641919449610089,-1.0259812523869525,,true,hh,3524.0780000000086,response,0.9926801421396548,0.9999999999999998,-0.9999999999999998,0.8012636697645321,0.9999999999999998,-0.9999999999999998,high,high,,ISIC_7903838.JPG,,ISIC_0066483.JPG,154,true,hh,keypress(i),100,false,190227.80000001192,190227.5,186686.653,186681.19999998808,186703.422,190243.557,1,16,14,
sequence,flow.Sequence,4_13,2023-11-15T16:44:55.998Z,,,,,,,,,,3524.0780000000086,completion,,,,,,,high,high,,,,,,true,,,,false,190228.30000001192,190227.5,186686.653,186681.09999999404,186703.422,190243.557,1,16,,
trial,html.Screen,4_14_0,2023-11-15T16:44:58.117Z,,,,0,-1.1510001454240106,-1.132540312667795,,true,hh,2103.4429999999993,response,0.891534074006073,0.9999999999999998,-0.9999999999999998,0.9584950302233712,0.9999999999999998,-0.9999999999999998,high,high,,ISIC_0009959.JPG,,ISIC_0060559.JPG,154,true,hh,keypress(i),100,false,192347.40000000596,192347,190227.041,190228.59999999404,190243.557,192364.355,1,16,15,
sequence,flow.Sequence,4_14,2023-11-15T16:44:58.117Z,,,,,,,,,,2103.4429999999993,completion,,,,,,,high,high,,,,,,true,,,,false,192348.09999999404,192347,190227.041,190228.5,190243.557,192364.355,1,16,,
trial,html.Screen,4_15_0,2023-11-15T16:44:59.954Z,,,,0,-1.0581281450494728,-1.133169116569424,,true,hh,1819.9450000119105,response,0.9908688855899804,0.9999999999999998,-0.9999999999999998,1.1838250548520497,0.9999999999999998,-0.9999999999999998,high,high,,ISIC_5490352.JPG,,ISIC_0031208.JPG,154,true,hh,keypress(i),100,false,194184.59999999404,194184.30000001192,192347.725,192348.30000001192,192364.355,194218.075,1,16,16,
sequence,flow.Sequence,4_15,2023-11-15T16:44:59.955Z,,,,,,,,,,1819.9450000119105,completion,,,,,,,high,high,,,,,,true,,,,false,194185.19999998808,194184.30000001192,192347.725,192348.19999998808,192364.355,194218.075,1,16,,
demonstration_loop,flow.Loop,4,2023-11-15T16:44:59.955Z,,,,,,,,,,91945.36000001192,completion,,,,,,,,,,,,,,true,,,,false,194185.69999998808,194184.30000001192,102222.412,102225,102238.94,194218.075,1,16,,
practice_instructions,html.Screen,5,2023-11-15T16:45:02.762Z,,,,,,,,,,2774.024999994028,response,,,,,,,,,,,,,,,continue,click button,,,196992.69999998808,196992.09999999404,194184.614,194185.90000000596,194218.075,197023.631,,,,
trial,html.Screen,6_0_0,2023-11-15T16:45:10.706Z,,,,1,-0.8966918590347848,-1.078424090533439,,true,hh,7912.369000000006,response,0.8998317940997821,0.9999999999999998,-0.9999999999999998,1.1665943858643009,0.9999999999999998,-0.9999999999999998,high,high,,ISIC_0034193.JPG,,ISIC_0071388.JPG,154,true,hh,keypress(i),0,false,204936.09999999404,204936,197006.86,196992.80000001192,197023.631,204955.518,1,40,1,
sequence,flow.Sequence,6_0,2023-11-15T16:45:10.706Z,,,,,,,,,,7912.369000000006,completion,,,,,,,high,high,,,,,,true,,,,false,204936.30000001192,204936,197006.86,196992.80000001192,197023.631,204955.518,1,40,,
trial,html.Screen,6_1_0,2023-11-15T16:45:19.998Z,,,,1,1.0264463986917702,-1.171271535505083,,true,lh,9270.88200000595,response,-1.064425982109969,0.9999999999999998,-0.9999999999999998,0.958564243697126,0.9999999999999998,-0.9999999999999998,low,high,,ISIC_7889838.JPG,,ISIC_3203344.JPG,24,true,lh,keypress(e),0,false,214226.69999998808,214226.40000000596,204938.763,204936.30000001192,204955.518,214240.476,1,40,2,
sequence,flow.Sequence,6_1,2023-11-15T16:45:19.998Z,,,,,,,,,,9270.88200000595,completion,,,,,,,low,high,,,,,,true,,,,false,214227.19999998808,214226.40000000596,204938.763,204936.30000001192,204955.518,214240.476,1,40,,
trial,html.Screen,6_2_0,2023-11-15T16:45:23.877Z,,,,1,0.9670240379618178,-1.1806404773220665,,true,lh,3865.223999988084,response,-0.8150886811691144,0.9999999999999998,-0.9999999999999998,0.862416038462147,0.9999999999999998,-0.9999999999999998,low,high,,ISIC_0002288.JPG,,ISIC_0058079.JPG,24,true,lh,keypress(e),0,false,218106,218105.69999998808,214223.584,214227.5,214240.476,218114.485,1,40,3,
sequence,flow.Sequence,6_2,2023-11-15T16:45:23.878Z,,,,,,,,,,3865.223999988084,completion,,,,,,,low,high,,,,,,true,,,,false,218106.59999999404,218105.69999998808,214223.584,214227.40000000596,214240.476,218114.485,1,40,,
trial,html.Screen,6_3_0,2023-11-15T16:45:29.901Z,,,,1,-1.1224745971429997,0.8423270217438888,,true,hl,6015.315000011935,response,1.155796217969438,0.9999999999999998,-0.9999999999999998,-1.1646564121743912,0.9999999999999998,-0.9999999999999998,high,low,,ISIC_0057032.JPG,,ISIC_2685523.JPG,24,true,hl,keypress(j),0,false,224130.09999999404,224129.80000001192,218097.918,218106.80000001192,218114.485,224143.011,1,40,4,
sequence,flow.Sequence,6_3,2023-11-15T16:45:29.902Z,,,,,,,,,,6015.315000011935,completion,,,,,,,high,low,,,,,,true,,,,false,224130.69999998808,224129.80000001192,218097.918,218106.80000001192,218114.485,224143.011,1,40,,
trial,html.Screen,6_4_0,2023-11-15T16:45:39.941Z,,,,1,0.8087127179888679,-0.8480635840272462,,true,lh,10027.088999994041,response,-0.9013888878932071,0.9999999999999998,-0.9999999999999998,0.9328095253308732,0.9999999999999998,-0.9999999999999998,low,high,,ISIC_3941147.JPG,,ISIC_0068259.JPG,24,true,lh,keypress(e),0,false,234170.40000000596,234170.09999999404,224126.303,224130.90000000596,224143.011,234179.019,1,40,5,
sequence,flow.Sequence,6_4,2023-11-15T16:45:39.942Z,,,,,,,,,,10027.088999994041,completion,,,,,,,low,high,,,,,,true,,,,false,234171,234170.09999999404,224126.303,224130.80000001192,224143.011,234179.019,1,40,,
trial,html.Screen,6_5_0,2023-11-15T16:45:43.429Z,,,,1,1.0048859018073242,1.0825120442937108,,true,ll,3478.680999988079,response,-0.8053027919115658,0.9999999999999998,-0.9999999999999998,-0.9001595056108199,0.9999999999999998,-0.9999999999999998,low,low,,ISIC_0068080.JPG,,ISIC_2867416.JPG,111,true,ll,keypress(f),0,false,237658,237657.69999998808,234162.357,234171.19999998808,234179.019,237669.221,1,40,6,
sequence,flow.Sequence,6_5,2023-11-15T16:45:43.430Z,,,,,,,,,,3478.680999988079,completion,,,,,,,low,low,,,,,,true,,,,false,237658.5,237657.69999998808,234162.357,234171.09999999404,234179.019,237669.221,1,40,,
trial,html.Screen,6_6_0,2023-11-15T16:45:46.965Z,,,,1,1.1547137855907486,-1.0185275168641534,,true,lh,3524.878999994049,response,-1.0003671514840182,0.9999999999999998,-0.9999999999999998,0.8992716557663581,0.9999999999999998,-0.9999999999999998,low,high,,ISIC_7604870.JPG,,ISIC_0061749.JPG,24,true,lh,keypress(e),0,false,241194.40000000596,241194.09999999404,237652.686,237658.80000001192,237669.221,241209.475,1,40,7,
sequence,flow.Sequence,6_6,2023-11-15T16:45:46.966Z,,,,,,,,,,3524.878999994049,completion,,,,,,,low,high,,,,,,true,,,,false,241194.90000000596,241194.09999999404,237652.686,237658.69999998808,237669.221,241209.475,1,40,,
trial,html.Screen,6_7_0,2023-11-15T16:45:49.725Z,,,,1,-0.9949679201447648,-1.0468574143792184,,true,hh,2744.4250000059546,response,0.8145925452767395,0.9999999999999998,-0.9999999999999998,0.9895687497294692,0.9999999999999998,-0.9999999999999998,high,high,,ISIC_6640753.JPG,,ISIC_0027751.JPG,154,true,hh,keypress(i),0,false,243954.19999998808,243953.90000000596,241192.914,241195.19999998808,241209.475,243964.735,1,40,8,
sequence,flow.Sequence,6_7,2023-11-15T16:45:49.726Z,,,,,,,,,,2744.4250000059546,completion,,,,,,,high,high,,,,,,true,,,,false,243954.69999998808,243953.90000000596,241192.914,241195.09999999404,241209.475,243964.735,1,40,,
trial,html.Screen,6_8_0,2023-11-15T16:45:52.990Z,,,,1,1.033120591224746,0.9169816067930722,,true,ll,3253.3649999940535,response,-0.881950258866775,0.9999999999999998,-0.9999999999999998,-1.1045276933275867,0.9999999999999998,-0.9999999999999998,low,low,,ISIC_0033027.JPG,,ISIC_4718237.JPG,111,true,ll,keypress(f),0,false,247218.5,247218.09999999404,243948.221,243955,243964.735,247221.187,1,40,9,
sequence,flow.Sequence,6_8,2023-11-15T16:45:52.990Z,,,,,,,,,,3253.3649999940535,completion,,,,,,,low,low,,,,,,true,,,,false,247219,247218.09999999404,243948.221,243954.90000000596,243964.735,247221.187,1,40,,
trial,html.Screen,6_9_0,2023-11-15T16:45:56.261Z,,,,1,-0.8644465729542988,0.8679598285079457,,true,hl,3268.6130000119156,response,0.8015753713975186,0.9999999999999998,-0.9999999999999998,-1.0067065355978264,0.9999999999999998,-0.9999999999999998,high,low,,ISIC_6718969.JPG,,ISIC_0002119.JPG,24,true,hl,keypress(j),0,false,250490.19999998808,250489.80000001192,247204.517,247219.19999998808,247221.187,250494.189,1,40,10,
sequence,flow.Sequence,6_9,2023-11-15T16:45:56.262Z,,,,,,,,,,3268.6130000119156,completion,,,,,,,high,low,,,,,,true,,,,false,250490.69999998808,250489.80000001192,247204.517,247219.19999998808,247221.187,250494.189,1,40,,
trial,html.Screen,6_10_0,2023-11-15T16:45:59.805Z,,,,1,0.9225524349657857,-0.929746784178986,,true,lh,3539.611000011908,response,-0.849847885203758,0.9999999999999998,-0.9999999999999998,0.973447384095442,0.9999999999999998,-0.9999999999999998,low,high,,ISIC_0011077.JPG,,ISIC_9612228.JPG,24,true,lh,keypress(e),0,false,254034.09999999404,254033.80000001192,250477.522,250490.90000000596,250494.189,254051.115,1,40,11,
sequence,flow.Sequence,6_10,2023-11-15T16:45:59.806Z,,,,,,,,,,3539.611000011908,completion,,,,,,,low,high,,,,,,true,,,,false,254034.59999999404,254033.80000001192,250477.522,250490.80000001192,250494.189,254051.115,1,40,,
trial,html.Screen,6_11_0,2023-11-15T16:46:01.621Z,,,,1,1.0264463986917702,-1.171271535505083,,true,lh,1798.6850000119302,response,-0.9039158082670506,0.9999999999999998,-0.9999999999999998,1.0517562064343149,0.9999999999999998,-0.9999999999999998,low,high,,ISIC_7889838.JPG,,ISIC_0015411.JPG,24,true,lh,keypress(e),0,false,255850.09999999404,255849.80000001192,254034.343,254034.69999998808,254051.115,255854.612,1,40,12,
sequence,flow.Sequence,6_11,2023-11-15T16:46:01.622Z,,,,,,,,,,1798.6850000119302,completion,,,,,,,low,high,,,,,,true,,,,false,255850.5,255849.80000001192,254034.343,254034.69999998808,254051.115,255854.612,1,40,,
trial,html.Screen,6_12_0,2023-11-15T16:46:06.294Z,,,,1,-0.9658792885069516,-0.916173605730014,,true,hh,4667.688000011927,response,1.073353722471336,0.9999999999999998,-0.9999999999999998,0.9464043043104888,0.9999999999999998,-0.9999999999999998,high,high,,ISIC_8979275.JPG,,ISIC_0055293.JPG,154,true,hh,keypress(i),0,false,260522.59999999404,260522.30000001192,255837.937,255850.90000000596,255854.612,260530.311,1,40,13,
sequence,flow.Sequence,6_12,2023-11-15T16:46:06.294Z,,,,,,,,,,4667.688000011927,completion,,,,,,,high,high,,,,,,true,,,,false,260523.09999999404,260522.30000001192,255837.937,255850.80000001192,255854.612,260530.311,1,40,,
trial,html.Screen,6_13_0,2023-11-15T16:46:17.292Z,,,,1,0.8588347582642082,-0.8899503828496784,,,,11021.59500000003,timeout,-0.8644465729542988,0.9999999999999998,-0.9999999999999998,0.8679598285079457,0.9999999999999998,-0.9999999999999998,low,high,,ISIC_0174983.JPG,,ISIC_6718969.JPG,24,true,,,0,false,271519.59999999404,271519.3000000119,260513.741,260523.40000000596,260530.311,271551.906,1,40,14,
sequence,flow.Sequence,6_13,2023-11-15T16:46:17.293Z,,,,,,,,,,10988.989000011934,completion,,,,,,,low,high,,,,,,true,,,,false,271520.09999999404,271519.3000000119,260513.741,260523.30000001192,260530.311,271551.906,1,40,,
trial,html.Screen,6_14_0,2023-11-15T16:46:19.895Z,,,,1,-1.1224745971429997,0.8423270217438888,,true,hl,2570.4940000059432,response,0.8688859182707874,0.9999999999999998,-0.9999999999999998,-0.9566733172438716,0.9999999999999998,-0.9999999999999998,high,low,,ISIC_0057032.JPG,,ISIC_0640770.JPG,24,true,hl,keypress(j),0,false,274122.8000000119,274122.40000000596,271535.059,271520.40000000596,271551.906,274140.416,1,40,15,
sequence,flow.Sequence,6_14,2023-11-15T16:46:19.896Z,,,,,,,,,,2570.4940000059432,completion,,,,,,,high,low,,,,,,true,,,,false,274123.3000000119,274122.40000000596,271535.059,271520.3000000119,271551.906,274140.416,1,40,,
trial,html.Screen,6_15_0,2023-11-15T16:46:22.215Z,,,,1,-1.0372661581632368,-0.8527176805053108,,true,hh,2301.484000005934,response,1.0762260610050776,0.9999999999999998,-0.9999999999999998,1.1184338818466155,0.9999999999999998,-0.9999999999999998,high,high,,ISIC_6340792.JPG,,ISIC_0058666.JPG,154,true,hh,keypress(i),0,false,276442.3000000119,276441.90000000596,274123.628,274123.59999999404,274140.416,276444.715,1,40,16,
sequence,flow.Sequence,6_15,2023-11-15T16:46:22.215Z,,,,,,,,,,2301.484000005934,completion,,,,,,,high,high,,,,,,true,,,,false,276442.6999999881,276441.90000000596,274123.628,274123.5,274140.416,276444.715,1,40,,
trial,html.Screen,6_16_0,2023-11-15T16:46:25.327Z,,,,1,1.0088376543442317,-0.8023075994977575,,true,lh,3109.185000005935,response,-1.0143509683988825,0.9999999999999998,-0.9999999999999998,1.0281980567462463,0.9999999999999998,-0.9999999999999998,low,high,,ISIC_7619234.JPG,,ISIC_0062031.JPG,24,true,lh,keypress(e),0,false,279554.1999999881,279553.90000000596,276427.961,276443,276444.715,279567.445,1,40,17,
sequence,flow.Sequence,6_16,2023-11-15T16:46:25.327Z,,,,,,,,,,3109.185000005935,completion,,,,,,,low,high,,,,,,true,,,,false,279554.8000000119,279553.90000000596,276427.961,276442.90000000596,276444.715,279567.445,1,40,,
trial,html.Screen,6_17_0,2023-11-15T16:46:29.542Z,,,,1,-0.9512444996401545,-0.9046053086219094,,true,hh,4201.654999994033,response,0.9850572151440374,0.9999999999999998,-0.9999999999999998,1.028720908260899,0.9999999999999998,-0.9999999999999998,high,high,,ISIC_0059170.JPG,,ISIC_0068993.JPG,154,true,hh,keypress(i),0,false,283769.3000000119,283769.09999999404,279550.816,279554.90000000596,279567.445,283775.573,1,40,18,
sequence,flow.Sequence,6_17,2023-11-15T16:46:29.542Z,,,,,,,,,,4201.654999994033,completion,,,,,,,high,high,,,,,,true,,,,false,283769.5,283769.09999999404,279550.816,279554.90000000596,279567.445,283775.573,1,40,,
trial,html.Screen,6_18_0,2023-11-15T16:46:32.111Z,,,,1,-0.9857495243999304,-0.8122595198859229,,true,hh,2562.727000011946,response,1.056384093543893,0.9999999999999998,-0.9999999999999998,0.9175933839600456,0.9999999999999998,-0.9999999999999998,high,high,,ISIC_5178031.JPG,,ISIC_0064247.JPG,154,true,hh,keypress(i),0,false,286338.5,286338.3000000119,283758.974,283769.6999999881,283775.573,286347.318,1,40,19,
sequence,flow.Sequence,6_18,2023-11-15T16:46:32.112Z,,,,,,,,,,2562.727000011946,completion,,,,,,,high,high,,,,,,true,,,,false,286339,286338.3000000119,283758.974,283769.59999999404,283775.573,286347.318,1,40,,
trial,html.Screen,6_19_0,2023-11-15T16:46:36.463Z,,,,1,0.8628696237203484,0.9684635118197058,,true,ll,4342.582000005932,response,-1.0901635293704552,0.9999999999999998,-0.9999999999999998,-1.0348352814358883,0.9999999999999998,-0.9999999999999998,low,low,,ISIC_0015132.JPG,,ISIC_7583134.JPG,111,true,ll,keypress(f),0,false,290690.1999999881,290689.90000000596,286330.698,286339.3000000119,286347.318,290706.014,1,40,20,
sequence,flow.Sequence,6_19,2023-11-15T16:46:36.463Z,,,,,,,,,,4342.582000005932,completion,,,,,,,low,low,,,,,,true,,,,false,290690.6999999881,290689.90000000596,286330.698,286339.3000000119,286347.318,290706.014,1,40,,
trial,html.Screen,6_20_0,2023-11-15T16:46:37.927Z,,,,1,0.838053327796249,0.9376491160549733,,true,ll,1447.8860000059358,response,-1.1513073368404492,0.9999999999999998,-0.9999999999999998,-1.0485268550965705,0.9999999999999998,-0.9999999999999998,low,low,,ISIC_4834687.JPG,,ISIC_0030666.JPG,111,true,ll,keypress(f),0,false,292154.1999999881,292153.90000000596,290689.222,290690.90000000596,290706.014,292158.537,1,40,21,
sequence,flow.Sequence,6_20,2023-11-15T16:46:37.927Z,,,,,,,,,,1447.8860000059358,completion,,,,,,,low,low,,,,,,true,,,,false,292154.6999999881,292153.90000000596,290689.222,290690.90000000596,290706.014,292158.537,1,40,,
trial,html.Screen,6_21_0,2023-11-15T16:46:39.287Z,,,,1,-0.8923602890201078,0.8351700666074688,,true,hl,1355.3630000059493,response,1.0088376543442317,0.9999999999999998,-0.9999999999999998,-0.8023075994977575,0.9999999999999998,-0.9999999999999998,high,low,,ISIC_0033103.JPG,,ISIC_7619234.JPG,24,true,hl,keypress(j),0,false,293514.1999999881,293513.90000000596,292142.058,292155,292158.537,293528.112,1,40,22,
sequence,flow.Sequence,6_21,2023-11-15T16:46:39.287Z,,,,,,,,,,1355.3630000059493,completion,,,,,,,high,low,,,,,,true,,,,false,293514.8000000119,293513.90000000596,292142.058,292154.90000000596,292158.537,293528.112,1,40,,
trial,html.Screen,6_22_0,2023-11-15T16:46:40.799Z,,,,1,-1.1890109863264902,0.8867825318561365,,true,hl,1497.9879999940167,response,1.0700930503975157,0.9999999999999998,-0.9999999999999998,-0.923753102263735,0.9999999999999998,-0.9999999999999998,high,low,,ISIC_0072576.JPG,,ISIC_0000022.JPG,24,true,hl,keypress(j),0,false,295026.40000000596,295026.09999999404,293511.437,293515,293528.112,295030.794,1,40,23,
sequence,flow.Sequence,6_22,2023-11-15T16:46:40.800Z,,,,,,,,,,1497.9879999940167,completion,,,,,,,high,low,,,,,,true,,,,false,295026.90000000596,295026.09999999404,293511.437,293514.90000000596,293528.112,295030.794,1,40,,
trial,html.Screen,6_23_0,2023-11-15T16:46:44.790Z,,,,1,-0.8150954316817084,-0.9747349048723576,,true,hh,3986.305999994045,response,0.8543323078107433,0.9999999999999998,-0.9999999999999998,0.9163054072963652,0.9999999999999998,-0.9999999999999998,high,high,,ISIC_0026552.JPG,,ISIC_0012070.JPG,154,true,hh,keypress(i),0,false,299017.3000000119,299017.09999999404,295014.227,295027.09999999404,295030.794,299021.942,1,40,24,
sequence,flow.Sequence,6_23,2023-11-15T16:46:44.790Z,,,,,,,,,,3986.305999994045,completion,,,,,,,high,high,,,,,,true,,,,false,299017.5,299017.09999999404,295014.227,295027.09999999404,295030.794,299021.942,1,40,,
trial,html.Screen,6_24_0,2023-11-15T16:46:46.375Z,,,,1,-1.1642596483638106,-1.091507924157762,,true,hh,1579.9580000059796,response,0.8542403401067127,0.9999999999999998,-0.9999999999999998,0.8471646801526567,0.9999999999999998,-0.9999999999999998,high,high,,ISIC_0765584.JPG,,ISIC_0010140.JPG,154,true,hh,keypress(i),0,false,300602.1999999881,300601.90000000596,299005.243,299017.59999999404,299021.942,300608.344,1,40,25,
sequence,flow.Sequence,6_24,2023-11-15T16:46:46.376Z,,,,,,,,,,1579.9580000059796,completion,,,,,,,high,high,,,,,,true,,,,false,300602.8000000119,300601.90000000596,299005.243,299017.59999999404,299021.942,300608.344,1,40,,
trial,html.Screen,6_25_0,2023-11-15T16:46:48.887Z,,,,1,1.0667480038665316,0.9195011628288464,,true,ll,2505.5560000059777,response,-0.9696118525781644,0.9999999999999998,-0.9999999999999998,-0.9712966348713286,0.9999999999999998,-0.9999999999999998,low,low,,ISIC_0062517.JPG,,ISIC_7927525.JPG,111,true,ll,keypress(f),0,false,303114.1999999881,303113.90000000596,300591.812,300603.1999999881,300608.344,303130.165,1,40,26,
sequence,flow.Sequence,6_25,2023-11-15T16:46:48.887Z,,,,,,,,,,2505.5560000059777,completion,,,,,,,low,low,,,,,,true,,,,false,303114.8000000119,303113.90000000596,300591.812,300603.09999999404,300608.344,303130.165,1,40,,
trial,html.Screen,6_26_0,2023-11-15T16:46:52.591Z,,,,1,-0.8653812021405652,-0.8152936881018393,,true,hh,3687.635000011942,response,0.8800173162815772,0.9999999999999998,-0.9999999999999998,0.912069987718464,0.9999999999999998,-0.9999999999999998,high,high,,ISIC_4631711.JPG,,ISIC_0030852.JPG,154,true,hh,keypress(i),0,false,306818.1999999881,306817.8000000119,303113.433,303115.1999999881,303130.165,306838.474,1,40,27,
sequence,flow.Sequence,6_26,2023-11-15T16:46:52.591Z,,,,,,,,,,3687.635000011942,completion,,,,,,,high,high,,,,,,true,,,,false,306818.6999999881,306817.8000000119,303113.433,303115.09999999404,303130.165,306838.474,1,40,,
trial,html.Screen,6_27_0,2023-11-15T16:46:54.935Z,,,,1,1.0244185150873102,0.896678664083835,,true,ll,2323.926000005973,response,-0.881950258866775,0.9999999999999998,-0.9999999999999998,-1.1045276933275867,0.9999999999999998,-0.9999999999999998,low,low,,ISIC_1530981.JPG,,ISIC_4718237.JPG,111,true,ll,keypress(f),0,false,309162.59999999404,309162.40000000596,306803.956,306818.90000000596,306838.474,309175.272,1,40,28,
sequence,flow.Sequence,6_27,2023-11-15T16:46:54.936Z,,,,,,,,,,2323.926000005973,completion,,,,,,,low,low,,,,,,true,,,,false,309163.09999999404,309162.40000000596,306803.956,306818.90000000596,306838.474,309175.272,1,40,,
trial,html.Screen,6_28_0,2023-11-15T16:46:56.927Z,,,,1,-1.1224745971429997,0.8423270217438888,,true,hl,1978.4279999880819,response,0.8087127179888679,0.9999999999999998,-0.9999999999999998,-0.8480635840272462,0.9999999999999998,-0.9999999999999998,high,low,,ISIC_0057032.JPG,,ISIC_3941147.JPG,24,true,hl,keypress(j),0,false,311154.09999999404,311153.6999999881,309158.561,309163.3000000119,309175.272,311162.216,1,40,29,
sequence,flow.Sequence,6_28,2023-11-15T16:46:56.927Z,,,,,,,,,,1978.4279999880819,completion,,,,,,,high,low,,,,,,true,,,,false,311154.59999999404,311153.6999999881,309158.561,309163.3000000119,309175.272,311162.216,1,40,,
trial,html.Screen,6_29_0,2023-11-15T16:46:58.894Z,,,,1,-0.8591294258188253,0.870797302150167,,true,hl,1958.783999999985,response,0.8688859182707874,0.9999999999999998,-0.9999999999999998,-0.9566733172438716,0.9999999999999998,-0.9999999999999998,high,low,,ISIC_0055841.JPG,,ISIC_0640770.JPG,24,true,hl,keypress(j),0,false,313121.1999999881,313121,311145.663,311154.8000000119,311162.216,313132.991,1,40,30,
sequence,flow.Sequence,6_29,2023-11-15T16:46:58.894Z,,,,,,,,,,1958.783999999985,completion,,,,,,,high,low,,,,,,true,,,,false,313121.3000000119,313121,311145.663,311154.6999999881,311162.216,313132.991,1,40,,
trial,html.Screen,6_30_0,2023-11-15T16:47:00.255Z,,,,1,-0.8069690440362255,0.8262727717500657,,true,hl,1348.9090000059805,response,1.0700930503975157,0.9999999999999998,-0.9999999999999998,-0.923753102263735,0.9999999999999998,-0.9999999999999998,high,low,,ISIC_0028469.JPG,,ISIC_0000022.JPG,24,true,hl,keypress(j),0,false,314482.40000000596,314481.90000000596,313116.194,313121.40000000596,313132.991,314485.402,1,40,31,
sequence,flow.Sequence,6_30,2023-11-15T16:47:00.256Z,,,,,,,,,,1348.9090000059805,completion,,,,,,,high,low,,,,,,true,,,,false,314482.90000000596,314481.90000000596,313116.194,313121.40000000596,313132.991,314485.402,1,40,,
trial,html.Screen,6_31_0,2023-11-15T16:47:01.679Z,,,,1,0.9046170303418553,-1.0063426986460375,,true,lh,1420.4980000059586,response,-0.8069562753553525,0.9999999999999998,-0.9999999999999998,0.9101764190105358,0.9999999999999998,-0.9999999999999998,low,high,,ISIC_0055759.JPG,,ISIC_0046596.JPG,24,true,lh,keypress(e),0,false,315906.1999999881,315905.90000000596,314468.677,314483.09999999404,314485.402,315921.718,1,40,32,
sequence,flow.Sequence,6_31,2023-11-15T16:47:01.679Z,,,,,,,,,,1420.4980000059586,completion,,,,,,,low,high,,,,,,true,,,,false,315906.6999999881,315905.90000000596,314468.677,314483,314485.402,315921.718,1,40,,
trial,html.Screen,6_32_0,2023-11-15T16:47:03.447Z,,,,1,0.968832577506943,1.068698723750748,,true,ll,1752.381999994046,response,-0.8856899178393457,0.9999999999999998,-0.9999999999999998,-0.8022149865267544,0.9999999999999998,-0.9999999999999998,low,low,,ISIC_0010962.JPG,,ISIC_1233104.JPG,111,true,ll,keypress(f),0,false,317674.40000000596,317674.09999999404,315904.996,315907,315921.718,317691.839,1,40,33,
sequence,flow.Sequence,6_32,2023-11-15T16:47:03.448Z,,,,,,,,,,1752.381999994046,completion,,,,,,,low,low,,,,,,true,,,,false,317674.90000000596,317674.09999999404,315904.996,315906.90000000596,315921.718,317691.839,1,40,,
trial,html.Screen,6_33_0,2023-11-15T16:47:05.503Z,,,,1,1.0048859018073242,1.0825120442937108,,true,ll,2038.0610000059824,response,-0.926039388599084,0.9999999999999998,-0.9999999999999998,-0.8602997106237449,0.9999999999999998,-0.9999999999999998,low,low,,ISIC_0068080.JPG,,ISIC_5563553.JPG,111,true,ll,keypress(f),0,false,319730.1999999881,319729.90000000596,317675.056,317675.09999999404,317691.839,319745.745,1,40,34,
sequence,flow.Sequence,6_33,2023-11-15T16:47:05.503Z,,,,,,,,,,2038.0610000059824,completion,,,,,,,low,low,,,,,,true,,,,false,319730.59999999404,319729.90000000596,317675.056,317675.09999999404,317691.839,319745.745,1,40,,
trial,html.Screen,6_34_0,2023-11-15T16:47:07.967Z,,,,1,-0.8329154010765664,-1.086658647698992,,true,hh,2448.354999994044,response,0.8627799752848101,0.9999999999999998,-0.9999999999999998,0.9479141048747124,0.9999999999999998,-0.9999999999999998,high,high,,ISIC_7407847.JPG,,ISIC_9615486.JPG,154,true,hh,keypress(i),0,false,322194.5,322194.09999999404,319729.022,319730.8000000119,319745.745,322200.345,1,40,35,
sequence,flow.Sequence,6_34,2023-11-15T16:47:07.968Z,,,,,,,,,,2448.354999994044,completion,,,,,,,high,high,,,,,,true,,,,false,322195.09999999404,322194.09999999404,319729.022,319730.8000000119,319745.745,322200.345,1,40,,
trial,html.Screen,6_35_0,2023-11-15T16:47:09.863Z,,,,1,0.9588812385345452,0.9060043635318688,,true,ll,1889.4550000119489,response,-0.8049748534131217,0.9999999999999998,-0.9999999999999998,-0.8804089534894812,0.9999999999999998,-0.9999999999999998,low,low,,ISIC_0069986.JPG,,ISIC_2839431.JPG,111,true,ll,keypress(f),0,false,324090.09999999404,324089.8000000119,322183.888,322195.3000000119,322200.345,324104.145,1,40,36,
sequence,flow.Sequence,6_35,2023-11-15T16:47:09.863Z,,,,,,,,,,1889.4550000119489,completion,,,,,,,low,low,,,,,,true,,,,false,324090.6999999881,324089.8000000119,322183.888,322195.3000000119,322200.345,324104.145,1,40,,
trial,html.Screen,6_36_0,2023-11-15T16:47:11.311Z,,,,1,-1.1224745971429997,0.8423270217438888,,true,hl,1433.5549999880604,response,0.8015753713975186,0.9999999999999998,-0.9999999999999998,-1.0067065355978264,0.9999999999999998,-0.9999999999999998,high,low,,ISIC_0057032.JPG,,ISIC_0002119.JPG,24,true,hl,keypress(j),0,false,325537.90000000596,325537.6999999881,324087.44,324090.90000000596,324104.145,325540.286,1,40,37,
sequence,flow.Sequence,6_36,2023-11-15T16:47:11.311Z,,,,,,,,,,1433.5549999880604,completion,,,,,,,high,low,,,,,,true,,,,false,325538.40000000596,325537.6999999881,324087.44,324090.8000000119,324104.145,325540.286,1,40,,
trial,html.Screen,6_37_0,2023-11-15T16:47:13.007Z,,,,1,0.8588347582642082,-0.8899503828496784,,true,lh,1693.4139999880572,response,-0.8129823105338526,0.9999999999999998,-0.9999999999999998,0.9655386457143784,0.9999999999999998,-0.9999999999999998,low,high,,ISIC_0174983.JPG,,ISIC_8268025.JPG,24,true,lh,keypress(e),0,false,327234.09999999404,327233.6999999881,325523.66,325538.59999999404,325540.286,327243.505,1,40,38,
sequence,flow.Sequence,6_37,2023-11-15T16:47:13.007Z,,,,,,,,,,1693.4139999880572,completion,,,,,,,low,high,,,,,,true,,,,false,327234.5,327233.6999999881,325523.66,325538.5,325540.286,327243.505,1,40,,
trial,html.Screen,6_38_0,2023-11-15T16:47:14.255Z,,,,1,-0.9039158082670506,1.0517562064343149,,true,hl,1238.3950000059558,response,0.9212323139676136,0.9999999999999998,-0.9999999999999998,-0.9882196642247332,0.9999999999999998,-0.9999999999999998,high,low,,ISIC_0015411.JPG,,ISIC_0014255.JPG,24,true,hl,keypress(j),0,false,328482.3000000119,328481.90000000596,327227.042,327234.8000000119,327243.505,328496.117,1,40,39,
sequence,flow.Sequence,6_38,2023-11-15T16:47:14.255Z,,,,,,,,,,1238.3950000059558,completion,,,,,,,high,low,,,,,,true,,,,false,328482.6999999881,328481.90000000596,327227.042,327234.8000000119,327243.505,328496.117,1,40,,
trial,html.Screen,6_39_0,2023-11-15T16:47:17.687Z,,,,1,1.0007734170042946,0.9394007494897862,,true,ll,3416.6830000118935,response,-1.1344866365171962,0.9999999999999998,-0.9999999999999998,-0.926850270881616,0.9999999999999998,-0.9999999999999998,low,low,,ISIC_0053791.JPG,,ISIC_7747998.JPG,111,true,ll,keypress(f),0,false,331912.90000000596,331912.8000000119,328479.501,328483,328496.117,331919.249,1,40,40,
sequence,flow.Sequence,6_39,2023-11-15T16:47:17.687Z,,,,,,,,,,3416.6830000118935,completion,,,,,,,low,low,,,,,,true,,,,false,331913.09999999404,331912.8000000119,328479.501,328482.90000000596,328496.117,331919.249,1,40,,
practice_loop,flow.Loop,6,2023-11-15T16:47:17.687Z,,,,,,,,,,134889.16900001193,completion,,,,,,,,,,,,,,true,,,,false,331913.09999999404,331912.8000000119,197006.86,196992.80000001192,197023.631,331919.249,1,40,,
stair_instructions,html.Screen,7,2023-11-15T16:47:20.615Z,,,,,,,,,,2921.1510000059498,response,,,,,,,,,,,,,,,continue,click button,,,334840.90000000596,334840.40000000596,331902.742,331913.1999999881,331919.249,334858.563,,,,
trial,html.Screen,8_0_0,2023-11-15T16:47:30.815Z,,,,2,0.0060918352854008,-0.029032683404407,,true,lh,10182.337000005937,response,-0.8129823105338526,0.9999999999999998,-0.9999999999999998,0.9655386457143784,0.9999999999999998,-0.9999999999999998,low,high,,ISIC_8436194.JPG,,ISIC_8268025.JPG,24,false,lh,keypress(e),0,true,345040.90000000596,345040.90000000596,334841.664,334841,334858.563,345061.566,1,40,1,
sequence,flow.Sequence,8_0,2023-11-15T16:47:30.815Z,,,,,,,,,,10182.337000005937,completion,,,,,,,low,high,,,,,,false,,,,true,345041.09999999404,345040.90000000596,334841.664,334841,334858.563,345061.566,1,40,,
trial,html.Screen,8_1_0,2023-11-15T16:47:36.030Z,,,,2,0.0450282431170921,0.0102871556606504,,false,lh,5193.533999994048,response,-0.8069562753553525,0.9999999999999998,-0.9999999999999998,0.9101764190105358,0.9999999999999998,-0.9999999999999998,low,high,,ISIC_1805163.JPG,,ISIC_0046596.JPG,24,false,hh,keypress(i),0,true,350255.3000000119,350255.09999999404,345044.823,345041.09999999404,345061.566,350271.851,1,40,2,
sequence,flow.Sequence,8_1,2023-11-15T16:47:36.030Z,,,,,,,,,,5193.533999994048,completion,,,,,,,low,high,,,,,,false,,,,true,350255.40000000596,350255.09999999404,345044.823,345041.09999999404,345061.566,350271.851,1,40,,
trial,html.Screen,8_2_0,2023-11-15T16:47:44.344Z,,,,2,-0.0001106800768269,0.0404747734408496,,false,ll,8297.248999994015,response,-1.1198725483375875,0.9999999999999998,-1.0499999999999998,-0.8325245457585946,0.8878575323624571,-0.9999999999999998,low,low,,ISIC_5706192.JPG,,ISIC_6967143.JPG,96,false,lh,keypress(e),0,true,358569.3000000119,358569.09999999404,350255.153,350255.40000000596,350271.851,358571.156,1,40,3,
sequence,flow.Sequence,8_2,2023-11-15T16:47:44.344Z,,,,,,,,,,8297.248999994015,completion,,,,,,,low,low,,,,,,false,,,,true,358569.40000000596,358569.09999999404,350255.153,350255.40000000596,350271.851,358571.156,1,40,,
trial,html.Screen,8_3_0,2023-11-15T16:47:50.081Z,,,,2,0.0399381815506136,0.0177751789152893,,false,hl,5735.043999988062,response,0.9212323139676136,0.9999999999999998,-1.0499999999999998,-0.9882196642247332,0.8878575323624571,-1.0499999999999998,high,low,,ISIC_3981425.JPG,,ISIC_0014255.JPG,22,false,hh,keypress(i),0,true,364306.5,364306.1999999881,358554.504,358569.5,358571.156,364315.746,1,40,4,
sequence,flow.Sequence,8_3,2023-11-15T16:47:50.081Z,,,,,,,,,,5735.043999988062,completion,,,,,,,high,low,,,,,,false,,,,true,364307,364306.1999999881,358554.504,358569.40000000596,358571.156,364315.746,1,40,,
trial,html.Screen,8_4_0,2023-11-15T16:48:01.079Z,,,,2,-0.0365981355399771,-0.0162670920008846,,,,11021.546000000031,timeout,-0.9087169856594104,0.9999999999999998,-1.0499999999999998,0.8835647084207277,0.8878575323624571,-1.0999999999999999,low,high,,ISIC_0982855.JPG,,ISIC_0000349.JPG,30,false,,,0,true,375305,375304.59999999404,364299.158,364307.1999999881,364315.746,375337.292,1,40,5,
sequence,flow.Sequence,8_4,2023-11-15T16:48:01.080Z,,,,,,,,,,10988.853999994055,completion,,,,,,,low,high,,,,,,false,,,,true,375305.40000000596,375304.59999999404,364299.158,364307.09999999404,364315.746,375337.292,1,40,,
trial,html.Screen,8_5_0,2023-11-15T16:48:04.511Z,,,,2,0.0572318562475973,0.0328299593216012,,false,hh,3399.6080000059446,response,1.054362976033239,0.9999999999999998,-1.0499999999999998,0.7435298318911706,0.8878575323624571,-1.0999999999999999,high,high,,ISIC_0397464.JPG,,ISIC_0056192.JPG,167,false,hl,keypress(j),0,true,378737.09999999404,378736.90000000596,375320.692,375305.6999999881,375337.292,378743.832,1,40,6,
sequence,flow.Sequence,8_5,2023-11-15T16:48:04.512Z,,,,,,,,,,3399.6080000059446,completion,,,,,,,high,high,,,,,,false,,,,true,378737.3000000119,378736.90000000596,375320.692,375305.59999999404,375337.292,378743.832,1,40,,
trial,html.Screen,8_6_0,2023-11-15T16:48:10.369Z,,,,2,-0.0365981355399771,-0.0162670920008846,,false,hl,5850.367999988084,response,0.9448560599810628,0.9377976450004262,-1.0499999999999998,-0.9099421612683488,0.9378575323624572,-1.0999999999999999,high,low,,ISIC_0982855.JPG,,ISIC_9684318.JPG,29,false,lh,keypress(e),0,true,384594.5,384594.1999999881,378727.041,378737.40000000596,378743.832,384605.231,1,40,7,
sequence,flow.Sequence,8_6,2023-11-15T16:48:10.369Z,,,,,,,,,,5850.367999988084,completion,,,,,,,high,low,,,,,,false,,,,true,384595,384594.1999999881,378727.041,378737.40000000596,378743.832,384605.231,1,40,,
trial,html.Screen,8_7_0,2023-11-15T16:48:17.595Z,,,,2,0.0350697500805515,0.0166617848231997,,true,lh,7213.069000011892,response,-1.1343164084491792,0.9877976450004262,-1.0499999999999998,0.7599392888539781,0.9378575323624572,-1.15,low,high,,ISIC_0024423.JPG,,ISIC_0032265.JPG,23,false,lh,keypress(e),0,true,391818.6999999881,391818.3000000119,384588.664,384595.3000000119,384605.231,391836.017,1,40,8,
sequence,flow.Sequence,8_7,2023-11-15T16:48:17.595Z,,,,,,,,,,7213.069000011892,completion,,,,,,,low,high,,,,,,false,,,,true,391819.1999999881,391818.3000000119,384588.664,384595.1999999881,384605.231,391836.017,1,40,,
trial,html.Screen,8_8_0,2023-11-15T16:48:23.170Z,,,,2,0.0060934073440827,0.0279108145883031,,true,hl,5558.1829999880865,response,0.9566823908868002,0.9377976450004262,-0.9499999999999997,-0.9602125665128364,0.8878575323624571,-1.0999999999999999,high,low,,ISIC_0032604.JPG,,ISIC_0056784.JPG,29,false,hl,keypress(j),0,true,397394.5,397394.1999999881,391819.207,391819.40000000596,391836.017,397413.872,1,40,9,
sequence,flow.Sequence,8_8,2023-11-15T16:48:23.171Z,,,,,,,,,,5558.1829999880865,completion,,,,,,,high,low,,,,,,false,,,,true,397395,397394.1999999881,391819.207,391819.40000000596,391836.017,397413.872,1,40,,
trial,html.Screen,8_9_0,2023-11-15T16:48:27.257Z,,,,2,0.0362472736315994,0.0492979048777824,,false,ll,4067.327999988105,response,-1.0066944863194518,0.9377976450004262,-0.9499999999999997,-1.2755557894401093,0.8878575323624571,-1.0999999999999999,low,low,,ISIC_5312584.JPG,,ISIC_3885041.JPG,97,false,lh,keypress(e),0,true,401481.40000000596,401481.1999999881,397379.985,397395.3000000119,397413.872,401488.047,1,40,10,
sequence,flow.Sequence,8_9,2023-11-15T16:48:27.258Z,,,,,,,,,,4067.327999988105,completion,,,,,,,low,low,,,,,,false,,,,true,401481.59999999404,401481.1999999881,397379.985,397395.1999999881,397413.872,401488.047,1,40,,
trial,html.Screen,8_10_0,2023-11-15T16:48:33.547Z,,,,2,0.0668201703083464,-0.0222223530621927,,true,hh,6282.552999994019,response,1.0667480038665316,0.9377976450004262,-0.9499999999999997,0.9195011628288464,0.8878575323624571,-1.15,high,high,,ISIC_8321148.JPG,,ISIC_0062517.JPG,183,false,hh,keypress(i),0,true,407770.90000000596,407770.59999999404,401471.5,401481.6999999881,401488.047,407783.636,1,40,11,
sequence,flow.Sequence,8_10,2023-11-15T16:48:33.547Z,,,,,,,,,,6282.552999994019,completion,,,,,,,high,high,,,,,,false,,,,true,407771.40000000596,407770.59999999404,401471.5,401481.6999999881,401488.047,407783.636,1,40,,
trial,html.Screen,8_11_0,2023-11-15T16:48:37.778Z,,,,2,0.0399381815506136,0.0177751789152893,,true,lh,4218.463999994041,response,-0.9013888878932071,0.8877976450004261,-0.9499999999999997,0.9328095253308732,0.8378575323624571,-1.15,low,high,,ISIC_3981425.JPG,,ISIC_0068259.JPG,47,false,lh,keypress(e),0,true,412002.40000000596,412002.09999999404,407767.093,407771.6999999881,407783.636,412008.566,1,40,12,
sequence,flow.Sequence,8_11,2023-11-15T16:48:37.779Z,,,,,,,,,,4218.463999994041,completion,,,,,,,low,high,,,,,,false,,,,true,412002.8000000119,412002.09999999404,407767.093,407771.59999999404,407783.636,412008.566,1,40,,
trial,html.Screen,8_12_0,2023-11-15T16:48:42.714Z,,,,2,-0.0187970165493076,-0.0417726918052949,,true,lh,4929.334000005969,response,-0.7785184841253222,0.8877976450004261,-0.8999999999999997,0.8564302235174217,0.8378575323624571,-1.15,low,high,,ISIC_9312164.JPG,,ISIC_6529073.JPG,52,false,lh,keypress(e),0,true,416938.1999999881,416937.90000000596,411991.896,412003,412008.566,416951.701,1,40,13,
sequence,flow.Sequence,8_12,2023-11-15T16:48:42.715Z,,,,,,,,,,4929.334000005969,completion,,,,,,,low,high,,,,,,false,,,,true,416938.6999999881,416937.90000000596,411991.896,412002.90000000596,412008.566,416951.701,1,40,,
trial,html.Screen,8_13_0,2023-11-15T16:48:50.314Z,,,,2,-0.0296179945324451,-0.074433472160252,,false,hl,7586.498999988078,response,0.7753299102004093,0.8877976450004261,-0.8999999999999997,-1.053851019509641,0.787857532362457,-1.15,high,low,,ISIC_0026982.JPG,,ISIC_9511832.JPG,29,false,ll,keypress(f),0,true,424538.59999999404,424538.1999999881,416934.815,416939,416951.701,424549.587,1,40,14,
sequence,flow.Sequence,8_13,2023-11-15T16:48:50.315Z,,,,,,,,,,7586.498999988078,completion,,,,,,,high,low,,,,,,false,,,,true,424539,424538.1999999881,416934.815,416938.90000000596,416951.701,424549.587,1,40,,
trial,html.Screen,8_14_0,2023-11-15T16:48:55.826Z,,,,2,0.012020985739544,-0.0126097407389903,,true,ll,5499.9130000000005,response,-0.8060929764555678,0.9377976450004262,-0.8999999999999997,-1.3410234912698384,0.787857532362457,-1.15,low,low,,ISIC_0069379.JPG,,ISIC_0004486.JPG,100,false,ll,keypress(f),0,true,430049.6999999881,430049.5,424533.047,424539.3000000119,424549.587,430060.378,1,40,15,
sequence,flow.Sequence,8_14,2023-11-15T16:48:55.826Z,,,,,,,,,,5499.9130000000005,completion,,,,,,,low,low,,,,,,false,,,,true,430050.09999999404,430049.5,424533.047,424539.1999999881,424549.587,430060.378,1,40,,
trial,html.Screen,8_15_0,2023-11-15T16:49:00.881Z,,,,2,-0.0245246789155119,0.0615355901813596,,true,lh,5044.7219999940135,response,-1.1162273456306029,0.9377976450004262,-1.1474372553897398,0.7890271955816722,0.787857532362457,-1.1474372553897398,low,high,,ISIC_0034144.JPG,,ISIC_0011564.JPG,30,false,lh,keypress(e),0,true,435105.1999999881,435105.09999999404,430043.692,430050.3000000119,430060.378,435120.424,1,40,16,
sequence,flow.Sequence,8_15,2023-11-15T16:49:00.881Z,,,,,,,,,,5044.7219999940135,completion,,,,,,,low,high,,,,,,false,,,,true,435105.3000000119,435105.09999999404,430043.692,430050.3000000119,430060.378,435120.424,1,40,,
trial,html.Screen,8_16_0,2023-11-15T16:49:06.827Z,,,,2,0.0496743860812164,0.0010487105450318,,false,hl,5929.77599998808,response,0.8015753713975186,0.9377976450004262,-1.1474372553897398,-1.0067065355978264,0.787857532362457,-1.1474372553897398,high,low,,ISIC_9312264.JPG,,ISIC_0002119.JPG,26,false,ll,keypress(f),0,true,441050.59999999404,441050.1999999881,435103.582,435105.40000000596,435120.424,441065.097,1,40,17,
sequence,flow.Sequence,8_16,2023-11-15T16:49:06.827Z,,,,,,,,,,5929.77599998808,completion,,,,,,,high,low,,,,,,false,,,,true,441051.1999999881,441050.1999999881,435103.582,435105.40000000596,435120.424,441065.097,1,40,,
trial,html.Screen,8_17_0,2023-11-15T16:49:14.643Z,,,,2,-0.0361875505619981,0.0291457404567876,,false,lh,7801.303000005952,response,-1.2535425501300106,0.9877976450004262,-1.1474372553897398,0.5996329848621568,0.787857532362457,-1.1474372553897398,low,high,,ISIC_0027480.JPG,,ISIC_9720518.JPG,30,false,hl,keypress(j),0,true,448866.6999999881,448866.40000000596,441048.541,441051.40000000596,441065.097,448880.446,1,40,18,
sequence,flow.Sequence,8_17,2023-11-15T16:49:14.643Z,,,,,,,,,,7801.303000005952,completion,,,,,,,low,high,,,,,,false,,,,true,448867.1999999881,448866.40000000596,441048.541,441051.3000000119,441065.097,448880.446,1,40,,
trial,html.Screen,8_18_0,2023-11-15T16:49:20.060Z,,,,2,-0.0051046740562181,0.0178832721027728,,true,ll,5401.354000011925,response,-1.1510001454240106,0.9877976450004262,-1.1974372553897399,-1.132540312667795,0.8378575323624571,-1.1474372553897398,low,low,,ISIC_9545819.JPG,,ISIC_0009959.JPG,57,false,ll,keypress(f),0,true,454282.1999999881,454281.8000000119,448863.726,448867.40000000596,448880.446,454290.87,1,40,19,
sequence,flow.Sequence,8_18,2023-11-15T16:49:20.060Z,,,,,,,,,,5401.354000011925,completion,,,,,,,low,low,,,,,,false,,,,true,454282.8000000119,454281.8000000119,448863.726,448867.3000000119,448880.446,454290.87,1,40,,
trial,html.Screen,8_19_0,2023-11-15T16:49:23.834Z,,,,2,-0.0683185670328473,-0.0092332028949561,,true,hh,3765.8299999880837,response,1.0884048535189497,0.9877976450004262,-1.1974372553897399,0.8993771458752091,0.8378575323624571,-1.0917702290459028,high,high,,ISIC_3652847.JPG,,ISIC_4564960.JPG,188,false,hh,keypress(i),0,true,458056.90000000596,458056.6999999881,454274.29,454283,454290.87,458064.838,1,40,20,
sequence,flow.Sequence,8_19,2023-11-15T16:49:23.834Z,,,,,,,,,,3765.8299999880837,completion,,,,,,,high,high,,,,,,false,,,,true,458056.90000000596,458056.6999999881,454274.29,454282.90000000596,454290.87,458064.838,1,40,,
trial,html.Screen,8_20_0,2023-11-15T16:49:27.419Z,,,,2,-0.0029978997915594,0.0736178673732526,,true,hh,3576.2619999940507,response,0.9735583105865782,0.9877976450004262,-1.1974372553897399,0.8683758859171238,0.8378575323624571,-1.0917702290459028,high,high,,ISIC_9745038.JPG,,ISIC_0065204.JPG,188,false,hh,keypress(i),0,true,461641.1999999881,461641.09999999404,458048.239,458057,458064.838,461655.424,1,40,21,
sequence,flow.Sequence,8_20,2023-11-15T16:49:27.419Z,,,,,,,,,,3576.2619999940507,completion,,,,,,,high,high,,,,,,false,,,,true,461641.40000000596,461641.09999999404,458048.239,458057,458064.838,461655.424,1,40,,
trial,html.Screen,8_21_0,2023-11-15T16:49:34.132Z,,,,2,-0.0500182837729639,0.0231316228640781,,false,hl,6698.576000000001,response,0.6629163102028129,0.8338765158961664,-1.1974372553897399,-1.000470054909676,0.8338765158961664,-1.0917702290459028,high,low,,ISIC_2246150.JPG,,ISIC_9562157.JPG,43,false,ll,keypress(f),0,true,468354.40000000596,468354,461638.6,461641.40000000596,461655.424,468368.201,1,40,22,
sequence,flow.Sequence,8_21,2023-11-15T16:49:34.132Z,,,,,,,,,,6698.576000000001,completion,,,,,,,high,low,,,,,,false,,,,true,468354.8000000119,468354,461638.6,461641.40000000596,461655.424,468368.201,1,40,,
trial,html.Screen,8_22_0,2023-11-15T16:49:39.507Z,,,,2,0.0077673378094614,0.0021810768579373,,false,hl,5360.798999999999,response,0.6960100190659906,0.8838765158961664,-1.1974372553897399,-1.12267859423828,0.8338765158961664,-1.0917702290459028,high,low,,ISIC_0067621.JPG,,ISIC_0062702.JPG,34,false,lh,keypress(e),0,true,473729.1999999881,473729,468351.702,468355,468368.201,473745.611,1,40,23,
sequence,flow.Sequence,8_22,2023-11-15T16:49:39.507Z,,,,,,,,,,5360.798999999999,completion,,,,,,,high,low,,,,,,false,,,,true,473729.3000000119,473729,468351.702,468355,468368.201,473745.611,1,40,,
trial,html.Screen,8_23_0,2023-11-15T16:49:44.595Z,,,,2,0.0480684603309257,-0.0620119776873313,,false,hl,5071.588999988104,response,1.0264463986917702,0.9338765158961665,-1.1974372553897399,-1.171271535505083,0.8338765158961664,-1.1417702290459029,high,low,,ISIC_0645834.JPG,,ISIC_7889838.JPG,26,false,lh,keypress(e),0,true,478817.3000000119,478817.1999999881,473728.682,473729.40000000596,473745.611,478821.911,1,40,24,
sequence,flow.Sequence,8_23,2023-11-15T16:49:44.595Z,,,,,,,,,,5071.588999988104,completion,,,,,,,high,low,,,,,,false,,,,true,478817.59999999404,478817.1999999881,473728.682,473729.40000000596,473745.611,478821.911,1,40,,
trial,html.Screen,8_24_0,2023-11-15T16:49:50.602Z,,,,2,-0.0277178575053843,-0.0645068093068572,,true,ll,6002.989000005939,response,-1.3659531281899175,0.9838765158961665,-1.1974372553897399,-1.2288624061146074,0.8338765158961664,-1.191770229045903,low,low,,ISIC_0010807.JPG,,ISIC_0068776.JPG,50,false,ll,keypress(f),0,true,484825,484824.90000000596,478805.387,478817.6999999881,478821.911,484833.648,1,40,25,
sequence,flow.Sequence,8_24,2023-11-15T16:49:50.603Z,,,,,,,,,,6002.989000005939,completion,,,,,,,low,low,,,,,,false,,,,true,484825.1999999881,484824.90000000596,478805.387,478817.59999999404,478821.911,484833.648,1,40,,
trial,html.Screen,8_25_0,2023-11-15T16:49:54.340Z,,,,2,0.0085520978188085,-0.0535296539628673,,false,ll,3728.5519999880926,response,-1.1513073368404492,0.9838765158961665,-1.1974077671522623,-1.0485268550965705,0.8338765158961664,-1.191770229045903,low,low,,ISIC_0758797.JPG,,ISIC_0030666.JPG,50,false,lh,keypress(e),0,true,488562.5,488562.1999999881,484817.017,484825.3000000119,484833.648,488574.257,1,40,26,
sequence,flow.Sequence,8_25,2023-11-15T16:49:54.340Z,,,,,,,,,,3728.5519999880926,completion,,,,,,,low,low,,,,,,false,,,,true,488563,488562.1999999881,484817.017,484825.3000000119,484833.648,488574.257,1,40,,
trial,html.Screen,8_26_0,2023-11-15T16:50:00.034Z,,,,2,-0.0327772618698018,0.0056908372048728,,false,lh,5682.643000005977,response,-1.2535594154507017,0.9838765158961665,-1.1974077671522623,0.7180970937276707,0.8338765158961664,-1.191770229045903,low,high,,ISIC_7897925.JPG,,ISIC_6712342.JPG,28,false,ll,keypress(f),0,true,494257,494256.90000000596,488557.669,488563.3000000119,488574.257,494268.88,1,40,27,
sequence,flow.Sequence,8_26,2023-11-15T16:50:00.035Z,,,,,,,,,,5682.643000005977,completion,,,,,,,low,high,,,,,,false,,,,true,494257.1999999881,494256.90000000596,488557.669,488563.1999999881,488574.257,494268.88,1,40,,
trial,html.Screen,8_27_0,2023-11-15T16:50:04.060Z,,,,2,0.040352316356354,0.0039626669358928,,false,ll,4013.3199999880744,response,-0.9840050049609405,0.9838765158961665,-1.1524333761455754,-1.1927876559115576,0.8838765158961664,-1.191770229045903,low,low,,ISIC_3018550.JPG,,ISIC_8651053.JPG,51,false,lh,keypress(e),0,true,498282.5,498282.1999999881,494252.105,494257.1999999881,494268.88,498293.2,1,40,28,
sequence,flow.Sequence,8_27,2023-11-15T16:50:04.060Z,,,,,,,,,,4013.3199999880744,completion,,,,,,,low,low,,,,,,false,,,,true,498283,498282.1999999881,494252.105,494257.1999999881,494268.88,498293.2,1,40,,
trial,html.Screen,8_28_0,2023-11-15T16:50:11.428Z,,,,2,0.0572318562475973,0.0328299593216012,,false,hl,7357.100000011909,response,0.8015753713975186,0.9338765158961665,-1.1024333761455753,-1.0067065355978264,0.8338765158961664,-1.1417702290459029,high,low,,ISIC_0397464.JPG,,ISIC_0002119.JPG,26,false,ll,keypress(f),0,true,505650.59999999404,505650.3000000119,498276.622,498283.1999999881,498293.2,505657.532,1,40,29,
sequence,flow.Sequence,8_28,2023-11-15T16:50:11.429Z,,,,,,,,,,7357.100000011909,completion,,,,,,,high,low,,,,,,false,,,,true,505651.09999999404,505650.3000000119,498276.622,498283.09999999404,498293.2,505657.532,1,40,,
trial,html.Screen,8_29_0,2023-11-15T16:50:16.414Z,,,,2,-0.004212480280886,-0.0518491070608022,,false,ll,4976.868000005954,response,-1.204229955025689,0.9838765158961665,-1.1024333761455753,-1.0874249761617445,0.8338765158961664,-1.1417702290459029,low,low,,ISIC_2945324.JPG,,ISIC_0056930.JPG,66,false,lh,keypress(e),0,true,510634.6999999881,510634.40000000596,505640.918,505651.3000000119,505657.532,510650.711,1,40,30,
sequence,flow.Sequence,8_29,2023-11-15T16:50:16.414Z,,,,,,,,,,4976.868000005954,completion,,,,,,,low,low,,,,,,false,,,,true,510635.1999999881,510634.40000000596,505640.918,505651.1999999881,505657.532,510650.711,1,40,,
trial,html.Screen,8_30_0,2023-11-15T16:50:19.068Z,,,,2,-0.0744767864787991,0.0482768027208112,,false,ll,2638.2889999999898,response,-0.9133847107512522,0.9838765158961665,-1.0554682453117576,-1.1467555629414397,0.8338765158961664,-1.191770229045903,low,low,,ISIC_0011482.JPG,,ISIC_0032171.JPG,66,false,lh,keypress(e),0,true,513289.09999999404,513289,510634,510635.5,510650.711,513305.74,1,40,31,
sequence,flow.Sequence,8_30,2023-11-15T16:50:19.068Z,,,,,,,,,,2638.2889999999898,completion,,,,,,,low,low,,,,,,false,,,,true,513289.1999999881,513289,510634,510635.40000000596,510650.711,513305.74,1,40,,
trial,html.Screen,8_31_0,2023-11-15T16:50:25.085Z,,,,2,-0.0686816131231518,0.0045217849100701,,true,hh,6000.359999994049,response,0.879825259626649,0.9838765158961665,-1.0554682453117576,0.7403773586756872,0.8338765158961664,-1.191770229045903,high,high,,ISIC_5707761.JPG,,ISIC_0030575.JPG,185,false,hh,keypress(i),0,true,519306.40000000596,519306.09999999404,513289.212,513289.3000000119,513305.74,519317.374,1,40,32,
sequence,flow.Sequence,8_31,2023-11-15T16:50:25.086Z,,,,,,,,,,6000.359999994049,completion,,,,,,,high,high,,,,,,false,,,,true,519306.90000000596,519306.09999999404,513289.212,513289.3000000119,513305.74,519317.374,1,40,,
trial,html.Screen,8_32_0,2023-11-15T16:50:31.430Z,,,,2,-0.0488365673064833,0.0229344142397166,,false,hh,6333.225999994029,response,0.850984647884985,0.9838765158961665,-1.0554682453117576,0.8368364447246962,0.8338765158961664,-1.191770229045903,high,high,,ISIC_0056915.JPG,,ISIC_0062005.JPG,185,false,hl,keypress(j),0,true,525650.900000006,525650.599999994,519300.817,519307.09999999404,519317.374,525663.073,1,40,33,
sequence,flow.Sequence,8_32,2023-11-15T16:50:31.430Z,,,,,,,,,,6333.225999994029,completion,,,,,,,high,high,,,,,,false,,,,true,525651.400000006,525650.599999994,519300.817,519307.09999999404,519317.374,525663.073,1,40,,
trial,html.Screen,8_33_0,2023-11-15T16:50:38.341Z,,,,2,0.012810673904807,-0.00400964452501,,false,lh,6898.927000000025,response,-1.064425982109969,0.745681003280336,-1.0554682453117576,0.958564243697126,0.8838765158961664,-1.191770229045903,low,high,,ISIC_0064656.JPG,,ISIC_3203344.JPG,32,false,ll,keypress(f),0,true,532562.400000006,532562,525646.544,525651.599999994,525663.073,532576.595,1,40,34,
sequence,flow.Sequence,8_33,2023-11-15T16:50:38.342Z,,,,,,,,,,6898.927000000025,completion,,,,,,,low,high,,,,,,false,,,,true,532562.900000006,532562,525646.544,525651.5,525663.073,532576.595,1,40,,
trial,html.Screen,8_34_0,2023-11-15T16:50:42.566Z,,,,2,-0.0372699196710335,0.0646614895271859,,true,hh,4210.0049999940675,response,0.9106525024234248,0.745681003280336,-1.0054682453117576,1.0361692964751965,0.9338765158961665,-1.191770229045903,high,high,,ISIC_1175170.JPG,,ISIC_0058676.JPG,195,false,hh,keypress(i),0,true,536786.8000000119,536786.599999994,532559.967,532563.099999994,532576.595,536801.602,1,40,35,
sequence,flow.Sequence,8_34,2023-11-15T16:50:42.566Z,,,,,,,,,,4210.0049999940675,completion,,,,,,,high,high,,,,,,false,,,,true,536787.3000000119,536786.599999994,532559.967,532563,532576.595,536801.602,1,40,,
trial,html.Screen,8_35_0,2023-11-15T16:50:48.070Z,,,,2,-0.0514357258480358,-0.006520984995476,,true,ll,5488.698000011966,response,-0.9840050049609405,0.745681003280336,-1.0054682453117576,-1.1927876559115576,0.9338765158961665,-1.191770229045903,low,low,,ISIC_0031386.JPG,,ISIC_8651053.JPG,77,false,ll,keypress(f),0,true,542290.599999994,542290.3000000119,536784.818,536787.599999994,536801.602,542295.444,1,40,36,
sequence,flow.Sequence,8_35,2023-11-15T16:50:48.070Z,,,,,,,,,,5488.698000011966,completion,,,,,,,low,low,,,,,,false,,,,true,542291.099999994,542290.3000000119,536784.818,536787.5,536801.602,542295.444,1,40,,
trial,html.Screen,8_36_0,2023-11-15T16:50:53.358Z,,,,2,-0.0311884318403233,0.0697810882761999,,true,hh,5282.856000011903,response,0.8797187572470211,0.745681003280336,-1.0054682453117576,0.9573640085332544,0.9338765158961665,-1.191770229045903,high,high,,ISIC_4870676.JPG,,ISIC_0010235.JPG,195,false,hh,keypress(i),0,true,547578.599999994,547578.3000000119,542278.829,542291.3000000119,542295.444,547589.144,1,40,37,
sequence,flow.Sequence,8_36,2023-11-15T16:50:53.358Z,,,,,,,,,,5282.856000011903,completion,,,,,,,high,high,,,,,,false,,,,true,547579.099999994,547578.3000000119,542278.829,542291.3000000119,542295.444,547589.144,1,40,,
trial,html.Screen,8_37_0,2023-11-15T16:50:57.078Z,,,,2,-0.0658524437333868,0.0334357178485904,,true,hh,3709.055999988108,response,0.7933149635889316,0.695681003280336,-1.0054682453117576,0.7905025647917798,0.8838765158961664,-1.191770229045903,high,high,,ISIC_8015541.JPG,,ISIC_0062463.JPG,232,false,hh,keypress(i),0,true,551298.5,551298.1999999881,547572.59,547579.400000006,547589.144,551313.216,1,40,38,
sequence,flow.Sequence,8_37,2023-11-15T16:50:57.078Z,,,,,,,,,,3709.055999988108,completion,,,,,,,high,high,,,,,,false,,,,true,551299,551298.1999999881,547572.59,547579.3000000119,547589.144,551313.216,1,40,,
trial,html.Screen,8_38_0,2023-11-15T16:51:02.733Z,,,,2,-0.0001106800768269,0.0404747734408496,,false,hl,5640.584000011906,response,0.4979831622349652,0.695681003280336,-1.0054682453117576,-1.2557976625689238,0.8838765158961664,-1.191770229045903,high,low,,ISIC_5706192.JPG,,ISIC_0014932.JPG,44,false,hh,keypress(i),0,true,556954.099999994,556953.8000000119,551296.531,551299.1999999881,551313.216,556957.408,1,40,39,
sequence,flow.Sequence,8_38,2023-11-15T16:51:02.734Z,,,,,,,,,,5640.584000011906,completion,,,,,,,high,low,,,,,,false,,,,true,556954.400000006,556953.8000000119,551296.531,551299.1999999881,551313.216,556957.408,1,40,,
trial,html.Screen,8_39_0,2023-11-15T16:51:10.766Z,,,,2,-0.0565575423757561,0.0536115913979284,,false,hh,8029.1919999939855,response,0.47142798046008,0.5942428635133725,-1.0054682453117576,0.860059241034135,0.8838765158961664,-1.191770229045903,high,high,,ISIC_0046983.JPG,,ISIC_0009916.JPG,226,false,hl,keypress(j),0,true,564987,564986.599999994,556940.814,556954.6999999881,556957.408,565007.773,1,40,40,
sequence,flow.Sequence,8_39,2023-11-15T16:51:10.767Z,,,,,,,,,,8029.1919999939855,completion,,,,,,,high,high,,,,,,false,,,,true,564987.599999994,564986.599999994,556940.814,556954.599999994,556957.408,565007.773,1,40,,
stair_loop,flow.Loop,8,2023-11-15T16:51:10.767Z,,,,,,,,,,230128.03699999402,completion,,,,,,,,,,,,,,false,,,,true,564988,564986.599999994,334841.664,334841,334858.563,565007.773,1,40,,
exp_instructions,html.Screen,9,2023-11-15T16:51:29.287Z,,,,,,,,,,18497.926999988034,response,,,,,,,,,,,,,,,continue,keypress(Space),,,583506.400000006,583505.6999999881,564973.122,564988.099999994,565007.773,583509.048,,,,
trial,html.Screen,10_0_0,2023-11-15T16:51:37.037Z,,,,1,0.0158987717472563,0.0292472192292015,,true,hh,7746.752000011969,response,0.8239245859971193,0.8706322359474905,-1.099699219640376,0.7733754114250216,0.861575566719481,-1.1692702290459032,high,high,,ISIC_1366765.JPG,8,ISIC_0011529.JPG,207,false,hh,keypress(i),0,false,591255.900000006,591255.8000000119,583492.336,583506.8000000119,583509.048,591257.405,4,500,1,
break,html.Screen,10_0_1,2023-11-15T16:51:37.037Z,,,,,,,,,,NaN,,,,,,,,high,high,,,,,,false,,,,false,591256.3000000119,591256.1999999881,,591256,,591257.405,4,500,,
break_continue,html.Screen,10_0_2,2023-11-15T16:51:37.037Z,,,,,,,,,,NaN,,,,,,,,high,high,,,,,,false,,,,false,591256.6999999881,591256.599999994,,591256.5,,591257.405,4,500,,
sequence,flow.Sequence,10_0,2023-11-15T16:51:37.037Z,,,,,,,,,,7747.551999994088,completion,,,,,,,high,high,,,,,,false,,,,false,591256.8000000119,591256.599999994,583492.336,583506.8000000119,583509.048,591257.405,4,500,,
trial,html.Screen,10_1_0,2023-11-15T16:51:41.327Z,,,,1,-0.0001106800768269,0.0404747734408496,,true,lh,4288.9950000059325,response,-0.9087169856594104,0.8706322359474905,-1.099699219640376,0.8835647084207277,0.861575566719481,-1.1692702290459032,low,high,,ISIC_5706192.JPG,9,ISIC_0000349.JPG,30,false,lh,keypress(e),0,false,595546.6999999881,595546.400000006,591240.87,591256.8000000119,591257.405,595549.184,4,500,2,
break,html.Screen,10_1_1,2023-11-15T16:51:41.329Z,,,,,,,,,,NaN,,,,,,,,low,high,,,,,,false,,,,false,595547.900000006,595547.599999994,,595547.099999994,,595549.184,4,500,,
break_continue,html.Screen,10_1_2,2023-11-15T16:51:41.329Z,,,,,,,,,,NaN,,,,,,,,low,high,,,,,,false,,,,false,595548.599999994,595548.400000006,,595548.099999994,,595549.184,4,500,,
sequence,flow.Sequence,10_1,2023-11-15T16:51:41.330Z,,,,,,,,,,4290.9950000059325,completion,,,,,,,low,high,,,,,,false,,,,false,595548.900000006,595548.400000006,591240.87,591256.8000000119,591257.405,595549.184,4,500,,
trial,html.Screen,10_2_0,2023-11-15T16:51:49.431Z,,,,1,-0.0187970165493076,-0.0417726918052949,,true,hl,8100.815999999992,response,0.7468996036626098,0.8706322359474905,-1.099699219640376,-1.0079605779898853,0.861575566719481,-1.1692702290459032,high,low,,ISIC_9312164.JPG,9,ISIC_5335139.JPG,26,false,hl,keypress(j),0,false,603650.400000006,603650,595532.622,595549.099999994,595549.184,603665.172,4,500,3,
break,html.Screen,10_2_1,2023-11-15T16:51:49.432Z,,,,,,,,,,NaN,,,,,,,,high,low,,,,,,false,,,,false,603651.5,603651.1999999881,,603650.6999999881,,603665.172,4,500,,
break_continue,html.Screen,10_2_2,2023-11-15T16:51:49.433Z,,,,,,,,,,NaN,,,,,,,,high,low,,,,,,false,,,,false,603652.3000000119,603652,,603651.8000000119,,603665.172,4,500,,
sequence,flow.Sequence,10_2,2023-11-15T16:51:49.433Z,,,,,,,,,,8102.815999999992,completion,,,,,,,high,low,,,,,,false,,,,false,603652.599999994,603652,595532.622,595549,595549.184,603665.172,4,500,,
trial,html.Screen,10_3_0,2023-11-15T16:51:59.168Z,,,,1,0.0496743860812164,0.0010487105450318,,false,hl,9721.32799999998,response,0.7277664800679337,0.8706322359474905,-1.099699219640376,-1.2162806898850131,0.861575566719481,-1.1692702290459032,high,low,,ISIC_9312264.JPG,8,ISIC_0013777.JPG,26,false,ll,keypress(f),0,false,613386.8000000119,613386.5,603648.417,603652.6999999881,603665.172,613400.592,4,500,4,
break,html.Screen,10_3_1,2023-11-15T16:51:59.169Z,,,,,,,,,,NaN,,,,,,,,high,low,,,,,,false,,,,false,613388,613387.6999999881,,613387.3000000119,,613400.592,4,500,,
break_continue,html.Screen,10_3_2,2023-11-15T16:51:59.169Z,,,,,,,,,,NaN,,,,,,,,high,low,,,,,,false,,,,false,613388.6999999881,613388.400000006,,613388.1999999881,,613400.592,4,500,,
sequence,flow.Sequence,10_3,2023-11-15T16:51:59.170Z,,,,,,,,,,9723.22800000594,completion,,,,,,,high,low,,,,,,false,,,,false,613389,613388.400000006,603648.417,603652.6999999881,603665.172,613400.592,4,500,,
trial,html.Screen,10_4_0,2023-11-15T16:52:06.375Z,,,,1,-0.0277178575053843,-0.0645068093068572,,false,hh,7193.708000011975,response,0.6867531078441103,0.8706322359474905,-1.099699219640376,0.804908977162254,0.861575566719481,-1.1692702290459032,high,high,,ISIC_0010807.JPG,10,ISIC_0066094.JPG,207,false,hl,keypress(j),0,false,620594.6999999881,620594.3000000119,613383.874,613389.1999999881,613400.592,620597.962,4,500,5,
break,html.Screen,10_4_1,2023-11-15T16:52:06.377Z,,,,,,,,,,NaN,,,,,,,,high,high,,,,,,false,,,,false,620595.900000006,620595.599999994,,620595.099999994,,620597.962,4,500,,
break_continue,html.Screen,10_4_2,2023-11-15T16:52:06.377Z,,,,,,,,,,NaN,,,,,,,,high,high,,,,,,false,,,,false,620596.599999994,620596.3000000119,,620596,,620597.962,4,500,,
sequence,flow.Sequence,10_4,2023-11-15T16:52:06.378Z,,,,,,,,,,7195.708000011975,completion,,,,,,,high,high,,,,,,false,,,,false,620596.900000006,620596.3000000119,613383.874,613389.1999999881,613400.592,620597.962,4,500,,
trial,html.Screen,10_5_0,2023-11-15T16:52:11.743Z,,,,1,0.0702697127166421,0.0314752704888287,,false,lh,5364.338000011863,response,-1.1172883106398417,0.8706322359474905,-1.099699219640376,0.7336493335132354,0.861575566719481,-1.1692702290459032,low,high,,ISIC_0033881.JPG,8,ISIC_7415335.JPG,30,false,hl,keypress(j),0,false,625962.6999999881,625962.3000000119,620581.195,620597.099999994,620597.962,625974.97,4,500,6,
break,html.Screen,10_5_1,2023-11-15T16:52:11.745Z,,,,,,,,,,NaN,,,,,,,,low,high,,,,,,false,,,,false,625963.8000000119,625963.5,,625963,,625974.97,4,500,,
break_continue,html.Screen,10_5_2,2023-11-15T16:52:11.745Z,,,,,,,,,,NaN,,,,,,,,low,high,,,,,,false,,,,false,625964.5,625964.1999999881,,625964,,625974.97,4,500,,
sequence,flow.Sequence,10_5,2023-11-15T16:52:11.745Z,,,,,,,,,,5366.237999988021,completion,,,,,,,low,high,,,,,,false,,,,false,625964.6999999881,625964.1999999881,620581.195,620597.099999994,620597.962,625974.97,4,500,,
trial,html.Screen,10_6_0,2023-11-15T16:52:18.023Z,,,,1,0.040352316356354,0.0039626669358928,,true,ll,6267.430000005988,response,-1.2200968917423711,0.8706322359474905,-1.099699219640376,-1.3183466064109373,0.861575566719481,-1.1692702290459032,low,low,,ISIC_3018550.JPG,8,ISIC_3624318.JPG,63,false,ll,keypress(f),0,false,632242.6999999881,632242.400000006,625958.262,625964.900000006,625974.97,632253.883,4,500,7,
break,html.Screen,10_6_1,2023-11-15T16:52:18.025Z,,,,,,,,,,NaN,,,,,,,,low,low,,,,,,false,,,,false,632243.8000000119,632243.599999994,,632243.099999994,,632253.883,4,500,,
break_continue,html.Screen,10_6_2,2023-11-15T16:52:18.025Z,,,,,,,,,,NaN,,,,,,,,low,low,,,,,,false,,,,false,632244.599999994,632244.3000000119,,632244.099999994,,632253.883,4,500,,
sequence,flow.Sequence,10_6,2023-11-15T16:52:18.026Z,,,,,,,,,,6269.330000011949,completion,,,,,,,low,low,,,,,,false,,,,false,632244.8000000119,632244.3000000119,625958.262,625964.900000006,625974.97,632253.883,4,500,,
trial,html.Screen,10_7_0,2023-11-15T16:52:28.033Z,,,,1,0.0450282431170921,0.0102871556606504,,false,hl,9998.216999994009,response,0.9670240379618178,0.8706322359474905,-1.099699219640376,-1.1806404773220665,0.861575566719481,-1.1692702290459032,high,low,,ISIC_1805163.JPG,9,ISIC_0002288.JPG,26,false,ll,keypress(f),0,false,642252.1999999881,642252.099999994,632237.374,632245.099999994,632253.883,642273.623,4,500,8,
break,html.Screen,10_7_1,2023-11-15T16:52:28.033Z,,,,,,,,,,NaN,,,,,,,,high,low,,,,,,false,,,,false,642252.5,642252.5,,642252.400000006,,642273.623,4,500,,
break_continue,html.Screen,10_7_2,2023-11-15T16:52:28.033Z,,,,,,,,,,NaN,,,,,,,,high,low,,,,,,false,,,,false,642252.6999999881,642252.6999999881,,642252.599999994,,642273.623,4,500,,
sequence,flow.Sequence,10_7,2023-11-15T16:52:28.033Z,,,,,,,,,,9998.816999988048,completion,,,,,,,high,low,,,,,,false,,,,false,642252.6999999881,642252.6999999881,632237.374,632245.099999994,632253.883,642273.623,4,500,,
trial,html.Screen,10_8_0,2023-11-15T16:52:31.871Z,,,,1,-0.0372699196710335,0.0646614895271859,,true,hl,3815.1770000118995,response,0.9212323139676136,0.8706322359474905,-1.099699219640376,-0.9882196642247332,0.861575566719481,-1.1692702290459032,high,low,,ISIC_1175170.JPG,9,ISIC_0014255.JPG,26,false,hl,keypress(j),0,false,646088.900000006,646088.8000000119,642256.655,642252.900000006,642273.623,646097.492,4,500,9,
break,html.Screen,10_8_1,2023-11-15T16:52:31.872Z,,,,,,,,,,NaN,,,,,,,,high,low,,,,,,false,,,,false,646089.400000006,646089.3000000119,,646089,,646097.492,4,500,,
break_continue,html.Screen,10_8_2,2023-11-15T16:52:31.872Z,,,,,,,,,,NaN,,,,,,,,high,low,,,,,,false,,,,false,646089.599999994,646089.5,,646089.5,,646097.492,4,500,,
sequence,flow.Sequence,10_8,2023-11-15T16:52:31.872Z,,,,,,,,,,3815.8769999999786,completion,,,,,,,high,low,,,,,,false,,,,false,646089.8000000119,646089.5,642256.655,642252.8000000119,642273.623,646097.492,4,500,,
trial,html.Screen,10_9_0,2023-11-15T16:52:35.641Z,,,,1,-0.0361875505619981,0.0291457404567876,,true,hh,3760.408000005991,response,0.6937181847654451,0.8706322359474905,-1.099699219640376,0.9442364015643918,0.861575566719481,-1.1692702290459032,high,high,,ISIC_0027480.JPG,9,ISIC_0067969.JPG,207,false,hh,keypress(i),0,false,649858.3000000119,649857.900000006,646081.044,646089.8000000119,646097.492,649871.571,4,500,10,
break,html.Screen,10_9_1,2023-11-15T16:52:35.642Z,,,,,,,,,,NaN,,,,,,,,high,high,,,,,,false,,,,false,649859.400000006,649859,,649858.599999994,,649871.571,4,500,,
break_continue,html.Screen,10_9_2,2023-11-15T16:52:35.643Z,,,,,,,,,,NaN,,,,,,,,high,high,,,,,,false,,,,false,649860,649859.900000006,,649859.599999994,,649871.571,4,500,,
sequence,flow.Sequence,10_9,2023-11-15T16:52:35.643Z,,,,,,,,,,3762.408000005991,completion,,,,,,,high,high,,,,,,false,,,,false,649860.400000006,649859.900000006,646081.044,646089.8000000119,646097.492,649871.571,4,500,,
trial,html.Screen,10_10_0,2023-11-15T16:52:42.105Z,,,,1,-0.0296179945324451,-0.074433472160252,,false,hl,6451.028999994043,response,0.7782962657329482,0.8706322359474905,-1.099699219640376,-1.2893909821621488,0.861575566719481,-1.1692702290459032,high,low,,ISIC_0026982.JPG,10,ISIC_0012883.JPG,26,false,ll,keypress(f),0,false,656322.900000006,656322.599999994,649854.899,649860.599999994,649871.571,656334.197,4,500,11,
break,html.Screen,10_10_1,2023-11-15T16:52:42.107Z,,,,,,,,,,NaN,,,,,,,,high,low,,,,,,false,,,,false,656324.099999994,656323.8000000119,,656323.3000000119,,656334.197,4,500,,
break_continue,html.Screen,10_10_2,2023-11-15T16:52:42.107Z,,,,,,,,,,NaN,,,,,,,,high,low,,,,,,false,,,,false,656324.8000000119,656324.599999994,,656324.3000000119,,656334.197,4,500,,
sequence,flow.Sequence,10_10,2023-11-15T16:52:42.107Z,,,,,,,,,,6453.028999994043,completion,,,,,,,high,low,,,,,,false,,,,false,656325,656324.599999994,649854.899,649860.5,649871.571,656334.197,4,500,,
trial,html.Screen,10_11_0,2023-11-15T16:52:48.353Z,,,,1,0.0310298232022856,0.0697438859399019,,false,hh,6236.502999988035,response,0.8292029002897295,0.8706322359474905,-1.099699219640376,0.7853599960465988,0.861575566719481,-1.1692702290459032,high,high,,ISIC_0027669.JPG,9,ISIC_0014325.JPG,207,false,ll,keypress(f),0,false,662571.099999994,662570.6999999881,656317.528,656325.3000000119,656334.197,662579.541,4,500,12,
break,html.Screen,10_11_1,2023-11-15T16:52:48.355Z,,,,,,,,,,NaN,,,,,,,,high,high,,,,,,false,,,,false,662572.3000000119,662572,,662571.5,,662579.541,4,500,,
break_continue,html.Screen,10_11_2,2023-11-15T16:52:48.355Z,,,,,,,,,,NaN,,,,,,,,high,high,,,,,,false,,,,false,662573,662572.6999999881,,662572.400000006,,662579.541,4,500,,
sequence,flow.Sequence,10_11,2023-11-15T16:52:48.356Z,,,,,,,,,,6238.502999988035,completion,,,,,,,high,high,,,,,,false,,,,false,662573.3000000119,662572.6999999881,656317.528,656325.3000000119,656334.197,662579.541,4,500,,
trial,html.Screen,10_12_0,2023-11-15T16:52:54.888Z,,,,1,0.0742149355137113,0.0423516069066019,,false,hl,6525.859000005992,response,0.6714344890480403,0.8706322359474905,-1.099699219640376,-1.1317411618506656,0.861575566719481,-1.1692702290459032,high,low,,ISIC_0011483.JPG,9,ISIC_3691320.JPG,26,false,ll,keypress(f),0,false,669105.5,669105.400000006,662563.059,662573.5,662579.541,669108.965,4,500,13,
break,html.Screen,10_12_1,2023-11-15T16:52:54.888Z,,,,,,,,,,NaN,,,,,,,,high,low,,,,,,false,,,,false,669105.8000000119,669105.8000000119,,669105.599999994,,669108.965,4,500,,
break_continue,html.Screen,10_12_2,2023-11-15T16:52:54.889Z,,,,,,,,,,NaN,,,,,,,,high,low,,,,,,false,,,,false,669106.1999999881,669106.099999994,,669106,,669108.965,4,500,,
sequence,flow.Sequence,10_12,2023-11-15T16:52:54.889Z,,,,,,,,,,6526.558999994071,completion,,,,,,,high,low,,,,,,false,,,,false,669106.3000000119,669106.099999994,662563.059,662573.400000006,662579.541,669108.965,4,500,,
trial,html.Screen,10_13_0,2023-11-15T16:53:05.265Z,,,,1,0.0350697500805515,0.0166617848231997,,true,hl,10373.634999994072,response,0.8035152873995188,0.8706322359474905,-1.099699219640376,-1.2407642249743125,0.861575566719481,-1.1692702290459032,high,low,,ISIC_0024423.JPG,9,ISIC_0010671.JPG,26,false,hl,keypress(j),0,false,679482.900000006,679482.599999994,669092.348,669106.3000000119,669108.965,679496.005,4,500,14,
break,html.Screen,10_13_1,2023-11-15T16:53:05.267Z,,,,,,,,,,NaN,,,,,,,,high,low,,,,,,false,,,,false,679484.099999994,679483.8000000119,,679483.3000000119,,679496.005,4,500,,
break_continue,html.Screen,10_13_2,2023-11-15T16:53:05.267Z,,,,,,,,,,NaN,,,,,,,,high,low,,,,,,false,,,,false,679484.900000006,679484.6999999881,,679484.400000006,,679496.005,4,500,,
sequence,flow.Sequence,10_13,2023-11-15T16:53:05.268Z,,,,,,,,,,10375.734999988112,completion,,,,,,,high,low,,,,,,false,,,,false,679485.1999999881,679484.6999999881,669092.348,669106.3000000119,669108.965,679496.005,4,500,,
trial,html.Screen,10_14_0,2023-11-15T16:53:10.817Z,,,,1,-0.0744767864787991,0.0482768027208112,,true,ll,5537.994999999995,response,-1.1638334638021437,0.8706322359474905,-1.099699219640376,-1.0846635401396965,0.861575566719481,-1.1692702290459032,low,low,,ISIC_0011482.JPG,9,ISIC_4718313.JPG,63,false,ll,keypress(f),0,false,685034.3000000119,685034,679479.367,679485.400000006,679496.005,685039.967,4,500,15,
break,html.Screen,10_14_1,2023-11-15T16:53:10.818Z,,,,,,,,,,NaN,,,,,,,,low,low,,,,,,false,,,,false,685035.5,685035.1999999881,,685034.6999999881,,685039.967,4,500,,
break_continue,html.Screen,10_14_2,2023-11-15T16:53:10.819Z,,,,,,,,,,NaN,,,,,,,,low,low,,,,,,false,,,,false,685036.1999999881,685036,,685035.6999999881,,685039.967,4,500,,
sequence,flow.Sequence,10_14,2023-11-15T16:53:10.819Z,,,,,,,,,,5539.994999999995,completion,,,,,,,low,low,,,,,,false,,,,false,685036.5,685036,679479.367,679485.400000006,679496.005,685039.967,4,500,,
trial,html.Screen,10_15_0,2023-11-15T16:53:15.009Z,,,,1,0.021811393859175,-0.0534678805668419,,true,lh,4186.4330000060145,response,-1.1162273456306029,0.8706322359474905,-1.099699219640376,0.7890271955816722,0.861575566719481,-1.1692702290459032,low,high,,ISIC_0058054.JPG,9,ISIC_0011564.JPG,30,false,lh,keypress(e),0,false,689226.6999999881,689226.400000006,685023.408,685036.6999999881,685039.967,689231.462,4,500,16,
break,html.Screen,10_15_1,2023-11-15T16:53:15.010Z,,,,,,,,,,NaN,,,,,,,,low,high,,,,,,false,,,,false,689227.900000006,689227.5,,689227.099999994,,689231.462,4,500,,
break_continue,html.Screen,10_15_2,2023-11-15T16:53:15.011Z,,,,,,,,,,NaN,,,,,,,,low,high,,,,,,false,,,,false,689228.599999994,689228.400000006,,689228.1999999881,,689231.462,4,500,,
sequence,flow.Sequence,10_15,2023-11-15T16:53:15.011Z,,,,,,,,,,4188.4330000060145,completion,,,,,,,low,high,,,,,,false,,,,false,689228.900000006,689228.400000006,685023.408,685036.599999994,685039.967,689231.462,4,500,,
trial,html.Screen,10_16_0,2023-11-15T16:53:19.009Z,,,,1,-0.0514357258480358,-0.006520984995476,,false,hh,3995.2379999880213,response,0.937768611565666,0.8706322359474905,-1.099699219640376,0.663464047577821,0.861575566719481,-1.1692702290459032,high,high,,ISIC_0031386.JPG,9,ISIC_0014151.JPG,207,false,hl,keypress(j),0,false,693227,693226.6999999881,689214.732,689229.1999999881,689231.462,693239.514,4,500,17,
break,html.Screen,10_16_1,2023-11-15T16:53:19.011Z,,,,,,,,,,NaN,,,,,,,,high,high,,,,,,false,,,,false,693228.1999999881,693228,,693227.400000006,,693239.514,4,500,,
break_continue,html.Screen,10_16_2,2023-11-15T16:53:19.011Z,,,,,,,,,,NaN,,,,,,,,high,high,,,,,,false,,,,false,693229,693228.6999999881,,693228.400000006,,693239.514,4,500,,
sequence,flow.Sequence,10_16,2023-11-15T16:53:19.012Z,,,,,,,,,,3997.2379999880213,completion,,,,,,,high,high,,,,,,false,,,,false,693229.1999999881,693228.6999999881,689214.732,689229.099999994,689231.462,693239.514,4,500,,
trial,html.Screen,10_17_0,2023-11-15T16:53:25.545Z,,,,1,-0.0474755744799381,-0.0692210794081785,,true,ll,6522.886000005994,response,-1.1510001454240106,0.8706322359474905,-1.099699219640376,-1.132540312667795,0.861575566719481,-1.1692702290459032,low,low,,ISIC_8794567.JPG,9,ISIC_0009959.JPG,63,false,ll,keypress(f),0,false,699762.8000000119,699762.400000006,693222.529,693229.5,693239.514,699768.629,4,500,18,
break,html.Screen,10_17_1,2023-11-15T16:53:25.546Z,,,,,,,,,,NaN,,,,,,,,low,low,,,,,,false,,,,false,699764,699763.6999999881,,699763.1999999881,,699768.629,4,500,,
break_continue,html.Screen,10_17_2,2023-11-15T16:53:25.547Z,,,,,,,,,,NaN,,,,,,,,low,low,,,,,,false,,,,false,699764.8000000119,699764.599999994,,699764.1999999881,,699768.629,4,500,,
sequence,flow.Sequence,10_17,2023-11-15T16:53:25.548Z,,,,,,,,,,6525.085999994073,completion,,,,,,,low,low,,,,,,false,,,,false,699765.099999994,699764.599999994,693222.529,693229.400000006,693239.514,699768.629,4,500,,
trial,html.Screen,10_18_0,2023-11-15T16:53:30.667Z,,,,1,-0.0514357258480358,-0.006520984995476,,false,ll,5113.771000006003,response,-0.9520649807922285,0.8706322359474905,-1.099699219640376,-1.2060773672502134,0.861575566719481,-1.1692702290459032,low,low,,ISIC_0031386.JPG,8,ISIC_9439742.JPG,63,false,hl,keypress(j),0,false,704882.6999999881,704882.400000006,699752.009,699765.400000006,699768.629,704895.336,4,500,19,
break,html.Screen,10_18_1,2023-11-15T16:53:30.668Z,,,,,,,,,,NaN,,,,,,,,low,low,,,,,,false,,,,false,704883.8000000119,704883.5,,704883,,704895.336,4,500,,
break_continue,html.Screen,10_18_2,2023-11-15T16:53:30.668Z,,,,,,,,,,NaN,,,,,,,,low,low,,,,,,false,,,,false,704884.400000006,704884.1999999881,,704884,,704895.336,4,500,,
sequence,flow.Sequence,10_18,2023-11-15T16:53:30.669Z,,,,,,,,,,5115.570999988122,completion,,,,,,,low,low,,,,,,false,,,,false,704884.6999999881,704884.1999999881,699752.009,699765.3000000119,699768.629,704895.336,4,500,,
trial,html.Screen,10_19_0,2023-11-15T16:53:35.553Z,,,,1,-0.0646883165340005,-0.0250974824557198,,false,ll,4873.66399999999,response,-1.1642596483638106,0.8706322359474905,-1.099699219640376,-1.091507924157762,0.861575566719481,-1.1692702290459032,low,low,,ISIC_0069515.JPG,10,ISIC_0765584.JPG,63,false,hl,keypress(j),0,false,709769.1999999881,709769,704878.774,704884.900000006,704895.336,709788.345,4,500,20,
break,html.Screen,10_19_1,2023-11-15T16:53:35.553Z,,,,,,,,,,NaN,,,,,,,,low,low,,,,,,false,,,,false,709769.5,709769.5,,709769.3000000119,,709788.345,4,500,,
break_continue,html.Screen,10_19_2,2023-11-15T16:53:35.554Z,,,,,,,,,,NaN,,,,,,,,low,low,,,,,,false,,,,false,709769.599999994,709769.599999994,,709769.5,,709788.345,4,500,,
sequence,flow.Sequence,10_19,2023-11-15T16:53:35.554Z,,,,,,,,,,4874.263999994029,completion,,,,,,,low,low,,,,,,false,,,,false,709769.6999999881,709769.599999994,704878.774,704884.8000000119,704895.336,709788.345,4,500,,
trial,html.Screen,10_20_0,2023-11-15T16:53:39.771Z,,,,1,-0.0127364719403411,-0.0549103570808099,,true,ll,4198.155000000028,response,-0.9991910338212396,0.8706322359474905,-1.099699219640376,-1.0085499824556403,0.861575566719481,-1.1692702290459032,low,low,,ISIC_0054705.JPG,9,ISIC_7795549.JPG,63,false,ll,keypress(f),0,false,713986.8000000119,713986.5,709771.434,709769.900000006,709788.345,713996.323,4,500,21,
break,html.Screen,10_20_1,2023-11-15T16:53:39.772Z,,,,,,,,,,NaN,,,,,,,,low,low,,,,,,false,,,,false,713988,713987.6999999881,,713987.1999999881,,713996.323,4,500,,
break_continue,html.Screen,10_20_2,2023-11-15T16:53:39.773Z,,,,,,,,,,NaN,,,,,,,,low,low,,,,,,false,,,,false,713988.6999999881,713988.5,,713988.3000000119,,713996.323,4,500,,
sequence,flow.Sequence,10_20,2023-11-15T16:53:39.773Z,,,,,,,,,,4200.155000000028,completion,,,,,,,low,low,,,,,,false,,,,false,713989,713988.5,709771.434,709769.900000006,709788.345,713996.323,4,500,,
trial,html.Screen,10_21_0,2023-11-15T16:53:46.129Z,,,,1,0.021811393859175,-0.0534678805668419,,false,ll,6348.477000011946,response,-1.1363600109870835,0.8706322359474905,-1.099699219640376,-1.295816345369928,0.861575566719481,-1.1692702290459032,low,low,,ISIC_0058054.JPG,8,ISIC_0026141.JPG,63,false,lh,keypress(e),0,false,720345,720344.8000000119,713979.875,713989.1999999881,713996.323,720358.726,4,500,22,
break,html.Screen,10_21_1,2023-11-15T16:53:46.129Z,,,,,,,,,,NaN,,,,,,,,low,low,,,,,,false,,,,false,720345.400000006,720345.1999999881,,720345,,720358.726,4,500,,
break_continue,html.Screen,10_21_2,2023-11-15T16:53:46.129Z,,,,,,,,,,NaN,,,,,,,,low,low,,,,,,false,,,,false,720345.599999994,720345.5,,720345.5,,720358.726,4,500,,
sequence,flow.Sequence,10_21,2023-11-15T16:53:46.130Z,,,,,,,,,,6349.177000000025,completion,,,,,,,low,low,,,,,,false,,,,false,720345.599999994,720345.5,713979.875,713989.1999999881,713996.323,720358.726,4,500,,
trial,html.Screen,10_22_0,2023-11-15T16:53:51.923Z,,,,1,0.0399381815506136,0.0177751789152893,,true,ll,5779.773999999976,response,-1.1363600109870835,0.8706322359474905,-1.099699219640376,-1.295816345369928,0.861575566719481,-1.1692702290459032,low,low,,ISIC_3981425.JPG,10,ISIC_0026141.JPG,63,false,ll,keypress(f),0,false,726138.8000000119,726138.5,720342.195,720345.599999994,720358.726,726153.427,4,500,23,
break,html.Screen,10_22_1,2023-11-15T16:53:51.924Z,,,,,,,,,,NaN,,,,,,,,low,low,,,,,,false,,,,false,726140,726139.599999994,,726139.1999999881,,726153.427,4,500,,
break_continue,html.Screen,10_22_2,2023-11-15T16:53:51.925Z,,,,,,,,,,NaN,,,,,,,,low,low,,,,,,false,,,,false,726140.6999999881,726140.5,,726140.1999999881,,726153.427,4,500,,
sequence,flow.Sequence,10_22,2023-11-15T16:53:51.925Z,,,,,,,,,,5781.773999999976,completion,,,,,,,low,low,,,,,,false,,,,false,726140.900000006,726140.5,720342.195,720345.599999994,720358.726,726153.427,4,500,,
trial,html.Screen,10_23_0,2023-11-15T16:53:58.947Z,,,,1,0.0399381815506136,0.0177751789152893,,true,ll,7009.373000011896,response,-1.0654795411495817,0.8706322359474905,-1.099699219640376,-1.35836354317525,0.861575566719481,-1.1692702290459032,low,low,,ISIC_3981425.JPG,9,ISIC_4538489.JPG,63,false,ll,keypress(f),0,false,733163,733162.8000000119,726136.604,726141.1999999881,726153.427,733167.05,4,500,24,
break,html.Screen,10_23_1,2023-11-15T16:53:58.948Z,,,,,,,,,,NaN,,,,,,,,low,low,,,,,,false,,,,false,733164.1999999881,733163.900000006,,733163.400000006,,733167.05,4,500,,
break_continue,html.Screen,10_23_2,2023-11-15T16:53:58.949Z,,,,,,,,,,NaN,,,,,,,,low,low,,,,,,false,,,,false,733165,733164.8000000119,,733164.5,,733167.05,4,500,,
sequence,flow.Sequence,10_23,2023-11-15T16:53:58.949Z,,,,,,,,,,7011.373000011896,completion,,,,,,,low,low,,,,,,false,,,,false,733165.1999999881,733164.8000000119,726136.604,726141.099999994,726153.427,733167.05,4,500,,
trial,html.Screen,10_24_0,2023-11-15T16:54:04.185Z,,,,1,0.0050679133050021,0.0174815595031679,,false,hh,5233.949999999953,response,0.9108703459682678,0.8706322359474905,-1.099699219640376,0.7270596245995933,0.861575566719481,-1.1692702290459032,high,high,,ISIC_9848743.JPG,9,ISIC_0026475.JPG,207,false,hl,keypress(j),0,false,738401.1999999881,738401,733150.466,733165.5,733167.05,738410.601,4,500,25,
break,html.Screen,10_24_1,2023-11-15T16:54:04.185Z,,,,,,,,,,NaN,,,,,,,,high,high,,,,,,false,,,,false,738401.5,738401.400000006,,738401.1999999881,,738410.601,4,500,,
break_continue,html.Screen,10_24_2,2023-11-15T16:54:04.186Z,,,,,,,,,,NaN,,,,,,,,high,high,,,,,,false,,,,false,738401.599999994,738401.599999994,,738401.599999994,,738410.601,4,500,,
sequence,flow.Sequence,10_24,2023-11-15T16:54:04.186Z,,,,,,,,,,5234.549999993993,completion,,,,,,,high,high,,,,,,false,,,,false,738401.6999999881,738401.599999994,733150.466,733165.5,733167.05,738410.601,4,500,,
trial,html.Screen,10_25_0,2023-11-15T16:54:11.355Z,,,,1,-0.0191999585302269,0.0745789212985316,,false,lh,7160.199000011897,response,-0.9048081691860408,0.8706322359474905,-1.099699219640376,0.6848173339051019,0.861575566719481,-1.1692702290459032,low,high,,ISIC_4024062.JPG,9,ISIC_0068677.JPG,30,false,hh,keypress(i),0,false,745571.099999994,745570.8000000119,738393.795,738401.8000000119,738410.601,745574.558,4,500,26,
break,html.Screen,10_25_1,2023-11-15T16:54:11.356Z,,,,,,,,,,NaN,,,,,,,,low,high,,,,,,false,,,,false,745572.3000000119,745572,,745571.5,,745574.558,4,500,,
break_continue,html.Screen,10_25_2,2023-11-15T16:54:11.357Z,,,,,,,,,,NaN,,,,,,,,low,high,,,,,,false,,,,false,745573,745572.8000000119,,745572.5,,745574.558,4,500,,
sequence,flow.Sequence,10_25,2023-11-15T16:54:11.357Z,,,,,,,,,,7162.199000011897,completion,,,,,,,low,high,,,,,,false,,,,false,745573.3000000119,745572.8000000119,738393.795,738401.8000000119,738410.601,745574.558,4,500,,
trial,html.Screen,10_26_0,2023-11-15T16:54:22.348Z,,,,1,-0.0514357258480358,-0.006520984995476,,,,11021.555000000051,timeout,0.9212323139676136,0.8706322359474905,-1.099699219640376,-0.9882196642247332,0.861575566719481,-1.1692702290459032,high,low,,ISIC_0031386.JPG,9,ISIC_0014255.JPG,26,false,,,0,false,756563.6999999881,756563.400000006,745557.861,745573.5,745574.558,756596.113,4,500,27,
break,html.Screen,10_26_1,2023-11-15T16:54:22.349Z,,,,,,,,,,NaN,,,,,,,,high,low,,,,,,false,,,,false,756564.8000000119,756564.599999994,,756564.099999994,,756596.113,4,500,,
break_continue,html.Screen,10_26_2,2023-11-15T16:54:22.349Z,,,,,,,,,,NaN,,,,,,,,high,low,,,,,,false,,,,false,756565.5,756565.3000000119,,756565,,756596.113,4,500,,
sequence,flow.Sequence,10_26,2023-11-15T16:54:22.350Z,,,,,,,,,,10990.74200001196,completion,,,,,,,high,low,,,,,,false,,,,false,756565.900000006,756565.3000000119,745557.861,745573.5,745574.558,756596.113,4,500,,
trial,html.Screen,10_27_0,2023-11-15T16:54:25.577Z,,,,1,0.0050679133050021,0.0174815595031679,,false,ll,3197.086999988067,response,-1.2555541172897566,0.8706322359474905,-1.099699219640376,-1.0235056423601527,0.861575566719481,-1.1692702290459032,low,low,,ISIC_9848743.JPG,9,ISIC_1578399.JPG,63,false,lh,keypress(e),0,false,759793.400000006,759793.1999999881,756579.301,756566.099999994,756596.113,759802.234,4,500,28,
break,html.Screen,10_27_1,2023-11-15T16:54:25.578Z,,,,,,,,,,NaN,,,,,,,,low,low,,,,,,false,,,,false,759793.8000000119,759793.6999999881,,759793.5,,759802.234,4,500,,
break_continue,html.Screen,10_27_2,2023-11-15T16:54:25.578Z,,,,,,,,,,NaN,,,,,,,,low,low,,,,,,false,,,,false,759794,759794,,759793.900000006,,759802.234,4,500,,
sequence,flow.Sequence,10_27,2023-11-15T16:54:25.578Z,,,,,,,,,,3197.886999999988,completion,,,,,,,low,low,,,,,,false,,,,false,759794.099999994,759794,756579.301,756566,756596.113,759802.234,4,500,,
trial,html.Screen,10_28_0,2023-11-15T16:54:28.155Z,,,,1,-0.0199897690678184,-0.0312486875504497,,false,hh,2568.3659999939846,response,0.7118141631588264,0.8706322359474905,-1.099699219640376,0.8486937878412699,0.861575566719481,-1.1692702290459032,high,high,,ISIC_5482426.JPG,8,ISIC_6917681.JPG,207,false,hl,keypress(j),0,false,762370.900000006,762370.599999994,759785.569,759794.1999999881,759802.234,762373.895,4,500,29,
break,html.Screen,10_28_1,2023-11-15T16:54:28.156Z,,,,,,,,,,NaN,,,,,,,,high,high,,,,,,false,,,,false,762372.099999994,762371.6999999881,,762371.3000000119,,762373.895,4,500,,
break_continue,html.Screen,10_28_2,2023-11-15T16:54:28.157Z,,,,,,,,,,NaN,,,,,,,,high,high,,,,,,false,,,,false,762372.8000000119,762372.5,,762372.1999999881,,762373.895,4,500,,
sequence,flow.Sequence,10_28,2023-11-15T16:54:28.157Z,,,,,,,,,,2570.265999999945,completion,,,,,,,high,high,,,,,,false,,,,false,762373,762372.5,759785.569,759794.1999999881,759802.234,762373.895,4,500,,
trial,html.Screen,10_29_0,2023-11-15T16:54:34.564Z,,,,1,-0.0296179945324451,-0.074433472160252,,false,hh,6404.80499998806,response,0.8390406799116751,0.8706322359474905,-1.099699219640376,0.7346695684602657,0.861575566719481,-1.1692702290459032,high,high,,ISIC_0026982.JPG,9,ISIC_8617277.JPG,207,false,hl,keypress(j),0,false,768779,768778.6999999881,762357.246,762373.3000000119,762373.895,768786.302,4,500,30,
break,html.Screen,10_29_1,2023-11-15T16:54:34.565Z,,,,,,,,,,NaN,,,,,,,,high,high,,,,,,false,,,,false,768780.099999994,768779.8000000119,,768779.3000000119,,768786.302,4,500,,
break_continue,html.Screen,10_29_2,2023-11-15T16:54:34.566Z,,,,,,,,,,NaN,,,,,,,,high,high,,,,,,false,,,,false,768780.8000000119,768780.599999994,,768780.3000000119,,768786.302,4,500,,
sequence,flow.Sequence,10_29,2023-11-15T16:54:34.566Z,,,,,,,,,,6406.704999994021,completion,,,,,,,high,high,,,,,,false,,,,false,768781.099999994,768780.599999994,762357.246,762373.1999999881,762373.895,768786.302,4,500,,
trial,html.Screen,10_30_0,2023-11-15T16:54:40.796Z,,,,1,0.0023664502831079,0.0252784582169994,,true,hh,6224.098000005935,response,0.7768060112571308,0.8706322359474905,-1.099699219640376,0.9860853588297788,0.861575566719481,-1.1692702290459032,high,high,,ISIC_4156010.JPG,9,ISIC_0046640.JPG,207,false,hh,keypress(i),0,false,775010.8000000119,775010.400000006,768769.873,768781.3000000119,768786.302,775015.104,4,500,31,
break,html.Screen,10_30_1,2023-11-15T16:54:40.797Z,,,,,,,,,,NaN,,,,,,,,high,high,,,,,,false,,,,false,775012,775011.6999999881,,775011.099999994,,775015.104,4,500,,
break_continue,html.Screen,10_30_2,2023-11-15T16:54:40.798Z,,,,,,,,,,NaN,,,,,,,,high,high,,,,,,false,,,,false,775012.6999999881,775012.400000006,,775012.1999999881,,775015.104,4,500,,
sequence,flow.Sequence,10_30,2023-11-15T16:54:40.798Z,,,,,,,,,,6226.098000005935,completion,,,,,,,high,high,,,,,,false,,,,false,775012.900000006,775012.400000006,768769.873,768781.3000000119,768786.302,775015.104,4,500,,
trial,html.Screen,10_31_0,2023-11-15T16:54:43.596Z,,,,1,-0.0658524437333868,0.0334357178485904,,false,hh,2795.4959999939892,response,1.0485938254004283,0.8706322359474905,-1.099699219640376,0.7032369789068316,0.861575566719481,-1.1692702290459032,high,high,,ISIC_8015541.JPG,10,ISIC_0027872.JPG,207,false,hl,keypress(j),0,false,777810.8000000119,777810.599999994,774998.6,775013.1999999881,775015.104,777820.626,4,500,32,
break,html.Screen,10_31_1,2023-11-15T16:54:43.597Z,,,,,,,,,,NaN,,,,,,,,high,high,,,,,,false,,,,false,777811.900000006,777811.6999999881,,777811.1999999881,,777820.626,4,500,,
break_continue,html.Screen,10_31_2,2023-11-15T16:54:43.598Z,,,,,,,,,,NaN,,,,,,,,high,high,,,,,,false,,,,false,777812.6999999881,777812.400000006,,777812.1999999881,,777820.626,4,500,,
sequence,flow.Sequence,10_31,2023-11-15T16:54:43.598Z,,,,,,,,,,2797.29600000591,completion,,,,,,,high,high,,,,,,false,,,,false,777812.900000006,777812.400000006,774998.6,775013.099999994,775015.104,777820.626,4,500,,
trial,html.Screen,10_32_0,2023-11-15T16:54:51.485Z,,,,1,0.0572318562475973,0.0328299593216012,,true,lh,7878.174000011873,response,-0.9087169856594104,0.8706322359474905,-1.099699219640376,0.8835647084207277,0.861575566719481,-1.1692702290459032,low,high,,ISIC_0397464.JPG,9,ISIC_0000349.JPG,30,false,lh,keypress(e),0,false,785699.1999999881,785698.8000000119,777803.84,777813.099999994,777820.626,785702.639,4,500,33,
break,html.Screen,10_32_1,2023-11-15T16:54:51.486Z,,,,,,,,,,NaN,,,,,,,,low,high,,,,,,false,,,,false,785700.3000000119,785700.099999994,,785699.599999994,,785702.639,4,500,,
break_continue,html.Screen,10_32_2,2023-11-15T16:54:51.486Z,,,,,,,,,,NaN,,,,,,,,low,high,,,,,,false,,,,false,785701,785700.8000000119,,785700.5,,785702.639,4,500,,
sequence,flow.Sequence,10_32,2023-11-15T16:54:51.487Z,,,,,,,,,,7880.174000011873,completion,,,,,,,low,high,,,,,,false,,,,false,785701.3000000119,785700.8000000119,777803.84,777813.099999994,777820.626,785702.639,4,500,,
trial,html.Screen,10_33_0,2023-11-15T16:54:57.628Z,,,,1,-0.0189295602385628,-0.0128812415435153,,true,hl,6139.8610000000335,response,0.6971413872676647,0.8706322359474905,-1.099699219640376,-1.040122402473425,0.861575566719481,-1.1692702290459032,high,low,,ISIC_0010372.JPG,9,ISIC_8195528.JPG,26,false,hl,keypress(j),0,false,791842.8000000119,791842.5,785686.069,785701.5,785702.639,791847.872,4,500,34,
break,html.Screen,10_33_1,2023-11-15T16:54:57.629Z,,,,,,,,,,NaN,,,,,,,,high,low,,,,,,false,,,,false,791844,791843.6999999881,,791843.1999999881,,791847.872,4,500,,
break_continue,html.Screen,10_33_2,2023-11-15T16:54:57.630Z,,,,,,,,,,NaN,,,,,,,,high,low,,,,,,false,,,,false,791844.8000000119,791844.5,,791844.3000000119,,791847.872,4,500,,
sequence,flow.Sequence,10_33,2023-11-15T16:54:57.630Z,,,,,,,,,,6141.8610000000335,completion,,,,,,,high,low,,,,,,false,,,,false,791845,791844.5,785686.069,785701.400000006,785702.639,791847.872,4,500,,
trial,html.Screen,10_34_0,2023-11-15T16:55:02.237Z,,,,1,-0.0367218428225813,0.0026956749740767,,false,ll,4603.0280000059865,response,-1.2200968917423711,0.8706322359474905,-1.099699219640376,-1.3183466064109373,0.861575566719481,-1.1692702290459032,low,low,,ISIC_7212271.JPG,8,ISIC_3624318.JPG,63,false,hl,keypress(j),0,false,796451.1999999881,796450.900000006,791831.399,791845.400000006,791847.872,796456.819,4,500,35,
break,html.Screen,10_34_1,2023-11-15T16:55:02.238Z,,,,,,,,,,NaN,,,,,,,,low,low,,,,,,false,,,,false,796452.3000000119,796452.099999994,,796451.5,,796456.819,4,500,,
break_continue,html.Screen,10_34_2,2023-11-15T16:55:02.238Z,,,,,,,,,,NaN,,,,,,,,low,low,,,,,,false,,,,false,796453,796452.8000000119,,796452.5,,796456.819,4,500,,
sequence,flow.Sequence,10_34,2023-11-15T16:55:02.239Z,,,,,,,,,,4604.928000011947,completion,,,,,,,low,low,,,,,,false,,,,false,796453.3000000119,796452.8000000119,791831.399,791845.1999999881,791847.872,796456.819,4,500,,
trial,html.Screen,10_35_0,2023-11-15T16:55:08.900Z,,,,1,-0.0199897690678184,-0.0312486875504497,,false,hl,6657.981000011903,response,0.8620516892494489,0.8706322359474905,-1.099699219640376,-1.1108509340502866,0.861575566719481,-1.1692702290459032,high,low,,ISIC_5482426.JPG,9,ISIC_5557806.JPG,26,false,lh,keypress(e),0,false,803115.099999994,803114.8000000119,796440.257,796453.5,796456.819,803119.796,4,500,36,
break,html.Screen,10_35_1,2023-11-15T16:55:08.902Z,,,,,,,,,,NaN,,,,,,,,high,low,,,,,,false,,,,false,803116.400000006,803116,,803115.5,,803119.796,4,500,,
break_continue,html.Screen,10_35_2,2023-11-15T16:55:08.902Z,,,,,,,,,,NaN,,,,,,,,high,low,,,,,,false,,,,false,803117.099999994,803116.8000000119,,803116.599999994,,803119.796,4,500,,
sequence,flow.Sequence,10_35,2023-11-15T16:55:08.903Z,,,,,,,,,,6659.981000011903,completion,,,,,,,high,low,,,,,,false,,,,false,803117.3000000119,803116.8000000119,796440.257,796453.5,796456.819,803119.796,4,500,,
trial,html.Screen,10_36_0,2023-11-15T16:55:14.981Z,,,,1,0.0629926578251803,-0.0626296407938785,,true,lh,6075.1040000059875,response,-1.2535594154507017,0.8706322359474905,-1.099699219640376,0.7180970937276707,0.861575566719481,-1.1692702290459032,low,high,,ISIC_0027043.JPG,9,ISIC_6712342.JPG,30,false,lh,keypress(e),0,false,809195.1999999881,809194.900000006,803103.216,803117.599999994,803119.796,809198.39,4,500,37,
break,html.Screen,10_36_1,2023-11-15T16:55:14.982Z,,,,,,,,,,NaN,,,,,,,,low,high,,,,,,false,,,,false,809196.400000006,809196.099999994,,809195.5,,809198.39,4,500,,
break_continue,html.Screen,10_36_2,2023-11-15T16:55:14.983Z,,,,,,,,,,NaN,,,,,,,,low,high,,,,,,false,,,,false,809197.1999999881,809196.900000006,,809196.599999994,,809198.39,4,500,,
sequence,flow.Sequence,10_36,2023-11-15T16:55:14.983Z,,,,,,,,,,6077.1040000059875,completion,,,,,,,low,high,,,,,,false,,,,false,809197.5,809196.900000006,803103.216,803117.5,803119.796,809198.39,4,500,,
trial,html.Screen,10_37_0,2023-11-15T16:55:23.628Z,,,,1,-0.0729466326865927,0.0055109446314237,,true,hl,8644.410000011907,response,0.7450700429395554,0.8706322359474905,-1.099699219640376,-1.1659665266603083,0.861575566719481,-1.1692702290459032,high,low,,ISIC_0032597.JPG,9,ISIC_3736075.JPG,26,false,hl,keypress(j),0,false,817843.099999994,817842.8000000119,809181.719,809197.599999994,809198.39,817848.478,4,500,38,
break,html.Screen,10_37_1,2023-11-15T16:55:23.630Z,,,,,,,,,,NaN,,,,,,,,high,low,,,,,,false,,,,false,817844.1999999881,817844,,817843.5,,817848.478,4,500,,
