sender,sender_type,sender_id,timestamp,meta,,blockNo,condition,duration,ended_on,img_left,img_reveal,img_right,loser,practice,response,response_action,selection_duration,time_commit,time_end,time_render,time_run,time_show,time_switch,total_blocks,total_trials,trialNo,url,winner
informed_consent,html.Screen,0,2023-09-11T20:04:03.322Z,"{""labjs_version"":""20.2.4"",""labjs_build"":{""flavor"":""development"",""commit"":""f5b4a49f956347addd546a832a3327688c2c0fef""},""location"":""https://labjs.felixhenninger.com/api/labjs_preview/index.html"",""userAgent"":""Mozilla/5.0 (Windows NT 10.0; Win64; x64) AppleWebKit/537.36 (KHTML, like Gecko) Chrome/116.0.0.0 Safari/537.36"",""platform"":""Win32"",""language"":""en-AU"",""locale"":""en-US"",""timeZone"":""America/Chicago"",""timezoneOffset"":300,""screen_width"":1680,""screen_height"":1050,""scroll_width"":1296,""scroll_height"":688,""window_innerWidth"":1296,""window_innerHeight"":736,""devicePixelRatio"":1}",,,,2941.024,response,,,,,,consent,click button,,3911.9000000953674,3911,953.36,1121.5999999046326,969.976,3758.736,,,,{},
Welcome,html.Screen,1,2023-09-11T20:04:04.018Z,,,,uniform,848.4640002861024,response,,,,,,continue,click button,,4607.700000286102,4607.200000286102,3742.092,3912.0999999046326,3758.736,4460.214,,,,,
trial,html.Screen,2_0_0,2023-09-11T20:04:15.381Z,,0,0,,11355.349,timeout,ISIC_0025593.JPG,,ISIC_0063388.JPG,,true,,,500,15970.5,15970.400000095367,4443.716,4607.900000095367,4460.214,15815.563,1,6,1,,
sequence,flow.Sequence,2_0,2023-09-11T20:04:15.382Z,,0,,,11510.186000095367,completion,,,,,true,,,,15970.700000286102,15970.400000095367,4443.716,4607.900000095367,4460.214,15815.563,1,6,,,
trial,html.Screen,2_1_0,2023-09-11T20:04:26.730Z,,0,0,,11355.565,timeout,ISIC_0028178.JPG,,ISIC_1309015.JPG,,true,,,500,27319.5,27319.300000190735,15799.061,15970.800000190735,15815.563,27171.128,1,6,2,,
sequence,flow.Sequence,2_1,2023-09-11T20:04:26.730Z,,0,,,11503.737000190735,completion,,,,,true,,,,27319.700000286102,27319.300000190735,15799.061,15970.800000190735,15815.563,27171.128,1,6,,,
trial,html.Screen,2_2_0,2023-09-11T20:04:38.092Z,,0,0,,11355.312999999998,timeout,ISIC_0031128.JPG,,ISIC_3314853.JPG,,true,,,500,38681.300000190735,38681.2000002861,27154.433,27319.800000190735,27171.128,38526.441,1,6,3,,
sequence,flow.Sequence,2_2,2023-09-11T20:04:38.092Z,,0,,,11510.072000286102,completion,,,,,true,,,,38681.5,38681.2000002861,27154.433,27319.800000190735,27171.128,38526.441,1,6,,,
trial,html.Screen,2_3_0,2023-09-11T20:04:49.441Z,,0,0,,11355.431000000004,timeout,ISIC_8980141.JPG,,ISIC_0031612.JPG,,true,,,500,50030.40000009537,50030.2000002861,38509.896,38681.5,38526.441,49881.872,1,6,4,,
sequence,flow.Sequence,2_3,2023-09-11T20:04:49.441Z,,0,,,11503.759000286103,completion,,,,,true,,,,50030.5,50030.2000002861,38509.896,38681.5,38526.441,49881.872,1,6,,,
trial,html.Screen,2_4_0,2023-09-11T20:05:00.803Z,,0,0,,11355.405999999995,timeout,ISIC_9721604.JPG,,ISIC_1197737.JPG,,true,,,500,61392.5,61392.40000009537,49865.171,50030.59999990463,49881.872,61237.278,1,6,5,,
sequence,flow.Sequence,2_4,2023-09-11T20:05:00.803Z,,0,,,11510.528000095364,completion,,,,,true,,,,61392.59999990463,61392.40000009537,49865.171,50030.59999990463,49881.872,61237.278,1,6,,,
trial,html.Screen,2_5_0,2023-09-11T20:05:11.333Z,,0,0,,10684.022000190736,response,ISIC_0025346.JPG,,ISIC_0010681.JPG,ISIC_0025346.JPG,true,1,keypress(m),500,71921.5,71921.30000019073,61220.599,61392.7000002861,61237.278,71774.476,1,6,6,,ISIC_0010681.JPG
sequence,flow.Sequence,2_5,2023-09-11T20:05:11.333Z,,0,,,10684.022000190736,completion,,,,,true,,,,71921.59999990463,71921.30000019073,61220.599,61392.7000002861,61237.278,71774.476,1,6,,,
loop,flow.Loop,2,2023-09-11T20:05:11.333Z,,,,,67461.08600019073,completion,,,,,true,,,,71921.80000019073,71921.30000019073,4443.716,4607.800000190735,4460.214,71774.476,1,6,,,
exp_instructions,html.Screen,3,2023-09-11T20:33:28.131Z,,,,,1696923.3240001907,response,,,,,,continue,keypress(Space),,1768698.4000000954,1768697.8000001907,71757.736,71921.80000019073,71774.476,1768559.773,,,,,
trial,html.Screen,4_0_0,2023-09-11T20:33:38.025Z,,0,1,,10032.226999999955,response,ISIC_2753279.JPG,4,ISIC_6666329.JPG,ISIC_6666329.JPG,false,0,keypress(z),500,1778592,1778592,1768543.079,1768698.5,1768559.773,1778445.68,8,400,1,,ISIC_2753279.JPG
break,html.Screen,4_0_1,2023-09-11T20:33:38.025Z,,0,,,NaN,,,,,,false,,,,1778592.700000286,1778592.5999999046,,1778592.200000286,,1778445.68,8,400,,,
break_continue,html.Screen,4_0_2,2023-09-11T20:33:38.026Z,,0,,,NaN,,,,,,false,,,,1778592.9000000954,1778592.9000000954,,1778592.8000001907,,1778445.68,8,400,,,
sequence,flow.Sequence,4_0,2023-09-11T20:33:38.026Z,,0,,,10033.127000095323,completion,,,,,false,,,,1778593,1778592.9000000954,1768543.079,1768698.4000000954,1768559.773,1778445.68,8,400,,,
trial,html.Screen,4_1_0,2023-09-11T20:33:47.218Z,,0,1,,9338.820000000065,response,ISIC_0033500.JPG,6,ISIC_6460137.JPG,ISIC_0033500.JPG,false,1,keypress(m),500,1787784.9000000954,1787784.5,1778428.985,1778593.0999999046,1778445.68,1787630.358,8,400,2,,ISIC_6460137.JPG
break,html.Screen,4_1_1,2023-09-11T20:33:47.220Z,,0,,,NaN,,,,,,false,,,,1787786.9000000954,1787786.200000286,,1787785.4000000954,,1787630.358,8,400,,,
break_continue,html.Screen,4_1_2,2023-09-11T20:33:47.220Z,,0,,,NaN,,,,,,false,,,,1787787.700000286,1787787.5,,1787787.200000286,,1787630.358,8,400,,,
sequence,flow.Sequence,4_1,2023-09-11T20:33:47.221Z,,0,,,9341.820000000065,completion,,,,,false,,,,1787788.0999999046,1787787.5,1778428.985,1778593,1778445.68,1787630.358,8,400,,,
trial,html.Screen,4_2_0,2023-09-11T20:33:54.667Z,,0,1,,7603.641999999993,response,ISIC_9989936.JPG,6,ISIC_0054341.JPG,ISIC_0054341.JPG,false,0,keypress(z),500,1795234.4000000954,1795234,1787613.615,1787790.3000001907,1787630.358,1795078.148,8,400,3,,ISIC_9989936.JPG
break,html.Screen,4_2_1,2023-09-11T20:33:54.669Z,,0,,,NaN,,,,,,false,,,,1795236.0999999046,1795235.5999999046,,1795234.9000000954,,1795078.148,8,400,,,
break_continue,html.Screen,4_2_2,2023-09-11T20:33:54.670Z,,0,,,NaN,,,,,,false,,,,1795237.5,1795237.3000001907,,1795236.700000286,,1795078.148,8,400,,,
sequence,flow.Sequence,4_2,2023-09-11T20:33:54.671Z,,0,,,7606.942000190727,completion,,,,,false,,,,1795237.9000000954,1795237.3000001907,1787613.615,1787789.700000286,1787630.358,1795078.148,8,400,,,
trial,html.Screen,4_3_0,2023-09-11T20:34:05.939Z,,0,1,,11427.65200019069,response,ISIC_8692218.JPG,4,ISIC_0962787.JPG,ISIC_8692218.JPG,false,1,keypress(m),500,1806505.8000001907,1806505.8000001907,1795061.365,1795238.200000286,1795078.148,1806349.958,8,400,4,,ISIC_0962787.JPG
break,html.Screen,4_3_1,2023-09-11T20:34:05.939Z,,0,,,NaN,,,,,,false,,,,1806506.3000001907,1806506.0999999046,,1806506,,1806349.958,8,400,,,
break_continue,html.Screen,4_3_2,2023-09-11T20:34:05.939Z,,0,,,NaN,,,,,,false,,,,1806506.5999999046,1806506.5,,1806506.3000001907,,1806349.958,8,400,,,
sequence,flow.Sequence,4_3,2023-09-11T20:34:05.939Z,,0,,,11428.351999999955,completion,,,,,false,,,,1806506.5999999046,1806506.5,1795061.365,1795238.0999999046,1795078.148,1806349.958,8,400,,,
trial,html.Screen,4_4_0,2023-09-11T20:34:12.408Z,,0,1,,6625.041999999899,response,ISIC_4508878.JPG,4,ISIC_0031208.JPG,ISIC_0031208.JPG,false,0,keypress(z),500,1812975.0999999046,1812975,1806333.242,1806506.5999999046,1806349.958,1812829.209,8,400,5,,ISIC_4508878.JPG
break,html.Screen,4_4_1,2023-09-11T20:34:12.408Z,,0,,,NaN,,,,,,false,,,,1812975.700000286,1812975.5,,1812975.200000286,,1812829.209,8,400,,,
break_continue,html.Screen,4_4_2,2023-09-11T20:34:12.408Z,,0,,,NaN,,,,,,false,,,,1812975.8000001907,1812975.8000001907,,1812975.700000286,,1812829.209,8,400,,,
sequence,flow.Sequence,4_4,2023-09-11T20:34:12.409Z,,0,,,6625.842000190634,completion,,,,,false,,,,1812975.9000000954,1812975.8000001907,1806333.242,1806506.5999999046,1806349.958,1812829.209,8,400,,,
trial,html.Screen,4_5_0,2023-09-11T20:34:19.965Z,,0,1,,7702.790999999968,response,ISIC_4843102.JPG,4,ISIC_7906421.JPG,ISIC_7906421.JPG,false,0,keypress(z),500,1820532.200000286,1820532,1812812.543,1812976,1812829.209,1820377.222,8,400,6,,ISIC_4843102.JPG
break,html.Screen,4_5_1,2023-09-11T20:34:19.965Z,,0,,,NaN,,,,,,false,,,,1820532.5999999046,1820532.5,,1820532.200000286,,1820377.222,8,400,,,
break_continue,html.Screen,4_5_2,2023-09-11T20:34:19.966Z,,0,,,NaN,,,,,,false,,,,1820532.9000000954,1820532.8000001907,,1820532.700000286,,1820377.222,8,400,,,
sequence,flow.Sequence,4_5,2023-09-11T20:34:19.966Z,,0,,,7703.591000190703,completion,,,,,false,,,,1820533,1820532.8000001907,1812812.543,1812976,1812829.209,1820377.222,8,400,,,
trial,html.Screen,4_6_0,2023-09-11T20:34:25.889Z,,0,1,,6077.8779999045655,response,ISIC_3819893.JPG,6,ISIC_0002821.JPG,ISIC_3819893.JPG,false,1,keypress(m),500,1826455.3000001907,1826455.0999999046,1820360.564,1820533.200000286,1820377.222,1826305.52,8,400,7,,ISIC_0002821.JPG
break,html.Screen,4_6_1,2023-09-11T20:34:25.890Z,,0,,,NaN,,,,,,false,,,,1826456,1826455.700000286,,1826455.5,,1826305.52,8,400,,,
break_continue,html.Screen,4_6_2,2023-09-11T20:34:25.890Z,,0,,,NaN,,,,,,false,,,,1826456.3000001907,1826456.3000001907,,1826456.0999999046,,1826305.52,8,400,,,
sequence,flow.Sequence,4_6,2023-09-11T20:34:25.890Z,,0,,,6079.078000190668,completion,,,,,false,,,,1826456.4000000954,1826456.3000001907,1820360.564,1820533.0999999046,1820377.222,1826305.52,8,400,,,
trial,html.Screen,4_7_0,2023-09-11T20:34:35.284Z,,0,1,,9544.579999904614,response,ISIC_3352962.JPG,5,ISIC_0065746.JPG,ISIC_0065746.JPG,false,0,keypress(z),500,1835850.0999999046,1835850.0999999046,1826288.84,1826456.5,1826305.52,1835707.171,8,400,8,,ISIC_3352962.JPG
break,html.Screen,4_7_1,2023-09-11T20:34:35.285Z,,0,,,NaN,,,,,,false,,,,1835850.5999999046,1835850.5,,1835850.3000001907,,1835707.171,8,400,,,
break_continue,html.Screen,4_7_2,2023-09-11T20:34:35.285Z,,0,,,NaN,,,,,,false,,,,1835850.8000001907,1835850.700000286,,1835850.700000286,,1835707.171,8,400,,,
sequence,flow.Sequence,4_7,2023-09-11T20:34:35.285Z,,0,,,9545.180000286084,completion,,,,,false,,,,1835850.9000000954,1835850.700000286,1826288.84,1826456.5,1826305.52,1835707.171,8,400,,,
trial,html.Screen,4_8_0,2023-09-11T20:34:40.999Z,,0,1,,5857.328999999911,response,ISIC_9944671.JPG,5,ISIC_0292775.JPG,ISIC_9944671.JPG,false,1,keypress(m),500,1841564.8000001907,1841564.5,1835690.469,1835851,1835707.171,1841418.326,8,400,9,,ISIC_0292775.JPG
break,html.Screen,4_8_1,2023-09-11T20:34:41.000Z,,0,,,NaN,,,,,,false,,,,1841565.8000001907,1841565.3000001907,,1841565,,1841418.326,8,400,,,
break_continue,html.Screen,4_8_2,2023-09-11T20:34:41.000Z,,0,,,NaN,,,,,,false,,,,1841566.200000286,1841566,,1841565.9000000954,,1841418.326,8,400,,,
sequence,flow.Sequence,4_8,2023-09-11T20:34:41.000Z,,0,,,5858.828999999911,completion,,,,,false,,,,1841566.3000001907,1841566,1835690.469,1835850.9000000954,1835707.171,1841418.326,8,400,,,
trial,html.Screen,4_9_0,2023-09-11T20:34:45.307Z,,0,1,,4454.47400019085,response,ISIC_0069952.JPG,5,ISIC_0026475.JPG,ISIC_0026475.JPG,false,0,keypress(z),500,1845873,1845872.8000001907,1841401.684,1841566.5,1841418.326,1845726.677,8,400,10,,ISIC_0069952.JPG
break,html.Screen,4_9_1,2023-09-11T20:34:45.308Z,,0,,,NaN,,,,,,false,,,,1845873.700000286,1845873.5,,1845873.0999999046,,1845726.677,8,400,,,
break_continue,html.Screen,4_9_2,2023-09-11T20:34:45.308Z,,0,,,NaN,,,,,,false,,,,1845874,1845873.9000000954,,1845873.8000001907,,1845726.677,8,400,,,
sequence,flow.Sequence,4_9,2023-09-11T20:34:45.308Z,,0,,,4455.574000095483,completion,,,,,false,,,,1845874.0999999046,1845873.9000000954,1841401.684,1841566.4000000954,1841418.326,1845726.677,8,400,,,
trial,html.Screen,4_10_0,2023-09-11T20:34:53.998Z,,0,1,,8837.323000000091,response,ISIC_3301933.JPG,4,ISIC_3635014.JPG,ISIC_3301933.JPG,false,1,keypress(m),500,1854564.0999999046,1854564,1845709.949,1845874.200000286,1845726.677,1854426.845,8,400,11,,ISIC_3635014.JPG
break,html.Screen,4_10_1,2023-09-11T20:34:53.998Z,,0,,,NaN,,,,,,false,,,,1854564.5,1854564.5,,1854564.200000286,,1854426.845,8,400,,,
break_continue,html.Screen,4_10_2,2023-09-11T20:34:53.999Z,,0,,,NaN,,,,,,false,,,,1854564.700000286,1854564.700000286,,1854564.5,,1854426.845,8,400,,,
sequence,flow.Sequence,4_10,2023-09-11T20:34:53.999Z,,0,,,8838.023000286194,completion,,,,,false,,,,1854564.700000286,1854564.700000286,1845709.949,1845874.200000286,1845726.677,1854426.845,8,400,,,
trial,html.Screen,4_11_0,2023-09-11T20:35:00.816Z,,0,1,,6954.955000190763,response,ISIC_0028397.JPG,4,ISIC_8287726.JPG,ISIC_0028397.JPG,false,1,keypress(m),500,1861382,1861381.8000001907,1854410.261,1854564.8000001907,1854426.845,1861240.166,8,400,12,,ISIC_8287726.JPG
break,html.Screen,4_11_1,2023-09-11T20:35:00.816Z,,0,,,NaN,,,,,,false,,,,1861382.3000001907,1861382.3000001907,,1861382,,1861240.166,8,400,,,
break_continue,html.Screen,4_11_2,2023-09-11T20:35:00.816Z,,0,,,NaN,,,,,,false,,,,1861382.5,1861382.4000000954,,1861382.4000000954,,1861240.166,8,400,,,
sequence,flow.Sequence,4_11,2023-09-11T20:35:00.817Z,,0,,,6955.555000095395,completion,,,,,false,,,,1861382.5999999046,1861382.4000000954,1854410.261,1854564.8000001907,1854426.845,1861240.166,8,400,,,
trial,html.Screen,4_12_0,2023-09-11T20:35:05.271Z,,0,1,,4596.734000095399,response,ISIC_0000413.JPG,4,ISIC_5116614.JPG,ISIC_0000413.JPG,false,1,keypress(m),500,1865837.0999999046,1865836.9000000954,1861223.58,1861382.5999999046,1861240.166,1865682.086,8,400,13,,ISIC_5116614.JPG
break,html.Screen,4_12_1,2023-09-11T20:35:05.272Z,,0,,,NaN,,,,,,false,,,,1865837.5999999046,1865837.5,,1865837.200000286,,1865682.086,8,400,,,
break_continue,html.Screen,4_12_2,2023-09-11T20:35:05.272Z,,0,,,NaN,,,,,,false,,,,1865837.8000001907,1865837.8000001907,,1865837.700000286,,1865682.086,8,400,,,
sequence,flow.Sequence,4_12,2023-09-11T20:35:05.272Z,,0,,,4597.6340001907665,completion,,,,,false,,,,1865837.9000000954,1865837.8000001907,1861223.58,1861382.5999999046,1861240.166,1865682.086,8,400,,,
trial,html.Screen,4_13_0,2023-09-11T20:35:08.555Z,,0,1,,3438.0139999047387,response,ISIC_0030769.JPG,6,ISIC_2410240.JPG,ISIC_0030769.JPG,false,1,keypress(m),500,1869120.5,1869120.0999999046,1865665.441,1865838,1865682.086,1868971.841,8,400,14,,ISIC_2410240.JPG
break,html.Screen,4_13_1,2023-09-11T20:35:08.556Z,,0,,,NaN,,,,,,false,,,,1869121.9000000954,1869121.5999999046,,1869120.9000000954,,1868971.841,8,400,,,
break_continue,html.Screen,4_13_2,2023-09-11T20:35:08.556Z,,0,,,NaN,,,,,,false,,,,1869122.5,1869122.3000001907,,1869122,,1868971.841,8,400,,,
sequence,flow.Sequence,4_13,2023-09-11T20:35:08.557Z,,0,,,3440.214000190841,completion,,,,,false,,,,1869122.700000286,1869122.3000001907,1865665.441,1865838,1865682.086,1868971.841,8,400,,,
trial,html.Screen,4_14_0,2023-09-11T20:35:11.743Z,,0,1,,3337.0590000953525,response,ISIC_0845105.JPG,5,ISIC_1216698.JPG,ISIC_1216698.JPG,false,0,keypress(z),500,1872309,1872308.9000000954,1868955.29,1869122.8000001907,1868971.841,1872161.405,8,400,15,,ISIC_0845105.JPG
break,html.Screen,4_14_1,2023-09-11T20:35:11.743Z,,0,,,NaN,,,,,,false,,,,1872309.5,1872309.4000000954,,1872309.0999999046,,1872161.405,8,400,,,
break_continue,html.Screen,4_14_2,2023-09-11T20:35:11.744Z,,0,,,NaN,,,,,,false,,,,1872309.5999999046,1872309.5,,1872309.5,,1872161.405,8,400,,,
sequence,flow.Sequence,4_14,2023-09-11T20:35:11.744Z,,0,,,3337.658999999985,completion,,,,,false,,,,1872309.700000286,1872309.5,1868955.29,1869122.8000001907,1868971.841,1872161.405,8,400,,,
trial,html.Screen,4_15_0,2023-09-11T20:35:14.914Z,,0,1,,3317.9950000953395,response,ISIC_0067097.JPG,5,ISIC_2974214.JPG,ISIC_0067097.JPG,false,1,keypress(m),500,1875479.5,1875479.4000000954,1872144.756,1872309.700000286,1872161.405,1875334.245,8,400,16,,ISIC_2974214.JPG
break,html.Screen,4_15_1,2023-09-11T20:35:14.914Z,,0,,,NaN,,,,,,false,,,,1875480,1875479.9000000954,,1875479.5999999046,,1875334.245,8,400,,,
break_continue,html.Screen,4_15_2,2023-09-11T20:35:14.914Z,,0,,,NaN,,,,,,false,,,,1875480.0999999046,1875480,,1875480,,1875334.245,8,400,,,
sequence,flow.Sequence,4_15,2023-09-11T20:35:14.914Z,,0,,,3318.594999999972,completion,,,,,false,,,,1875480.200000286,1875480,1872144.756,1872309.700000286,1872161.405,1875334.245,8,400,,,
trial,html.Screen,4_16_0,2023-09-11T20:35:19.686Z,,0,1,,4917.9550002859905,response,ISIC_8773478.JPG,4,ISIC_2597678.JPG,ISIC_2597678.JPG,false,0,keypress(z),500,1880252.3000001907,1880252.200000286,1875317.472,1875480.200000286,1875334.245,1880110.136,8,400,17,,ISIC_8773478.JPG
break,html.Screen,4_16_1,2023-09-11T20:35:19.687Z,,0,,,NaN,,,,,,false,,,,1880252.8000001907,1880252.700000286,,1880252.4000000954,,1880110.136,8,400,,,
break_continue,html.Screen,4_16_2,2023-09-11T20:35:19.687Z,,0,,,NaN,,,,,,false,,,,1880253,1880252.9000000954,,1880252.8000001907,,1880110.136,8,400,,,
sequence,flow.Sequence,4_16,2023-09-11T20:35:19.687Z,,0,,,4918.655000095256,completion,,,,,false,,,,1880253,1880252.9000000954,1875317.472,1875480.200000286,1875334.245,1880110.136,8,400,,,
trial,html.Screen,4_17_0,2023-09-11T20:35:24.105Z,,0,1,,4560.064000286162,response,ISIC_8133871.JPG,5,ISIC_3582787.JPG,ISIC_3582787.JPG,false,0,keypress(z),500,1884670.5,1884670.200000286,1880093.415,1880253.0999999046,1880110.136,1884518.771,8,400,18,,ISIC_8133871.JPG
break,html.Screen,4_17_1,2023-09-11T20:35:24.106Z,,0,,,NaN,,,,,,false,,,,1884670.9000000954,1884670.8000001907,,1884670.5,,1884518.771,8,400,,,
break_continue,html.Screen,4_17_2,2023-09-11T20:35:24.106Z,,0,,,NaN,,,,,,false,,,,1884671.200000286,1884671.200000286,,1884671.0999999046,,1884518.771,8,400,,,
sequence,flow.Sequence,4_17,2023-09-11T20:35:24.106Z,,0,,,4561.064000286162,completion,,,,,false,,,,1884671.4000000954,1884671.200000286,1880093.415,1880253,1880110.136,1884518.771,8,400,,,
trial,html.Screen,4_18_0,2023-09-11T20:35:27.308Z,,0,1,,3354.529000190785,response,ISIC_4174592.JPG,5,ISIC_0014922.JPG,ISIC_0014922.JPG,false,0,keypress(z),500,1887873.3000001907,1887873.3000001907,1884502.157,1884671.4000000954,1884518.771,1887724.974,8,400,19,,ISIC_4174592.JPG
break,html.Screen,4_18_1,2023-09-11T20:35:27.308Z,,0,,,NaN,,,,,,false,,,,1887873.700000286,1887873.5999999046,,1887873.4000000954,,1887724.974,8,400,,,
break_continue,html.Screen,4_18_2,2023-09-11T20:35:27.309Z,,0,,,NaN,,,,,,false,,,,1887873.9000000954,1887873.9000000954,,1887873.8000001907,,1887724.974,8,400,,,
sequence,flow.Sequence,4_18,2023-09-11T20:35:27.309Z,,0,,,3355.1290000954177,completion,,,,,false,,,,1887874,1887873.9000000954,1884502.157,1884671.4000000954,1884518.771,1887724.974,8,400,,,
trial,html.Screen,4_19_0,2023-09-11T20:35:31.774Z,,0,1,,4614.526000000071,response,ISIC_0073156.JPG,5,ISIC_4964478.JPG,ISIC_0073156.JPG,false,1,keypress(m),500,1892339.5999999046,1892339.5,1887708.407,1887874,1887724.974,1892183.669,8,400,20,,ISIC_4964478.JPG
break,html.Screen,4_19_1,2023-09-11T20:35:31.775Z,,0,,,NaN,,,,,,false,,,,1892340,1892339.9000000954,,1892339.700000286,,1892183.669,8,400,,,
break_continue,html.Screen,4_19_2,2023-09-11T20:35:31.775Z,,0,,,NaN,,,,,,false,,,,1892340.200000286,1892340.0999999046,,1892340.0999999046,,1892183.669,8,400,,,
sequence,flow.Sequence,4_19,2023-09-11T20:35:31.775Z,,0,,,4615.125999904703,completion,,,,,false,,,,1892340.3000001907,1892340.0999999046,1887708.407,1887874,1887724.974,1892183.669,8,400,,,
trial,html.Screen,4_20_0,2023-09-11T20:35:41.793Z,,0,1,,10174.13100019074,response,ISIC_3666219.JPG,6,ISIC_0025305.JPG,ISIC_0025305.JPG,false,0,keypress(z),500,1902358,1902357.8000001907,1892166.991,1892340.3000001907,1892183.669,1902203.152,8,400,21,,ISIC_3666219.JPG
break,html.Screen,4_20_1,2023-09-11T20:35:41.793Z,,0,,,NaN,,,,,,false,,,,1902358.4000000954,1902358.3000001907,,1902358.0999999046,,1902203.152,8,400,,,
break_continue,html.Screen,4_20_2,2023-09-11T20:35:41.793Z,,0,,,NaN,,,,,,false,,,,1902358.5,1902358.5,,1902358.4000000954,,1902203.152,8,400,,,
sequence,flow.Sequence,4_20,2023-09-11T20:35:41.793Z,,0,,,10174.831000000006,completion,,,,,false,,,,1902358.5999999046,1902358.5,1892166.991,1892340.3000001907,1892183.669,1902203.152,8,400,,,
trial,html.Screen,4_21_0,2023-09-11T20:35:47.699Z,,0,1,,6060.748000095366,response,ISIC_2129020.JPG,4,ISIC_9337870.JPG,ISIC_9337870.JPG,false,0,keypress(z),500,1908264,1908263.9000000954,1902186.659,1902358.700000286,1902203.152,1908114.81,8,400,22,,ISIC_2129020.JPG
break,html.Screen,4_21_1,2023-09-11T20:35:47.699Z,,0,,,NaN,,,,,,false,,,,1908264.4000000954,1908264.4000000954,,1908264.0999999046,,1908114.81,8,400,,,
break_continue,html.Screen,4_21_2,2023-09-11T20:35:47.699Z,,0,,,NaN,,,,,,false,,,,1908264.5999999046,1908264.5999999046,,1908264.5,,1908114.81,8,400,,,
sequence,flow.Sequence,4_21,2023-09-11T20:35:47.699Z,,0,,,6061.447999904631,completion,,,,,false,,,,1908264.8000001907,1908264.5999999046,1902186.659,1902358.5999999046,1902203.152,1908114.81,8,400,,,
trial,html.Screen,4_22_0,2023-09-11T20:35:51.669Z,,0,1,,4119.090000095312,response,ISIC_0054655.JPG,5,ISIC_4620053.JPG,ISIC_4620053.JPG,false,0,keypress(z),500,1912234,1912233.9000000954,1908098.073,1908264.9000000954,1908114.81,1912089.084,8,400,23,,ISIC_0054655.JPG
break,html.Screen,4_22_1,2023-09-11T20:35:51.669Z,,0,,,NaN,,,,,,false,,,,1912234.700000286,1912234.5,,1912234.0999999046,,1912089.084,8,400,,,
break_continue,html.Screen,4_22_2,2023-09-11T20:35:51.670Z,,0,,,NaN,,,,,,false,,,,1912235.0999999046,1912234.9000000954,,1912234.8000001907,,1912089.084,8,400,,,
sequence,flow.Sequence,4_22,2023-09-11T20:35:51.670Z,,0,,,4120.090000095312,completion,,,,,false,,,,1912235.200000286,1912234.9000000954,1908098.073,1908264.9000000954,1908114.81,1912089.084,8,400,,,
trial,html.Screen,4_23_0,2023-09-11T20:35:56.360Z,,0,1,,4836.316000095336,response,ISIC_5952650.JPG,5,ISIC_0597218.JPG,ISIC_5952650.JPG,false,1,keypress(m),500,1916925.700000286,1916925.4000000954,1912072.355,1912235.200000286,1912089.084,1916781.6,8,400,24,,ISIC_0597218.JPG
break,html.Screen,4_23_1,2023-09-11T20:35:56.362Z,,0,,,NaN,,,,,,false,,,,1916927.3000001907,1916926.8000001907,,1916926,,1916781.6,8,400,,,
break_continue,html.Screen,4_23_2,2023-09-11T20:35:56.363Z,,0,,,NaN,,,,,,false,,,,1916928,1916927.8000001907,,1916927.5,,1916781.6,8,400,,,
sequence,flow.Sequence,4_23,2023-09-11T20:35:56.363Z,,0,,,4838.716000190703,completion,,,,,false,,,,1916928.5,1916927.8000001907,1912072.355,1912235.200000286,1912089.084,1916781.6,8,400,,,
trial,html.Screen,4_24_0,2023-09-11T20:36:01.441Z,,0,1,,5224.300000095274,response,ISIC_0030237.JPG,5,ISIC_0000313.JPG,ISIC_0000313.JPG,false,0,keypress(z),500,1922006.0999999046,1922005.9000000954,1916764.868,1916928.700000286,1916781.6,1921858.163,8,400,25,,ISIC_0030237.JPG
break,html.Screen,4_24_1,2023-09-11T20:36:01.441Z,,0,,,NaN,,,,,,false,,,,1922006.8000001907,1922006.5,,1922006.200000286,,1921858.163,8,400,,,
break_continue,html.Screen,4_24_2,2023-09-11T20:36:01.442Z,,0,,,NaN,,,,,,false,,,,1922007.0999999046,1922007.0999999046,,1922006.9000000954,,1921858.163,8,400,,,
sequence,flow.Sequence,4_24,2023-09-11T20:36:01.442Z,,0,,,5225.499999904539,completion,,,,,false,,,,1922007.200000286,1922007.0999999046,1916764.868,1916928.700000286,1916781.6,1921858.163,8,400,,,
trial,html.Screen,4_25_0,2023-09-11T20:36:05.735Z,,0,1,,4442.237000095425,response,ISIC_4746361.JPG,4,ISIC_1197584.JPG,ISIC_1197584.JPG,false,0,keypress(z),500,1926300.4000000954,1926300.4000000954,1921841.423,1922007.3000001907,1921858.163,1926149.762,8,400,26,,ISIC_4746361.JPG
break,html.Screen,4_25_1,2023-09-11T20:36:05.736Z,,0,,,NaN,,,,,,false,,,,1926300.9000000954,1926300.700000286,,1926300.5,,1926149.762,8,400,,,
break_continue,html.Screen,4_25_2,2023-09-11T20:36:05.736Z,,0,,,NaN,,,,,,false,,,,1926301,1926301,,1926300.9000000954,,1926149.762,8,400,,,
sequence,flow.Sequence,4_25,2023-09-11T20:36:05.736Z,,0,,,4442.837000000058,completion,,,,,false,,,,1926301.0999999046,1926301,1921841.423,1922007.3000001907,1921858.163,1926149.762,8,400,,,
trial,html.Screen,4_26_0,2023-09-11T20:36:11.546Z,,0,1,,5961.337999904528,response,ISIC_5647554.JPG,5,ISIC_5476463.JPG,ISIC_5476463.JPG,false,0,keypress(z),500,1932111.3000001907,1932111.0999999046,1926133.183,1926301.0999999046,1926149.762,1931961.122,8,400,27,,ISIC_5647554.JPG
break,html.Screen,4_26_1,2023-09-11T20:36:11.547Z,,0,,,NaN,,,,,,false,,,,1932112,1932111.9000000954,,1932111.5,,1931961.122,8,400,,,
break_continue,html.Screen,4_26_2,2023-09-11T20:36:11.547Z,,0,,,NaN,,,,,,false,,,,1932112.3000001907,1932112.200000286,,1932112.0999999046,,1931961.122,8,400,,,
sequence,flow.Sequence,4_26,2023-09-11T20:36:11.547Z,,0,,,5962.438000285998,completion,,,,,false,,,,1932112.5,1932112.200000286,1926133.183,1926301.0999999046,1926149.762,1931961.122,8,400,,,
trial,html.Screen,4_27_0,2023-09-11T20:36:19.278Z,,0,1,,7881.878000000026,response,ISIC_1655513.JPG,5,ISIC_9339756.JPG,ISIC_9339756.JPG,false,0,keypress(z),500,1939843.3000001907,1939843,1931944.559,1932112.5,1931961.122,1939692.829,8,400,28,,ISIC_1655513.JPG
break,html.Screen,4_27_1,2023-09-11T20:36:19.279Z,,0,,,NaN,,,,,,false,,,,1939844.0999999046,1939843.9000000954,,1939843.5,,1939692.829,8,400,,,
break_continue,html.Screen,4_27_2,2023-09-11T20:36:19.279Z,,0,,,NaN,,,,,,false,,,,1939844.5,1939844.4000000954,,1939844.200000286,,1939692.829,8,400,,,
sequence,flow.Sequence,4_27,2023-09-11T20:36:19.279Z,,0,,,7883.2780000953935,completion,,,,,false,,,,1939844.700000286,1939844.4000000954,1931944.559,1932112.5,1931961.122,1939692.829,8,400,,,
trial,html.Screen,4_28_0,2023-09-11T20:36:25.049Z,,0,1,,5921.571000095457,response,ISIC_0026089.JPG,5,ISIC_0014684.JPG,ISIC_0026089.JPG,false,1,keypress(m),500,1945614.5,1945614.4000000954,1939676.17,1939844.9000000954,1939692.829,1945470.789,8,400,29,,ISIC_0014684.JPG
break,html.Screen,4_28_1,2023-09-11T20:36:25.050Z,,0,,,NaN,,,,,,false,,,,1945615,1945614.9000000954,,1945614.5999999046,,1945470.789,8,400,,,
break_continue,html.Screen,4_28_2,2023-09-11T20:36:25.050Z,,0,,,NaN,,,,,,false,,,,1945615.4000000954,1945615.3000001907,,1945615.0999999046,,1945470.789,8,400,,,
sequence,flow.Sequence,4_28,2023-09-11T20:36:25.050Z,,0,,,5922.471000190824,completion,,,,,false,,,,1945615.5,1945615.3000001907,1939676.17,1939844.8000001907,1939692.829,1945470.789,8,400,,,
trial,html.Screen,4_29_0,2023-09-11T20:36:30.076Z,,0,1,,5170.911000285996,response,ISIC_8306983.JPG,5,ISIC_0011350.JPG,ISIC_8306983.JPG,false,1,keypress(m),500,1950641.8000001907,1950641.700000286,1945453.951,1945615.5999999046,1945470.789,1950497.133,8,400,30,,ISIC_0011350.JPG
break,html.Screen,4_29_1,2023-09-11T20:36:30.077Z,,0,,,NaN,,,,,,false,,,,1950642.200000286,1950642.0999999046,,1950641.9000000954,,1950497.133,8,400,,,
break_continue,html.Screen,4_29_2,2023-09-11T20:36:30.077Z,,0,,,NaN,,,,,,false,,,,1950642.4000000954,1950642.3000001907,,1950642.3000001907,,1950497.133,8,400,,,
sequence,flow.Sequence,4_29,2023-09-11T20:36:30.077Z,,0,,,5171.511000190629,completion,,,,,false,,,,1950642.4000000954,1950642.3000001907,1945453.951,1945615.5999999046,1945470.789,1950497.133,8,400,,,
trial,html.Screen,4_30_0,2023-09-11T20:36:34.866Z,,0,1,,4934.267000095453,response,ISIC_0031013.JPG,5,ISIC_0027718.JPG,ISIC_0027718.JPG,false,0,keypress(z),500,1955431.5999999046,1955431.4000000954,1950480.51,1950642.5,1950497.133,1955289.878,8,400,31,,ISIC_0031013.JPG
break,html.Screen,4_30_1,2023-09-11T20:36:34.867Z,,0,,,NaN,,,,,,false,,,,1955432,1955431.9000000954,,1955431.5999999046,,1955289.878,8,400,,,
break_continue,html.Screen,4_30_2,2023-09-11T20:36:34.867Z,,0,,,NaN,,,,,,false,,,,1955432.200000286,1955432.0999999046,,1955432,,1955289.878,8,400,,,
sequence,flow.Sequence,4_30,2023-09-11T20:36:34.867Z,,0,,,4934.966999904718,completion,,,,,false,,,,1955432.3000001907,1955432.0999999046,1950480.51,1950642.5,1950497.133,1955289.878,8,400,,,
trial,html.Screen,4_31_0,2023-09-11T20:36:39.685Z,,0,1,,4960.621999999974,response,ISIC_3727059.JPG,5,ISIC_0033122.JPG,ISIC_0033122.JPG,false,0,keypress(z),500,1960250.700000286,1960250.5,1955273.27,1955432.3000001907,1955289.878,1960099.158,8,400,32,,ISIC_3727059.JPG
break,html.Screen,4_31_1,2023-09-11T20:36:39.686Z,,0,,,NaN,,,,,,false,,,,1960251.5,1960251.3000001907,,1960250.8000001907,,1960099.158,8,400,,,
break_continue,html.Screen,4_31_2,2023-09-11T20:36:39.686Z,,0,,,NaN,,,,,,false,,,,1960251.8000001907,1960251.5999999046,,1960251.5,,1960099.158,8,400,,,
sequence,flow.Sequence,4_31,2023-09-11T20:36:39.686Z,,0,,,4961.7219999046065,completion,,,,,false,,,,1960251.8000001907,1960251.5999999046,1955273.27,1955432.3000001907,1955289.878,1960099.158,8,400,,,
trial,html.Screen,4_32_0,2023-09-11T20:36:45.674Z,,0,1,,6140.242000095313,response,ISIC_8147542.JPG,5,ISIC_3679789.JPG,ISIC_8147542.JPG,false,1,keypress(m),500,1966239.5999999046,1966239.4000000954,1960082.438,1960251.9000000954,1960099.158,1966094.226,8,400,33,,ISIC_3679789.JPG
break,html.Screen,4_32_1,2023-09-11T20:36:45.675Z,,0,,,NaN,,,,,,false,,,,1966240.5999999046,1966240.3000001907,,1966239.9000000954,,1966094.226,8,400,,,
break_continue,html.Screen,4_32_2,2023-09-11T20:36:45.676Z,,0,,,NaN,,,,,,false,,,,1966241,1966240.9000000954,,1966240.700000286,,1966094.226,8,400,,,
sequence,flow.Sequence,4_32,2023-09-11T20:36:45.676Z,,0,,,6141.742000095313,completion,,,,,false,,,,1966241.3000001907,1966240.9000000954,1960082.438,1960251.9000000954,1960099.158,1966094.226,8,400,,,
trial,html.Screen,4_33_0,2023-09-11T20:36:50.960Z,,0,1,,5431.074000190711,response,ISIC_3234899.JPG,5,ISIC_3552318.JPG,ISIC_3234899.JPG,false,1,keypress(m),500,1971525.4000000954,1971525.3000001907,1966077.479,1966241.4000000954,1966094.226,1971371.112,8,400,34,,ISIC_3552318.JPG
break,html.Screen,4_33_1,2023-09-11T20:36:50.961Z,,0,,,NaN,,,,,,false,,,,1971526.3000001907,1971526,,1971525.5999999046,,1971371.112,8,400,,,
break_continue,html.Screen,4_33_2,2023-09-11T20:36:50.961Z,,0,,,NaN,,,,,,false,,,,1971526.5999999046,1971526.5,,1971526.4000000954,,1971371.112,8,400,,,
sequence,flow.Sequence,4_33,2023-09-11T20:36:50.961Z,,0,,,5432.273999999976,completion,,,,,false,,,,1971526.5999999046,1971526.5,1966077.479,1966241.4000000954,1966094.226,1971371.112,8,400,,,
trial,html.Screen,4_34_0,2023-09-11T20:36:54.648Z,,0,1,,3841.987999904668,response,ISIC_6052702.JPG,4,ISIC_0061359.JPG,ISIC_0061359.JPG,false,0,keypress(z),500,1975213.200000286,1975213.0999999046,1971354.372,1971526.700000286,1971371.112,1975061.698,8,400,35,,ISIC_6052702.JPG
break,html.Screen,4_34_1,2023-09-11T20:36:54.648Z,,0,,,NaN,,,,,,false,,,,1975213.8000001907,1975213.700000286,,1975213.3000001907,,1975061.698,8,400,,,
break_continue,html.Screen,4_34_2,2023-09-11T20:36:54.649Z,,0,,,NaN,,,,,,false,,,,1975214.200000286,1975214.0999999046,,1975213.9000000954,,1975061.698,8,400,,,
sequence,flow.Sequence,4_34,2023-09-11T20:36:54.649Z,,0,,,3842.987999904668,completion,,,,,false,,,,1975214.3000001907,1975214.0999999046,1971354.372,1971526.700000286,1971371.112,1975061.698,8,400,,,
trial,html.Screen,4_35_0,2023-09-11T20:36:59.914Z,,0,1,,5417.702000095276,response,ISIC_0028109.JPG,5,ISIC_0054220.JPG,ISIC_0054220.JPG,false,0,keypress(z),500,1980479.5999999046,1980479.4000000954,1975044.917,1975214.4000000954,1975061.698,1980338.546,8,400,36,,ISIC_0028109.JPG
break,html.Screen,4_35_1,2023-09-11T20:36:59.915Z,,0,,,NaN,,,,,,false,,,,1980480.700000286,1980480.5,,1980479.700000286,,1980338.546,8,400,,,
break_continue,html.Screen,4_35_2,2023-09-11T20:36:59.916Z,,0,,,NaN,,,,,,false,,,,1980481,1980481,,1980480.8000001907,,1980338.546,8,400,,,
sequence,flow.Sequence,4_35,2023-09-11T20:36:59.916Z,,0,,,5419.301999999909,completion,,,,,false,,,,1980481.200000286,1980481,1975044.917,1975214.4000000954,1975061.698,1980338.546,8,400,,,
trial,html.Screen,4_36_0,2023-09-11T20:37:04.910Z,,0,1,,5136.854000095278,response,ISIC_0010618.JPG,6,ISIC_0067390.JPG,ISIC_0010618.JPG,false,1,keypress(m),500,1985475.5999999046,1985475.4000000954,1980322.014,1980481.3000001907,1980338.546,1985331.791,8,400,37,,ISIC_0067390.JPG
break,html.Screen,4_36_1,2023-09-11T20:37:04.911Z,,0,,,NaN,,,,,,false,,,,1985476.3000001907,1985476.200000286,,1985475.8000001907,,1985331.791,8,400,,,
break_continue,html.Screen,4_36_2,2023-09-11T20:37:04.911Z,,0,,,NaN,,,,,,false,,,,1985476.5999999046,1985476.5,,1985476.4000000954,,1985331.791,8,400,,,
sequence,flow.Sequence,4_36,2023-09-11T20:37:04.911Z,,0,,,5137.953999999911,completion,,,,,false,,,,1985476.5999999046,1985476.5,1980322.014,1980481.3000001907,1980338.546,1985331.791,8,400,,,
trial,html.Screen,4_37_0,2023-09-11T20:37:09.073Z,,0,1,,4306.709000000032,response,ISIC_0028415.JPG,5,ISIC_0563516.JPG,ISIC_0028415.JPG,false,1,keypress(m),500,1989638.5999999046,1989638.5,1985315.094,1985476.700000286,1985331.791,1989489.707,8,400,38,,ISIC_0563516.JPG
break,html.Screen,4_37_1,2023-09-11T20:37:09.074Z,,0,,,NaN,,,,,,false,,,,1989639.3000001907,1989639.0999999046,,1989638.8000001907,,1989489.707,8,400,,,
break_continue,html.Screen,4_37_2,2023-09-11T20:37:09.074Z,,0,,,NaN,,,,,,false,,,,1989639.5999999046,1989639.5,,1989639.3000001907,,1989489.707,8,400,,,
sequence,flow.Sequence,4_37,2023-09-11T20:37:09.074Z,,0,,,4307.709000000032,completion,,,,,false,,,,1989639.700000286,1989639.5,1985315.094,1985476.700000286,1985331.791,1989489.707,8,400,,,
trial,html.Screen,4_38_0,2023-09-11T20:37:14.396Z,,0,1,,5471.493000286166,response,ISIC_0056228.JPG,5,ISIC_8843592.JPG,ISIC_0056228.JPG,false,1,keypress(m),500,1994961.3000001907,1994961.200000286,1989473.008,1989639.8000001907,1989489.707,1994816.737,8,400,39,,ISIC_8843592.JPG
break,html.Screen,4_38_1,2023-09-11T20:37:14.396Z,,0,,,NaN,,,,,,false,,,,1994961.8000001907,1994961.5999999046,,1994961.3000001907,,1994816.737,8,400,,,
break_continue,html.Screen,4_38_2,2023-09-11T20:37:14.397Z,,0,,,NaN,,,,,,false,,,,1994962.0999999046,1994962.0999999046,,1994961.9000000954,,1994816.737,8,400,,,
sequence,flow.Sequence,4_38,2023-09-11T20:37:14.397Z,,0,,,5472.392999904696,completion,,,,,false,,,,1994962.200000286,1994962.0999999046,1989473.008,1989639.8000001907,1989489.707,1994816.737,8,400,,,
trial,html.Screen,4_39_0,2023-09-11T20:37:19.310Z,,0,1,,5058.763000000035,response,ISIC_0055714.JPG,5,ISIC_2560463.JPG,ISIC_0055714.JPG,false,1,keypress(m),500,1999875.700000286,1999875.5,1994800.117,1994962.3000001907,1994816.737,1999726.293,8,400,40,,ISIC_2560463.JPG
break,html.Screen,4_39_1,2023-09-11T20:37:19.311Z,,0,,,NaN,,,,,,false,,,,1999876.3000001907,1999876.0999999046,,1999875.9000000954,,1999726.293,8,400,,,
break_continue,html.Screen,4_39_2,2023-09-11T20:37:19.311Z,,0,,,NaN,,,,,,false,,,,1999876.5999999046,1999876.5,,1999876.4000000954,,1999726.293,8,400,,,
sequence,flow.Sequence,4_39,2023-09-11T20:37:19.311Z,,0,,,5059.763000000035,completion,,,,,false,,,,1999876.700000286,1999876.5,1994800.117,1994962.3000001907,1994816.737,1999726.293,8,400,,,
trial,html.Screen,4_40_0,2023-09-11T20:37:23.938Z,,0,1,,4775.706999999937,response,ISIC_0001505.JPG,5,ISIC_0008621.JPG,ISIC_0001505.JPG,false,1,keypress(m),500,2004502.0999999046,2004502,1999709.764,1999876.8000001907,1999726.293,2004351.966,8,400,41,,ISIC_0008621.JPG
break,html.Screen,4_40_1,2023-09-11T20:37:23.939Z,,0,,,NaN,,,,,,false,,,,2004502.5,2004502.4000000954,,2004502.200000286,,2004351.966,8,400,,,
break_continue,html.Screen,4_40_2,2023-09-11T20:37:23.939Z,,0,,,NaN,,,,,,false,,,,2004502.700000286,2004502.5999999046,,2004502.5999999046,,2004351.966,8,400,,,
sequence,flow.Sequence,4_40,2023-09-11T20:37:23.939Z,,0,,,4776.306999904569,completion,,,,,false,,,,2004502.8000001907,2004502.5999999046,1999709.764,1999876.8000001907,1999726.293,2004351.966,8,400,,,
trial,html.Screen,4_41_0,2023-09-11T20:37:30.277Z,,0,1,,6488.9340000953525,response,ISIC_0014093.JPG,5,ISIC_0046405.JPG,ISIC_0046405.JPG,false,0,keypress(z),500,2010841,2010840.9000000954,2004335.252,2004502.8000001907,2004351.966,2010697.784,8,400,42,,ISIC_0014093.JPG
break,html.Screen,4_41_1,2023-09-11T20:37:30.278Z,,0,,,NaN,,,,,,false,,,,2010841.5999999046,2010841.5,,2010841.200000286,,2010697.784,8,400,,,
break_continue,html.Screen,4_41_2,2023-09-11T20:37:30.278Z,,0,,,NaN,,,,,,false,,,,2010841.9000000954,2010841.8000001907,,2010841.5999999046,,2010697.784,8,400,,,
sequence,flow.Sequence,4_41,2023-09-11T20:37:30.278Z,,0,,,6489.83400019072,completion,,,,,false,,,,2010842,2010841.8000001907,2004335.252,2004502.8000001907,2004351.966,2010697.784,8,400,,,
trial,html.Screen,4_42_0,2023-09-11T20:37:34.776Z,,0,1,,4642.216000000015,response,ISIC_5288404.JPG,5,ISIC_0065714.JPG,ISIC_0065714.JPG,false,0,keypress(z),500,2015340.0999999046,2015340,2010680.922,2010842.0999999046,2010697.784,2015189.72,8,400,43,,ISIC_5288404.JPG
break,html.Screen,4_42_1,2023-09-11T20:37:34.777Z,,0,,,NaN,,,,,,false,,,,2015340.5,2015340.5,,2015340.3000001907,,2015189.72,8,400,,,
break_continue,html.Screen,4_42_2,2023-09-11T20:37:34.777Z,,0,,,NaN,,,,,,false,,,,2015340.8000001907,2015340.8000001907,,2015340.700000286,,2015189.72,8,400,,,
sequence,flow.Sequence,4_42,2023-09-11T20:37:34.777Z,,0,,,4643.01600019075,completion,,,,,false,,,,2015340.9000000954,2015340.8000001907,2010680.922,2010842.0999999046,2010697.784,2015189.72,8,400,,,
trial,html.Screen,4_43_0,2023-09-11T20:37:41.115Z,,0,1,,6489.580000190763,response,ISIC_0027537.JPG,5,ISIC_2916754.JPG,ISIC_2916754.JPG,false,0,keypress(z),500,2021679.3000001907,2021679.3000001907,2015173.174,2015340.9000000954,2015189.72,2021535.468,8,400,44,,ISIC_0027537.JPG
break,html.Screen,4_43_1,2023-09-11T20:37:41.116Z,,0,,,NaN,,,,,,false,,,,2021679.700000286,2021679.700000286,,2021679.5,,2021535.468,8,400,,,
break_continue,html.Screen,4_43_2,2023-09-11T20:37:41.116Z,,0,,,NaN,,,,,,false,,,,2021680,2021679.9000000954,,2021679.8000001907,,2021535.468,8,400,,,
sequence,flow.Sequence,4_43,2023-09-11T20:37:41.116Z,,0,,,6490.180000095395,completion,,,,,false,,,,2021680,2021679.9000000954,2015173.174,2015340.9000000954,2015189.72,2021535.468,8,400,,,
trial,html.Screen,4_44_0,2023-09-11T20:37:46.877Z,,0,1,,5905.4320000952575,response,ISIC_5557806.JPG,6,ISIC_8773962.JPG,ISIC_8773962.JPG,false,0,keypress(z),500,2027441.3000001907,2027440.9000000954,2021518.694,2021680.0999999046,2021535.468,2027313.391,8,400,45,,ISIC_5557806.JPG
break,html.Screen,4_44_1,2023-09-11T20:37:46.879Z,,0,,,NaN,,,,,,false,,,,2027443.200000286,2027442.700000286,,2027441.700000286,,2027313.391,8,400,,,
break_continue,html.Screen,4_44_2,2023-09-11T20:37:46.880Z,,0,,,NaN,,,,,,false,,,,2027443.8000001907,2027443.5999999046,,2027443.3000001907,,2027313.391,8,400,,,
sequence,flow.Sequence,4_44,2023-09-11T20:37:46.880Z,,0,,,5908.131999904523,completion,,,,,false,,,,2027444.0999999046,2027443.5999999046,2021518.694,2021680.0999999046,2021535.468,2027313.391,8,400,,,
trial,html.Screen,4_45_0,2023-09-11T20:37:53.978Z,,0,1,,7228.509000095306,response,ISIC_8860929.JPG,6,ISIC_0000135.JPG,ISIC_8860929.JPG,false,1,keypress(m),500,2034542.3000001907,2034541.9000000954,2027296.589,2027444.200000286,2027313.391,2034393.793,8,400,46,,ISIC_0000135.JPG
break,html.Screen,4_45_1,2023-09-11T20:37:53.979Z,,0,,,NaN,,,,,,false,,,,2034543.4000000954,2034543.200000286,,2034542.5999999046,,2034393.793,8,400,,,
break_continue,html.Screen,4_45_2,2023-09-11T20:37:53.980Z,,0,,,NaN,,,,,,false,,,,2034543.700000286,2034543.5999999046,,2034543.5,,2034393.793,8,400,,,
sequence,flow.Sequence,4_45,2023-09-11T20:37:53.980Z,,0,,,7230.208999904571,completion,,,,,false,,,,2034543.9000000954,2034543.5999999046,2027296.589,2027444.0999999046,2027313.391,2034393.793,8,400,,,
trial,html.Screen,4_46_0,2023-09-11T20:37:58.782Z,,0,1,,4952.107000095304,response,ISIC_2975580.JPG,4,ISIC_5233226.JPG,ISIC_2975580.JPG,false,1,keypress(m),500,2039346.0999999046,2039345.9000000954,2034377.059,2034544,2034393.793,2039203.121,8,400,47,,ISIC_5233226.JPG
break,html.Screen,4_46_1,2023-09-11T20:37:58.783Z,,0,,,NaN,,,,,,false,,,,2039346.5999999046,2039346.5,,2039346.200000286,,2039203.121,8,400,,,
break_continue,html.Screen,4_46_2,2023-09-11T20:37:58.783Z,,0,,,NaN,,,,,,false,,,,2039346.9000000954,2039346.9000000954,,2039346.8000001907,,2039203.121,8,400,,,
sequence,flow.Sequence,4_46,2023-09-11T20:37:58.783Z,,0,,,4953.107000095304,completion,,,,,false,,,,2039347,2039346.9000000954,2034377.059,2034543.9000000954,2034393.793,2039203.121,8,400,,,
trial,html.Screen,4_47_0,2023-09-11T20:38:04.005Z,,0,1,,5365.679000190692,response,ISIC_0001149.JPG,4,ISIC_0009738.JPG,ISIC_0001149.JPG,false,1,keypress(m),500,2044569,2044568.8000001907,2039186.494,2039347.0999999046,2039203.121,2044413.242,8,400,48,,ISIC_0009738.JPG
break,html.Screen,4_47_1,2023-09-11T20:38:04.006Z,,0,,,NaN,,,,,,false,,,,2044569.5,2044569.4000000954,,2044569.0999999046,,2044413.242,8,400,,,
break_continue,html.Screen,4_47_2,2023-09-11T20:38:04.006Z,,0,,,NaN,,,,,,false,,,,2044569.8000001907,2044569.700000286,,2044569.5999999046,,2044413.242,8,400,,,
sequence,flow.Sequence,4_47,2023-09-11T20:38:04.006Z,,0,,,5366.579000286059,completion,,,,,false,,,,2044569.9000000954,2044569.700000286,2039186.494,2039347.0999999046,2039203.121,2044413.242,8,400,,,
trial,html.Screen,4_48_0,2023-09-11T20:38:10.477Z,,0,1,,6627.958000286017,response,ISIC_2844539.JPG,5,ISIC_0033644.JPG,ISIC_0033644.JPG,false,0,keypress(z),500,2051041.3000001907,2051041.200000286,2044396.613,2044569.9000000954,2044413.242,2050892.566,8,400,49,,ISIC_2844539.JPG
break,html.Screen,4_48_1,2023-09-11T20:38:10.478Z,,0,,,NaN,,,,,,false,,,,2051041.700000286,2051041.5999999046,,2051041.4000000954,,2050892.566,8,400,,,
break_continue,html.Screen,4_48_2,2023-09-11T20:38:10.478Z,,0,,,NaN,,,,,,false,,,,2051041.9000000954,2051041.9000000954,,2051041.700000286,,2050892.566,8,400,,,
sequence,flow.Sequence,4_48,2023-09-11T20:38:10.478Z,,0,,,6628.658000095282,completion,,,,,false,,,,2051042,2051041.9000000954,2044396.613,2044569.9000000954,2044413.242,2050892.566,8,400,,,
trial,html.Screen,4_49_0,2023-09-11T20:38:15.265Z,,0,1,,4935.334000095259,response,ISIC_6824842.JPG,4,ISIC_8007849.JPG,ISIC_8007849.JPG,false,0,keypress(z),500,2055829.200000286,2055827.9000000954,2050875.828,2051042.0999999046,2050892.566,2055685.205,8,400,50,,ISIC_6824842.JPG
break,html.Screen,4_49_1,2023-09-11T20:38:25.124Z,,0,,,9852.528999999864,timeout,,,,,false,,,,2065687.3000001907,2065687.200000286,2055668.531,2055829.9000000954,2055685.205,2065537.734,8,400,,,
break_continue,html.Screen,4_49_2,2023-09-11T20:38:27.897Z,,0,,,2910.4660002861638,response,,,,,false,continue,keypress(Space),,2068460.700000286,2068448.200000286,2065687.200000286,2065687.4000000954,2065537.734,2068309.816,8,400,,,
sequence,flow.Sequence,4_49,2023-09-11T20:38:27.898Z,,0,,,17555.634000285994,completion,,,,,false,,,,2068460.9000000954,2068448.200000286,2050875.828,2051042.0999999046,2050892.566,2068309.816,8,400,,,
trial,html.Screen,4_50_0,2023-09-11T20:38:32.900Z,,0,2,,5152.7839999045245,response,ISIC_0034092.JPG,6,ISIC_5807608.JPG,ISIC_0034092.JPG,false,1,keypress(m),500,2073462.8000001907,2073462.5999999046,2068293.061,2068461.0999999046,2068309.816,2073319.506,8,400,1,,ISIC_5807608.JPG
break,html.Screen,4_50_1,2023-09-11T20:38:32.900Z,,0,,,NaN,,,,,,false,,,,2073463.5999999046,2073463.4000000954,,2073463.0999999046,,2073319.506,8,400,,,
break_continue,html.Screen,4_50_2,2023-09-11T20:38:32.901Z,,0,,,NaN,,,,,,false,,,,2073463.9000000954,2073463.700000286,,2073463.700000286,,2073319.506,8,400,,,
sequence,flow.Sequence,4_50,2023-09-11T20:38:32.901Z,,0,,,5153.884000285994,completion,,,,,false,,,,2073464,2073463.700000286,2068293.061,2068461.0999999046,2068309.816,2073319.506,8,400,,,
trial,html.Screen,4_51_0,2023-09-11T20:38:36.599Z,,0,2,,3842.8940000953153,response,ISIC_2366727.JPG,6,ISIC_0055147.JPG,ISIC_0055147.JPG,false,0,keypress(z),500,2077162.5999999046,2077162.4000000954,2073302.805,2073464.0999999046,2073319.506,2077009.996,8,400,2,,ISIC_2366727.JPG
break,html.Screen,4_51_1,2023-09-11T20:38:36.600Z,,0,,,NaN,,,,,,false,,,,2077163.3000001907,2077163.0999999046,,2077162.700000286,,2077009.996,8,400,,,
break_continue,html.Screen,4_51_2,2023-09-11T20:38:36.600Z,,0,,,NaN,,,,,,false,,,,2077163.5,2077163.5,,2077163.4000000954,,2077009.996,8,400,,,
sequence,flow.Sequence,4_51,2023-09-11T20:38:36.600Z,,0,,,3843.993999999948,completion,,,,,false,,,,2077163.5999999046,2077163.5,2073302.805,2073464,2073319.506,2077009.996,8,400,,,
trial,html.Screen,4_52_0,2023-09-11T20:38:39.498Z,,0,2,,3051.003999999957,response,ISIC_8806357.JPG,5,ISIC_5503634.JPG,ISIC_5503634.JPG,false,0,keypress(z),500,2080061.200000286,2080061,2076993.411,2077163.700000286,2077009.996,2079915.628,8,400,3,,ISIC_8806357.JPG
break,html.Screen,4_52_1,2023-09-11T20:38:39.499Z,,0,,,NaN,,,,,,false,,,,2080061.9000000954,2080061.700000286,,2080061.4000000954,,2079915.628,8,400,,,
break_continue,html.Screen,4_52_2,2023-09-11T20:38:39.499Z,,0,,,NaN,,,,,,false,,,,2080062.5,2080062.3000001907,,2080062.200000286,,2079915.628,8,400,,,
sequence,flow.Sequence,4_52,2023-09-11T20:38:39.499Z,,0,,,3052.304000190692,completion,,,,,false,,,,2080062.5999999046,2080062.3000001907,2076993.411,2077163.700000286,2077009.996,2079915.628,8,400,,,
trial,html.Screen,4_53_0,2023-09-11T20:38:43.501Z,,0,2,,4149.072000286076,response,ISIC_0002613.JPG,5,ISIC_1922084.JPG,ISIC_1922084.JPG,false,0,keypress(z),500,2084064.700000286,2084064.700000286,2079899.048,2080062.700000286,2079915.628,2083923.489,8,400,4,,ISIC_0002613.JPG
break,html.Screen,4_53_1,2023-09-11T20:38:43.502Z,,0,,,NaN,,,,,,false,,,,2084065.3000001907,2084065.0999999046,,2084064.9000000954,,2083923.489,8,400,,,
break_continue,html.Screen,4_53_2,2023-09-11T20:38:43.502Z,,0,,,NaN,,,,,,false,,,,2084065.4000000954,2084065.4000000954,,2084065.3000001907,,2083923.489,8,400,,,
sequence,flow.Sequence,4_53,2023-09-11T20:38:43.502Z,,0,,,4149.772000095341,completion,,,,,false,,,,2084065.5,2084065.4000000954,2079899.048,2080062.700000286,2079915.628,2083923.489,8,400,,,
trial,html.Screen,4_54_0,2023-09-11T20:38:47.349Z,,0,2,,3988.411000095308,response,ISIC_0429825.JPG,4,ISIC_0024720.JPG,ISIC_0024720.JPG,false,0,keypress(z),500,2087911.9000000954,2087911.9000000954,2083906.744,2084065.5999999046,2083923.489,2087764.271,8,400,5,,ISIC_0429825.JPG
break,html.Screen,4_54_1,2023-09-11T20:38:47.349Z,,0,,,NaN,,,,,,false,,,,2087912.5,2087912.3000001907,,2087912.0999999046,,2087764.271,8,400,,,
break_continue,html.Screen,4_54_2,2023-09-11T20:38:47.349Z,,0,,,NaN,,,,,,false,,,,2087912.8000001907,2087912.700000286,,2087912.5999999046,,2087764.271,8,400,,,
sequence,flow.Sequence,4_54,2023-09-11T20:38:47.350Z,,0,,,3989.2110002860427,completion,,,,,false,,,,2087912.9000000954,2087912.700000286,2083906.744,2084065.5999999046,2083923.489,2087764.271,8,400,,,
trial,html.Screen,4_55_0,2023-09-11T20:38:52.013Z,,0,2,,4811.929000286153,response,ISIC_0033533.JPG,5,ISIC_0001126.JPG,ISIC_0033533.JPG,false,1,keypress(m),500,2092576.3000001907,2092576.200000286,2087747.548,2087913,2087764.271,2092423.383,8,400,6,,ISIC_0001126.JPG
break,html.Screen,4_55_1,2023-09-11T20:38:52.013Z,,0,,,NaN,,,,,,false,,,,2092576.8000001907,2092576.700000286,,2092576.5,,2092423.383,8,400,,,
break_continue,html.Screen,4_55_2,2023-09-11T20:38:52.014Z,,0,,,NaN,,,,,,false,,,,2092576.9000000954,2092576.9000000954,,2092576.8000001907,,2092423.383,8,400,,,
sequence,flow.Sequence,4_55,2023-09-11T20:38:52.014Z,,0,,,4812.629000095418,completion,,,,,false,,,,2092577,2092576.9000000954,2087747.548,2087913,2087764.271,2092423.383,8,400,,,
trial,html.Screen,4_56_0,2023-09-11T20:38:57.059Z,,0,2,,5198.9170001908205,response,ISIC_1484525.JPG,5,ISIC_7132685.JPG,ISIC_1484525.JPG,false,1,keypress(m),500,2097622.4000000954,2097622.3000001907,2092406.656,2092577,2092423.383,2097483.197,8,400,7,,ISIC_7132685.JPG
break,html.Screen,4_56_1,2023-09-11T20:38:57.060Z,,0,,,NaN,,,,,,false,,,,2097622.9000000954,2097622.8000001907,,2097622.5999999046,,2097483.197,8,400,,,
break_continue,html.Screen,4_56_2,2023-09-11T20:38:57.060Z,,0,,,NaN,,,,,,false,,,,2097623.200000286,2097623.200000286,,2097623.0999999046,,2097483.197,8,400,,,
sequence,flow.Sequence,4_56,2023-09-11T20:38:57.060Z,,0,,,5199.817000286188,completion,,,,,false,,,,2097623.3000001907,2097623.200000286,2092406.656,2092577,2092423.383,2097483.197,8,400,,,
trial,html.Screen,4_57_0,2023-09-11T20:39:01.158Z,,0,2,,4238.203000095207,response,ISIC_0033325.JPG,5,ISIC_0026113.JPG,ISIC_0033325.JPG,false,1,keypress(m),500,2101721.5,2101721.4000000954,2097466.514,2097623.3000001907,2097483.197,2101574.567,8,400,8,,ISIC_0026113.JPG
break,html.Screen,4_57_1,2023-09-11T20:39:01.159Z,,0,,,NaN,,,,,,false,,,,2101722,2101721.8000001907,,2101721.5999999046,,2101574.567,8,400,,,
break_continue,html.Screen,4_57_2,2023-09-11T20:39:01.159Z,,0,,,NaN,,,,,,false,,,,2101722.4000000954,2101722.200000286,,2101722.0999999046,,2101574.567,8,400,,,
sequence,flow.Sequence,4_57,2023-09-11T20:39:01.159Z,,0,,,4239.003000285942,completion,,,,,false,,,,2101722.4000000954,2101722.200000286,2097466.514,2097623.3000001907,2097483.197,2101574.567,8,400,,,
trial,html.Screen,4_58_0,2023-09-11T20:39:04.570Z,,0,2,,3558.2330001909286,response,ISIC_3586669.JPG,5,ISIC_0027928.JPG,ISIC_0027928.JPG,false,0,keypress(z),500,2105132.9000000954,2105132.8000001907,2101557.86,2101722.4000000954,2101574.567,2104997.782,8,400,9,,ISIC_3586669.JPG
break,html.Screen,4_58_1,2023-09-11T20:39:04.571Z,,0,,,NaN,,,,,,false,,,,2105134,2105133.5999999046,,2105133.200000286,,2104997.782,8,400,,,
break_continue,html.Screen,4_58_2,2023-09-11T20:39:04.571Z,,0,,,NaN,,,,,,false,,,,2105134.3000001907,2105134.200000286,,2105134,,2104997.782,8,400,,,
sequence,flow.Sequence,4_58,2023-09-11T20:39:04.571Z,,0,,,3559.633000286296,completion,,,,,false,,,,2105134.5,2105134.200000286,2101557.86,2101722.4000000954,2101574.567,2104997.782,8,400,,,
trial,html.Screen,4_59_0,2023-09-11T20:39:08.256Z,,0,2,,3821.717999999877,response,ISIC_2924968.JPG,6,ISIC_9655520.JPG,ISIC_9655520.JPG,false,0,keypress(z),500,2108819.5999999046,2108819.5,2104981.109,2105134.700000286,2104997.782,2108671.825,8,400,10,,ISIC_2924968.JPG
break,html.Screen,4_59_1,2023-09-11T20:39:08.257Z,,0,,,NaN,,,,,,false,,,,2108819.9000000954,2108819.9000000954,,2108819.700000286,,2108671.825,8,400,,,
break_continue,html.Screen,4_59_2,2023-09-11T20:39:08.257Z,,0,,,NaN,,,,,,false,,,,2108820.200000286,2108820.0999999046,,2108820.0999999046,,2108671.825,8,400,,,
sequence,flow.Sequence,4_59,2023-09-11T20:39:08.257Z,,0,,,3822.3179999045096,completion,,,,,false,,,,2108820.4000000954,2108820.0999999046,2104981.109,2105134.5999999046,2104997.782,2108671.825,8,400,,,
trial,html.Screen,4_60_0,2023-09-11T20:39:13.379Z,,0,2,,5270.774999904446,response,ISIC_5994286.JPG,6,ISIC_0065292.JPG,ISIC_0065292.JPG,false,0,keypress(z),500,2113942.8000001907,2113942.5999999046,2108654.995,2108820.4000000954,2108671.825,2113798.247,8,400,11,,ISIC_5994286.JPG
break,html.Screen,4_60_1,2023-09-11T20:39:13.380Z,,0,,,NaN,,,,,,false,,,,2113943.5,2113943.3000001907,,2113943,,2113798.247,8,400,,,
break_continue,html.Screen,4_60_2,2023-09-11T20:39:13.381Z,,0,,,NaN,,,,,,false,,,,2113943.9000000954,2113943.700000286,,2113943.5999999046,,2113798.247,8,400,,,
sequence,flow.Sequence,4_60,2023-09-11T20:39:13.381Z,,0,,,5271.875000285916,completion,,,,,false,,,,2113944,2113943.700000286,2108654.995,2108820.4000000954,2108671.825,2113798.247,8,400,,,
trial,html.Screen,4_61_0,2023-09-11T20:39:17.079Z,,0,2,,3843.9530002861284,response,ISIC_0064738.JPG,4,ISIC_6231450.JPG,ISIC_6231450.JPG,false,0,keypress(z),500,2117642.4000000954,2117642.200000286,2113781.722,2113944.0999999046,2113798.247,2117488.782,8,400,12,,ISIC_0064738.JPG
break,html.Screen,4_61_1,2023-09-11T20:39:17.079Z,,0,,,NaN,,,,,,false,,,,2117642.700000286,2117642.5999999046,,2117642.4000000954,,2117488.782,8,400,,,
break_continue,html.Screen,4_61_2,2023-09-11T20:39:17.080Z,,0,,,NaN,,,,,,false,,,,2117642.9000000954,2117642.9000000954,,2117642.700000286,,2117488.782,8,400,,,
sequence,flow.Sequence,4_61,2023-09-11T20:39:17.080Z,,0,,,3844.6530000953935,completion,,,,,false,,,,2117643,2117642.9000000954,2113781.722,2113944.0999999046,2113798.247,2117488.782,8,400,,,
trial,html.Screen,4_62_0,2023-09-11T20:39:23.115Z,,0,2,,6189.018000190612,response,ISIC_0057406.JPG,5,ISIC_0012054.JPG,ISIC_0057406.JPG,false,1,keypress(m),500,2123677.9000000954,2123677.8000001907,2117472.059,2117643,2117488.782,2123534.041,8,400,13,,ISIC_0012054.JPG
break,html.Screen,4_62_1,2023-09-11T20:39:23.115Z,,0,,,NaN,,,,,,false,,,,2123678.4000000954,2123678.3000001907,,2123678.0999999046,,2123534.041,8,400,,,
break_continue,html.Screen,4_62_2,2023-09-11T20:39:23.115Z,,0,,,NaN,,,,,,false,,,,2123678.5999999046,2123678.5,,2123678.4000000954,,2123534.041,8,400,,,
sequence,flow.Sequence,4_62,2023-09-11T20:39:23.115Z,,0,,,6189.717999999877,completion,,,,,false,,,,2123678.700000286,2123678.5,2117472.059,2117643,2117488.782,2123534.041,8,400,,,
trial,html.Screen,4_63_0,2023-09-11T20:39:26.607Z,,0,2,,3635.3590000951663,response,ISIC_9631669.JPG,5,ISIC_0033678.JPG,ISIC_0033678.JPG,false,0,keypress(z),500,2127169.5,2127169.4000000954,2123517.238,2123678.8000001907,2123534.041,2127024.014,8,400,14,,ISIC_9631669.JPG
break,html.Screen,4_63_1,2023-09-11T20:39:26.607Z,,0,,,NaN,,,,,,false,,,,2127170,2127169.8000001907,,2127169.5999999046,,2127024.014,8,400,,,
break_continue,html.Screen,4_63_2,2023-09-11T20:39:26.608Z,,0,,,NaN,,,,,,false,,,,2127170.200000286,2127170.200000286,,2127170,,2127024.014,8,400,,,
sequence,flow.Sequence,4_63,2023-09-11T20:39:26.608Z,,0,,,3636.159000285901,completion,,,,,false,,,,2127170.200000286,2127170.200000286,2123517.238,2123678.8000001907,2123534.041,2127024.014,8,400,,,
trial,html.Screen,4_64_0,2023-09-11T20:39:29.794Z,,0,2,,3332.186000286136,response,ISIC_0055513.JPG,5,ISIC_7896667.JPG,ISIC_0055513.JPG,false,1,keypress(m),500,2130356.4000000954,2130356.200000286,2127007.326,2127170.4000000954,2127024.014,2130213.549,8,400,15,,ISIC_7896667.JPG
break,html.Screen,4_64_1,2023-09-11T20:39:29.794Z,,0,,,NaN,,,,,,false,,,,2130357,2130356.8000001907,,2130356.5,,2130213.549,8,400,,,
break_continue,html.Screen,4_64_2,2023-09-11T20:39:29.795Z,,0,,,NaN,,,,,,false,,,,2130357.200000286,2130357.0999999046,,2130357,,2130213.549,8,400,,,
sequence,flow.Sequence,4_64,2023-09-11T20:39:29.795Z,,0,,,3333.085999904666,completion,,,,,false,,,,2130357.3000001907,2130357.0999999046,2127007.326,2127170.3000001907,2127024.014,2130213.549,8,400,,,
trial,html.Screen,4_65_0,2023-09-11T20:39:33.652Z,,0,2,,4001.151000285987,response,ISIC_3025889.JPG,5,ISIC_0060452.JPG,ISIC_0060452.JPG,false,0,keypress(z),500,2134214.9000000954,2134214.700000286,2130196.948,2130357.3000001907,2130213.549,2134071.054,8,400,16,,ISIC_3025889.JPG
break,html.Screen,4_65_1,2023-09-11T20:39:33.653Z,,0,,,NaN,,,,,,false,,,,2134215.4000000954,2134215.200000286,,2134215,,2134071.054,8,400,,,
break_continue,html.Screen,4_65_2,2023-09-11T20:39:33.653Z,,0,,,NaN,,,,,,false,,,,2134215.5999999046,2134215.5,,2134215.4000000954,,2134071.054,8,400,,,
sequence,flow.Sequence,4_65,2023-09-11T20:39:33.653Z,,0,,,4001.9509999998845,completion,,,,,false,,,,2134215.700000286,2134215.5,2130196.948,2130357.3000001907,2130213.549,2134071.054,8,400,,,
trial,html.Screen,4_66_0,2023-09-11T20:39:37.627Z,,0,2,,4118.346000095364,response,ISIC_0032244.JPG,5,ISIC_8428097.JPG,ISIC_0032244.JPG,false,1,keypress(m),500,2138189.5999999046,2138189.4000000954,2134054.437,2134215.700000286,2134071.054,2138045.632,8,400,17,,ISIC_8428097.JPG
break,html.Screen,4_66_1,2023-09-11T20:39:37.628Z,,0,,,NaN,,,,,,false,,,,2138190.8000001907,2138190.3000001907,,2138189.8000001907,,2138045.632,8,400,,,
break_continue,html.Screen,4_66_2,2023-09-11T20:39:37.629Z,,0,,,NaN,,,,,,false,,,,2138191.5,2138191.3000001907,,2138191,,2138045.632,8,400,,,
sequence,flow.Sequence,4_66,2023-09-11T20:39:37.629Z,,0,,,4120.246000190731,completion,,,,,false,,,,2138191.5999999046,2138191.3000001907,2134054.437,2134215.700000286,2134071.054,2138045.632,8,400,,,
trial,html.Screen,4_67_0,2023-09-11T20:39:44.559Z,,0,2,,7075.568000285886,response,ISIC_0024235.JPG,4,ISIC_0032005.JPG,ISIC_0024235.JPG,false,1,keypress(m),500,2145121.4000000954,2145121.200000286,2138028.918,2138191.8000001907,2138045.632,2144975.599,8,400,18,,ISIC_0032005.JPG
break,html.Screen,4_67_1,2023-09-11T20:39:44.559Z,,0,,,NaN,,,,,,false,,,,2145121.9000000954,2145121.9000000954,,2145121.5,,2144975.599,8,400,,,
break_continue,html.Screen,4_67_2,2023-09-11T20:39:44.560Z,,0,,,NaN,,,,,,false,,,,2145122.200000286,2145122.200000286,,2145122,,2144975.599,8,400,,,
sequence,flow.Sequence,4_67,2023-09-11T20:39:44.560Z,,0,,,7076.568000285886,completion,,,,,false,,,,2145122.4000000954,2145122.200000286,2138028.918,2138191.8000001907,2138045.632,2144975.599,8,400,,,
trial,html.Screen,4_68_0,2023-09-11T20:39:49.490Z,,0,2,,5076.601000286173,response,ISIC_3181358.JPG,5,ISIC_2108849.JPG,ISIC_2108849.JPG,false,0,keypress(z),500,2150052.3000001907,2150052.200000286,2144958.921,2145122.5,2144975.599,2149901.917,8,400,19,,ISIC_3181358.JPG
break,html.Screen,4_68_1,2023-09-11T20:39:49.490Z,,0,,,NaN,,,,,,false,,,,2150052.700000286,2150052.5999999046,,2150052.4000000954,,2149901.917,8,400,,,
break_continue,html.Screen,4_68_2,2023-09-11T20:39:49.490Z,,0,,,NaN,,,,,,false,,,,2150052.9000000954,2150052.9000000954,,2150052.8000001907,,2149901.917,8,400,,,
sequence,flow.Sequence,4_68,2023-09-11T20:39:49.491Z,,0,,,5077.301000095438,completion,,,,,false,,,,2150053.0999999046,2150052.9000000954,2144958.921,2145122.5,2144975.599,2149901.917,8,400,,,
trial,html.Screen,4_69_0,2023-09-11T20:39:55.428Z,,0,2,,6088.383000190835,response,ISIC_9626843.JPG,4,ISIC_0294399.JPG,ISIC_9626843.JPG,false,1,keypress(m),500,2155990.5,2155990.3000001907,2149885.292,2150053.0999999046,2149901.917,2155846.812,8,400,20,,ISIC_0294399.JPG
break,html.Screen,4_69_1,2023-09-11T20:39:55.428Z,,0,,,NaN,,,,,,false,,,,2155991,2155990.8000001907,,2155990.5999999046,,2155846.812,8,400,,,
break_continue,html.Screen,4_69_2,2023-09-11T20:39:55.429Z,,0,,,NaN,,,,,,false,,,,2155991.200000286,2155991.200000286,,2155991,,2155846.812,8,400,,,
sequence,flow.Sequence,4_69,2023-09-11T20:39:55.429Z,,0,,,6089.283000286203,completion,,,,,false,,,,2155991.4000000954,2155991.200000286,2149885.292,2150053.0999999046,2149901.917,2155846.812,8,400,,,
trial,html.Screen,4_70_0,2023-09-11T20:40:00.022Z,,0,2,,4737.088000095449,response,ISIC_0034044.JPG,5,ISIC_0068234.JPG,ISIC_0068234.JPG,false,0,keypress(z),500,2160584.0999999046,2160583.9000000954,2155830.073,2155991.4000000954,2155846.812,2160438.988,8,400,21,,ISIC_0034044.JPG
break,html.Screen,4_70_1,2023-09-11T20:40:00.022Z,,0,,,NaN,,,,,,false,,,,2160584.5,2160584.4000000954,,2160584.200000286,,2160438.988,8,400,,,
break_continue,html.Screen,4_70_2,2023-09-11T20:40:00.022Z,,0,,,NaN,,,,,,false,,,,2160584.8000001907,2160584.700000286,,2160584.5999999046,,2160438.988,8,400,,,
sequence,flow.Sequence,4_70,2023-09-11T20:40:00.022Z,,0,,,4737.888000286184,completion,,,,,false,,,,2160584.8000001907,2160584.700000286,2155830.073,2155991.4000000954,2155846.812,2160438.988,8,400,,,
trial,html.Screen,4_71_0,2023-09-11T20:40:03.919Z,,0,2,,4042.611999904737,response,ISIC_3685448.JPG,5,ISIC_0054988.JPG,ISIC_0054988.JPG,false,0,keypress(z),500,2164481.700000286,2164481.5999999046,2160422.366,2160584.9000000954,2160438.988,2164329.94,8,400,22,,ISIC_3685448.JPG
break,html.Screen,4_71_1,2023-09-11T20:40:03.920Z,,0,,,NaN,,,,,,false,,,,2164482.3000001907,2164482.0999999046,,2164481.8000001907,,2164329.94,8,400,,,
break_continue,html.Screen,4_71_2,2023-09-11T20:40:03.920Z,,0,,,NaN,,,,,,false,,,,2164482.5,2164482.4000000954,,2164482.3000001907,,2164329.94,8,400,,,
sequence,flow.Sequence,4_71,2023-09-11T20:40:03.920Z,,0,,,4043.4120000954717,completion,,,,,false,,,,2164482.5999999046,2164482.4000000954,2160422.366,2160584.9000000954,2160438.988,2164329.94,8,400,,,
trial,html.Screen,4_72_0,2023-09-11T20:40:09.169Z,,0,2,,5401.460000095423,response,ISIC_0025877.JPG,6,ISIC_0064180.JPG,ISIC_0064180.JPG,false,0,keypress(z),500,2169731.5999999046,2169731.4000000954,2164313.328,2164482.700000286,2164329.94,2169590.192,8,400,23,,ISIC_0025877.JPG
break,html.Screen,4_72_1,2023-09-11T20:40:09.170Z,,0,,,NaN,,,,,,false,,,,2169732.3000001907,2169732.200000286,,2169731.9000000954,,2169590.192,8,400,,,
break_continue,html.Screen,4_72_2,2023-09-11T20:40:09.170Z,,0,,,NaN,,,,,,false,,,,2169732.700000286,2169732.5999999046,,2169732.5,,2169590.192,8,400,,,
sequence,flow.Sequence,4_72,2023-09-11T20:40:09.170Z,,0,,,5402.659999904688,completion,,,,,false,,,,2169732.9000000954,2169732.5999999046,2164313.328,2164482.5999999046,2164329.94,2169590.192,8,400,,,
trial,html.Screen,4_73_0,2023-09-11T20:40:14.074Z,,0,2,,5045.907999904826,response,ISIC_7498132.JPG,5,ISIC_4965832.JPG,ISIC_7498132.JPG,false,1,keypress(m),500,2174636.200000286,2174636.0999999046,2169573.478,2169732.9000000954,2169590.192,2174483.145,8,400,24,,ISIC_4965832.JPG
break,html.Screen,4_73_1,2023-09-11T20:40:14.074Z,,0,,,NaN,,,,,,false,,,,2174636.700000286,2174636.5999999046,,2174636.200000286,,2174483.145,8,400,,,
break_continue,html.Screen,4_73_2,2023-09-11T20:40:14.074Z,,0,,,NaN,,,,,,false,,,,2174636.9000000954,2174636.9000000954,,2174636.8000001907,,2174483.145,8,400,,,
sequence,flow.Sequence,4_73,2023-09-11T20:40:14.075Z,,0,,,5046.708000095561,completion,,,,,false,,,,2174637,2174636.9000000954,2169573.478,2169732.9000000954,2169590.192,2174483.145,8,400,,,
trial,html.Screen,4_74_0,2023-09-11T20:40:21.199Z,,0,2,,7278.354999999981,response,ISIC_6460137.JPG,5,ISIC_0060222.JPG,ISIC_0060222.JPG,false,0,keypress(z),500,2181761.700000286,2181761.5,2174466.424,2174637.0999999046,2174483.145,2181613.645,8,400,25,,ISIC_6460137.JPG
break,html.Screen,4_74_1,2023-09-11T20:40:21.200Z,,0,,,NaN,,,,,,false,,,,2181762.200000286,2181762.0999999046,,2181761.8000001907,,2181613.645,8,400,,,
break_continue,html.Screen,4_74_2,2023-09-11T20:40:21.200Z,,0,,,NaN,,,,,,false,,,,2181762.4000000954,2181762.3000001907,,2181762.200000286,,2181613.645,8,400,,,
sequence,flow.Sequence,4_74,2023-09-11T20:40:21.200Z,,0,,,7279.155000190716,completion,,,,,false,,,,2181762.5,2181762.3000001907,2174466.424,2174637.0999999046,2174483.145,2181613.645,8,400,,,
trial,html.Screen,4_75_0,2023-09-11T20:40:24.578Z,,0,2,,3526.5550002860837,response,ISIC_7235128.JPG,6,ISIC_7131973.JPG,ISIC_7131973.JPG,false,0,keypress(z),500,2185140.3000001907,2185140.200000286,2181596.98,2181762.5999999046,2181613.645,2184986.825,8,400,26,,ISIC_7235128.JPG
break,html.Screen,4_75_1,2023-09-11T20:40:24.579Z,,0,,,NaN,,,,,,false,,,,2185141.3000001907,2185140.9000000954,,2185140.5999999046,,2184986.825,8,400,,,
break_continue,html.Screen,4_75_2,2023-09-11T20:40:24.579Z,,0,,,NaN,,,,,,false,,,,2185141.5999999046,2185141.5,,2185141.4000000954,,2184986.825,8,400,,,
sequence,flow.Sequence,4_75,2023-09-11T20:40:24.579Z,,0,,,3527.8549999999814,completion,,,,,false,,,,2185141.700000286,2185141.5,2181596.98,2181762.5999999046,2181613.645,2184986.825,8,400,,,
trial,html.Screen,4_76_0,2023-09-11T20:40:28.582Z,,0,2,,4156.575000095181,response,ISIC_0071647.JPG,6,ISIC_3436033.JPG,ISIC_0071647.JPG,false,1,keypress(m),500,2189143.5,2189143.4000000954,2184970.115,2185141.700000286,2184986.825,2188994.674,8,400,27,,ISIC_3436033.JPG
break,html.Screen,4_76_1,2023-09-11T20:40:28.582Z,,0,,,NaN,,,,,,false,,,,2189143.9000000954,2189143.8000001907,,2189143.5999999046,,2188994.674,8,400,,,
break_continue,html.Screen,4_76_2,2023-09-11T20:40:28.582Z,,0,,,NaN,,,,,,false,,,,2189144,2189144,,2189143.9000000954,,2188994.674,8,400,,,
sequence,flow.Sequence,4_76,2023-09-11T20:40:28.582Z,,0,,,4157.174999999814,completion,,,,,false,,,,2189144.200000286,2189144,2184970.115,2185141.700000286,2184986.825,2188994.674,8,400,,,
trial,html.Screen,4_77_0,2023-09-11T20:40:33.288Z,,0,2,,4855.026000285987,response,ISIC_7227223.JPG,5,ISIC_0068144.JPG,ISIC_0068144.JPG,false,0,keypress(z),500,2193849.9000000954,2193849.700000286,2188977.904,2189144.3000001907,2188994.674,2193703.825,8,400,28,,ISIC_7227223.JPG
break,html.Screen,4_77_1,2023-09-11T20:40:33.289Z,,0,,,NaN,,,,,,false,,,,2193850.700000286,2193850.4000000954,,2193850,,2193703.825,8,400,,,
break_continue,html.Screen,4_77_2,2023-09-11T20:40:33.289Z,,0,,,NaN,,,,,,false,,,,2193851.0999999046,2193851,,2193850.8000001907,,2193703.825,8,400,,,
sequence,flow.Sequence,4_77,2023-09-11T20:40:33.289Z,,0,,,4856.3259999998845,completion,,,,,false,,,,2193851.200000286,2193851,2188977.904,2189144.200000286,2188994.674,2193703.825,8,400,,,
trial,html.Screen,4_78_0,2023-09-11T20:40:37.230Z,,0,2,,4087.6749999998137,response,ISIC_6620377.JPG,5,ISIC_0057287.JPG,ISIC_0057287.JPG,false,0,keypress(z),500,2197791.5999999046,2197791.5,2193687.138,2193851.3000001907,2193703.825,2197644.768,8,400,29,,ISIC_6620377.JPG
break,html.Screen,4_78_1,2023-09-11T20:40:37.230Z,,0,,,NaN,,,,,,false,,,,2197792,2197792,,2197791.700000286,,2197644.768,8,400,,,
break_continue,html.Screen,4_78_2,2023-09-11T20:40:37.230Z,,0,,,NaN,,,,,,false,,,,2197792.200000286,2197792.200000286,,2197792.0999999046,,2197644.768,8,400,,,
sequence,flow.Sequence,4_78,2023-09-11T20:40:37.231Z,,0,,,4088.375000285916,completion,,,,,false,,,,2197792.3000001907,2197792.200000286,2193687.138,2193851.3000001907,2193703.825,2197644.768,8,400,,,
trial,html.Screen,4_79_0,2023-09-11T20:40:41.360Z,,0,2,,4276.532000190578,response,ISIC_3475142.JPG,6,ISIC_0057286.JPG,ISIC_0057286.JPG,false,0,keypress(z),500,2201921.700000286,2201921.3000001907,2197628.08,2197792.4000000954,2197644.768,2201769.549,8,400,30,,ISIC_3475142.JPG
break,html.Screen,4_79_1,2023-09-11T20:40:41.361Z,,0,,,NaN,,,,,,false,,,,2201923.0999999046,2201922.700000286,,2201922,,2201769.549,8,400,,,
break_continue,html.Screen,4_79_2,2023-09-11T20:40:41.362Z,,0,,,NaN,,,,,,false,,,,2201923.8000001907,2201923.5999999046,,2201923.3000001907,,2201769.549,8,400,,,
sequence,flow.Sequence,4_79,2023-09-11T20:40:41.362Z,,0,,,4278.831999904476,completion,,,,,false,,,,2201924.0999999046,2201923.5999999046,2197628.08,2197792.4000000954,2197644.768,2201769.549,8,400,,,
trial,html.Screen,4_80_0,2023-09-11T20:40:46.501Z,,0,2,,5293.251000190619,response,ISIC_0029606.JPG,5,ISIC_8330906.JPG,ISIC_0029606.JPG,false,1,keypress(m),500,2207063,2207062.8000001907,2201752.772,2201924.3000001907,2201769.549,2206912.867,8,400,31,,ISIC_8330906.JPG
break,html.Screen,4_80_1,2023-09-11T20:40:46.502Z,,0,,,NaN,,,,,,false,,,,2207064,2207063.8000001907,,2207063.200000286,,2206912.867,8,400,,,
break_continue,html.Screen,4_80_2,2023-09-11T20:40:46.503Z,,0,,,NaN,,,,,,false,,,,2207064.3000001907,2207064.200000286,,2207064,,2206912.867,8,400,,,
sequence,flow.Sequence,4_80,2023-09-11T20:40:46.503Z,,0,,,5294.651000285987,completion,,,,,false,,,,2207064.5,2207064.200000286,2201752.772,2201924.3000001907,2201769.549,2206912.867,8,400,,,
trial,html.Screen,4_81_0,2023-09-11T20:40:53.321Z,,0,2,,6969.933000190649,response,ISIC_0031363.JPG,5,ISIC_4070687.JPG,ISIC_0031363.JPG,false,1,keypress(m),500,2213883,2213882.8000001907,2206896.096,2207064.5999999046,2206912.867,2213726.068,8,400,32,,ISIC_4070687.JPG
break,html.Screen,4_81_1,2023-09-11T20:40:53.322Z,,0,,,NaN,,,,,,false,,,,2213883.5999999046,2213883.3000001907,,2213883.0999999046,,2213726.068,8,400,,,
break_continue,html.Screen,4_81_2,2023-09-11T20:40:53.322Z,,0,,,NaN,,,,,,false,,,,2213884.0999999046,2213883.9000000954,,2213883.700000286,,2213726.068,8,400,,,
sequence,flow.Sequence,4_81,2023-09-11T20:40:53.322Z,,0,,,6971.033000095282,completion,,,,,false,,,,2213884.3000001907,2213883.9000000954,2206896.096,2207064.5,2206912.867,2213726.068,8,400,,,
trial,html.Screen,4_82_0,2023-09-11T20:40:57.997Z,,0,2,,4832.832000095397,response,ISIC_6323420.JPG,5,ISIC_4887874.JPG,ISIC_4887874.JPG,false,0,keypress(z),500,2218559.0999999046,2218558.9000000954,2213709.45,2213884.3000001907,2213726.068,2218401.81,8,400,33,,ISIC_6323420.JPG
break,html.Screen,4_82_1,2023-09-11T20:40:57.998Z,,0,,,NaN,,,,,,false,,,,2218559.4000000954,2218559.4000000954,,2218559.200000286,,2218401.81,8,400,,,
break_continue,html.Screen,4_82_2,2023-09-11T20:40:57.998Z,,0,,,NaN,,,,,,false,,,,2218559.700000286,2218559.5999999046,,2218559.5,,2218401.81,8,400,,,
sequence,flow.Sequence,4_82,2023-09-11T20:40:57.998Z,,0,,,4833.531999904662,completion,,,,,false,,,,2218559.9000000954,2218559.5999999046,2213709.45,2213884.3000001907,2213726.068,2218401.81,8,400,,,
trial,html.Screen,4_83_0,2023-09-11T20:41:03.541Z,,0,2,,5700.590000095312,response,ISIC_0033393.JPG,5,ISIC_0060893.JPG,ISIC_0033393.JPG,false,1,keypress(m),500,2224102.700000286,2224102.4000000954,2218385.11,2218559.9000000954,2218401.81,2223946.005,8,400,34,,ISIC_0060893.JPG
break,html.Screen,4_83_1,2023-09-11T20:41:03.542Z,,0,,,NaN,,,,,,false,,,,2224103.700000286,2224103.4000000954,,2224102.9000000954,,2223946.005,8,400,,,
break_continue,html.Screen,4_83_2,2023-09-11T20:41:03.542Z,,0,,,NaN,,,,,,false,,,,2224104.3000001907,2224104.0999999046,,2224103.9000000954,,2223946.005,8,400,,,
sequence,flow.Sequence,4_83,2023-09-11T20:41:03.543Z,,0,,,5702.289999904577,completion,,,,,false,,,,2224104.5,2224104.0999999046,2218385.11,2218559.9000000954,2218401.81,2223946.005,8,400,,,
trial,html.Screen,4_84_0,2023-09-11T20:41:08.328Z,,0,2,,4943.995000000112,response,ISIC_0034050.JPG,5,ISIC_1604845.JPG,ISIC_0034050.JPG,false,1,keypress(m),500,2228890.0999999046,2228890,2223929.292,2224104.700000286,2223946.005,2228738.646,8,400,35,,ISIC_1604845.JPG
break,html.Screen,4_84_1,2023-09-11T20:41:08.329Z,,0,,,NaN,,,,,,false,,,,2228890.5,2228890.4000000954,,2228890.200000286,,2228738.646,8,400,,,
break_continue,html.Screen,4_84_2,2023-09-11T20:41:08.329Z,,0,,,NaN,,,,,,false,,,,2228890.700000286,2228890.700000286,,2228890.5999999046,,2228738.646,8,400,,,
sequence,flow.Sequence,4_84,2023-09-11T20:41:08.329Z,,0,,,4944.695000286214,completion,,,,,false,,,,2228890.8000001907,2228890.700000286,2223929.292,2224104.5999999046,2223946.005,2228738.646,8,400,,,
trial,html.Screen,4_85_0,2023-09-11T20:41:12.554Z,,0,2,,4377.3539999998175,response,ISIC_0348633.JPG,5,ISIC_8120622.JPG,ISIC_8120622.JPG,false,0,keypress(z),500,2233116.0999999046,2233116,2228721.931,2228890.9000000954,2228738.646,2232963.498,8,400,36,,ISIC_0348633.JPG
break,html.Screen,4_85_1,2023-09-11T20:41:12.555Z,,0,,,NaN,,,,,,false,,,,2233116.5999999046,2233116.5,,2233116.200000286,,2232963.498,8,400,,,
break_continue,html.Screen,4_85_2,2023-09-11T20:41:12.555Z,,0,,,NaN,,,,,,false,,,,2233116.9000000954,2233116.8000001907,,2233116.700000286,,2232963.498,8,400,,,
sequence,flow.Sequence,4_85,2023-09-11T20:41:12.555Z,,0,,,4378.154000190552,completion,,,,,false,,,,2233117,2233116.8000001907,2228721.931,2228890.9000000954,2228738.646,2232963.498,8,400,,,
trial,html.Screen,4_86_0,2023-09-11T20:41:17.501Z,,0,2,,5099.601999904495,response,ISIC_0024967.JPG,4,ISIC_0247330.JPG,ISIC_0024967.JPG,false,1,keypress(m),500,2238063.200000286,2238063.0999999046,2232946.878,2233117.0999999046,2232963.498,2237906.457,8,400,37,,ISIC_0247330.JPG
break,html.Screen,4_86_1,2023-09-11T20:41:17.502Z,,0,,,NaN,,,,,,false,,,,2238063.700000286,2238063.5999999046,,2238063.4000000954,,2237906.457,8,400,,,
break_continue,html.Screen,4_86_2,2023-09-11T20:41:17.502Z,,0,,,NaN,,,,,,false,,,,2238064.0999999046,2238064.0999999046,,2238063.8000001907,,2237906.457,8,400,,,
sequence,flow.Sequence,4_86,2023-09-11T20:41:17.502Z,,0,,,5100.601999904495,completion,,,,,false,,,,2238064.200000286,2238064.0999999046,2232946.878,2233117,2232963.498,2237906.457,8,400,,,
trial,html.Screen,4_87_0,2023-09-11T20:41:24.383Z,,0,2,,7038.642999904696,response,ISIC_0033058.JPG,4,ISIC_8094432.JPG,ISIC_0033058.JPG,false,1,keypress(m),500,2244945.3000001907,2244945.0999999046,2237889.919,2238064.200000286,2237906.457,2244803.229,8,400,38,,ISIC_8094432.JPG
break,html.Screen,4_87_1,2023-09-11T20:41:24.384Z,,0,,,NaN,,,,,,false,,,,2244945.9000000954,2244945.5999999046,,2244945.4000000954,,2244803.229,8,400,,,
break_continue,html.Screen,4_87_2,2023-09-11T20:41:24.384Z,,0,,,NaN,,,,,,false,,,,2244946.200000286,2244946.0999999046,,2244946,,2244803.229,8,400,,,
sequence,flow.Sequence,4_87,2023-09-11T20:41:24.384Z,,0,,,7039.642999904696,completion,,,,,false,,,,2244946.200000286,2244946.0999999046,2237889.919,2238064.200000286,2237906.457,2244803.229,8,400,,,
trial,html.Screen,4_88_0,2023-09-11T20:41:29.787Z,,0,2,,5544.971000286285,response,ISIC_0058781.JPG,5,ISIC_0027145.JPG,ISIC_0058781.JPG,false,1,keypress(m),500,2250348.4000000954,2250348.200000286,2244786.519,2244946.3000001907,2244803.229,2250197.112,8,400,39,,ISIC_0027145.JPG
break,html.Screen,4_88_1,2023-09-11T20:41:29.789Z,,0,,,NaN,,,,,,false,,,,2250349.5999999046,2250349.4000000954,,2250348.700000286,,2250197.112,8,400,,,
break_continue,html.Screen,4_88_2,2023-09-11T20:41:29.789Z,,0,,,NaN,,,,,,false,,,,2250350.5999999046,2250350.3000001907,,2250349.8000001907,,2250197.112,8,400,,,
sequence,flow.Sequence,4_88,2023-09-11T20:41:29.790Z,,0,,,5547.071000190917,completion,,,,,false,,,,2250350.9000000954,2250350.3000001907,2244786.519,2244946.3000001907,2244803.229,2250197.112,8,400,,,
trial,html.Screen,4_89_0,2023-09-11T20:41:34.881Z,,0,2,,5244.887999999803,response,ISIC_5383064.JPG,6,ISIC_0002119.JPG,ISIC_5383064.JPG,false,1,keypress(m),500,2255442.200000286,2255442,2250180.309,2250351.200000286,2250197.112,2255290.276,8,400,40,,ISIC_0002119.JPG
break,html.Screen,4_89_1,2023-09-11T20:41:34.882Z,,0,,,NaN,,,,,,false,,,,2255442.8000001907,2255442.700000286,,2255442.3000001907,,2255290.276,8,400,,,
break_continue,html.Screen,4_89_2,2023-09-11T20:41:34.882Z,,0,,,NaN,,,,,,false,,,,2255443.200000286,2255443.0999999046,,2255442.9000000954,,2255290.276,8,400,,,
sequence,flow.Sequence,4_89,2023-09-11T20:41:34.882Z,,0,,,5245.987999904435,completion,,,,,false,,,,2255443.3000001907,2255443.0999999046,2250180.309,2250351.0999999046,2250197.112,2255290.276,8,400,,,
trial,html.Screen,4_90_0,2023-09-11T20:41:39.083Z,,0,2,,4353.723999999929,response,ISIC_0883408.JPG,4,ISIC_2023592.JPG,ISIC_2023592.JPG,false,0,keypress(z),500,2259644.0999999046,2259644,2255273.816,2255443.4000000954,2255290.276,2259498.599,8,400,41,,ISIC_0883408.JPG
break,html.Screen,4_90_1,2023-09-11T20:41:39.083Z,,0,,,NaN,,,,,,false,,,,2259644.5,2259644.4000000954,,2259644.200000286,,2259498.599,8,400,,,
break_continue,html.Screen,4_90_2,2023-09-11T20:41:39.084Z,,0,,,NaN,,,,,,false,,,,2259644.5999999046,2259644.5999999046,,2259644.5,,2259498.599,8,400,,,
sequence,flow.Sequence,4_90,2023-09-11T20:41:39.084Z,,0,,,4354.323999904562,completion,,,,,false,,,,2259644.8000001907,2259644.5999999046,2255273.816,2255443.4000000954,2255290.276,2259498.599,8,400,,,
trial,html.Screen,4_91_0,2023-09-11T20:41:44.509Z,,0,2,,5571.401000000071,response,ISIC_0027305.JPG,5,ISIC_0030818.JPG,ISIC_0027305.JPG,false,1,keypress(m),500,2265070.0999999046,2265070,2259481.839,2259644.8000001907,2259498.599,2264925.712,8,400,42,,ISIC_0030818.JPG
break,html.Screen,4_91_1,2023-09-11T20:41:44.510Z,,0,,,NaN,,,,,,false,,,,2265070.700000286,2265070.5,,2265070.3000001907,,2264925.712,8,400,,,
break_continue,html.Screen,4_91_2,2023-09-11T20:41:44.510Z,,0,,,NaN,,,,,,false,,,,2265070.9000000954,2265070.9000000954,,2265070.8000001907,,2264925.712,8,400,,,
sequence,flow.Sequence,4_91,2023-09-11T20:41:44.510Z,,0,,,5572.301000095438,completion,,,,,false,,,,2265071,2265070.9000000954,2259481.839,2259644.8000001907,2259498.599,2264925.712,8,400,,,
trial,html.Screen,4_92_0,2023-09-11T20:41:49.015Z,,0,2,,4650.288000000175,response,ISIC_0005686.JPG,5,ISIC_0010040.JPG,ISIC_0010040.JPG,false,0,keypress(z),500,2269576.0999999046,2269576,2264909.049,2265071.200000286,2264925.712,2269434.469,8,400,43,,ISIC_0005686.JPG
break,html.Screen,4_92_1,2023-09-11T20:41:49.016Z,,0,,,NaN,,,,,,false,,,,2269576.8000001907,2269576.5,,2269576.3000001907,,2269434.469,8,400,,,
break_continue,html.Screen,4_92_2,2023-09-11T20:41:49.016Z,,0,,,NaN,,,,,,false,,,,2269577.0999999046,2269577.0999999046,,2269576.9000000954,,2269434.469,8,400,,,
sequence,flow.Sequence,4_92,2023-09-11T20:41:49.016Z,,0,,,4651.387999904808,completion,,,,,false,,,,2269577.200000286,2269577.0999999046,2264909.049,2265071.0999999046,2264925.712,2269434.469,8,400,,,
trial,html.Screen,4_93_0,2023-09-11T20:41:54.146Z,,0,2,,5272.030999999959,response,ISIC_0029885.JPG,5,ISIC_8798059.JPG,ISIC_0029885.JPG,false,1,keypress(m),500,2274706.5999999046,2274706.5,2269417.79,2269577.3000001907,2269434.469,2274561.186,8,400,44,,ISIC_8798059.JPG
break,html.Screen,4_93_1,2023-09-11T20:41:54.146Z,,0,,,NaN,,,,,,false,,,,2274707.3000001907,2274707.0999999046,,2274706.8000001907,,2274561.186,8,400,,,
break_continue,html.Screen,4_93_2,2023-09-11T20:41:54.146Z,,0,,,NaN,,,,,,false,,,,2274707.5999999046,2274707.5,,2274707.4000000954,,2274561.186,8,400,,,
sequence,flow.Sequence,4_93,2023-09-11T20:41:54.147Z,,0,,,5273.030999999959,completion,,,,,false,,,,2274707.700000286,2274707.5,2269417.79,2269577.3000001907,2269434.469,2274561.186,8,400,,,
trial,html.Screen,4_94_0,2023-09-11T20:41:58.005Z,,0,2,,4004.0140002858825,response,ISIC_0012025.JPG,5,ISIC_1654318.JPG,ISIC_0012025.JPG,false,1,keypress(m),500,2278565.700000286,2278565.200000286,2274544.417,2274707.700000286,2274561.186,2278418.62,8,400,45,,ISIC_1654318.JPG
break,html.Screen,4_94_1,2023-09-11T20:41:58.007Z,,0,,,NaN,,,,,,false,,,,2278567.700000286,2278567.0999999046,,2278566.0999999046,,2278418.62,8,400,,,
break_continue,html.Screen,4_94_2,2023-09-11T20:41:58.007Z,,0,,,NaN,,,,,,false,,,,2278568.5999999046,2278568.5,,2278568,,2278418.62,8,400,,,
sequence,flow.Sequence,4_94,2023-09-11T20:41:58.008Z,,0,,,4007.31399999978,completion,,,,,false,,,,2278568.8000001907,2278568.5,2274544.417,2274707.700000286,2274561.186,2278418.62,8,400,,,
trial,html.Screen,4_95_0,2023-09-11T20:42:03.915Z,,0,2,,6057.5800002859905,response,ISIC_0030342.JPG,4,ISIC_1580034.JPG,ISIC_0030342.JPG,false,1,keypress(m),500,2284476.3000001907,2284476.200000286,2278401.883,2278568.9000000954,2278418.62,2284330.117,8,400,46,,ISIC_1580034.JPG
break,html.Screen,4_95_1,2023-09-11T20:42:03.916Z,,0,,,NaN,,,,,,false,,,,2284476.9000000954,2284476.8000001907,,2284476.5,,2284330.117,8,400,,,
break_continue,html.Screen,4_95_2,2023-09-11T20:42:03.916Z,,0,,,NaN,,,,,,false,,,,2284477.200000286,2284477.0999999046,,2284476.9000000954,,2284330.117,8,400,,,
sequence,flow.Sequence,4_95,2023-09-11T20:42:03.916Z,,0,,,6058.479999904521,completion,,,,,false,,,,2284477.200000286,2284477.0999999046,2278401.883,2278568.8000001907,2278418.62,2284330.117,8,400,,,
trial,html.Screen,4_96_0,2023-09-11T20:42:08.782Z,,0,2,,5012.482999904547,response,ISIC_9511832.JPG,5,ISIC_0067743.JPG,ISIC_0067743.JPG,false,0,keypress(z),500,2289342.700000286,2289342.5999999046,2284313.51,2284477.3000001907,2284330.117,2289189.595,8,400,47,,ISIC_9511832.JPG
break,html.Screen,4_96_1,2023-09-11T20:42:08.782Z,,0,,,NaN,,,,,,false,,,,2289343.4000000954,2289343.0999999046,,2289342.9000000954,,2289189.595,8,400,,,
break_continue,html.Screen,4_96_2,2023-09-11T20:42:08.783Z,,0,,,NaN,,,,,,false,,,,2289343.8000001907,2289343.5999999046,,2289343.5,,2289189.595,8,400,,,
sequence,flow.Sequence,4_96,2023-09-11T20:42:08.783Z,,0,,,5013.482999904547,completion,,,,,false,,,,2289343.9000000954,2289343.5999999046,2284313.51,2284477.3000001907,2284330.117,2289189.595,8,400,,,
trial,html.Screen,4_97_0,2023-09-11T20:42:13.009Z,,0,2,,4380.004999904428,response,ISIC_0066379.JPG,5,ISIC_0067227.JPG,ISIC_0066379.JPG,false,1,keypress(m),500,2293569.700000286,2293569.5999999046,2289173.071,2289344.0999999046,2289189.595,2293414.463,8,400,48,,ISIC_0067227.JPG
break,html.Screen,4_97_1,2023-09-11T20:42:13.009Z,,0,,,NaN,,,,,,false,,,,2293570.200000286,2293570,,2293569.8000001907,,2293414.463,8,400,,,
break_continue,html.Screen,4_97_2,2023-09-11T20:42:13.009Z,,0,,,NaN,,,,,,false,,,,2293570.5999999046,2293570.5,,2293570.4000000954,,2293414.463,8,400,,,
sequence,flow.Sequence,4_97,2023-09-11T20:42:13.010Z,,0,,,4380.904999999795,completion,,,,,false,,,,2293570.700000286,2293570.5,2289173.071,2289344,2289189.595,2293414.463,8,400,,,
trial,html.Screen,4_98_0,2023-09-11T20:42:20.035Z,,0,2,,7181.837000190746,response,ISIC_0070351.JPG,4,ISIC_9348399.JPG,ISIC_0070351.JPG,false,1,keypress(m),500,2300596.5,2300596.3000001907,2293397.84,2293570.8000001907,2293414.463,2300444.904,8,400,49,,ISIC_9348399.JPG
break,html.Screen,4_98_1,2023-09-11T20:42:20.036Z,,0,,,NaN,,,,,,false,,,,2300597.200000286,2300597,,2300596.700000286,,2300444.904,8,400,,,
break_continue,html.Screen,4_98_2,2023-09-11T20:42:20.036Z,,0,,,NaN,,,,,,false,,,,2300597.5999999046,2300597.5,,2300597.4000000954,,2300444.904,8,400,,,
sequence,flow.Sequence,4_98,2023-09-11T20:42:20.037Z,,0,,,7183.037000000011,completion,,,,,false,,,,2300597.700000286,2300597.5,2293397.84,2293570.8000001907,2293414.463,2300444.904,8,400,,,
trial,html.Screen,4_99_0,2023-09-11T20:42:24.986Z,,0,2,,5101.095999999903,response,ISIC_0951519.JPG,5,ISIC_1509635.JPG,ISIC_1509635.JPG,false,0,keypress(z),500,2305546.700000286,2305546,2300428.114,2300597.8000001907,2300444.904,2305404.441,8,400,50,,ISIC_0951519.JPG
break,html.Screen,4_99_1,2023-09-11T20:42:34.988Z,,0,,,10002.844000000041,timeout,,,,,false,,,,2315548.700000286,2315390.56,2305387.881,2305547.0999999046,2305404.441,2315407.285,8,400,,,
break_continue,html.Screen,4_99_2,2023-09-11T20:45:46.373Z,,0,,,191496.81499990448,response,,,,,false,continue,keypress(Space),,2506931.4000000954,2506904.0999999046,2315390.56,2315548.8000001907,2315407.285,2506762.971,8,400,,,
sequence,flow.Sequence,4_99,2023-09-11T20:45:46.373Z,,0,,,206459.19599990454,completion,,,,,false,,,,2506931.5,2506904.0999999046,2300428.114,2300597.8000001907,2300444.904,2506762.971,8,400,,,
trial,html.Screen,4_100_0,2023-09-11T20:45:54.316Z,,0,3,,8111.529000000097,response,ISIC_0030080.JPG,4,ISIC_5226353.JPG,ISIC_0030080.JPG,false,1,keypress(m),500,2514874.700000286,2514874.5,2506746.298,2506931.5999999046,2506762.971,2514728.497,8,400,1,,ISIC_5226353.JPG
break,html.Screen,4_100_1,2023-09-11T20:45:54.316Z,,0,,,NaN,,,,,,false,,,,2514875,2514875,,2514874.700000286,,2514728.497,8,400,,,
break_continue,html.Screen,4_100_2,2023-09-11T20:45:54.317Z,,0,,,NaN,,,,,,false,,,,2514875.3000001907,2514875.200000286,,2514875.0999999046,,2514728.497,8,400,,,
sequence,flow.Sequence,4_100,2023-09-11T20:45:54.317Z,,0,,,8112.229000286199,completion,,,,,false,,,,2514875.3000001907,2514875.200000286,2506746.298,2506931.5999999046,2506762.971,2514728.497,8,400,,,
trial,html.Screen,4_101_0,2023-09-11T20:46:00.382Z,,0,3,,6212.203000286128,response,ISIC_0026901.JPG,5,ISIC_0054053.JPG,ISIC_0054053.JPG,false,0,keypress(z),500,2520941,2520940.700000286,2514711.883,2514875.4000000954,2514728.497,2520790.3,8,400,2,,ISIC_0026901.JPG
break,html.Screen,4_101_1,2023-09-11T20:46:00.383Z,,0,,,NaN,,,,,,false,,,,2520942,2520941.700000286,,2520941.3000001907,,2520790.3,8,400,,,
break_continue,html.Screen,4_101_2,2023-09-11T20:46:00.384Z,,0,,,NaN,,,,,,false,,,,2520942.5,2520942.3000001907,,2520942.200000286,,2520790.3,8,400,,,
sequence,flow.Sequence,4_101,2023-09-11T20:46:00.384Z,,0,,,6213.803000190761,completion,,,,,false,,,,2520942.700000286,2520942.3000001907,2514711.883,2514875.4000000954,2514728.497,2520790.3,8,400,,,
trial,html.Screen,4_102_0,2023-09-11T20:46:05.065Z,,0,3,,4832.799999904819,response,ISIC_8609756.JPG,6,ISIC_8306983.JPG,ISIC_8609756.JPG,false,1,keypress(m),500,2525623.200000286,2525623.0999999046,2520773.579,2520942.9000000954,2520790.3,2525466.033,8,400,3,,ISIC_8306983.JPG
break,html.Screen,4_102_1,2023-09-11T20:46:05.065Z,,0,,,NaN,,,,,,false,,,,2525624,2525623.700000286,,2525623.4000000954,,2525466.033,8,400,,,
break_continue,html.Screen,4_102_2,2023-09-11T20:46:05.066Z,,0,,,NaN,,,,,,false,,,,2525624.4000000954,2525624.3000001907,,2525624.200000286,,2525466.033,8,400,,,
sequence,flow.Sequence,4_102,2023-09-11T20:46:05.066Z,,0,,,4834.000000190921,completion,,,,,false,,,,2525624.5,2525624.3000001907,2520773.579,2520942.9000000954,2520790.3,2525466.033,8,400,,,
trial,html.Screen,4_103_0,2023-09-11T20:46:10.685Z,,0,3,,5777.066999904811,response,ISIC_0059864.JPG,6,ISIC_0033037.JPG,ISIC_0033037.JPG,false,0,keypress(z),500,2531243.200000286,2531243.0999999046,2525449.464,2525624.5999999046,2525466.033,2531093.639,8,400,4,,ISIC_0059864.JPG
break,html.Screen,4_103_1,2023-09-11T20:46:10.685Z,,0,,,NaN,,,,,,false,,,,2531243.8000001907,2531243.5999999046,,2531243.4000000954,,2531093.639,8,400,,,
break_continue,html.Screen,4_103_2,2023-09-11T20:46:10.685Z,,0,,,NaN,,,,,,false,,,,2531244,2531243.9000000954,,2531243.8000001907,,2531093.639,8,400,,,
sequence,flow.Sequence,4_103,2023-09-11T20:46:10.685Z,,0,,,5777.867000095546,completion,,,,,false,,,,2531244,2531243.9000000954,2525449.464,2525624.5999999046,2525466.033,2531093.639,8,400,,,
trial,html.Screen,4_104_0,2023-09-11T20:46:15.071Z,,0,3,,4535.8610000000335,response,ISIC_0027742.JPG,4,ISIC_0029593.JPG,ISIC_0029593.JPG,false,0,keypress(z),500,2535629.5999999046,2535629.5,2531076.972,2531244.0999999046,2531093.639,2535485.555,8,400,5,,ISIC_0027742.JPG
break,html.Screen,4_104_1,2023-09-11T20:46:15.072Z,,0,,,NaN,,,,,,false,,,,2535631,2535630.4000000954,,2535629.8000001907,,2535485.555,8,400,,,
break_continue,html.Screen,4_104_2,2023-09-11T20:46:15.073Z,,0,,,NaN,,,,,,false,,,,2535631.5,2535631.4000000954,,2535631.0999999046,,2535485.555,8,400,,,
sequence,flow.Sequence,4_104,2023-09-11T20:46:15.073Z,,0,,,4537.761000095401,completion,,,,,false,,,,2535631.5999999046,2535631.4000000954,2531076.972,2531244.0999999046,2531093.639,2535485.555,8,400,,,
trial,html.Screen,4_105_0,2023-09-11T20:46:19.382Z,,0,3,,4455.245000190567,response,ISIC_3416107.JPG,4,ISIC_7227223.JPG,ISIC_3416107.JPG,false,1,keypress(m),500,2539940.9000000954,2539940.8000001907,2535468.843,2535631.8000001907,2535485.555,2539794.018,8,400,6,,ISIC_7227223.JPG
break,html.Screen,4_105_1,2023-09-11T20:46:19.383Z,,0,,,NaN,,,,,,false,,,,2539941.3000001907,2539941.200000286,,2539941,,2539794.018,8,400,,,
break_continue,html.Screen,4_105_2,2023-09-11T20:46:19.383Z,,0,,,NaN,,,,,,false,,,,2539941.4000000954,2539941.4000000954,,2539941.4000000954,,2539794.018,8,400,,,
sequence,flow.Sequence,4_105,2023-09-11T20:46:19.383Z,,0,,,4455.8450000952,completion,,,,,false,,,,2539941.5,2539941.4000000954,2535468.843,2535631.700000286,2535485.555,2539794.018,8,400,,,
trial,html.Screen,4_106_0,2023-09-11T20:46:24.887Z,,0,3,,5651.9819999998435,response,ISIC_0059052.JPG,5,ISIC_5737704.JPG,ISIC_0059052.JPG,false,1,keypress(m),500,2545446.200000286,2545446,2539777.251,2539941.5999999046,2539794.018,2545304.692,8,400,7,,ISIC_5737704.JPG
break,html.Screen,4_106_1,2023-09-11T20:46:24.888Z,,0,,,NaN,,,,,,false,,,,2545446.5999999046,2545446.5,,2545446.200000286,,2545304.692,8,400,,,
break_continue,html.Screen,4_106_2,2023-09-11T20:46:24.888Z,,0,,,NaN,,,,,,false,,,,2545446.700000286,2545446.5999999046,,2545446.5999999046,,2545304.692,8,400,,,
sequence,flow.Sequence,4_106,2023-09-11T20:46:24.888Z,,0,,,5652.581999904476,completion,,,,,false,,,,2545446.8000001907,2545446.5999999046,2539777.251,2539941.5999999046,2539794.018,2545304.692,8,400,,,
trial,html.Screen,4_107_0,2023-09-11T20:46:29.627Z,,0,3,,4880.407999904826,response,ISIC_0025379.JPG,4,ISIC_6674797.JPG,ISIC_0025379.JPG,false,1,keypress(m),500,2550185.4000000954,2550185.0999999046,2545288.04,2545446.9000000954,2545304.692,2550030.556,8,400,8,,ISIC_6674797.JPG
break,html.Screen,4_107_1,2023-09-11T20:46:29.628Z,,0,,,NaN,,,,,,false,,,,2550187,2550186.5,,2550185.8000001907,,2550030.556,8,400,,,
break_continue,html.Screen,4_107_2,2023-09-11T20:46:29.629Z,,0,,,NaN,,,,,,false,,,,2550187.8000001907,2550187.5999999046,,2550187.200000286,,2550030.556,8,400,,,
sequence,flow.Sequence,4_107,2023-09-11T20:46:29.630Z,,0,,,4882.907999904826,completion,,,,,false,,,,2550188.4000000954,2550187.5999999046,2545288.04,2545446.9000000954,2545304.692,2550030.556,8,400,,,
trial,html.Screen,4_108_0,2023-09-11T20:46:36.099Z,,0,3,,6627.144000286236,response,ISIC_5238111.JPG,6,ISIC_0026296.JPG,ISIC_0026296.JPG,false,0,keypress(z),500,2556658,2556657.700000286,2550013.977,2550189.0999999046,2550030.556,2556509.816,8,400,9,,ISIC_5238111.JPG
break,html.Screen,4_108_1,2023-09-11T20:46:36.100Z,,0,,,NaN,,,,,,false,,,,2556659,2556658.700000286,,2556658.200000286,,2556509.816,8,400,,,
break_continue,html.Screen,4_108_2,2023-09-11T20:46:36.101Z,,0,,,NaN,,,,,,false,,,,2556659.3000001907,2556659.200000286,,2556659,,2556509.816,8,400,,,
sequence,flow.Sequence,4_108,2023-09-11T20:46:36.101Z,,0,,,6628.644000286236,completion,,,,,false,,,,2556659.5,2556659.200000286,2550013.977,2550189,2550030.556,2556509.816,8,400,,,
trial,html.Screen,4_109_0,2023-09-11T20:46:40.407Z,,0,3,,4455.384000285994,response,ISIC_0056531.JPG,5,ISIC_8843592.JPG,ISIC_0056531.JPG,false,1,keypress(m),500,2560965.4000000954,2560965.200000286,2556493.188,2556659.5999999046,2556509.816,2560818.183,8,400,10,,ISIC_8843592.JPG
break,html.Screen,4_109_1,2023-09-11T20:46:40.407Z,,0,,,NaN,,,,,,false,,,,2560965.9000000954,2560965.700000286,,2560965.5,,2560818.183,8,400,,,
break_continue,html.Screen,4_109_2,2023-09-11T20:46:40.408Z,,0,,,NaN,,,,,,false,,,,2560966.0999999046,2560966.0999999046,,2560966,,2560818.183,8,400,,,
sequence,flow.Sequence,4_109,2023-09-11T20:46:40.408Z,,0,,,4456.2839999045245,completion,,,,,false,,,,2560966.3000001907,2560966.0999999046,2556493.188,2556659.5999999046,2556509.816,2560818.183,8,400,,,
trial,html.Screen,4_110_0,2023-09-11T20:46:47.963Z,,0,3,,7702.416999904439,response,ISIC_8184471.JPG,6,ISIC_0012865.JPG,ISIC_8184471.JPG,false,1,keypress(m),500,2568520.700000286,2568520.5999999046,2560801.641,2560966.3000001907,2560818.183,2568366.207,8,400,11,,ISIC_0012865.JPG
break,html.Screen,4_110_1,2023-09-11T20:46:47.964Z,,0,,,NaN,,,,,,false,,,,2568521.5,2568521.200000286,,2568520.9000000954,,2568366.207,8,400,,,
break_continue,html.Screen,4_110_2,2023-09-11T20:46:47.964Z,,0,,,NaN,,,,,,false,,,,2568521.700000286,2568521.700000286,,2568521.5999999046,,2568366.207,8,400,,,
sequence,flow.Sequence,4_110,2023-09-11T20:46:47.964Z,,0,,,7703.517000285909,completion,,,,,false,,,,2568521.9000000954,2568521.700000286,2560801.641,2560966.3000001907,2560818.183,2568366.207,8,400,,,
trial,html.Screen,4_111_0,2023-09-11T20:46:54.863Z,,0,3,,7053.793000000063,response,ISIC_6162308.JPG,4,ISIC_0000171.JPG,ISIC_0000171.JPG,false,0,keypress(z),500,2575420.200000286,2575420,2568349.503,2568521.9000000954,2568366.207,2575296.537,8,400,12,,ISIC_6162308.JPG
break,html.Screen,4_111_1,2023-09-11T20:46:54.863Z,,0,,,NaN,,,,,,false,,,,2575421,2575420.700000286,,2575420.4000000954,,2575296.537,8,400,,,
break_continue,html.Screen,4_111_2,2023-09-11T20:46:54.864Z,,0,,,NaN,,,,,,false,,,,2575421.4000000954,2575421.200000286,,2575421.0999999046,,2575296.537,8,400,,,
sequence,flow.Sequence,4_111,2023-09-11T20:46:54.864Z,,0,,,7054.993000286166,completion,,,,,false,,,,2575421.5999999046,2575421.200000286,2568349.503,2568521.9000000954,2568366.207,2575296.537,8,400,,,
trial,html.Screen,4_112_0,2023-09-11T20:46:58.951Z,,0,3,,4211.863000095356,response,ISIC_0033405.JPG,5,ISIC_0024591.JPG,ISIC_0033405.JPG,false,1,keypress(m),500,2579508.8000001907,2579508.4000000954,2575279.677,2575421.8000001907,2575296.537,2579354.346,8,400,13,,ISIC_0024591.JPG
break,html.Screen,4_112_1,2023-09-11T20:46:58.953Z,,0,,,NaN,,,,,,false,,,,2579510.3000001907,2579509.8000001907,,2579509.200000286,,2579354.346,8,400,,,
break_continue,html.Screen,4_112_2,2023-09-11T20:46:58.954Z,,0,,,NaN,,,,,,false,,,,2579511.0999999046,2579510.9000000954,,2579510.5,,2579354.346,8,400,,,
sequence,flow.Sequence,4_112,2023-09-11T20:46:58.954Z,,0,,,4214.363000095356,completion,,,,,false,,,,2579511.9000000954,2579510.9000000954,2575279.677,2575421.700000286,2575296.537,2579354.346,8,400,,,
trial,html.Screen,4_113_0,2023-09-11T20:47:03.181Z,,0,3,,4384.454000190832,response,ISIC_7292983.JPG,5,ISIC_4148086.JPG,ISIC_7292983.JPG,false,1,keypress(m),500,2583739,2583738.8000001907,2579337.504,2579512.3000001907,2579354.346,2583595.911,8,400,14,,ISIC_4148086.JPG
break,html.Screen,4_113_1,2023-09-11T20:47:03.182Z,,0,,,NaN,,,,,,false,,,,2583739.4000000954,2583739.3000001907,,2583739.0999999046,,2583595.911,8,400,,,
break_continue,html.Screen,4_113_2,2023-09-11T20:47:03.182Z,,0,,,NaN,,,,,,false,,,,2583739.5999999046,2583739.5999999046,,2583739.5,,2583595.911,8,400,,,
sequence,flow.Sequence,4_113,2023-09-11T20:47:03.182Z,,0,,,4385.253999904729,completion,,,,,false,,,,2583739.700000286,2583739.5999999046,2579337.504,2579512.200000286,2579354.346,2583595.911,8,400,,,
trial,html.Screen,4_114_0,2023-09-11T20:47:08.384Z,,0,3,,5345.289000286255,response,ISIC_7260977.JPG,5,ISIC_0000129.JPG,ISIC_0000129.JPG,false,0,keypress(z),500,2588941.3000001907,2588941.200000286,2583579.155,2583739.700000286,2583595.911,2588789.224,8,400,15,,ISIC_7260977.JPG
break,html.Screen,4_114_1,2023-09-11T20:47:08.384Z,,0,,,NaN,,,,,,false,,,,2588941.8000001907,2588941.700000286,,2588941.4000000954,,2588789.224,8,400,,,
break_continue,html.Screen,4_114_2,2023-09-11T20:47:08.384Z,,0,,,NaN,,,,,,false,,,,2588942,2588941.9000000954,,2588941.9000000954,,2588789.224,8,400,,,
sequence,flow.Sequence,4_114,2023-09-11T20:47:08.384Z,,0,,,5345.98900009552,completion,,,,,false,,,,2588942,2588941.9000000954,2583579.155,2583739.700000286,2583595.911,2588789.224,8,400,,,
trial,html.Screen,4_115_0,2023-09-11T20:47:13.427Z,,0,3,,5195.076000190806,response,ISIC_9612228.JPG,5,ISIC_8436666.JPG,ISIC_9612228.JPG,false,1,keypress(m),500,2593984.5999999046,2593984.3000001907,2588772.569,2588942,2588789.224,2593832.42,8,400,16,,ISIC_8436666.JPG
break,html.Screen,4_115_1,2023-09-11T20:47:13.428Z,,0,,,NaN,,,,,,false,,,,2593985.5,2593985.200000286,,2593984.700000286,,2593832.42,8,400,,,
break_continue,html.Screen,4_115_2,2023-09-11T20:47:13.428Z,,0,,,NaN,,,,,,false,,,,2593985.8000001907,2593985.8000001907,,2593985.5,,2593832.42,8,400,,,
sequence,flow.Sequence,4_115,2023-09-11T20:47:13.428Z,,0,,,5196.576000190806,completion,,,,,false,,,,2593986,2593985.8000001907,2588772.569,2588942,2588789.224,2593832.42,8,400,,,
trial,html.Screen,4_116_0,2023-09-11T20:47:20.138Z,,0,3,,6862.679999904707,response,ISIC_0054941.JPG,5,ISIC_2379024.JPG,ISIC_0054941.JPG,false,1,keypress(m),500,2600695.3000001907,2600695.0999999046,2593815.779,2593986.0999999046,2593832.42,2600545.47,8,400,17,,ISIC_2379024.JPG
break,html.Screen,4_116_1,2023-09-11T20:47:20.139Z,,0,,,NaN,,,,,,false,,,,2600696.5999999046,2600696,,2600695.5,,2600545.47,8,400,,,
break_continue,html.Screen,4_116_2,2023-09-11T20:47:20.140Z,,0,,,NaN,,,,,,false,,,,2600697.5,2600697.3000001907,,2600696.9000000954,,2600545.47,8,400,,,
sequence,flow.Sequence,4_116,2023-09-11T20:47:20.140Z,,0,,,6864.880000190809,completion,,,,,false,,,,2600697.9000000954,2600697.3000001907,2593815.779,2593986.0999999046,2593832.42,2600545.47,8,400,,,
trial,html.Screen,4_117_0,2023-09-11T20:47:26.019Z,,0,3,,6031.4300000951625,response,ISIC_0034002.JPG,4,ISIC_2702929.JPG,ISIC_0034002.JPG,false,1,keypress(m),500,2606577,2606576.9000000954,2600528.774,2600697.9000000954,2600545.47,2606423.589,8,400,18,,ISIC_2702929.JPG
break,html.Screen,4_117_1,2023-09-11T20:47:26.020Z,,0,,,NaN,,,,,,false,,,,2606577.4000000954,2606577.3000001907,,2606577.0999999046,,2606423.589,8,400,,,
break_continue,html.Screen,4_117_2,2023-09-11T20:47:26.020Z,,0,,,NaN,,,,,,false,,,,2606577.5999999046,2606577.5999999046,,2606577.4000000954,,2606423.589,8,400,,,
sequence,flow.Sequence,4_117,2023-09-11T20:47:26.020Z,,0,,,6032.129999904428,completion,,,,,false,,,,2606577.700000286,2606577.5999999046,2600528.774,2600697.9000000954,2600545.47,2606423.589,8,400,,,
trial,html.Screen,4_118_0,2023-09-11T20:47:32.054Z,,0,3,,6188.11100028595,response,ISIC_5625747.JPG,5,ISIC_0070588.JPG,ISIC_0070588.JPG,false,0,keypress(z),500,2612611.9000000954,2612611.700000286,2606406.9,2606577.700000286,2606423.589,2612468.764,8,400,19,,ISIC_5625747.JPG
break,html.Screen,4_118_1,2023-09-11T20:47:32.055Z,,0,,,NaN,,,,,,false,,,,2612612.8000001907,2612612.5,,2612612.0999999046,,2612468.764,8,400,,,
break_continue,html.Screen,4_118_2,2023-09-11T20:47:32.056Z,,0,,,NaN,,,,,,false,,,,2612613.200000286,2612613.0999999046,,2612612.9000000954,,2612468.764,8,400,,,
sequence,flow.Sequence,4_118,2023-09-11T20:47:32.056Z,,0,,,6189.51099990448,completion,,,,,false,,,,2612613.4000000954,2612613.0999999046,2606406.9,2606577.700000286,2606423.589,2612468.764,8,400,,,
trial,html.Screen,4_119_0,2023-09-11T20:47:36.768Z,,0,3,,4857.036000190768,response,ISIC_7141153.JPG,4,ISIC_0031829.JPG,ISIC_0031829.JPG,false,0,keypress(z),500,2617326,2617325.8000001907,2612452.097,2612613.5,2612468.764,2617177.856,8,400,20,,ISIC_7141153.JPG
break,html.Screen,4_119_1,2023-09-11T20:47:36.769Z,,0,,,NaN,,,,,,false,,,,2617326.5,2617326.4000000954,,2617326.0999999046,,2617177.856,8,400,,,
break_continue,html.Screen,4_119_2,2023-09-11T20:47:36.769Z,,0,,,NaN,,,,,,false,,,,2617326.700000286,2617326.5999999046,,2617326.5999999046,,2617177.856,8,400,,,
sequence,flow.Sequence,4_119,2023-09-11T20:47:36.769Z,,0,,,4857.835999904666,completion,,,,,false,,,,2617326.9000000954,2617326.5999999046,2612452.097,2612613.5,2612468.764,2617177.856,8,400,,,
trial,html.Screen,4_120_0,2023-09-11T20:47:40.116Z,,0,3,,3495.344000285957,response,ISIC_3072382.JPG,5,ISIC_0030392.JPG,ISIC_0030392.JPG,false,0,keypress(z),500,2620673.4000000954,2620673.200000286,2617161.16,2617326.9000000954,2617177.856,2620517.672,8,400,21,,ISIC_3072382.JPG
break,html.Screen,4_120_1,2023-09-11T20:47:40.116Z,,0,,,NaN,,,,,,false,,,,2620674,2620673.8000001907,,2620673.5999999046,,2620517.672,8,400,,,
break_continue,html.Screen,4_120_2,2023-09-11T20:47:40.117Z,,0,,,NaN,,,,,,false,,,,2620674.200000286,2620674.0999999046,,2620674,,2620517.672,8,400,,,
sequence,flow.Sequence,4_120,2023-09-11T20:47:40.117Z,,0,,,3496.2439999044873,completion,,,,,false,,,,2620674.200000286,2620674.0999999046,2617161.16,2617326.9000000954,2617177.856,2620517.672,8,400,,,
trial,html.Screen,4_121_0,2023-09-11T20:47:43.927Z,,0,3,,3966.22800009558,response,ISIC_8642938.JPG,6,ISIC_4086323.JPG,ISIC_8642938.JPG,false,1,keypress(m),500,2624484.3000001907,2624483.9000000954,2620501.088,2620674.4000000954,2620517.672,2624341.817,8,400,22,,ISIC_4086323.JPG
break,html.Screen,4_121_1,2023-09-11T20:47:43.928Z,,0,,,NaN,,,,,,false,,,,2624485.9000000954,2624485.5,,2624484.700000286,,2624341.817,8,400,,,
break_continue,html.Screen,4_121_2,2023-09-11T20:47:43.929Z,,0,,,NaN,,,,,,false,,,,2624486.700000286,2624486.5,,2624486.200000286,,2624341.817,8,400,,,
sequence,flow.Sequence,4_121,2023-09-11T20:47:43.929Z,,0,,,3968.8280000002123,completion,,,,,false,,,,2624487,2624486.5,2620501.088,2620674.3000001907,2620517.672,2624341.817,8,400,,,
trial,html.Screen,4_122_0,2023-09-11T20:47:49.093Z,,0,3,,5307.583000095561,response,ISIC_0014079.JPG,5,ISIC_5796736.JPG,ISIC_0014079.JPG,false,1,keypress(m),500,2629649.5,2629649.4000000954,2624325.152,2624487.200000286,2624341.817,2629501.897,8,400,23,,ISIC_5796736.JPG
break,html.Screen,4_122_1,2023-09-11T20:47:49.093Z,,0,,,NaN,,,,,,false,,,,2629649.9000000954,2629649.9000000954,,2629649.700000286,,2629501.897,8,400,,,
break_continue,html.Screen,4_122_2,2023-09-11T20:47:49.093Z,,0,,,NaN,,,,,,false,,,,2629650.0999999046,2629650,,2629650,,2629501.897,8,400,,,
sequence,flow.Sequence,4_122,2023-09-11T20:47:49.093Z,,0,,,5308.183000000194,completion,,,,,false,,,,2629650.200000286,2629650,2624325.152,2624487.200000286,2624341.817,2629501.897,8,400,,,
trial,html.Screen,4_123_0,2023-09-11T20:47:52.477Z,,0,3,,3532.103000000119,response,ISIC_7702857.JPG,5,ISIC_0069970.JPG,ISIC_0069970.JPG,false,0,keypress(z),500,2633034.0999999046,2633034,2629485.214,2629650.3000001907,2629501.897,2632891.75,8,400,24,,ISIC_7702857.JPG
break,html.Screen,4_123_1,2023-09-11T20:47:52.478Z,,0,,,NaN,,,,,,false,,,,2633034.700000286,2633034.5999999046,,2633034.3000001907,,2632891.75,8,400,,,
break_continue,html.Screen,4_123_2,2023-09-11T20:47:52.478Z,,0,,,NaN,,,,,,false,,,,2633035,2633034.9000000954,,2633034.8000001907,,2632891.75,8,400,,,
sequence,flow.Sequence,4_123,2023-09-11T20:47:52.478Z,,0,,,3533.0030000954866,completion,,,,,false,,,,2633035.200000286,2633034.9000000954,2629485.214,2629650.3000001907,2629501.897,2632891.75,8,400,,,
