sender,sender_type,sender_id,timestamp,meta,,blockNo,condition,duration,ended_on,img_left,img_reveal,img_right,loser,practice,response,response_action,selection_duration,time_commit,time_end,time_render,time_run,time_show,time_switch,total_blocks,total_trials,trialNo,url,winner
informed_consent,html.Screen,0,2023-09-09T16:05:24.386Z,"{""labjs_version"":""20.2.4"",""labjs_build"":{""flavor"":""development"",""commit"":""f5b4a49f956347addd546a832a3327688c2c0fef""},""location"":""https://labjs.felixhenninger.com/api/labjs_preview/index.html"",""userAgent"":""Mozilla/5.0 (Windows NT 10.0; Win64; x64) AppleWebKit/537.36 (KHTML, like Gecko) Chrome/116.0.0.0 Safari/537.36"",""platform"":""Win32"",""language"":""en-AU"",""locale"":""en-US"",""timeZone"":""America/Chicago"",""timezoneOffset"":300,""screen_width"":1680,""screen_height"":1050,""scroll_width"":1296,""scroll_height"":688,""window_innerWidth"":1296,""window_innerHeight"":736,""devicePixelRatio"":1}",,,,62348.6149997139,response,,,,,,consent,click button,,62889.7999997139,62880.7999997139,515.536,522.5,532.185,62886.908,,,,{},
Welcome,html.Screen,1,2023-09-09T16:05:32.966Z,,,,symmetry,8581.591999999997,response,,,,,,continue,click button,,71469,71468.5,62870.244,62890.09999990463,62886.908,71487.073,,,,,
trial,html.Screen,2_0_0,2023-09-09T16:05:38.968Z,,0,0,,5984.3270000953635,response,ISIC_6997061.JPG,,ISIC_0069348.JPG,ISIC_0069348.JPG,true,0,keypress(z),500,77471.59999990463,77471.40000009537,71470.294,71469.19999980927,71487.073,77481.958,1,6,1,,ISIC_6997061.JPG
sequence,flow.Sequence,2_0,2023-09-09T16:05:38.968Z,,0,,,5984.3270000953635,completion,,,,,true,,,,77471.7999997139,77471.40000009537,71470.294,71469.19999980927,71487.073,77481.958,1,6,,,
trial,html.Screen,2_1_0,2023-09-09T16:05:41.681Z,,0,0,,2702.141999904634,response,ISIC_0009529.JPG,,ISIC_0057368.JPG,ISIC_0057368.JPG,true,0,keypress(z),500,80184.2999997139,80184.09999990463,77465.244,77471.7999997139,77481.958,80187.256,1,6,2,,ISIC_0009529.JPG
sequence,flow.Sequence,2_1,2023-09-09T16:05:41.681Z,,0,,,2702.141999904634,completion,,,,,true,,,,80184.5,80184.09999990463,77465.244,77471.7999997139,77481.958,80187.256,1,6,,,
trial,html.Screen,2_2_0,2023-09-09T16:05:44.263Z,,0,0,,2578.6440000953735,response,ISIC_0064954.JPG,,ISIC_9758671.JPG,ISIC_9758671.JPG,true,0,keypress(z),500,82766.09999990463,82765.90000009537,80170.548,80184.59999990463,80187.256,82775.798,1,6,3,,ISIC_0064954.JPG
sequence,flow.Sequence,2_2,2023-09-09T16:05:44.263Z,,0,,,2578.6440000953735,completion,,,,,true,,,,82766.2999997139,82765.90000009537,80170.548,80184.59999990463,80187.256,82775.798,1,6,,,
trial,html.Screen,2_3_0,2023-09-09T16:05:46.696Z,,0,0,,2423.3019999046373,response,ISIC_0000080.JPG,,ISIC_0005785.JPG,ISIC_0005785.JPG,true,0,keypress(z),500,85199.19999980927,85199.09999990463,82758.973,82766.2999997139,82775.798,85213.748,1,6,4,,ISIC_0000080.JPG
sequence,flow.Sequence,2_3,2023-09-09T16:05:46.696Z,,0,,,2423.3019999046373,completion,,,,,true,,,,85199.40000009537,85199.09999990463,82758.973,82766.2999997139,82775.798,85213.748,1,6,,,
trial,html.Screen,2_4_0,2023-09-09T16:05:49.185Z,,0,0,,2474.751999999993,response,ISIC_7944028.JPG,,ISIC_5390060.JPG,ISIC_5390060.JPG,true,0,keypress(z),500,87688.5,87688.5,85197.003,85199.59999990463,85213.748,87702.102,1,6,5,,ISIC_7944028.JPG
sequence,flow.Sequence,2_4,2023-09-09T16:05:49.185Z,,0,,,2474.751999999993,completion,,,,,true,,,,87688.7999997139,87688.5,85197.003,85199.40000009537,85213.748,87702.102,1,6,,,
trial,html.Screen,2_5_0,2023-09-09T16:05:51.722Z,,0,0,,2523.597999809266,response,ISIC_0794216.JPG,,ISIC_0010188.JPG,ISIC_0010188.JPG,true,0,keypress(z),500,90225.90000009537,90225.69999980927,87685.253,87688.7999997139,87702.102,90240.194,1,6,6,,ISIC_0794216.JPG
sequence,flow.Sequence,2_5,2023-09-09T16:05:51.723Z,,0,,,2523.597999809266,completion,,,,,true,,,,90226.09999990463,90225.69999980927,87685.253,87688.7999997139,87702.102,90240.194,1,6,,,
loop,flow.Loop,2,2023-09-09T16:05:51.723Z,,,,,18738.62699980926,completion,,,,,true,,,,90226.19999980927,90225.69999980927,71470.294,71469.09999990463,71487.073,90240.194,1,6,,,
exp_instructions,html.Screen,3,2023-09-09T16:06:25.140Z,,,,,33402.605999713895,response,,,,,,continue,keypress(Space),,123643.2999997139,123642.7999997139,90223.641,90226.2999997139,90240.194,123671.92,,,,,
trial,html.Screen,4_0_0,2023-09-09T16:06:33.578Z,,0,1,,8409.3799997139,response,ISIC_0014336.JPG,5,ISIC_0054248.JPG,ISIC_0014336.JPG,false,1,keypress(m),500,132081.40000009537,132081.2999997139,123655.235,123643.40000009537,123671.92,132088.212,8,400,1,,ISIC_0054248.JPG
break,html.Screen,4_0_1,2023-09-09T16:06:33.579Z,,0,,,NaN,,,,,,false,,,,132082.40000009537,132082,,132081.59999990463,,132088.212,8,400,,,
break_continue,html.Screen,4_0_2,2023-09-09T16:06:33.580Z,,0,,,NaN,,,,,,false,,,,132082.90000009537,132082.69999980927,,132082.5,,132088.212,8,400,,,
sequence,flow.Sequence,4_0,2023-09-09T16:06:33.580Z,,0,,,8410.779999809267,completion,,,,,false,,,,132083,132082.69999980927,123655.235,123643.40000009537,123671.92,132088.212,8,400,,,
trial,html.Screen,4_1_0,2023-09-09T16:06:40.654Z,,0,1,,7068.7880000000005,response,ISIC_6715897.JPG,6,ISIC_0054744.JPG,ISIC_0054744.JPG,false,0,keypress(z),500,139157.09999990463,139157,132071.706,132083.09999990463,132088.212,139168.654,8,400,2,,ISIC_6715897.JPG
break,html.Screen,4_1_1,2023-09-09T16:06:40.655Z,,0,,,NaN,,,,,,false,,,,139157.90000009537,139157.59999990463,,139157.2999997139,,139168.654,8,400,,,
break_continue,html.Screen,4_1_2,2023-09-09T16:06:40.655Z,,0,,,NaN,,,,,,false,,,,139158.19999980927,139158.09999990463,,139158,,139168.654,8,400,,,
sequence,flow.Sequence,4_1,2023-09-09T16:06:40.655Z,,0,,,7069.887999904633,completion,,,,,false,,,,139158.2999997139,139158.09999990463,132071.706,132083.09999990463,132088.212,139168.654,8,400,,,
trial,html.Screen,4_2_0,2023-09-09T16:06:45.856Z,,0,1,,5190.545999809256,response,ISIC_0189694.JPG,5,ISIC_1294049.JPG,ISIC_0189694.JPG,false,1,keypress(m),500,144359.40000009537,144359.19999980927,139152.068,139158.40000009537,139168.654,144362.097,8,400,3,,ISIC_1294049.JPG
break,html.Screen,4_2_1,2023-09-09T16:06:45.857Z,,0,,,NaN,,,,,,false,,,,144360,144359.7999997139,,144359.5,,144362.097,8,400,,,
break_continue,html.Screen,4_2_2,2023-09-09T16:06:45.857Z,,0,,,NaN,,,,,,false,,,,144360.19999980927,144360.19999980927,,144360.09999990463,,144362.097,8,400,,,
sequence,flow.Sequence,4_2,2023-09-09T16:06:45.857Z,,0,,,5191.545999809256,completion,,,,,false,,,,144360.2999997139,144360.19999980927,139152.068,139158.2999997139,139168.654,144362.097,8,400,,,
trial,html.Screen,4_3_0,2023-09-09T16:06:53.300Z,,0,1,,7438.902999999991,response,ISIC_0067577.JPG,5,ISIC_0031611.JPG,ISIC_0067577.JPG,false,1,keypress(m),500,151801.09999990463,151801,144345.389,144360.40000009537,144362.097,151809.955,8,400,4,,ISIC_0031611.JPG
break,html.Screen,4_3_1,2023-09-09T16:06:53.301Z,,0,,,NaN,,,,,,false,,,,151801.90000009537,151801.69999980927,,151801.2999997139,,151809.955,8,400,,,
break_continue,html.Screen,4_3_2,2023-09-09T16:06:53.301Z,,0,,,NaN,,,,,,false,,,,151802.19999980927,151802.09999990463,,151802,,151809.955,8,400,,,
sequence,flow.Sequence,4_3,2023-09-09T16:06:53.301Z,,0,,,7440.002999904624,completion,,,,,false,,,,151802.19999980927,151802.09999990463,144345.389,144360.2999997139,144362.097,151809.955,8,400,,,
trial,html.Screen,4_4_0,2023-09-09T16:07:01.815Z,,0,1,,8505.94500009538,response,ISIC_0013136.JPG,5,ISIC_1008609.JPG,ISIC_0013136.JPG,false,1,keypress(m),500,160316.19999980927,160315.90000009537,151793.245,151802.2999997139,151809.955,160326.567,8,400,5,,ISIC_1008609.JPG
break,html.Screen,4_4_1,2023-09-09T16:07:01.816Z,,0,,,NaN,,,,,,false,,,,160317.2999997139,160317,,160316.5,,160326.567,8,400,,,
break_continue,html.Screen,4_4_2,2023-09-09T16:07:01.817Z,,0,,,NaN,,,,,,false,,,,160318,160317.7999997139,,160317.5,,160326.567,8,400,,,
sequence,flow.Sequence,4_4,2023-09-09T16:07:01.817Z,,0,,,8507.84499971391,completion,,,,,false,,,,160318.09999990463,160317.7999997139,151793.245,151802.2999997139,151809.955,160326.567,8,400,,,
trial,html.Screen,4_5_0,2023-09-09T16:07:08.384Z,,0,1,,6559.032999904623,response,ISIC_5046082.JPG,5,ISIC_0032341.JPG,ISIC_0032341.JPG,false,0,keypress(z),500,166885.69999980927,166885.59999990463,160309.968,160318.40000009537,160326.567,166889.241,8,400,6,,ISIC_5046082.JPG
break,html.Screen,4_5_1,2023-09-09T16:07:08.385Z,,0,,,NaN,,,,,,false,,,,166886.2999997139,166886.19999980927,,166885.90000009537,,166889.241,8,400,,,
break_continue,html.Screen,4_5_2,2023-09-09T16:07:08.385Z,,0,,,NaN,,,,,,false,,,,166886.5,166886.40000009537,,166886.2999997139,,166889.241,8,400,,,
sequence,flow.Sequence,4_5,2023-09-09T16:07:08.385Z,,0,,,6559.833000095357,completion,,,,,false,,,,166886.5,166886.40000009537,160309.968,160318.2999997139,160326.567,166889.241,8,400,,,
trial,html.Screen,4_6_0,2023-09-09T16:07:15.402Z,,0,1,,7013.558999713889,response,ISIC_0011398.JPG,4,ISIC_0009993.JPG,ISIC_0009993.JPG,false,0,keypress(z),500,173902.90000009537,173902.7999997139,166872.616,166886.59999990463,166889.241,173919.715,8,400,7,,ISIC_0011398.JPG
break,html.Screen,4_6_1,2023-09-09T16:07:15.402Z,,0,,,NaN,,,,,,false,,,,173903.5,173903.40000009537,,173903.09999990463,,173919.715,8,400,,,
break_continue,html.Screen,4_6_2,2023-09-09T16:07:15.402Z,,0,,,NaN,,,,,,false,,,,173903.69999980927,173903.59999990463,,173903.59999990463,,173919.715,8,400,,,
sequence,flow.Sequence,4_6,2023-09-09T16:07:15.402Z,,0,,,7014.3589999046235,completion,,,,,false,,,,173903.7999997139,173903.59999990463,166872.616,166886.59999990463,166889.241,173919.715,8,400,,,
trial,html.Screen,4_7_0,2023-09-09T16:07:21.596Z,,0,1,,6177.685000095371,response,ISIC_0014349.JPG,6,ISIC_0025138.JPG,ISIC_0014349.JPG,false,1,keypress(m),500,180097.5,180097.40000009537,173902.945,173903.90000009537,173919.715,180098.325,8,400,8,,ISIC_0025138.JPG
break,html.Screen,4_7_1,2023-09-09T16:07:21.597Z,,0,,,NaN,,,,,,false,,,,180098.09999990463,180097.90000009537,,180097.69999980927,,180098.325,8,400,,,
break_continue,html.Screen,4_7_2,2023-09-09T16:07:21.597Z,,0,,,NaN,,,,,,false,,,,180098.59999990463,180098.40000009537,,180098.19999980927,,180098.325,8,400,,,
sequence,flow.Sequence,4_7,2023-09-09T16:07:21.597Z,,0,,,6178.685000095371,completion,,,,,false,,,,180098.69999980927,180098.40000009537,173902.945,173903.90000009537,173919.715,180098.325,8,400,,,
trial,html.Screen,4_8_0,2023-09-09T16:07:31.087Z,,0,1,,9489.874999809253,response,ISIC_8843592.JPG,5,ISIC_1132966.JPG,ISIC_1132966.JPG,false,0,keypress(z),500,189588.40000009537,189588.19999980927,180081.722,180098.7999997139,180098.325,189600.162,8,400,9,,ISIC_8843592.JPG
break,html.Screen,4_8_1,2023-09-09T16:07:31.088Z,,0,,,NaN,,,,,,false,,,,189588.7999997139,189588.69999980927,,189588.5,,189600.162,8,400,,,
break_continue,html.Screen,4_8_2,2023-09-09T16:07:31.088Z,,0,,,NaN,,,,,,false,,,,189589.09999990463,189589,,189588.90000009537,,189600.162,8,400,,,
sequence,flow.Sequence,4_8,2023-09-09T16:07:31.088Z,,0,,,9490.674999999988,completion,,,,,false,,,,189589.09999990463,189589,180081.722,180098.69999980927,180098.325,189600.162,8,400,,,
trial,html.Screen,4_9_0,2023-09-09T16:07:36.565Z,,0,1,,5465.837999999989,response,ISIC_0003201.JPG,6,ISIC_1974281.JPG,ISIC_0003201.JPG,false,1,keypress(m),500,195066.09999990463,195066,189583.578,189589.19999980927,189600.162,195077.574,8,400,10,,ISIC_1974281.JPG
break,html.Screen,4_9_1,2023-09-09T16:07:36.565Z,,0,,,NaN,,,,,,false,,,,195066.59999990463,195066.40000009537,,195066.19999980927,,195077.574,8,400,,,
break_continue,html.Screen,4_9_2,2023-09-09T16:07:36.565Z,,0,,,NaN,,,,,,false,,,,195066.7999997139,195066.69999980927,,195066.59999990463,,195077.574,8,400,,,
sequence,flow.Sequence,4_9,2023-09-09T16:07:36.566Z,,0,,,5466.537999809254,completion,,,,,false,,,,195066.7999997139,195066.69999980927,189583.578,189589.19999980927,189600.162,195077.574,8,400,,,
trial,html.Screen,4_10_0,2023-09-09T16:07:43.830Z,,0,1,,7254.025999904639,response,ISIC_0028087.JPG,5,ISIC_3031937.JPG,ISIC_0028087.JPG,false,1,keypress(m),500,202331.7999997139,202331.59999990463,195060.795,195066.90000009537,195077.574,202341.581,8,400,11,,ISIC_3031937.JPG
break,html.Screen,4_10_1,2023-09-09T16:07:43.831Z,,0,,,NaN,,,,,,false,,,,202332.5,202332.40000009537,,202331.90000009537,,202341.581,8,400,,,
break_continue,html.Screen,4_10_2,2023-09-09T16:07:43.832Z,,0,,,NaN,,,,,,false,,,,202332.7999997139,202332.7999997139,,202332.59999990463,,202341.581,8,400,,,
sequence,flow.Sequence,4_10,2023-09-09T16:07:43.832Z,,0,,,7255.2259997139045,completion,,,,,false,,,,202332.90000009537,202332.7999997139,195060.795,195066.7999997139,195077.574,202341.581,8,400,,,
trial,html.Screen,4_11_0,2023-09-09T16:07:50.361Z,,0,1,,6520.718999713892,response,ISIC_0062734.JPG,6,ISIC_0033775.JPG,ISIC_0033775.JPG,false,0,keypress(z),500,208862.2999997139,208862.2999997139,202324.973,202333,202341.581,208871.078,8,400,12,,ISIC_0062734.JPG
break,html.Screen,4_11_1,2023-09-09T16:07:50.361Z,,0,,,NaN,,,,,,false,,,,208862.7999997139,208862.69999980927,,208862.5,,208871.078,8,400,,,
break_continue,html.Screen,4_11_2,2023-09-09T16:07:50.362Z,,0,,,NaN,,,,,,false,,,,208863,208862.90000009537,,208862.90000009537,,208871.078,8,400,,,
sequence,flow.Sequence,4_11,2023-09-09T16:07:50.362Z,,0,,,6521.319000095362,completion,,,,,false,,,,208863,208862.90000009537,202324.973,202333,202341.581,208871.078,8,400,,,
trial,html.Screen,4_12_0,2023-09-09T16:07:57.708Z,,0,1,,7337.021999904624,response,ISIC_0000801.JPG,5,ISIC_0065449.JPG,ISIC_0065449.JPG,false,0,keypress(z),500,216208.40000009537,216208.09999990463,208854.348,208863,208871.078,216218.599,8,400,13,,ISIC_0000801.JPG
break,html.Screen,4_12_1,2023-09-09T16:07:57.710Z,,0,,,NaN,,,,,,false,,,,216210.19999980927,216209.69999980927,,216208.90000009537,,216218.599,8,400,,,
break_continue,html.Screen,4_12_2,2023-09-09T16:07:57.711Z,,0,,,NaN,,,,,,false,,,,216211.09999990463,216210.7999997139,,216210.40000009537,,216218.599,8,400,,,
sequence,flow.Sequence,4_12,2023-09-09T16:07:57.711Z,,0,,,7339.721999713889,completion,,,,,false,,,,216211.40000009537,216210.7999997139,208854.348,208863,208871.078,216218.599,8,400,,,
trial,html.Screen,4_13_0,2023-09-09T16:08:04.647Z,,0,1,,6928.600999809278,response,ISIC_8278688.JPG,5,ISIC_7933945.JPG,ISIC_7933945.JPG,false,0,keypress(z),500,223147.40000009537,223147.19999980927,216202.003,216211.59999990463,216218.599,223148.763,8,400,14,,ISIC_8278688.JPG
break,html.Screen,4_13_1,2023-09-09T16:08:04.648Z,,0,,,NaN,,,,,,false,,,,223148.09999990463,223147.90000009537,,223147.5,,223148.763,8,400,,,
break_continue,html.Screen,4_13_2,2023-09-09T16:08:04.648Z,,0,,,NaN,,,,,,false,,,,223148.40000009537,223148.40000009537,,223148.19999980927,,223148.763,8,400,,,
sequence,flow.Sequence,4_13,2023-09-09T16:08:04.648Z,,0,,,6929.80100009538,completion,,,,,false,,,,223148.69999980927,223148.40000009537,216202.003,216211.59999990463,216218.599,223148.763,8,400,,,
trial,html.Screen,4_14_0,2023-09-09T16:08:10.593Z,,0,1,,5944.736999999994,response,ISIC_0031363.JPG,5,ISIC_0011848.JPG,ISIC_0011848.JPG,false,0,keypress(z),500,229093.5,229093.5,223132.042,223148.7999997139,223148.763,229110.396,8,400,15,,ISIC_0031363.JPG
break,html.Screen,4_14_1,2023-09-09T16:08:10.594Z,,0,,,NaN,,,,,,false,,,,229094.09999990463,229094,,229093.69999980927,,229110.396,8,400,,,
break_continue,html.Screen,4_14_2,2023-09-09T16:08:10.594Z,,0,,,NaN,,,,,,false,,,,229094.2999997139,229094.2999997139,,229094.19999980927,,229110.396,8,400,,,
sequence,flow.Sequence,4_14,2023-09-09T16:08:10.594Z,,0,,,5945.536999713891,completion,,,,,false,,,,229094.2999997139,229094.2999997139,223132.042,223148.69999980927,223148.763,229110.396,8,400,,,
trial,html.Screen,4_15_0,2023-09-09T16:08:15.428Z,,0,1,,4818.0040000953595,response,ISIC_0011701.JPG,4,ISIC_0030718.JPG,ISIC_0011701.JPG,false,1,keypress(m),500,233928.69999980927,233928.40000009537,229093.68,229094.40000009537,229110.396,233936.424,8,400,16,,ISIC_0030718.JPG
break,html.Screen,4_15_1,2023-09-09T16:08:15.429Z,,0,,,NaN,,,,,,false,,,,233929.69999980927,233929.5,,233929,,233936.424,8,400,,,
break_continue,html.Screen,4_15_2,2023-09-09T16:08:15.430Z,,0,,,NaN,,,,,,false,,,,233930,233929.90000009537,,233929.7999997139,,233936.424,8,400,,,
sequence,flow.Sequence,4_15,2023-09-09T16:08:15.430Z,,0,,,4819.5040000953595,completion,,,,,false,,,,233930.19999980927,233929.90000009537,229093.68,229094.40000009537,229110.396,233936.424,8,400,,,
trial,html.Screen,4_16_0,2023-09-09T16:08:22.173Z,,0,1,,6736.875999713899,response,ISIC_9433473.JPG,5,ISIC_0030219.JPG,ISIC_0030219.JPG,false,0,keypress(z),500,240673.59999990463,240673.2999997139,233919.758,233930.19999980927,233936.424,240682.906,8,400,17,,ISIC_9433473.JPG
break,html.Screen,4_16_1,2023-09-09T16:08:22.174Z,,0,,,NaN,,,,,,false,,,,240674.40000009537,240674.19999980927,,240673.7999997139,,240682.906,8,400,,,
break_continue,html.Screen,4_16_2,2023-09-09T16:08:22.175Z,,0,,,NaN,,,,,,false,,,,240674.69999980927,240674.69999980927,,240674.5,,240682.906,8,400,,,
sequence,flow.Sequence,4_16,2023-09-09T16:08:22.175Z,,0,,,6738.275999809266,completion,,,,,false,,,,240674.90000009537,240674.69999980927,233919.758,233930.19999980927,233936.424,240682.906,8,400,,,
trial,html.Screen,4_17_0,2023-09-09T16:08:29.568Z,,0,1,,7385.594000000012,response,ISIC_9935444.JPG,5,ISIC_0029716.JPG,ISIC_0029716.JPG,false,0,keypress(z),500,248068.69999980927,248068.5,240666.183,240675,240682.906,248080.59,8,400,18,,ISIC_9935444.JPG
break,html.Screen,4_17_1,2023-09-09T16:08:29.569Z,,0,,,NaN,,,,,,false,,,,248069.5,248069.2999997139,,248068.90000009537,,248080.59,8,400,,,
break_continue,html.Screen,4_17_2,2023-09-09T16:08:29.570Z,,0,,,NaN,,,,,,false,,,,248069.90000009537,248069.7999997139,,248069.59999990463,,248080.59,8,400,,,
sequence,flow.Sequence,4_17,2023-09-09T16:08:29.570Z,,0,,,7386.89399971391,completion,,,,,false,,,,248070,248069.7999997139,240666.183,240675,240682.906,248080.59,8,400,,,
trial,html.Screen,4_18_0,2023-09-09T16:08:36.403Z,,0,1,,6822.709999713901,response,ISIC_0072997.JPG,6,ISIC_0001578.JPG,ISIC_0072997.JPG,false,1,keypress(m),500,254903.40000009537,254903.2999997139,248063.995,248070.09999990463,248080.59,254927.472,8,400,19,,ISIC_0001578.JPG
break,html.Screen,4_18_1,2023-09-09T16:08:36.404Z,,0,,,NaN,,,,,,false,,,,254903.7999997139,254903.69999980927,,254903.5,,254927.472,8,400,,,
break_continue,html.Screen,4_18_2,2023-09-09T16:08:36.404Z,,0,,,NaN,,,,,,false,,,,254904,254904,,254903.7999997139,,254927.472,8,400,,,
sequence,flow.Sequence,4_18,2023-09-09T16:08:36.404Z,,0,,,6823.4100000000035,completion,,,,,false,,,,254904,254904,248063.995,248070.09999990463,248080.59,254927.472,8,400,,,
trial,html.Screen,4_19_0,2023-09-09T16:08:41.541Z,,0,1,,5113.627999904624,response,ISIC_8190708.JPG,5,ISIC_8143286.JPG,ISIC_8143286.JPG,false,0,keypress(z),500,260041.19999980927,260041.09999990463,254910.66,254904.09999990463,254927.472,260054.048,8,400,20,,ISIC_8190708.JPG
break,html.Screen,4_19_1,2023-09-09T16:08:41.541Z,,0,,,NaN,,,,,,false,,,,260041.59999990463,260041.59999990463,,260041.2999997139,,260054.048,8,400,,,
break_continue,html.Screen,4_19_2,2023-09-09T16:08:41.542Z,,0,,,NaN,,,,,,false,,,,260041.90000009537,260041.7999997139,,260041.7999997139,,260054.048,8,400,,,
sequence,flow.Sequence,4_19,2023-09-09T16:08:41.542Z,,0,,,5114.327999713889,completion,,,,,false,,,,260042,260041.7999997139,254910.66,254904.09999990463,254927.472,260054.048,8,400,,,
trial,html.Screen,4_20_0,2023-09-09T16:08:48.487Z,,0,1,,6933.45199999999,response,ISIC_2908315.JPG,6,ISIC_7728263.JPG,ISIC_7728263.JPG,false,0,keypress(z),500,266987.59999990463,266987.5,260037.256,260042.09999990463,260054.048,267000.959,8,400,21,,ISIC_2908315.JPG
break,html.Screen,4_20_1,2023-09-09T16:08:48.488Z,,0,,,NaN,,,,,,false,,,,266988.59999990463,266988.2999997139,,266987.7999997139,,267000.959,8,400,,,
break_continue,html.Screen,4_20_2,2023-09-09T16:08:48.489Z,,0,,,NaN,,,,,,false,,,,266989,266988.90000009537,,266988.69999980927,,267000.959,8,400,,,
sequence,flow.Sequence,4_20,2023-09-09T16:08:48.489Z,,0,,,6934.852000095358,completion,,,,,false,,,,266989.09999990463,266988.90000009537,260037.256,260042.09999990463,260054.048,267000.959,8,400,,,
trial,html.Screen,4_21_0,2023-09-09T16:08:56.717Z,,0,1,,8215.14099990466,response,ISIC_1819071.JPG,4,ISIC_0046597.JPG,ISIC_1819071.JPG,false,1,keypress(m),500,275216.2999997139,275216.09999990463,266984.131,266989.2999997139,267000.959,275233.538,8,400,22,,ISIC_0046597.JPG
break,html.Screen,4_21_1,2023-09-09T16:08:56.718Z,,0,,,NaN,,,,,,false,,,,275217.2999997139,275216.90000009537,,275216.5,,275233.538,8,400,,,
break_continue,html.Screen,4_21_2,2023-09-09T16:08:56.718Z,,0,,,NaN,,,,,,false,,,,275217.59999990463,275217.59999990463,,275217.5,,275233.538,8,400,,,
sequence,flow.Sequence,4_21,2023-09-09T16:08:56.718Z,,0,,,8216.64099990466,completion,,,,,false,,,,275217.7999997139,275217.59999990463,266984.131,266989.09999990463,267000.959,275233.538,8,400,,,
trial,html.Screen,4_22_0,2023-09-09T16:09:01.891Z,,0,1,,5156.261999713897,response,ISIC_3747979.JPG,6,ISIC_0031999.JPG,ISIC_0031999.JPG,false,0,keypress(z),500,280390.19999980927,280389.7999997139,275216.786,275217.90000009537,275233.538,280393.656,8,400,23,,ISIC_3747979.JPG
break,html.Screen,4_22_1,2023-09-09T16:09:01.893Z,,0,,,NaN,,,,,,false,,,,280392,280391.5,,280390.59999990463,,280393.656,8,400,,,
break_continue,html.Screen,4_22_2,2023-09-09T16:09:01.894Z,,0,,,NaN,,,,,,false,,,,280392.90000009537,280392.59999990463,,280392.19999980927,,280393.656,8,400,,,
sequence,flow.Sequence,4_22,2023-09-09T16:09:01.894Z,,0,,,5159.061999904632,completion,,,,,false,,,,280393.19999980927,280392.59999990463,275216.786,275217.7999997139,275233.538,280393.656,8,400,,,
trial,html.Screen,4_23_0,2023-09-09T16:09:07.181Z,,0,1,,5286.943999904615,response,ISIC_4728589.JPG,6,ISIC_2658858.JPG,ISIC_2658858.JPG,false,0,keypress(z),500,285680.7999997139,285680.59999990463,280376.928,280393.40000009537,280393.656,285687.126,8,400,24,,ISIC_4728589.JPG
break,html.Screen,4_23_1,2023-09-09T16:09:07.182Z,,0,,,NaN,,,,,,false,,,,285681.19999980927,285681.09999990463,,285680.90000009537,,285687.126,8,400,,,
break_continue,html.Screen,4_23_2,2023-09-09T16:09:07.182Z,,0,,,NaN,,,,,,false,,,,285681.40000009537,285681.2999997139,,285681.19999980927,,285687.126,8,400,,,
sequence,flow.Sequence,4_23,2023-09-09T16:09:07.182Z,,0,,,5287.6439997138805,completion,,,,,false,,,,285681.5,285681.2999997139,280376.928,280393.40000009537,280393.656,285687.126,8,400,,,
trial,html.Screen,4_24_0,2023-09-09T16:09:13.504Z,,0,1,,6315.973999904643,response,ISIC_7423852.JPG,5,ISIC_9048507.JPG,ISIC_7423852.JPG,false,1,keypress(m),500,292003.2999997139,292003.09999990463,285670.406,285681.5,285687.126,292032.786,8,400,25,,ISIC_9048507.JPG
break,html.Screen,4_24_1,2023-09-09T16:09:13.504Z,,0,,,NaN,,,,,,false,,,,292003.69999980927,292003.59999990463,,292003.40000009537,,292032.786,8,400,,,
break_continue,html.Screen,4_24_2,2023-09-09T16:09:13.505Z,,0,,,NaN,,,,,,false,,,,292003.90000009537,292003.7999997139,,292003.69999980927,,292032.786,8,400,,,
sequence,flow.Sequence,4_24,2023-09-09T16:09:13.505Z,,0,,,6316.673999713908,completion,,,,,false,,,,292003.90000009537,292003.7999997139,285670.406,285681.5,285687.126,292032.786,8,400,,,
trial,html.Screen,4_25_0,2023-09-09T16:09:17.987Z,,0,1,,4452.913999809243,response,ISIC_0006750.JPG,4,ISIC_0061066.JPG,ISIC_0061066.JPG,false,0,keypress(z),500,296485.90000009537,296485.69999980927,292016.213,292003.90000009537,292032.786,296491.512,8,400,26,,ISIC_0006750.JPG
break,html.Screen,4_25_1,2023-09-09T16:09:17.988Z,,0,,,NaN,,,,,,false,,,,296486.7999997139,296486.59999990463,,296486.09999990463,,296491.512,8,400,,,
break_continue,html.Screen,4_25_2,2023-09-09T16:09:17.988Z,,0,,,NaN,,,,,,false,,,,296487.2999997139,296487.09999990463,,296487,,296491.512,8,400,,,
sequence,flow.Sequence,4_25,2023-09-09T16:09:17.988Z,,0,,,4454.313999904611,completion,,,,,false,,,,296487.40000009537,296487.09999990463,292016.213,292003.90000009537,292032.786,296491.512,8,400,,,
trial,html.Screen,4_26_0,2023-09-09T16:09:23.606Z,,0,1,,5613.587999904645,response,ISIC_7779155.JPG,4,ISIC_0058906.JPG,ISIC_0058906.JPG,false,0,keypress(z),500,302105.19999980927,302105.09999990463,296474.81,296487.5,296491.512,302119.137,8,400,27,,ISIC_7779155.JPG
break,html.Screen,4_26_1,2023-09-09T16:09:23.606Z,,0,,,NaN,,,,,,false,,,,302105.69999980927,302105.5,,302105.2999997139,,302119.137,8,400,,,
break_continue,html.Screen,4_26_2,2023-09-09T16:09:23.607Z,,0,,,NaN,,,,,,false,,,,302105.90000009537,302105.7999997139,,302105.69999980927,,302119.137,8,400,,,
sequence,flow.Sequence,4_26,2023-09-09T16:09:23.607Z,,0,,,5614.28799971391,completion,,,,,false,,,,302105.90000009537,302105.7999997139,296474.81,296487.5,296491.512,302119.137,8,400,,,
trial,html.Screen,4_27_0,2023-09-09T16:09:30.989Z,,0,1,,7369.2630000953795,response,ISIC_0028618.JPG,5,ISIC_7141153.JPG,ISIC_0028618.JPG,false,1,keypress(m),500,309488.59999990463,309488.40000009537,302102.408,302106,302119.137,309500.16,8,400,28,,ISIC_7141153.JPG
break,html.Screen,4_27_1,2023-09-09T16:09:30.991Z,,0,,,NaN,,,,,,false,,,,309489.90000009537,309489.40000009537,,309488.90000009537,,309500.16,8,400,,,
break_continue,html.Screen,4_27_2,2023-09-09T16:09:30.991Z,,0,,,NaN,,,,,,false,,,,309490.40000009537,309490.19999980927,,309490,,309500.16,8,400,,,
sequence,flow.Sequence,4_27,2023-09-09T16:09:30.991Z,,0,,,7371.062999809277,completion,,,,,false,,,,309490.59999990463,309490.19999980927,302102.408,302106,302119.137,309500.16,8,400,,,
trial,html.Screen,4_28_0,2023-09-09T16:09:35.825Z,,0,1,,4824.139999713923,response,ISIC_4851652.JPG,5,ISIC_8680266.JPG,ISIC_8680266.JPG,false,0,keypress(z),500,314324.40000009537,314324.2999997139,309483.497,309490.69999980927,309500.16,314326.206,8,400,29,,ISIC_4851652.JPG
break,html.Screen,4_28_1,2023-09-09T16:09:35.826Z,,0,,,NaN,,,,,,false,,,,314325,314324.7999997139,,314324.5,,314326.206,8,400,,,
break_continue,html.Screen,4_28_2,2023-09-09T16:09:35.826Z,,0,,,NaN,,,,,,false,,,,314325.2999997139,314325.2999997139,,314325.09999990463,,314326.206,8,400,,,
sequence,flow.Sequence,4_28,2023-09-09T16:09:35.826Z,,0,,,4825.139999713923,completion,,,,,false,,,,314325.40000009537,314325.2999997139,309483.497,309490.69999980927,309500.16,314326.206,8,400,,,
trial,html.Screen,4_29_0,2023-09-09T16:09:41.445Z,,0,1,,5618.393999904627,response,ISIC_3295750.JPG,5,ISIC_0013707.JPG,ISIC_0013707.JPG,false,0,keypress(z),500,319944.7999997139,319944.59999990463,314309.58,314325.40000009537,314326.206,319953.783,8,400,30,,ISIC_3295750.JPG
break,html.Screen,4_29_1,2023-09-09T16:09:41.446Z,,0,,,NaN,,,,,,false,,,,319945.19999980927,319945,,319944.90000009537,,319953.783,8,400,,,
break_continue,html.Screen,4_29_2,2023-09-09T16:09:41.446Z,,0,,,NaN,,,,,,false,,,,319945.2999997139,319945.2999997139,,319945.19999980927,,319953.783,8,400,,,
sequence,flow.Sequence,4_29,2023-09-09T16:09:41.446Z,,0,,,5619.093999713892,completion,,,,,false,,,,319945.40000009537,319945.2999997139,314309.58,314325.40000009537,314326.206,319953.783,8,400,,,
trial,html.Screen,4_30_0,2023-09-09T16:09:48.584Z,,0,1,,7129.016999713902,response,ISIC_0028692.JPG,5,ISIC_1292607.JPG,ISIC_0028692.JPG,false,1,keypress(m),500,327083.09999990463,327082.7999997139,319937.148,319945.5,319953.783,327101.146,8,400,31,,ISIC_1292607.JPG
break,html.Screen,4_30_1,2023-09-09T16:09:48.586Z,,0,,,NaN,,,,,,false,,,,327084.90000009537,327084.19999980927,,327083.59999990463,,327101.146,8,400,,,
break_continue,html.Screen,4_30_2,2023-09-09T16:09:48.587Z,,0,,,NaN,,,,,,false,,,,327086.09999990463,327085.7999997139,,327085.19999980927,,327101.146,8,400,,,
sequence,flow.Sequence,4_30,2023-09-09T16:09:48.587Z,,0,,,7132.016999713902,completion,,,,,false,,,,327086.5,327085.7999997139,319937.148,319945.40000009537,319953.783,327101.146,8,400,,,
trial,html.Screen,4_31_0,2023-09-09T16:09:52.514Z,,0,1,,3910.65399971389,response,ISIC_0060585.JPG,5,ISIC_3566243.JPG,ISIC_0060585.JPG,false,1,keypress(m),500,331011.90000009537,331011.7999997139,327084.427,327086.69999980927,327101.146,331025.444,8,400,32,,ISIC_3566243.JPG
break,html.Screen,4_31_1,2023-09-09T16:09:52.514Z,,0,,,NaN,,,,,,false,,,,331012.69999980927,331012.40000009537,,331012.09999990463,,331025.444,8,400,,,
break_continue,html.Screen,4_31_2,2023-09-09T16:09:52.515Z,,0,,,NaN,,,,,,false,,,,331013,331013,,331012.7999997139,,331025.444,8,400,,,
sequence,flow.Sequence,4_31,2023-09-09T16:09:52.515Z,,0,,,3911.853999999992,completion,,,,,false,,,,331013.09999990463,331013,327084.427,327086.59999990463,327101.146,331025.444,8,400,,,
trial,html.Screen,4_32_0,2023-09-09T16:09:57.914Z,,0,1,,5386.755999809247,response,ISIC_6609379.JPG,6,ISIC_1396767.JPG,ISIC_6609379.JPG,false,1,keypress(m),500,336412.2999997139,336412.19999980927,331008.719,331013.09999990463,331025.444,336419.169,8,400,33,,ISIC_1396767.JPG
break,html.Screen,4_32_1,2023-09-09T16:09:57.915Z,,0,,,NaN,,,,,,false,,,,336412.7999997139,336412.69999980927,,336412.5,,336419.169,8,400,,,
break_continue,html.Screen,4_32_2,2023-09-09T16:09:57.915Z,,0,,,NaN,,,,,,false,,,,336413,336412.90000009537,,336412.7999997139,,336419.169,8,400,,,
sequence,flow.Sequence,4_32,2023-09-09T16:09:57.915Z,,0,,,5387.45600009535,completion,,,,,false,,,,336413,336412.90000009537,331008.719,331013.09999990463,331025.444,336419.169,8,400,,,
trial,html.Screen,4_33_0,2023-09-09T16:10:05.132Z,,0,1,,7211.030999809271,response,ISIC_0055731.JPG,5,ISIC_8814612.JPG,ISIC_0055731.JPG,false,1,keypress(m),500,343630.40000009537,343630.19999980927,336402.61,336413,336419.169,343633.225,8,400,34,,ISIC_8814612.JPG
break,html.Screen,4_33_1,2023-09-09T16:10:05.133Z,,0,,,NaN,,,,,,false,,,,343630.7999997139,343630.59999990463,,343630.5,,343633.225,8,400,,,
break_continue,html.Screen,4_33_2,2023-09-09T16:10:05.133Z,,0,,,NaN,,,,,,false,,,,343631,343630.90000009537,,343630.7999997139,,343633.225,8,400,,,
sequence,flow.Sequence,4_33,2023-09-09T16:10:05.133Z,,0,,,7211.731000095373,completion,,,,,false,,,,343631,343630.90000009537,336402.61,336413,336419.169,343633.225,8,400,,,
trial,html.Screen,4_34_0,2023-09-09T16:10:11.694Z,,0,1,,6559.074999713921,response,ISIC_0010240.JPG,5,ISIC_0029459.JPG,ISIC_0010240.JPG,false,1,keypress(m),500,350192.5,350192.2999997139,343616.532,343631.09999990463,343633.225,350195.974,8,400,35,,ISIC_0029459.JPG
break,html.Screen,4_34_1,2023-09-09T16:10:11.695Z,,0,,,NaN,,,,,,false,,,,350193,350192.7999997139,,350192.59999990463,,350195.974,8,400,,,
break_continue,html.Screen,4_34_2,2023-09-09T16:10:11.695Z,,0,,,NaN,,,,,,false,,,,350193.2999997139,350193.2999997139,,350193.09999990463,,350195.974,8,400,,,
sequence,flow.Sequence,4_34,2023-09-09T16:10:11.695Z,,0,,,6560.074999713921,completion,,,,,false,,,,350193.40000009537,350193.2999997139,343616.532,343631,343633.225,350195.974,8,400,,,
trial,html.Screen,4_35_0,2023-09-09T16:10:20.208Z,,0,1,,8510.42600009538,response,ISIC_1533305.JPG,5,ISIC_0032462.JPG,ISIC_1533305.JPG,false,1,keypress(m),500,358706.59999990463,358706.40000009537,350179.312,350193.40000009537,350195.974,358712.651,8,400,36,,ISIC_0032462.JPG
break,html.Screen,4_35_1,2023-09-09T16:10:20.209Z,,0,,,NaN,,,,,,false,,,,358707.09999990463,358706.90000009537,,358706.59999990463,,358712.651,8,400,,,
break_continue,html.Screen,4_35_2,2023-09-09T16:10:20.209Z,,0,,,NaN,,,,,,false,,,,358707.19999980927,358707.19999980927,,358707.09999990463,,358712.651,8,400,,,
sequence,flow.Sequence,4_35,2023-09-09T16:10:20.209Z,,0,,,8511.225999809278,completion,,,,,false,,,,358707.2999997139,358707.19999980927,350179.312,350193.40000009537,350195.974,358712.651,8,400,,,
trial,html.Screen,4_36_0,2023-09-09T16:10:24.888Z,,0,1,,4673.348999999987,response,ISIC_9896801.JPG,4,ISIC_2772616.JPG,ISIC_2772616.JPG,false,0,keypress(z),500,363386.19999980927,363386,358696.045,358707.40000009537,358712.651,363388.332,8,400,37,,ISIC_9896801.JPG
break,html.Screen,4_36_1,2023-09-09T16:10:24.889Z,,0,,,NaN,,,,,,false,,,,363387,363386.69999980927,,363386.2999997139,,363388.332,8,400,,,
break_continue,html.Screen,4_36_2,2023-09-09T16:10:24.889Z,,0,,,NaN,,,,,,false,,,,363387.2999997139,363387.19999980927,,363387,,363388.332,8,400,,,
sequence,flow.Sequence,4_36,2023-09-09T16:10:24.889Z,,0,,,4674.548999809253,completion,,,,,false,,,,363387.40000009537,363387.19999980927,358696.045,358707.40000009537,358712.651,363388.332,8,400,,,
trial,html.Screen,4_37_0,2023-09-09T16:10:31.435Z,,0,1,,6544.668000000005,response,ISIC_8848134.JPG,4,ISIC_9072034.JPG,ISIC_8848134.JPG,false,1,keypress(m),500,369933.19999980927,369933,363371.72,363387.40000009537,363388.332,369934.386,8,400,38,,ISIC_9072034.JPG
break,html.Screen,4_37_1,2023-09-09T16:10:31.435Z,,0,,,NaN,,,,,,false,,,,369933.69999980927,369933.59999990463,,369933.2999997139,,369934.386,8,400,,,
break_continue,html.Screen,4_37_2,2023-09-09T16:10:31.436Z,,0,,,NaN,,,,,,false,,,,369933.90000009537,369933.90000009537,,369933.69999980927,,369934.386,8,400,,,
sequence,flow.Sequence,4_37,2023-09-09T16:10:31.436Z,,0,,,6545.568000095373,completion,,,,,false,,,,369934,369933.90000009537,363371.72,363387.40000009537,363388.332,369934.386,8,400,,,
trial,html.Screen,4_38_0,2023-09-09T16:10:36.291Z,,0,1,,4855.213999904634,response,ISIC_7693611.JPG,5,ISIC_0066378.JPG,ISIC_0066378.JPG,false,0,keypress(z),500,374789.69999980927,374789.59999990463,369917.797,369934.09999990463,369934.386,374793.951,8,400,39,,ISIC_7693611.JPG
break,html.Screen,4_38_1,2023-09-09T16:10:36.292Z,,0,,,NaN,,,,,,false,,,,374790.19999980927,374790.09999990463,,374789.7999997139,,374793.951,8,400,,,
break_continue,html.Screen,4_38_2,2023-09-09T16:10:36.292Z,,0,,,NaN,,,,,,false,,,,374790.40000009537,374790.2999997139,,374790.19999980927,,374793.951,8,400,,,
sequence,flow.Sequence,4_38,2023-09-09T16:10:36.292Z,,0,,,4855.913999713899,completion,,,,,false,,,,374790.5,374790.2999997139,369917.797,369934.09999990463,369934.386,374793.951,8,400,,,
trial,html.Screen,4_39_0,2023-09-09T16:10:41.613Z,,0,1,,5317.4490000953665,response,ISIC_9241732.JPG,5,ISIC_6250970.JPG,ISIC_9241732.JPG,false,1,keypress(m),500,380111.40000009537,380111.40000009537,374777.262,374790.5,374793.951,380137.644,8,400,40,,ISIC_6250970.JPG
break,html.Screen,4_39_1,2023-09-09T16:10:41.614Z,,0,,,NaN,,,,,,false,,,,380111.7999997139,380111.7999997139,,380111.5,,380137.644,8,400,,,
break_continue,html.Screen,4_39_2,2023-09-09T16:10:41.614Z,,0,,,NaN,,,,,,false,,,,380112,380112,,380111.7999997139,,380137.644,8,400,,,
sequence,flow.Sequence,4_39,2023-09-09T16:10:41.614Z,,0,,,5318.048999999999,completion,,,,,false,,,,380112.09999990463,380112,374777.262,374790.5,374793.951,380137.644,8,400,,,
trial,html.Screen,4_40_0,2023-09-09T16:10:47.477Z,,0,1,,5837.655999713927,response,ISIC_1580034.JPG,5,ISIC_0034156.JPG,ISIC_0034156.JPG,false,0,keypress(z),500,385975.40000009537,385975.2999997139,380121.068,380112.09999990463,380137.644,385982.338,8,400,41,,ISIC_1580034.JPG
break,html.Screen,4_40_1,2023-09-09T16:10:47.478Z,,0,,,NaN,,,,,,false,,,,385975.7999997139,385975.69999980927,,385975.5,,385982.338,8,400,,,
break_continue,html.Screen,4_40_2,2023-09-09T16:10:47.478Z,,0,,,NaN,,,,,,false,,,,385976,385976,,385975.7999997139,,385982.338,8,400,,,
sequence,flow.Sequence,4_40,2023-09-09T16:10:47.478Z,,0,,,5838.356000000029,completion,,,,,false,,,,385976,385976,380121.068,380112.09999990463,380137.644,385982.338,8,400,,,
trial,html.Screen,4_41_0,2023-09-09T16:10:54.185Z,,0,1,,6699.662000000011,response,ISIC_0010440.JPG,5,ISIC_0822116.JPG,ISIC_0010440.JPG,false,1,keypress(m),500,392682.2999997139,392682,385965.583,385976.09999990463,385982.338,392695.412,8,400,42,,ISIC_0822116.JPG
break,html.Screen,4_41_1,2023-09-09T16:10:54.186Z,,0,,,NaN,,,,,,false,,,,392682.90000009537,392682.69999980927,,392682.40000009537,,392695.412,8,400,,,
break_continue,html.Screen,4_41_2,2023-09-09T16:10:54.186Z,,0,,,NaN,,,,,,false,,,,392683.2999997139,392683.19999980927,,392683.09999990463,,392695.412,8,400,,,
sequence,flow.Sequence,4_41,2023-09-09T16:10:54.186Z,,0,,,6700.861999809276,completion,,,,,false,,,,392683.5,392683.19999980927,385965.583,385976.09999990463,385982.338,392695.412,8,400,,,
trial,html.Screen,4_42_0,2023-09-09T16:10:58.877Z,,0,1,,4678.787999809254,response,ISIC_0003168.JPG,5,ISIC_4446385.JPG,ISIC_4446385.JPG,false,0,keypress(z),500,397374.2999997139,397374.19999980927,392678.919,392683.59999990463,392695.412,397388.007,8,400,43,,ISIC_0003168.JPG
break,html.Screen,4_42_1,2023-09-09T16:10:58.878Z,,0,,,NaN,,,,,,false,,,,397374.7999997139,397374.69999980927,,397374.40000009537,,397388.007,8,400,,,
break_continue,html.Screen,4_42_2,2023-09-09T16:10:58.878Z,,0,,,NaN,,,,,,false,,,,397375,397375,,397374.90000009537,,397388.007,8,400,,,
sequence,flow.Sequence,4_42,2023-09-09T16:10:58.878Z,,0,,,4679.587999999989,completion,,,,,false,,,,397375.19999980927,397375,392678.919,392683.5,392695.412,397388.007,8,400,,,
trial,html.Screen,4_43_0,2023-09-09T16:11:05.015Z,,0,1,,6123.692999809282,response,ISIC_4998826.JPG,6,ISIC_0283957.JPG,ISIC_0283957.JPG,false,0,keypress(z),500,403511.7999997139,403511.69999980927,397371.207,397375.19999980927,397388.007,403516.442,8,400,44,,ISIC_4998826.JPG
break,html.Screen,4_43_1,2023-09-09T16:11:05.015Z,,0,,,NaN,,,,,,false,,,,403512.69999980927,403512.40000009537,,403512,,403516.442,8,400,,,
break_continue,html.Screen,4_43_2,2023-09-09T16:11:05.016Z,,0,,,NaN,,,,,,false,,,,403513,403512.90000009537,,403512.7999997139,,403516.442,8,400,,,
sequence,flow.Sequence,4_43,2023-09-09T16:11:05.016Z,,0,,,6124.893000095384,completion,,,,,false,,,,403513.09999990463,403512.90000009537,397371.207,397375.19999980927,397388.007,403516.442,8,400,,,
trial,html.Screen,4_44_0,2023-09-09T16:11:10.223Z,,0,1,,5203.757999809284,response,ISIC_9178485.JPG,5,ISIC_6366417.JPG,ISIC_6366417.JPG,false,0,keypress(z),500,408720.40000009537,408720.19999980927,403499.829,403513.19999980927,403516.442,408726.665,8,400,45,,ISIC_9178485.JPG
break,html.Screen,4_44_1,2023-09-09T16:11:10.225Z,,0,,,NaN,,,,,,false,,,,408722,408721.59999990463,,408720.7999997139,,408726.665,8,400,,,
break_continue,html.Screen,4_44_2,2023-09-09T16:11:10.226Z,,0,,,NaN,,,,,,false,,,,408722.90000009537,408722.59999990463,,408722.19999980927,,408726.665,8,400,,,
sequence,flow.Sequence,4_44,2023-09-09T16:11:10.226Z,,0,,,5206.157999904652,completion,,,,,false,,,,408723.19999980927,408722.59999990463,403499.829,403513.09999990463,403516.442,408726.665,8,400,,,
trial,html.Screen,4_45_0,2023-09-09T16:11:17.721Z,,0,1,,7491.735000095388,response,ISIC_0008393.JPG,6,ISIC_9544832.JPG,ISIC_9544832.JPG,false,0,keypress(z),500,416218.59999990463,416218.40000009537,408709.903,408723.5,408726.665,416224.544,8,400,46,,ISIC_0008393.JPG
break,html.Screen,4_45_1,2023-09-09T16:11:17.722Z,,0,,,NaN,,,,,,false,,,,416219.5,416219.19999980927,,416218.7999997139,,416224.544,8,400,,,
break_continue,html.Screen,4_45_2,2023-09-09T16:11:17.723Z,,0,,,NaN,,,,,,false,,,,416219.7999997139,416219.7999997139,,416219.59999990463,,416224.544,8,400,,,
sequence,flow.Sequence,4_45,2023-09-09T16:11:17.723Z,,0,,,7493.134999713919,completion,,,,,false,,,,416219.90000009537,416219.7999997139,408709.903,408723.40000009537,408726.665,416224.544,8,400,,,
trial,html.Screen,4_46_0,2023-09-09T16:11:27.188Z,,0,1,,9460.456000000006,response,ISIC_0032140.JPG,6,ISIC_8910589.JPG,ISIC_0032140.JPG,false,1,keypress(m),500,425685.2999997139,425685,416207.879,416220.09999990463,416224.544,425692.987,8,400,47,,ISIC_8910589.JPG
break,html.Screen,4_46_1,2023-09-09T16:11:27.189Z,,0,,,NaN,,,,,,false,,,,425685.90000009537,425685.59999990463,,425685.40000009537,,425692.987,8,400,,,
break_continue,html.Screen,4_46_2,2023-09-09T16:11:27.189Z,,0,,,NaN,,,,,,false,,,,425686.19999980927,425686.09999990463,,425685.90000009537,,425692.987,8,400,,,
sequence,flow.Sequence,4_46,2023-09-09T16:11:27.189Z,,0,,,9461.555999904638,completion,,,,,false,,,,425686.2999997139,425686.09999990463,416207.879,416220.09999990463,416224.544,425692.987,8,400,,,
trial,html.Screen,4_47_0,2023-09-09T16:11:33.261Z,,0,1,,6065.312999713875,response,ISIC_5313574.JPG,5,ISIC_1809444.JPG,ISIC_5313574.JPG,false,1,keypress(m),500,431758.40000009537,431758.2999997139,425676.245,425686.40000009537,425692.987,431771.426,8,400,48,,ISIC_1809444.JPG
break,html.Screen,4_47_1,2023-09-09T16:11:33.262Z,,0,,,NaN,,,,,,false,,,,431759.2999997139,431758.90000009537,,431758.5,,431771.426,8,400,,,
break_continue,html.Screen,4_47_2,2023-09-09T16:11:33.262Z,,0,,,NaN,,,,,,false,,,,431759.59999990463,431759.5,,431759.40000009537,,431771.426,8,400,,,
sequence,flow.Sequence,4_47,2023-09-09T16:11:33.262Z,,0,,,6066.512999999977,completion,,,,,false,,,,431759.69999980927,431759.5,425676.245,425686.2999997139,425692.987,431771.426,8,400,,,
trial,html.Screen,4_48_0,2023-09-09T16:11:39.795Z,,0,1,,6520.574000000022,response,ISIC_0046729.JPG,5,ISIC_7249063.JPG,ISIC_7249063.JPG,false,0,keypress(z),500,438292.19999980927,438292,431754.793,431759.7999997139,431771.426,438300.797,8,400,49,,ISIC_0046729.JPG
break,html.Screen,4_48_1,2023-09-09T16:11:39.796Z,,0,,,NaN,,,,,,false,,,,438292.90000009537,438292.69999980927,,438292.40000009537,,438300.797,8,400,,,
break_continue,html.Screen,4_48_2,2023-09-09T16:11:39.796Z,,0,,,NaN,,,,,,false,,,,438293.09999990463,438293.09999990463,,438293,,438300.797,8,400,,,
sequence,flow.Sequence,4_48,2023-09-09T16:11:39.796Z,,0,,,6521.673999904655,completion,,,,,false,,,,438293.19999980927,438293.09999990463,431754.793,431759.7999997139,431771.426,438300.797,8,400,,,
trial,html.Screen,4_49_0,2023-09-09T16:11:45.446Z,,0,1,,5642.402999809245,response,ISIC_0005006.JPG,5,ISIC_1258986.JPG,ISIC_0005006.JPG,false,1,keypress(m),500,443943.40000009537,443943.19999980927,438284.206,438293.2999997139,438300.797,443945.11,8,400,50,,ISIC_1258986.JPG
break,html.Screen,4_49_1,2023-09-09T16:11:55.435Z,,0,,,10002.95199999999,timeout,,,,,false,,,,453932,453931.24,443928.515,443943.5,443945.11,453948.062,8,400,,,
break_continue,html.Screen,4_49_2,2023-09-09T16:12:04.478Z,,0,,,9009.338000095391,response,,,,,false,continue,keypress(Space),,462975,462957.40000009537,453931.24,453932.2999997139,453948.062,462982.206,8,400,,,
sequence,flow.Sequence,4_49,2023-09-09T16:12:04.478Z,,0,,,24656.603000095347,completion,,,,,false,,,,462975.09999990463,462957.40000009537,438284.206,438293.2999997139,438300.797,462982.206,8,400,,,
trial,html.Screen,4_50_0,2023-09-09T16:12:08.320Z,,0,2,,3834.593999713892,response,ISIC_0059609.JPG,4,ISIC_6310591.JPG,ISIC_6310591.JPG,false,0,keypress(z),500,466816.90000009537,466816.7999997139,462965.461,462975.19999980927,462982.206,466823.039,8,400,1,,ISIC_0059609.JPG
break,html.Screen,4_50_1,2023-09-09T16:12:08.321Z,,0,,,NaN,,,,,,false,,,,466817.69999980927,466817.5,,466817.09999990463,,466823.039,8,400,,,
break_continue,html.Screen,4_50_2,2023-09-09T16:12:08.321Z,,0,,,NaN,,,,,,false,,,,466818.09999990463,466817.90000009537,,466817.7999997139,,466823.039,8,400,,,
sequence,flow.Sequence,4_50,2023-09-09T16:12:08.321Z,,0,,,3835.694000095362,completion,,,,,false,,,,466818.19999980927,466817.90000009537,462965.461,462975.19999980927,462982.206,466823.039,8,400,,,
trial,html.Screen,4_51_0,2023-09-09T16:12:12.979Z,,0,2,,4653.160999809275,response,ISIC_0068080.JPG,4,ISIC_0010521.JPG,ISIC_0068080.JPG,false,1,keypress(m),500,471476.19999980927,471476.19999980927,466806.39,466818.2999997139,466823.039,471482.063,8,400,2,,ISIC_0010521.JPG
break,html.Screen,4_51_1,2023-09-09T16:12:12.980Z,,0,,,NaN,,,,,,false,,,,471476.7999997139,471476.69999980927,,471476.40000009537,,471482.063,8,400,,,
break_continue,html.Screen,4_51_2,2023-09-09T16:12:12.980Z,,0,,,NaN,,,,,,false,,,,471477.09999990463,471477,,471477,,471482.063,8,400,,,
sequence,flow.Sequence,4_51,2023-09-09T16:12:12.980Z,,0,,,4653.96100000001,completion,,,,,false,,,,471477.19999980927,471477,466806.39,466818.2999997139,466823.039,471482.063,8,400,,,
trial,html.Screen,4_52_0,2023-09-09T16:12:18.104Z,,0,2,,5118.636999809241,response,ISIC_0010523.JPG,5,ISIC_5569568.JPG,ISIC_5569568.JPG,false,0,keypress(z),500,476600.7999997139,476600.69999980927,471465.332,471477.19999980927,471482.063,476608.7,8,400,3,,ISIC_0010523.JPG
break,html.Screen,4_52_1,2023-09-09T16:12:18.104Z,,0,,,NaN,,,,,,false,,,,476601.40000009537,476601.19999980927,,476601,,476608.7,8,400,,,
break_continue,html.Screen,4_52_2,2023-09-09T16:12:18.105Z,,0,,,NaN,,,,,,false,,,,476601.59999990463,476601.5,,476601.40000009537,,476608.7,8,400,,,
sequence,flow.Sequence,4_52,2023-09-09T16:12:18.105Z,,0,,,5119.436999999976,completion,,,,,false,,,,476601.69999980927,476601.5,471465.332,471477.19999980927,471482.063,476608.7,8,400,,,
trial,html.Screen,4_53_0,2023-09-09T16:12:23.009Z,,0,2,,4897.099999713886,response,ISIC_0011434.JPG,5,ISIC_7180096.JPG,ISIC_0011434.JPG,false,1,keypress(m),500,481506,481505.7999997139,476592.151,476601.7999997139,476608.7,481534.915,8,400,4,,ISIC_7180096.JPG
break,html.Screen,4_53_1,2023-09-09T16:12:23.010Z,,0,,,NaN,,,,,,false,,,,481506.69999980927,481506.5,,481506.09999990463,,481534.915,8,400,,,
break_continue,html.Screen,4_53_2,2023-09-09T16:12:23.010Z,,0,,,NaN,,,,,,false,,,,481507,481506.90000009537,,481506.7999997139,,481534.915,8,400,,,
sequence,flow.Sequence,4_53,2023-09-09T16:12:23.010Z,,0,,,4898.200000095356,completion,,,,,false,,,,481507.09999990463,481506.90000009537,476592.151,476601.7999997139,476608.7,481534.915,8,400,,,
trial,html.Screen,4_54_0,2023-09-09T16:12:28.473Z,,0,2,,5435.284999809286,response,ISIC_1579745.JPG,6,ISIC_0009006.JPG,ISIC_1579745.JPG,false,1,keypress(m),500,486970.2999997139,486970.19999980927,481518.403,481507.19999980927,481534.915,486978.821,8,400,5,,ISIC_0009006.JPG
break,html.Screen,4_54_1,2023-09-09T16:12:28.474Z,,0,,,NaN,,,,,,false,,,,486970.7999997139,486970.7999997139,,486970.5,,486978.821,8,400,,,
break_continue,html.Screen,4_54_2,2023-09-09T16:12:28.474Z,,0,,,NaN,,,,,,false,,,,486971,486970.90000009537,,486970.90000009537,,486978.821,8,400,,,
sequence,flow.Sequence,4_54,2023-09-09T16:12:28.474Z,,0,,,5435.985000095388,completion,,,,,false,,,,486971.09999990463,486970.90000009537,481518.403,481507.09999990463,481534.915,486978.821,8,400,,,
trial,html.Screen,4_55_0,2023-09-09T16:12:34.639Z,,0,2,,6156.878999809269,response,ISIC_0054312.JPG,6,ISIC_2105563.JPG,ISIC_0054312.JPG,false,1,keypress(m),500,493135.90000009537,493135.69999980927,486962.244,486971.09999990463,486978.821,493140.849,8,400,6,,ISIC_2105563.JPG
break,html.Screen,4_55_1,2023-09-09T16:12:34.640Z,,0,,,NaN,,,,,,false,,,,493136.5,493136.2999997139,,493136,,493140.849,8,400,,,
break_continue,html.Screen,4_55_2,2023-09-09T16:12:34.640Z,,0,,,NaN,,,,,,false,,,,493136.90000009537,493136.7999997139,,493136.69999980927,,493140.849,8,400,,,
sequence,flow.Sequence,4_55,2023-09-09T16:12:34.640Z,,0,,,6157.978999713901,completion,,,,,false,,,,493136.90000009537,493136.7999997139,486962.244,486971.09999990463,486978.821,493140.849,8,400,,,
trial,html.Screen,4_56_0,2023-09-09T16:12:40.453Z,,0,2,,5809.250999904645,response,ISIC_9860895.JPG,5,ISIC_9244393.JPG,ISIC_9244393.JPG,false,0,keypress(z),500,498950.2999997139,498950.09999990463,493124.334,493137,493140.849,498952.145,8,400,7,,ISIC_9860895.JPG
break,html.Screen,4_56_1,2023-09-09T16:12:40.454Z,,0,,,NaN,,,,,,false,,,,498950.7999997139,498950.69999980927,,498950.40000009537,,498952.145,8,400,,,
break_continue,html.Screen,4_56_2,2023-09-09T16:12:40.454Z,,0,,,NaN,,,,,,false,,,,498951.09999990463,498950.90000009537,,498950.7999997139,,498952.145,8,400,,,
sequence,flow.Sequence,4_56,2023-09-09T16:12:40.454Z,,0,,,5810.05100009538,completion,,,,,false,,,,498951.19999980927,498950.90000009537,493124.334,493137,493140.849,498952.145,8,400,,,
trial,html.Screen,4_57_0,2023-09-09T16:12:47.608Z,,0,2,,7152.854999999981,response,ISIC_0026483.JPG,5,ISIC_0009960.JPG,ISIC_0026483.JPG,false,1,keypress(m),500,506105.09999990463,506105,498935.416,498951.19999980927,498952.145,506116.241,8,400,8,,ISIC_0009960.JPG
break,html.Screen,4_57_1,2023-09-09T16:12:47.609Z,,0,,,NaN,,,,,,false,,,,506105.69999980927,506105.5,,506105.19999980927,,506116.241,8,400,,,
break_continue,html.Screen,4_57_2,2023-09-09T16:12:47.609Z,,0,,,NaN,,,,,,false,,,,506106,506105.90000009537,,506105.7999997139,,506116.241,8,400,,,
sequence,flow.Sequence,4_57,2023-09-09T16:12:47.609Z,,0,,,7153.755000095349,completion,,,,,false,,,,506106,506105.90000009537,498935.416,498951.19999980927,498952.145,506116.241,8,400,,,
trial,html.Screen,4_58_0,2023-09-09T16:12:52.876Z,,0,2,,5256.358999904653,response,ISIC_3738751.JPG,5,ISIC_8006094.JPG,ISIC_3738751.JPG,false,1,keypress(m),500,511372.69999980927,511372.59999990463,506099.503,506106.09999990463,506116.241,511376.305,8,400,9,,ISIC_8006094.JPG
break,html.Screen,4_58_1,2023-09-09T16:12:52.876Z,,0,,,NaN,,,,,,false,,,,511373.5,511373.19999980927,,511372.90000009537,,511376.305,8,400,,,
break_continue,html.Screen,4_58_2,2023-09-09T16:12:52.877Z,,0,,,NaN,,,,,,false,,,,511373.7999997139,511373.69999980927,,511373.5,,511376.305,8,400,,,
sequence,flow.Sequence,4_58,2023-09-09T16:12:52.877Z,,0,,,5257.458999809285,completion,,,,,false,,,,511373.90000009537,511373.69999980927,506099.503,506106.09999990463,506116.241,511376.305,8,400,,,
trial,html.Screen,4_59_0,2023-09-09T16:12:57.712Z,,0,2,,4830.695000000007,response,ISIC_0027155.JPG,6,ISIC_7090336.JPG,ISIC_0027155.JPG,false,1,keypress(m),500,516207.09999990463,516207,511359.649,511374.09999990463,511376.305,516219.065,8,400,10,,ISIC_7090336.JPG
break,html.Screen,4_59_1,2023-09-09T16:12:57.713Z,,0,,,NaN,,,,,,false,,,,516207.7999997139,516207.5,,516207.19999980927,,516219.065,8,400,,,
break_continue,html.Screen,4_59_2,2023-09-09T16:12:57.713Z,,0,,,NaN,,,,,,false,,,,516208.09999990463,516208,,516207.7999997139,,516219.065,8,400,,,
sequence,flow.Sequence,4_59,2023-09-09T16:12:57.713Z,,0,,,4831.695000000007,completion,,,,,false,,,,516208.19999980927,516208,511359.649,511374,511376.305,516219.065,8,400,,,
trial,html.Screen,4_60_0,2023-09-09T16:13:03.925Z,,0,2,,6200.335000095365,response,ISIC_5221917.JPG,5,ISIC_0027325.JPG,ISIC_0027325.JPG,false,0,keypress(z),500,522419.7999997139,522419.40000009537,516202.369,516208.19999980927,516219.065,522431.221,8,400,11,,ISIC_5221917.JPG
break,html.Screen,4_60_1,2023-09-09T16:13:03.926Z,,0,,,NaN,,,,,,false,,,,522421.59999990463,522420.90000009537,,522420.19999980927,,522431.221,8,400,,,
break_continue,html.Screen,4_60_2,2023-09-09T16:13:03.928Z,,0,,,NaN,,,,,,false,,,,522422.59999990463,522422.40000009537,,522421.90000009537,,522431.221,8,400,,,
sequence,flow.Sequence,4_60,2023-09-09T16:13:03.928Z,,0,,,6203.335000095365,completion,,,,,false,,,,522422.90000009537,522422.40000009537,516202.369,516208.19999980927,516219.065,522431.221,8,400,,,
trial,html.Screen,4_61_0,2023-09-09T16:13:11.644Z,,0,2,,7707.478999809246,response,ISIC_9268487.JPG,6,ISIC_4412555.JPG,ISIC_9268487.JPG,false,1,keypress(m),500,530138.9000000954,530138.6999998093,522414.716,522423.19999980927,522431.221,530146.193,8,400,12,,ISIC_4412555.JPG
break,html.Screen,4_61_1,2023-09-09T16:13:11.644Z,,0,,,NaN,,,,,,false,,,,530139.5999999046,530139.4000000954,,530139,,530146.193,8,400,,,
break_continue,html.Screen,4_61_2,2023-09-09T16:13:11.645Z,,0,,,NaN,,,,,,false,,,,530139.9000000954,530139.7999997139,,530139.5999999046,,530146.193,8,400,,,
sequence,flow.Sequence,4_61,2023-09-09T16:13:11.645Z,,0,,,7708.578999713878,completion,,,,,false,,,,530140,530139.7999997139,522414.716,522423.09999990463,522431.221,530146.193,8,400,,,
trial,html.Screen,4_62_0,2023-09-09T16:13:15.381Z,,0,2,,3730.2070000953972,response,ISIC_3416324.JPG,6,ISIC_0027277.JPG,ISIC_0027277.JPG,false,0,keypress(z),500,533876.5,533876.4000000954,530129.504,530140.0999999046,530146.193,533886.813,8,400,13,,ISIC_3416324.JPG
break,html.Screen,4_62_1,2023-09-09T16:13:15.382Z,,0,,,NaN,,,,,,false,,,,533877.1999998093,533877,,533876.7999997139,,533886.813,8,400,,,
break_continue,html.Screen,4_62_2,2023-09-09T16:13:15.382Z,,0,,,NaN,,,,,,false,,,,533877.4000000954,533877.2999997139,,533877.1999998093,,533886.813,8,400,,,
sequence,flow.Sequence,4_62,2023-09-09T16:13:15.382Z,,0,,,3731.1069997139275,completion,,,,,false,,,,533877.5,533877.2999997139,530129.504,530140.0999999046,530146.193,533886.813,8,400,,,
trial,html.Screen,4_63_0,2023-09-09T16:13:21.754Z,,0,2,,6361.786999904667,response,ISIC_0054651.JPG,6,ISIC_0031671.JPG,ISIC_0054651.JPG,false,1,keypress(m),500,540248.5999999046,540248.5999999046,533870.111,533877.5999999046,533886.813,540249.161,8,400,14,,ISIC_0031671.JPG
break,html.Screen,4_63_1,2023-09-09T16:13:21.754Z,,0,,,NaN,,,,,,false,,,,540249.0999999046,540249,,540248.6999998093,,540249.161,8,400,,,
break_continue,html.Screen,4_63_2,2023-09-09T16:13:21.754Z,,0,,,NaN,,,,,,false,,,,540249.4000000954,540249.2999997139,,540249.1999998093,,540249.161,8,400,,,
sequence,flow.Sequence,4_63,2023-09-09T16:13:21.754Z,,0,,,6362.486999713932,completion,,,,,false,,,,540249.5,540249.2999997139,533870.111,533877.5999999046,533886.813,540249.161,8,400,,,
trial,html.Screen,4_64_0,2023-09-09T16:13:30.060Z,,0,2,,8305.938999904669,response,ISIC_8566006.JPG,5,ISIC_0024537.JPG,ISIC_8566006.JPG,false,1,keypress(m),500,548555.2999997139,548555.0999999046,540232.627,540249.5999999046,540249.161,548565.323,8,400,15,,ISIC_0024537.JPG
break,html.Screen,4_64_1,2023-09-09T16:13:30.061Z,,0,,,NaN,,,,,,false,,,,548555.6999998093,548555.5999999046,,548555.4000000954,,548565.323,8,400,,,
break_continue,html.Screen,4_64_2,2023-09-09T16:13:30.061Z,,0,,,NaN,,,,,,false,,,,548555.9000000954,548555.7999997139,,548555.7999997139,,548565.323,8,400,,,
sequence,flow.Sequence,4_64,2023-09-09T16:13:30.061Z,,0,,,8306.638999713934,completion,,,,,false,,,,548556,548555.7999997139,540232.627,540249.5999999046,540249.161,548565.323,8,400,,,
trial,html.Screen,4_65_0,2023-09-09T16:13:34.720Z,,0,2,,4649.37699980929,response,ISIC_2050512.JPG,6,ISIC_0033202.JPG,ISIC_2050512.JPG,false,1,keypress(m),500,553214.9000000954,553214.6999998093,548548.824,548556.0999999046,548565.323,553224.44,8,400,16,,ISIC_0033202.JPG
break,html.Screen,4_65_1,2023-09-09T16:13:34.720Z,,0,,,NaN,,,,,,false,,,,553215.2999997139,553215.1999998093,,553215,,553224.44,8,400,,,
break_continue,html.Screen,4_65_2,2023-09-09T16:13:34.720Z,,0,,,NaN,,,,,,false,,,,553215.5999999046,553215.5,,553215.5,,553224.44,8,400,,,
sequence,flow.Sequence,4_65,2023-09-09T16:13:34.721Z,,0,,,4650.177000000025,completion,,,,,false,,,,553215.6999998093,553215.5,548548.824,548556.0999999046,548565.323,553224.44,8,400,,,
trial,html.Screen,4_66_0,2023-09-09T16:13:38.678Z,,0,2,,3948.259999809321,response,ISIC_0010382.JPG,4,ISIC_8769415.JPG,ISIC_0010382.JPG,false,1,keypress(m),500,557172.7999997139,557172.6999998093,553207.859,553215.6999998093,553224.44,557182.12,8,400,17,,ISIC_8769415.JPG
break,html.Screen,4_66_1,2023-09-09T16:13:38.678Z,,0,,,NaN,,,,,,false,,,,557173.2999997139,557173.0999999046,,557172.9000000954,,557182.12,8,400,,,
break_continue,html.Screen,4_66_2,2023-09-09T16:13:38.679Z,,0,,,NaN,,,,,,false,,,,557173.7999997139,557173.6999998093,,557173.4000000954,,557182.12,8,400,,,
sequence,flow.Sequence,4_66,2023-09-09T16:13:38.679Z,,0,,,3949.259999809321,completion,,,,,false,,,,557173.9000000954,557173.6999998093,553207.859,553215.6999998093,553224.44,557182.12,8,400,,,
trial,html.Screen,4_67_0,2023-09-09T16:13:44.232Z,,0,2,,5545.07999980927,response,ISIC_0055781.JPG,5,ISIC_0071257.JPG,ISIC_0071257.JPG,false,0,keypress(z),500,562727.4000000954,562727.1999998093,557165.519,557174,557182.12,562742.948,8,400,18,,ISIC_0055781.JPG
break,html.Screen,4_67_1,2023-09-09T16:13:44.233Z,,0,,,NaN,,,,,,false,,,,562727.6999998093,562727.6999998093,,562727.5,,562742.948,8,400,,,
break_continue,html.Screen,4_67_2,2023-09-09T16:13:44.233Z,,0,,,NaN,,,,,,false,,,,562727.9000000954,562727.7999997139,,562727.6999998093,,562742.948,8,400,,,
sequence,flow.Sequence,4_67,2023-09-09T16:13:44.233Z,,0,,,5545.679999713902,completion,,,,,false,,,,562728,562727.7999997139,557165.519,557174,557182.12,562742.948,8,400,,,
trial,html.Screen,4_68_0,2023-09-09T16:13:48.990Z,,0,2,,4741.651999904658,response,ISIC_0030833.JPG,6,ISIC_0027627.JPG,ISIC_0027627.JPG,false,0,keypress(z),500,567485,567484.5999999046,562726.339,562728.0999999046,562742.948,567502.287,8,400,19,,ISIC_0030833.JPG
break,html.Screen,4_68_1,2023-09-09T16:13:48.992Z,,0,,,NaN,,,,,,false,,,,567486.7999997139,567486.2999997139,,567485.4000000954,,567502.287,8,400,,,
break_continue,html.Screen,4_68_2,2023-09-09T16:13:48.992Z,,0,,,NaN,,,,,,false,,,,567487.5999999046,567487.2999997139,,567487,,567502.287,8,400,,,
sequence,flow.Sequence,4_68,2023-09-09T16:13:48.993Z,,0,,,4744.351999713923,completion,,,,,false,,,,567488,567487.2999997139,562726.339,562728.0999999046,562742.948,567502.287,8,400,,,
trial,html.Screen,4_69_0,2023-09-09T16:13:53.604Z,,0,2,,4596.812999904621,response,ISIC_0027445.JPG,5,ISIC_6406517.JPG,ISIC_0027445.JPG,false,1,keypress(m),500,572099.2999997139,572099.0999999046,567485.659,567488.4000000954,567502.287,572111.202,8,400,20,,ISIC_6406517.JPG
break,html.Screen,4_69_1,2023-09-09T16:13:53.605Z,,0,,,NaN,,,,,,false,,,,572099.6999998093,572099.5999999046,,572099.2999997139,,572111.202,8,400,,,
break_continue,html.Screen,4_69_2,2023-09-09T16:13:53.605Z,,0,,,NaN,,,,,,false,,,,572099.7999997139,572099.6999998093,,572099.6999998093,,572111.202,8,400,,,
sequence,flow.Sequence,4_69,2023-09-09T16:13:53.605Z,,0,,,4597.412999809254,completion,,,,,false,,,,572099.9000000954,572099.6999998093,567485.659,567488.1999998093,567502.287,572111.202,8,400,,,
trial,html.Screen,4_70_0,2023-09-09T16:14:00.782Z,,0,2,,7164.597999713849,response,ISIC_4715386.JPG,5,ISIC_2882945.JPG,ISIC_2882945.JPG,false,0,keypress(z),500,579276,579275.7999997139,572094.57,572100,572111.202,579291.863,8,400,21,,ISIC_4715386.JPG
break,html.Screen,4_70_1,2023-09-09T16:14:00.782Z,,0,,,NaN,,,,,,false,,,,579276.4000000954,579276.2999997139,,579276.0999999046,,579291.863,8,400,,,
break_continue,html.Screen,4_70_2,2023-09-09T16:14:00.782Z,,0,,,NaN,,,,,,false,,,,579276.5999999046,579276.5,,579276.5,,579291.863,8,400,,,
sequence,flow.Sequence,4_70,2023-09-09T16:14:00.783Z,,0,,,7165.297999999952,completion,,,,,false,,,,579276.5999999046,579276.5,572094.57,572100,572111.202,579291.863,8,400,,,
trial,html.Screen,4_71_0,2023-09-09T16:14:07.238Z,,0,2,,6440.537000095355,response,ISIC_9406275.JPG,5,ISIC_0005291.JPG,ISIC_0005291.JPG,false,0,keypress(z),500,585732.5,585732.4000000954,579275.205,579276.7999997139,579291.863,585737.78,8,400,22,,ISIC_9406275.JPG
break,html.Screen,4_71_1,2023-09-09T16:14:07.239Z,,0,,,NaN,,,,,,false,,,,585733.0999999046,585732.9000000954,,585732.6999998093,,585737.78,8,400,,,
break_continue,html.Screen,4_71_2,2023-09-09T16:14:07.239Z,,0,,,NaN,,,,,,false,,,,585733.1999998093,585733.1999998093,,585733.0999999046,,585737.78,8,400,,,
sequence,flow.Sequence,4_71,2023-09-09T16:14:07.239Z,,0,,,6441.336999809253,completion,,,,,false,,,,585733.2999997139,585733.1999998093,579275.205,579276.6999998093,579291.863,585737.78,8,400,,,
trial,html.Screen,4_72_0,2023-09-09T16:14:14.314Z,,0,2,,7070.6200000953395,response,ISIC_0060716.JPG,4,ISIC_3399603.JPG,ISIC_0060716.JPG,false,1,keypress(m),500,592808.5,592808.4000000954,585721.044,585733.4000000954,585737.78,592835.015,8,400,23,,ISIC_3399603.JPG
break,html.Screen,4_72_1,2023-09-09T16:14:14.315Z,,0,,,NaN,,,,,,false,,,,592809,592808.9000000954,,592808.5999999046,,592835.015,8,400,,,
break_continue,html.Screen,4_72_2,2023-09-09T16:14:14.315Z,,0,,,NaN,,,,,,false,,,,592809.2999997139,592809.2999997139,,592809.0999999046,,592835.015,8,400,,,
sequence,flow.Sequence,4_72,2023-09-09T16:14:14.315Z,,0,,,7071.51999971387,completion,,,,,false,,,,592809.4000000954,592809.2999997139,585721.044,585733.4000000954,585737.78,592835.015,8,400,,,
trial,html.Screen,4_73_0,2023-09-09T16:14:19.781Z,,0,2,,5440.184999809251,response,ISIC_0010631.JPG,4,ISIC_4697037.JPG,ISIC_0010631.JPG,false,1,keypress(m),500,598275.4000000954,598275.1999998093,592818.26,592809.5,592835.015,598278.759,8,400,24,,ISIC_4697037.JPG
break,html.Screen,4_73_1,2023-09-09T16:14:19.782Z,,0,,,NaN,,,,,,false,,,,598276.0999999046,598275.9000000954,,598275.5999999046,,598278.759,8,400,,,
break_continue,html.Screen,4_73_2,2023-09-09T16:14:19.782Z,,0,,,NaN,,,,,,false,,,,598276.2999997139,598276.2999997139,,598276.1999998093,,598278.759,8,400,,,
sequence,flow.Sequence,4_73,2023-09-09T16:14:19.782Z,,0,,,5441.284999713884,completion,,,,,false,,,,598276.4000000954,598276.2999997139,592818.26,592809.5,592835.015,598278.759,8,400,,,
trial,html.Screen,4_74_0,2023-09-09T16:14:25.596Z,,0,2,,5811.440999809303,response,ISIC_9747194.JPG,5,ISIC_9568327.JPG,ISIC_9568327.JPG,false,0,keypress(z),500,604090.4000000954,604090.1999998093,598262.073,598276.5,598278.759,604106.814,8,400,25,,ISIC_9747194.JPG
break,html.Screen,4_74_1,2023-09-09T16:14:25.597Z,,0,,,NaN,,,,,,false,,,,604090.7999997139,604090.6999998093,,604090.5,,604106.814,8,400,,,
break_continue,html.Screen,4_74_2,2023-09-09T16:14:25.597Z,,0,,,NaN,,,,,,false,,,,604091,604091,,604090.9000000954,,604106.814,8,400,,,
sequence,flow.Sequence,4_74,2023-09-09T16:14:25.597Z,,0,,,5812.241000000038,completion,,,,,false,,,,604091.0999999046,604091,598262.073,598276.5,598278.759,604106.814,8,400,,,
trial,html.Screen,4_75_0,2023-09-09T16:14:31.343Z,,0,2,,5729.685999999987,response,ISIC_0014061.JPG,5,ISIC_1937197.JPG,ISIC_0014061.JPG,false,1,keypress(m),500,609836.5999999046,609836.5,604090.271,604091.1999998093,604106.814,609851.443,8,400,26,,ISIC_1937197.JPG
break,html.Screen,4_75_1,2023-09-09T16:14:31.343Z,,0,,,NaN,,,,,,false,,,,609837.0999999046,609836.9000000954,,609836.6999998093,,609851.443,8,400,,,
break_continue,html.Screen,4_75_2,2023-09-09T16:14:31.343Z,,0,,,NaN,,,,,,false,,,,609837.2999997139,609837.1999998093,,609837.0999999046,,609851.443,8,400,,,
sequence,flow.Sequence,4_75,2023-09-09T16:14:31.343Z,,0,,,5730.385999809252,completion,,,,,false,,,,609837.2999997139,609837.1999998093,604090.271,604091.1999998093,604106.814,609851.443,8,400,,,
trial,html.Screen,4_76_0,2023-09-09T16:14:37.379Z,,0,2,,6021.656999904662,response,ISIC_8344345.JPG,4,ISIC_0001141.JPG,ISIC_0001141.JPG,false,0,keypress(z),500,615873.2999997139,615873.0999999046,609834.769,609837.4000000954,609851.443,615879.701,8,400,27,,ISIC_8344345.JPG
break,html.Screen,4_76_1,2023-09-09T16:14:37.380Z,,0,,,NaN,,,,,,false,,,,615874,615873.6999998093,,615873.4000000954,,615879.701,8,400,,,
break_continue,html.Screen,4_76_2,2023-09-09T16:14:37.380Z,,0,,,NaN,,,,,,false,,,,615874.2999997139,615874.1999998093,,615874,,615879.701,8,400,,,
sequence,flow.Sequence,4_76,2023-09-09T16:14:37.380Z,,0,,,6022.756999809295,completion,,,,,false,,,,615874.2999997139,615874.1999998093,609834.769,609837.4000000954,609851.443,615879.701,8,400,,,
trial,html.Screen,4_77_0,2023-09-09T16:14:43.366Z,,0,2,,5980.598999713897,response,ISIC_0026544.JPG,5,ISIC_1008609.JPG,ISIC_1008609.JPG,false,0,keypress(z),500,621860.5,621860.2999997139,615863.141,615874.4000000954,615879.701,621874.68,8,400,28,,ISIC_0026544.JPG
break,html.Screen,4_77_1,2023-09-09T16:14:43.367Z,,0,,,NaN,,,,,,false,,,,621861.0999999046,621860.9000000954,,621860.5999999046,,621874.68,8,400,,,
break_continue,html.Screen,4_77_2,2023-09-09T16:14:43.367Z,,0,,,NaN,,,,,,false,,,,621861.4000000954,621861.4000000954,,621861.1999998093,,621874.68,8,400,,,
sequence,flow.Sequence,4_77,2023-09-09T16:14:43.367Z,,0,,,5981.6990000953665,completion,,,,,false,,,,621861.5999999046,621861.4000000954,615863.141,615874.2999997139,615879.701,621874.68,8,400,,,
trial,html.Screen,4_78_0,2023-09-09T16:14:49.961Z,,0,2,,6580.319999999949,response,ISIC_8145348.JPG,6,ISIC_0011488.JPG,ISIC_0011488.JPG,false,0,keypress(z),500,628455.0999999046,628455,621858.067,621861.6999998093,621874.68,628470.844,8,400,29,,ISIC_8145348.JPG
break,html.Screen,4_78_1,2023-09-09T16:14:49.961Z,,0,,,NaN,,,,,,false,,,,628455.5,628455.4000000954,,628455.1999998093,,628470.844,8,400,,,
break_continue,html.Screen,4_78_2,2023-09-09T16:14:49.962Z,,0,,,NaN,,,,,,false,,,,628455.6999998093,628455.5999999046,,628455.5999999046,,628470.844,8,400,,,
sequence,flow.Sequence,4_78,2023-09-09T16:14:49.962Z,,0,,,6580.919999904581,completion,,,,,false,,,,628455.7999997139,628455.5999999046,621858.067,621861.6999998093,621874.68,628470.844,8,400,,,
trial,html.Screen,4_79_0,2023-09-09T16:14:56.370Z,,0,2,,6392.556000095326,response,ISIC_0061749.JPG,6,ISIC_2143002.JPG,ISIC_0061749.JPG,false,1,keypress(m),500,634863.5,634863.4000000954,628454.279,628455.7999997139,628470.844,634866.606,8,400,30,,ISIC_2143002.JPG
break,html.Screen,4_79_1,2023-09-09T16:14:56.371Z,,0,,,NaN,,,,,,false,,,,634864,634863.9000000954,,634863.5,,634866.606,8,400,,,
break_continue,html.Screen,4_79_2,2023-09-09T16:14:56.371Z,,0,,,NaN,,,,,,false,,,,634864.0999999046,634864.0999999046,,634864,,634866.606,8,400,,,
sequence,flow.Sequence,4_79,2023-09-09T16:14:56.371Z,,0,,,6393.255999904592,completion,,,,,false,,,,634864.1999998093,634864.0999999046,628454.279,628455.7999997139,628470.844,634866.606,8,400,,,
trial,html.Screen,4_80_0,2023-09-09T16:15:01.113Z,,0,2,,4739.693999713869,response,ISIC_2050638.JPG,6,ISIC_0024459.JPG,ISIC_0024459.JPG,false,0,keypress(z),500,639606.4000000954,639606.2999997139,634849.981,634864.2999997139,634866.606,639609.223,8,400,31,,ISIC_2050638.JPG
break,html.Screen,4_80_1,2023-09-09T16:15:01.114Z,,0,,,NaN,,,,,,false,,,,639607,639606.9000000954,,639606.5999999046,,639609.223,8,400,,,
break_continue,html.Screen,4_80_2,2023-09-09T16:15:01.114Z,,0,,,NaN,,,,,,false,,,,639607.5,639607.4000000954,,639607.1999998093,,639609.223,8,400,,,
sequence,flow.Sequence,4_80,2023-09-09T16:15:01.114Z,,0,,,4740.794000095339,completion,,,,,false,,,,639607.5999999046,639607.4000000954,634849.981,634864.2999997139,634866.606,639609.223,8,400,,,
trial,html.Screen,4_81_0,2023-09-09T16:15:05.533Z,,0,2,,4416.5769997139,response,ISIC_0011628.JPG,5,ISIC_1585511.JPG,ISIC_0011628.JPG,false,1,keypress(m),500,644026,644025.7999997139,639592.509,639607.5999999046,639609.223,644034.581,8,400,32,,ISIC_1585511.JPG
break,html.Screen,4_81_1,2023-09-09T16:15:05.533Z,,0,,,NaN,,,,,,false,,,,644026.5,644026.2999997139,,644026.0999999046,,644034.581,8,400,,,
break_continue,html.Screen,4_81_2,2023-09-09T16:15:05.534Z,,0,,,NaN,,,,,,false,,,,644026.9000000954,644026.6999998093,,644026.5999999046,,644034.581,8,400,,,
sequence,flow.Sequence,4_81,2023-09-09T16:15:05.534Z,,0,,,4417.476999809267,completion,,,,,false,,,,644027,644026.6999998093,639592.509,639607.5999999046,639609.223,644034.581,8,400,,,
trial,html.Screen,4_82_0,2023-09-09T16:15:13.023Z,,0,2,,7481.61899980926,response,ISIC_0030089.JPG,5,ISIC_0000072.JPG,ISIC_0030089.JPG,false,1,keypress(m),500,651516.2999997139,651516.1999998093,644017.779,644027,644034.581,651532.5,8,400,33,,ISIC_0000072.JPG
break,html.Screen,4_82_1,2023-09-09T16:15:13.024Z,,0,,,NaN,,,,,,false,,,,651516.9000000954,651516.5999999046,,651516.4000000954,,651532.5,8,400,,,
break_continue,html.Screen,4_82_2,2023-09-09T16:15:13.024Z,,0,,,NaN,,,,,,false,,,,651517.0999999046,651517.0999999046,,651517,,651532.5,8,400,,,
sequence,flow.Sequence,4_82,2023-09-09T16:15:13.024Z,,0,,,7482.518999904627,completion,,,,,false,,,,651517.1999998093,651517.0999999046,644017.779,644027,644034.581,651532.5,8,400,,,
trial,html.Screen,4_83_0,2023-09-09T16:15:17.158Z,,0,2,,4118.099999904633,response,ISIC_6155981.JPG,5,ISIC_0067719.JPG,ISIC_0067719.JPG,false,0,keypress(z),500,655651.0999999046,655650.5999999046,651515.714,651517.1999998093,651532.5,655657.208,8,400,34,,ISIC_6155981.JPG
break,html.Screen,4_83_1,2023-09-09T16:15:17.160Z,,0,,,NaN,,,,,,false,,,,655653.4000000954,655652.7999997139,,655651.9000000954,,655657.208,8,400,,,
break_continue,html.Screen,4_83_2,2023-09-09T16:15:17.161Z,,0,,,NaN,,,,,,false,,,,655654.5,655654.1999998093,,655653.7999997139,,655657.208,8,400,,,
sequence,flow.Sequence,4_83,2023-09-09T16:15:17.162Z,,0,,,4121.699999809265,completion,,,,,false,,,,655655.2999997139,655654.1999998093,651515.714,651517.1999998093,651532.5,655657.208,8,400,,,
trial,html.Screen,4_84_0,2023-09-09T16:15:21.728Z,,0,2,,4563.391999904648,response,ISIC_0033668.JPG,5,ISIC_1334438.JPG,ISIC_1334438.JPG,false,0,keypress(z),500,660220.9000000954,660220.5999999046,655640.475,655655.7999997139,655657.208,660232.821,8,400,35,,ISIC_0033668.JPG
break,html.Screen,4_84_1,2023-09-09T16:15:21.730Z,,0,,,NaN,,,,,,false,,,,660222.9000000954,660222.4000000954,,660221.4000000954,,660232.821,8,400,,,
break_continue,html.Screen,4_84_2,2023-09-09T16:15:21.731Z,,0,,,NaN,,,,,,false,,,,660223.6999998093,660223.5,,660223.1999998093,,660232.821,8,400,,,
sequence,flow.Sequence,4_84,2023-09-09T16:15:21.731Z,,0,,,4566.292000000016,completion,,,,,false,,,,660224,660223.5,655640.475,655655.5999999046,655657.208,660232.821,8,400,,,
trial,html.Screen,4_85_0,2023-09-09T16:15:27.973Z,,0,2,,6233.579000095371,response,ISIC_4190900.JPG,5,ISIC_8523262.JPG,ISIC_8523262.JPG,false,0,keypress(z),500,666466.5999999046,666466.4000000954,660216.082,660224.4000000954,660232.821,666478.144,8,400,36,,ISIC_4190900.JPG
break,html.Screen,4_85_1,2023-09-09T16:15:27.974Z,,0,,,NaN,,,,,,false,,,,666466.9000000954,666466.9000000954,,666466.5999999046,,666478.144,8,400,,,
break_continue,html.Screen,4_85_2,2023-09-09T16:15:27.974Z,,0,,,NaN,,,,,,false,,,,666467.1999998093,666467.0999999046,,666467,,666478.144,8,400,,,
sequence,flow.Sequence,4_85,2023-09-09T16:15:27.974Z,,0,,,6234.278999904636,completion,,,,,false,,,,666467.1999998093,666467.0999999046,660216.082,660224.2999997139,660232.821,666478.144,8,400,,,
trial,html.Screen,4_86_0,2023-09-09T16:15:33.086Z,,0,2,,5100.455999904661,response,ISIC_3234908.JPG,6,ISIC_2206284.JPG,ISIC_2206284.JPG,false,0,keypress(z),500,671578.6999998093,671578.5999999046,666461.54,666467.2999997139,666478.144,671588.188,8,400,37,,ISIC_3234908.JPG
break,html.Screen,4_86_1,2023-09-09T16:15:33.086Z,,0,,,NaN,,,,,,false,,,,671579.5,671579.4000000954,,671578.9000000954,,671588.188,8,400,,,
break_continue,html.Screen,4_86_2,2023-09-09T16:15:33.087Z,,0,,,NaN,,,,,,false,,,,671579.6999998093,671579.6999998093,,671579.5999999046,,671588.188,8,400,,,
sequence,flow.Sequence,4_86,2023-09-09T16:15:33.087Z,,0,,,5101.555999809294,completion,,,,,false,,,,671579.9000000954,671579.6999998093,666461.54,666467.1999998093,666478.144,671588.188,8,400,,,
trial,html.Screen,4_87_0,2023-09-09T16:15:38.817Z,,0,2,,5721.911999904667,response,ISIC_0008162.JPG,4,ISIC_4580926.JPG,ISIC_0008162.JPG,false,1,keypress(m),500,677310.1999998093,677310.0999999046,671571.421,671579.9000000954,671588.188,677315.923,8,400,38,,ISIC_4580926.JPG
break,html.Screen,4_87_1,2023-09-09T16:15:38.818Z,,0,,,NaN,,,,,,false,,,,677310.6999998093,677310.6999998093,,677310.2999997139,,677315.923,8,400,,,
break_continue,html.Screen,4_87_2,2023-09-09T16:15:38.818Z,,0,,,NaN,,,,,,false,,,,677311,677310.7999997139,,677310.7999997139,,677315.923,8,400,,,
sequence,flow.Sequence,4_87,2023-09-09T16:15:38.818Z,,0,,,5722.611999713932,completion,,,,,false,,,,677311,677310.7999997139,671571.421,671579.9000000954,671588.188,677315.923,8,400,,,
trial,html.Screen,4_88_0,2023-09-09T16:15:47.209Z,,0,2,,8386.376999713946,response,ISIC_1776777.JPG,5,ISIC_0059983.JPG,ISIC_1776777.JPG,false,1,keypress(m),500,685702.4000000954,685702.2999997139,677299.267,677311.0999999046,677315.923,685715.612,8,400,39,,ISIC_0059983.JPG
break,html.Screen,4_88_1,2023-09-09T16:15:47.210Z,,0,,,NaN,,,,,,false,,,,685702.9000000954,685702.7999997139,,685702.5,,685715.612,8,400,,,
break_continue,html.Screen,4_88_2,2023-09-09T16:15:47.210Z,,0,,,NaN,,,,,,false,,,,685703.1999998093,685703.0999999046,,685703,,685715.612,8,400,,,
sequence,flow.Sequence,4_88,2023-09-09T16:15:47.210Z,,0,,,8387.176999904681,completion,,,,,false,,,,685703.1999998093,685703.0999999046,677299.267,677311.0999999046,677315.923,685715.612,8,400,,,
trial,html.Screen,4_89_0,2023-09-09T16:15:54.013Z,,0,2,,6790.0879998093005,response,ISIC_0070412.JPG,5,ISIC_0027225.JPG,ISIC_0070412.JPG,false,1,keypress(m),500,692506,692505.6999998093,685698.875,685703.1999998093,685715.612,692512.125,8,400,40,,ISIC_0027225.JPG
break,html.Screen,4_89_1,2023-09-09T16:15:54.014Z,,0,,,NaN,,,,,,false,,,,692506.9000000954,692506.6999998093,,692506.0999999046,,692512.125,8,400,,,
break_continue,html.Screen,4_89_2,2023-09-09T16:15:54.014Z,,0,,,NaN,,,,,,false,,,,692507.4000000954,692507.1999998093,,692507.0999999046,,692512.125,8,400,,,
sequence,flow.Sequence,4_89,2023-09-09T16:15:54.014Z,,0,,,6791.5879998093005,completion,,,,,false,,,,692507.5,692507.1999998093,685698.875,685703.1999998093,685715.612,692512.125,8,400,,,
trial,html.Screen,4_90_0,2023-09-09T16:15:58.593Z,,0,2,,4572.875,response,ISIC_0066492.JPG,7,ISIC_0068886.JPG,ISIC_0068886.JPG,false,0,keypress(z),500,697085.0999999046,697085,692495.618,692507.6999998093,692512.125,697087.743,8,400,41,,ISIC_0066492.JPG
break,html.Screen,4_90_1,2023-09-09T16:15:58.593Z,,0,,,NaN,,,,,,false,,,,697085.5999999046,697085.5,,697085.1999998093,,697087.743,8,400,,,
break_continue,html.Screen,4_90_2,2023-09-09T16:15:58.594Z,,0,,,NaN,,,,,,false,,,,697085.7999997139,697085.7999997139,,697085.6999998093,,697087.743,8,400,,,
sequence,flow.Sequence,4_90,2023-09-09T16:15:58.594Z,,0,,,4573.674999713898,completion,,,,,false,,,,697086,697085.7999997139,692495.618,692507.5999999046,692512.125,697087.743,8,400,,,
trial,html.Screen,4_91_0,2023-09-09T16:16:03.060Z,,0,2,,4463.756999999983,response,ISIC_2332127.JPG,6,ISIC_1584535.JPG,ISIC_2332127.JPG,false,1,keypress(m),500,701551.7999997139,701551.5,697071.096,697086,697087.743,701563.176,8,400,42,,ISIC_1584535.JPG
break,html.Screen,4_91_1,2023-09-09T16:16:03.061Z,,0,,,NaN,,,,,,false,,,,701552.6999998093,701552.5,,701552.0999999046,,701563.176,8,400,,,
break_continue,html.Screen,4_91_2,2023-09-09T16:16:03.061Z,,0,,,NaN,,,,,,false,,,,701553,701552.9000000954,,701552.7999997139,,701563.176,8,400,,,
sequence,flow.Sequence,4_91,2023-09-09T16:16:03.061Z,,0,,,4465.157000095351,completion,,,,,false,,,,701553.1999998093,701552.9000000954,697071.096,697086,697087.743,701563.176,8,400,,,
trial,html.Screen,4_92_0,2023-09-09T16:16:07.959Z,,0,2,,4888.423999904655,response,ISIC_0004217.JPG,4,ISIC_7693995.JPG,ISIC_7693995.JPG,false,0,keypress(z),500,706451.5999999046,706451.5999999046,701546.454,701553.2999997139,701563.176,706455.979,8,400,43,,ISIC_0004217.JPG
break,html.Screen,4_92_1,2023-09-09T16:16:07.960Z,,0,,,NaN,,,,,,false,,,,706452,706452,,706451.6999998093,,706455.979,8,400,,,
break_continue,html.Screen,4_92_2,2023-09-09T16:16:07.960Z,,0,,,NaN,,,,,,false,,,,706452.2999997139,706452.0999999046,,706452.0999999046,,706455.979,8,400,,,
sequence,flow.Sequence,4_92,2023-09-09T16:16:07.960Z,,0,,,4888.923999904655,completion,,,,,false,,,,706452.2999997139,706452.0999999046,701546.454,701553.2999997139,701563.176,706455.979,8,400,,,
trial,html.Screen,4_93_0,2023-09-09T16:16:12.605Z,,0,2,,4641.320999713847,response,ISIC_0027561.JPG,6,ISIC_0029913.JPG,ISIC_0027561.JPG,false,1,keypress(m),500,711097.5,711097.2999997139,706439.226,706452.2999997139,706455.979,711098.379,8,400,44,,ISIC_0029913.JPG
break,html.Screen,4_93_1,2023-09-09T16:16:12.606Z,,0,,,NaN,,,,,,false,,,,711098,711097.9000000954,,711097.5999999046,,711098.379,8,400,,,
break_continue,html.Screen,4_93_2,2023-09-09T16:16:12.606Z,,0,,,NaN,,,,,,false,,,,711098.4000000954,711098.2999997139,,711098.1999998093,,711098.379,8,400,,,
sequence,flow.Sequence,4_93,2023-09-09T16:16:12.606Z,,0,,,4642.320999713847,completion,,,,,false,,,,711098.5,711098.2999997139,706439.226,706452.2999997139,706455.979,711098.379,8,400,,,
trial,html.Screen,4_94_0,2023-09-09T16:16:17.471Z,,0,2,,4865.02100009541,response,ISIC_5501183.JPG,5,ISIC_9639931.JPG,ISIC_5501183.JPG,false,1,keypress(m),500,715963.6999998093,715963.4000000954,711081.72,711098.5999999046,711098.379,715974.488,8,400,45,,ISIC_9639931.JPG
break,html.Screen,4_94_1,2023-09-09T16:16:17.472Z,,0,,,NaN,,,,,,false,,,,715964.5,715964.2999997139,,715964,,715974.488,8,400,,,
break_continue,html.Screen,4_94_2,2023-09-09T16:16:17.473Z,,0,,,NaN,,,,,,false,,,,715964.9000000954,715964.7999997139,,715964.5999999046,,715974.488,8,400,,,
sequence,flow.Sequence,4_94,2023-09-09T16:16:17.473Z,,0,,,4866.420999713941,completion,,,,,false,,,,715965.0999999046,715964.7999997139,711081.72,711098.5999999046,711098.379,715974.488,8,400,,,
trial,html.Screen,4_95_0,2023-09-09T16:16:22.167Z,,0,2,,4684.412000095355,response,ISIC_8493108.JPG,5,ISIC_0059421.JPG,ISIC_8493108.JPG,false,1,keypress(m),500,720659,720658.9000000954,715957.808,715965.1999998093,715974.488,720667.008,8,400,46,,ISIC_0059421.JPG
break,html.Screen,4_95_1,2023-09-09T16:16:22.168Z,,0,,,NaN,,,,,,false,,,,720659.6999998093,720659.5,,720659.1999998093,,720667.008,8,400,,,
break_continue,html.Screen,4_95_2,2023-09-09T16:16:22.168Z,,0,,,NaN,,,,,,false,,,,720660,720660,,720659.7999997139,,720667.008,8,400,,,
sequence,flow.Sequence,4_95,2023-09-09T16:16:22.168Z,,0,,,4685.511999999988,completion,,,,,false,,,,720660.0999999046,720660,715957.808,715965.0999999046,715974.488,720667.008,8,400,,,
trial,html.Screen,4_96_0,2023-09-09T16:16:28.570Z,,0,2,,6395.392000095337,response,ISIC_0060660.JPG,5,ISIC_7127760.JPG,ISIC_0060660.JPG,false,1,keypress(m),500,727062.5999999046,727062.4000000954,720650.383,720660.0999999046,720667.008,727079.449,8,400,47,,ISIC_7127760.JPG
break,html.Screen,4_96_1,2023-09-09T16:16:28.572Z,,0,,,NaN,,,,,,false,,,,727064.1999998093,727063.6999998093,,727063,,727079.449,8,400,,,
break_continue,html.Screen,4_96_2,2023-09-09T16:16:28.573Z,,0,,,NaN,,,,,,false,,,,727064.9000000954,727064.6999998093,,727064.4000000954,,727079.449,8,400,,,
sequence,flow.Sequence,4_96,2023-09-09T16:16:28.573Z,,0,,,6397.691999809234,completion,,,,,false,,,,727065.0999999046,727064.6999998093,720650.383,720660.0999999046,720667.008,727079.449,8,400,,,
trial,html.Screen,4_97_0,2023-09-09T16:16:36.612Z,,0,2,,8024.350999713875,response,ISIC_0014973.JPG,6,ISIC_0057048.JPG,ISIC_0057048.JPG,false,0,keypress(z),500,735104.1999998093,735103.7999997139,727062.699,727065.1999998093,727079.449,735111.818,8,400,48,,ISIC_0014973.JPG
break,html.Screen,4_97_1,2023-09-09T16:16:36.614Z,,0,,,NaN,,,,,,false,,,,735105.9000000954,735105.2999997139,,735104.5,,735111.818,8,400,,,
break_continue,html.Screen,4_97_2,2023-09-09T16:16:36.615Z,,0,,,NaN,,,,,,false,,,,735106.9000000954,735106.6999998093,,735106.1999998093,,735111.818,8,400,,,
sequence,flow.Sequence,4_97,2023-09-09T16:16:36.615Z,,0,,,8027.250999809243,completion,,,,,false,,,,735107.1999998093,735106.6999998093,727062.699,727065.1999998093,727079.449,735111.818,8,400,,,
trial,html.Screen,4_98_0,2023-09-09T16:16:41.962Z,,0,2,,5342.381999809295,response,ISIC_1253960.JPG,5,ISIC_3225754.JPG,ISIC_3225754.JPG,false,0,keypress(z),500,740454.5,740454.1999998093,735095.047,735107.4000000954,735111.818,740455.458,8,400,49,,ISIC_1253960.JPG
break,html.Screen,4_98_1,2023-09-09T16:16:41.963Z,,0,,,NaN,,,,,,false,,,,740455.0999999046,740455,,740454.5999999046,,740455.458,8,400,,,
break_continue,html.Screen,4_98_2,2023-09-09T16:16:41.963Z,,0,,,NaN,,,,,,false,,,,740455.4000000954,740455.2999997139,,740455.1999998093,,740455.458,8,400,,,
sequence,flow.Sequence,4_98,2023-09-09T16:16:41.964Z,,0,,,5343.4819997139275,completion,,,,,false,,,,740455.7999997139,740455.2999997139,735095.047,735107.2999997139,735111.818,740455.458,8,400,,,
trial,html.Screen,4_99_0,2023-09-09T16:16:47.572Z,,0,2,,5608.3419997139135,response,ISIC_7141153.JPG,5,ISIC_7198887.JPG,ISIC_7141153.JPG,false,1,keypress(m),500,746063.9000000954,746063.7999997139,740438.756,740455.9000000954,740455.458,746066.38,8,400,50,,ISIC_7198887.JPG
break,html.Screen,4_99_1,2023-09-09T16:16:57.561Z,,0,,,10002.785000000033,timeout,,,,,false,,,,756053.0999999046,756052.58,746049.707,746063.9000000954,746066.38,756069.165,8,400,,,
break_continue,html.Screen,4_99_2,2023-09-09T16:17:02.202Z,,0,,,4610.13499971386,response,,,,,false,continue,keypress(Space),,760693.5999999046,760679.2999997139,756052.58,756053.1999998093,756069.165,760711.564,8,400,,,
sequence,flow.Sequence,4_99,2023-09-09T16:17:02.202Z,,0,,,20223.841999713914,completion,,,,,false,,,,760693.7999997139,760679.2999997139,740438.756,740455.9000000954,740455.458,760711.564,8,400,,,
trial,html.Screen,4_100_0,2023-09-09T16:17:06.946Z,,0,3,,4725.836000095354,response,ISIC_0063871.JPG,4,ISIC_7614221.JPG,ISIC_0063871.JPG,false,1,keypress(m),500,765437.5999999046,765437.4000000954,760694.796,760693.7999997139,760711.564,765454.191,8,400,1,,ISIC_7614221.JPG
break,html.Screen,4_100_1,2023-09-09T16:17:06.947Z,,0,,,NaN,,,,,,false,,,,765438.5,765438.1999998093,,765437.7999997139,,765454.191,8,400,,,
break_continue,html.Screen,4_100_2,2023-09-09T16:17:06.947Z,,0,,,NaN,,,,,,false,,,,765438.6999998093,765438.5999999046,,765438.5999999046,,765454.191,8,400,,,
sequence,flow.Sequence,4_100,2023-09-09T16:17:06.947Z,,0,,,4727.0359999046195,completion,,,,,false,,,,765438.6999998093,765438.5999999046,760694.796,760693.7999997139,760711.564,765454.191,8,400,,,
trial,html.Screen,4_101_0,2023-09-09T16:17:11.228Z,,0,3,,4265.709000095376,response,ISIC_7084553.JPG,6,ISIC_5848892.JPG,ISIC_5848892.JPG,false,0,keypress(z),500,769720.0999999046,769719.9000000954,765437.565,765438.7999997139,765454.191,769729.059,8,400,2,,ISIC_7084553.JPG
break,html.Screen,4_101_1,2023-09-09T16:17:11.229Z,,0,,,NaN,,,,,,false,,,,769720.9000000954,769720.5999999046,,769720.1999998093,,769729.059,8,400,,,
break_continue,html.Screen,4_101_2,2023-09-09T16:17:11.230Z,,0,,,NaN,,,,,,false,,,,769721.1999998093,769721.0999999046,,769721,,769729.059,8,400,,,
sequence,flow.Sequence,4_101,2023-09-09T16:17:11.230Z,,0,,,4266.908999904641,completion,,,,,false,,,,769721.4000000954,769721.0999999046,765437.565,765438.7999997139,765454.191,769729.059,8,400,,,
trial,html.Screen,4_102_0,2023-09-09T16:17:15.606Z,,0,3,,4367.940999999992,response,ISIC_0007622.JPG,5,ISIC_0014703.JPG,ISIC_0014703.JPG,false,0,keypress(z),500,774097.2999997139,774097,769712.474,769721.5,769729.059,774104.406,8,400,3,,ISIC_0007622.JPG
break,html.Screen,4_102_1,2023-09-09T16:17:15.607Z,,0,,,NaN,,,,,,false,,,,774099.0999999046,774098.5,,774097.7999997139,,774104.406,8,400,,,
break_continue,html.Screen,4_102_2,2023-09-09T16:17:15.608Z,,0,,,NaN,,,,,,false,,,,774099.9000000954,774099.6999998093,,774099.2999997139,,774104.406,8,400,,,
sequence,flow.Sequence,4_102,2023-09-09T16:17:15.609Z,,0,,,4370.640999809257,completion,,,,,false,,,,774100.1999998093,774099.6999998093,769712.474,769721.5,769729.059,774104.406,8,400,,,
trial,html.Screen,4_103_0,2023-09-09T16:17:20.059Z,,0,3,,4446.293999809306,response,ISIC_0579562.JPG,5,ISIC_0000301.JPG,ISIC_0000301.JPG,false,0,keypress(z),500,778550.9000000954,778550.6999998093,774087.573,774100.5,774104.406,778563.03,8,400,4,,ISIC_0579562.JPG
break,html.Screen,4_103_1,2023-09-09T16:17:20.060Z,,0,,,NaN,,,,,,false,,,,778551.2999997139,778551.2999997139,,778550.9000000954,,778563.03,8,400,,,
break_continue,html.Screen,4_103_2,2023-09-09T16:17:20.060Z,,0,,,NaN,,,,,,false,,,,778551.6999998093,778551.5999999046,,778551.5,,778563.03,8,400,,,
sequence,flow.Sequence,4_103,2023-09-09T16:17:20.060Z,,0,,,4447.193999904674,completion,,,,,false,,,,778551.7999997139,778551.5999999046,774087.573,774100.4000000954,774104.406,778563.03,8,400,,,
trial,html.Screen,4_104_0,2023-09-09T16:17:26.384Z,,0,3,,6312.069999904605,response,ISIC_0061475.JPG,5,ISIC_2916677.JPG,ISIC_0061475.JPG,false,1,keypress(m),500,784875.2999997139,784875.0999999046,778546.227,778551.9000000954,778563.03,784892.013,8,400,5,,ISIC_2916677.JPG
break,html.Screen,4_104_1,2023-09-09T16:17:26.384Z,,0,,,NaN,,,,,,false,,,,784876.1999998093,784875.9000000954,,784875.4000000954,,784892.013,8,400,,,
break_continue,html.Screen,4_104_2,2023-09-09T16:17:26.385Z,,0,,,NaN,,,,,,false,,,,784876.4000000954,784876.2999997139,,784876.1999998093,,784892.013,8,400,,,
sequence,flow.Sequence,4_104,2023-09-09T16:17:26.385Z,,0,,,6313.26999971387,completion,,,,,false,,,,784876.5,784876.2999997139,778546.227,778551.7999997139,778563.03,784892.013,8,400,,,
trial,html.Screen,4_105_0,2023-09-09T16:17:30.011Z,,0,3,,3610.1869998092297,response,ISIC_3979826.JPG,4,ISIC_0030462.JPG,ISIC_3979826.JPG,false,1,keypress(m),500,788502.4000000954,788502.1999998093,784875.239,784876.5,784892.013,788532.31,8,400,6,,ISIC_0030462.JPG
break,html.Screen,4_105_1,2023-09-09T16:17:30.011Z,,0,,,NaN,,,,,,false,,,,788502.7999997139,788502.6999998093,,788502.5,,788532.31,8,400,,,
break_continue,html.Screen,4_105_2,2023-09-09T16:17:30.011Z,,0,,,NaN,,,,,,false,,,,788503.0999999046,788503,,788502.9000000954,,788532.31,8,400,,,
sequence,flow.Sequence,4_105,2023-09-09T16:17:30.011Z,,0,,,3610.9869999999646,completion,,,,,false,,,,788503.0999999046,788503,784875.239,784876.5,784892.013,788532.31,8,400,,,
trial,html.Screen,4_106_0,2023-09-09T16:17:36.689Z,,0,3,,6648.090000095312,response,ISIC_0012538.JPG,4,ISIC_0067667.JPG,ISIC_0067667.JPG,false,0,keypress(z),500,795180.5,795180.4000000954,788515.66,788503.1999998093,788532.31,795195.389,8,400,7,,ISIC_0012538.JPG
break,html.Screen,4_106_1,2023-09-09T16:17:36.689Z,,0,,,NaN,,,,,,false,,,,795180.9000000954,795180.9000000954,,795180.5999999046,,795195.389,8,400,,,
break_continue,html.Screen,4_106_2,2023-09-09T16:17:36.689Z,,0,,,NaN,,,,,,false,,,,795181.0999999046,795181.0999999046,,795181,,795195.389,8,400,,,
sequence,flow.Sequence,4_106,2023-09-09T16:17:36.689Z,,0,,,6648.789999904577,completion,,,,,false,,,,795181.1999998093,795181.0999999046,788515.66,788503.1999998093,788532.31,795195.389,8,400,,,
trial,html.Screen,4_107_0,2023-09-09T16:17:42.019Z,,0,3,,5315.011000095401,response,ISIC_0061315.JPG,5,ISIC_8320640.JPG,ISIC_0061315.JPG,false,1,keypress(m),500,800510.5,800510.4000000954,795178.577,795181.2999997139,795195.389,800522.528,8,400,8,,ISIC_8320640.JPG
break,html.Screen,4_107_1,2023-09-09T16:17:42.019Z,,0,,,NaN,,,,,,false,,,,800510.9000000954,800510.9000000954,,800510.5999999046,,800522.528,8,400,,,
break_continue,html.Screen,4_107_2,2023-09-09T16:17:42.019Z,,0,,,NaN,,,,,,false,,,,800511.0999999046,800511,,800511,,800522.528,8,400,,,
sequence,flow.Sequence,4_107,2023-09-09T16:17:42.019Z,,0,,,5315.6110000000335,completion,,,,,false,,,,800511.1999998093,800511,795178.577,795181.2999997139,795195.389,800522.528,8,400,,,
trial,html.Screen,4_108_0,2023-09-09T16:17:47.429Z,,0,3,,5397.771999713848,response,ISIC_5519357.JPG,5,ISIC_0030002.JPG,ISIC_0030002.JPG,false,0,keypress(z),500,805920.5,805920.2999997139,800505.653,800511.2999997139,800522.528,805932.956,8,400,9,,ISIC_5519357.JPG
break,html.Screen,4_108_1,2023-09-09T16:17:47.429Z,,0,,,NaN,,,,,,false,,,,805920.9000000954,805920.7999997139,,805920.5,,805932.956,8,400,,,
break_continue,html.Screen,4_108_2,2023-09-09T16:17:47.429Z,,0,,,NaN,,,,,,false,,,,805921,805921,,805920.9000000954,,805932.956,8,400,,,
sequence,flow.Sequence,4_108,2023-09-09T16:17:47.429Z,,0,,,5398.471999999951,completion,,,,,false,,,,805921,805921,800505.653,800511.1999998093,800522.528,805932.956,8,400,,,
trial,html.Screen,4_109_0,2023-09-09T16:17:53.340Z,,0,3,,5898.143999904627,response,ISIC_0485417.JPG,5,ISIC_0024321.JPG,ISIC_0485417.JPG,false,1,keypress(m),500,811831.1999998093,811831.0999999046,805916.165,805921.0999999046,805932.956,811844.394,8,400,10,,ISIC_0024321.JPG
break,html.Screen,4_109_1,2023-09-09T16:17:53.340Z,,0,,,NaN,,,,,,false,,,,811831.5999999046,811831.5999999046,,811831.2999997139,,811844.394,8,400,,,
break_continue,html.Screen,4_109_2,2023-09-09T16:17:53.340Z,,0,,,NaN,,,,,,false,,,,811831.7999997139,811831.6999998093,,811831.6999998093,,811844.394,8,400,,,
sequence,flow.Sequence,4_109,2023-09-09T16:17:53.340Z,,0,,,5898.74399980926,completion,,,,,false,,,,811831.9000000954,811831.6999998093,805916.165,805921.0999999046,805932.956,811844.394,8,400,,,
trial,html.Screen,4_110_0,2023-09-09T16:17:58.222Z,,0,3,,4867.905999713927,response,ISIC_0011097.JPG,5,ISIC_4678416.JPG,ISIC_0011097.JPG,false,1,keypress(m),500,816712.5,816712.2999997139,811827.654,811831.9000000954,811844.394,816720.519,8,400,11,,ISIC_4678416.JPG
break,html.Screen,4_110_1,2023-09-09T16:17:58.222Z,,0,,,NaN,,,,,,false,,,,816712.9000000954,816712.7999997139,,816712.5999999046,,816720.519,8,400,,,
break_continue,html.Screen,4_110_2,2023-09-09T16:17:58.222Z,,0,,,NaN,,,,,,false,,,,816713.0999999046,816713.0999999046,,816713,,816720.519,8,400,,,
sequence,flow.Sequence,4_110,2023-09-09T16:17:58.222Z,,0,,,4868.705999904661,completion,,,,,false,,,,816713.1999998093,816713.0999999046,811827.654,811831.9000000954,811844.394,816720.519,8,400,,,
trial,html.Screen,4_111_0,2023-09-09T16:18:02.256Z,,0,3,,4026.0809999046614,response,ISIC_9465061.JPG,5,ISIC_5519357.JPG,ISIC_9465061.JPG,false,1,keypress(m),500,820746.7999997139,820746.5999999046,816703.984,816713.2999997139,816720.519,820761.744,8,400,12,,ISIC_5519357.JPG
break,html.Screen,4_111_1,2023-09-09T16:18:02.257Z,,0,,,NaN,,,,,,false,,,,820748.2999997139,820747.9000000954,,820747.0999999046,,820761.744,8,400,,,
break_continue,html.Screen,4_111_2,2023-09-09T16:18:02.258Z,,0,,,NaN,,,,,,false,,,,820749,820748.7999997139,,820748.5,,820761.744,8,400,,,
sequence,flow.Sequence,4_111,2023-09-09T16:18:02.259Z,,0,,,4028.2809997139266,completion,,,,,false,,,,820749.5,820748.7999997139,816703.984,816713.2999997139,816720.519,820761.744,8,400,,,
trial,html.Screen,4_112_0,2023-09-09T16:18:08.486Z,,0,3,,6215.355999904685,response,ISIC_2059085.JPG,4,ISIC_7491389.JPG,ISIC_2059085.JPG,false,1,keypress(m),500,826977.1999998093,826977.0999999046,820745.093,820749.6999998093,820761.744,826990.523,8,400,13,,ISIC_7491389.JPG
break,html.Screen,4_112_1,2023-09-09T16:18:08.487Z,,0,,,NaN,,,,,,false,,,,826977.5999999046,826977.5,,826977.2999997139,,826990.523,8,400,,,
break_continue,html.Screen,4_112_2,2023-09-09T16:18:08.487Z,,0,,,NaN,,,,,,false,,,,826977.9000000954,826977.7999997139,,826977.6999998093,,826990.523,8,400,,,
sequence,flow.Sequence,4_112,2023-09-09T16:18:08.487Z,,0,,,6216.05599971395,completion,,,,,false,,,,826977.9000000954,826977.7999997139,820745.093,820749.5999999046,820761.744,826990.523,8,400,,,
trial,html.Screen,4_113_0,2023-09-09T16:18:12.840Z,,0,3,,4339.877000095323,response,ISIC_9947624.JPG,5,ISIC_7171090.JPG,ISIC_7171090.JPG,false,0,keypress(z),500,831330.5,831330.4000000954,826973.797,826977.9000000954,826990.523,831332.305,8,400,14,,ISIC_9947624.JPG
break,html.Screen,4_113_1,2023-09-09T16:18:12.840Z,,0,,,NaN,,,,,,false,,,,831331.0999999046,831330.9000000954,,831330.5999999046,,831332.305,8,400,,,
break_continue,html.Screen,4_113_2,2023-09-09T16:18:12.840Z,,0,,,NaN,,,,,,false,,,,831331.2999997139,831331.1999998093,,831331.0999999046,,831332.305,8,400,,,
sequence,flow.Sequence,4_113,2023-09-09T16:18:12.840Z,,0,,,4340.67699980922,completion,,,,,false,,,,831331.2999997139,831331.1999998093,826973.797,826977.9000000954,826990.523,831332.305,8,400,,,
trial,html.Screen,4_114_0,2023-09-09T16:18:18.410Z,,0,3,,5568.294999904581,response,ISIC_0029902.JPG,5,ISIC_7521698.JPG,ISIC_0029902.JPG,false,1,keypress(m),500,836900.7999997139,836900.5999999046,831315.609,831331.4000000954,831332.305,836926.594,8,400,15,,ISIC_7521698.JPG
break,html.Screen,4_114_1,2023-09-09T16:18:18.410Z,,0,,,NaN,,,,,,false,,,,836901.2999997139,836901.1999998093,,836900.9000000954,,836926.594,8,400,,,
break_continue,html.Screen,4_114_2,2023-09-09T16:18:18.411Z,,0,,,NaN,,,,,,false,,,,836901.5,836901.5,,836901.4000000954,,836926.594,8,400,,,
sequence,flow.Sequence,4_114,2023-09-09T16:18:18.411Z,,0,,,5569.194999999949,completion,,,,,false,,,,836901.6999998093,836901.5,831315.609,831331.4000000954,831332.305,836926.594,8,400,,,
trial,html.Screen,4_115_0,2023-09-09T16:18:25.308Z,,0,3,,6872.405999999959,response,ISIC_0064559.JPG,6,ISIC_0062223.JPG,ISIC_0064559.JPG,false,1,keypress(m),500,843799.0999999046,843799,836909.856,836901.7999997139,836926.594,843806.638,8,400,16,,ISIC_0062223.JPG
break,html.Screen,4_115_1,2023-09-09T16:18:25.309Z,,0,,,NaN,,,,,,false,,,,843799.5999999046,843799.5,,843799.1999998093,,843806.638,8,400,,,
break_continue,html.Screen,4_115_2,2023-09-09T16:18:25.309Z,,0,,,NaN,,,,,,false,,,,843799.9000000954,843799.6999998093,,843799.6999998093,,843806.638,8,400,,,
sequence,flow.Sequence,4_115,2023-09-09T16:18:25.309Z,,0,,,6873.105999809224,completion,,,,,false,,,,843800,843799.6999998093,836909.856,836901.6999998093,836926.594,843806.638,8,400,,,
trial,html.Screen,4_116_0,2023-09-09T16:18:30.341Z,,0,3,,5024.961999904597,response,ISIC_2166957.JPG,6,ISIC_0012406.JPG,ISIC_0012406.JPG,false,0,keypress(z),500,848831.7999997139,848831.5999999046,843789.9,843800,843806.638,848833.013,8,400,17,,ISIC_2166957.JPG
break,html.Screen,4_116_1,2023-09-09T16:18:30.341Z,,0,,,NaN,,,,,,false,,,,848832.1999998093,848832.0999999046,,848831.9000000954,,848833.013,8,400,,,
break_continue,html.Screen,4_116_2,2023-09-09T16:18:30.342Z,,0,,,NaN,,,,,,false,,,,848832.5,848832.4000000954,,848832.2999997139,,848833.013,8,400,,,
sequence,flow.Sequence,4_116,2023-09-09T16:18:30.342Z,,0,,,5025.762000095332,completion,,,,,false,,,,848832.5999999046,848832.4000000954,843789.9,843800,843806.638,848833.013,8,400,,,
trial,html.Screen,4_117_0,2023-09-09T16:18:36.023Z,,0,3,,5681.086999904597,response,ISIC_8121679.JPG,5,ISIC_6882582.JPG,ISIC_6882582.JPG,false,0,keypress(z),500,854514.1999998093,854514.0999999046,848816.408,848832.6999998093,848833.013,854527.451,8,400,18,,ISIC_8121679.JPG
break,html.Screen,4_117_1,2023-09-09T16:18:36.024Z,,0,,,NaN,,,,,,false,,,,854514.6999998093,854514.5999999046,,854514.2999997139,,854527.451,8,400,,,
break_continue,html.Screen,4_117_2,2023-09-09T16:18:36.024Z,,0,,,NaN,,,,,,false,,,,854515.0999999046,854515,,854514.7999997139,,854527.451,8,400,,,
sequence,flow.Sequence,4_117,2023-09-09T16:18:36.024Z,,0,,,5681.986999999965,completion,,,,,false,,,,854515.0999999046,854515,848816.408,848832.6999998093,848833.013,854527.451,8,400,,,
trial,html.Screen,4_118_0,2023-09-09T16:18:40.986Z,,0,3,,4949.248999809264,response,ISIC_2222879.JPG,5,ISIC_1952749.JPG,ISIC_1952749.JPG,false,0,keypress(z),500,859476.9000000954,859476.6999998093,854510.735,854515.1999998093,854527.451,859487.163,8,400,19,,ISIC_2222879.JPG
break,html.Screen,4_118_1,2023-09-09T16:18:40.987Z,,0,,,NaN,,,,,,false,,,,859477.5,859477.1999998093,,859477,,859487.163,8,400,,,
break_continue,html.Screen,4_118_2,2023-09-09T16:18:40.987Z,,0,,,NaN,,,,,,false,,,,859477.7999997139,859477.6999998093,,859477.5999999046,,859487.163,8,400,,,
sequence,flow.Sequence,4_118,2023-09-09T16:18:40.987Z,,0,,,4950.248999809264,completion,,,,,false,,,,859477.9000000954,859477.6999998093,854510.735,854515.0999999046,854527.451,859487.163,8,400,,,
trial,html.Screen,4_119_0,2023-09-09T16:18:45.396Z,,0,3,,4399.136999713955,response,ISIC_0025128.JPG,5,ISIC_2864893.JPG,ISIC_2864893.JPG,false,0,keypress(z),500,863886.5,863886.2999997139,859470.445,859477.9000000954,859487.163,863895.813,8,400,20,,ISIC_0025128.JPG
break,html.Screen,4_119_1,2023-09-09T16:18:45.396Z,,0,,,NaN,,,,,,false,,,,863887.0999999046,863886.9000000954,,863886.5999999046,,863895.813,8,400,,,
break_continue,html.Screen,4_119_2,2023-09-09T16:18:45.397Z,,0,,,NaN,,,,,,false,,,,863887.4000000954,863887.2999997139,,863887.1999998093,,863895.813,8,400,,,
sequence,flow.Sequence,4_119,2023-09-09T16:18:45.397Z,,0,,,4400.136999713955,completion,,,,,false,,,,863887.5,863887.2999997139,859470.445,859477.9000000954,859487.163,863895.813,8,400,,,
trial,html.Screen,4_120_0,2023-09-09T16:18:51.402Z,,0,3,,5996.6870000000345,response,ISIC_0069250.JPG,5,ISIC_5297660.JPG,ISIC_0069250.JPG,false,1,keypress(m),500,869892.6999998093,869892.5,863878.982,863887.5999999046,863895.813,869907.343,8,400,21,,ISIC_5297660.JPG
break,html.Screen,4_120_1,2023-09-09T16:18:51.403Z,,0,,,NaN,,,,,,false,,,,869893.5,869893.2999997139,,869892.9000000954,,869907.343,8,400,,,
break_continue,html.Screen,4_120_2,2023-09-09T16:18:51.403Z,,0,,,NaN,,,,,,false,,,,869893.7999997139,869893.6999998093,,869893.5999999046,,869907.343,8,400,,,
sequence,flow.Sequence,4_120,2023-09-09T16:18:51.403Z,,0,,,5997.8869998093,completion,,,,,false,,,,869893.9000000954,869893.6999998093,863878.982,863887.5999999046,863895.813,869907.343,8,400,,,
trial,html.Screen,4_121_0,2023-09-09T16:18:58.209Z,,0,3,,6790.356999809272,response,ISIC_5998926.JPG,5,ISIC_4009870.JPG,ISIC_5998926.JPG,false,1,keypress(m),500,876697.9000000954,876697.6999998093,869890.759,869894,869907.343,876703.997,8,400,22,,ISIC_4009870.JPG
break,html.Screen,4_121_1,2023-09-09T16:18:58.209Z,,0,,,NaN,,,,,,false,,,,876698.2999997139,876698.0999999046,,876698,,876703.997,8,400,,,
break_continue,html.Screen,4_121_2,2023-09-09T16:18:58.209Z,,0,,,NaN,,,,,,false,,,,876698.5,876698.4000000954,,876698.4000000954,,876703.997,8,400,,,
sequence,flow.Sequence,4_121,2023-09-09T16:18:58.209Z,,0,,,6791.057000095374,completion,,,,,false,,,,876698.5,876698.4000000954,869890.759,869894,869907.343,876703.997,8,400,,,
trial,html.Screen,4_122_0,2023-09-09T16:19:03.018Z,,0,3,,4802.702999809291,response,ISIC_8642938.JPG,5,ISIC_0059390.JPG,ISIC_0059390.JPG,false,0,keypress(z),500,881506.9000000954,881506.6999998093,876687.305,876698.5999999046,876703.997,881513.284,8,400,23,,ISIC_8642938.JPG
break,html.Screen,4_122_1,2023-09-09T16:19:03.018Z,,0,,,NaN,,,,,,false,,,,881507.4000000954,881507.0999999046,,881506.9000000954,,881513.284,8,400,,,
break_continue,html.Screen,4_122_2,2023-09-09T16:19:03.018Z,,0,,,NaN,,,,,,false,,,,881507.5,881507.5,,881507.4000000954,,881513.284,8,400,,,
sequence,flow.Sequence,4_122,2023-09-09T16:19:03.018Z,,0,,,4803.503000000026,completion,,,,,false,,,,881507.6999998093,881507.5,876687.305,876698.5999999046,876703.997,881513.284,8,400,,,
trial,html.Screen,4_123_0,2023-09-09T16:19:07.596Z,,0,3,,4572.116000095382,response,ISIC_3737487.JPG,5,ISIC_0033213.JPG,ISIC_3737487.JPG,false,1,keypress(m),500,886085.5,886085.4000000954,881496.58,881507.6999998093,881513.284,886088.823,8,400,24,,ISIC_0033213.JPG
break,html.Screen,4_123_1,2023-09-09T16:19:07.597Z,,0,,,NaN,,,,,,false,,,,886086.4000000954,886086.1999998093,,886085.6999998093,,886088.823,8,400,,,
break_continue,html.Screen,4_123_2,2023-09-09T16:19:07.598Z,,0,,,NaN,,,,,,false,,,,886086.7999997139,886086.6999998093,,886086.5,,886088.823,8,400,,,
sequence,flow.Sequence,4_123,2023-09-09T16:19:07.598Z,,0,,,4573.41599980928,completion,,,,,false,,,,886086.9000000954,886086.6999998093,881496.58,881507.6999998093,881513.284,886088.823,8,400,,,
trial,html.Screen,4_124_0,2023-09-09T16:19:13.455Z,,0,3,,5855.37699980929,response,ISIC_7604870.JPG,5,ISIC_0028215.JPG,ISIC_0028215.JPG,false,0,keypress(z),500,891944.2999997139,891944.1999998093,886072.185,886086.9000000954,886088.823,891950.797,8,400,25,,ISIC_7604870.JPG
break,html.Screen,4_124_1,2023-09-09T16:19:13.456Z,,0,,,NaN,,,,,,false,,,,891945.0999999046,891944.9000000954,,891944.5999999046,,891950.797,8,400,,,
break_continue,html.Screen,4_124_2,2023-09-09T16:19:13.456Z,,0,,,NaN,,,,,,false,,,,891945.4000000954,891945.4000000954,,891945.0999999046,,891950.797,8,400,,,
sequence,flow.Sequence,4_124,2023-09-09T16:19:13.456Z,,0,,,5856.577000095393,completion,,,,,false,,,,891945.5999999046,891945.4000000954,886072.185,886086.9000000954,886088.823,891950.797,8,400,,,
trial,html.Screen,4_125_0,2023-09-09T16:19:20.131Z,,0,3,,6669.402999809245,response,ISIC_2256461.JPG,5,ISIC_0047022.JPG,ISIC_0047022.JPG,false,0,keypress(z),500,898620.2999997139,898620.1999998093,891933.666,891945.6999998093,891950.797,898630.076,8,400,26,,ISIC_2256461.JPG
break,html.Screen,4_125_1,2023-09-09T16:19:20.132Z,,0,,,NaN,,,,,,false,,,,898620.7999997139,898620.5999999046,,898620.5,,898630.076,8,400,,,
break_continue,html.Screen,4_125_2,2023-09-09T16:19:20.132Z,,0,,,NaN,,,,,,false,,,,898621.0999999046,898621,,898620.9000000954,,898630.076,8,400,,,
sequence,flow.Sequence,4_125,2023-09-09T16:19:20.132Z,,0,,,6670.2029999999795,completion,,,,,false,,,,898621.0999999046,898621,891933.666,891945.6999998093,891950.797,898630.076,8,400,,,
