sender,sender_type,sender_id,timestamp,meta,,blockNo,condition,duration,ended_on,img_left,img_reveal,img_right,loser,practice,response,response_action,selection_duration,time_commit,time_end,time_render,time_run,time_show,time_switch,total_blocks,total_trials,trialNo,url,winner
informed_consent,html.Screen,0,2023-09-09T16:05:23.039Z,"{""labjs_version"":""20.2.4"",""labjs_build"":{""flavor"":""development"",""commit"":""f5b4a49f956347addd546a832a3327688c2c0fef""},""location"":""https://labjs.felixhenninger.com/api/labjs_preview/index.html"",""userAgent"":""Mozilla/5.0 (Windows NT 10.0; Win64; x64) AppleWebKit/537.36 (KHTML, like Gecko) Chrome/116.0.0.0 Safari/537.36"",""platform"":""Win32"",""language"":""en-AU"",""locale"":""en-US"",""timeZone"":""America/Chicago"",""timezoneOffset"":300,""screen_width"":1680,""screen_height"":1050,""scroll_width"":1296,""scroll_height"":688,""window_innerWidth"":1296,""window_innerHeight"":736,""devicePixelRatio"":1}",,,,29307.015,response,,,,,,consent,click button,,29857.10000038147,29849,525.313,531.5,541.985,29865.703,,,,{},
Welcome,html.Screen,1,2023-09-09T16:05:32.234Z,,,,symmetry,9185.397000381468,response,,,,,,continue,click button,,39051.7000002861,39051.10000038147,29849.025,29857.400000095367,29865.703,39066.993,,,,,
trial,html.Screen,2_0_0,2023-09-09T16:05:38.572Z,,0,0,,6322.7070002861,response,ISIC_6997061.JPG,,ISIC_0069348.JPG,ISIC_0069348.JPG,true,0,keypress(z),500,45389.800000190735,45389.7000002861,39050.372,39051.90000009537,39066.993,45396.091,1,6,1,,ISIC_6997061.JPG
sequence,flow.Sequence,2_0,2023-09-09T16:05:38.572Z,,0,,,6322.7070002861,completion,,,,,true,,,,45390,45389.7000002861,39050.372,39051.90000009537,39066.993,45396.091,1,6,,,
trial,html.Screen,2_1_0,2023-09-09T16:05:41.230Z,,0,0,,2652.109000286102,response,ISIC_0009529.JPG,,ISIC_0057368.JPG,ISIC_0057368.JPG,true,0,keypress(z),500,48048.40000009537,48048.2000002861,45379.243,45390.10000038147,45396.091,48051.107,1,6,2,,ISIC_0009529.JPG
sequence,flow.Sequence,2_1,2023-09-09T16:05:41.231Z,,0,,,2652.109000286102,completion,,,,,true,,,,48048.5,48048.2000002861,45379.243,45390.10000038147,45396.091,48051.107,1,6,,,
trial,html.Screen,2_2_0,2023-09-09T16:05:43.856Z,,0,0,,2622.493000381466,response,ISIC_9758671.JPG,,ISIC_0064954.JPG,ISIC_0064954.JPG,true,0,keypress(z),500,50673.800000190735,50673.60000038147,48034.578,48048.60000038147,48051.107,50689.603,1,6,3,,ISIC_9758671.JPG
sequence,flow.Sequence,2_2,2023-09-09T16:05:43.856Z,,0,,,2622.493000381466,completion,,,,,true,,,,50673.90000009537,50673.60000038147,48034.578,48048.5,48051.107,50689.603,1,6,,,
trial,html.Screen,2_3_0,2023-09-09T16:05:46.321Z,,0,0,,2449.697000190732,response,ISIC_0000080.JPG,,ISIC_0005785.JPG,ISIC_0005785.JPG,true,0,keypress(z),500,53139.40000009537,53139.300000190735,50673.153,50674.10000038147,50689.603,53144.432,1,6,4,,ISIC_0000080.JPG
sequence,flow.Sequence,2_3,2023-09-09T16:05:46.322Z,,0,,,2449.697000190732,completion,,,,,true,,,,53139.7000002861,53139.300000190735,50673.153,50674.10000038147,50689.603,53144.432,1,6,,,
trial,html.Screen,2_4_0,2023-09-09T16:05:48.773Z,,0,0,,2446.668000381469,response,ISIC_5390060.JPG,,ISIC_7944028.JPG,ISIC_7944028.JPG,true,0,keypress(z),500,55591.40000009537,55591.10000038147,53127.916,53139.7000002861,53144.432,55599.2,1,6,5,,ISIC_5390060.JPG
sequence,flow.Sequence,2_4,2023-09-09T16:05:48.774Z,,0,,,2446.668000381469,completion,,,,,true,,,,55591.800000190735,55591.10000038147,53127.916,53139.7000002861,53144.432,55599.2,1,6,,,
trial,html.Screen,2_5_0,2023-09-09T16:05:51.304Z,,0,0,,2522.800000000003,response,ISIC_0794216.JPG,,ISIC_0010188.JPG,ISIC_0010188.JPG,true,0,keypress(z),500,58122.2000002861,58122,55582.587,55591.90000009537,55599.2,58137.436,1,6,6,,ISIC_0794216.JPG
sequence,flow.Sequence,2_5,2023-09-09T16:05:51.304Z,,0,,,2522.800000000003,completion,,,,,true,,,,58122.40000009537,58122,55582.587,55591.800000190735,55599.2,58137.436,1,6,,,
loop,flow.Loop,2,2023-09-09T16:05:51.304Z,,,,,19055.006999999998,completion,,,,,true,,,,58122.5,58122,39050.372,39051.90000009537,39066.993,58137.436,1,6,,,
exp_instructions,html.Screen,3,2023-09-09T16:06:24.733Z,,,,,33412.2640002861,response,,,,,,continue,keypress(Space),,91550.2000002861,91549.7000002861,58120.876,58122.60000038147,58137.436,91569.207,,,,,
trial,html.Screen,4_0_0,2023-09-09T16:06:30.848Z,,0,1,,6095.993000286107,response,ISIC_0046921.JPG,5,ISIC_0013844.JPG,ISIC_0046921.JPG,false,1,keypress(m),500,97665.40000009537,97665.2000002861,91552.411,91550.30000019073,91569.207,97681.145,8,400,1,,ISIC_0013844.JPG
break,html.Screen,4_0_1,2023-09-09T16:06:30.849Z,,0,,,NaN,,,,,,false,,,,97666.60000038147,97666.2000002861,,97665.60000038147,,97681.145,8,400,,,
break_continue,html.Screen,4_0_2,2023-09-09T16:06:30.850Z,,0,,,NaN,,,,,,false,,,,97667.2000002861,97667,,97666.7000002861,,97681.145,8,400,,,
sequence,flow.Sequence,4_0,2023-09-09T16:06:30.850Z,,0,,,6097.793000000005,completion,,,,,false,,,,97667.30000019073,97667,91552.411,91550.30000019073,91569.207,97681.145,8,400,,,
trial,html.Screen,4_1_0,2023-09-09T16:06:39.766Z,,0,1,,8901.955000381466,response,ISIC_0033664.JPG,5,ISIC_0028025.JPG,ISIC_0033664.JPG,false,1,keypress(m),500,106583.40000009537,106583.10000038147,97664.335,97667.5,97681.145,106598.431,8,400,2,,ISIC_0028025.JPG
break,html.Screen,4_1_1,2023-09-09T16:06:39.767Z,,0,,,NaN,,,,,,false,,,,106584.40000009537,106584.2000002861,,106583.7000002861,,106598.431,8,400,,,
break_continue,html.Screen,4_1_2,2023-09-09T16:06:39.767Z,,0,,,NaN,,,,,,false,,,,106584.60000038147,106584.60000038147,,106584.5,,106598.431,8,400,,,
sequence,flow.Sequence,4_1,2023-09-09T16:06:39.767Z,,0,,,8903.455000381466,completion,,,,,false,,,,106584.80000019073,106584.60000038147,97664.335,97667.40000009537,97681.145,106598.431,8,400,,,
trial,html.Screen,4_2_0,2023-09-09T16:06:44.793Z,,0,1,,5012.269000286105,response,ISIC_0069475.JPG,5,ISIC_7141153.JPG,ISIC_0069475.JPG,false,1,keypress(m),500,111610.80000019073,111610.7000002861,106581.714,106584.80000019073,106598.431,111624.8,8,400,3,,ISIC_7141153.JPG
break,html.Screen,4_2_1,2023-09-09T16:06:44.794Z,,0,,,NaN,,,,,,false,,,,111611.30000019073,111611.2000002861,,111611,,111624.8,8,400,,,
break_continue,html.Screen,4_2_2,2023-09-09T16:06:44.794Z,,0,,,NaN,,,,,,false,,,,111611.5,111611.40000009537,,111611.30000019073,,111624.8,8,400,,,
sequence,flow.Sequence,4_2,2023-09-09T16:06:44.794Z,,0,,,5012.969000095371,completion,,,,,false,,,,111611.5,111611.40000009537,106581.714,106584.80000019073,106598.431,111624.8,8,400,,,
trial,html.Screen,4_3_0,2023-09-09T16:06:52.078Z,,0,1,,7270.800000381467,response,ISIC_0007622.JPG,6,ISIC_0030660.JPG,ISIC_0007622.JPG,false,1,keypress(m),500,118896,118895.60000038147,111608.075,111611.60000038147,111624.8,118905.805,8,400,4,,ISIC_0030660.JPG
break,html.Screen,4_3_1,2023-09-09T16:06:52.080Z,,0,,,NaN,,,,,,false,,,,118897.10000038147,118896.80000019073,,118896.2000002861,,118905.805,8,400,,,
break_continue,html.Screen,4_3_2,2023-09-09T16:06:52.080Z,,0,,,NaN,,,,,,false,,,,118897.7000002861,118897.5,,118897.2000002861,,118905.805,8,400,,,
sequence,flow.Sequence,4_3,2023-09-09T16:06:52.080Z,,0,,,7272.699999999997,completion,,,,,false,,,,118897.90000009537,118897.5,111608.075,111611.60000038147,111624.8,118905.805,8,400,,,
trial,html.Screen,4_4_0,2023-09-09T16:07:00.850Z,,0,1,,8761.89500028611,response,ISIC_0066564.JPG,6,ISIC_0011095.JPG,ISIC_0011095.JPG,false,0,keypress(z),500,127668.10000038147,127667.7000002861,118889.134,118898.10000038147,118905.805,127672.801,8,400,5,,ISIC_0066564.JPG
break,html.Screen,4_4_1,2023-09-09T16:07:00.852Z,,0,,,NaN,,,,,,false,,,,127669.90000009537,127669.30000019073,,127668.5,,127672.801,8,400,,,
break_continue,html.Screen,4_4_2,2023-09-09T16:07:00.853Z,,0,,,NaN,,,,,,false,,,,127670.80000019073,127670.60000038147,,127670.10000038147,,127672.801,8,400,,,
sequence,flow.Sequence,4_4,2023-09-09T16:07:00.854Z,,0,,,8764.795000381477,completion,,,,,false,,,,127671.2000002861,127670.60000038147,118889.134,118898,118905.805,127672.801,8,400,,,
trial,html.Screen,4_5_0,2023-09-09T16:07:07.474Z,,0,1,,6616.3990002860955,response,ISIC_0033561.JPG,6,ISIC_9022005.JPG,ISIC_0033561.JPG,false,1,keypress(m),500,134289.5,134289.2000002861,127655.986,127671.40000009537,127672.801,134302.269,8,400,6,,ISIC_9022005.JPG
break,html.Screen,4_5_1,2023-09-09T16:07:07.475Z,,0,,,NaN,,,,,,false,,,,134291.2000002861,134290.7000002861,,134289.90000009537,,134302.269,8,400,,,
break_continue,html.Screen,4_5_2,2023-09-09T16:07:07.476Z,,0,,,NaN,,,,,,false,,,,134292.10000038147,134291.80000019073,,134291.5,,134302.269,8,400,,,
sequence,flow.Sequence,4_5,2023-09-09T16:07:07.476Z,,0,,,6618.999000190728,completion,,,,,false,,,,134292.30000019073,134291.80000019073,127655.986,127671.30000019073,127672.801,134302.269,8,400,,,
trial,html.Screen,4_6_0,2023-09-09T16:07:14.176Z,,0,1,,6689.131000095367,response,ISIC_0012865.JPG,5,ISIC_0000310.JPG,ISIC_0000310.JPG,false,0,keypress(z),500,140991.5,140991.40000009537,134285.621,134292.60000038147,134302.269,140998.653,8,400,7,,ISIC_0012865.JPG
break,html.Screen,4_6_1,2023-09-09T16:07:14.176Z,,0,,,NaN,,,,,,false,,,,140992.2000002861,140992,,140991.7000002861,,140998.653,8,400,,,
break_continue,html.Screen,4_6_2,2023-09-09T16:07:14.177Z,,0,,,NaN,,,,,,false,,,,140992.5,140992.5,,140992.40000009537,,140998.653,8,400,,,
sequence,flow.Sequence,4_6,2023-09-09T16:07:14.177Z,,0,,,6690.231,completion,,,,,false,,,,140992.60000038147,140992.5,134285.621,134292.40000009537,134302.269,140998.653,8,400,,,
trial,html.Screen,4_7_0,2023-09-09T16:07:20.838Z,,0,1,,6654.847000000009,response,ISIC_0032976.JPG,6,ISIC_0061829.JPG,ISIC_0061829.JPG,false,0,keypress(z),500,147653.90000009537,147653.5,140982.004,140992.80000019073,140998.653,147661.754,8,400,8,,ISIC_0032976.JPG
break,html.Screen,4_7_1,2023-09-09T16:07:20.840Z,,0,,,NaN,,,,,,false,,,,147655.5,147655,,147654.2000002861,,147661.754,8,400,,,
break_continue,html.Screen,4_7_2,2023-09-09T16:07:20.840Z,,0,,,NaN,,,,,,false,,,,147656.2000002861,147656,,147655.7000002861,,147661.754,8,400,,,
sequence,flow.Sequence,4_7,2023-09-09T16:07:20.841Z,,0,,,6657.347000000009,completion,,,,,false,,,,147656.5,147656,140982.004,140992.7000002861,140998.653,147661.754,8,400,,,
trial,html.Screen,4_8_0,2023-09-09T16:07:29.867Z,,0,1,,9021.146000095381,response,ISIC_5559730.JPG,6,ISIC_0012758.JPG,ISIC_5559730.JPG,false,1,keypress(m),500,156683,156682.90000009537,147645.045,147656.80000019073,147661.754,156695.871,8,400,9,,ISIC_0012758.JPG
break,html.Screen,4_8_1,2023-09-09T16:07:29.868Z,,0,,,NaN,,,,,,false,,,,156683.5,156683.40000009537,,156683.10000038147,,156695.871,8,400,,,
break_continue,html.Screen,4_8_2,2023-09-09T16:07:29.868Z,,0,,,NaN,,,,,,false,,,,156683.60000038147,156683.60000038147,,156683.5,,156695.871,8,400,,,
sequence,flow.Sequence,4_8,2023-09-09T16:07:29.868Z,,0,,,9021.846000381483,completion,,,,,false,,,,156683.80000019073,156683.60000038147,147645.045,147656.60000038147,147661.754,156695.871,8,400,,,
trial,html.Screen,4_9_0,2023-09-09T16:07:35.605Z,,0,1,,5724.628999999986,response,ISIC_0025499.JPG,6,ISIC_0029934.JPG,ISIC_0025499.JPG,false,1,keypress(m),500,162420.60000038147,162420.5,156679.267,156683.90000009537,156695.871,162423.678,8,400,10,,ISIC_0029934.JPG
break,html.Screen,4_9_1,2023-09-09T16:07:35.605Z,,0,,,NaN,,,,,,false,,,,162421.10000038147,162421,,162420.7000002861,,162423.678,8,400,,,
break_continue,html.Screen,4_9_2,2023-09-09T16:07:35.606Z,,0,,,NaN,,,,,,false,,,,162421.40000009537,162421.40000009537,,162421.2000002861,,162423.678,8,400,,,
sequence,flow.Sequence,4_9,2023-09-09T16:07:35.606Z,,0,,,5725.529000095354,completion,,,,,false,,,,162421.5,162421.40000009537,156679.267,156683.90000009537,156695.871,162423.678,8,400,,,
trial,html.Screen,4_10_0,2023-09-09T16:07:43.224Z,,0,1,,7615.522000286088,response,ISIC_7441957.JPG,5,ISIC_0679781.JPG,ISIC_7441957.JPG,false,1,keypress(m),500,170039.5,170039.2000002861,162407.054,162421.60000038147,162423.678,170055.216,8,400,11,,ISIC_0679781.JPG
break,html.Screen,4_10_1,2023-09-09T16:07:43.224Z,,0,,,NaN,,,,,,false,,,,170039.90000009537,170039.80000019073,,170039.60000038147,,170055.216,8,400,,,
break_continue,html.Screen,4_10_2,2023-09-09T16:07:43.224Z,,0,,,NaN,,,,,,false,,,,170040.30000019073,170040.30000019073,,170040.10000038147,,170055.216,8,400,,,
sequence,flow.Sequence,4_10,2023-09-09T16:07:43.225Z,,0,,,7616.62200019072,completion,,,,,false,,,,170040.5,170040.30000019073,162407.054,162421.60000038147,162423.678,170055.216,8,400,,,
trial,html.Screen,4_11_0,2023-09-09T16:07:49.641Z,,0,1,,6401.884000381484,response,ISIC_6856140.JPG,5,ISIC_8523143.JPG,ISIC_6856140.JPG,false,1,keypress(m),500,176457.40000009537,176457.10000038147,170038.611,170040.5,170055.216,176467.708,8,400,12,,ISIC_8523143.JPG
break,html.Screen,4_11_1,2023-09-09T16:07:49.642Z,,0,,,NaN,,,,,,false,,,,176458.10000038147,176457.90000009537,,176457.5,,176467.708,8,400,,,
break_continue,html.Screen,4_11_2,2023-09-09T16:07:49.643Z,,0,,,NaN,,,,,,false,,,,176458.5,176458.40000009537,,176458.2000002861,,176467.708,8,400,,,
sequence,flow.Sequence,4_11,2023-09-09T16:07:49.643Z,,0,,,6403.184000095382,completion,,,,,false,,,,176458.60000038147,176458.40000009537,170038.611,170040.5,170055.216,176467.708,8,400,,,
trial,html.Screen,4_12_0,2023-09-09T16:07:56.397Z,,0,1,,6745.492000286089,response,ISIC_8655206.JPG,5,ISIC_9300579.JPG,ISIC_9300579.JPG,false,0,keypress(z),500,183213.30000019073,183213.2000002861,176451.013,176458.7000002861,176467.708,183214.171,8,400,13,,ISIC_8655206.JPG
break,html.Screen,4_12_1,2023-09-09T16:07:56.398Z,,0,,,NaN,,,,,,false,,,,183214,183213.7000002861,,183213.5,,183214.171,8,400,,,
break_continue,html.Screen,4_12_2,2023-09-09T16:07:56.399Z,,0,,,NaN,,,,,,false,,,,183214.40000009537,183214.30000019073,,183214,,183214.171,8,400,,,
sequence,flow.Sequence,4_12,2023-09-09T16:07:56.399Z,,0,,,6746.592000190722,completion,,,,,false,,,,183214.60000038147,183214.30000019073,176451.013,176458.7000002861,176467.708,183214.171,8,400,,,
trial,html.Screen,4_13_0,2023-09-09T16:08:03.393Z,,0,1,,6994.328999999998,response,ISIC_0032836.JPG,4,ISIC_1566931.JPG,ISIC_1566931.JPG,false,0,keypress(z),500,190208.60000038147,190208.5,183197.467,183214.60000038147,183214.171,190211.05,8,400,14,,ISIC_0032836.JPG
break,html.Screen,4_13_1,2023-09-09T16:08:03.393Z,,0,,,NaN,,,,,,false,,,,190209.2000002861,190209,,190208.80000019073,,190211.05,8,400,,,
break_continue,html.Screen,4_13_2,2023-09-09T16:08:03.393Z,,0,,,NaN,,,,,,false,,,,190209.30000019073,190209.30000019073,,190209.2000002861,,190211.05,8,400,,,
sequence,flow.Sequence,4_13,2023-09-09T16:08:03.393Z,,0,,,6995.129000190733,completion,,,,,false,,,,190209.40000009537,190209.30000019073,183197.467,183214.60000038147,183214.171,190211.05,8,400,,,
trial,html.Screen,4_14_0,2023-09-09T16:08:09.996Z,,0,1,,6599.850000095379,response,ISIC_7581199.JPG,6,ISIC_7368239.JPG,ISIC_7581199.JPG,false,1,keypress(m),500,196811,196810.90000009537,190194.349,190209.5,190211.05,196823.929,8,400,15,,ISIC_7368239.JPG
break,html.Screen,4_14_1,2023-09-09T16:08:09.997Z,,0,,,NaN,,,,,,false,,,,196811.5,196811.40000009537,,196811.10000038147,,196823.929,8,400,,,
break_continue,html.Screen,4_14_2,2023-09-09T16:08:09.997Z,,0,,,NaN,,,,,,false,,,,196811.80000019073,196811.7000002861,,196811.60000038147,,196823.929,8,400,,,
sequence,flow.Sequence,4_14,2023-09-09T16:08:09.997Z,,0,,,6600.650000286114,completion,,,,,false,,,,196811.80000019073,196811.7000002861,190194.349,190209.5,190211.05,196823.929,8,400,,,
trial,html.Screen,4_15_0,2023-09-09T16:08:14.432Z,,0,1,,4422.671000381466,response,ISIC_6178099.JPG,5,ISIC_5393367.JPG,ISIC_6178099.JPG,false,1,keypress(m),500,201246.7000002861,201246.60000038147,196807.254,196811.80000019073,196823.929,201249.234,8,400,16,,ISIC_5393367.JPG
break,html.Screen,4_15_1,2023-09-09T16:08:14.432Z,,0,,,NaN,,,,,,false,,,,201247.30000019073,201247,,201246.80000019073,,201249.234,8,400,,,
break_continue,html.Screen,4_15_2,2023-09-09T16:08:14.433Z,,0,,,NaN,,,,,,false,,,,201247.5,201247.40000009537,,201247.30000019073,,201249.234,8,400,,,
sequence,flow.Sequence,4_15,2023-09-09T16:08:14.433Z,,0,,,4423.471000095364,completion,,,,,false,,,,201247.5,201247.40000009537,196807.254,196811.80000019073,196823.929,201249.234,8,400,,,
trial,html.Screen,4_16_0,2023-09-09T16:08:20.386Z,,0,1,,5951.666000095371,response,ISIC_8368872.JPG,5,ISIC_0071133.JPG,ISIC_0071133.JPG,false,0,keypress(z),500,207201.10000038147,207200.90000009537,201232.529,201247.60000038147,201249.234,207210.989,8,400,17,,ISIC_8368872.JPG
break,html.Screen,4_16_1,2023-09-09T16:08:20.387Z,,0,,,NaN,,,,,,false,,,,207201.80000019073,207201.60000038147,,207201.30000019073,,207210.989,8,400,,,
break_continue,html.Screen,4_16_2,2023-09-09T16:08:20.387Z,,0,,,NaN,,,,,,false,,,,207202,207202,,207201.80000019073,,207210.989,8,400,,,
sequence,flow.Sequence,4_16,2023-09-09T16:08:20.387Z,,0,,,5952.766000000003,completion,,,,,false,,,,207202.2000002861,207202,201232.529,201247.60000038147,201249.234,207210.989,8,400,,,
trial,html.Screen,4_17_0,2023-09-09T16:08:28.808Z,,0,1,,8411.7110002861,response,ISIC_3856233.JPG,5,ISIC_0014171.JPG,ISIC_0014171.JPG,false,0,keypress(z),500,215622.80000019073,215622.7000002861,207194.15,207202.2000002861,207210.989,215627.212,8,400,18,,ISIC_3856233.JPG
break,html.Screen,4_17_1,2023-09-09T16:08:28.809Z,,0,,,NaN,,,,,,false,,,,215623.5,215623.2000002861,,215622.90000009537,,215627.212,8,400,,,
break_continue,html.Screen,4_17_2,2023-09-09T16:08:28.809Z,,0,,,NaN,,,,,,false,,,,215623.80000019073,215623.7000002861,,215623.60000038147,,215627.212,8,400,,,
sequence,flow.Sequence,4_17,2023-09-09T16:08:28.809Z,,0,,,8412.7110002861,completion,,,,,false,,,,215623.90000009537,215623.7000002861,207194.15,207202.2000002861,207210.989,215627.212,8,400,,,
trial,html.Screen,4_18_0,2023-09-09T16:08:34.219Z,,0,1,,5406.38800038147,response,ISIC_3478473.JPG,4,ISIC_1327515.JPG,ISIC_3478473.JPG,false,1,keypress(m),500,221033.7000002861,221033.60000038147,215610.524,215623.90000009537,215627.212,221037.784,8,400,19,,ISIC_1327515.JPG
break,html.Screen,4_18_1,2023-09-09T16:08:34.220Z,,0,,,NaN,,,,,,false,,,,221034.40000009537,221034.10000038147,,221033.80000019073,,221037.784,8,400,,,
break_continue,html.Screen,4_18_2,2023-09-09T16:08:34.220Z,,0,,,NaN,,,,,,false,,,,221034.60000038147,221034.60000038147,,221034.40000009537,,221037.784,8,400,,,
sequence,flow.Sequence,4_18,2023-09-09T16:08:34.220Z,,0,,,5407.38800038147,completion,,,,,false,,,,221034.7000002861,221034.60000038147,215610.524,215623.90000009537,215627.212,221037.784,8,400,,,
trial,html.Screen,4_19_0,2023-09-09T16:08:41.181Z,,0,1,,6958.215999999986,response,ISIC_2378211.JPG,5,ISIC_8699796.JPG,ISIC_8699796.JPG,false,0,keypress(z),500,227996.2000002861,227996,221021.053,221034.80000019073,221037.784,228001.33,8,400,20,,ISIC_2378211.JPG
break,html.Screen,4_19_1,2023-09-09T16:08:41.182Z,,0,,,NaN,,,,,,false,,,,227996.7000002861,227996.5,,227996.2000002861,,228001.33,8,400,,,
break_continue,html.Screen,4_19_2,2023-09-09T16:08:41.182Z,,0,,,NaN,,,,,,false,,,,227996.90000009537,227996.7000002861,,227996.7000002861,,228001.33,8,400,,,
sequence,flow.Sequence,4_19,2023-09-09T16:08:41.182Z,,0,,,6958.916000286088,completion,,,,,false,,,,227996.90000009537,227996.7000002861,221021.053,221034.7000002861,221037.784,228001.33,8,400,,,
trial,html.Screen,4_20_0,2023-09-09T16:08:48.064Z,,0,1,,6876.870000286115,response,ISIC_3561065.JPG,5,ISIC_9546876.JPG,ISIC_9546876.JPG,false,0,keypress(z),500,234878.40000009537,234878.2000002861,227984.591,227997,228001.33,234881.335,8,400,21,,ISIC_3561065.JPG
break,html.Screen,4_20_1,2023-09-09T16:08:48.064Z,,0,,,NaN,,,,,,false,,,,234879.10000038147,234878.80000019073,,234878.40000009537,,234881.335,8,400,,,
break_continue,html.Screen,4_20_2,2023-09-09T16:08:48.065Z,,0,,,NaN,,,,,,false,,,,234879.40000009537,234879.30000019073,,234879.2000002861,,234881.335,8,400,,,
sequence,flow.Sequence,4_20,2023-09-09T16:08:48.065Z,,0,,,6877.970000190748,completion,,,,,false,,,,234879.60000038147,234879.30000019073,227984.591,227997,228001.33,234881.335,8,400,,,
trial,html.Screen,4_21_0,2023-09-09T16:08:55.314Z,,0,1,,7247.165000000008,response,ISIC_4791589.JPG,5,ISIC_9688119.JPG,ISIC_9688119.JPG,false,0,keypress(z),500,242128.60000038147,242128.5,234864.777,234879.60000038147,234881.335,242145.482,8,400,22,,ISIC_4791589.JPG
break,html.Screen,4_21_1,2023-09-09T16:08:55.314Z,,0,,,NaN,,,,,,false,,,,242129.10000038147,242129,,242128.80000019073,,242145.482,8,400,,,
break_continue,html.Screen,4_21_2,2023-09-09T16:08:55.315Z,,0,,,NaN,,,,,,false,,,,242129.5,242129.40000009537,,242129.2000002861,,242145.482,8,400,,,
sequence,flow.Sequence,4_21,2023-09-09T16:08:55.315Z,,0,,,7248.065000095376,completion,,,,,false,,,,242129.60000038147,242129.40000009537,234864.777,234879.60000038147,234881.335,242145.482,8,400,,,
trial,html.Screen,4_22_0,2023-09-09T16:09:00.588Z,,0,1,,5256.918000095378,response,ISIC_0011793.JPG,6,ISIC_0068427.JPG,ISIC_0068427.JPG,false,0,keypress(z),500,247402.5,247402.40000009537,242128.969,242129.60000038147,242145.482,247405.711,8,400,23,,ISIC_0011793.JPG
break,html.Screen,4_22_1,2023-09-09T16:09:00.588Z,,0,,,NaN,,,,,,false,,,,247403.10000038147,247402.90000009537,,247402.60000038147,,247405.711,8,400,,,
break_continue,html.Screen,4_22_2,2023-09-09T16:09:00.589Z,,0,,,NaN,,,,,,false,,,,247403.40000009537,247403.40000009537,,247403.2000002861,,247405.711,8,400,,,
sequence,flow.Sequence,4_22,2023-09-09T16:09:00.589Z,,0,,,5257.918000095378,completion,,,,,false,,,,247403.5,247403.40000009537,242128.969,242129.60000038147,242145.482,247405.711,8,400,,,
trial,html.Screen,4_23_0,2023-09-09T16:09:06.543Z,,0,1,,5951.28899999999,response,ISIC_7592920.JPG,5,ISIC_9879693.JPG,ISIC_9879693.JPG,false,0,keypress(z),500,253357.10000038147,253357,247389.05,247403.60000038147,247405.711,253367.374,8,400,24,,ISIC_7592920.JPG
break,html.Screen,4_23_1,2023-09-09T16:09:06.544Z,,0,,,NaN,,,,,,false,,,,253357.80000019073,253357.7000002861,,253357.30000019073,,253367.374,8,400,,,
break_continue,html.Screen,4_23_2,2023-09-09T16:09:06.544Z,,0,,,NaN,,,,,,false,,,,253358.10000038147,253358.10000038147,,253357.90000009537,,253367.374,8,400,,,
sequence,flow.Sequence,4_23,2023-09-09T16:09:06.545Z,,0,,,5952.3890003814595,completion,,,,,false,,,,253358.2000002861,253358.10000038147,247389.05,247403.60000038147,247405.711,253367.374,8,400,,,
trial,html.Screen,4_24_0,2023-09-09T16:09:11.447Z,,0,1,,4893.026000095357,response,ISIC_0016080.JPG,5,ISIC_0033063.JPG,ISIC_0033063.JPG,false,0,keypress(z),500,258260.5,258260.40000009537,253350.725,253358.40000009537,253367.374,258276.914,8,400,25,,ISIC_0016080.JPG
break,html.Screen,4_24_1,2023-09-09T16:09:11.447Z,,0,,,NaN,,,,,,false,,,,258261.2000002861,258261,,258260.7000002861,,258276.914,8,400,,,
break_continue,html.Screen,4_24_2,2023-09-09T16:09:11.448Z,,0,,,NaN,,,,,,false,,,,258261.5,258261.40000009537,,258261.2000002861,,258276.914,8,400,,,
sequence,flow.Sequence,4_24,2023-09-09T16:09:11.448Z,,0,,,4894.026000095357,completion,,,,,false,,,,258261.60000038147,258261.40000009537,253350.725,253358.40000009537,253367.374,258276.914,8,400,,,
trial,html.Screen,4_25_0,2023-09-09T16:09:17.087Z,,0,1,,5623.886000190745,response,ISIC_3198111.JPG,5,ISIC_5179884.JPG,ISIC_5179884.JPG,false,0,keypress(z),500,263900.90000009537,263900.80000019073,258260.17,258261.60000038147,258276.914,263904.466,8,400,26,,ISIC_3198111.JPG
break,html.Screen,4_25_1,2023-09-09T16:09:17.088Z,,0,,,NaN,,,,,,false,,,,263901.5,263901.30000019073,,263901,,263904.466,8,400,,,
break_continue,html.Screen,4_25_2,2023-09-09T16:09:17.088Z,,0,,,NaN,,,,,,false,,,,263901.80000019073,263901.7000002861,,263901.60000038147,,263904.466,8,400,,,
sequence,flow.Sequence,4_25,2023-09-09T16:09:17.088Z,,0,,,5624.7860002861125,completion,,,,,false,,,,263901.80000019073,263901.7000002861,258260.17,258261.60000038147,258276.914,263904.466,8,400,,,
trial,html.Screen,4_26_0,2023-09-09T16:09:22.418Z,,0,1,,5327.234000286087,response,ISIC_5358548.JPG,6,ISIC_6400232.JPG,ISIC_6400232.JPG,false,0,keypress(z),500,269231.90000009537,269231.7000002861,263888.02,263901.90000009537,263904.466,269248.235,8,400,27,,ISIC_5358548.JPG
break,html.Screen,4_26_1,2023-09-09T16:09:22.419Z,,0,,,NaN,,,,,,false,,,,269232.5,269232.40000009537,,269232.10000038147,,269248.235,8,400,,,
break_continue,html.Screen,4_26_2,2023-09-09T16:09:22.419Z,,0,,,NaN,,,,,,false,,,,269232.80000019073,269232.60000038147,,269232.5,,269248.235,8,400,,,
sequence,flow.Sequence,4_26,2023-09-09T16:09:22.419Z,,0,,,5328.134000381455,completion,,,,,false,,,,269232.90000009537,269232.60000038147,263888.02,263901.90000009537,263904.466,269248.235,8,400,,,
trial,html.Screen,4_27_0,2023-09-09T16:09:30.025Z,,0,1,,7590.765000000014,response,ISIC_2639144.JPG,5,ISIC_3737487.JPG,ISIC_2639144.JPG,false,1,keypress(m),500,276839.10000038147,276839,269231.705,269233,269248.235,276846.36,8,400,28,,ISIC_3737487.JPG
break,html.Screen,4_27_1,2023-09-09T16:09:30.026Z,,0,,,NaN,,,,,,false,,,,276839.60000038147,276839.5,,276839.2000002861,,276846.36,8,400,,,
break_continue,html.Screen,4_27_2,2023-09-09T16:09:30.026Z,,0,,,NaN,,,,,,false,,,,276839.80000019073,276839.80000019073,,276839.7000002861,,276846.36,8,400,,,
sequence,flow.Sequence,4_27,2023-09-09T16:09:30.026Z,,0,,,7591.565000190749,completion,,,,,false,,,,276840,276839.80000019073,269231.705,269233,269248.235,276846.36,8,400,,,
trial,html.Screen,4_28_0,2023-09-09T16:09:34.948Z,,0,1,,4914.840000286116,response,ISIC_3578186.JPG,5,ISIC_6401657.JPG,ISIC_6401657.JPG,false,0,keypress(z),500,281761.30000019073,281761.2000002861,276829.656,276840.10000038147,276846.36,281772.588,8,400,29,,ISIC_3578186.JPG
break,html.Screen,4_28_1,2023-09-09T16:09:34.948Z,,0,,,NaN,,,,,,false,,,,281761.90000009537,281761.7000002861,,281761.40000009537,,281772.588,8,400,,,
break_continue,html.Screen,4_28_2,2023-09-09T16:09:34.949Z,,0,,,NaN,,,,,,false,,,,281762.30000019073,281762.2000002861,,281762,,281772.588,8,400,,,
sequence,flow.Sequence,4_28,2023-09-09T16:09:34.949Z,,0,,,4915.840000286116,completion,,,,,false,,,,281762.40000009537,281762.2000002861,276829.656,276840.10000038147,276846.36,281772.588,8,400,,,
trial,html.Screen,4_29_0,2023-09-09T16:09:41.014Z,,0,1,,6054.812000095379,response,ISIC_8969855.JPG,5,ISIC_5622348.JPG,ISIC_5622348.JPG,false,0,keypress(z),500,287827.5,287827.40000009537,281755.918,281762.5,281772.588,287834.548,8,400,30,,ISIC_8969855.JPG
break,html.Screen,4_29_1,2023-09-09T16:09:41.014Z,,0,,,NaN,,,,,,false,,,,287828,287827.90000009537,,287827.60000038147,,287834.548,8,400,,,
break_continue,html.Screen,4_29_2,2023-09-09T16:09:41.014Z,,0,,,NaN,,,,,,false,,,,287828.10000038147,287828.10000038147,,287828,,287834.548,8,400,,,
sequence,flow.Sequence,4_29,2023-09-09T16:09:41.014Z,,0,,,6055.512000381481,completion,,,,,false,,,,287828.2000002861,287828.10000038147,281755.918,281762.40000009537,281772.588,287834.548,8,400,,,
trial,html.Screen,4_30_0,2023-09-09T16:09:47.786Z,,0,1,,6764.6520002860925,response,ISIC_7196249.JPG,5,ISIC_0030554.JPG,ISIC_0030554.JPG,false,0,keypress(z),500,294599.60000038147,294599.2000002861,287817.708,287828.30000019073,287834.548,294614.288,8,400,31,,ISIC_7196249.JPG
break,html.Screen,4_30_1,2023-09-09T16:09:47.788Z,,0,,,NaN,,,,,,false,,,,294601.90000009537,294601.40000009537,,294600,,294614.288,8,400,,,
break_continue,html.Screen,4_30_2,2023-09-09T16:09:47.789Z,,0,,,NaN,,,,,,false,,,,294602.90000009537,294602.60000038147,,294602.30000019073,,294614.288,8,400,,,
sequence,flow.Sequence,4_30,2023-09-09T16:09:47.789Z,,0,,,6768.05200038146,completion,,,,,false,,,,294603.2000002861,294602.60000038147,287817.708,287828.30000019073,287834.548,294614.288,8,400,,,
trial,html.Screen,4_31_0,2023-09-09T16:09:51.953Z,,0,1,,4152.312000381469,response,ISIC_9588065.JPG,4,ISIC_0060629.JPG,ISIC_0060629.JPG,false,0,keypress(z),500,298766.80000019073,298766.60000038147,294597.55,294603.40000009537,294614.288,298772.432,8,400,32,,ISIC_9588065.JPG
break,html.Screen,4_31_1,2023-09-09T16:09:51.954Z,,0,,,NaN,,,,,,false,,,,298767.30000019073,298767.2000002861,,298766.90000009537,,298772.432,8,400,,,
break_continue,html.Screen,4_31_2,2023-09-09T16:09:51.954Z,,0,,,NaN,,,,,,false,,,,298767.5,298767.5,,298767.40000009537,,298772.432,8,400,,,
sequence,flow.Sequence,4_31,2023-09-09T16:09:51.954Z,,0,,,4153.2119999999995,completion,,,,,false,,,,298767.7000002861,298767.5,294597.55,294603.40000009537,294614.288,298772.432,8,400,,,
trial,html.Screen,4_32_0,2023-09-09T16:09:57.268Z,,0,1,,5309.568000000028,response,ISIC_2795397.JPG,5,ISIC_0011099.JPG,ISIC_0011099.JPG,false,0,keypress(z),500,304082,304082,298755.815,298767.7000002861,298772.432,304082.686,8,400,33,,ISIC_2795397.JPG
break,html.Screen,4_32_1,2023-09-09T16:09:57.269Z,,0,,,NaN,,,,,,false,,,,304082.5,304082.30000019073,,304082.10000038147,,304082.686,8,400,,,
break_continue,html.Screen,4_32_2,2023-09-09T16:09:57.269Z,,0,,,NaN,,,,,,false,,,,304083,304082.90000009537,,304082.7000002861,,304082.686,8,400,,,
sequence,flow.Sequence,4_32,2023-09-09T16:09:57.269Z,,0,,,5310.468000095396,completion,,,,,false,,,,304083.10000038147,304082.90000009537,298755.815,298767.7000002861,298772.432,304082.686,8,400,,,
trial,html.Screen,4_33_0,2023-09-09T16:10:04.456Z,,0,1,,7185.414000381483,response,ISIC_1497525.JPG,4,ISIC_8562820.JPG,ISIC_8562820.JPG,false,0,keypress(z),500,311268.30000019073,311268.10000038147,304066.128,304083.2000002861,304082.686,311280.111,8,400,34,,ISIC_1497525.JPG
break,html.Screen,4_33_1,2023-09-09T16:10:04.456Z,,0,,,NaN,,,,,,false,,,,311268.90000009537,311268.60000038147,,311268.40000009537,,311280.111,8,400,,,
break_continue,html.Screen,4_33_2,2023-09-09T16:10:04.456Z,,0,,,NaN,,,,,,false,,,,311269.2000002861,311269.10000038147,,311268.90000009537,,311280.111,8,400,,,
sequence,flow.Sequence,4_33,2023-09-09T16:10:04.457Z,,0,,,7186.414000381483,completion,,,,,false,,,,311269.30000019073,311269.10000038147,304066.128,304083.10000038147,304082.686,311280.111,8,400,,,
trial,html.Screen,4_34_0,2023-09-09T16:10:08.955Z,,0,1,,4487.1890001907595,response,ISIC_0004089.JPG,5,ISIC_5539001.JPG,ISIC_5539001.JPG,false,0,keypress(z),500,315767.40000009537,315767.30000019073,311263.499,311269.30000019073,311280.111,315772.093,8,400,35,,ISIC_0004089.JPG
break,html.Screen,4_34_1,2023-09-09T16:10:08.955Z,,0,,,NaN,,,,,,false,,,,315768,315767.80000019073,,315767.5,,315772.093,8,400,,,
break_continue,html.Screen,4_34_2,2023-09-09T16:10:08.956Z,,0,,,NaN,,,,,,false,,,,315768.30000019073,315768.30000019073,,315768.10000038147,,315772.093,8,400,,,
sequence,flow.Sequence,4_34,2023-09-09T16:10:08.956Z,,0,,,4488.1890001907595,completion,,,,,false,,,,315768.40000009537,315768.30000019073,311263.499,311269.30000019073,311280.111,315772.093,8,400,,,
trial,html.Screen,4_35_0,2023-09-09T16:10:17.982Z,,0,1,,9022.107000286109,response,ISIC_0000054.JPG,5,ISIC_1985569.JPG,ISIC_0000054.JPG,false,1,keypress(m),500,324794.40000009537,324794.2000002861,315755.426,315768.5,315772.093,324806.434,8,400,36,,ISIC_1985569.JPG
break,html.Screen,4_35_1,2023-09-09T16:10:17.982Z,,0,,,NaN,,,,,,false,,,,324794.80000019073,324794.7000002861,,324794.5,,324806.434,8,400,,,
break_continue,html.Screen,4_35_2,2023-09-09T16:10:17.982Z,,0,,,NaN,,,,,,false,,,,324794.90000009537,324794.90000009537,,324794.80000019073,,324806.434,8,400,,,
sequence,flow.Sequence,4_35,2023-09-09T16:10:17.982Z,,0,,,9022.807000095374,completion,,,,,false,,,,324795,324794.90000009537,315755.426,315768.40000009537,315772.093,324806.434,8,400,,,
trial,html.Screen,4_36_0,2023-09-09T16:10:24.288Z,,0,1,,6294.3660001907265,response,ISIC_0029630.JPG,5,ISIC_3487151.JPG,ISIC_0029630.JPG,false,1,keypress(m),500,331101,331100.80000019073,324789.779,324795.10000038147,324806.434,331101.958,8,400,37,,ISIC_3487151.JPG
break,html.Screen,4_36_1,2023-09-09T16:10:24.289Z,,0,,,NaN,,,,,,false,,,,331101.7000002861,331101.60000038147,,331101.2000002861,,331101.958,8,400,,,
break_continue,html.Screen,4_36_2,2023-09-09T16:10:24.289Z,,0,,,NaN,,,,,,false,,,,331102,331102,,331101.80000019073,,331101.958,8,400,,,
sequence,flow.Sequence,4_36,2023-09-09T16:10:24.289Z,,0,,,6295.565999999992,completion,,,,,false,,,,331102.10000038147,331102,324789.779,324795.10000038147,324806.434,331101.958,8,400,,,
trial,html.Screen,4_37_0,2023-09-09T16:10:30.131Z,,0,1,,5841.642000381486,response,ISIC_0013165.JPG,5,ISIC_0059808.JPG,ISIC_0013165.JPG,false,1,keypress(m),500,336943.7000002861,336943.60000038147,331085.341,331102.2000002861,331101.958,336946.658,8,400,38,,ISIC_0059808.JPG
break,html.Screen,4_37_1,2023-09-09T16:10:30.132Z,,0,,,NaN,,,,,,false,,,,336944.40000009537,336944.2000002861,,336943.90000009537,,336946.658,8,400,,,
break_continue,html.Screen,4_37_2,2023-09-09T16:10:30.132Z,,0,,,NaN,,,,,,false,,,,336944.60000038147,336944.60000038147,,336944.5,,336946.658,8,400,,,
sequence,flow.Sequence,4_37,2023-09-09T16:10:30.132Z,,0,,,5842.642000381486,completion,,,,,false,,,,336944.7000002861,336944.60000038147,331085.341,331102.2000002861,331101.958,336946.658,8,400,,,
trial,html.Screen,4_38_0,2023-09-09T16:10:35.133Z,,0,1,,4999.242000095372,response,ISIC_0012721.JPG,5,ISIC_0064427.JPG,ISIC_0064427.JPG,false,0,keypress(z),500,341946.10000038147,341945.90000009537,336929.957,336944.80000019073,336946.658,341956.54,8,400,39,,ISIC_0012721.JPG
break,html.Screen,4_38_1,2023-09-09T16:10:35.134Z,,0,,,NaN,,,,,,false,,,,341946.5,341946.40000009537,,341946.2000002861,,341956.54,8,400,,,
break_continue,html.Screen,4_38_2,2023-09-09T16:10:35.134Z,,0,,,NaN,,,,,,false,,,,341946.80000019073,341946.7000002861,,341946.60000038147,,341956.54,8,400,,,
sequence,flow.Sequence,4_38,2023-09-09T16:10:35.134Z,,0,,,5000.0420002861065,completion,,,,,false,,,,341946.80000019073,341946.7000002861,336929.957,336944.80000019073,336946.658,341956.54,8,400,,,
trial,html.Screen,4_39_0,2023-09-09T16:10:40.370Z,,0,1,,5225.760000190756,response,ISIC_4868926.JPG,5,ISIC_0028969.JPG,ISIC_0028969.JPG,false,0,keypress(z),500,347182.5,347182.30000019073,341939.725,341946.90000009537,341956.54,347183.219,8,400,40,,ISIC_4868926.JPG
break,html.Screen,4_39_1,2023-09-09T16:10:40.371Z,,0,,,NaN,,,,,,false,,,,347183.30000019073,347182.90000009537,,347182.5,,347183.219,8,400,,,
break_continue,html.Screen,4_39_2,2023-09-09T16:10:40.371Z,,0,,,NaN,,,,,,false,,,,347183.80000019073,347183.60000038147,,347183.5,,347183.219,8,400,,,
sequence,flow.Sequence,4_39,2023-09-09T16:10:40.371Z,,0,,,5227.060000381491,completion,,,,,false,,,,347183.90000009537,347183.60000038147,341939.725,341946.90000009537,341956.54,347183.219,8,400,,,
trial,html.Screen,4_40_0,2023-09-09T16:10:46.884Z,,0,1,,6513.781000000017,response,ISIC_0519719.JPG,5,ISIC_0032369.JPG,ISIC_0519719.JPG,false,1,keypress(m),500,353697.10000038147,353697,347166.613,347183.90000009537,347183.219,353712.759,8,400,41,,ISIC_0032369.JPG
break,html.Screen,4_40_1,2023-09-09T16:10:46.885Z,,0,,,NaN,,,,,,false,,,,353697.60000038147,353697.40000009537,,353697.2000002861,,353712.759,8,400,,,
break_continue,html.Screen,4_40_2,2023-09-09T16:10:46.885Z,,0,,,NaN,,,,,,false,,,,353697.7000002861,353697.60000038147,,353697.60000038147,,353712.759,8,400,,,
sequence,flow.Sequence,4_40,2023-09-09T16:10:46.885Z,,0,,,6514.381000381487,completion,,,,,false,,,,353697.7000002861,353697.60000038147,347166.613,347183.90000009537,347183.219,353712.759,8,400,,,
trial,html.Screen,4_41_0,2023-09-09T16:10:53.255Z,,0,1,,6354.74099999998,response,ISIC_0011260.JPG,6,ISIC_0072553.JPG,ISIC_0011260.JPG,false,1,keypress(m),500,360067.7000002861,360067.5,353695.979,353697.90000009537,353712.759,360075.027,8,400,42,,ISIC_0072553.JPG
break,html.Screen,4_41_1,2023-09-09T16:10:53.256Z,,0,,,NaN,,,,,,false,,,,360068.60000038147,360068.30000019073,,360067.90000009537,,360075.027,8,400,,,
break_continue,html.Screen,4_41_2,2023-09-09T16:10:53.256Z,,0,,,NaN,,,,,,false,,,,360068.90000009537,360068.80000019073,,360068.7000002861,,360075.027,8,400,,,
sequence,flow.Sequence,4_41,2023-09-09T16:10:53.256Z,,0,,,6356.041000190715,completion,,,,,false,,,,360069.10000038147,360068.80000019073,353695.979,353697.80000019073,353712.759,360075.027,8,400,,,
trial,html.Screen,4_42_0,2023-09-09T16:10:58.155Z,,0,1,,4892.972999999998,response,ISIC_6443984.JPG,5,ISIC_5226353.JPG,ISIC_6443984.JPG,false,1,keypress(m),500,364968.2000002861,364968,360058.255,360069.2000002861,360075.027,364984.519,8,400,43,,ISIC_5226353.JPG
break,html.Screen,4_42_1,2023-09-09T16:10:58.156Z,,0,,,NaN,,,,,,false,,,,364968.90000009537,364968.7000002861,,364968.5,,364984.519,8,400,,,
break_continue,html.Screen,4_42_2,2023-09-09T16:10:58.156Z,,0,,,NaN,,,,,,false,,,,364969.2000002861,364969.10000038147,,364969,,364984.519,8,400,,,
sequence,flow.Sequence,4_42,2023-09-09T16:10:58.156Z,,0,,,4894.073000381468,completion,,,,,false,,,,364969.2000002861,364969.10000038147,360058.255,360069.10000038147,360075.027,364984.519,8,400,,,
trial,html.Screen,4_43_0,2023-09-09T16:11:03.262Z,,0,1,,5089.781000190764,response,ISIC_0030660.JPG,4,ISIC_0025039.JPG,ISIC_0025039.JPG,false,0,keypress(z),500,370074.5,370074.30000019073,364967.957,364969.30000019073,364984.519,370094.492,8,400,44,,ISIC_0030660.JPG
break,html.Screen,4_43_1,2023-09-09T16:11:03.262Z,,0,,,NaN,,,,,,false,,,,370074.90000009537,370074.80000019073,,370074.5,,370094.492,8,400,,,
break_continue,html.Screen,4_43_2,2023-09-09T16:11:03.262Z,,0,,,NaN,,,,,,false,,,,370075.10000038147,370075,,370074.90000009537,,370094.492,8,400,,,
sequence,flow.Sequence,4_43,2023-09-09T16:11:03.262Z,,0,,,5090.481000000029,completion,,,,,false,,,,370075.10000038147,370075,364967.957,364969.2000002861,364984.519,370094.492,8,400,,,
trial,html.Screen,4_44_0,2023-09-09T16:11:09.751Z,,0,1,,6468.40800009534,response,ISIC_0033692.JPG,6,ISIC_9053988.JPG,ISIC_0033692.JPG,false,1,keypress(m),500,376563.10000038147,376562.90000009537,370077.737,370075.2000002861,370094.492,376573.754,8,400,45,,ISIC_9053988.JPG
break,html.Screen,4_44_1,2023-09-09T16:11:09.752Z,,0,,,NaN,,,,,,false,,,,376564,376563.5,,376563.30000019073,,376573.754,8,400,,,
break_continue,html.Screen,4_44_2,2023-09-09T16:11:09.753Z,,0,,,NaN,,,,,,false,,,,376564.30000019073,376564.2000002861,,376564.10000038147,,376573.754,8,400,,,
sequence,flow.Sequence,4_44,2023-09-09T16:11:09.753Z,,0,,,6469.708000286075,completion,,,,,false,,,,376564.30000019073,376564.2000002861,370077.737,370075.2000002861,370094.492,376573.754,8,400,,,
trial,html.Screen,4_45_0,2023-09-09T16:11:17.163Z,,0,1,,7401.0460001907195,response,ISIC_2625894.JPG,5,ISIC_7452410.JPG,ISIC_7452410.JPG,false,0,keypress(z),500,383975.10000038147,383974.80000019073,376557.063,376564.40000009537,376573.754,383988.232,8,400,46,,ISIC_2625894.JPG
break,html.Screen,4_45_1,2023-09-09T16:11:17.164Z,,0,,,NaN,,,,,,false,,,,383976.10000038147,383975.80000019073,,383975.30000019073,,383988.232,8,400,,,
break_continue,html.Screen,4_45_2,2023-09-09T16:11:17.165Z,,0,,,NaN,,,,,,false,,,,383976.5,383976.40000009537,,383976.2000002861,,383988.232,8,400,,,
sequence,flow.Sequence,4_45,2023-09-09T16:11:17.165Z,,0,,,7402.646000095352,completion,,,,,false,,,,383976.7000002861,383976.40000009537,376557.063,376564.40000009537,376573.754,383988.232,8,400,,,
trial,html.Screen,4_46_0,2023-09-09T16:11:26.095Z,,0,1,,8918.66800009535,response,ISIC_7292983.JPG,5,ISIC_0057016.JPG,ISIC_0057016.JPG,false,0,keypress(z),500,392907.10000038147,392906.90000009537,383971.569,383977,383988.232,392922.308,8,400,47,,ISIC_7292983.JPG
break,html.Screen,4_46_1,2023-09-09T16:11:26.096Z,,0,,,NaN,,,,,,false,,,,392907.60000038147,392907.5,,392907.2000002861,,392922.308,8,400,,,
break_continue,html.Screen,4_46_2,2023-09-09T16:11:26.096Z,,0,,,NaN,,,,,,false,,,,392907.90000009537,392907.80000019073,,392907.80000019073,,392922.308,8,400,,,
sequence,flow.Sequence,4_46,2023-09-09T16:11:26.096Z,,0,,,8919.568000190717,completion,,,,,false,,,,392908,392907.80000019073,383971.569,383976.80000019073,383988.232,392922.308,8,400,,,
trial,html.Screen,4_47_0,2023-09-09T16:11:32.582Z,,0,1,,6470.992000190716,response,ISIC_0012107.JPG,4,ISIC_0000546.JPG,ISIC_0012107.JPG,false,1,keypress(m),500,399393.40000009537,399393.30000019073,392905.646,392908.10000038147,392922.308,399401.548,8,400,48,,ISIC_0000546.JPG
break,html.Screen,4_47_1,2023-09-09T16:11:32.582Z,,0,,,NaN,,,,,,false,,,,399394.10000038147,399393.90000009537,,399393.5,,399401.548,8,400,,,
break_continue,html.Screen,4_47_2,2023-09-09T16:11:32.583Z,,0,,,NaN,,,,,,false,,,,399394.40000009537,399394.30000019073,,399394.10000038147,,399401.548,8,400,,,
sequence,flow.Sequence,4_47,2023-09-09T16:11:32.583Z,,0,,,6471.992000190716,completion,,,,,false,,,,399394.5,399394.30000019073,392905.646,392908.10000038147,392922.308,399401.548,8,400,,,
trial,html.Screen,4_48_0,2023-09-09T16:11:37.752Z,,0,1,,5162.352000095358,response,ISIC_4407580.JPG,4,ISIC_0031611.JPG,ISIC_4407580.JPG,false,1,keypress(m),500,404564.10000038147,404563.90000009537,399384.849,399394.60000038147,399401.548,404578.322,8,400,49,,ISIC_0031611.JPG
break,html.Screen,4_48_1,2023-09-09T16:11:37.753Z,,0,,,NaN,,,,,,false,,,,404564.7000002861,404564.5,,404564.10000038147,,404578.322,8,400,,,
break_continue,html.Screen,4_48_2,2023-09-09T16:11:37.753Z,,0,,,NaN,,,,,,false,,,,404565,404564.90000009537,,404564.80000019073,,404578.322,8,400,,,
sequence,flow.Sequence,4_48,2023-09-09T16:11:37.753Z,,0,,,5163.352000095358,completion,,,,,false,,,,404565.10000038147,404564.90000009537,399384.849,399394.60000038147,399401.548,404578.322,8,400,,,
trial,html.Screen,4_49_0,2023-09-09T16:11:44.203Z,,0,1,,6436.578000095382,response,ISIC_1968421.JPG,5,ISIC_0064925.JPG,ISIC_0064925.JPG,false,0,keypress(z),500,411015.10000038147,411014.90000009537,404561.751,404565.2000002861,404578.322,411024.113,8,400,50,,ISIC_1968421.JPG
break,html.Screen,4_49_1,2023-09-09T16:11:54.199Z,,0,,,10002.905999999959,timeout,,,,,false,,,,421011,421010.418,411007.446,411015.30000019073,411024.113,421027.019,8,400,,,
break_continue,html.Screen,4_49_2,2023-09-09T16:12:04.098Z,,0,,,9867.081000381499,response,,,,,false,continue,keypress(Space),,430908.60000038147,430894.10000038147,421010.418,421011.2000002861,421027.019,430912.781,8,400,,,
sequence,flow.Sequence,4_49,2023-09-09T16:12:04.098Z,,0,,,26315.778000381484,completion,,,,,false,,,,430908.7000002861,430894.10000038147,404561.751,404565.2000002861,404578.322,430912.781,8,400,,,
trial,html.Screen,4_50_0,2023-09-09T16:12:07.799Z,,0,2,,3697.0190001907176,response,ISIC_4248013.JPG,4,ISIC_9354604.JPG,ISIC_4248013.JPG,false,1,keypress(m),500,434609.90000009537,434609.80000019073,430896.164,430908.80000019073,430912.781,434620.011,8,400,1,,ISIC_9354604.JPG
break,html.Screen,4_50_1,2023-09-09T16:12:07.799Z,,0,,,NaN,,,,,,false,,,,434610.5,434610.30000019073,,434610.10000038147,,434620.011,8,400,,,
break_continue,html.Screen,4_50_2,2023-09-09T16:12:07.800Z,,0,,,NaN,,,,,,false,,,,434610.60000038147,434610.60000038147,,434610.5,,434620.011,8,400,,,
sequence,flow.Sequence,4_50,2023-09-09T16:12:07.800Z,,0,,,3697.8190003814525,completion,,,,,false,,,,434610.7000002861,434610.60000038147,430896.164,430908.7000002861,430912.781,434620.011,8,400,,,
trial,html.Screen,4_51_0,2023-09-09T16:12:12.474Z,,0,2,,4664.789000190736,response,ISIC_0030873.JPG,4,ISIC_0033876.JPG,ISIC_0030873.JPG,false,1,keypress(m),500,439284.90000009537,439284.80000019073,434603.361,434610.80000019073,434620.011,439295.77,8,400,2,,ISIC_0033876.JPG
break,html.Screen,4_51_1,2023-09-09T16:12:12.474Z,,0,,,NaN,,,,,,false,,,,439285.40000009537,439285.2000002861,,439285,,439295.77,8,400,,,
break_continue,html.Screen,4_51_2,2023-09-09T16:12:12.475Z,,0,,,NaN,,,,,,false,,,,439285.60000038147,439285.60000038147,,439285.40000009537,,439295.77,8,400,,,
sequence,flow.Sequence,4_51,2023-09-09T16:12:12.475Z,,0,,,4665.589000381471,completion,,,,,false,,,,439285.7000002861,439285.60000038147,434603.361,434610.7000002861,434620.011,439295.77,8,400,,,
trial,html.Screen,4_52_0,2023-09-09T16:12:17.196Z,,0,2,,4711.330000381451,response,ISIC_0070253.JPG,5,ISIC_7466678.JPG,ISIC_7466678.JPG,false,0,keypress(z),500,444007.10000038147,444007.10000038147,439279.148,439285.80000019073,439295.77,444021.833,8,400,3,,ISIC_0070253.JPG
break,html.Screen,4_52_1,2023-09-09T16:12:17.197Z,,0,,,NaN,,,,,,false,,,,444007.60000038147,444007.40000009537,,444007.30000019073,,444021.833,8,400,,,
break_continue,html.Screen,4_52_2,2023-09-09T16:12:17.197Z,,0,,,NaN,,,,,,false,,,,444007.7000002861,444007.7000002861,,444007.60000038147,,444021.833,8,400,,,
sequence,flow.Sequence,4_52,2023-09-09T16:12:17.197Z,,0,,,4711.930000286084,completion,,,,,false,,,,444007.80000019073,444007.7000002861,439279.148,439285.7000002861,439295.77,444021.833,8,400,,,
trial,html.Screen,4_53_0,2023-09-09T16:12:22.516Z,,0,2,,5305.567000095383,response,ISIC_8363069.JPG,6,ISIC_2256461.JPG,ISIC_8363069.JPG,false,1,keypress(m),500,449327.5,449327.40000009537,444005.067,444007.90000009537,444021.833,449348.675,8,400,4,,ISIC_2256461.JPG
break,html.Screen,4_53_1,2023-09-09T16:12:22.517Z,,0,,,NaN,,,,,,false,,,,449328.10000038147,449327.90000009537,,449327.7000002861,,449348.675,8,400,,,
break_continue,html.Screen,4_53_2,2023-09-09T16:12:22.517Z,,0,,,NaN,,,,,,false,,,,449328.2000002861,449328.2000002861,,449328.10000038147,,449348.675,8,400,,,
sequence,flow.Sequence,4_53,2023-09-09T16:12:22.517Z,,0,,,5306.367000286118,completion,,,,,false,,,,449328.30000019073,449328.2000002861,444005.067,444007.90000009537,444021.833,449348.675,8,400,,,
trial,html.Screen,4_54_0,2023-09-09T16:12:27.222Z,,0,2,,4684.325000000012,response,ISIC_0222299.JPG,5,ISIC_9588065.JPG,ISIC_0222299.JPG,false,1,keypress(m),500,454033.10000038147,454033,449331.993,449328.40000009537,449348.675,454041.169,8,400,5,,ISIC_9588065.JPG
break,html.Screen,4_54_1,2023-09-09T16:12:27.223Z,,0,,,NaN,,,,,,false,,,,454033.7000002861,454033.5,,454033.2000002861,,454041.169,8,400,,,
break_continue,html.Screen,4_54_2,2023-09-09T16:12:27.223Z,,0,,,NaN,,,,,,false,,,,454034,454033.90000009537,,454033.80000019073,,454041.169,8,400,,,
sequence,flow.Sequence,4_54,2023-09-09T16:12:27.223Z,,0,,,4685.225000095379,completion,,,,,false,,,,454034.10000038147,454033.90000009537,449331.993,449328.30000019073,449348.675,454041.169,8,400,,,
trial,html.Screen,4_55_0,2023-09-09T16:12:33.897Z,,0,2,,6666.831000000006,response,ISIC_0033950.JPG,5,ISIC_0002026.JPG,ISIC_0033950.JPG,false,1,keypress(m),500,460708.2000002861,460708,454024.607,454034.2000002861,454041.169,460720.831,8,400,6,,ISIC_0002026.JPG
break,html.Screen,4_55_1,2023-09-09T16:12:33.898Z,,0,,,NaN,,,,,,false,,,,460708.7000002861,460708.60000038147,,460708.30000019073,,460720.831,8,400,,,
break_continue,html.Screen,4_55_2,2023-09-09T16:12:33.898Z,,0,,,NaN,,,,,,false,,,,460709,460709,,460708.80000019073,,460720.831,8,400,,,
sequence,flow.Sequence,4_55,2023-09-09T16:12:33.898Z,,0,,,6667.831000000006,completion,,,,,false,,,,460709.30000019073,460709,454024.607,454034.2000002861,454041.169,460720.831,8,400,,,
trial,html.Screen,4_56_0,2023-09-09T16:12:39.452Z,,0,2,,5542.469000190729,response,ISIC_1035480.JPG,5,ISIC_0004789.JPG,ISIC_1035480.JPG,false,1,keypress(m),500,466263.40000009537,466263.30000019073,460704.238,460709.30000019073,460720.831,466264.958,8,400,7,,ISIC_0004789.JPG
break,html.Screen,4_56_1,2023-09-09T16:12:39.453Z,,0,,,NaN,,,,,,false,,,,466264.10000038147,466263.90000009537,,466263.5,,466264.958,8,400,,,
break_continue,html.Screen,4_56_2,2023-09-09T16:12:39.453Z,,0,,,NaN,,,,,,false,,,,466264.30000019073,466264.30000019073,,466264.10000038147,,466264.958,8,400,,,
sequence,flow.Sequence,4_56,2023-09-09T16:12:39.453Z,,0,,,5543.469000190729,completion,,,,,false,,,,466264.30000019073,466264.30000019073,460704.238,460709.30000019073,460720.831,466264.958,8,400,,,
trial,html.Screen,4_57_0,2023-09-09T16:12:46.575Z,,0,2,,7120.642000381486,response,ISIC_0013678.JPG,4,ISIC_9267202.JPG,ISIC_9267202.JPG,false,0,keypress(z),500,473385.7000002861,473385.60000038147,466248.34,466264.5,466264.958,473395.484,8,400,8,,ISIC_0013678.JPG
break,html.Screen,4_57_1,2023-09-09T16:12:46.575Z,,0,,,NaN,,,,,,false,,,,473386.30000019073,473386.10000038147,,473385.80000019073,,473395.484,8,400,,,
break_continue,html.Screen,4_57_2,2023-09-09T16:12:46.576Z,,0,,,NaN,,,,,,false,,,,473386.60000038147,473386.60000038147,,473386.5,,473395.484,8,400,,,
sequence,flow.Sequence,4_57,2023-09-09T16:12:46.576Z,,0,,,7121.642000381486,completion,,,,,false,,,,473386.7000002861,473386.60000038147,466248.34,466264.5,466264.958,473395.484,8,400,,,
trial,html.Screen,4_58_0,2023-09-09T16:12:52.256Z,,0,2,,5671.916000095371,response,ISIC_6710082.JPG,5,ISIC_0032586.JPG,ISIC_0032586.JPG,false,0,keypress(z),500,479067.5,479067.40000009537,473378.996,473386.80000019073,473395.484,479073.242,8,400,9,,ISIC_6710082.JPG
break,html.Screen,4_58_1,2023-09-09T16:12:52.257Z,,0,,,NaN,,,,,,false,,,,479067.90000009537,479067.90000009537,,479067.60000038147,,479073.242,8,400,,,
break_continue,html.Screen,4_58_2,2023-09-09T16:12:52.257Z,,0,,,NaN,,,,,,false,,,,479068.2000002861,479068.2000002861,,479068,,479073.242,8,400,,,
sequence,flow.Sequence,4_58,2023-09-09T16:12:52.257Z,,0,,,5672.716000286106,completion,,,,,false,,,,479068.2000002861,479068.2000002861,473378.996,473386.80000019073,473395.484,479073.242,8,400,,,
trial,html.Screen,4_59_0,2023-09-09T16:12:57.202Z,,0,2,,4940.058000190707,response,ISIC_8320640.JPG,4,ISIC_0034101.JPG,ISIC_0034101.JPG,false,0,keypress(z),500,484013.5,484013.30000019073,479056.519,479068.30000019073,479073.242,484016.158,8,400,10,,ISIC_8320640.JPG
break,html.Screen,4_59_1,2023-09-09T16:12:57.203Z,,0,,,NaN,,,,,,false,,,,484013.80000019073,484013.80000019073,,484013.60000038147,,484016.158,8,400,,,
break_continue,html.Screen,4_59_2,2023-09-09T16:12:57.203Z,,0,,,NaN,,,,,,false,,,,484014.10000038147,484014,,484013.90000009537,,484016.158,8,400,,,
sequence,flow.Sequence,4_59,2023-09-09T16:12:57.203Z,,0,,,4940.7579999999725,completion,,,,,false,,,,484014.30000019073,484014,479056.519,479068.2000002861,479073.242,484016.158,8,400,,,
trial,html.Screen,4_60_0,2023-09-09T16:13:03.173Z,,0,2,,5967.642000190739,response,ISIC_1223648.JPG,6,ISIC_1978947.JPG,ISIC_1223648.JPG,false,1,keypress(m),500,489983.90000009537,489983.80000019073,483999.505,484014.30000019073,484016.158,489994.484,8,400,11,,ISIC_1978947.JPG
break,html.Screen,4_60_1,2023-09-09T16:13:03.173Z,,0,,,NaN,,,,,,false,,,,489984.30000019073,489984.2000002861,,489984,,489994.484,8,400,,,
break_continue,html.Screen,4_60_2,2023-09-09T16:13:03.174Z,,0,,,NaN,,,,,,false,,,,489984.60000038147,489984.5,,489984.40000009537,,489994.484,8,400,,,
sequence,flow.Sequence,4_60,2023-09-09T16:13:03.174Z,,0,,,5968.342000000004,completion,,,,,false,,,,489984.60000038147,489984.5,483999.505,484014.30000019073,484016.158,489994.484,8,400,,,
trial,html.Screen,4_61_0,2023-09-09T16:13:11.135Z,,0,2,,7949.516000000003,response,ISIC_0064107.JPG,7,ISIC_0057026.JPG,ISIC_0057026.JPG,false,0,keypress(z),500,497944.30000019073,497944,489977.817,489984.80000019073,489994.484,497959.974,8,400,12,,ISIC_0064107.JPG
break,html.Screen,4_61_1,2023-09-09T16:13:11.136Z,,0,,,NaN,,,,,,false,,,,497945.30000019073,497945.10000038147,,497944.60000038147,,497959.974,8,400,,,
break_continue,html.Screen,4_61_2,2023-09-09T16:13:11.136Z,,0,,,NaN,,,,,,false,,,,497945.60000038147,497945.60000038147,,497945.40000009537,,497959.974,8,400,,,
sequence,flow.Sequence,4_61,2023-09-09T16:13:11.136Z,,0,,,7951.116000381473,completion,,,,,false,,,,497945.80000019073,497945.60000038147,489977.817,489984.7000002861,489994.484,497959.974,8,400,,,
trial,html.Screen,4_62_0,2023-09-09T16:13:14.915Z,,0,2,,3764.92600009538,response,ISIC_3471815.JPG,4,ISIC_8011058.JPG,ISIC_8011058.JPG,false,0,keypress(z),500,501725,501724.90000009537,497943.358,497945.80000019073,497959.974,501733.974,8,400,13,,ISIC_3471815.JPG
break,html.Screen,4_62_1,2023-09-09T16:13:14.916Z,,0,,,NaN,,,,,,false,,,,501725.60000038147,501725.40000009537,,501725.10000038147,,501733.974,8,400,,,
break_continue,html.Screen,4_62_2,2023-09-09T16:13:14.916Z,,0,,,NaN,,,,,,false,,,,501725.7000002861,501725.7000002861,,501725.60000038147,,501733.974,8,400,,,
sequence,flow.Sequence,4_62,2023-09-09T16:13:14.916Z,,0,,,3765.726000286115,completion,,,,,false,,,,501725.80000019073,501725.7000002861,497943.358,497945.80000019073,497959.974,501733.974,8,400,,,
trial,html.Screen,4_63_0,2023-09-09T16:13:21.225Z,,0,2,,6300.126000381482,response,ISIC_4619903.JPG,6,ISIC_2946577.JPG,ISIC_4619903.JPG,false,1,keypress(m),500,508034.5,508034.10000038147,501717.305,501725.90000009537,501733.974,508046.322,8,400,14,,ISIC_2946577.JPG
break,html.Screen,4_63_1,2023-09-09T16:13:21.227Z,,0,,,NaN,,,,,,false,,,,508037.2000002861,508036.5,,508035.30000019073,,508046.322,8,400,,,
break_continue,html.Screen,4_63_2,2023-09-09T16:13:21.229Z,,0,,,NaN,,,,,,false,,,,508038.30000019073,508038.10000038147,,508037.5,,508046.322,8,400,,,
sequence,flow.Sequence,4_63,2023-09-09T16:13:21.229Z,,0,,,6304.126000381482,completion,,,,,false,,,,508038.7000002861,508038.10000038147,501717.305,501725.90000009537,501733.974,508046.322,8,400,,,
trial,html.Screen,4_64_0,2023-09-09T16:13:27.911Z,,0,2,,6674.278000381484,response,ISIC_7717907.JPG,6,ISIC_1294049.JPG,ISIC_7717907.JPG,false,1,keypress(m),500,514720.7000002861,514720.60000038147,508029.59,508039.10000038147,508046.322,514725.929,8,400,15,,ISIC_1294049.JPG
break,html.Screen,4_64_1,2023-09-09T16:13:27.912Z,,0,,,NaN,,,,,,false,,,,514721.40000009537,514721.2000002861,,514720.90000009537,,514725.929,8,400,,,
break_continue,html.Screen,4_64_2,2023-09-09T16:13:27.912Z,,0,,,NaN,,,,,,false,,,,514721.7000002861,514721.7000002861,,514721.5,,514725.929,8,400,,,
sequence,flow.Sequence,4_64,2023-09-09T16:13:27.912Z,,0,,,6675.378000286117,completion,,,,,false,,,,514721.80000019073,514721.7000002861,508029.59,508039,508046.322,514725.929,8,400,,,
trial,html.Screen,4_65_0,2023-09-09T16:13:33.515Z,,0,2,,5598.271000286099,response,ISIC_0011526.JPG,6,ISIC_3212781.JPG,ISIC_0011526.JPG,false,1,keypress(m),500,520324.2000002861,520324.2000002861,514709.343,514721.90000009537,514725.929,520336.918,8,400,16,,ISIC_3212781.JPG
break,html.Screen,4_65_1,2023-09-09T16:13:33.515Z,,0,,,NaN,,,,,,false,,,,520324.7000002861,520324.5,,520324.40000009537,,520336.918,8,400,,,
break_continue,html.Screen,4_65_2,2023-09-09T16:13:33.515Z,,0,,,NaN,,,,,,false,,,,520324.80000019073,520324.80000019073,,520324.7000002861,,520336.918,8,400,,,
sequence,flow.Sequence,4_65,2023-09-09T16:13:33.515Z,,0,,,5598.871000190731,completion,,,,,false,,,,520324.90000009537,520324.80000019073,514709.343,514721.90000009537,514725.929,520336.918,8,400,,,
trial,html.Screen,4_66_0,2023-09-09T16:13:38.140Z,,0,2,,4612.782000286097,response,ISIC_2524005.JPG,5,ISIC_4659355.JPG,ISIC_2524005.JPG,false,1,keypress(m),500,524949.8000001907,524949.7000002861,520320.238,520324.90000009537,520336.918,524962.687,8,400,17,,ISIC_4659355.JPG
break,html.Screen,4_66_1,2023-09-09T16:13:38.141Z,,0,,,NaN,,,,,,false,,,,524950.4000000954,524950.3000001907,,524949.9000000954,,524962.687,8,400,,,
break_continue,html.Screen,4_66_2,2023-09-09T16:13:38.141Z,,0,,,NaN,,,,,,false,,,,524950.7000002861,524950.7000002861,,524950.5,,524962.687,8,400,,,
sequence,flow.Sequence,4_66,2023-09-09T16:13:38.141Z,,0,,,4613.782000286097,completion,,,,,false,,,,524950.9000000954,524950.7000002861,520320.238,520324.90000009537,520336.918,524962.687,8,400,,,
trial,html.Screen,4_67_0,2023-09-09T16:13:42.895Z,,0,2,,4742.213000095333,response,ISIC_8503961.JPG,5,ISIC_0063753.JPG,ISIC_0063753.JPG,false,0,keypress(z),500,529705,529704.9000000954,524945.899,524951.1000003815,524962.687,529721.794,8,400,18,,ISIC_8503961.JPG
break,html.Screen,4_67_1,2023-09-09T16:13:42.896Z,,0,,,NaN,,,,,,false,,,,529705.8000001907,529705.7000002861,,529705.2000002861,,529721.794,8,400,,,
break_continue,html.Screen,4_67_2,2023-09-09T16:13:42.896Z,,0,,,NaN,,,,,,false,,,,529706.1000003815,529706,,529705.9000000954,,529721.794,8,400,,,
sequence,flow.Sequence,4_67,2023-09-09T16:13:42.896Z,,0,,,4743.3129999999655,completion,,,,,false,,,,529706.2000002861,529706,524945.899,524951,524962.687,529721.794,8,400,,,
trial,html.Screen,4_68_0,2023-09-09T16:13:47.734Z,,0,2,,4821.906000286108,response,ISIC_0872145.JPG,5,ISIC_0014541.JPG,ISIC_0014541.JPG,false,0,keypress(z),500,534543.9000000954,534543.7000002861,529705.101,529706.2000002861,529721.794,534547.856,8,400,19,,ISIC_0872145.JPG
break,html.Screen,4_68_1,2023-09-09T16:13:47.735Z,,0,,,NaN,,,,,,false,,,,534544.6000003815,534544.3000001907,,534544.1000003815,,534547.856,8,400,,,
break_continue,html.Screen,4_68_2,2023-09-09T16:13:47.735Z,,0,,,NaN,,,,,,false,,,,534544.8000001907,534544.7000002861,,534544.6000003815,,534547.856,8,400,,,
sequence,flow.Sequence,4_68,2023-09-09T16:13:47.735Z,,0,,,4822.906000286108,completion,,,,,false,,,,534544.9000000954,534544.7000002861,529705.101,529706.2000002861,529721.794,534547.856,8,400,,,
trial,html.Screen,4_69_0,2023-09-09T16:13:53.018Z,,0,2,,5279.244000381441,response,ISIC_8325260.JPG,5,ISIC_6717452.JPG,ISIC_8325260.JPG,false,1,keypress(m),500,539827.2000002861,539827.1000003815,534531.205,534545,534547.856,539841.473,8,400,20,,ISIC_6717452.JPG
break,html.Screen,4_69_1,2023-09-09T16:13:53.018Z,,0,,,NaN,,,,,,false,,,,539827.7000002861,539827.5,,539827.4000000954,,539841.473,8,400,,,
break_continue,html.Screen,4_69_2,2023-09-09T16:13:53.018Z,,0,,,NaN,,,,,,false,,,,539827.8000001907,539827.8000001907,,539827.7000002861,,539841.473,8,400,,,
sequence,flow.Sequence,4_69,2023-09-09T16:13:53.018Z,,0,,,5279.944000190706,completion,,,,,false,,,,539827.9000000954,539827.8000001907,534531.205,534544.9000000954,534547.856,539841.473,8,400,,,
trial,html.Screen,4_70_0,2023-09-09T16:13:59.372Z,,0,2,,6340.027000000002,response,ISIC_0054167.JPG,4,ISIC_5771106.JPG,ISIC_0054167.JPG,false,1,keypress(m),500,546181.6000003815,546181.5,539824.878,539828,539841.473,546187.199,8,400,21,,ISIC_5771106.JPG
break,html.Screen,4_70_1,2023-09-09T16:13:59.373Z,,0,,,NaN,,,,,,false,,,,546182.3000001907,546182.2000002861,,546181.8000001907,,546187.199,8,400,,,
break_continue,html.Screen,4_70_2,2023-09-09T16:13:59.373Z,,0,,,NaN,,,,,,false,,,,546182.5,546182.5,,546182.4000000954,,546187.199,8,400,,,
sequence,flow.Sequence,4_70,2023-09-09T16:13:59.373Z,,0,,,6341.027000000002,completion,,,,,false,,,,546182.7000002861,546182.5,539824.878,539828,539841.473,546187.199,8,400,,,
trial,html.Screen,4_71_0,2023-09-09T16:14:06.290Z,,0,2,,6911.1010001907125,response,ISIC_3009493.JPG,5,ISIC_4915897.JPG,ISIC_4915897.JPG,false,0,keypress(z),500,553098.5,553098.3000001907,546170.54,546182.8000001907,546187.199,553100.63,8,400,22,,ISIC_3009493.JPG
break,html.Screen,4_71_1,2023-09-09T16:14:06.290Z,,0,,,NaN,,,,,,false,,,,553099,553098.8000001907,,553098.7000002861,,553100.63,8,400,,,
break_continue,html.Screen,4_71_2,2023-09-09T16:14:06.291Z,,0,,,NaN,,,,,,false,,,,553099.5,553099.4000000954,,553099.3000001907,,553100.63,8,400,,,
sequence,flow.Sequence,4_71,2023-09-09T16:14:06.291Z,,0,,,6912.201000095345,completion,,,,,false,,,,553099.5,553099.4000000954,546170.54,546182.8000001907,546187.199,553100.63,8,400,,,
trial,html.Screen,4_72_0,2023-09-09T16:14:13.748Z,,0,2,,7455.970000381465,response,ISIC_0706692.JPG,5,ISIC_0060233.JPG,ISIC_0060233.JPG,false,0,keypress(z),500,560556.8000001907,560556.6000003815,553084.02,553099.6000003815,553100.63,560565.106,8,400,23,,ISIC_0706692.JPG
break,html.Screen,4_72_1,2023-09-09T16:14:13.749Z,,0,,,NaN,,,,,,false,,,,560557.3000001907,560557.2000002861,,560556.9000000954,,560565.106,8,400,,,
break_continue,html.Screen,4_72_2,2023-09-09T16:14:13.749Z,,0,,,NaN,,,,,,false,,,,560557.6000003815,560557.5,,560557.4000000954,,560565.106,8,400,,,
sequence,flow.Sequence,4_72,2023-09-09T16:14:13.749Z,,0,,,7456.869999999995,completion,,,,,false,,,,560557.6000003815,560557.5,553084.02,553099.6000003815,553100.63,560565.106,8,400,,,
trial,html.Screen,4_73_0,2023-09-09T16:14:19.206Z,,0,2,,5449.994000381441,response,ISIC_0028445.JPG,6,ISIC_0067012.JPG,ISIC_0067012.JPG,false,0,keypress(z),500,566015.1000003815,566015.1000003815,560548.633,560557.7000002861,560565.106,566025.752,8,400,24,,ISIC_0028445.JPG
break,html.Screen,4_73_1,2023-09-09T16:14:19.207Z,,0,,,NaN,,,,,,false,,,,566015.6000003815,566015.4000000954,,566015.3000001907,,566025.752,8,400,,,
break_continue,html.Screen,4_73_2,2023-09-09T16:14:19.207Z,,0,,,NaN,,,,,,false,,,,566015.7000002861,566015.6000003815,,566015.6000003815,,566025.752,8,400,,,
sequence,flow.Sequence,4_73,2023-09-09T16:14:19.207Z,,0,,,5450.494000381441,completion,,,,,false,,,,566015.8000001907,566015.6000003815,560548.633,560557.7000002861,560565.106,566025.752,8,400,,,
trial,html.Screen,4_74_0,2023-09-09T16:14:24.863Z,,0,2,,5645.548000190756,response,ISIC_0033081.JPG,6,ISIC_0028930.JPG,ISIC_0028930.JPG,false,0,keypress(z),500,571671.4000000954,571671.3000001907,566009.147,566015.9000000954,566025.752,571686.838,8,400,25,,ISIC_0033081.JPG
break,html.Screen,4_74_1,2023-09-09T16:14:24.863Z,,0,,,NaN,,,,,,false,,,,571671.9000000954,571671.8000001907,,571671.6000003815,,571686.838,8,400,,,
break_continue,html.Screen,4_74_2,2023-09-09T16:14:24.863Z,,0,,,NaN,,,,,,false,,,,571672,571671.9000000954,,571671.9000000954,,571686.838,8,400,,,
sequence,flow.Sequence,4_74,2023-09-09T16:14:24.863Z,,0,,,5646.148000095389,completion,,,,,false,,,,571672.1000003815,571671.9000000954,566009.147,566015.8000001907,566025.752,571686.838,8,400,,,
trial,html.Screen,4_75_0,2023-09-09T16:14:29.912Z,,0,2,,5033.662000000011,response,ISIC_0014987.JPG,5,ISIC_0064071.JPG,ISIC_0014987.JPG,false,1,keypress(m),500,576720.5,576720.5,571670.22,571672.2000002861,571686.838,576729.913,8,400,26,,ISIC_0064071.JPG
break,html.Screen,4_75_1,2023-09-09T16:14:29.912Z,,0,,,NaN,,,,,,false,,,,576721,576720.9000000954,,576720.6000003815,,576729.913,8,400,,,
break_continue,html.Screen,4_75_2,2023-09-09T16:14:29.913Z,,0,,,NaN,,,,,,false,,,,576721.2000002861,576721.2000002861,,576721,,576729.913,8,400,,,
sequence,flow.Sequence,4_75,2023-09-09T16:14:29.913Z,,0,,,5034.3620002861135,completion,,,,,false,,,,576721.3000001907,576721.2000002861,571670.22,571672.2000002861,571686.838,576729.913,8,400,,,
trial,html.Screen,4_76_0,2023-09-09T16:14:35.994Z,,0,2,,6073.1870003815275,response,ISIC_0028320.JPG,5,ISIC_0004857.JPG,ISIC_0004857.JPG,false,0,keypress(z),500,582803.2000002861,582803.1000003815,576713.224,576721.4000000954,576729.913,582808.466,8,400,27,,ISIC_0028320.JPG
break,html.Screen,4_76_1,2023-09-09T16:14:35.995Z,,0,,,NaN,,,,,,false,,,,582803.7000002861,582803.5,,582803.3000001907,,582808.466,8,400,,,
break_continue,html.Screen,4_76_2,2023-09-09T16:14:35.995Z,,0,,,NaN,,,,,,false,,,,582804.1000003815,582804,,582803.8000001907,,582808.466,8,400,,,
sequence,flow.Sequence,4_76,2023-09-09T16:14:35.995Z,,0,,,6074.087000000058,completion,,,,,false,,,,582804.2000002861,582804,576713.224,576721.4000000954,576729.913,582808.466,8,400,,,
trial,html.Screen,4_77_0,2023-09-09T16:14:41.820Z,,0,2,,5820.533999999985,response,ISIC_0062407.JPG,5,ISIC_0028041.JPG,ISIC_0062407.JPG,false,1,keypress(m),500,588629.1000003815,588629,582791.778,582804.2000002861,582808.466,588636.5,8,400,28,,ISIC_0028041.JPG
break,html.Screen,4_77_1,2023-09-09T16:14:41.821Z,,0,,,NaN,,,,,,false,,,,588629.5,588629.3000001907,,588629.2000002861,,588636.5,8,400,,,
break_continue,html.Screen,4_77_2,2023-09-09T16:14:41.821Z,,0,,,NaN,,,,,,false,,,,588629.7000002861,588629.6000003815,,588629.5,,588636.5,8,400,,,
sequence,flow.Sequence,4_77,2023-09-09T16:14:41.821Z,,0,,,5821.134000381455,completion,,,,,false,,,,588629.7000002861,588629.6000003815,582791.778,582804.2000002861,582808.466,588636.5,8,400,,,
trial,html.Screen,4_78_0,2023-09-09T16:14:48.195Z,,0,2,,6367.300000190735,response,ISIC_3328295.JPG,5,ISIC_5037784.JPG,ISIC_5037784.JPG,false,0,keypress(z),500,595003.9000000954,595003.8000001907,588619.738,588629.8000001907,588636.5,595015.559,8,400,29,,ISIC_3328295.JPG
break,html.Screen,4_78_1,2023-09-09T16:14:48.196Z,,0,,,NaN,,,,,,false,,,,595004.4000000954,595004.3000001907,,595004.1000003815,,595015.559,8,400,,,
break_continue,html.Screen,4_78_2,2023-09-09T16:14:48.196Z,,0,,,NaN,,,,,,false,,,,595004.7000002861,595004.6000003815,,595004.5,,595015.559,8,400,,,
sequence,flow.Sequence,4_78,2023-09-09T16:14:48.196Z,,0,,,6368.10000038147,completion,,,,,false,,,,595004.7000002861,595004.6000003815,588619.738,588629.8000001907,588636.5,595015.559,8,400,,,
trial,html.Screen,4_79_0,2023-09-09T16:14:55.541Z,,0,2,,7334.141000286094,response,ISIC_6118824.JPG,5,ISIC_7329395.JPG,ISIC_7329395.JPG,false,0,keypress(z),500,602349.8000001907,602349.7000002861,594998.828,595004.8000001907,595015.559,602363.162,8,400,30,,ISIC_6118824.JPG
break,html.Screen,4_79_1,2023-09-09T16:14:55.542Z,,0,,,NaN,,,,,,false,,,,602350.3000001907,602350.2000002861,,602349.9000000954,,602363.162,8,400,,,
break_continue,html.Screen,4_79_2,2023-09-09T16:14:55.542Z,,0,,,NaN,,,,,,false,,,,602350.5,602350.5,,602350.4000000954,,602363.162,8,400,,,
sequence,flow.Sequence,4_79,2023-09-09T16:14:55.542Z,,0,,,7334.940999999992,completion,,,,,false,,,,602350.6000003815,602350.5,594998.828,595004.7000002861,595015.559,602363.162,8,400,,,
trial,html.Screen,4_80_0,2023-09-09T16:15:00.472Z,,0,2,,4917.038000286091,response,ISIC_4587506.JPG,5,ISIC_0011729.JPG,ISIC_0011729.JPG,false,0,keypress(z),500,607280.3000001907,607280.2000002861,602346.523,602350.6000003815,602363.162,607289.406,8,400,31,,ISIC_4587506.JPG
break,html.Screen,4_80_1,2023-09-09T16:15:00.472Z,,0,,,NaN,,,,,,false,,,,607280.7000002861,607280.6000003815,,607280.4000000954,,607289.406,8,400,,,
break_continue,html.Screen,4_80_2,2023-09-09T16:15:00.472Z,,0,,,NaN,,,,,,false,,,,607280.9000000954,607280.8000001907,,607280.8000001907,,607289.406,8,400,,,
sequence,flow.Sequence,4_80,2023-09-09T16:15:00.472Z,,0,,,4917.638000190724,completion,,,,,false,,,,607280.9000000954,607280.8000001907,602346.523,602350.6000003815,602363.162,607289.406,8,400,,,
trial,html.Screen,4_81_0,2023-09-09T16:15:05.039Z,,0,2,,4557.294000286143,response,ISIC_2799447.JPG,5,ISIC_9122215.JPG,ISIC_9122215.JPG,false,0,keypress(z),500,611846.9000000954,611846.7000002861,607272.72,607281,607289.406,611848.287,8,400,32,,ISIC_2799447.JPG
break,html.Screen,4_81_1,2023-09-09T16:15:05.040Z,,0,,,NaN,,,,,,false,,,,611847.6000003815,611847.2000002861,,611847,,611848.287,8,400,,,
break_continue,html.Screen,4_81_2,2023-09-09T16:15:05.040Z,,0,,,NaN,,,,,,false,,,,611847.9000000954,611847.9000000954,,611847.7000002861,,611848.287,8,400,,,
sequence,flow.Sequence,4_81,2023-09-09T16:15:05.040Z,,0,,,4558.494000095408,completion,,,,,false,,,,611848,611847.9000000954,607272.72,607281,607289.406,611848.287,8,400,,,
trial,html.Screen,4_82_0,2023-09-09T16:15:10.585Z,,0,2,,5544.212999999989,response,ISIC_0010754.JPG,4,ISIC_0458561.JPG,ISIC_0010754.JPG,false,1,keypress(m),500,617392.6000003815,617392.5,611831.656,611848.1000003815,611848.287,617409.155,8,400,33,,ISIC_0458561.JPG
break,html.Screen,4_82_1,2023-09-09T16:15:10.586Z,,0,,,NaN,,,,,,false,,,,617393.2000002861,617393.1000003815,,617392.8000001907,,617409.155,8,400,,,
break_continue,html.Screen,4_82_2,2023-09-09T16:15:10.586Z,,0,,,NaN,,,,,,false,,,,617393.5,617393.5,,617393.3000001907,,617409.155,8,400,,,
sequence,flow.Sequence,4_82,2023-09-09T16:15:10.586Z,,0,,,5545.212999999989,completion,,,,,false,,,,617393.5,617393.5,611831.656,611848.1000003815,611848.287,617409.155,8,400,,,
trial,html.Screen,4_83_0,2023-09-09T16:15:16.670Z,,0,2,,6068.445000381442,response,ISIC_0070784.JPG,5,ISIC_2075121.JPG,ISIC_0070784.JPG,false,1,keypress(m),500,623477.7000002861,623477.6000003815,617392.576,617393.6000003815,617409.155,623487.604,8,400,34,,ISIC_2075121.JPG
break,html.Screen,4_83_1,2023-09-09T16:15:16.670Z,,0,,,NaN,,,,,,false,,,,623478.2000002861,623478.1000003815,,623477.8000001907,,623487.604,8,400,,,
break_continue,html.Screen,4_83_2,2023-09-09T16:15:16.671Z,,0,,,NaN,,,,,,false,,,,623478.4000000954,623478.3000001907,,623478.3000001907,,623487.604,8,400,,,
sequence,flow.Sequence,4_83,2023-09-09T16:15:16.671Z,,0,,,6069.145000190707,completion,,,,,false,,,,623478.5,623478.3000001907,617392.576,617393.6000003815,617409.155,623487.604,8,400,,,
trial,html.Screen,4_84_0,2023-09-09T16:15:20.387Z,,0,2,,3706.4960003814194,response,ISIC_0059330.JPG,5,ISIC_7763042.JPG,ISIC_0059330.JPG,false,1,keypress(m),500,627194.2000002861,627194.1000003815,623471.056,623478.6000003815,623487.604,627211.467,8,400,35,,ISIC_7763042.JPG
break,html.Screen,4_84_1,2023-09-09T16:15:20.388Z,,0,,,NaN,,,,,,false,,,,627195.4000000954,627195,,627194.4000000954,,627211.467,8,400,,,
break_continue,html.Screen,4_84_2,2023-09-09T16:15:20.388Z,,0,,,NaN,,,,,,false,,,,627196,627195.8000001907,,627195.5,,627211.467,8,400,,,
sequence,flow.Sequence,4_84,2023-09-09T16:15:20.389Z,,0,,,3708.1960001906846,completion,,,,,false,,,,627196.3000001907,627195.8000001907,623471.056,623478.6000003815,623487.604,627211.467,8,400,,,
trial,html.Screen,4_85_0,2023-09-09T16:15:26.474Z,,0,2,,6069.733000286156,response,ISIC_8589961.JPG,5,ISIC_0066379.JPG,ISIC_8589961.JPG,false,1,keypress(m),500,633281.3000001907,633281.2000002861,627194.84,627196.5,627211.467,633289.972,8,400,36,,ISIC_0066379.JPG
break,html.Screen,4_85_1,2023-09-09T16:15:26.474Z,,0,,,NaN,,,,,,false,,,,633281.8000001907,633281.6000003815,,633281.4000000954,,633289.972,8,400,,,
break_continue,html.Screen,4_85_2,2023-09-09T16:15:26.474Z,,0,,,NaN,,,,,,false,,,,633282.2000002861,633282.1000003815,,633281.9000000954,,633289.972,8,400,,,
sequence,flow.Sequence,4_85,2023-09-09T16:15:26.474Z,,0,,,6070.633000381524,completion,,,,,false,,,,633282.2000002861,633282.1000003815,627194.84,627196.5,627211.467,633289.972,8,400,,,
trial,html.Screen,4_86_0,2023-09-09T16:15:32.416Z,,0,2,,5933.828000190784,response,ISIC_0027247.JPG,5,ISIC_0061623.JPG,ISIC_0061623.JPG,false,0,keypress(z),500,639223.9000000954,639223.8000001907,633273.416,633282.2000002861,633289.972,639234.875,8,400,37,,ISIC_0027247.JPG
break,html.Screen,4_86_1,2023-09-09T16:15:32.417Z,,0,,,NaN,,,,,,false,,,,639224.3000001907,639224.3000001907,,639224,,639234.875,8,400,,,
break_continue,html.Screen,4_86_2,2023-09-09T16:15:32.417Z,,0,,,NaN,,,,,,false,,,,639224.5,639224.4000000954,,639224.4000000954,,639234.875,8,400,,,
sequence,flow.Sequence,4_86,2023-09-09T16:15:32.417Z,,0,,,5934.428000095417,completion,,,,,false,,,,639224.5,639224.4000000954,633273.416,633282.2000002861,633289.972,639234.875,8,400,,,
trial,html.Screen,4_87_0,2023-09-09T16:15:38.055Z,,0,2,,5627.22500038147,response,ISIC_8094432.JPG,6,ISIC_4780727.JPG,ISIC_4780727.JPG,false,0,keypress(z),500,644862.3000001907,644862.1000003815,639218.249,639224.6000003815,639234.875,644879.215,8,400,38,,ISIC_8094432.JPG
break,html.Screen,4_87_1,2023-09-09T16:15:38.055Z,,0,,,NaN,,,,,,false,,,,644863,644862.7000002861,,644862.4000000954,,644879.215,8,400,,,
break_continue,html.Screen,4_87_2,2023-09-09T16:15:38.056Z,,0,,,NaN,,,,,,false,,,,644863.3000001907,644863.3000001907,,644863.1000003815,,644879.215,8,400,,,
sequence,flow.Sequence,4_87,2023-09-09T16:15:38.056Z,,0,,,5628.425000190735,completion,,,,,false,,,,644863.4000000954,644863.3000001907,639218.249,639224.6000003815,639234.875,644879.215,8,400,,,
trial,html.Screen,4_88_0,2023-09-09T16:15:46.313Z,,0,2,,8241.285000000033,response,ISIC_5586765.JPG,5,ISIC_9918523.JPG,ISIC_9918523.JPG,false,0,keypress(z),500,653120.6000003815,653120.5,644862.589,644863.4000000954,644879.215,653128.679,8,400,39,,ISIC_5586765.JPG
break,html.Screen,4_88_1,2023-09-09T16:15:46.313Z,,0,,,NaN,,,,,,false,,,,653121,653120.9000000954,,653120.7000002861,,653128.679,8,400,,,
break_continue,html.Screen,4_88_2,2023-09-09T16:15:46.313Z,,0,,,NaN,,,,,,false,,,,653121.2000002861,653121.1000003815,,653121,,653128.679,8,400,,,
sequence,flow.Sequence,4_88,2023-09-09T16:15:46.314Z,,0,,,8241.885000381502,completion,,,,,false,,,,653121.2000002861,653121.1000003815,644862.589,644863.4000000954,644879.215,653128.679,8,400,,,
trial,html.Screen,4_89_0,2023-09-09T16:15:53.563Z,,0,2,,7241.820999999996,response,ISIC_8794567.JPG,5,ISIC_2276141.JPG,ISIC_2276141.JPG,false,0,keypress(z),500,660370.6000003815,660370.5,653111.925,653121.3000001907,653128.679,660376.098,8,400,40,,ISIC_8794567.JPG
break,html.Screen,4_89_1,2023-09-09T16:15:53.563Z,,0,,,NaN,,,,,,false,,,,660371.2000002861,660371,,660370.7000002861,,660376.098,8,400,,,
break_continue,html.Screen,4_89_2,2023-09-09T16:15:53.564Z,,0,,,NaN,,,,,,false,,,,660371.5,660371.4000000954,,660371.3000001907,,660376.098,8,400,,,
sequence,flow.Sequence,4_89,2023-09-09T16:15:53.564Z,,0,,,7242.721000095364,completion,,,,,false,,,,660371.6000003815,660371.4000000954,653111.925,653121.3000001907,653128.679,660376.098,8,400,,,
trial,html.Screen,4_90_0,2023-09-09T16:15:58.003Z,,0,2,,4434.002000381472,response,ISIC_1132496.JPG,6,ISIC_0403458.JPG,ISIC_1132496.JPG,false,1,keypress(m),500,664810.3000001907,664810.1000003815,660359.457,660371.6000003815,660376.098,664818.089,8,400,41,,ISIC_0403458.JPG
break,html.Screen,4_90_1,2023-09-09T16:15:58.003Z,,0,,,NaN,,,,,,false,,,,664810.6000003815,664810.5,,664810.3000001907,,664818.089,8,400,,,
break_continue,html.Screen,4_90_2,2023-09-09T16:15:58.003Z,,0,,,NaN,,,,,,false,,,,664810.8000001907,664810.7000002861,,664810.7000002861,,664818.089,8,400,,,
sequence,flow.Sequence,4_90,2023-09-09T16:15:58.003Z,,0,,,4434.602000286104,completion,,,,,false,,,,664810.9000000954,664810.7000002861,660359.457,660371.6000003815,660376.098,664818.089,8,400,,,
trial,html.Screen,4_91_0,2023-09-09T16:16:02.088Z,,0,2,,4077.4109999999637,response,ISIC_0009488.JPG,5,ISIC_3239813.JPG,ISIC_0009488.JPG,false,1,keypress(m),500,668895.8000001907,668895.5,664801.463,664811,664818.089,668909.339,8,400,42,,ISIC_3239813.JPG
break,html.Screen,4_91_1,2023-09-09T16:16:02.089Z,,0,,,NaN,,,,,,false,,,,668896.6000003815,668896.4000000954,,668896,,668909.339,8,400,,,
break_continue,html.Screen,4_91_2,2023-09-09T16:16:02.089Z,,0,,,NaN,,,,,,false,,,,668897,668897,,668896.7000002861,,668909.339,8,400,,,
sequence,flow.Sequence,4_91,2023-09-09T16:16:02.089Z,,0,,,4078.9109999999637,completion,,,,,false,,,,668897.2000002861,668897,664801.463,664810.9000000954,664818.089,668909.339,8,400,,,
trial,html.Screen,4_92_0,2023-09-09T16:16:07.021Z,,0,2,,4917.761000381433,response,ISIC_4589609.JPG,6,ISIC_8248922.JPG,ISIC_4589609.JPG,false,1,keypress(m),500,673827.4000000954,673827.1000003815,668892.577,668897.2000002861,668909.339,673835.633,8,400,43,,ISIC_8248922.JPG
break,html.Screen,4_92_1,2023-09-09T16:16:07.021Z,,0,,,NaN,,,,,,false,,,,673827.9000000954,673827.7000002861,,673827.4000000954,,673835.633,8,400,,,
break_continue,html.Screen,4_92_2,2023-09-09T16:16:07.021Z,,0,,,NaN,,,,,,false,,,,673828.2000002861,673828.1000003815,,673828,,673835.633,8,400,,,
sequence,flow.Sequence,4_92,2023-09-09T16:16:07.022Z,,0,,,4918.761000381433,completion,,,,,false,,,,673828.3000001907,673828.1000003815,668892.577,668897.2000002861,668909.339,673835.633,8,400,,,
trial,html.Screen,4_93_0,2023-09-09T16:16:11.903Z,,0,2,,4874.366999999969,response,ISIC_6385627.JPG,5,ISIC_0069944.JPG,ISIC_6385627.JPG,false,1,keypress(m),500,678710.1000003815,678710,673819.056,673828.3000001907,673835.633,678711.723,8,400,44,,ISIC_0069944.JPG
break,html.Screen,4_93_1,2023-09-09T16:16:11.904Z,,0,,,NaN,,,,,,false,,,,678710.6000003815,678710.4000000954,,678710.2000002861,,678711.723,8,400,,,
break_continue,html.Screen,4_93_2,2023-09-09T16:16:11.904Z,,0,,,NaN,,,,,,false,,,,678710.9000000954,678710.9000000954,,678710.7000002861,,678711.723,8,400,,,
sequence,flow.Sequence,4_93,2023-09-09T16:16:11.904Z,,0,,,4875.267000095337,completion,,,,,false,,,,678711.1000003815,678710.9000000954,673819.056,673828.3000001907,673835.633,678711.723,8,400,,,
trial,html.Screen,4_94_0,2023-09-09T16:16:16.385Z,,0,2,,4480.077000190737,response,ISIC_0033272.JPG,4,ISIC_0003111.JPG,ISIC_0033272.JPG,false,1,keypress(m),500,683191.8000001907,683191.8000001907,678694.966,678711.1000003815,678711.723,683203.804,8,400,45,,ISIC_0003111.JPG
break,html.Screen,4_94_1,2023-09-09T16:16:16.386Z,,0,,,NaN,,,,,,false,,,,683192.3000001907,683192.2000002861,,683192,,683203.804,8,400,,,
break_continue,html.Screen,4_94_2,2023-09-09T16:16:16.386Z,,0,,,NaN,,,,,,false,,,,683192.4000000954,683192.4000000954,,683192.3000001907,,683203.804,8,400,,,
sequence,flow.Sequence,4_94,2023-09-09T16:16:16.386Z,,0,,,4480.677000095369,completion,,,,,false,,,,683192.5,683192.4000000954,678694.966,678711.1000003815,678711.723,683203.804,8,400,,,
trial,html.Screen,4_95_0,2023-09-09T16:16:21.363Z,,0,2,,4965.596000095364,response,ISIC_1814941.JPG,4,ISIC_0011496.JPG,ISIC_0011496.JPG,false,0,keypress(z),500,688169.5,688169.4000000954,683187.125,683192.5,683203.804,688180.129,8,400,46,,ISIC_1814941.JPG
break,html.Screen,4_95_1,2023-09-09T16:16:21.363Z,,0,,,NaN,,,,,,false,,,,688170,688169.8000001907,,688169.6000003815,,688180.129,8,400,,,
break_continue,html.Screen,4_95_2,2023-09-09T16:16:21.363Z,,0,,,NaN,,,,,,false,,,,688170.2000002861,688170.2000002861,,688170,,688180.129,8,400,,,
sequence,flow.Sequence,4_95,2023-09-09T16:16:21.364Z,,0,,,4966.396000286099,completion,,,,,false,,,,688170.4000000954,688170.2000002861,683187.125,683192.5,683203.804,688180.129,8,400,,,
trial,html.Screen,4_96_0,2023-09-09T16:16:26.870Z,,0,2,,5495.971000381513,response,ISIC_9742891.JPG,4,ISIC_0058199.JPG,ISIC_0058199.JPG,false,0,keypress(z),500,693676.3000001907,693676.1000003815,688163.628,688170.4000000954,688180.129,693690.868,8,400,47,,ISIC_9742891.JPG
break,html.Screen,4_96_1,2023-09-09T16:16:26.870Z,,0,,,NaN,,,,,,false,,,,693677,693676.7000002861,,693676.4000000954,,693690.868,8,400,,,
break_continue,html.Screen,4_96_2,2023-09-09T16:16:26.871Z,,0,,,NaN,,,,,,false,,,,693677.2000002861,693677.2000002861,,693677,,693690.868,8,400,,,
sequence,flow.Sequence,4_96,2023-09-09T16:16:26.871Z,,0,,,5497.071000286145,completion,,,,,false,,,,693677.4000000954,693677.2000002861,688163.628,688170.4000000954,688180.129,693690.868,8,400,,,
trial,html.Screen,4_97_0,2023-09-09T16:16:35.742Z,,0,2,,8858.232000381453,response,ISIC_0024261.JPG,5,ISIC_0010379.JPG,ISIC_0024261.JPG,false,1,keypress(m),500,702549.2000002861,702549.1000003815,693674.172,693677.4000000954,693690.868,702558.112,8,400,48,,ISIC_0010379.JPG
break,html.Screen,4_97_1,2023-09-09T16:16:35.743Z,,0,,,NaN,,,,,,false,,,,702549.8000001907,702549.6000003815,,702549.3000001907,,702558.112,8,400,,,
break_continue,html.Screen,4_97_2,2023-09-09T16:16:35.743Z,,0,,,NaN,,,,,,false,,,,702550.1000003815,702550,,702549.9000000954,,702558.112,8,400,,,
sequence,flow.Sequence,4_97,2023-09-09T16:16:35.743Z,,0,,,8859.131999999983,completion,,,,,false,,,,702550.2000002861,702550,693674.172,693677.4000000954,693690.868,702558.112,8,400,,,
trial,html.Screen,4_98_0,2023-09-09T16:16:41.488Z,,0,2,,5736.988000381505,response,ISIC_1983754.JPG,5,ISIC_0003593.JPG,ISIC_1983754.JPG,false,1,keypress(m),500,708295.2000002861,708295.1000003815,702541.583,702550.2000002861,702558.112,708302.643,8,400,49,,ISIC_0003593.JPG
break,html.Screen,4_98_1,2023-09-09T16:16:41.489Z,,0,,,NaN,,,,,,false,,,,708295.8000001907,708295.6000003815,,708295.3000001907,,708302.643,8,400,,,
break_continue,html.Screen,4_98_2,2023-09-09T16:16:41.489Z,,0,,,NaN,,,,,,false,,,,708296,708295.9000000954,,708295.8000001907,,708302.643,8,400,,,
sequence,flow.Sequence,4_98,2023-09-09T16:16:41.489Z,,0,,,5737.788000095403,completion,,,,,false,,,,708296.1000003815,708295.9000000954,702541.583,702550.2000002861,702558.112,708302.643,8,400,,,
trial,html.Screen,4_99_0,2023-09-09T16:16:46.407Z,,0,2,,4910.757000095327,response,ISIC_0072865.JPG,5,ISIC_8485716.JPG,ISIC_0072865.JPG,false,1,keypress(m),500,713213.6000003815,713213.4000000954,708285.949,708296.2000002861,708302.643,713228.968,8,400,50,,ISIC_8485716.JPG
break,html.Screen,4_99_1,2023-09-09T16:16:56.409Z,,0,,,10002.89300000004,timeout,,,,,false,,,,723215.5,723214.996,713212.293,713213.8000001907,713228.968,723231.861,8,400,,,
break_continue,html.Screen,4_99_2,2023-09-09T16:17:01.858Z,,0,,,5418.1389999999665,response,,,,,false,continue,keypress(Space),,728664.4000000954,728650,723214.996,723215.6000003815,723231.861,728675.633,8,400,,,
sequence,flow.Sequence,4_99,2023-09-09T16:17:01.858Z,,0,,,20347.35699999996,completion,,,,,false,,,,728664.5,728650,708285.949,708296.2000002861,708302.643,728675.633,8,400,,,
trial,html.Screen,4_100_0,2023-09-09T16:17:06.501Z,,0,3,,4630.467000381439,response,ISIC_9436034.JPG,6,ISIC_6800044.JPG,ISIC_6800044.JPG,false,0,keypress(z),500,733306.3000001907,733306.1000003815,728659.066,728664.6000003815,728675.633,733317.943,8,400,1,,ISIC_9436034.JPG
break,html.Screen,4_100_1,2023-09-09T16:17:06.501Z,,0,,,NaN,,,,,,false,,,,733306.8000001907,733306.6000003815,,733306.4000000954,,733317.943,8,400,,,
break_continue,html.Screen,4_100_2,2023-09-09T16:17:06.501Z,,0,,,NaN,,,,,,false,,,,733307,733307,,733306.9000000954,,733317.943,8,400,,,
sequence,flow.Sequence,4_100,2023-09-09T16:17:06.501Z,,0,,,4631.366999999969,completion,,,,,false,,,,733307.2000002861,733307,728659.066,728664.6000003815,728675.633,733317.943,8,400,,,
trial,html.Screen,4_101_0,2023-09-09T16:17:10.346Z,,0,3,,3833.757000286132,response,ISIC_4474352.JPG,5,ISIC_7299650.JPG,ISIC_7299650.JPG,false,0,keypress(z),500,737151.8000001907,737151.7000002861,733301.401,733307.2000002861,733317.943,737158.818,8,400,2,,ISIC_4474352.JPG
break,html.Screen,4_101_1,2023-09-09T16:17:10.347Z,,0,,,NaN,,,,,,false,,,,737152.6000003815,737152.4000000954,,737152,,737158.818,8,400,,,
break_continue,html.Screen,4_101_2,2023-09-09T16:17:10.347Z,,0,,,NaN,,,,,,false,,,,737152.9000000954,737152.9000000954,,737152.7000002861,,737158.818,8,400,,,
sequence,flow.Sequence,4_101,2023-09-09T16:17:10.347Z,,0,,,3834.9570000953972,completion,,,,,false,,,,737153,737152.9000000954,733301.401,733307.2000002861,733317.943,737158.818,8,400,,,
trial,html.Screen,4_102_0,2023-09-09T16:17:15.070Z,,0,3,,4716.582000095397,response,ISIC_0027479.JPG,6,ISIC_6723937.JPG,ISIC_6723937.JPG,false,0,keypress(z),500,741875.4000000954,741875.4000000954,737142.249,737153.2000002861,737158.818,741884.645,8,400,3,,ISIC_0027479.JPG
break,html.Screen,4_102_1,2023-09-09T16:17:15.070Z,,0,,,NaN,,,,,,false,,,,741875.8000001907,741875.7000002861,,741875.5,,741884.645,8,400,,,
break_continue,html.Screen,4_102_2,2023-09-09T16:17:15.070Z,,0,,,NaN,,,,,,false,,,,741876,741876,,741875.9000000954,,741884.645,8,400,,,
sequence,flow.Sequence,4_102,2023-09-09T16:17:15.070Z,,0,,,4717.18200000003,completion,,,,,false,,,,741876.1000003815,741876,737142.249,737153.2000002861,737158.818,741884.645,8,400,,,
trial,html.Screen,4_103_0,2023-09-09T16:17:19.600Z,,0,3,,4520.955000381451,response,ISIC_0327406.JPG,5,ISIC_3181394.JPG,ISIC_3181394.JPG,false,0,keypress(z),500,746405.7000002861,746405.6000003815,741868.07,741876.1000003815,741884.645,746410.152,8,400,4,,ISIC_0327406.JPG
break,html.Screen,4_103_1,2023-09-09T16:17:19.600Z,,0,,,NaN,,,,,,false,,,,746406.3000001907,746406.1000003815,,746405.9000000954,,746410.152,8,400,,,
break_continue,html.Screen,4_103_2,2023-09-09T16:17:19.601Z,,0,,,NaN,,,,,,false,,,,746406.5,746406.4000000954,,746406.3000001907,,746410.152,8,400,,,
sequence,flow.Sequence,4_103,2023-09-09T16:17:19.601Z,,0,,,4521.755000095349,completion,,,,,false,,,,746406.5,746406.4000000954,741868.07,741876.1000003815,741884.645,746410.152,8,400,,,
trial,html.Screen,4_104_0,2023-09-09T16:17:25.555Z,,0,3,,5950.148000190733,response,ISIC_0033738.JPG,5,ISIC_0066213.JPG,ISIC_0066213.JPG,false,0,keypress(z),500,752360.4000000954,752360.3000001907,746393.594,746406.6000003815,746410.152,752371.752,8,400,5,,ISIC_0033738.JPG
break,html.Screen,4_104_1,2023-09-09T16:17:25.555Z,,0,,,NaN,,,,,,false,,,,752361,752360.8000001907,,752360.5,,752371.752,8,400,,,
break_continue,html.Screen,4_104_2,2023-09-09T16:17:25.556Z,,0,,,NaN,,,,,,false,,,,752361.4000000954,752361.3000001907,,752361.1000003815,,752371.752,8,400,,,
sequence,flow.Sequence,4_104,2023-09-09T16:17:25.556Z,,0,,,5951.148000190733,completion,,,,,false,,,,752361.5,752361.3000001907,746393.594,746406.5,746410.152,752371.752,8,400,,,
trial,html.Screen,4_105_0,2023-09-09T16:17:29.369Z,,0,3,,3802.9480002861237,response,ISIC_0055147.JPG,6,ISIC_9199158.JPG,ISIC_0055147.JPG,false,1,keypress(m),500,756174.8000001907,756174.7000002861,752355.067,752361.5,752371.752,756179.139,8,400,6,,ISIC_9199158.JPG
break,html.Screen,4_105_1,2023-09-09T16:17:29.370Z,,0,,,NaN,,,,,,false,,,,756175.7000002861,756175.4000000954,,756175,,756179.139,8,400,,,
break_continue,html.Screen,4_105_2,2023-09-09T16:17:29.370Z,,0,,,NaN,,,,,,false,,,,756176,756175.9000000954,,756175.8000001907,,756179.139,8,400,,,
sequence,flow.Sequence,4_105,2023-09-09T16:17:29.370Z,,0,,,3804.148000095389,completion,,,,,false,,,,756176,756175.9000000954,752355.067,752361.5,752371.752,756179.139,8,400,,,
trial,html.Screen,4_106_0,2023-09-09T16:17:36.044Z,,0,3,,6670.461000381503,response,ISIC_0026780.JPG,4,ISIC_0072943.JPG,ISIC_0026780.JPG,false,1,keypress(m),500,762849.7000002861,762849.6000003815,756162.542,756176.1000003815,756179.139,762858.899,8,400,7,,ISIC_0072943.JPG
break,html.Screen,4_106_1,2023-09-09T16:17:36.044Z,,0,,,NaN,,,,,,false,,,,762850.2000002861,762850,,762849.9000000954,,762858.899,8,400,,,
break_continue,html.Screen,4_106_2,2023-09-09T16:17:36.045Z,,0,,,NaN,,,,,,false,,,,762850.6000003815,762850.5,,762850.3000001907,,762858.899,8,400,,,
sequence,flow.Sequence,4_106,2023-09-09T16:17:36.045Z,,0,,,6671.3610000000335,completion,,,,,false,,,,762850.7000002861,762850.5,756162.542,756176.1000003815,756179.139,762858.899,8,400,,,
trial,html.Screen,4_107_0,2023-09-09T16:17:41.045Z,,0,3,,4991.701000381494,response,ISIC_0059786.JPG,6,ISIC_3770380.JPG,ISIC_0059786.JPG,false,1,keypress(m),500,767850.7000002861,767850.6000003815,762842.141,762850.7000002861,762858.899,767851.866,8,400,8,,ISIC_3770380.JPG
break,html.Screen,4_107_1,2023-09-09T16:17:41.046Z,,0,,,NaN,,,,,,false,,,,767851.4000000954,767851.1000003815,,767850.8000001907,,767851.866,8,400,,,
break_continue,html.Screen,4_107_2,2023-09-09T16:17:41.046Z,,0,,,NaN,,,,,,false,,,,767851.7000002861,767851.6000003815,,767851.5,,767851.866,8,400,,,
sequence,flow.Sequence,4_107,2023-09-09T16:17:41.046Z,,0,,,4992.701000381494,completion,,,,,false,,,,767851.8000001907,767851.6000003815,762842.141,762850.7000002861,762858.899,767851.866,8,400,,,
trial,html.Screen,4_108_0,2023-09-09T16:17:46.794Z,,0,3,,5747.534000095329,response,ISIC_6868089.JPG,6,ISIC_7264251.JPG,ISIC_7264251.JPG,false,0,keypress(z),500,773599.6000003815,773599.4000000954,767835.133,767851.8000001907,767851.866,773613.258,8,400,9,,ISIC_6868089.JPG
break,html.Screen,4_108_1,2023-09-09T16:17:46.794Z,,0,,,NaN,,,,,,false,,,,773600.1000003815,773599.8000001907,,773599.6000003815,,773613.258,8,400,,,
break_continue,html.Screen,4_108_2,2023-09-09T16:17:46.795Z,,0,,,NaN,,,,,,false,,,,773600.5,773600.4000000954,,773600.3000001907,,773613.258,8,400,,,
sequence,flow.Sequence,4_108,2023-09-09T16:17:46.795Z,,0,,,5748.534000095329,completion,,,,,false,,,,773600.6000003815,773600.4000000954,767835.133,767851.8000001907,767851.866,773613.258,8,400,,,
trial,html.Screen,4_109_0,2023-09-09T16:17:51.853Z,,0,3,,5045.042000190704,response,ISIC_0072773.JPG,5,ISIC_8615491.JPG,ISIC_0072773.JPG,false,1,keypress(m),500,778658.4000000954,778658.3000001907,773596.447,773600.6000003815,773613.258,778673.084,8,400,10,,ISIC_8615491.JPG
break,html.Screen,4_109_1,2023-09-09T16:17:51.853Z,,0,,,NaN,,,,,,false,,,,778658.9000000954,778658.8000001907,,778658.5,,778673.084,8,400,,,
break_continue,html.Screen,4_109_2,2023-09-09T16:17:51.854Z,,0,,,NaN,,,,,,false,,,,778659.3000001907,778659.2000002861,,778659.1000003815,,778673.084,8,400,,,
sequence,flow.Sequence,4_109,2023-09-09T16:17:51.854Z,,0,,,5045.942000286072,completion,,,,,false,,,,778659.4000000954,778659.2000002861,773596.447,773600.6000003815,773613.258,778673.084,8,400,,,
trial,html.Screen,4_110_0,2023-09-09T16:17:57.680Z,,0,3,,5812.415999999968,response,ISIC_8860929.JPG,6,ISIC_0068616.JPG,ISIC_0068616.JPG,false,0,keypress(z),500,784485.6000003815,784485.5,778656.215,778659.5,778673.084,784501.051,8,400,11,,ISIC_8860929.JPG
break,html.Screen,4_110_1,2023-09-09T16:17:57.680Z,,0,,,NaN,,,,,,false,,,,784486.1000003815,784485.9000000954,,784485.7000002861,,784501.051,8,400,,,
break_continue,html.Screen,4_110_2,2023-09-09T16:17:57.681Z,,0,,,NaN,,,,,,false,,,,784486.5,784486.4000000954,,784486.3000001907,,784501.051,8,400,,,
sequence,flow.Sequence,4_110,2023-09-09T16:17:57.681Z,,0,,,5813.316000095336,completion,,,,,false,,,,784486.7000002861,784486.4000000954,778656.215,778659.5,778673.084,784501.051,8,400,,,
trial,html.Screen,4_111_0,2023-09-09T16:18:01.746Z,,0,3,,4050.34900009539,response,ISIC_1727826.JPG,4,ISIC_3586669.JPG,ISIC_3586669.JPG,false,0,keypress(z),500,788551.5,788551.4000000954,784484.225,784486.8000001907,784501.051,788575.485,8,400,12,,ISIC_1727826.JPG
break,html.Screen,4_111_1,2023-09-09T16:18:01.746Z,,0,,,NaN,,,,,,false,,,,788552,788551.9000000954,,788551.7000002861,,788575.485,8,400,,,
break_continue,html.Screen,4_111_2,2023-09-09T16:18:01.746Z,,0,,,NaN,,,,,,false,,,,788552.2000002861,788552.2000002861,,788552,,788575.485,8,400,,,
sequence,flow.Sequence,4_111,2023-09-09T16:18:01.747Z,,0,,,4051.1490002861246,completion,,,,,false,,,,788552.3000001907,788552.2000002861,784484.225,784486.7000002861,784501.051,788575.485,8,400,,,
trial,html.Screen,4_112_0,2023-09-09T16:18:07.946Z,,0,3,,6174.915000095381,response,ISIC_0034089.JPG,5,ISIC_0011374.JPG,ISIC_0034089.JPG,false,1,keypress(m),500,794750.6000003815,794750.4000000954,788558.858,788552.3000001907,788575.485,794754.212,8,400,13,,ISIC_0011374.JPG
break,html.Screen,4_112_1,2023-09-09T16:18:07.947Z,,0,,,NaN,,,,,,false,,,,794751.5,794751.2000002861,,794750.7000002861,,794754.212,8,400,,,
break_continue,html.Screen,4_112_2,2023-09-09T16:18:07.947Z,,0,,,NaN,,,,,,false,,,,794751.8000001907,794751.8000001907,,794751.5,,794754.212,8,400,,,
sequence,flow.Sequence,4_112,2023-09-09T16:18:07.947Z,,0,,,6176.315000190749,completion,,,,,false,,,,794752,794751.8000001907,788558.858,788552.3000001907,788575.485,794754.212,8,400,,,
trial,html.Screen,4_113_0,2023-09-09T16:18:12.371Z,,0,3,,4421.888000381412,response,ISIC_2146346.JPG,5,ISIC_0002862.JPG,ISIC_2146346.JPG,false,1,keypress(m),500,799176.2000002861,799176.1000003815,794737.497,794752,794754.212,799179.466,8,400,14,,ISIC_0002862.JPG
break,html.Screen,4_113_1,2023-09-09T16:18:12.372Z,,0,,,NaN,,,,,,false,,,,799176.7000002861,799176.5,,799176.3000001907,,799179.466,8,400,,,
break_continue,html.Screen,4_113_2,2023-09-09T16:18:12.372Z,,0,,,NaN,,,,,,false,,,,799176.8000001907,799176.8000001907,,799176.7000002861,,799179.466,8,400,,,
sequence,flow.Sequence,4_113,2023-09-09T16:18:12.372Z,,0,,,4422.588000190677,completion,,,,,false,,,,799176.8000001907,799176.8000001907,794737.497,794752,794754.212,799179.466,8,400,,,
trial,html.Screen,4_114_0,2023-09-09T16:18:17.466Z,,0,3,,5090.9340000953525,response,ISIC_0067840.JPG,6,ISIC_1305537.JPG,ISIC_1305537.JPG,false,0,keypress(z),500,804270.6000003815,804270.4000000954,799162.77,799176.9000000954,799179.466,804272.765,8,400,15,,ISIC_0067840.JPG
break,html.Screen,4_114_1,2023-09-09T16:18:17.467Z,,0,,,NaN,,,,,,false,,,,804271.3000001907,804271.2000002861,,804270.8000001907,,804272.765,8,400,,,
break_continue,html.Screen,4_114_2,2023-09-09T16:18:17.467Z,,0,,,NaN,,,,,,false,,,,804271.7000002861,804271.6000003815,,804271.5,,804272.765,8,400,,,
sequence,flow.Sequence,4_114,2023-09-09T16:18:17.467Z,,0,,,5092.134000381455,completion,,,,,false,,,,804271.8000001907,804271.6000003815,799162.77,799176.9000000954,799179.466,804272.765,8,400,,,
trial,html.Screen,4_115_0,2023-09-09T16:18:24.336Z,,0,3,,6867.835000381456,response,ISIC_4011169.JPG,6,ISIC_0025573.JPG,ISIC_0025573.JPG,false,0,keypress(z),500,811140.8000001907,811140.6000003815,804256.177,804271.8000001907,804272.765,811152.826,8,400,16,,ISIC_4011169.JPG
break,html.Screen,4_115_1,2023-09-09T16:18:24.337Z,,0,,,NaN,,,,,,false,,,,811141.5,811141.2000002861,,811141,,811152.826,8,400,,,
break_continue,html.Screen,4_115_2,2023-09-09T16:18:24.337Z,,0,,,NaN,,,,,,false,,,,811141.8000001907,811141.8000001907,,811141.7000002861,,811152.826,8,400,,,
sequence,flow.Sequence,4_115,2023-09-09T16:18:24.337Z,,0,,,6869.035000190721,completion,,,,,false,,,,811141.9000000954,811141.8000001907,804256.177,804271.8000001907,804272.765,811152.826,8,400,,,
trial,html.Screen,4_116_0,2023-09-09T16:18:29.858Z,,0,3,,5509.974000190734,response,ISIC_0026497.JPG,6,ISIC_0034202.JPG,ISIC_0034202.JPG,false,0,keypress(z),500,816662.9000000954,816662.8000001907,811136.11,811142.1000003815,811152.826,816680.208,8,400,17,,ISIC_0026497.JPG
break,html.Screen,4_116_1,2023-09-09T16:18:29.859Z,,0,,,NaN,,,,,,false,,,,816663.8000001907,816663.4000000954,,816663.1000003815,,816680.208,8,400,,,
break_continue,html.Screen,4_116_2,2023-09-09T16:18:29.859Z,,0,,,NaN,,,,,,false,,,,816664.2000002861,816664.1000003815,,816664,,816680.208,8,400,,,
sequence,flow.Sequence,4_116,2023-09-09T16:18:29.860Z,,0,,,5511.274000381469,completion,,,,,false,,,,816664.2000002861,816664.1000003815,811136.11,811142,811152.826,816680.208,8,400,,,
trial,html.Screen,4_117_0,2023-09-09T16:18:34.300Z,,0,3,,4424.392000381486,response,ISIC_0057287.JPG,5,ISIC_0059512.JPG,ISIC_0057287.JPG,false,1,keypress(m),500,821104.8000001907,821104.6000003815,816663.531,816664.3000001907,816680.208,821122.209,8,400,18,,ISIC_0059512.JPG
break,html.Screen,4_117_1,2023-09-09T16:18:34.301Z,,0,,,NaN,,,,,,false,,,,821105.2000002861,821105.2000002861,,821104.9000000954,,821122.209,8,400,,,
break_continue,html.Screen,4_117_2,2023-09-09T16:18:34.301Z,,0,,,NaN,,,,,,false,,,,821105.7000002861,821105.5,,821105.3000001907,,821122.209,8,400,,,
sequence,flow.Sequence,4_117,2023-09-09T16:18:34.301Z,,0,,,4425.292000000016,completion,,,,,false,,,,821105.9000000954,821105.5,816663.531,816664.3000001907,816680.208,821122.209,8,400,,,
trial,html.Screen,4_118_0,2023-09-09T16:18:40.465Z,,0,3,,6147.091000190703,response,ISIC_0066240.JPG,5,ISIC_0009642.JPG,ISIC_0066240.JPG,false,1,keypress(m),500,827269.4000000954,827269.3000001907,821105.459,821106,821122.209,827284.131,8,400,19,,ISIC_0009642.JPG
break,html.Screen,4_118_1,2023-09-09T16:18:40.465Z,,0,,,NaN,,,,,,false,,,,827269.9000000954,827269.7000002861,,827269.5,,827284.131,8,400,,,
break_continue,html.Screen,4_118_2,2023-09-09T16:18:40.465Z,,0,,,NaN,,,,,,false,,,,827270.1000003815,827270,,827270,,827284.131,8,400,,,
sequence,flow.Sequence,4_118,2023-09-09T16:18:40.465Z,,0,,,6147.790999999968,completion,,,,,false,,,,827270.2000002861,827270,821105.459,821106,821122.209,827284.131,8,400,,,
trial,html.Screen,4_119_0,2023-09-09T16:18:44.899Z,,0,3,,4419.969000381418,response,ISIC_0374029.JPG,5,ISIC_6486856.JPG,ISIC_6486856.JPG,false,0,keypress(z),500,831704.3000001907,831704.1000003815,827267.521,827270.3000001907,827284.131,831709.468,8,400,20,,ISIC_0374029.JPG
break,html.Screen,4_119_1,2023-09-09T16:18:44.900Z,,0,,,NaN,,,,,,false,,,,831704.7000002861,831704.6000003815,,831704.3000001907,,831709.468,8,400,,,
break_continue,html.Screen,4_119_2,2023-09-09T16:18:44.900Z,,0,,,NaN,,,,,,false,,,,831704.8000001907,831704.8000001907,,831704.7000002861,,831709.468,8,400,,,
sequence,flow.Sequence,4_119,2023-09-09T16:18:44.900Z,,0,,,4420.669000190683,completion,,,,,false,,,,831704.9000000954,831704.8000001907,827267.521,827270.2000002861,827284.131,831709.468,8,400,,,
trial,html.Screen,4_120_0,2023-09-09T16:18:50.875Z,,0,3,,5969.832000190741,response,ISIC_3475660.JPG,5,ISIC_5682259.JPG,ISIC_3475660.JPG,false,1,keypress(m),500,837679.6000003815,837679.3000001907,831692.776,831705,831709.468,837687.88,8,400,21,,ISIC_5682259.JPG
break,html.Screen,4_120_1,2023-09-09T16:18:50.877Z,,0,,,NaN,,,,,,false,,,,837681.5,837681.1000003815,,837680.1000003815,,837687.88,8,400,,,
break_continue,html.Screen,4_120_2,2023-09-09T16:18:50.878Z,,0,,,NaN,,,,,,false,,,,837682.4000000954,837682.2000002861,,837681.8000001907,,837687.88,8,400,,,
sequence,flow.Sequence,4_120,2023-09-09T16:18:50.878Z,,0,,,5972.732000286109,completion,,,,,false,,,,837682.7000002861,837682.2000002861,831692.776,831705,831709.468,837687.88,8,400,,,
trial,html.Screen,4_121_0,2023-09-09T16:18:55.474Z,,0,3,,4590.220000381465,response,ISIC_4114269.JPG,5,ISIC_0031021.JPG,ISIC_0031021.JPG,false,0,keypress(z),500,842278.4000000954,842278.1000003815,837671.117,837683.1000003815,837687.88,842280.008,8,400,22,,ISIC_4114269.JPG
break,html.Screen,4_121_1,2023-09-09T16:18:55.475Z,,0,,,NaN,,,,,,false,,,,842279.3000001907,842279,,842278.5,,842280.008,8,400,,,
break_continue,html.Screen,4_121_2,2023-09-09T16:18:55.475Z,,0,,,NaN,,,,,,false,,,,842279.6000003815,842279.6000003815,,842279.4000000954,,842280.008,8,400,,,
sequence,flow.Sequence,4_121,2023-09-09T16:18:55.475Z,,0,,,4591.720000381465,completion,,,,,false,,,,842279.8000001907,842279.6000003815,837671.117,837682.9000000954,837687.88,842280.008,8,400,,,
trial,html.Screen,4_122_0,2023-09-09T16:19:01.771Z,,0,3,,6295.692000286072,response,ISIC_0025759.JPG,5,ISIC_4363603.JPG,ISIC_4363603.JPG,false,0,keypress(z),500,848575.9000000954,848575.7000002861,842263.378,842279.9000000954,842280.008,848592.333,8,400,23,,ISIC_0025759.JPG
break,html.Screen,4_122_1,2023-09-09T16:19:01.772Z,,0,,,NaN,,,,,,false,,,,848576.7000002861,848576.5,,848576.2000002861,,848592.333,8,400,,,
break_continue,html.Screen,4_122_2,2023-09-09T16:19:01.772Z,,0,,,NaN,,,,,,false,,,,848577,848576.9000000954,,848576.8000001907,,848592.333,8,400,,,
sequence,flow.Sequence,4_122,2023-09-09T16:19:01.772Z,,0,,,6296.892000095337,completion,,,,,false,,,,848577.1000003815,848576.9000000954,842263.378,842279.9000000954,842280.008,848592.333,8,400,,,
trial,html.Screen,4_123_0,2023-09-09T16:19:06.847Z,,0,3,,5058.667000000016,response,ISIC_5903193.JPG,5,ISIC_1508215.JPG,ISIC_1508215.JPG,false,0,keypress(z),500,853651.2000002861,853651,848575.807,848577.2000002861,848592.333,853652.17,8,400,24,,ISIC_5903193.JPG
break,html.Screen,4_123_1,2023-09-09T16:19:06.848Z,,0,,,NaN,,,,,,false,,,,853651.8000001907,853651.6000003815,,853651.3000001907,,853652.17,8,400,,,
break_continue,html.Screen,4_123_2,2023-09-09T16:19:06.848Z,,0,,,NaN,,,,,,false,,,,853652.1000003815,853652,,853651.9000000954,,853652.17,8,400,,,
sequence,flow.Sequence,4_123,2023-09-09T16:19:06.848Z,,0,,,5059.667000000016,completion,,,,,false,,,,853652.2000002861,853652,848575.807,848577.2000002861,848592.333,853652.17,8,400,,,
trial,html.Screen,4_124_0,2023-09-09T16:19:12.690Z,,0,3,,5841.130000190693,response,ISIC_9538419.JPG,5,ISIC_7685920.JPG,ISIC_7685920.JPG,false,0,keypress(z),500,859493.4000000954,859493.3000001907,853635.633,853652.3000001907,853652.17,859496.836,8,400,25,,ISIC_9538419.JPG
break,html.Screen,4_124_1,2023-09-09T16:19:12.690Z,,0,,,NaN,,,,,,false,,,,859494.1000003815,859493.8000001907,,859493.5,,859496.836,8,400,,,
break_continue,html.Screen,4_124_2,2023-09-09T16:19:12.691Z,,0,,,NaN,,,,,,false,,,,859494.5,859494.4000000954,,859494.3000001907,,859496.836,8,400,,,
sequence,flow.Sequence,4_124,2023-09-09T16:19:12.691Z,,0,,,5842.2300000953255,completion,,,,,false,,,,859494.5,859494.4000000954,853635.633,853652.2000002861,853652.17,859496.836,8,400,,,
trial,html.Screen,4_125_0,2023-09-09T16:19:19.589Z,,0,3,,6895.464000190725,response,ISIC_7621412.JPG,6,ISIC_6026759.JPG,ISIC_6026759.JPG,false,0,keypress(z),500,866392.5,866392.3000001907,859480.191,859494.6000003815,859496.836,866393.63,8,400,26,,ISIC_7621412.JPG
break,html.Screen,4_125_1,2023-09-09T16:19:19.589Z,,0,,,NaN,,,,,,false,,,,866393.1000003815,866393,,866392.6000003815,,866393.63,8,400,,,
break_continue,html.Screen,4_125_2,2023-09-09T16:19:19.590Z,,0,,,NaN,,,,,,false,,,,866393.5,866393.4000000954,,866393.2000002861,,866393.63,8,400,,,
sequence,flow.Sequence,4_125,2023-09-09T16:19:19.590Z,,0,,,6896.564000095357,completion,,,,,false,,,,866393.7000002861,866393.4000000954,859480.191,859494.6000003815,859496.836,866393.63,8,400,,,
