sender,sender_type,sender_id,timestamp,meta,,blockNo,condition,duration,ended_on,img_left,img_reveal,img_right,loser,practice,response,response_action,selection_duration,time_commit,time_end,time_render,time_run,time_show,time_switch,total_blocks,total_trials,trialNo,url,winner
informed_consent,html.Screen,0,2023-09-08T17:45:23.624Z,"{""labjs_version"":""20.2.4"",""labjs_build"":{""flavor"":""development"",""commit"":""f5b4a49f956347addd546a832a3327688c2c0fef""},""location"":""https://labjs.felixhenninger.com/api/labjs_preview/index.html"",""userAgent"":""Mozilla/5.0 (Windows NT 10.0; Win64; x64) AppleWebKit/537.36 (KHTML, like Gecko) Chrome/116.0.0.0 Safari/537.36"",""platform"":""Win32"",""language"":""en-AU"",""locale"":""en-US"",""timeZone"":""America/Chicago"",""timezoneOffset"":300,""screen_width"":1680,""screen_height"":1050,""scroll_width"":1296,""scroll_height"":688,""window_innerWidth"":1296,""window_innerHeight"":736,""devicePixelRatio"":1}",,,,16673.235000095367,response,,,,,,consent,click button,,17295.299999952316,17294.400000095367,604.364,667.2999999523163,621.165,17253.425,,,,{},
Welcome,html.Screen,1,2023-09-08T17:47:48.794Z,,,,uniform,145208.97500009538,response,,,,,,continue,click button,,162462.90000009537,162462.40000009537,17236.714,17295.5,17253.425,162436.01,,,,,
trial,html.Screen,2_0_0,2023-09-08T17:48:00.312Z,,0,0,,11522.580999999976,timeout,ISIC_0025593.JPG,,ISIC_0063388.JPG,,true,,,500,173981.29999995232,173980.90000009537,162419.322,162463,162436.01,173958.591,1,6,1,,
sequence,flow.Sequence,2_0,2023-09-08T17:48:00.312Z,,0,,,11544.890000095358,completion,,,,,true,,,,173981.70000004768,173980.90000009537,162419.322,162463,162436.01,173958.591,1,6,,,
trial,html.Screen,2_1_0,2023-09-08T17:48:11.834Z,,0,0,,11522.415000000008,timeout,ISIC_0028178.JPG,,ISIC_1309015.JPG,,true,,,500,185503.09999990463,185503,173941.748,173981.90000009537,173958.591,185481.006,1,6,2,,
sequence,flow.Sequence,2_1,2023-09-08T17:48:11.834Z,,0,,,11544.409000000014,completion,,,,,true,,,,185503.29999995232,185503,173941.748,173981.90000009537,173958.591,185481.006,1,6,,,
trial,html.Screen,2_2_0,2023-09-08T17:48:16.109Z,,0,0,,4295.8940000953735,response,ISIC_0031128.JPG,,ISIC_3314853.JPG,ISIC_0031128.JPG,true,1,keypress(m),500,189777.09999990463,189776.90000009537,185464.135,185503.5,185481.006,189739.271,1,6,3,,ISIC_3314853.JPG
sequence,flow.Sequence,2_2,2023-09-08T17:48:16.109Z,,0,,,4295.8940000953735,completion,,,,,true,,,,189777.40000009537,189776.90000009537,185464.135,185503.40000009537,185481.006,189739.271,1,6,,,
trial,html.Screen,2_3_0,2023-09-08T17:48:27.615Z,,0,0,,11522.299999999988,timeout,ISIC_0031612.JPG,,ISIC_8980141.JPG,,true,,,500,201283.90000009537,201283.70000004768,189722.44,189777.59999990463,189739.271,201261.571,1,6,4,,
sequence,flow.Sequence,2_3,2023-09-08T17:48:27.616Z,,0,,,11544.429000047676,completion,,,,,true,,,,201284.29999995232,201283.70000004768,189722.44,189777.59999990463,189739.271,201261.571,1,6,,,
trial,html.Screen,2_4_0,2023-09-08T17:48:39.138Z,,0,0,,11522.447000000015,timeout,ISIC_9721604.JPG,,ISIC_1197737.JPG,,true,,,500,212806.20000004768,212805.90000009537,201245.043,201284.5,201261.571,212784.018,1,6,5,,
sequence,flow.Sequence,2_4,2023-09-08T17:48:39.138Z,,0,,,11544.329000095371,completion,,,,,true,,,,212806.40000009537,212805.90000009537,201245.043,201284.40000009537,201261.571,212784.018,1,6,,,
trial,html.Screen,2_5_0,2023-09-08T17:48:50.660Z,,0,0,,11522.470000000001,timeout,ISIC_0010681.JPG,,ISIC_0025346.JPG,,true,,,500,224328.70000004768,224328.40000009537,212767.323,212806.59999990463,212784.018,224306.488,1,6,6,,
sequence,flow.Sequence,2_5,2023-09-08T17:48:50.660Z,,0,,,11544.382000095356,completion,,,,,true,,,,224328.90000009537,224328.40000009537,212767.323,212806.5,212784.018,224306.488,1,6,,,
loop,flow.Loop,2,2023-09-08T17:48:50.660Z,,,,,61892.39000009536,completion,,,,,true,,,,224329.09999990463,224328.40000009537,162419.322,162463,162436.01,224306.488,1,6,,,
exp_instructions,html.Screen,3,2023-09-08T17:49:39.971Z,,,,,49331.51199999999,response,,,,,,continue,keypress(Space),,273638.7999999523,273638,224289.744,224329.20000004768,224306.488,273602.328,,,,,
trial,html.Screen,4_0_0,2023-09-08T17:49:44.904Z,,0,1,,4969.971999952337,response,ISIC_0032424.JPG,4,ISIC_8586909.JPG,ISIC_0032424.JPG,false,1,keypress(m),500,278572.5,278572.2999999523,273585.675,273639.09999990463,273602.328,278528.603,8,400,1,,ISIC_8586909.JPG
break,html.Screen,4_0_1,2023-09-08T17:49:44.905Z,,0,,,NaN,,,,,,false,,,,278573.5,278573.2999999523,,278572.7000000477,,278528.603,8,400,,,
break_continue,html.Screen,4_0_2,2023-09-08T17:49:44.906Z,,0,,,NaN,,,,,,false,,,,278574,278573.7999999523,,278573.59999990463,,278528.603,8,400,,,
sequence,flow.Sequence,4_0,2023-09-08T17:49:44.906Z,,0,,,4971.471999952337,completion,,,,,false,,,,278574.2000000477,278573.7999999523,273585.675,273639.09999990463,273602.328,278528.603,8,400,,,
trial,html.Screen,4_1_0,2023-09-08T17:49:49.852Z,,0,1,,4991.097000047681,response,ISIC_6520237.JPG,5,ISIC_7566505.JPG,ISIC_6520237.JPG,false,1,keypress(m),500,283519.7999999523,283519.7000000477,278511.902,278574.2999999523,278528.603,283471.525,8,400,2,,ISIC_7566505.JPG
break,html.Screen,4_1_1,2023-09-08T17:49:49.852Z,,0,,,NaN,,,,,,false,,,,283520.2999999523,283520.2000000477,,283520,,283471.525,8,400,,,
break_continue,html.Screen,4_1_2,2023-09-08T17:49:49.852Z,,0,,,NaN,,,,,,false,,,,283520.59999990463,283520.5,,283520.40000009537,,283471.525,8,400,,,
sequence,flow.Sequence,4_1,2023-09-08T17:49:49.852Z,,0,,,4991.896999999997,completion,,,,,false,,,,283520.59999990463,283520.5,278511.902,278574.2999999523,278528.603,283471.525,8,400,,,
trial,html.Screen,4_2_0,2023-09-08T17:49:57.665Z,,0,1,,7861.974999999977,response,ISIC_9518180.JPG,4,ISIC_4949672.JPG,ISIC_9518180.JPG,false,1,keypress(m),500,291333.7000000477,291333.5,283455.061,283520.7999999523,283471.525,291286.719,8,400,3,,ISIC_4949672.JPG
break,html.Screen,4_2_1,2023-09-08T17:49:57.666Z,,0,,,NaN,,,,,,false,,,,291334.09999990463,291333.90000009537,,291333.7999999523,,291286.719,8,400,,,
break_continue,html.Screen,4_2_2,2023-09-08T17:49:57.666Z,,0,,,NaN,,,,,,false,,,,291334.2999999523,291334.2999999523,,291334.2000000477,,291286.719,8,400,,,
sequence,flow.Sequence,4_2,2023-09-08T17:49:57.666Z,,0,,,7862.774999952293,completion,,,,,false,,,,291334.5,291334.2999999523,283455.061,283520.7999999523,283471.525,291286.719,8,400,,,
trial,html.Screen,4_3_0,2023-09-08T17:50:06.053Z,,0,1,,8433.981000047701,response,ISIC_0062524.JPG,4,ISIC_0014395.JPG,ISIC_0062524.JPG,false,1,keypress(m),500,299720.90000009537,299720.7000000477,291270.156,291334.59999990463,291286.719,299669.696,8,400,4,,ISIC_0014395.JPG
break,html.Screen,4_3_1,2023-09-08T17:50:06.053Z,,0,,,NaN,,,,,,false,,,,299721.2999999523,299721.2000000477,,299721,,299669.696,8,400,,,
break_continue,html.Screen,4_3_2,2023-09-08T17:50:06.053Z,,0,,,NaN,,,,,,false,,,,299721.5,299721.40000009537,,299721.2999999523,,299669.696,8,400,,,
sequence,flow.Sequence,4_3,2023-09-08T17:50:06.053Z,,0,,,8434.681000095385,completion,,,,,false,,,,299721.5,299721.40000009537,291270.156,291334.5,291286.719,299669.696,8,400,,,
trial,html.Screen,4_4_0,2023-09-08T17:50:14.359Z,,0,1,,8357.403999904636,response,ISIC_0065066.JPG,6,ISIC_0067427.JPG,ISIC_0065066.JPG,false,1,keypress(m),500,308027.2999999523,308027.09999990463,299653.018,299721.59999990463,299669.696,307985.947,8,400,5,,ISIC_0067427.JPG
break,html.Screen,4_4_1,2023-09-08T17:50:14.360Z,,0,,,NaN,,,,,,false,,,,308027.7999999523,308027.7000000477,,308027.40000009537,,307985.947,8,400,,,
break_continue,html.Screen,4_4_2,2023-09-08T17:50:14.360Z,,0,,,NaN,,,,,,false,,,,308028.2000000477,308028.09999990463,,308028,,307985.947,8,400,,,
sequence,flow.Sequence,4_4,2023-09-08T17:50:14.360Z,,0,,,8358.403999904636,completion,,,,,false,,,,308028.2999999523,308028.09999990463,299653.018,299721.59999990463,299669.696,307985.947,8,400,,,
trial,html.Screen,4_5_0,2023-09-08T17:50:23.245Z,,0,1,,8927.652999904647,response,ISIC_0015436.JPG,4,ISIC_0000445.JPG,ISIC_0015436.JPG,false,1,keypress(m),500,316913.59999990463,316913.59999990463,307969.337,308028.40000009537,307985.947,316886.642,8,400,6,,ISIC_0000445.JPG
break,html.Screen,4_5_1,2023-09-08T17:50:23.246Z,,0,,,NaN,,,,,,false,,,,316914,316914,,316913.7999999523,,316886.642,8,400,,,
break_continue,html.Screen,4_5_2,2023-09-08T17:50:23.246Z,,0,,,NaN,,,,,,false,,,,316914.2999999523,316914.2000000477,,316914.09999990463,,316886.642,8,400,,,
sequence,flow.Sequence,4_5,2023-09-08T17:50:23.246Z,,0,,,8928.253000047698,completion,,,,,false,,,,316914.2999999523,316914.2000000477,307969.337,308028.40000009537,307985.947,316886.642,8,400,,,
trial,html.Screen,4_6_0,2023-09-08T17:50:31.795Z,,0,1,,8576.95799990464,response,ISIC_0012025.JPG,5,ISIC_0067195.JPG,ISIC_0012025.JPG,false,1,keypress(m),500,325463.7000000477,325463.59999990463,316869.828,316914.40000009537,316886.642,325419.843,8,400,7,,ISIC_0067195.JPG
break,html.Screen,4_6_1,2023-09-08T17:50:31.796Z,,0,,,NaN,,,,,,false,,,,325464.09999990463,325464,,325463.7999999523,,325419.843,8,400,,,
break_continue,html.Screen,4_6_2,2023-09-08T17:50:31.796Z,,0,,,NaN,,,,,,false,,,,325464.5,325464.40000009537,,325464.2999999523,,325419.843,8,400,,,
sequence,flow.Sequence,4_6,2023-09-08T17:50:31.796Z,,0,,,8577.758000095375,completion,,,,,false,,,,325464.59999990463,325464.40000009537,316869.828,316914.40000009537,316886.642,325419.843,8,400,,,
trial,html.Screen,4_7_0,2023-09-08T17:50:41.193Z,,0,1,,9441.157000000007,response,ISIC_0046331.JPG,5,ISIC_0028396.JPG,ISIC_0046331.JPG,false,1,keypress(m),500,334861.09999990463,334861,325403.188,325464.59999990463,325419.843,334821.478,8,400,8,,ISIC_0028396.JPG
break,html.Screen,4_7_1,2023-09-08T17:50:41.193Z,,0,,,NaN,,,,,,false,,,,334861.40000009537,334861.2999999523,,334861.09999990463,,334821.478,8,400,,,
break_continue,html.Screen,4_7_2,2023-09-08T17:50:41.194Z,,0,,,NaN,,,,,,false,,,,334862.09999990463,334861.5,,334861.40000009537,,334821.478,8,400,,,
sequence,flow.Sequence,4_7,2023-09-08T17:50:41.194Z,,0,,,9441.657000000007,completion,,,,,false,,,,334862.2000000477,334861.5,325403.188,325464.59999990463,325419.843,334821.478,8,400,,,
trial,html.Screen,4_8_0,2023-09-08T17:50:49.709Z,,0,1,,8556.021999999997,response,ISIC_8010862.JPG,5,ISIC_3439215.JPG,ISIC_8010862.JPG,false,1,keypress(m),500,343377.59999990463,343377.5,334804.848,334862.2000000477,334821.478,343338.097,8,400,9,,ISIC_3439215.JPG
break,html.Screen,4_8_1,2023-09-08T17:50:49.710Z,,0,,,NaN,,,,,,false,,,,343378,343377.90000009537,,343377.7000000477,,343338.097,8,400,,,
break_continue,html.Screen,4_8_2,2023-09-08T17:50:49.710Z,,0,,,NaN,,,,,,false,,,,343378.09999990463,343378.09999990463,,343378,,343338.097,8,400,,,
sequence,flow.Sequence,4_8,2023-09-08T17:50:49.710Z,,0,,,8556.62199990463,completion,,,,,false,,,,343378.2000000477,343378.09999990463,334804.848,334862.2000000477,334821.478,343338.097,8,400,,,
trial,html.Screen,4_9_0,2023-09-08T17:51:00.112Z,,0,1,,10442.202999952307,response,ISIC_5658900.JPG,5,ISIC_0016082.JPG,ISIC_0016082.JPG,false,0,keypress(z),500,353780.5,353780.2999999523,343321.543,343378.2999999523,343338.097,353741.618,8,400,10,,ISIC_5658900.JPG
break,html.Screen,4_9_1,2023-09-08T17:51:00.113Z,,0,,,NaN,,,,,,false,,,,353780.7999999523,353780.7000000477,,353780.59999990463,,353741.618,8,400,,,
break_continue,html.Screen,4_9_2,2023-09-08T17:51:00.113Z,,0,,,NaN,,,,,,false,,,,353781.2000000477,353781.09999990463,,353780.90000009537,,353741.618,8,400,,,
sequence,flow.Sequence,4_9,2023-09-08T17:51:00.113Z,,0,,,10443.002999904624,completion,,,,,false,,,,353781.40000009537,353781.09999990463,343321.543,343378.2000000477,343338.097,353741.618,8,400,,,
trial,html.Screen,4_10_0,2023-09-08T17:51:08.040Z,,0,1,,7966.381999999983,response,ISIC_8521610.JPG,4,ISIC_0009985.JPG,ISIC_0009985.JPG,false,0,keypress(z),500,361708.09999990463,361708,353725.153,353781.40000009537,353741.618,361657.021,8,400,11,,ISIC_8521610.JPG
break,html.Screen,4_10_1,2023-09-08T17:51:08.040Z,,0,,,NaN,,,,,,false,,,,361708.40000009537,361708.40000009537,,361708.2000000477,,361657.021,8,400,,,
break_continue,html.Screen,4_10_2,2023-09-08T17:51:08.040Z,,0,,,NaN,,,,,,false,,,,361708.5,361708.5,,361708.40000009537,,361657.021,8,400,,,
sequence,flow.Sequence,4_10,2023-09-08T17:51:08.040Z,,0,,,7966.881999999983,completion,,,,,false,,,,361708.59999990463,361708.5,353725.153,353781.40000009537,353741.618,361657.021,8,400,,,
trial,html.Screen,4_11_0,2023-09-08T17:51:17.452Z,,0,1,,9461.978999999992,response,ISIC_8664315.JPG,5,ISIC_6888402.JPG,ISIC_6888402.JPG,false,0,keypress(z),500,371119.2000000477,371119,361640.323,361708.7000000477,361657.021,371075.391,8,400,12,,ISIC_8664315.JPG
break,html.Screen,4_11_1,2023-09-08T17:51:17.453Z,,0,,,NaN,,,,,,false,,,,371119.7999999523,371119.59999990463,,371119.40000009537,,371075.391,8,400,,,
break_continue,html.Screen,4_11_2,2023-09-08T17:51:17.453Z,,0,,,NaN,,,,,,false,,,,371120.2000000477,371120.09999990463,,371120.09999990463,,371075.391,8,400,,,
sequence,flow.Sequence,4_11,2023-09-08T17:51:17.454Z,,0,,,9463.078999904625,completion,,,,,false,,,,371120.40000009537,371120.09999990463,361640.323,361708.7000000477,361657.021,371075.391,8,400,,,
trial,html.Screen,4_12_0,2023-09-08T17:51:27.748Z,,0,1,,10339.009000095364,response,ISIC_8692155.JPG,5,ISIC_0012208.JPG,ISIC_0012208.JPG,false,0,keypress(z),500,381414.5,381414.40000009537,371058.712,371120.59999990463,371075.391,381378.749,8,400,13,,ISIC_8692155.JPG
break,html.Screen,4_12_1,2023-09-08T17:51:27.748Z,,0,,,NaN,,,,,,false,,,,381414.90000009537,381414.7999999523,,381414.59999990463,,381378.749,8,400,,,
break_continue,html.Screen,4_12_2,2023-09-08T17:51:27.748Z,,0,,,NaN,,,,,,false,,,,381415,381415,,381414.90000009537,,381378.749,8,400,,,
sequence,flow.Sequence,4_12,2023-09-08T17:51:27.748Z,,0,,,10339.608999999997,completion,,,,,false,,,,381415.09999990463,381415,371058.712,371120.5,371075.391,381378.749,8,400,,,
trial,html.Screen,4_13_0,2023-09-08T17:51:35.750Z,,0,1,,8037.850999904622,response,ISIC_0030697.JPG,4,ISIC_0011164.JPG,ISIC_0011164.JPG,false,0,keypress(z),500,389416.59999990463,389416.59999990463,381362.129,381415.09999990463,381378.749,389377.578,8,400,14,,ISIC_0030697.JPG
break,html.Screen,4_13_1,2023-09-08T17:51:35.750Z,,0,,,NaN,,,,,,false,,,,389416.90000009537,389416.90000009537,,389416.7000000477,,389377.578,8,400,,,
break_continue,html.Screen,4_13_2,2023-09-08T17:51:35.750Z,,0,,,NaN,,,,,,false,,,,389417.09999990463,389417.09999990463,,389417,,389377.578,8,400,,,
sequence,flow.Sequence,4_13,2023-09-08T17:51:35.750Z,,0,,,8038.350999904622,completion,,,,,false,,,,389417.09999990463,389417.09999990463,381362.129,381415.09999990463,381378.749,389377.578,8,400,,,
trial,html.Screen,4_14_0,2023-09-08T17:51:42.199Z,,0,1,,6488.521999904653,response,ISIC_9228573.JPG,6,ISIC_5907931.JPG,ISIC_9228573.JPG,false,1,keypress(m),500,395866.2000000477,395866.09999990463,389360.976,389417.2999999523,389377.578,395823.598,8,400,15,,ISIC_5907931.JPG
break,html.Screen,4_14_1,2023-09-08T17:51:42.200Z,,0,,,NaN,,,,,,false,,,,395866.59999990463,395866.5,,395866.40000009537,,395823.598,8,400,,,
break_continue,html.Screen,4_14_2,2023-09-08T17:51:42.200Z,,0,,,NaN,,,,,,false,,,,395866.7999999523,395866.7000000477,,395866.7000000477,,395823.598,8,400,,,
sequence,flow.Sequence,4_14,2023-09-08T17:51:42.200Z,,0,,,6489.122000047704,completion,,,,,false,,,,395866.7999999523,395866.7000000477,389360.976,389417.2000000477,389377.578,395823.598,8,400,,,
trial,html.Screen,4_15_0,2023-09-08T17:51:50.458Z,,0,1,,8301.30200009537,response,ISIC_0033812.JPG,5,ISIC_5191344.JPG,ISIC_5191344.JPG,false,0,keypress(z),500,404125.09999990463,404124.90000009537,395806.856,395866.90000009537,395823.598,404072.912,8,400,16,,ISIC_0033812.JPG
break,html.Screen,4_15_1,2023-09-08T17:51:50.459Z,,0,,,NaN,,,,,,false,,,,404125.59999990463,404125.40000009537,,404125.2000000477,,404072.912,8,400,,,
break_continue,html.Screen,4_15_2,2023-09-08T17:51:50.459Z,,0,,,NaN,,,,,,false,,,,404126,404125.90000009537,,404125.90000009537,,404072.912,8,400,,,
sequence,flow.Sequence,4_15,2023-09-08T17:51:50.459Z,,0,,,8302.30200009537,completion,,,,,false,,,,404126.09999990463,404125.90000009537,395806.856,395866.90000009537,395823.598,404072.912,8,400,,,
trial,html.Screen,4_16_0,2023-09-08T17:51:59.664Z,,0,1,,9257.488000095356,response,ISIC_3152541.JPG,5,ISIC_0061224.JPG,ISIC_0061224.JPG,false,0,keypress(z),500,413330.5,413330.40000009537,404056.245,404126.2999999523,404072.912,413290.847,8,400,17,,ISIC_3152541.JPG
break,html.Screen,4_16_1,2023-09-08T17:51:59.664Z,,0,,,NaN,,,,,,false,,,,413330.90000009537,413330.7999999523,,413330.59999990463,,413290.847,8,400,,,
break_continue,html.Screen,4_16_2,2023-09-08T17:51:59.664Z,,0,,,NaN,,,,,,false,,,,413331.2000000477,413331.09999990463,,413331,,413290.847,8,400,,,
sequence,flow.Sequence,4_16,2023-09-08T17:51:59.664Z,,0,,,9258.187999904621,completion,,,,,false,,,,413331.2999999523,413331.09999990463,404056.245,404126.2000000477,404072.912,413290.847,8,400,,,
trial,html.Screen,4_17_0,2023-09-08T17:52:09.111Z,,0,1,,9486.452999952307,response,ISIC_0033640.JPG,5,ISIC_9690371.JPG,ISIC_0033640.JPG,false,1,keypress(m),500,422777.5,422777.2999999523,413274.152,413331.40000009537,413290.847,422725.858,8,400,18,,ISIC_9690371.JPG
break,html.Screen,4_17_1,2023-09-08T17:52:09.111Z,,0,,,NaN,,,,,,false,,,,422777.90000009537,422777.7999999523,,422777.59999990463,,422725.858,8,400,,,
break_continue,html.Screen,4_17_2,2023-09-08T17:52:09.111Z,,0,,,NaN,,,,,,false,,,,422778.09999990463,422778.09999990463,,422778,,422725.858,8,400,,,
sequence,flow.Sequence,4_17,2023-09-08T17:52:09.111Z,,0,,,9487.252999904624,completion,,,,,false,,,,422778.09999990463,422778.09999990463,413274.152,413331.40000009537,413290.847,422725.858,8,400,,,
trial,html.Screen,4_18_0,2023-09-08T17:52:17.705Z,,0,1,,8645.141999999993,response,ISIC_6644834.JPG,5,ISIC_4846741.JPG,ISIC_4846741.JPG,false,0,keypress(z),500,431371.2000000477,431371,422709.154,422778.2999999523,422725.858,431325.932,8,400,19,,ISIC_6644834.JPG
break,html.Screen,4_18_1,2023-09-08T17:52:17.705Z,,0,,,NaN,,,,,,false,,,,431371.5,431371.40000009537,,431371.2000000477,,431325.932,8,400,,,
break_continue,html.Screen,4_18_2,2023-09-08T17:52:17.705Z,,0,,,NaN,,,,,,false,,,,431371.7000000477,431371.59999990463,,431371.59999990463,,431325.932,8,400,,,
sequence,flow.Sequence,4_18,2023-09-08T17:52:17.706Z,,0,,,8645.741999904625,completion,,,,,false,,,,431371.90000009537,431371.59999990463,422709.154,422778.2000000477,422725.858,431325.932,8,400,,,
trial,html.Screen,4_19_0,2023-09-08T17:52:25.291Z,,0,1,,7630.867999952345,response,ISIC_0032806.JPG,5,ISIC_0024297.JPG,ISIC_0032806.JPG,false,1,keypress(m),500,438957,438956.7999999523,431309.225,431371.90000009537,431325.932,438907.325,8,400,20,,ISIC_0024297.JPG
break,html.Screen,4_19_1,2023-09-08T17:52:25.291Z,,0,,,NaN,,,,,,false,,,,438957.2999999523,438957.2000000477,,438957.09999990463,,438907.325,8,400,,,
break_continue,html.Screen,4_19_2,2023-09-08T17:52:25.291Z,,0,,,NaN,,,,,,false,,,,438957.40000009537,438957.40000009537,,438957.40000009537,,438907.325,8,400,,,
sequence,flow.Sequence,4_19,2023-09-08T17:52:25.291Z,,0,,,7631.468000095396,completion,,,,,false,,,,438957.5,438957.40000009537,431309.225,431371.90000009537,431325.932,438907.325,8,400,,,
trial,html.Screen,4_20_0,2023-09-08T17:52:34.125Z,,0,1,,8883.674999999988,response,ISIC_4645995.JPG,4,ISIC_0890398.JPG,ISIC_0890398.JPG,false,0,keypress(z),500,447791.2000000477,447791,438890.735,438957.5,438907.325,447741.202,8,400,21,,ISIC_4645995.JPG
break,html.Screen,4_20_1,2023-09-08T17:52:34.126Z,,0,,,NaN,,,,,,false,,,,447791.90000009537,447791.59999990463,,447791.40000009537,,447741.202,8,400,,,
break_continue,html.Screen,4_20_2,2023-09-08T17:52:34.126Z,,0,,,NaN,,,,,,false,,,,447792.2000000477,447792.09999990463,,447792,,447741.202,8,400,,,
sequence,flow.Sequence,4_20,2023-09-08T17:52:34.126Z,,0,,,8884.774999904621,completion,,,,,false,,,,447792.2000000477,447792.09999990463,438890.735,438957.5,438907.325,447741.202,8,400,,,
trial,html.Screen,4_21_0,2023-09-08T17:52:42.560Z,,0,1,,8484.79800000001,response,ISIC_1768733.JPG,5,ISIC_0031543.JPG,ISIC_0031543.JPG,false,0,keypress(z),500,456226.09999990463,456226,447724.486,447792.2999999523,447741.202,456174.379,8,400,22,,ISIC_1768733.JPG
break,html.Screen,4_21_1,2023-09-08T17:52:42.560Z,,0,,,NaN,,,,,,false,,,,456226.40000009537,456226.40000009537,,456226.2999999523,,456174.379,8,400,,,
break_continue,html.Screen,4_21_2,2023-09-08T17:52:42.560Z,,0,,,NaN,,,,,,false,,,,456226.59999990463,456226.59999990463,,456226.5,,456174.379,8,400,,,
sequence,flow.Sequence,4_21,2023-09-08T17:52:42.560Z,,0,,,8485.397999904642,completion,,,,,false,,,,456226.59999990463,456226.59999990463,447724.486,447792.2000000477,447741.202,456174.379,8,400,,,
trial,html.Screen,4_22_0,2023-09-08T17:52:52.722Z,,0,1,,10213.620999999985,response,ISIC_0008431.JPG,4,ISIC_0029212.JPG,ISIC_0029212.JPG,false,0,keypress(z),500,466388,466388,456158.433,456226.7000000477,456174.379,466344.091,8,400,23,,ISIC_0008431.JPG
break,html.Screen,4_22_1,2023-09-08T17:52:52.722Z,,0,,,NaN,,,,,,false,,,,466388.5,466388.2999999523,,466388.09999990463,,466344.091,8,400,,,
break_continue,html.Screen,4_22_2,2023-09-08T17:52:52.722Z,,0,,,NaN,,,,,,false,,,,466388.7000000477,466388.59999990463,,466388.59999990463,,466344.091,8,400,,,
sequence,flow.Sequence,4_22,2023-09-08T17:52:52.723Z,,0,,,10214.220999904617,completion,,,,,false,,,,466388.90000009537,466388.59999990463,456158.433,456226.7000000477,456174.379,466344.091,8,400,,,
trial,html.Screen,4_23_0,2023-09-08T17:52:59.588Z,,0,1,,6910.008999904618,response,ISIC_0054885.JPG,6,ISIC_0031338.JPG,ISIC_0054885.JPG,false,1,keypress(m),500,473254.2999999523,473254.09999990463,466327.404,466388.90000009537,466344.091,473207.519,8,400,24,,ISIC_0031338.JPG
break,html.Screen,4_23_1,2023-09-08T17:52:59.589Z,,0,,,NaN,,,,,,false,,,,473255,473254.7999999523,,473254.59999990463,,473207.519,8,400,,,
break_continue,html.Screen,4_23_2,2023-09-08T17:52:59.589Z,,0,,,NaN,,,,,,false,,,,473255.59999990463,473255.5,,473255.2999999523,,473207.519,8,400,,,
sequence,flow.Sequence,4_23,2023-09-08T17:52:59.589Z,,0,,,6911.408999999985,completion,,,,,false,,,,473255.7999999523,473255.5,466327.404,466388.90000009537,466344.091,473207.519,8,400,,,
trial,html.Screen,4_24_0,2023-09-08T17:53:08.284Z,,0,1,,8742.780999952345,response,ISIC_0031397.JPG,5,ISIC_2436560.JPG,ISIC_0031397.JPG,false,1,keypress(m),500,481950.5,481950.2999999523,473190.887,473255.90000009537,473207.519,481907.778,8,400,25,,ISIC_2436560.JPG
break,html.Screen,4_24_1,2023-09-08T17:53:08.285Z,,0,,,NaN,,,,,,false,,,,481951,481950.7999999523,,481950.59999990463,,481907.778,8,400,,,
break_continue,html.Screen,4_24_2,2023-09-08T17:53:08.285Z,,0,,,NaN,,,,,,false,,,,481951.2999999523,481951.2999999523,,481951.09999990463,,481907.778,8,400,,,
sequence,flow.Sequence,4_24,2023-09-08T17:53:08.285Z,,0,,,8743.780999952345,completion,,,,,false,,,,481951.40000009537,481951.2999999523,473190.887,473255.7999999523,473207.519,481907.778,8,400,,,
trial,html.Screen,4_25_0,2023-09-08T17:53:18.256Z,,0,1,,10013.922000047693,response,ISIC_0059066.JPG,6,ISIC_4347535.JPG,ISIC_4347535.JPG,false,0,keypress(z),500,491921.7999999523,491921.7000000477,481891.066,481952.09999990463,481907.778,491893.927,8,400,26,,ISIC_0059066.JPG
break,html.Screen,4_25_1,2023-09-08T17:53:18.256Z,,0,,,NaN,,,,,,false,,,,491922.09999990463,491922,,491921.90000009537,,491893.927,8,400,,,
break_continue,html.Screen,4_25_2,2023-09-08T17:53:18.257Z,,0,,,NaN,,,,,,false,,,,491922.2000000477,491922.2000000477,,491922.09999990463,,491893.927,8,400,,,
sequence,flow.Sequence,4_25,2023-09-08T17:53:18.257Z,,0,,,10014.422000047693,completion,,,,,false,,,,491922.2999999523,491922.2000000477,481891.066,481952.09999990463,481907.778,491893.927,8,400,,,
trial,html.Screen,4_26_0,2023-09-08T17:53:26.968Z,,0,1,,8739.072999999975,response,ISIC_0028929.JPG,4,ISIC_1605629.JPG,ISIC_0028929.JPG,false,1,keypress(m),500,500633.5,500633,491877.214,491922.40000009537,491893.927,500594.073,8,400,27,,ISIC_1605629.JPG
break,html.Screen,4_26_1,2023-09-08T17:53:26.969Z,,0,,,NaN,,,,,,false,,,,500635.2000000477,500634.7000000477,,500634.2000000477,,500594.073,8,400,,,
break_continue,html.Screen,4_26_2,2023-09-08T17:53:26.970Z,,0,,,NaN,,,,,,false,,,,500635.90000009537,500635.59999990463,,500635.40000009537,,500594.073,8,400,,,
sequence,flow.Sequence,4_26,2023-09-08T17:53:26.971Z,,0,,,8741.672999904607,completion,,,,,false,,,,500636.40000009537,500635.59999990463,491877.214,491922.40000009537,491893.927,500594.073,8,400,,,
trial,html.Screen,4_27_0,2023-09-08T17:53:37.014Z,,0,1,,10085.827000095393,response,ISIC_0032331.JPG,6,ISIC_6592334.JPG,ISIC_0032331.JPG,false,1,keypress(m),500,510680,510679.90000009537,500577.546,500636.7000000477,500594.073,510646.939,8,400,28,,ISIC_6592334.JPG
break,html.Screen,4_27_1,2023-09-08T17:53:37.015Z,,0,,,NaN,,,,,,false,,,,510680.5,510680.40000009537,,510680.2000000477,,510646.939,8,400,,,
break_continue,html.Screen,4_27_2,2023-09-08T17:53:37.015Z,,0,,,NaN,,,,,,false,,,,510680.7999999523,510680.7000000477,,510680.59999990463,,510646.939,8,400,,,
sequence,flow.Sequence,4_27,2023-09-08T17:53:37.015Z,,0,,,10086.627000047709,completion,,,,,false,,,,510681,510680.7000000477,500577.546,500636.59999990463,500594.073,510646.939,8,400,,,
trial,html.Screen,4_28_0,2023-09-08T17:53:44.728Z,,0,1,,7747.060999999987,response,ISIC_6385296.JPG,5,ISIC_8156101.JPG,ISIC_6385296.JPG,false,1,keypress(m),500,518394.2000000477,518394,510630.272,510681,510646.939,518345.355,8,400,29,,ISIC_8156101.JPG
break,html.Screen,4_28_1,2023-09-08T17:53:44.729Z,,0,,,NaN,,,,,,false,,,,518394.7999999523,518394.5,,518394.2999999523,,518345.355,8,400,,,
break_continue,html.Screen,4_28_2,2023-09-08T17:53:44.729Z,,0,,,NaN,,,,,,false,,,,518395,518395,,518394.90000009537,,518345.355,8,400,,,
sequence,flow.Sequence,4_28,2023-09-08T17:53:44.729Z,,0,,,7748.060999999987,completion,,,,,false,,,,518395.09999990463,518395,510630.272,510681,510646.939,518345.355,8,400,,,
trial,html.Screen,4_29_0,2023-09-08T17:53:54.273Z,,0,1,,9593.345000047702,response,ISIC_0024308.JPG,5,ISIC_0062463.JPG,ISIC_0062463.JPG,false,0,keypress(z),500,527938.7999999523,527938.7000000477,518328.565,518395.2999999523,518345.355,527897.444,8,400,30,,ISIC_0024308.JPG
break,html.Screen,4_29_1,2023-09-08T17:53:54.274Z,,0,,,NaN,,,,,,false,,,,527939.4000000954,527939.2000000477,,527939,,527897.444,8,400,,,
break_continue,html.Screen,4_29_2,2023-09-08T17:53:54.274Z,,0,,,NaN,,,,,,false,,,,527939.7999999523,527939.5999999046,,527939.5,,527897.444,8,400,,,
sequence,flow.Sequence,4_29,2023-09-08T17:53:54.274Z,,0,,,9594.244999904651,completion,,,,,false,,,,527939.9000000954,527939.5999999046,518328.565,518395.2000000477,518345.355,527897.444,8,400,,,
trial,html.Screen,4_30_0,2023-09-08T17:54:04.138Z,,0,1,,9906.155999904615,response,ISIC_0057059.JPG,5,ISIC_0034211.JPG,ISIC_0034211.JPG,false,0,keypress(z),500,537803.7000000477,537803.5999999046,527880.531,527939.9000000954,527897.444,537766.604,8,400,31,,ISIC_0057059.JPG
break,html.Screen,4_30_1,2023-09-08T17:54:04.138Z,,0,,,NaN,,,,,,false,,,,537804,537803.9000000954,,537803.7999999523,,537766.604,8,400,,,
break_continue,html.Screen,4_30_2,2023-09-08T17:54:04.138Z,,0,,,NaN,,,,,,false,,,,537804.2000000477,537804.0999999046,,537804.0999999046,,537766.604,8,400,,,
sequence,flow.Sequence,4_30,2023-09-08T17:54:04.139Z,,0,,,9906.655999904615,completion,,,,,false,,,,537804.2000000477,537804.0999999046,527880.531,527939.9000000954,527897.444,537766.604,8,400,,,
trial,html.Screen,4_31_0,2023-09-08T17:54:14.013Z,,0,1,,9911.296000095317,response,ISIC_6406517.JPG,5,ISIC_2456538.JPG,ISIC_6406517.JPG,false,1,keypress(m),500,547678.2000000477,547677.9000000954,537749.727,537804.2999999523,537766.604,547652.386,8,400,32,,ISIC_2456538.JPG
break,html.Screen,4_31_1,2023-09-08T17:54:14.014Z,,0,,,NaN,,,,,,false,,,,547678.7999999523,547678.5,,547678.2999999523,,547652.386,8,400,,,
break_continue,html.Screen,4_31_2,2023-09-08T17:54:14.014Z,,0,,,NaN,,,,,,false,,,,547679.0999999046,547679,,547678.9000000954,,547652.386,8,400,,,
sequence,flow.Sequence,4_31,2023-09-08T17:54:14.014Z,,0,,,9912.39599999995,completion,,,,,false,,,,547679.2000000477,547679,537749.727,537804.2999999523,537766.604,547652.386,8,400,,,
trial,html.Screen,4_32_0,2023-09-08T17:54:20.624Z,,0,1,,6636.713999904576,response,ISIC_0033081.JPG,5,ISIC_7004652.JPG,ISIC_0033081.JPG,false,1,keypress(m),500,554289.2000000477,554289.0999999046,547635.869,547679.4000000954,547652.386,554248.587,8,400,33,,ISIC_7004652.JPG
break,html.Screen,4_32_1,2023-09-08T17:54:20.624Z,,0,,,NaN,,,,,,false,,,,554289.5,554289.5,,554289.4000000954,,554248.587,8,400,,,
break_continue,html.Screen,4_32_2,2023-09-08T17:54:20.625Z,,0,,,NaN,,,,,,false,,,,554289.7000000477,554289.5999999046,,554289.5999999046,,554248.587,8,400,,,
sequence,flow.Sequence,4_32,2023-09-08T17:54:20.625Z,,0,,,6637.213999904576,completion,,,,,false,,,,554289.7000000477,554289.5999999046,547635.869,547679.4000000954,547652.386,554248.587,8,400,,,
trial,html.Screen,4_33_0,2023-09-08T17:54:30.514Z,,0,1,,9930.512999904575,response,ISIC_6546903.JPG,6,ISIC_1988058.JPG,ISIC_1988058.JPG,false,0,keypress(z),500,564179.2000000477,564179.0999999046,554231.72,554289.7999999523,554248.587,564151.171,8,400,34,,ISIC_6546903.JPG
break,html.Screen,4_33_1,2023-09-08T17:54:30.514Z,,0,,,NaN,,,,,,false,,,,564179.5999999046,564179.5,,564179.2999999523,,564151.171,8,400,,,
break_continue,html.Screen,4_33_2,2023-09-08T17:54:30.515Z,,0,,,NaN,,,,,,false,,,,564179.7000000477,564179.5999999046,,564179.5999999046,,564151.171,8,400,,,
sequence,flow.Sequence,4_33,2023-09-08T17:54:30.515Z,,0,,,9931.012999904575,completion,,,,,false,,,,564179.7000000477,564179.5999999046,554231.72,554289.7999999523,554248.587,564151.171,8,400,,,
trial,html.Screen,4_34_0,2023-09-08T17:54:38.906Z,,0,1,,8420.02900004771,response,ISIC_0033885.JPG,5,ISIC_3370062.JPG,ISIC_0033885.JPG,false,1,keypress(m),500,572571.4000000954,572571.2000000477,564134.617,564179.7999999523,564151.171,572534.061,8,400,35,,ISIC_3370062.JPG
break,html.Screen,4_34_1,2023-09-08T17:54:38.907Z,,0,,,NaN,,,,,,false,,,,572571.7999999523,572571.7000000477,,572571.5,,572534.061,8,400,,,
break_continue,html.Screen,4_34_2,2023-09-08T17:54:38.907Z,,0,,,NaN,,,,,,false,,,,572572.0999999046,572572,,572571.9000000954,,572534.061,8,400,,,
sequence,flow.Sequence,4_34,2023-09-08T17:54:38.907Z,,0,,,8420.829000000027,completion,,,,,false,,,,572572.2000000477,572572,564134.617,564179.7999999523,564151.171,572534.061,8,400,,,
trial,html.Screen,4_35_0,2023-09-08T17:54:46.852Z,,0,1,,7982.738999952329,response,ISIC_2379024.JPG,4,ISIC_0030981.JPG,ISIC_0030981.JPG,false,0,keypress(z),500,580517,580516.7999999523,572517.347,572572.2999999523,572534.061,580482.858,8,400,36,,ISIC_2379024.JPG
break,html.Screen,4_35_1,2023-09-08T17:54:46.852Z,,0,,,NaN,,,,,,false,,,,580517.4000000954,580517.2999999523,,580517.0999999046,,580482.858,8,400,,,
break_continue,html.Screen,4_35_2,2023-09-08T17:54:46.853Z,,0,,,NaN,,,,,,false,,,,580517.7000000477,580517.5,,580517.4000000954,,580482.858,8,400,,,
sequence,flow.Sequence,4_35,2023-09-08T17:54:46.853Z,,0,,,7983.439000000013,completion,,,,,false,,,,580517.7999999523,580517.5,572517.347,572572.2999999523,572534.061,580482.858,8,400,,,
trial,html.Screen,4_36_0,2023-09-08T17:54:54.555Z,,0,1,,7736.441999952309,response,ISIC_9568327.JPG,5,ISIC_0027479.JPG,ISIC_9568327.JPG,false,1,keypress(m),500,588219.7999999523,588219.2999999523,580466.328,580517.9000000954,580482.858,588181.288,8,400,37,,ISIC_0027479.JPG
break,html.Screen,4_36_1,2023-09-08T17:54:54.556Z,,0,,,NaN,,,,,,false,,,,588221.2999999523,588221,,588220.2999999523,,588181.288,8,400,,,
break_continue,html.Screen,4_36_2,2023-09-08T17:54:54.557Z,,0,,,NaN,,,,,,false,,,,588222,588221.7999999523,,588221.5999999046,,588181.288,8,400,,,
sequence,flow.Sequence,4_36,2023-09-08T17:54:54.557Z,,0,,,7738.941999952309,completion,,,,,false,,,,588222.2999999523,588221.7999999523,580466.328,580517.7999999523,580482.858,588181.288,8,400,,,
trial,html.Screen,4_37_0,2023-09-08T17:55:05.828Z,,0,1,,11311.511999952374,response,ISIC_4653503.JPG,6,ISIC_0011094.JPG,ISIC_0011094.JPG,false,0,keypress(z),500,599492.9000000954,599492.7999999523,588164.45,588222.5,588181.288,599453.271,8,400,38,,ISIC_4653503.JPG
break,html.Screen,4_37_1,2023-09-08T17:55:05.828Z,,0,,,NaN,,,,,,false,,,,599493.5,599493.4000000954,,599493.0999999046,,599453.271,8,400,,,
break_continue,html.Screen,4_37_2,2023-09-08T17:55:05.829Z,,0,,,NaN,,,,,,false,,,,599493.7999999523,599493.7999999523,,599493.5999999046,,599453.271,8,400,,,
sequence,flow.Sequence,4_37,2023-09-08T17:55:05.829Z,,0,,,11312.511999952374,completion,,,,,false,,,,599493.9000000954,599493.7999999523,588164.45,588222.5,588181.288,599453.271,8,400,,,
trial,html.Screen,4_38_0,2023-09-08T17:55:12.984Z,,0,1,,7195.828999904683,response,ISIC_9348399.JPG,5,ISIC_2100640.JPG,ISIC_2100640.JPG,false,0,keypress(z),500,606649.2000000477,606649.0999999046,599436.63,599493.9000000954,599453.271,606617.091,8,400,39,,ISIC_9348399.JPG
break,html.Screen,4_38_1,2023-09-08T17:55:12.985Z,,0,,,NaN,,,,,,false,,,,606650,606649.7999999523,,606649.5,,606617.091,8,400,,,
break_continue,html.Screen,4_38_2,2023-09-08T17:55:12.985Z,,0,,,NaN,,,,,,false,,,,606650.2999999523,606650.2000000477,,606650.0999999046,,606617.091,8,400,,,
sequence,flow.Sequence,4_38,2023-09-08T17:55:12.985Z,,0,,,7196.929000047734,completion,,,,,false,,,,606650.5,606650.2000000477,599436.63,599493.9000000954,599453.271,606617.091,8,400,,,
trial,html.Screen,4_39_0,2023-09-08T17:55:20.764Z,,0,1,,7811.3090000953525,response,ISIC_0025006.JPG,5,ISIC_8906583.JPG,ISIC_0025006.JPG,false,1,keypress(m),500,614428.5999999046,614428.4000000954,606600.344,606650.5999999046,606617.091,614382.204,8,400,40,,ISIC_8906583.JPG
break,html.Screen,4_39_1,2023-09-08T17:55:20.764Z,,0,,,NaN,,,,,,false,,,,614428.7999999523,614428.7999999523,,614428.5999999046,,614382.204,8,400,,,
break_continue,html.Screen,4_39_2,2023-09-08T17:55:20.764Z,,0,,,NaN,,,,,,false,,,,614429,614429,,614428.9000000954,,614382.204,8,400,,,
sequence,flow.Sequence,4_39,2023-09-08T17:55:20.764Z,,0,,,7811.908999999985,completion,,,,,false,,,,614429.0999999046,614429,606600.344,606650.5,606617.091,614382.204,8,400,,,
trial,html.Screen,4_40_0,2023-09-08T17:55:27.984Z,,0,1,,7266.69600009534,response,ISIC_0059257.JPG,6,ISIC_0028916.JPG,ISIC_0028916.JPG,false,0,keypress(z),500,621649.2000000477,621648.9000000954,614365.563,614429.2000000477,614382.204,621596.223,8,400,41,,ISIC_0059257.JPG
break,html.Screen,4_40_1,2023-09-08T17:55:27.985Z,,0,,,NaN,,,,,,false,,,,621649.9000000954,621649.5999999046,,621649.2999999523,,621596.223,8,400,,,
break_continue,html.Screen,4_40_2,2023-09-08T17:55:27.985Z,,0,,,NaN,,,,,,false,,,,621650.2999999523,621650.2000000477,,621650.0999999046,,621596.223,8,400,,,
sequence,flow.Sequence,4_40,2023-09-08T17:55:27.986Z,,0,,,7267.996000047657,completion,,,,,false,,,,621650.4000000954,621650.2000000477,614365.563,614429.0999999046,614382.204,621596.223,8,400,,,
trial,html.Screen,4_41_0,2023-09-08T17:55:36.963Z,,0,1,,9031.876999904634,response,ISIC_0061705.JPG,4,ISIC_0014211.JPG,ISIC_0061705.JPG,false,1,keypress(m),500,630628.2999999523,630628.0999999046,621579.513,621650.5999999046,621596.223,630580.354,8,400,42,,ISIC_0014211.JPG
break,html.Screen,4_41_1,2023-09-08T17:55:36.964Z,,0,,,NaN,,,,,,false,,,,630629.0999999046,630628.9000000954,,630628.5999999046,,630580.354,8,400,,,
break_continue,html.Screen,4_41_2,2023-09-08T17:55:36.964Z,,0,,,NaN,,,,,,false,,,,630629.4000000954,630629.2999999523,,630629.2000000477,,630580.354,8,400,,,
sequence,flow.Sequence,4_41,2023-09-08T17:55:36.965Z,,0,,,9033.076999952318,completion,,,,,false,,,,630629.5,630629.2999999523,621579.513,621650.5999999046,621596.223,630580.354,8,400,,,
trial,html.Screen,4_42_0,2023-09-08T17:55:46.122Z,,0,1,,9206.546000095317,response,ISIC_0990298.JPG,5,ISIC_0604532.JPG,ISIC_0990298.JPG,false,1,keypress(m),500,639787.2000000477,639786.9000000954,630563.715,630629.5999999046,630580.354,639748.378,8,400,43,,ISIC_0604532.JPG
break,html.Screen,4_42_1,2023-09-08T17:55:46.123Z,,0,,,NaN,,,,,,false,,,,639787.7999999523,639787.5999999046,,639787.4000000954,,639748.378,8,400,,,
break_continue,html.Screen,4_42_2,2023-09-08T17:55:46.123Z,,0,,,NaN,,,,,,false,,,,639788.2999999523,639788.0999999046,,639788,,639748.378,8,400,,,
sequence,flow.Sequence,4_42,2023-09-08T17:55:46.124Z,,0,,,9207.745999904582,completion,,,,,false,,,,639788.5,639788.0999999046,630563.715,630629.5999999046,630580.354,639748.378,8,400,,,
trial,html.Screen,4_43_0,2023-09-08T17:55:52.336Z,,0,1,,6252.42199995229,response,ISIC_6635699.JPG,6,ISIC_3737487.JPG,ISIC_3737487.JPG,false,0,keypress(z),500,646001,646000.7999999523,639731.65,639788.5999999046,639748.378,645960.284,8,400,44,,ISIC_6635699.JPG
break,html.Screen,4_43_1,2023-09-08T17:55:52.336Z,,0,,,NaN,,,,,,false,,,,646001.2999999523,646001.2999999523,,646001,,645960.284,8,400,,,
break_continue,html.Screen,4_43_2,2023-09-08T17:55:52.337Z,,0,,,NaN,,,,,,false,,,,646001.5,646001.5,,646001.4000000954,,645960.284,8,400,,,
sequence,flow.Sequence,4_43,2023-09-08T17:55:52.337Z,,0,,,6253.121999999974,completion,,,,,false,,,,646001.5999999046,646001.5,639731.65,639788.5,639748.378,645960.284,8,400,,,
trial,html.Screen,4_44_0,2023-09-08T17:55:59.867Z,,0,1,,7571.015999952331,response,ISIC_2647643.JPG,5,ISIC_0014925.JPG,ISIC_0014925.JPG,false,0,keypress(z),500,653531.5999999046,653531.2999999523,645943.609,646001.7000000477,645960.284,653491.585,8,400,45,,ISIC_2647643.JPG
break,html.Screen,4_44_1,2023-09-08T17:55:59.868Z,,0,,,NaN,,,,,,false,,,,653532.5999999046,653532.4000000954,,653531.9000000954,,653491.585,8,400,,,
break_continue,html.Screen,4_44_2,2023-09-08T17:55:59.868Z,,0,,,NaN,,,,,,false,,,,653533.2999999523,653533.2000000477,,653532.9000000954,,653491.585,8,400,,,
sequence,flow.Sequence,4_44,2023-09-08T17:55:59.869Z,,0,,,7572.916000047699,completion,,,,,false,,,,653533.5999999046,653533.2000000477,645943.609,646001.7000000477,645960.284,653491.585,8,400,,,
trial,html.Screen,4_45_0,2023-09-08T17:56:07.010Z,,0,1,,7182.7149999523535,response,ISIC_0033175.JPG,5,ISIC_0066749.JPG,ISIC_0066749.JPG,false,0,keypress(z),500,660674.4000000954,660674.2999999523,653474.905,653533.9000000954,653491.585,660622.166,8,400,46,,ISIC_0033175.JPG
break,html.Screen,4_45_1,2023-09-08T17:56:07.010Z,,0,,,NaN,,,,,,false,,,,660675.0999999046,660674.9000000954,,660674.5999999046,,660622.166,8,400,,,
break_continue,html.Screen,4_45_2,2023-09-08T17:56:07.010Z,,0,,,NaN,,,,,,false,,,,660675.4000000954,660675.2999999523,,660675.2000000477,,660622.166,8,400,,,
sequence,flow.Sequence,4_45,2023-09-08T17:56:07.011Z,,0,,,7183.7149999523535,completion,,,,,false,,,,660675.5999999046,660675.2999999523,653474.905,653533.7999999523,653491.585,660622.166,8,400,,,
trial,html.Screen,4_46_0,2023-09-08T17:56:17.037Z,,0,1,,10078.933999904664,response,ISIC_0027694.JPG,5,ISIC_0014229.JPG,ISIC_0027694.JPG,false,1,keypress(m),500,670701.4000000954,670701.0999999046,660605.59,660675.7000000477,660622.166,670675.114,8,400,47,,ISIC_0014229.JPG
break,html.Screen,4_46_1,2023-09-08T17:56:17.039Z,,0,,,NaN,,,,,,false,,,,670702.5,670702.2000000477,,670701.7999999523,,670675.114,8,400,,,
break_continue,html.Screen,4_46_2,2023-09-08T17:56:17.039Z,,0,,,NaN,,,,,,false,,,,670703.0999999046,670702.9000000954,,670702.7000000477,,670675.114,8,400,,,
sequence,flow.Sequence,4_46,2023-09-08T17:56:17.039Z,,0,,,10080.7340000954,completion,,,,,false,,,,670703.4000000954,670702.9000000954,660605.59,660675.5999999046,660622.166,670675.114,8,400,,,
trial,html.Screen,4_47_0,2023-09-08T17:56:27.529Z,,0,1,,10518.185999952373,response,ISIC_3478473.JPG,4,ISIC_0033654.JPG,ISIC_0033654.JPG,false,0,keypress(z),500,681193.4000000954,681193.2999999523,670658.512,670703.5999999046,670675.114,681145.499,8,400,48,,ISIC_3478473.JPG
break,html.Screen,4_47_1,2023-09-08T17:56:27.530Z,,0,,,NaN,,,,,,false,,,,681193.7999999523,681193.7000000477,,681193.5,,681145.499,8,400,,,
break_continue,html.Screen,4_47_2,2023-09-08T17:56:27.530Z,,0,,,NaN,,,,,,false,,,,681194.2000000477,681194.0999999046,,681193.9000000954,,681145.499,8,400,,,
sequence,flow.Sequence,4_47,2023-09-08T17:56:27.530Z,,0,,,10518.98599990469,completion,,,,,false,,,,681194.2999999523,681194.0999999046,670658.512,670703.5,670675.114,681145.499,8,400,,,
trial,html.Screen,4_48_0,2023-09-08T17:56:34.189Z,,0,1,,6707.10099990468,response,ISIC_0012047.JPG,5,ISIC_4066094.JPG,ISIC_0012047.JPG,false,1,keypress(m),500,687852.7000000477,687852.5999999046,681128.778,681194.2999999523,681145.499,687808.452,8,400,49,,ISIC_4066094.JPG
break,html.Screen,4_48_1,2023-09-08T17:56:34.189Z,,0,,,NaN,,,,,,false,,,,687853.4000000954,687853.0999999046,,687852.9000000954,,687808.452,8,400,,,
break_continue,html.Screen,4_48_2,2023-09-08T17:56:34.190Z,,0,,,NaN,,,,,,false,,,,687853.7999999523,687853.5999999046,,687853.5,,687808.452,8,400,,,
sequence,flow.Sequence,4_48,2023-09-08T17:56:34.190Z,,0,,,6708.10099990468,completion,,,,,false,,,,687853.9000000954,687853.5999999046,681128.778,681194.2999999523,681145.499,687808.452,8,400,,,
trial,html.Screen,4_49_0,2023-09-08T17:56:41.168Z,,0,1,,7023.047999999952,response,ISIC_0010808.JPG,5,ISIC_8822331.JPG,ISIC_0010808.JPG,false,1,keypress(m),500,694831.5999999046,694831.5,687791.746,687853.9000000954,687808.452,694788.614,8,400,50,,ISIC_8822331.JPG
break,html.Screen,4_49_1,2023-09-08T17:56:51.167Z,,0,,,10002.868000000017,timeout,,,,,false,,,,704831.4000000954,704774.872,694772.11,694831.7000000477,694788.614,704791.482,8,400,,,
break_continue,html.Screen,4_49_2,2023-09-08T17:57:15.242Z,,0,,,24103.218000047724,response,,,,,false,continue,keypress(Space),,728906.2000000477,728894.7000000477,704774.872,704832.0999999046,704791.482,728871.605,8,400,,,
sequence,flow.Sequence,4_49,2023-09-08T17:57:15.242Z,,0,,,41086.248000047635,completion,,,,,false,,,,728906.2999999523,728894.7000000477,687791.746,687853.9000000954,687808.452,728871.605,8,400,,,
trial,html.Screen,4_50_0,2023-09-08T17:57:20.299Z,,0,2,,5091.694999952335,response,ISIC_6813359.JPG,6,ISIC_8041550.JPG,ISIC_8041550.JPG,false,0,keypress(z),500,733963.2999999523,733963.2999999523,728854.912,728906.2999999523,728871.605,733914.779,8,400,1,,ISIC_6813359.JPG
break,html.Screen,4_50_1,2023-09-08T17:57:20.299Z,,0,,,NaN,,,,,,false,,,,733963.7999999523,733963.7000000477,,733963.5,,733914.779,8,400,,,
break_continue,html.Screen,4_50_2,2023-09-08T17:57:20.300Z,,0,,,NaN,,,,,,false,,,,733964,733963.9000000954,,733963.9000000954,,733914.779,8,400,,,
sequence,flow.Sequence,4_50,2023-09-08T17:57:20.300Z,,0,,,5092.295000095386,completion,,,,,false,,,,733964.2000000477,733963.9000000954,728854.912,728906.2999999523,728871.605,733914.779,8,400,,,
trial,html.Screen,4_51_0,2023-09-08T17:57:27.808Z,,0,2,,7557.621000095387,response,ISIC_1595325.JPG,5,ISIC_0033805.JPG,ISIC_0033805.JPG,false,0,keypress(z),500,741472.7000000477,741472.4000000954,733898.34,733964.2000000477,733914.779,741429.48,8,400,2,,ISIC_1595325.JPG
break,html.Screen,4_51_1,2023-09-08T17:57:27.809Z,,0,,,NaN,,,,,,false,,,,741473.2000000477,741473.0999999046,,741472.9000000954,,741429.48,8,400,,,
break_continue,html.Screen,4_51_2,2023-09-08T17:57:27.809Z,,0,,,NaN,,,,,,false,,,,741473.5,741473.4000000954,,741473.2999999523,,741429.48,8,400,,,
sequence,flow.Sequence,4_51,2023-09-08T17:57:27.809Z,,0,,,7558.621000095387,completion,,,,,false,,,,741473.7000000477,741473.4000000954,733898.34,733964.2000000477,733914.779,741429.48,8,400,,,
trial,html.Screen,4_52_0,2023-09-08T17:57:32.842Z,,0,2,,5077.020000000019,response,ISIC_4770073.JPG,5,ISIC_0072001.JPG,ISIC_0072001.JPG,false,0,keypress(z),500,746506.7000000477,746506.5,741412.716,741473.7999999523,741429.48,746455.898,8,400,3,,ISIC_4770073.JPG
break,html.Screen,4_52_1,2023-09-08T17:57:32.843Z,,0,,,NaN,,,,,,false,,,,746507.2999999523,746507.0999999046,,746506.7999999523,,746455.898,8,400,,,
break_continue,html.Screen,4_52_2,2023-09-08T17:57:32.843Z,,0,,,NaN,,,,,,false,,,,746507.5999999046,746507.5,,746507.4000000954,,746455.898,8,400,,,
sequence,flow.Sequence,4_52,2023-09-08T17:57:32.843Z,,0,,,5078.020000000019,completion,,,,,false,,,,746507.7999999523,746507.5,741412.716,741473.7999999523,741429.48,746455.898,8,400,,,
trial,html.Screen,4_53_0,2023-09-08T17:57:39.919Z,,0,2,,7127.101999999955,response,ISIC_8295152.JPG,6,ISIC_0055826.JPG,ISIC_0055826.JPG,false,0,keypress(z),500,753583.2999999523,753583,746439.337,746508.9000000954,746455.898,753536.321,8,400,4,,ISIC_8295152.JPG
break,html.Screen,4_53_1,2023-09-08T17:57:39.920Z,,0,,,NaN,,,,,,false,,,,753584.4000000954,753584.2000000477,,753583.7000000477,,753536.321,8,400,,,
break_continue,html.Screen,4_53_2,2023-09-08T17:57:39.921Z,,0,,,NaN,,,,,,false,,,,753585,753584.7999999523,,753584.7000000477,,753536.321,8,400,,,
sequence,flow.Sequence,4_53,2023-09-08T17:57:39.921Z,,0,,,7128.901999952272,completion,,,,,false,,,,753585.2999999523,753584.7999999523,746439.337,746508.7999999523,746455.898,753536.321,8,400,,,
trial,html.Screen,4_54_0,2023-09-08T17:57:48.179Z,,0,2,,8306.579000095371,response,ISIC_6209119.JPG,5,ISIC_8406262.JPG,ISIC_8406262.JPG,false,0,keypress(z),500,761843.0999999046,761842.9000000954,753519.608,753585.4000000954,753536.321,761802.446,8,400,5,,ISIC_6209119.JPG
break,html.Screen,4_54_1,2023-09-08T17:57:48.179Z,,0,,,NaN,,,,,,false,,,,761843.4000000954,761843.4000000954,,761843.0999999046,,761802.446,8,400,,,
break_continue,html.Screen,4_54_2,2023-09-08T17:57:48.179Z,,0,,,NaN,,,,,,false,,,,761843.5999999046,761843.5,,761843.5,,761802.446,8,400,,,
sequence,flow.Sequence,4_54,2023-09-08T17:57:48.179Z,,0,,,8307.179000000004,completion,,,,,false,,,,761843.5999999046,761843.5,753519.608,753585.4000000954,753536.321,761802.446,8,400,,,
trial,html.Screen,4_55_0,2023-09-08T17:57:54.298Z,,0,2,,6160.153999904636,response,ISIC_0058206.JPG,4,ISIC_6793603.JPG,ISIC_0058206.JPG,false,1,keypress(m),500,767962.7999999523,767962.5999999046,761785.818,761843.5999999046,761802.446,767914.446,8,400,6,,ISIC_6793603.JPG
break,html.Screen,4_55_1,2023-09-08T17:57:54.299Z,,0,,,NaN,,,,,,false,,,,767963.4000000954,767963.2000000477,,767963,,767914.446,8,400,,,
break_continue,html.Screen,4_55_2,2023-09-08T17:57:54.299Z,,0,,,NaN,,,,,,false,,,,767963.7000000477,767963.7000000477,,767963.5,,767914.446,8,400,,,
sequence,flow.Sequence,4_55,2023-09-08T17:57:54.299Z,,0,,,6161.254000047687,completion,,,,,false,,,,767963.7999999523,767963.7000000477,761785.818,761843.5999999046,761802.446,767914.446,8,400,,,
trial,html.Screen,4_56_0,2023-09-08T17:58:00.912Z,,0,2,,6661.85399995232,response,ISIC_0033679.JPG,4,ISIC_0031365.JPG,ISIC_0033679.JPG,false,1,keypress(m),500,774576.4000000954,774576.2999999523,767897.565,767963.9000000954,767914.446,774527.121,8,400,7,,ISIC_0031365.JPG
break,html.Screen,4_56_1,2023-09-08T17:58:00.912Z,,0,,,NaN,,,,,,false,,,,774576.7999999523,774576.5999999046,,774576.5,,774527.121,8,400,,,
break_continue,html.Screen,4_56_2,2023-09-08T17:58:00.913Z,,0,,,NaN,,,,,,false,,,,774576.9000000954,774576.9000000954,,774576.7999999523,,774527.121,8,400,,,
sequence,flow.Sequence,4_56,2023-09-08T17:58:00.913Z,,0,,,6662.454000095371,completion,,,,,false,,,,774577,774576.9000000954,767897.565,767963.9000000954,767914.446,774527.121,8,400,,,
trial,html.Screen,4_57_0,2023-09-08T17:58:06.281Z,,0,2,,5418.378999999957,response,ISIC_0057395.JPG,5,ISIC_7567699.JPG,ISIC_0057395.JPG,false,1,keypress(m),500,779945.7000000477,779945.5,774510.744,774577,774527.121,779904.3,8,400,8,,ISIC_7567699.JPG
break,html.Screen,4_57_1,2023-09-08T17:58:06.282Z,,0,,,NaN,,,,,,false,,,,779946.2999999523,779946.0999999046,,779945.7999999523,,779904.3,8,400,,,
break_continue,html.Screen,4_57_2,2023-09-08T17:58:06.282Z,,0,,,NaN,,,,,,false,,,,779946.5999999046,779946.5,,779946.4000000954,,779904.3,8,400,,,
sequence,flow.Sequence,4_57,2023-09-08T17:58:06.282Z,,0,,,5419.378999999957,completion,,,,,false,,,,779946.7999999523,779946.5,774510.744,774577,774527.121,779904.3,8,400,,,
trial,html.Screen,4_58_0,2023-09-08T17:58:13.232Z,,0,2,,6992.100000095321,response,ISIC_0058877.JPG,5,ISIC_0010313.JPG,ISIC_0010313.JPG,false,0,keypress(z),500,786896.5,786896.4000000954,779887.599,779947,779904.3,786867.817,8,400,9,,ISIC_0058877.JPG
break,html.Screen,4_58_1,2023-09-08T17:58:13.232Z,,0,,,NaN,,,,,,false,,,,786896.7999999523,786896.7999999523,,786896.5999999046,,786867.817,8,400,,,
break_continue,html.Screen,4_58_2,2023-09-08T17:58:13.233Z,,0,,,NaN,,,,,,false,,,,786897,786896.9000000954,,786896.9000000954,,786867.817,8,400,,,
sequence,flow.Sequence,4_58,2023-09-08T17:58:13.233Z,,0,,,6992.600000095321,completion,,,,,false,,,,786897.0999999046,786896.9000000954,779887.599,779946.9000000954,779904.3,786867.817,8,400,,,
trial,html.Screen,4_59_0,2023-09-08T17:58:21.364Z,,0,2,,8159.282999904593,response,ISIC_5508076.JPG,6,ISIC_0027391.JPG,ISIC_0027391.JPG,false,0,keypress(z),500,795027.2000000477,795027.0999999046,786851.165,786897.0999999046,786867.817,794983.638,8,400,10,,ISIC_5508076.JPG
break,html.Screen,4_59_1,2023-09-08T17:58:21.365Z,,0,,,NaN,,,,,,false,,,,795027.5,795027.4000000954,,795027.2999999523,,794983.638,8,400,,,
break_continue,html.Screen,4_59_2,2023-09-08T17:58:21.365Z,,0,,,NaN,,,,,,false,,,,795027.7999999523,795027.5999999046,,795027.5999999046,,794983.638,8,400,,,
sequence,flow.Sequence,4_59,2023-09-08T17:58:21.365Z,,0,,,8159.782999904593,completion,,,,,false,,,,795027.9000000954,795027.5999999046,786851.165,786897.0999999046,786867.817,794983.638,8,400,,,
trial,html.Screen,4_60_0,2023-09-08T17:58:26.679Z,,0,2,,5357.961999904597,response,ISIC_8503961.JPG,5,ISIC_0000555.JPG,ISIC_8503961.JPG,false,1,keypress(m),500,800341.7999999523,800341.5999999046,794966.946,795028,794983.638,800294.045,8,400,11,,ISIC_0000555.JPG
break,html.Screen,4_60_1,2023-09-08T17:58:26.679Z,,0,,,NaN,,,,,,false,,,,800342.2000000477,800342.0999999046,,800341.7999999523,,800294.045,8,400,,,
break_continue,html.Screen,4_60_2,2023-09-08T17:58:26.679Z,,0,,,NaN,,,,,,false,,,,800342.4000000954,800342.4000000954,,800342.2999999523,,800294.045,8,400,,,
sequence,flow.Sequence,4_60,2023-09-08T17:58:26.680Z,,0,,,5358.762000095332,completion,,,,,false,,,,800342.5999999046,800342.4000000954,794966.946,795028,794983.638,800294.045,8,400,,,
trial,html.Screen,4_61_0,2023-09-08T17:58:32.945Z,,0,2,,6313.454999999958,response,ISIC_4298624.JPG,5,ISIC_7981097.JPG,ISIC_4298624.JPG,false,1,keypress(m),500,806608.2999999523,806607.5,800277.247,800342.5999999046,800294.045,806556.209,8,400,12,,ISIC_7981097.JPG
break,html.Screen,4_61_1,2023-09-08T17:58:32.947Z,,0,,,NaN,,,,,,false,,,,806609.5,806609.2000000477,,806608.7000000477,,806556.209,8,400,,,
break_continue,html.Screen,4_61_2,2023-09-08T17:58:32.947Z,,0,,,NaN,,,,,,false,,,,806610.0999999046,806609.9000000954,,806609.7000000477,,806556.209,8,400,,,
sequence,flow.Sequence,4_61,2023-09-08T17:58:32.947Z,,0,,,6315.8550000953255,completion,,,,,false,,,,806610.4000000954,806609.9000000954,800277.247,800342.5999999046,800294.045,806556.209,8,400,,,
trial,html.Screen,4_62_0,2023-09-08T17:58:39.879Z,,0,2,,6985.290999999968,response,ISIC_6176182.JPG,5,ISIC_0010809.JPG,ISIC_0010809.JPG,false,0,keypress(z),500,813541.7999999523,813541.5,806539.525,806610.7000000477,806556.209,813503.013,8,400,13,,ISIC_6176182.JPG
break,html.Screen,4_62_1,2023-09-08T17:58:39.879Z,,0,,,NaN,,,,,,false,,,,813542.4000000954,813542.2000000477,,813542,,813503.013,8,400,,,
break_continue,html.Screen,4_62_2,2023-09-08T17:58:39.880Z,,0,,,NaN,,,,,,false,,,,813542.7000000477,813542.7000000477,,813542.5999999046,,813503.013,8,400,,,
sequence,flow.Sequence,4_62,2023-09-08T17:58:39.880Z,,0,,,6986.491000047652,completion,,,,,false,,,,813542.7999999523,813542.7000000477,806539.525,806610.5999999046,806556.209,813503.013,8,400,,,
trial,html.Screen,4_63_0,2023-09-08T17:58:48.569Z,,0,2,,8728.78699995228,response,ISIC_2799447.JPG,6,ISIC_3617159.JPG,ISIC_3617159.JPG,false,0,keypress(z),500,822231.9000000954,822231.7999999523,813486.462,813542.9000000954,813503.013,822186.552,8,400,14,,ISIC_2799447.JPG
break,html.Screen,4_63_1,2023-09-08T17:58:48.569Z,,0,,,NaN,,,,,,false,,,,822232.2999999523,822232.2000000477,,822232,,822186.552,8,400,,,
break_continue,html.Screen,4_63_2,2023-09-08T17:58:48.569Z,,0,,,NaN,,,,,,false,,,,822232.4000000954,822232.4000000954,,822232.2999999523,,822186.552,8,400,,,
sequence,flow.Sequence,4_63,2023-09-08T17:58:48.569Z,,0,,,8729.387000095332,completion,,,,,false,,,,822232.4000000954,822232.4000000954,813486.462,813542.9000000954,813503.013,822186.552,8,400,,,
trial,html.Screen,4_64_0,2023-09-08T17:58:55.163Z,,0,2,,6638.848000095342,response,ISIC_0029071.JPG,5,ISIC_9076021.JPG,ISIC_0029071.JPG,false,1,keypress(m),500,828825.5,828825.4000000954,822169.939,822232.5,822186.552,828782.788,8,400,15,,ISIC_9076021.JPG
break,html.Screen,4_64_1,2023-09-08T17:58:55.163Z,,0,,,NaN,,,,,,false,,,,828826.4000000954,828826,,828825.7000000477,,828782.788,8,400,,,
break_continue,html.Screen,4_64_2,2023-09-08T17:58:55.164Z,,0,,,NaN,,,,,,false,,,,828826.7000000477,828826.5999999046,,828826.5,,828782.788,8,400,,,
sequence,flow.Sequence,4_64,2023-09-08T17:58:55.165Z,,0,,,6640.047999904607,completion,,,,,false,,,,828827.5999999046,828826.5999999046,822169.939,822232.5,822186.552,828782.788,8,400,,,
trial,html.Screen,4_65_0,2023-09-08T17:59:02.407Z,,0,2,,7287.212000000058,response,ISIC_4738636.JPG,6,ISIC_0055289.JPG,ISIC_0055289.JPG,false,0,keypress(z),500,836070.0999999046,836070,828766.132,828827.7999999523,828782.788,836030.196,8,400,16,,ISIC_4738636.JPG
break,html.Screen,4_65_1,2023-09-08T17:59:02.408Z,,0,,,NaN,,,,,,false,,,,836070.5999999046,836070.4000000954,,836070.2999999523,,836030.196,8,400,,,
break_continue,html.Screen,4_65_2,2023-09-08T17:59:02.408Z,,0,,,NaN,,,,,,false,,,,836071,836071,,836070.7999999523,,836030.196,8,400,,,
sequence,flow.Sequence,4_65,2023-09-08T17:59:02.408Z,,0,,,7288.212000000058,completion,,,,,false,,,,836071.2000000477,836071,828766.132,828827.7999999523,828782.788,836030.196,8,400,,,
trial,html.Screen,4_66_0,2023-09-08T17:59:07.786Z,,0,2,,5418.704000095371,response,ISIC_3389704.JPG,5,ISIC_7185913.JPG,ISIC_3389704.JPG,false,1,keypress(m),500,841449,841448.9000000954,836013.467,836071.2000000477,836030.196,841407.31,8,400,17,,ISIC_7185913.JPG
break,html.Screen,4_66_1,2023-09-08T17:59:07.787Z,,0,,,NaN,,,,,,false,,,,841449.5999999046,841449.4000000954,,841449.2000000477,,841407.31,8,400,,,
break_continue,html.Screen,4_66_2,2023-09-08T17:59:07.787Z,,0,,,NaN,,,,,,false,,,,841450,841449.7999999523,,841449.7000000477,,841407.31,8,400,,,
sequence,flow.Sequence,4_66,2023-09-08T17:59:07.787Z,,0,,,5419.60399995232,completion,,,,,false,,,,841450.0999999046,841449.7999999523,836013.467,836071.2000000477,836030.196,841407.31,8,400,,,
trial,html.Screen,4_67_0,2023-09-08T17:59:14.877Z,,0,2,,7132.289999904577,response,ISIC_0033643.JPG,5,ISIC_0009975.JPG,ISIC_0009975.JPG,false,0,keypress(z),500,848539.5999999046,848539.5999999046,841390.568,841450.0999999046,841407.31,848487.724,8,400,18,,ISIC_0033643.JPG
break,html.Screen,4_67_1,2023-09-08T17:59:14.878Z,,0,,,NaN,,,,,,false,,,,848539.9000000954,848539.7999999523,,848539.7000000477,,848487.724,8,400,,,
break_continue,html.Screen,4_67_2,2023-09-08T17:59:14.878Z,,0,,,NaN,,,,,,false,,,,848540.0999999046,848540.0999999046,,848540,,848487.724,8,400,,,
sequence,flow.Sequence,4_67,2023-09-08T17:59:14.878Z,,0,,,7132.789999904577,completion,,,,,false,,,,848540.2000000477,848540.0999999046,841390.568,841450.0999999046,841407.31,848487.724,8,400,,,
trial,html.Screen,4_68_0,2023-09-08T17:59:22.943Z,,0,2,,8117.775999999954,response,ISIC_0010432.JPG,5,ISIC_0030552.JPG,ISIC_0010432.JPG,false,1,keypress(m),500,856605.7000000477,856605.5,848471.213,848540.2999999523,848487.724,856553.447,8,400,19,,ISIC_0030552.JPG
break,html.Screen,4_68_1,2023-09-08T17:59:22.944Z,,0,,,NaN,,,,,,false,,,,856606.9000000954,856606.5999999046,,856606.0999999046,,856553.447,8,400,,,
break_continue,html.Screen,4_68_2,2023-09-08T17:59:22.945Z,,0,,,NaN,,,,,,false,,,,856607.2999999523,856607.2000000477,,856607,,856553.447,8,400,,,
sequence,flow.Sequence,4_68,2023-09-08T17:59:22.945Z,,0,,,8119.476000047638,completion,,,,,false,,,,856607.7000000477,856607.2000000477,848471.213,848540.2000000477,848487.724,856553.447,8,400,,,
trial,html.Screen,4_69_0,2023-09-08T17:59:28.375Z,,0,2,,5483.652999904589,response,ISIC_4052597.JPG,4,ISIC_0064393.JPG,ISIC_0064393.JPG,false,0,keypress(z),500,862037.2999999523,862037.0999999046,856536.898,856607.9000000954,856553.447,861997.446,8,400,20,,ISIC_4052597.JPG
break,html.Screen,4_69_1,2023-09-08T17:59:28.375Z,,0,,,NaN,,,,,,false,,,,862037.9000000954,862037.7000000477,,862037.5,,861997.446,8,400,,,
break_continue,html.Screen,4_69_2,2023-09-08T17:59:28.376Z,,0,,,NaN,,,,,,false,,,,862038.4000000954,862038.2000000477,,862038.2000000477,,861997.446,8,400,,,
sequence,flow.Sequence,4_69,2023-09-08T17:59:28.376Z,,0,,,5484.75300004764,completion,,,,,false,,,,862038.5,862038.2000000477,856536.898,856607.9000000954,856553.447,861997.446,8,400,,,
trial,html.Screen,4_70_0,2023-09-08T17:59:35.226Z,,0,2,,6890.653999904636,response,ISIC_0028361.JPG,5,ISIC_0034118.JPG,ISIC_0028361.JPG,false,1,keypress(m),500,868888.2999999523,868888.0999999046,861980.869,862038.7000000477,861997.446,868844.074,8,400,21,,ISIC_0034118.JPG
break,html.Screen,4_70_1,2023-09-08T17:59:35.226Z,,0,,,NaN,,,,,,false,,,,868888.7000000477,868888.5999999046,,868888.4000000954,,868844.074,8,400,,,
break_continue,html.Screen,4_70_2,2023-09-08T17:59:35.227Z,,0,,,NaN,,,,,,false,,,,868889,868888.9000000954,,868888.7999999523,,868844.074,8,400,,,
sequence,flow.Sequence,4_70,2023-09-08T17:59:35.227Z,,0,,,6891.454000095371,completion,,,,,false,,,,868889.0999999046,868888.9000000954,861980.869,862038.5999999046,861997.446,868844.074,8,400,,,
trial,html.Screen,4_71_0,2023-09-08T17:59:42.269Z,,0,2,,7087.225999952294,response,ISIC_0010551.JPG,5,ISIC_8135400.JPG,ISIC_0010551.JPG,false,1,keypress(m),500,875931.5,875931.2999999523,868827.404,868889.0999999046,868844.074,875891.068,8,400,22,,ISIC_8135400.JPG
break,html.Screen,4_71_1,2023-09-08T17:59:42.270Z,,0,,,NaN,,,,,,false,,,,875932,875931.9000000954,,875931.7000000477,,875891.068,8,400,,,
break_continue,html.Screen,4_71_2,2023-09-08T17:59:42.270Z,,0,,,NaN,,,,,,false,,,,875932.2999999523,875932.0999999046,,875932.0999999046,,875891.068,8,400,,,
sequence,flow.Sequence,4_71,2023-09-08T17:59:42.270Z,,0,,,7088.02599990461,completion,,,,,false,,,,875932.4000000954,875932.0999999046,868827.404,868889.0999999046,868844.074,875891.068,8,400,,,
trial,html.Screen,4_72_0,2023-09-08T17:59:49.281Z,,0,2,,7052.031999904662,response,ISIC_8438811.JPG,4,ISIC_3273370.JPG,ISIC_8438811.JPG,false,1,keypress(m),500,882943.7000000477,882943.0999999046,875874.426,875932.5,875891.068,882904.702,8,400,23,,ISIC_3273370.JPG
break,html.Screen,4_72_1,2023-09-08T17:59:49.284Z,,0,,,NaN,,,,,,false,,,,882946.2000000477,882944.7999999523,,882944.0999999046,,882904.702,8,400,,,
break_continue,html.Screen,4_72_2,2023-09-08T17:59:49.285Z,,0,,,NaN,,,,,,false,,,,882947.9000000954,882947.4000000954,,882946.5,,882904.702,8,400,,,
sequence,flow.Sequence,4_72,2023-09-08T17:59:49.286Z,,0,,,7056.332000095397,completion,,,,,false,,,,882948.4000000954,882947.4000000954,875874.426,875932.4000000954,875891.068,882904.702,8,400,,,
trial,html.Screen,4_73_0,2023-09-08T17:59:58.056Z,,0,2,,8813.198000095319,response,ISIC_2520840.JPG,5,ISIC_0010044.JPG,ISIC_0010044.JPG,false,0,keypress(z),500,891718,891717.9000000954,882887.999,882948.7999999523,882904.702,891671.838,8,400,24,,ISIC_2520840.JPG
break,html.Screen,4_73_1,2023-09-08T17:59:58.056Z,,0,,,NaN,,,,,,false,,,,891718.4000000954,891718.2999999523,,891718.0999999046,,891671.838,8,400,,,
break_continue,html.Screen,4_73_2,2023-09-08T17:59:58.056Z,,0,,,NaN,,,,,,false,,,,891718.5,891718.4000000954,,891718.4000000954,,891671.838,8,400,,,
sequence,flow.Sequence,4_73,2023-09-08T17:59:58.056Z,,0,,,8813.698000095319,completion,,,,,false,,,,891718.5,891718.4000000954,882887.999,882948.5999999046,882904.702,891671.838,8,400,,,
trial,html.Screen,4_74_0,2023-09-08T18:00:03.888Z,,0,2,,5878.261999904644,response,ISIC_2779787.JPG,5,ISIC_6032520.JPG,ISIC_2779787.JPG,false,1,keypress(m),500,897550.4000000954,897550.0999999046,891655.075,891718.5,891671.838,897499.746,8,400,25,,ISIC_6032520.JPG
break,html.Screen,4_74_1,2023-09-08T18:00:03.889Z,,0,,,NaN,,,,,,false,,,,897551.0999999046,897550.9000000954,,897550.5999999046,,897499.746,8,400,,,
break_continue,html.Screen,4_74_2,2023-09-08T18:00:03.889Z,,0,,,NaN,,,,,,false,,,,897551.5,897551.4000000954,,897551.2999999523,,897499.746,8,400,,,
sequence,flow.Sequence,4_74,2023-09-08T18:00:03.889Z,,0,,,5879.562000095379,completion,,,,,false,,,,897551.5999999046,897551.4000000954,891655.075,891718.5,891671.838,897499.746,8,400,,,
trial,html.Screen,4_75_0,2023-09-08T18:00:08.937Z,,0,2,,5099.553999952273,response,ISIC_0563533.JPG,6,ISIC_8969883.JPG,ISIC_8969883.JPG,false,0,keypress(z),500,902599.4000000954,902599.2999999523,897483.231,897551.5999999046,897499.746,902559.77,8,400,26,,ISIC_0563533.JPG
break,html.Screen,4_75_1,2023-09-08T18:00:08.938Z,,0,,,NaN,,,,,,false,,,,902600,902599.7999999523,,902599.5999999046,,902559.77,8,400,,,
break_continue,html.Screen,4_75_2,2023-09-08T18:00:08.938Z,,0,,,NaN,,,,,,false,,,,902600.4000000954,902600.2000000477,,902600.0999999046,,902559.77,8,400,,,
sequence,flow.Sequence,4_75,2023-09-08T18:00:08.938Z,,0,,,5100.454000047641,completion,,,,,false,,,,902600.5,902600.2000000477,897483.231,897551.5999999046,897499.746,902559.77,8,400,,,
trial,html.Screen,4_76_0,2023-09-08T18:00:16.812Z,,0,2,,7914.430000047665,response,ISIC_0064823.JPG,5,ISIC_0708542.JPG,ISIC_0064823.JPG,false,1,keypress(m),500,910474.2999999523,910474.2000000477,902543.029,902600.5999999046,902559.77,910424.935,8,400,27,,ISIC_0708542.JPG
break,html.Screen,4_76_1,2023-09-08T18:00:16.813Z,,0,,,NaN,,,,,,false,,,,910475.4000000954,910474.5999999046,,910474.5,,910424.935,8,400,,,
break_continue,html.Screen,4_76_2,2023-09-08T18:00:16.814Z,,0,,,NaN,,,,,,false,,,,910475.7999999523,910475.5999999046,,910475.5999999046,,910424.935,8,400,,,
sequence,flow.Sequence,4_76,2023-09-08T18:00:16.814Z,,0,,,7915.829999904614,completion,,,,,false,,,,910475.9000000954,910475.5999999046,902543.029,902600.5,902559.77,910424.935,8,400,,,
trial,html.Screen,4_77_0,2023-09-08T18:00:24.688Z,,0,2,,7925.164999904577,response,ISIC_9256438.JPG,5,ISIC_0033981.JPG,ISIC_0033981.JPG,false,0,keypress(z),500,918350.0999999046,918350.0999999046,910408.219,910476,910424.935,918306.943,8,400,28,,ISIC_9256438.JPG
break,html.Screen,4_77_1,2023-09-08T18:00:24.689Z,,0,,,NaN,,,,,,false,,,,918350.5,918350.4000000954,,918350.2000000477,,918306.943,8,400,,,
break_continue,html.Screen,4_77_2,2023-09-08T18:00:24.689Z,,0,,,NaN,,,,,,false,,,,918350.7999999523,918350.7000000477,,918350.5999999046,,918306.943,8,400,,,
sequence,flow.Sequence,4_77,2023-09-08T18:00:24.689Z,,0,,,7925.765000047628,completion,,,,,false,,,,918350.7999999523,918350.7000000477,910408.219,910476,910424.935,918306.943,8,400,,,
trial,html.Screen,4_78_0,2023-09-08T18:00:31.155Z,,0,2,,6509.957000095397,response,ISIC_9792592.JPG,5,ISIC_6285076.JPG,ISIC_6285076.JPG,false,0,keypress(z),500,924817.0999999046,924816.9000000954,918290.223,918350.9000000954,918306.943,924769.57,8,400,29,,ISIC_9792592.JPG
break,html.Screen,4_78_1,2023-09-08T18:00:31.155Z,,0,,,NaN,,,,,,false,,,,924817.4000000954,924817.2999999523,,924817.0999999046,,924769.57,8,400,,,
break_continue,html.Screen,4_78_2,2023-09-08T18:00:31.156Z,,0,,,NaN,,,,,,false,,,,924817.7999999523,924817.5999999046,,924817.5,,924769.57,8,400,,,
sequence,flow.Sequence,4_78,2023-09-08T18:00:31.156Z,,0,,,6510.656999904662,completion,,,,,false,,,,924817.9000000954,924817.5999999046,918290.223,918350.9000000954,918306.943,924769.57,8,400,,,
trial,html.Screen,4_79_0,2023-09-08T18:00:37.206Z,,0,2,,6098.029999904684,response,ISIC_0475506.JPG,5,ISIC_0028691.JPG,ISIC_0028691.JPG,false,0,keypress(z),500,930867.9000000954,930867.5999999046,924752.885,924818,924769.57,930832.472,8,400,30,,ISIC_0475506.JPG
break,html.Screen,4_79_1,2023-09-08T18:00:37.207Z,,0,,,NaN,,,,,,false,,,,930868.7000000477,930868.5,,930868.0999999046,,930832.472,8,400,,,
break_continue,html.Screen,4_79_2,2023-09-08T18:00:37.207Z,,0,,,NaN,,,,,,false,,,,930869.2000000477,930869.0999999046,,930868.9000000954,,930832.472,8,400,,,
sequence,flow.Sequence,4_79,2023-09-08T18:00:37.207Z,,0,,,6099.529999904684,completion,,,,,false,,,,930869.4000000954,930869.0999999046,924752.885,924818,924769.57,930832.472,8,400,,,
trial,html.Screen,4_80_0,2023-09-08T18:00:44.177Z,,0,2,,7006.028000000049,response,ISIC_5736292.JPG,5,ISIC_5994645.JPG,ISIC_5994645.JPG,false,0,keypress(z),500,937838.7000000477,937838.5,930798.046,930869.5,930832.472,937794.859,8,400,31,,ISIC_5736292.JPG
break,html.Screen,4_80_1,2023-09-08T18:00:44.177Z,,0,,,NaN,,,,,,false,,,,937839.2999999523,937839.0999999046,,937838.9000000954,,937794.859,8,400,,,
break_continue,html.Screen,4_80_2,2023-09-08T18:00:44.178Z,,0,,,NaN,,,,,,false,,,,937839.5999999046,937839.5,,937839.4000000954,,937794.859,8,400,,,
sequence,flow.Sequence,4_80,2023-09-08T18:00:44.178Z,,0,,,7007.028000000049,completion,,,,,false,,,,937839.7000000477,937839.5,930798.046,930869.5,930832.472,937794.859,8,400,,,
trial,html.Screen,4_81_0,2023-09-08T18:00:48.804Z,,0,2,,4670.940999952261,response,ISIC_4951035.JPG,5,ISIC_0198331.JPG,ISIC_0198331.JPG,false,0,keypress(z),500,942466.2000000477,942465.7999999523,937778.33,937839.9000000954,937794.859,942420.531,8,400,32,,ISIC_4951035.JPG
break,html.Screen,4_81_1,2023-09-08T18:00:48.806Z,,0,,,NaN,,,,,,false,,,,942468,942467.4000000954,,942466.7999999523,,942420.531,8,400,,,
break_continue,html.Screen,4_81_2,2023-09-08T18:00:48.807Z,,0,,,NaN,,,,,,false,,,,942468.7000000477,942468.4000000954,,942468.2000000477,,942420.531,8,400,,,
sequence,flow.Sequence,4_81,2023-09-08T18:00:48.807Z,,0,,,4673.5410000953125,completion,,,,,false,,,,942469.0999999046,942468.4000000954,937778.33,937839.7999999523,937794.859,942420.531,8,400,,,
trial,html.Screen,4_82_0,2023-09-08T18:00:53.890Z,,0,2,,5131.369000095408,response,ISIC_3975133.JPG,6,ISIC_0627979.JPG,ISIC_3975133.JPG,false,1,keypress(m),500,947552.0999999046,947551.9000000954,942403.858,942469.2999999523,942420.531,947513.931,8,400,33,,ISIC_0627979.JPG
break,html.Screen,4_82_1,2023-09-08T18:00:53.891Z,,0,,,NaN,,,,,,false,,,,947552.5999999046,947552.4000000954,,947552.2000000477,,947513.931,8,400,,,
break_continue,html.Screen,4_82_2,2023-09-08T18:00:53.891Z,,0,,,NaN,,,,,,false,,,,947553,947552.9000000954,,947552.7999999523,,947513.931,8,400,,,
sequence,flow.Sequence,4_82,2023-09-08T18:00:53.891Z,,0,,,5132.369000095408,completion,,,,,false,,,,947553,947552.9000000954,942403.858,942469.2000000477,942420.531,947513.931,8,400,,,
trial,html.Screen,4_83_0,2023-09-08T18:01:01.076Z,,0,2,,7223.969000095385,response,ISIC_3948754.JPG,6,ISIC_0015241.JPG,ISIC_3948754.JPG,false,1,keypress(m),500,954738.0999999046,954737.9000000954,947497.253,947553.0999999046,947513.931,954694.383,8,400,34,,ISIC_0015241.JPG
break,html.Screen,4_83_1,2023-09-08T18:01:01.076Z,,0,,,NaN,,,,,,false,,,,954738.5,954738.2999999523,,954738.2000000477,,954694.383,8,400,,,
break_continue,html.Screen,4_83_2,2023-09-08T18:01:01.077Z,,0,,,NaN,,,,,,false,,,,954738.7000000477,954738.5999999046,,954738.5,,954694.383,8,400,,,
sequence,flow.Sequence,4_83,2023-09-08T18:01:01.077Z,,0,,,7224.66899990465,completion,,,,,false,,,,954738.7000000477,954738.5999999046,947497.253,947553.0999999046,947513.931,954694.383,8,400,,,
trial,html.Screen,4_84_0,2023-09-08T18:01:07.637Z,,0,2,,6605.017000095337,response,ISIC_0031908.JPG,5,ISIC_0005879.JPG,ISIC_0031908.JPG,false,1,keypress(m),500,961299.5,961299.4000000954,954677.723,954738.7999999523,954694.383,961257.197,8,400,35,,ISIC_0005879.JPG
break,html.Screen,4_84_1,2023-09-08T18:01:07.638Z,,0,,,NaN,,,,,,false,,,,961299.7999999523,961299.7000000477,,961299.5999999046,,961257.197,8,400,,,
break_continue,html.Screen,4_84_2,2023-09-08T18:01:07.638Z,,0,,,NaN,,,,,,false,,,,961300,961299.9000000954,,961299.9000000954,,961257.197,8,400,,,
sequence,flow.Sequence,4_84,2023-09-08T18:01:07.638Z,,0,,,6605.517000095337,completion,,,,,false,,,,961300.0999999046,961299.9000000954,954677.723,954738.7999999523,954694.383,961257.197,8,400,,,
trial,html.Screen,4_85_0,2023-09-08T18:01:12.795Z,,0,2,,5199.402999904589,response,ISIC_0055046.JPG,6,ISIC_0013831.JPG,ISIC_0055046.JPG,false,1,keypress(m),500,966456.7000000477,966456.5999999046,961240.499,961300.0999999046,961257.197,966417.249,8,400,36,,ISIC_0013831.JPG
break,html.Screen,4_85_1,2023-09-08T18:01:12.795Z,,0,,,NaN,,,,,,false,,,,966457,966457,,966456.7999999523,,966417.249,8,400,,,
break_continue,html.Screen,4_85_2,2023-09-08T18:01:12.795Z,,0,,,NaN,,,,,,false,,,,966457.4000000954,966457.2000000477,,966457.2000000477,,966417.249,8,400,,,
sequence,flow.Sequence,4_85,2023-09-08T18:01:12.796Z,,0,,,5200.00300004764,completion,,,,,false,,,,966457.5999999046,966457.2000000477,961240.499,961300.0999999046,961257.197,966417.249,8,400,,,
trial,html.Screen,4_86_0,2023-09-08T18:01:19.854Z,,0,2,,7098.35099990468,response,ISIC_0283957.JPG,5,ISIC_0011193.JPG,ISIC_0011193.JPG,false,0,keypress(z),500,973515.7999999523,973515.5999999046,966400.702,966457.5999999046,966417.249,973464.305,8,400,37,,ISIC_0283957.JPG
break,html.Screen,4_86_1,2023-09-08T18:01:19.855Z,,0,,,NaN,,,,,,false,,,,973516.4000000954,973516.2999999523,,973516,,973464.305,8,400,,,
break_continue,html.Screen,4_86_2,2023-09-08T18:01:19.855Z,,0,,,NaN,,,,,,false,,,,973516.7000000477,973516.7000000477,,973516.5999999046,,973464.305,8,400,,,
sequence,flow.Sequence,4_86,2023-09-08T18:01:19.855Z,,0,,,7099.451000047731,completion,,,,,false,,,,973516.9000000954,973516.7000000477,966400.702,966457.5999999046,966417.249,973464.305,8,400,,,
trial,html.Screen,4_87_0,2023-09-08T18:01:29.591Z,,0,2,,9788.095000095316,response,ISIC_2355513.JPG,5,ISIC_0066338.JPG,ISIC_2355513.JPG,false,1,keypress(m),500,983252.5,983252.4000000954,973447.757,973517,973464.305,983199.892,8,400,38,,ISIC_0066338.JPG
break,html.Screen,4_87_1,2023-09-08T18:01:29.591Z,,0,,,NaN,,,,,,false,,,,983252.9000000954,983252.9000000954,,983252.7000000477,,983199.892,8,400,,,
break_continue,html.Screen,4_87_2,2023-09-08T18:01:29.592Z,,0,,,NaN,,,,,,false,,,,983253.5,983253.2999999523,,983253.2000000477,,983199.892,8,400,,,
sequence,flow.Sequence,4_87,2023-09-08T18:01:29.592Z,,0,,,9788.994999952265,completion,,,,,false,,,,983253.5999999046,983253.2999999523,973447.757,973516.9000000954,973464.305,983199.892,8,400,,,
trial,html.Screen,4_88_0,2023-09-08T18:01:36.188Z,,0,2,,6649.008000095375,response,ISIC_1911193.JPG,5,ISIC_2614347.JPG,ISIC_2614347.JPG,false,0,keypress(z),500,989849.0999999046,989848.9000000954,983183.188,983253.7000000477,983199.892,989796.107,8,400,39,,ISIC_1911193.JPG
break,html.Screen,4_88_1,2023-09-08T18:01:36.188Z,,0,,,NaN,,,,,,false,,,,989849.7000000477,989849.5999999046,,989849.2999999523,,989796.107,8,400,,,
break_continue,html.Screen,4_88_2,2023-09-08T18:01:36.189Z,,0,,,NaN,,,,,,false,,,,989850.0999999046,989850,,989849.9000000954,,989796.107,8,400,,,
sequence,flow.Sequence,4_88,2023-09-08T18:01:36.189Z,,0,,,6650.108000000007,completion,,,,,false,,,,989850.2000000477,989850,983183.188,983253.7000000477,983199.892,989796.107,8,400,,,
trial,html.Screen,4_89_0,2023-09-08T18:01:42.021Z,,0,2,,5886.2930000954075,response,ISIC_8348712.JPG,5,ISIC_9126343.JPG,ISIC_9126343.JPG,false,0,keypress(z),500,995682.5,995682.4000000954,989779.568,989850.4000000954,989796.107,995640.764,8,400,40,,ISIC_8348712.JPG
break,html.Screen,4_89_1,2023-09-08T18:01:42.022Z,,0,,,NaN,,,,,,false,,,,995683,995682.9000000954,,995682.5999999046,,995640.764,8,400,,,
break_continue,html.Screen,4_89_2,2023-09-08T18:01:42.022Z,,0,,,NaN,,,,,,false,,,,995683.2000000477,995683.2000000477,,995683.0999999046,,995640.764,8,400,,,
sequence,flow.Sequence,4_89,2023-09-08T18:01:42.022Z,,0,,,5887.093000047724,completion,,,,,false,,,,995683.4000000954,995683.2000000477,989779.568,989850.2999999523,989796.107,995640.764,8,400,,,
trial,html.Screen,4_90_0,2023-09-08T18:01:46.856Z,,0,2,,4876.936000047717,response,ISIC_0027498.JPG,4,ISIC_0061336.JPG,ISIC_0061336.JPG,false,0,keypress(z),500,1000517.9000000954,1000517.7000000477,995624.243,995683.5,995640.764,1000466.897,8,400,41,,ISIC_0027498.JPG
break,html.Screen,4_90_1,2023-09-08T18:01:46.857Z,,0,,,NaN,,,,,,false,,,,1000518.7000000477,1000518.5,,1000518.0999999046,,1000466.897,8,400,,,
break_continue,html.Screen,4_90_2,2023-09-08T18:01:46.858Z,,0,,,NaN,,,,,,false,,,,1000519.0999999046,1000519,,1000518.9000000954,,1000466.897,8,400,,,
sequence,flow.Sequence,4_90,2023-09-08T18:01:46.858Z,,0,,,4878.2360000000335,completion,,,,,false,,,,1000519.2999999523,1000519,995624.243,995683.5,995640.764,1000466.897,8,400,,,
trial,html.Screen,4_91_0,2023-09-08T18:01:52.209Z,,0,2,,5403.902999952319,response,ISIC_3151260.JPG,5,ISIC_1328488.JPG,ISIC_1328488.JPG,false,0,keypress(z),500,1005870.9000000954,1005870.7999999523,1000450.208,1000519.4000000954,1000466.897,1005827.264,8,400,42,,ISIC_3151260.JPG
break,html.Screen,4_91_1,2023-09-08T18:01:52.210Z,,0,,,NaN,,,,,,false,,,,1005871.2999999523,1005871.0999999046,,1005871,,1005827.264,8,400,,,
break_continue,html.Screen,4_91_2,2023-09-08T18:01:52.210Z,,0,,,NaN,,,,,,false,,,,1005871.4000000954,1005871.4000000954,,1005871.4000000954,,1005827.264,8,400,,,
sequence,flow.Sequence,4_91,2023-09-08T18:01:52.210Z,,0,,,5404.50300009537,completion,,,,,false,,,,1005871.5,1005871.4000000954,1000450.208,1000519.4000000954,1000466.897,1005827.264,8,400,,,
trial,html.Screen,4_92_0,2023-09-08T18:02:00.423Z,,0,2,,8257.236000000034,response,ISIC_5357288.JPG,5,ISIC_0015245.JPG,ISIC_0015245.JPG,false,0,keypress(z),500,1014084.7000000477,1014084.5,1005810.585,1005871.5,1005827.264,1014043.405,8,400,43,,ISIC_5357288.JPG
break,html.Screen,4_92_1,2023-09-08T18:02:00.424Z,,0,,,NaN,,,,,,false,,,,1014085.0999999046,1014085,,1014084.9000000954,,1014043.405,8,400,,,
break_continue,html.Screen,4_92_2,2023-09-08T18:02:00.424Z,,0,,,NaN,,,,,,false,,,,1014085.5999999046,1014085.4000000954,,1014085.2999999523,,1014043.405,8,400,,,
sequence,flow.Sequence,4_92,2023-09-08T18:02:00.424Z,,0,,,8258.136000095401,completion,,,,,false,,,,1014085.5999999046,1014085.4000000954,1005810.585,1005871.5,1005827.264,1014043.405,8,400,,,
trial,html.Screen,4_93_0,2023-09-08T18:02:06.922Z,,0,2,,6539.795000047656,response,ISIC_0054559.JPG,4,ISIC_0025987.JPG,ISIC_0025987.JPG,false,0,keypress(z),500,1020583.4000000954,1020583.2000000477,1014026.577,1014085.7000000477,1014043.405,1020539.323,8,400,44,,ISIC_0054559.JPG
break,html.Screen,4_93_1,2023-09-08T18:02:06.923Z,,0,,,NaN,,,,,,false,,,,1020584,1020583.9000000954,,1020583.5999999046,,1020539.323,8,400,,,
break_continue,html.Screen,4_93_2,2023-09-08T18:02:06.923Z,,0,,,NaN,,,,,,false,,,,1020584.2000000477,1020584.2000000477,,1020584.0999999046,,1020539.323,8,400,,,
sequence,flow.Sequence,4_93,2023-09-08T18:02:06.923Z,,0,,,6540.795000047656,completion,,,,,false,,,,1020584.4000000954,1020584.2000000477,1014026.577,1014085.7000000477,1014043.405,1020539.323,8,400,,,
trial,html.Screen,4_94_0,2023-09-08T18:02:16.276Z,,0,2,,9397.476999952341,response,ISIC_9828853.JPG,5,ISIC_0027091.JPG,ISIC_9828853.JPG,false,1,keypress(m),500,1029937,1029936.7999999523,1020522.544,1020584.5,1020539.323,1029890.752,8,400,45,,ISIC_0027091.JPG
break,html.Screen,4_94_1,2023-09-08T18:02:16.277Z,,0,,,NaN,,,,,,false,,,,1029937.5,1029937.2999999523,,1029937.0999999046,,1029890.752,8,400,,,
break_continue,html.Screen,4_94_2,2023-09-08T18:02:16.277Z,,0,,,NaN,,,,,,false,,,,1029937.7000000477,1029937.7000000477,,1029937.5999999046,,1029890.752,8,400,,,
sequence,flow.Sequence,4_94,2023-09-08T18:02:16.277Z,,0,,,9398.377000047709,completion,,,,,false,,,,1029937.9000000954,1029937.7000000477,1020522.544,1020584.5,1020539.323,1029890.752,8,400,,,
trial,html.Screen,4_95_0,2023-09-08T18:02:21.382Z,,0,2,,5152.248000000021,response,ISIC_0028328.JPG,6,ISIC_2266857.JPG,ISIC_0028328.JPG,false,1,keypress(m),500,1035043.2999999523,1035043,1029874.057,1029938,1029890.752,1035000.763,8,400,46,,ISIC_2266857.JPG
break,html.Screen,4_95_1,2023-09-08T18:02:21.383Z,,0,,,NaN,,,,,,false,,,,1035044,1035043.7999999523,,1035043.5,,1035000.763,8,400,,,
break_continue,html.Screen,4_95_2,2023-09-08T18:02:21.383Z,,0,,,NaN,,,,,,false,,,,1035044.2999999523,1035044.2000000477,,1035044.0999999046,,1035000.763,8,400,,,
sequence,flow.Sequence,4_95,2023-09-08T18:02:21.384Z,,0,,,5153.448000047705,completion,,,,,false,,,,1035044.5,1035044.2000000477,1029874.057,1029937.9000000954,1029890.752,1035000.763,8,400,,,
trial,html.Screen,4_96_0,2023-09-08T18:02:26.794Z,,0,2,,5453.637000095332,response,ISIC_0029902.JPG,5,ISIC_0068924.JPG,ISIC_0068924.JPG,false,0,keypress(z),500,1040454.5999999046,1040454.4000000954,1034983.973,1035044.5999999046,1035000.763,1040411.226,8,400,47,,ISIC_0029902.JPG
break,html.Screen,4_96_1,2023-09-08T18:02:26.794Z,,0,,,NaN,,,,,,false,,,,1040455.2999999523,1040455.0999999046,,1040454.7999999523,,1040411.226,8,400,,,
break_continue,html.Screen,4_96_2,2023-09-08T18:02:26.795Z,,0,,,NaN,,,,,,false,,,,1040455.5999999046,1040455.5,,1040455.4000000954,,1040411.226,8,400,,,
sequence,flow.Sequence,4_96,2023-09-08T18:02:26.795Z,,0,,,5454.736999999965,completion,,,,,false,,,,1040455.7999999523,1040455.5,1034983.973,1035044.5999999046,1035000.763,1040411.226,8,400,,,
trial,html.Screen,4_97_0,2023-09-08T18:02:33.869Z,,0,2,,7118.9740000476595,response,ISIC_8484660.JPG,6,ISIC_0475506.JPG,ISIC_8484660.JPG,false,1,keypress(m),500,1047530.4000000954,1047530.2000000477,1040394.76,1040455.7999999523,1040411.226,1047491.752,8,400,48,,ISIC_0475506.JPG
break,html.Screen,4_97_1,2023-09-08T18:02:33.870Z,,0,,,NaN,,,,,,false,,,,1047530.7999999523,1047530.7000000477,,1047530.5,,1047491.752,8,400,,,
break_continue,html.Screen,4_97_2,2023-09-08T18:02:33.870Z,,0,,,NaN,,,,,,false,,,,1047531.2000000477,1047531.0999999046,,1047531,,1047491.752,8,400,,,
sequence,flow.Sequence,4_97,2023-09-08T18:02:33.870Z,,0,,,7119.873999904608,completion,,,,,false,,,,1047531.4000000954,1047531.0999999046,1040394.76,1040455.7999999523,1040411.226,1047491.752,8,400,,,
trial,html.Screen,4_98_0,2023-09-08T18:02:38.481Z,,0,2,,4649.547999952338,response,ISIC_2558816.JPG,5,ISIC_3926397.JPG,ISIC_3926397.JPG,false,0,keypress(z),500,1052141.5,1052141.2999999523,1047475.03,1047531.4000000954,1047491.752,1052100.709,8,400,49,,ISIC_2558816.JPG
break,html.Screen,4_98_1,2023-09-08T18:02:38.481Z,,0,,,NaN,,,,,,false,,,,1052142.0999999046,1052142,,1052141.7000000477,,1052100.709,8,400,,,
break_continue,html.Screen,4_98_2,2023-09-08T18:02:38.482Z,,0,,,NaN,,,,,,false,,,,1052142.4000000954,1052142.2999999523,,1052142.2000000477,,1052100.709,8,400,,,
sequence,flow.Sequence,4_98,2023-09-08T18:02:38.482Z,,0,,,4650.547999952338,completion,,,,,false,,,,1052142.5,1052142.2999999523,1047475.03,1047531.4000000954,1047491.752,1052100.709,8,400,,,
trial,html.Screen,4_99_0,2023-09-08T18:02:47.491Z,,0,2,,9051.3909999046,response,ISIC_0054941.JPG,6,ISIC_0058781.JPG,ISIC_0054941.JPG,false,1,keypress(m),500,1061152.2999999523,1061152.0999999046,1052083.958,1052142.5999999046,1052100.709,1061101.487,8,400,50,,ISIC_0058781.JPG
break,html.Screen,4_99_1,2023-09-08T18:02:57.483Z,,0,,,10002.90100000007,timeout,,,,,false,,,,1071144.0999999046,1071087.878,1061084.826,1061152.2999999523,1061101.487,1071104.388,8,400,,,
break_continue,html.Screen,4_99_2,2023-09-08T18:03:04.534Z,,0,,,7070.312000047648,response,,,,,false,continue,keypress(Space),,1078195,1078174.7000000477,1071087.878,1071144.2999999523,1071104.388,1078151.343,8,400,,,
sequence,flow.Sequence,4_99,2023-09-08T18:03:04.534Z,,0,,,26073.991000047652,completion,,,,,false,,,,1078195.2000000477,1078174.7000000477,1052083.958,1052142.5999999046,1052100.709,1078151.343,8,400,,,
trial,html.Screen,4_100_0,2023-09-08T18:03:08.841Z,,0,3,,4350.0570000952575,response,ISIC_5048571.JPG,5,ISIC_1441260.JPG,ISIC_5048571.JPG,false,1,keypress(m),500,1082501.5,1082501.4000000954,1078134.578,1078195.2999999523,1078151.343,1082459.66,8,400,1,,ISIC_1441260.JPG
break,html.Screen,4_100_1,2023-09-08T18:03:08.841Z,,0,,,NaN,,,,,,false,,,,1082501.9000000954,1082501.7999999523,,1082501.7000000477,,1082459.66,8,400,,,
break_continue,html.Screen,4_100_2,2023-09-08T18:03:08.841Z,,0,,,NaN,,,,,,false,,,,1082502.0999999046,1082502,,1082501.9000000954,,1082459.66,8,400,,,
sequence,flow.Sequence,4_100,2023-09-08T18:03:08.841Z,,0,,,4350.65699999989,completion,,,,,false,,,,1082502.0999999046,1082502,1078134.578,1078195.2999999523,1078151.343,1082459.66,8,400,,,
trial,html.Screen,4_101_0,2023-09-08T18:03:13.868Z,,0,3,,5069.240000095451,response,ISIC_0058906.JPG,5,ISIC_0071594.JPG,ISIC_0058906.JPG,false,1,keypress(m),500,1087529,1087528.9000000954,1082443.1,1082502.2000000477,1082459.66,1087486.249,8,400,2,,ISIC_0071594.JPG
break,html.Screen,4_101_1,2023-09-08T18:03:13.868Z,,0,,,NaN,,,,,,false,,,,1087529.4000000954,1087529.2999999523,,1087529.2000000477,,1087486.249,8,400,,,
break_continue,html.Screen,4_101_2,2023-09-08T18:03:13.869Z,,0,,,NaN,,,,,,false,,,,1087529.5,1087529.4000000954,,1087529.4000000954,,1087486.249,8,400,,,
sequence,flow.Sequence,4_101,2023-09-08T18:03:13.869Z,,0,,,5069.740000095451,completion,,,,,false,,,,1087529.5999999046,1087529.4000000954,1082443.1,1082502.2000000477,1082459.66,1087486.249,8,400,,,
trial,html.Screen,4_102_0,2023-09-08T18:03:18.750Z,,0,3,,4924.350999904564,response,ISIC_7236842.JPG,5,ISIC_0056110.JPG,ISIC_0056110.JPG,false,0,keypress(z),500,1092410.7000000477,1092410.5999999046,1087469.509,1087529.5999999046,1087486.249,1092379.016,8,400,3,,ISIC_7236842.JPG
break,html.Screen,4_102_1,2023-09-08T18:03:18.750Z,,0,,,NaN,,,,,,false,,,,1092410.9000000954,1092410.9000000954,,1092410.7000000477,,1092379.016,8,400,,,
break_continue,html.Screen,4_102_2,2023-09-08T18:03:18.750Z,,0,,,NaN,,,,,,false,,,,1092411.0999999046,1092411.0999999046,,1092411.0999999046,,1092379.016,8,400,,,
sequence,flow.Sequence,4_102,2023-09-08T18:03:18.750Z,,0,,,4924.850999904564,completion,,,,,false,,,,1092411.2000000477,1092411.0999999046,1087469.509,1087529.5999999046,1087486.249,1092379.016,8,400,,,
trial,html.Screen,4_103_0,2023-09-08T18:03:26.448Z,,0,3,,7729.583999904571,response,ISIC_6507412.JPG,5,ISIC_4177043.JPG,ISIC_4177043.JPG,false,0,keypress(z),500,1100108.5999999046,1100108.5999999046,1092362.5,1092411.2999999523,1092379.016,1100060.638,8,400,4,,ISIC_6507412.JPG
break,html.Screen,4_103_1,2023-09-08T18:03:26.448Z,,0,,,NaN,,,,,,false,,,,1100109.0999999046,1100108.9000000954,,1100108.7999999523,,1100060.638,8,400,,,
break_continue,html.Screen,4_103_2,2023-09-08T18:03:26.448Z,,0,,,NaN,,,,,,false,,,,1100109.2999999523,1100109.2999999523,,1100109.2000000477,,1100060.638,8,400,,,
sequence,flow.Sequence,4_103,2023-09-08T18:03:26.449Z,,0,,,7730.283999952255,completion,,,,,false,,,,1100109.4000000954,1100109.2999999523,1092362.5,1092411.2999999523,1092379.016,1100060.638,8,400,,,
trial,html.Screen,4_104_0,2023-09-08T18:03:32.754Z,,0,3,,6353.861999999965,response,ISIC_5005961.JPG,5,ISIC_1265382.JPG,ISIC_1265382.JPG,false,0,keypress(z),500,1106414.7999999523,1106414.5,1100043.962,1100109.5,1100060.638,1106372.982,8,400,5,,ISIC_5005961.JPG
break,html.Screen,4_104_1,2023-09-08T18:03:32.755Z,,0,,,NaN,,,,,,false,,,,1106415.9000000954,1106415.5999999046,,1106415.2000000477,,1106372.982,8,400,,,
break_continue,html.Screen,4_104_2,2023-09-08T18:03:32.756Z,,0,,,NaN,,,,,,false,,,,1106416.5999999046,1106416.2999999523,,1106416.2000000477,,1106372.982,8,400,,,
sequence,flow.Sequence,4_104,2023-09-08T18:03:32.756Z,,0,,,6355.661999952281,completion,,,,,false,,,,1106416.9000000954,1106416.2999999523,1100043.962,1100109.5,1100060.638,1106372.982,8,400,,,
trial,html.Screen,4_105_0,2023-09-08T18:03:40.680Z,,0,3,,7967.31799995224,response,ISIC_0000118.JPG,6,ISIC_0010723.JPG,ISIC_0000118.JPG,false,1,keypress(m),500,1114340.5,1114340.2999999523,1106356.246,1106417.9000000954,1106372.982,1114288.353,8,400,6,,ISIC_0010723.JPG
break,html.Screen,4_105_1,2023-09-08T18:03:40.680Z,,0,,,NaN,,,,,,false,,,,1114341.2000000477,1114341,,1114340.7000000477,,1114288.353,8,400,,,
break_continue,html.Screen,4_105_2,2023-09-08T18:03:40.681Z,,0,,,NaN,,,,,,false,,,,1114341.5999999046,1114341.4000000954,,1114341.2999999523,,1114288.353,8,400,,,
sequence,flow.Sequence,4_105,2023-09-08T18:03:40.681Z,,0,,,7968.418000095291,completion,,,,,false,,,,1114341.7000000477,1114341.4000000954,1106356.246,1106417.7000000477,1106372.982,1114288.353,8,400,,,
trial,html.Screen,4_106_0,2023-09-08T18:03:46.977Z,,0,3,,6348.94699995243,response,ISIC_0678758.JPG,5,ISIC_0010421.JPG,ISIC_0010421.JPG,false,0,keypress(z),500,1120637.5999999046,1120637.2999999523,1114271.771,1114341.7999999523,1114288.353,1120583.957,8,400,7,,ISIC_0678758.JPG
break,html.Screen,4_106_1,2023-09-08T18:03:46.977Z,,0,,,NaN,,,,,,false,,,,1120638.2000000477,1120638,,1120637.7999999523,,1120583.957,8,400,,,
break_continue,html.Screen,4_106_2,2023-09-08T18:03:46.978Z,,0,,,NaN,,,,,,false,,,,1120638.5,1120638.4000000954,,1120638.2999999523,,1120583.957,8,400,,,
sequence,flow.Sequence,4_106,2023-09-08T18:03:46.978Z,,0,,,6350.047000095481,completion,,,,,false,,,,1120638.7000000477,1120638.4000000954,1114271.771,1114341.7999999523,1114288.353,1120583.957,8,400,,,
trial,html.Screen,4_107_0,2023-09-08T18:03:53.731Z,,0,3,,6808.043000000063,response,ISIC_8751106.JPG,4,ISIC_0033016.JPG,ISIC_0033016.JPG,false,0,keypress(z),500,1127392.2000000477,1127392,1120567.182,1120638.7999999523,1120583.957,1127347.122,8,400,8,,ISIC_8751106.JPG
break,html.Screen,4_107_1,2023-09-08T18:03:53.732Z,,0,,,NaN,,,,,,false,,,,1127392.9000000954,1127392.5999999046,,1127392.4000000954,,1127347.122,8,400,,,
break_continue,html.Screen,4_107_2,2023-09-08T18:03:53.732Z,,0,,,NaN,,,,,,false,,,,1127393.2999999523,1127393.0999999046,,1127393,,1127347.122,8,400,,,
sequence,flow.Sequence,4_107,2023-09-08T18:03:53.733Z,,0,,,6809.142999904696,completion,,,,,false,,,,1127393.4000000954,1127393.0999999046,1120567.182,1120638.7999999523,1120583.957,1127347.122,8,400,,,
trial,html.Screen,4_108_0,2023-09-08T18:03:58.668Z,,0,3,,4982.07800004771,response,ISIC_0000551.JPG,5,ISIC_4168757.JPG,ISIC_0000551.JPG,false,1,keypress(m),500,1132329.2999999523,1132329.2000000477,1127330.466,1127393.5,1127347.122,1132290.201,8,400,9,,ISIC_4168757.JPG
break,html.Screen,4_108_1,2023-09-08T18:03:58.669Z,,0,,,NaN,,,,,,false,,,,1132329.7999999523,1132329.5999999046,,1132329.5,,1132290.201,8,400,,,
break_continue,html.Screen,4_108_2,2023-09-08T18:03:58.669Z,,0,,,NaN,,,,,,false,,,,1132329.9000000954,1132329.9000000954,,1132329.7999999523,,1132290.201,8,400,,,
sequence,flow.Sequence,4_108,2023-09-08T18:03:58.669Z,,0,,,4982.7780000953935,completion,,,,,false,,,,1132330.0999999046,1132329.9000000954,1127330.466,1127393.5,1127347.122,1132290.201,8,400,,,
trial,html.Screen,4_109_0,2023-09-08T18:04:06.486Z,,0,3,,7856.499000047799,response,ISIC_0813423.JPG,4,ISIC_7586566.JPG,ISIC_0813423.JPG,false,1,keypress(m),500,1140146.7000000477,1140146.7000000477,1132273.347,1132330.2000000477,1132290.201,1140105.374,8,400,10,,ISIC_7586566.JPG
break,html.Screen,4_109_1,2023-09-08T18:04:06.486Z,,0,,,NaN,,,,,,false,,,,1140147.0999999046,1140147,,1140146.9000000954,,1140105.374,8,400,,,
break_continue,html.Screen,4_109_2,2023-09-08T18:04:06.486Z,,0,,,NaN,,,,,,false,,,,1140147.2000000477,1140147.2000000477,,1140147.2000000477,,1140105.374,8,400,,,
sequence,flow.Sequence,4_109,2023-09-08T18:04:06.486Z,,0,,,7856.999000047799,completion,,,,,false,,,,1140147.2999999523,1140147.2000000477,1132273.347,1132330.0999999046,1132290.201,1140105.374,8,400,,,
trial,html.Screen,4_110_0,2023-09-08T18:04:13.624Z,,0,3,,7179.5260000952985,response,ISIC_9439034.JPG,5,ISIC_0065883.JPG,ISIC_0065883.JPG,false,0,keypress(z),500,1147285.0999999046,1147284.9000000954,1140088.621,1140147.2999999523,1140105.374,1147235.741,8,400,11,,ISIC_9439034.JPG
break,html.Screen,4_110_1,2023-09-08T18:04:13.625Z,,0,,,NaN,,,,,,false,,,,1147285.5999999046,1147285.4000000954,,1147285.0999999046,,1147235.741,8,400,,,
break_continue,html.Screen,4_110_2,2023-09-08T18:04:13.625Z,,0,,,NaN,,,,,,false,,,,1147285.7999999523,1147285.7000000477,,1147285.5999999046,,1147235.741,8,400,,,
sequence,flow.Sequence,4_110,2023-09-08T18:04:13.625Z,,0,,,7180.326000047615,completion,,,,,false,,,,1147286.0999999046,1147285.7000000477,1140088.621,1140147.2999999523,1140105.374,1147235.741,8,400,,,
trial,html.Screen,4_111_0,2023-09-08T18:04:21.148Z,,0,3,,7571.759000000078,response,ISIC_0055361.JPG,6,ISIC_9720518.JPG,ISIC_0055361.JPG,false,1,keypress(m),500,1154807.7000000477,1154807.5,1147219.227,1147286.2000000477,1147235.741,1154767.254,8,400,12,,ISIC_9720518.JPG
break,html.Screen,4_111_1,2023-09-08T18:04:21.149Z,,0,,,NaN,,,,,,false,,,,1154808.4000000954,1154808.2000000477,,1154807.9000000954,,1154767.254,8,400,,,
break_continue,html.Screen,4_111_2,2023-09-08T18:04:21.149Z,,0,,,NaN,,,,,,false,,,,1154808.7000000477,1154808.7000000477,,1154808.5,,1154767.254,8,400,,,
sequence,flow.Sequence,4_111,2023-09-08T18:04:21.149Z,,0,,,7572.959000047762,completion,,,,,false,,,,1154808.9000000954,1154808.7000000477,1147219.227,1147286.2000000477,1147235.741,1154767.254,8,400,,,
trial,html.Screen,4_112_0,2023-09-08T18:04:26.592Z,,0,3,,5484.64600009541,response,ISIC_8065001.JPG,5,ISIC_0015443.JPG,ISIC_0015443.JPG,false,0,keypress(z),500,1160252.0999999046,1160251.9000000954,1154750.395,1154809,1154767.254,1160211.031,8,400,13,,ISIC_8065001.JPG
break,html.Screen,4_112_1,2023-09-08T18:04:26.593Z,,0,,,NaN,,,,,,false,,,,1160252.4000000954,1160252.2999999523,,1160252.2000000477,,1160211.031,8,400,,,
break_continue,html.Screen,4_112_2,2023-09-08T18:04:26.593Z,,0,,,NaN,,,,,,false,,,,1160252.5,1160252.5,,1160252.4000000954,,1160211.031,8,400,,,
sequence,flow.Sequence,4_112,2023-09-08T18:04:26.593Z,,0,,,5485.246000000043,completion,,,,,false,,,,1160252.5999999046,1160252.5,1154750.395,1154809,1154767.254,1160211.031,8,400,,,
trial,html.Screen,4_113_0,2023-09-08T18:04:32.226Z,,0,3,,5674.568999904674,response,ISIC_6668093.JPG,5,ISIC_0024427.JPG,ISIC_6668093.JPG,false,1,keypress(m),500,1165885.7000000477,1165885.5999999046,1160194.447,1160252.5999999046,1160211.031,1165838.719,8,400,14,,ISIC_0024427.JPG
break,html.Screen,4_113_1,2023-09-08T18:04:32.226Z,,0,,,NaN,,,,,,false,,,,1165886.2000000477,1165886.0999999046,,1165885.9000000954,,1165838.719,8,400,,,
break_continue,html.Screen,4_113_2,2023-09-08T18:04:32.227Z,,0,,,NaN,,,,,,false,,,,1165886.5,1165886.2999999523,,1165886.2999999523,,1165838.719,8,400,,,
sequence,flow.Sequence,4_113,2023-09-08T18:04:32.227Z,,0,,,5675.268999952357,completion,,,,,false,,,,1165886.5999999046,1165886.2999999523,1160194.447,1160252.5999999046,1160211.031,1165838.719,8,400,,,
trial,html.Screen,4_114_0,2023-09-08T18:04:36.948Z,,0,3,,4769.380999904592,response,ISIC_0378399.JPG,5,ISIC_5895384.JPG,ISIC_5895384.JPG,false,0,keypress(z),500,1170608.2999999523,1170608.0999999046,1165822.078,1165886.7000000477,1165838.719,1170564.57,8,400,15,,ISIC_0378399.JPG
break,html.Screen,4_114_1,2023-09-08T18:04:36.949Z,,0,,,NaN,,,,,,false,,,,1170608.7000000477,1170608.5,,1170608.4000000954,,1170564.57,8,400,,,
break_continue,html.Screen,4_114_2,2023-09-08T18:04:36.949Z,,0,,,NaN,,,,,,false,,,,1170608.7999999523,1170608.7000000477,,1170608.7000000477,,1170564.57,8,400,,,
sequence,flow.Sequence,4_114,2023-09-08T18:04:36.949Z,,0,,,4769.981000047643,completion,,,,,false,,,,1170608.9000000954,1170608.7000000477,1165822.078,1165886.7000000477,1165838.719,1170564.57,8,400,,,
trial,html.Screen,4_115_0,2023-09-08T18:04:42.406Z,,0,3,,5501.429999999935,response,ISIC_0026483.JPG,5,ISIC_0059943.JPG,ISIC_0059943.JPG,false,0,keypress(z),500,1176066.2999999523,1176066,1170547.814,1170609,1170564.57,1176025.132,8,400,16,,ISIC_0026483.JPG
break,html.Screen,4_115_1,2023-09-08T18:04:42.407Z,,0,,,NaN,,,,,,false,,,,1176067.2000000477,1176066.7000000477,,1176066.5,,1176025.132,8,400,,,
break_continue,html.Screen,4_115_2,2023-09-08T18:04:42.408Z,,0,,,NaN,,,,,,false,,,,1176067.7000000477,1176067.5999999046,,1176067.5,,1176025.132,8,400,,,
sequence,flow.Sequence,4_115,2023-09-08T18:04:42.408Z,,0,,,5503.029999904567,completion,,,,,false,,,,1176068,1176067.5999999046,1170547.814,1170609,1170564.57,1176025.132,8,400,,,
trial,html.Screen,4_116_0,2023-09-08T18:04:48.975Z,,0,3,,6609.467999904649,response,ISIC_2526170.JPG,5,ISIC_0031127.JPG,ISIC_0031127.JPG,false,0,keypress(z),500,1182634.7000000477,1182634.5999999046,1176008.45,1176068.2000000477,1176025.132,1182588.004,8,400,17,,ISIC_2526170.JPG
break,html.Screen,4_116_1,2023-09-08T18:04:48.975Z,,0,,,NaN,,,,,,false,,,,1182635.0999999046,1182635,,1182634.7999999523,,1182588.004,8,400,,,
break_continue,html.Screen,4_116_2,2023-09-08T18:04:48.976Z,,0,,,NaN,,,,,,false,,,,1182635.5999999046,1182635.5,,1182635.2999999523,,1182588.004,8,400,,,
sequence,flow.Sequence,4_116,2023-09-08T18:04:48.976Z,,0,,,6610.368000000017,completion,,,,,false,,,,1182635.7000000477,1182635.5,1176008.45,1176068.0999999046,1176025.132,1182588.004,8,400,,,
trial,html.Screen,4_117_0,2023-09-08T18:04:56.465Z,,0,3,,7536.89600009541,response,ISIC_0011870.JPG,4,ISIC_0030873.JPG,ISIC_0011870.JPG,false,1,keypress(m),500,1190125,1190124.9000000954,1182571.347,1182635.7999999523,1182588.004,1190085.821,8,400,18,,ISIC_0030873.JPG
break,html.Screen,4_117_1,2023-09-08T18:04:56.466Z,,0,,,NaN,,,,,,false,,,,1190125.5,1190125.2999999523,,1190125.2000000477,,1190085.821,8,400,,,
break_continue,html.Screen,4_117_2,2023-09-08T18:04:56.466Z,,0,,,NaN,,,,,,false,,,,1190126,1190125.9000000954,,1190125.5999999046,,1190085.821,8,400,,,
sequence,flow.Sequence,4_117,2023-09-08T18:04:56.466Z,,0,,,7537.89600009541,completion,,,,,false,,,,1190126.0999999046,1190125.9000000954,1182571.347,1182635.7999999523,1182588.004,1190085.821,8,400,,,
trial,html.Screen,4_118_0,2023-09-08T18:05:01.876Z,,0,3,,5449.679000000004,response,ISIC_0031379.JPG,4,ISIC_0033962.JPG,ISIC_0033962.JPG,false,0,keypress(z),500,1195535.5999999046,1195535.5,1190069.127,1190126.5999999046,1190085.821,1195496.3,8,400,19,,ISIC_0031379.JPG
break,html.Screen,4_118_1,2023-09-08T18:05:01.876Z,,0,,,NaN,,,,,,false,,,,1195536,1195535.9000000954,,1195535.7999999523,,1195496.3,8,400,,,
break_continue,html.Screen,4_118_2,2023-09-08T18:05:01.876Z,,0,,,NaN,,,,,,false,,,,1195536.2999999523,1195536.2000000477,,1195536.0999999046,,1195496.3,8,400,,,
sequence,flow.Sequence,4_118,2023-09-08T18:05:01.876Z,,0,,,5450.379000047687,completion,,,,,false,,,,1195536.2999999523,1195536.2000000477,1190069.127,1190126.5,1190085.821,1195496.3,8,400,,,
trial,html.Screen,4_119_0,2023-09-08T18:05:09.493Z,,0,3,,7656.799999904586,response,ISIC_6938608.JPG,5,ISIC_4129376.JPG,ISIC_6938608.JPG,false,1,keypress(m),500,1203153.2000000477,1203153.0999999046,1195479.613,1195536.4000000954,1195496.3,1203111.146,8,400,20,,ISIC_4129376.JPG
break,html.Screen,4_119_1,2023-09-08T18:05:09.494Z,,0,,,NaN,,,,,,false,,,,1203153.7000000477,1203153.5999999046,,1203153.2999999523,,1203111.146,8,400,,,
break_continue,html.Screen,4_119_2,2023-09-08T18:05:09.494Z,,0,,,NaN,,,,,,false,,,,1203153.9000000954,1203153.7999999523,,1203153.7000000477,,1203111.146,8,400,,,
sequence,flow.Sequence,4_119,2023-09-08T18:05:09.494Z,,0,,,7657.49999995227,completion,,,,,false,,,,1203154,1203153.7999999523,1195479.613,1195536.4000000954,1195496.3,1203111.146,8,400,,,
trial,html.Screen,4_120_0,2023-09-08T18:05:16.968Z,,0,3,,7516.453999904683,response,ISIC_4912684.JPG,6,ISIC_4131697.JPG,ISIC_4131697.JPG,false,0,keypress(z),500,1210627.5999999046,1210627.5999999046,1203094.464,1203154,1203111.146,1210575.65,8,400,21,,ISIC_4912684.JPG
break,html.Screen,4_120_1,2023-09-08T18:05:16.969Z,,0,,,NaN,,,,,,false,,,,1210627.9000000954,1210627.9000000954,,1210627.7999999523,,1210575.65,8,400,,,
break_continue,html.Screen,4_120_2,2023-09-08T18:05:16.969Z,,0,,,NaN,,,,,,false,,,,1210628.2000000477,1210628.0999999046,,1210628,,1210575.65,8,400,,,
sequence,flow.Sequence,4_120,2023-09-08T18:05:16.969Z,,0,,,7516.953999904683,completion,,,,,false,,,,1210628.2000000477,1210628.0999999046,1203094.464,1203154,1203111.146,1210575.65,8,400,,,
trial,html.Screen,4_121_0,2023-09-08T18:05:24.494Z,,0,3,,7577.949999904726,response,ISIC_2266011.JPG,5,ISIC_7394897.JPG,ISIC_7394897.JPG,false,0,keypress(z),500,1218153.7000000477,1218153.5999999046,1210558.957,1210628.2000000477,1210575.65,1218107.004,8,400,22,,ISIC_2266011.JPG
break,html.Screen,4_121_1,2023-09-08T18:05:24.495Z,,0,,,NaN,,,,,,false,,,,1218154,1218154,,1218153.7999999523,,1218107.004,8,400,,,
break_continue,html.Screen,4_121_2,2023-09-08T18:05:24.495Z,,0,,,NaN,,,,,,false,,,,1218154.2000000477,1218154.0999999046,,1218154.0999999046,,1218107.004,8,400,,,
sequence,flow.Sequence,4_121,2023-09-08T18:05:24.495Z,,0,,,7578.449999904726,completion,,,,,false,,,,1218154.2000000477,1218154.0999999046,1210558.957,1210628.2000000477,1210575.65,1218107.004,8,400,,,
trial,html.Screen,4_122_0,2023-09-08T18:05:30.784Z,,0,3,,6336.595999904675,response,ISIC_0032017.JPG,5,ISIC_9983696.JPG,ISIC_0032017.JPG,false,1,keypress(m),500,1224443.7000000477,1224443.5999999046,1218090.34,1218154.2000000477,1218107.004,1224402.699,8,400,23,,ISIC_9983696.JPG
break,html.Screen,4_122_1,2023-09-08T18:05:30.785Z,,0,,,NaN,,,,,,false,,,,1224444,1224444,,1224443.7999999523,,1224402.699,8,400,,,
break_continue,html.Screen,4_122_2,2023-09-08T18:05:30.785Z,,0,,,NaN,,,,,,false,,,,1224444.2999999523,1224444.2000000477,,1224444.0999999046,,1224402.699,8,400,,,
sequence,flow.Sequence,4_122,2023-09-08T18:05:30.785Z,,0,,,6337.196000047727,completion,,,,,false,,,,1224444.2999999523,1224444.2000000477,1218090.34,1218154.2000000477,1218107.004,1224402.699,8,400,,,
trial,html.Screen,4_123_0,2023-09-08T18:05:36.490Z,,0,3,,5746.90099990461,response,ISIC_0060585.JPG,5,ISIC_0054087.JPG,ISIC_0060585.JPG,false,1,keypress(m),500,1230149.7000000477,1230149.5999999046,1224386.061,1224444.5,1224402.699,1230096.985,8,400,24,,ISIC_0054087.JPG
break,html.Screen,4_123_1,2023-09-08T18:05:36.491Z,,0,,,NaN,,,,,,false,,,,1230150,1230150,,1230149.7999999523,,1230096.985,8,400,,,
break_continue,html.Screen,4_123_2,2023-09-08T18:05:36.491Z,,0,,,NaN,,,,,,false,,,,1230150.2000000477,1230150.0999999046,,1230150.0999999046,,1230096.985,8,400,,,
sequence,flow.Sequence,4_123,2023-09-08T18:05:36.491Z,,0,,,5747.40099990461,completion,,,,,false,,,,1230150.2000000477,1230150.0999999046,1224386.061,1224444.5,1224402.699,1230096.985,8,400,,,
trial,html.Screen,4_124_0,2023-09-08T18:05:42.989Z,,0,3,,6550.814999952214,response,ISIC_5312710.JPG,5,ISIC_0005879.JPG,ISIC_5312710.JPG,false,1,keypress(m),500,1236648,1236647.7999999523,1230080.471,1230150.2999999523,1230096.985,1236609.897,8,400,25,,ISIC_0005879.JPG
break,html.Screen,4_124_1,2023-09-08T18:05:42.989Z,,0,,,NaN,,,,,,false,,,,1236648.7000000477,1236648.4000000954,,1236648.2000000477,,1236609.897,8,400,,,
break_continue,html.Screen,4_124_2,2023-09-08T18:05:42.990Z,,0,,,NaN,,,,,,false,,,,1236649,1236648.9000000954,,1236648.7999999523,,1236609.897,8,400,,,
sequence,flow.Sequence,4_124,2023-09-08T18:05:42.990Z,,0,,,6551.915000095265,completion,,,,,false,,,,1236649.0999999046,1236648.9000000954,1230080.471,1230150.2000000477,1230096.985,1236609.897,8,400,,,
trial,html.Screen,4_125_0,2023-09-08T18:05:50.996Z,,0,3,,8044.80300004757,response,ISIC_0024607.JPG,5,ISIC_0030085.JPG,ISIC_0030085.JPG,false,0,keypress(z),500,1244654.9000000954,1244654.7000000477,1236593.01,1236649.2000000477,1236609.897,1244608.635,8,400,26,,ISIC_0024607.JPG
break,html.Screen,4_125_1,2023-09-08T18:05:50.997Z,,0,,,NaN,,,,,,false,,,,1244656.0999999046,1244655.7999999523,,1244655.2999999523,,1244608.635,8,400,,,
