sender,sender_type,sender_id,timestamp,meta,,blockNo,condition,duration,ended_on,img_left,img_reveal,img_right,loser,practice,response,response_action,selection_duration,time_commit,time_end,time_render,time_run,time_show,time_switch,total_blocks,total_trials,trialNo,url,winner
informed_consent,html.Screen,0,2023-09-09T16:05:25.916Z,"{""labjs_version"":""20.2.4"",""labjs_build"":{""flavor"":""development"",""commit"":""f5b4a49f956347addd546a832a3327688c2c0fef""},""location"":""https://labjs.felixhenninger.com/api/labjs_preview/index.html"",""userAgent"":""Mozilla/5.0 (Windows NT 10.0; Win64; x64) AppleWebKit/537.36 (KHTML, like Gecko) Chrome/116.0.0.0 Safari/537.36"",""platform"":""Win32"",""language"":""en-AU"",""locale"":""en-US"",""timeZone"":""America/Chicago"",""timezoneOffset"":300,""screen_width"":1680,""screen_height"":1050,""scroll_width"":1296,""scroll_height"":688,""window_innerWidth"":1296,""window_innerHeight"":736,""devicePixelRatio"":1}",,,,76022.04900019073,response,,,,,,consent,click button,,76872,76863.30000019073,824.582,996.9000000953674,841.251,76705.566,,,,{},
Welcome,html.Screen,1,2023-09-09T16:05:34.822Z,,,,symmetry,9071.834000095361,response,,,,,,continue,click button,,85778,85777.40000009537,76688.868,76872.19999980927,76705.566,85639.765,,,,,
trial,html.Screen,2_0_0,2023-09-09T16:05:39.400Z,,0,0,,4716.135000095368,response,ISIC_0069348.JPG,,ISIC_6997061.JPG,ISIC_6997061.JPG,true,0,keypress(z),500,90356.09999990463,90355.90000009537,85622.909,85778.09999990463,85639.765,90198.496,1,6,1,,ISIC_0069348.JPG
sequence,flow.Sequence,2_0,2023-09-09T16:05:39.400Z,,0,,,4716.135000095368,completion,,,,,true,,,,90356.30000019073,90355.90000009537,85622.909,85778.09999990463,85639.765,90198.496,1,6,,,
trial,html.Screen,2_1_0,2023-09-09T16:05:42.137Z,,0,0,,2894.6039999046334,response,ISIC_0009529.JPG,,ISIC_0057368.JPG,ISIC_0057368.JPG,true,0,keypress(z),500,93093.19999980927,93093.09999990463,90181.888,90356.40000009537,90198.496,92953.896,1,6,2,,ISIC_0009529.JPG
sequence,flow.Sequence,2_1,2023-09-09T16:05:42.137Z,,0,,,2894.6039999046334,completion,,,,,true,,,,93093.30000019073,93093.09999990463,90181.888,90356.40000009537,90198.496,92953.896,1,6,,,
trial,html.Screen,2_2_0,2023-09-09T16:05:44.731Z,,0,0,,2732.9040001907415,response,ISIC_9758671.JPG,,ISIC_0064954.JPG,ISIC_0064954.JPG,true,0,keypress(z),500,95687,95686.80000019073,92937.274,93093.5,92953.896,95525.733,1,6,3,,ISIC_9758671.JPG
sequence,flow.Sequence,2_2,2023-09-09T16:05:44.731Z,,0,,,2732.9040001907415,completion,,,,,true,,,,95687.40000009537,95686.80000019073,92937.274,93093.5,92953.896,95525.733,1,6,,,
trial,html.Screen,2_3_0,2023-09-09T16:05:47.140Z,,0,0,,2570.4669998092722,response,ISIC_0005785.JPG,,ISIC_0000080.JPG,ISIC_0000080.JPG,true,0,keypress(z),500,98096.30000019073,98096.19999980927,95508.953,95687.5,95525.733,97930.284,1,6,4,,ISIC_0005785.JPG
sequence,flow.Sequence,2_3,2023-09-09T16:05:47.140Z,,0,,,2570.4669998092722,completion,,,,,true,,,,98096.59999990463,98096.19999980927,95508.953,95687.40000009537,95525.733,97930.284,1,6,,,
trial,html.Screen,2_4_0,2023-09-09T16:05:49.575Z,,0,0,,2600.4159998092655,response,ISIC_5390060.JPG,,ISIC_7944028.JPG,ISIC_7944028.JPG,true,0,keypress(z),500,100530.90000009537,100530.69999980927,97913.515,98096.69999980927,97930.284,100368.311,1,6,5,,ISIC_5390060.JPG
sequence,flow.Sequence,2_4,2023-09-09T16:05:49.575Z,,0,,,2600.4159998092655,completion,,,,,true,,,,100531.09999990463,100530.69999980927,97913.515,98096.59999990463,97930.284,100368.311,1,6,,,
trial,html.Screen,2_5_0,2023-09-09T16:05:52.122Z,,0,0,,2709.1889999999985,response,ISIC_0010188.JPG,,ISIC_0794216.JPG,ISIC_0794216.JPG,true,0,keypress(z),500,103077.69999980927,103077.5,100351.585,100531.19999980927,100368.311,102923.46,1,6,6,,ISIC_0010188.JPG
sequence,flow.Sequence,2_5,2023-09-09T16:05:52.122Z,,0,,,2709.1889999999985,completion,,,,,true,,,,103078,103077.5,100351.585,100531.19999980927,100368.311,102923.46,1,6,,,
loop,flow.Loop,2,2023-09-09T16:05:52.122Z,,,,,17437.735,completion,,,,,true,,,,103078.19999980927,103077.5,85622.909,85778.09999990463,85639.765,102923.46,1,6,,,
exp_instructions,html.Screen,3,2023-09-09T16:06:25.486Z,,,,,33516.53999999999,response,,,,,,continue,keypress(Space),,136440.59999990463,136440,102906.807,103078.19999980927,102923.46,136288.28,,,,,
trial,html.Screen,4_0_0,2023-09-09T16:06:34.659Z,,0,1,,9325.220000000001,response,ISIC_0069273.JPG,5,ISIC_0033186.JPG,ISIC_0069273.JPG,false,1,keypress(m),500,145613.59999990463,145613.5,136271.477,136440.80000019073,136288.28,145472.733,8,400,1,,ISIC_0033186.JPG
break,html.Screen,4_0_1,2023-09-09T16:06:34.660Z,,0,,,NaN,,,,,,false,,,,145614.19999980927,145614,,145613.69999980927,,145472.733,8,400,,,
break_continue,html.Screen,4_0_2,2023-09-09T16:06:34.660Z,,0,,,NaN,,,,,,false,,,,145614.5,145614.40000009537,,145614.30000019073,,145472.733,8,400,,,
sequence,flow.Sequence,4_0,2023-09-09T16:06:34.660Z,,0,,,9326.120000095369,completion,,,,,false,,,,145614.69999980927,145614.40000009537,136271.477,136440.80000019073,136288.28,145472.733,8,400,,,
trial,html.Screen,4_1_0,2023-09-09T16:06:41.928Z,,0,1,,7409.567000190727,response,ISIC_3073339.JPG,5,ISIC_0033171.JPG,ISIC_0033171.JPG,false,0,keypress(z),500,152882.5,152882.30000019073,145456.116,145614.69999980927,145472.733,152736.894,8,400,2,,ISIC_3073339.JPG
break,html.Screen,4_1_1,2023-09-09T16:06:41.928Z,,0,,,NaN,,,,,,false,,,,152882.90000009537,152882.80000019073,,152882.59999990463,,152736.894,8,400,,,
break_continue,html.Screen,4_1_2,2023-09-09T16:06:41.928Z,,0,,,NaN,,,,,,false,,,,152883.09999990463,152883,,152882.90000009537,,152736.894,8,400,,,
sequence,flow.Sequence,4_1,2023-09-09T16:06:41.928Z,,0,,,7410.266999999993,completion,,,,,false,,,,152883.19999980927,152883,145456.116,145614.69999980927,145472.733,152736.894,8,400,,,
trial,html.Screen,4_2_0,2023-09-09T16:06:47.514Z,,0,1,,5731.705999904632,response,ISIC_3653492.JPG,5,ISIC_0033075.JPG,ISIC_3653492.JPG,false,1,keypress(m),500,158468.69999980927,158468.59999990463,152720.192,152883.30000019073,152736.894,158314.446,8,400,3,,ISIC_0033075.JPG
break,html.Screen,4_2_1,2023-09-09T16:06:47.515Z,,0,,,NaN,,,,,,false,,,,158469.30000019073,158469.09999990463,,158468.80000019073,,158314.446,8,400,,,
break_continue,html.Screen,4_2_2,2023-09-09T16:06:47.515Z,,0,,,NaN,,,,,,false,,,,158469.59999990463,158469.5,,158469.40000009537,,158314.446,8,400,,,
sequence,flow.Sequence,4_2,2023-09-09T16:06:47.515Z,,0,,,5732.606,completion,,,,,false,,,,158469.69999980927,158469.5,152720.192,152883.30000019073,152736.894,158314.446,8,400,,,
trial,html.Screen,4_3_0,2023-09-09T16:06:54.044Z,,0,1,,6684.653999904636,response,ISIC_0029343.JPG,4,ISIC_0014557.JPG,ISIC_0014557.JPG,false,0,keypress(z),500,164999.19999980927,164999.09999990463,158297.674,158469.69999980927,158314.446,164843.855,8,400,4,,ISIC_0029343.JPG
break,html.Screen,4_3_1,2023-09-09T16:06:54.045Z,,0,,,NaN,,,,,,false,,,,164999.80000019073,164999.69999980927,,164999.40000009537,,164843.855,8,400,,,
break_continue,html.Screen,4_3_2,2023-09-09T16:06:54.045Z,,0,,,NaN,,,,,,false,,,,165000.19999980927,165000.19999980927,,165000,,164843.855,8,400,,,
sequence,flow.Sequence,4_3,2023-09-09T16:06:54.046Z,,0,,,6685.753999809269,completion,,,,,false,,,,165000.30000019073,165000.19999980927,158297.674,158469.69999980927,158314.446,164843.855,8,400,,,
trial,html.Screen,4_4_0,2023-09-09T16:07:02.574Z,,0,1,,8685.244999904622,response,ISIC_1431777.JPG,5,ISIC_0069743.JPG,ISIC_1431777.JPG,false,1,keypress(m),500,173529.19999980927,173529.09999990463,164827.243,165000.30000019073,164843.855,173360.35,8,400,5,,ISIC_0069743.JPG
break,html.Screen,4_4_1,2023-09-09T16:07:02.575Z,,0,,,NaN,,,,,,false,,,,173529.69999980927,173529.59999990463,,173529.30000019073,,173360.35,8,400,,,
break_continue,html.Screen,4_4_2,2023-09-09T16:07:02.575Z,,0,,,NaN,,,,,,false,,,,173529.80000019073,173529.80000019073,,173529.80000019073,,173360.35,8,400,,,
sequence,flow.Sequence,4_4,2023-09-09T16:07:02.575Z,,0,,,8685.945000190724,completion,,,,,false,,,,173530,173529.80000019073,164827.243,165000.30000019073,164843.855,173360.35,8,400,,,
trial,html.Screen,4_5_0,2023-09-09T16:07:09.495Z,,0,1,,7089.550000095362,response,ISIC_9101441.JPG,5,ISIC_0013861.JPG,ISIC_0013861.JPG,false,0,keypress(z),500,180450,180449.90000009537,173343.71,173530,173360.35,180290.514,8,400,6,,ISIC_9101441.JPG
break,html.Screen,4_5_1,2023-09-09T16:07:09.496Z,,0,,,NaN,,,,,,false,,,,180450.69999980927,180450.5,,180450.09999990463,,180290.514,8,400,,,
break_continue,html.Screen,4_5_2,2023-09-09T16:07:09.496Z,,0,,,NaN,,,,,,false,,,,180451.09999990463,180451,,180450.80000019073,,180290.514,8,400,,,
sequence,flow.Sequence,4_5,2023-09-09T16:07:09.496Z,,0,,,7090.649999999994,completion,,,,,false,,,,180451.09999990463,180451,173343.71,173530,173360.35,180290.514,8,400,,,
trial,html.Screen,4_6_0,2023-09-09T16:07:17.408Z,,0,1,,8072.386000095372,response,ISIC_7837503.JPG,5,ISIC_1068686.JPG,ISIC_1068686.JPG,false,0,keypress(z),500,188363,188362.90000009537,180273.883,180451.19999980927,180290.514,188222.567,8,400,7,,ISIC_7837503.JPG
break,html.Screen,4_6_1,2023-09-09T16:07:17.409Z,,0,,,NaN,,,,,,false,,,,188363.5,188363.40000009537,,188363.19999980927,,188222.567,8,400,,,
break_continue,html.Screen,4_6_2,2023-09-09T16:07:17.409Z,,0,,,NaN,,,,,,false,,,,188363.69999980927,188363.69999980927,,188363.5,,188222.567,8,400,,,
sequence,flow.Sequence,4_6,2023-09-09T16:07:17.409Z,,0,,,8073.18599980927,completion,,,,,false,,,,188363.80000019073,188363.69999980927,180273.883,180451.19999980927,180290.514,188222.567,8,400,,,
trial,html.Screen,4_7_0,2023-09-09T16:07:22.890Z,,0,1,,5621.733000190725,response,ISIC_0055737.JPG,6,ISIC_7168122.JPG,ISIC_7168122.JPG,false,0,keypress(z),500,193844.40000009537,193844.30000019073,188205.836,188363.90000009537,188222.567,193699.901,8,400,8,,ISIC_0055737.JPG
break,html.Screen,4_7_1,2023-09-09T16:07:22.890Z,,0,,,NaN,,,,,,false,,,,193844.80000019073,193844.69999980927,,193844.5,,193699.901,8,400,,,
break_continue,html.Screen,4_7_2,2023-09-09T16:07:22.890Z,,0,,,NaN,,,,,,false,,,,193845,193844.90000009537,,193844.90000009537,,193699.901,8,400,,,
sequence,flow.Sequence,4_7,2023-09-09T16:07:22.890Z,,0,,,5622.333000095357,completion,,,,,false,,,,193845.09999990463,193844.90000009537,188205.836,188363.90000009537,188222.567,193699.901,8,400,,,
trial,html.Screen,4_8_0,2023-09-09T16:07:31.693Z,,0,1,,8946.499000095355,response,ISIC_0001138.JPG,6,ISIC_0071594.JPG,ISIC_0001138.JPG,false,1,keypress(m),500,202646.5,202646.40000009537,193683.187,193845.09999990463,193699.901,202500.405,8,400,9,,ISIC_0071594.JPG
break,html.Screen,4_8_1,2023-09-09T16:07:31.693Z,,0,,,NaN,,,,,,false,,,,202647.09999990463,202646.90000009537,,202646.69999980927,,202500.405,8,400,,,
break_continue,html.Screen,4_8_2,2023-09-09T16:07:31.694Z,,0,,,NaN,,,,,,false,,,,202647.40000009537,202647.40000009537,,202647.30000019073,,202500.405,8,400,,,
sequence,flow.Sequence,4_8,2023-09-09T16:07:31.694Z,,0,,,8947.499000095355,completion,,,,,false,,,,202647.5,202647.40000009537,193683.187,193845.09999990463,193699.901,202500.405,8,400,,,
trial,html.Screen,4_9_0,2023-09-09T16:07:38.113Z,,0,1,,6565.694999904634,response,ISIC_7167479.JPG,6,ISIC_0061244.JPG,ISIC_0061244.JPG,false,0,keypress(z),500,209066.19999980927,209066.09999990463,202483.687,202647.59999990463,202500.405,208896.142,8,400,10,,ISIC_7167479.JPG
break,html.Screen,4_9_1,2023-09-09T16:07:38.113Z,,0,,,NaN,,,,,,false,,,,209066.80000019073,209066.5,,209066.30000019073,,208896.142,8,400,,,
break_continue,html.Screen,4_9_2,2023-09-09T16:07:38.113Z,,0,,,NaN,,,,,,false,,,,209067.09999990463,209067.09999990463,,209067,,208896.142,8,400,,,
sequence,flow.Sequence,4_9,2023-09-09T16:07:38.114Z,,0,,,6566.694999904634,completion,,,,,false,,,,209067.30000019073,209067.09999990463,202483.687,202647.59999990463,202500.405,208896.142,8,400,,,
trial,html.Screen,4_10_0,2023-09-09T16:07:44.387Z,,0,1,,6444.057999809273,response,ISIC_0059707.JPG,5,ISIC_4107250.JPG,ISIC_0059707.JPG,false,1,keypress(m),500,215340.40000009537,215340.19999980927,208879.411,209067.40000009537,208896.142,215175.064,8,400,11,,ISIC_4107250.JPG
break,html.Screen,4_10_1,2023-09-09T16:07:44.388Z,,0,,,NaN,,,,,,false,,,,215341.19999980927,215341.09999990463,,215340.69999980927,,215175.064,8,400,,,
break_continue,html.Screen,4_10_2,2023-09-09T16:07:44.388Z,,0,,,NaN,,,,,,false,,,,215341.59999990463,215341.59999990463,,215341.30000019073,,215175.064,8,400,,,
sequence,flow.Sequence,4_10,2023-09-09T16:07:44.388Z,,0,,,6445.45799990464,completion,,,,,false,,,,215341.80000019073,215341.59999990463,208879.411,209067.40000009537,208896.142,215175.064,8,400,,,
trial,html.Screen,4_11_0,2023-09-09T16:07:51.111Z,,0,1,,6889.5359999046195,response,ISIC_5148474.JPG,5,ISIC_0033213.JPG,ISIC_5148474.JPG,false,1,keypress(m),500,222064.80000019073,222064.59999990463,215158.57,215342,215175.064,221921.48,8,400,12,,ISIC_0033213.JPG
break,html.Screen,4_11_1,2023-09-09T16:07:51.112Z,,0,,,NaN,,,,,,false,,,,222065.30000019073,222065.19999980927,,222065,,221921.48,8,400,,,
break_continue,html.Screen,4_11_2,2023-09-09T16:07:51.112Z,,0,,,NaN,,,,,,false,,,,222065.5,222065.5,,222065.40000009537,,221921.48,8,400,,,
sequence,flow.Sequence,4_11,2023-09-09T16:07:51.112Z,,0,,,6890.435999999987,completion,,,,,false,,,,222065.59999990463,222065.5,215158.57,215341.90000009537,215175.064,221921.48,8,400,,,
trial,html.Screen,4_12_0,2023-09-09T16:07:58.186Z,,0,1,,7217.719999809255,response,ISIC_8048668.JPG,5,ISIC_1054090.JPG,ISIC_8048668.JPG,false,1,keypress(m),500,229139.40000009537,229139.19999980927,221904.827,222065.59999990463,221921.48,228985.346,8,400,13,,ISIC_1054090.JPG
break,html.Screen,4_12_1,2023-09-09T16:07:58.186Z,,0,,,NaN,,,,,,false,,,,229140,229139.90000009537,,229139.59999990463,,228985.346,8,400,,,
break_continue,html.Screen,4_12_2,2023-09-09T16:07:58.187Z,,0,,,NaN,,,,,,false,,,,229140.40000009537,229140.30000019073,,229140.09999990463,,228985.346,8,400,,,
sequence,flow.Sequence,4_12,2023-09-09T16:07:58.187Z,,0,,,7218.820000190724,completion,,,,,false,,,,229140.5,229140.30000019073,221904.827,222065.59999990463,221921.48,228985.346,8,400,,,
trial,html.Screen,4_13_0,2023-09-09T16:08:05.966Z,,0,1,,7933.753999904642,response,ISIC_9947624.JPG,5,ISIC_4879187.JPG,ISIC_4879187.JPG,false,0,keypress(z),500,236919.30000019073,236919.09999990463,228968.519,229140.59999990463,228985.346,236767.01,8,400,14,,ISIC_9947624.JPG
break,html.Screen,4_13_1,2023-09-09T16:08:05.966Z,,0,,,NaN,,,,,,false,,,,236920.09999990463,236919.90000009537,,236919.5,,236767.01,8,400,,,
break_continue,html.Screen,4_13_2,2023-09-09T16:08:05.967Z,,0,,,NaN,,,,,,false,,,,236920.40000009537,236920.30000019073,,236920.09999990463,,236767.01,8,400,,,
sequence,flow.Sequence,4_13,2023-09-09T16:08:05.967Z,,0,,,7934.954000190744,completion,,,,,false,,,,236920.5,236920.30000019073,228968.519,229140.59999990463,228985.346,236767.01,8,400,,,
trial,html.Screen,4_14_0,2023-09-09T16:08:11.203Z,,0,1,,5389.989999999991,response,ISIC_1343433.JPG,6,ISIC_0033775.JPG,ISIC_0033775.JPG,false,0,keypress(z),500,242157,242157,236750.322,236920.59999990463,236767.01,242010.602,8,400,15,,ISIC_1343433.JPG
break,html.Screen,4_14_1,2023-09-09T16:08:11.204Z,,0,,,NaN,,,,,,false,,,,242157.5,242157.40000009537,,242157.09999990463,,242010.602,8,400,,,
break_continue,html.Screen,4_14_2,2023-09-09T16:08:11.204Z,,0,,,NaN,,,,,,false,,,,242157.69999980927,242157.69999980927,,242157.5,,242010.602,8,400,,,
sequence,flow.Sequence,4_14,2023-09-09T16:08:11.204Z,,0,,,5390.689999809256,completion,,,,,false,,,,242157.80000019073,242157.69999980927,236750.322,236920.59999990463,236767.01,242010.602,8,400,,,
trial,html.Screen,4_15_0,2023-09-09T16:08:16.508Z,,0,1,,5451.298000095354,response,ISIC_3653492.JPG,6,ISIC_5666345.JPG,ISIC_3653492.JPG,false,1,keypress(m),500,247462,247461.90000009537,241993.91,242157.80000019073,242010.602,247304.336,8,400,16,,ISIC_5666345.JPG
break,html.Screen,4_15_1,2023-09-09T16:08:16.509Z,,0,,,NaN,,,,,,false,,,,247462.59999990463,247462.40000009537,,247462.19999980927,,247304.336,8,400,,,
break_continue,html.Screen,4_15_2,2023-09-09T16:08:16.509Z,,0,,,NaN,,,,,,false,,,,247462.69999980927,247462.69999980927,,247462.59999990463,,247304.336,8,400,,,
sequence,flow.Sequence,4_15,2023-09-09T16:08:16.509Z,,0,,,5452.097999809252,completion,,,,,false,,,,247462.90000009537,247462.69999980927,241993.91,242157.80000019073,242010.602,247304.336,8,400,,,
trial,html.Screen,4_16_0,2023-09-09T16:08:23.538Z,,0,1,,7185.763999904622,response,ISIC_5874357.JPG,5,ISIC_7539727.JPG,ISIC_7539727.JPG,false,0,keypress(z),500,254490.30000019073,254490.09999990463,247287.586,247463,247304.336,254351.272,8,400,17,,ISIC_5874357.JPG
break,html.Screen,4_16_1,2023-09-09T16:08:23.538Z,,0,,,NaN,,,,,,false,,,,254490.59999990463,254490.59999990463,,254490.40000009537,,254351.272,8,400,,,
break_continue,html.Screen,4_16_2,2023-09-09T16:08:23.538Z,,0,,,NaN,,,,,,false,,,,254490.80000019073,254490.80000019073,,254490.69999980927,,254351.272,8,400,,,
sequence,flow.Sequence,4_16,2023-09-09T16:08:23.538Z,,0,,,7186.464000190725,completion,,,,,false,,,,254490.80000019073,254490.80000019073,247287.586,247463,247304.336,254351.272,8,400,,,
trial,html.Screen,4_17_0,2023-09-09T16:08:30.711Z,,0,1,,7312.528000190738,response,ISIC_0025744.JPG,4,ISIC_0029843.JPG,ISIC_0029843.JPG,false,0,keypress(z),500,261664,261663.80000019073,254334.598,254490.90000009537,254351.272,261498.51,8,400,18,,ISIC_0025744.JPG
break,html.Screen,4_17_1,2023-09-09T16:08:30.712Z,,0,,,NaN,,,,,,false,,,,261664.59999990463,261664.40000009537,,261664.09999990463,,261498.51,8,400,,,
break_continue,html.Screen,4_17_2,2023-09-09T16:08:30.712Z,,0,,,NaN,,,,,,false,,,,261664.80000019073,261664.80000019073,,261664.69999980927,,261498.51,8,400,,,
sequence,flow.Sequence,4_17,2023-09-09T16:08:30.712Z,,0,,,7313.528000190738,completion,,,,,false,,,,261664.90000009537,261664.80000019073,254334.598,254490.90000009537,254351.272,261498.51,8,400,,,
trial,html.Screen,4_18_0,2023-09-09T16:08:37.262Z,,0,1,,6715.790000190726,response,ISIC_5281762.JPG,5,ISIC_7875088.JPG,ISIC_7875088.JPG,false,0,keypress(z),500,268214.40000009537,268214.30000019073,261481.821,261665,261498.51,268061.297,8,400,19,,ISIC_5281762.JPG
break,html.Screen,4_18_1,2023-09-09T16:08:37.262Z,,0,,,NaN,,,,,,false,,,,268214.90000009537,268214.69999980927,,268214.5,,268061.297,8,400,,,
break_continue,html.Screen,4_18_2,2023-09-09T16:08:37.262Z,,0,,,NaN,,,,,,false,,,,268215.09999990463,268215,,268214.90000009537,,268061.297,8,400,,,
sequence,flow.Sequence,4_18,2023-09-09T16:08:37.263Z,,0,,,6716.489999999991,completion,,,,,false,,,,268215.19999980927,268215,261481.821,261665,261498.51,268061.297,8,400,,,
trial,html.Screen,4_19_0,2023-09-09T16:08:42.916Z,,0,1,,5807.503000190714,response,ISIC_5652135.JPG,4,ISIC_8671662.JPG,ISIC_8671662.JPG,false,0,keypress(z),500,273868.90000009537,273868.80000019073,268044.596,268215.40000009537,268061.297,273722.323,8,400,20,,ISIC_5652135.JPG
break,html.Screen,4_19_1,2023-09-09T16:08:42.917Z,,0,,,NaN,,,,,,false,,,,273869.30000019073,273869.19999980927,,273869,,273722.323,8,400,,,
break_continue,html.Screen,4_19_2,2023-09-09T16:08:42.917Z,,0,,,NaN,,,,,,false,,,,273869.59999990463,273869.40000009537,,273869.30000019073,,273722.323,8,400,,,
sequence,flow.Sequence,4_19,2023-09-09T16:08:42.917Z,,0,,,5808.103000095347,completion,,,,,false,,,,273869.59999990463,273869.40000009537,268044.596,268215.40000009537,268061.297,273722.323,8,400,,,
trial,html.Screen,4_20_0,2023-09-09T16:08:49.398Z,,0,1,,6628.276999904658,response,ISIC_6269414.JPG,5,ISIC_2039579.JPG,ISIC_6269414.JPG,false,1,keypress(m),500,280350.69999980927,280350.59999990463,273705.677,273869.69999980927,273722.323,280201.556,8,400,21,,ISIC_2039579.JPG
break,html.Screen,4_20_1,2023-09-09T16:08:49.398Z,,0,,,NaN,,,,,,false,,,,280351.09999990463,280351,,280350.90000009537,,280201.556,8,400,,,
break_continue,html.Screen,4_20_2,2023-09-09T16:08:49.399Z,,0,,,NaN,,,,,,false,,,,280351.30000019073,280351.30000019073,,280351.19999980927,,280201.556,8,400,,,
sequence,flow.Sequence,4_20,2023-09-09T16:08:49.399Z,,0,,,6628.97700019076,completion,,,,,false,,,,280351.30000019073,280351.30000019073,273705.677,273869.59999990463,273722.323,280201.556,8,400,,,
trial,html.Screen,4_21_0,2023-09-09T16:08:57.274Z,,0,1,,8025.143999809283,response,ISIC_9278685.JPG,5,ISIC_0012245.JPG,ISIC_0012245.JPG,false,0,keypress(z),500,288227,288226.69999980927,280184.882,280351.40000009537,280201.556,288066.904,8,400,22,,ISIC_9278685.JPG
break,html.Screen,4_21_1,2023-09-09T16:08:57.275Z,,0,,,NaN,,,,,,false,,,,288227.80000019073,288227.59999990463,,288227.09999990463,,288066.904,8,400,,,
break_continue,html.Screen,4_21_2,2023-09-09T16:08:57.276Z,,0,,,NaN,,,,,,false,,,,288228.19999980927,288228.09999990463,,288227.90000009537,,288066.904,8,400,,,
sequence,flow.Sequence,4_21,2023-09-09T16:08:57.276Z,,0,,,8026.54399990465,completion,,,,,false,,,,288228.40000009537,288228.09999990463,280184.882,280351.40000009537,280201.556,288066.904,8,400,,,
trial,html.Screen,4_22_0,2023-09-09T16:09:02.688Z,,0,1,,5573.896000190754,response,ISIC_4804158.JPG,4,ISIC_3435596.JPG,ISIC_3435596.JPG,false,0,keypress(z),500,293641,293640.80000019073,288050.197,288228.69999980927,288066.904,293494.127,8,400,23,,ISIC_4804158.JPG
break,html.Screen,4_22_1,2023-09-09T16:09:02.689Z,,0,,,NaN,,,,,,false,,,,293642,293641.69999980927,,293641.19999980927,,293494.127,8,400,,,
break_continue,html.Screen,4_22_2,2023-09-09T16:09:02.690Z,,0,,,NaN,,,,,,false,,,,293642.40000009537,293642.30000019073,,293642.09999990463,,293494.127,8,400,,,
sequence,flow.Sequence,4_22,2023-09-09T16:09:02.690Z,,0,,,5575.396000190754,completion,,,,,false,,,,293642.59999990463,293642.30000019073,288050.197,288228.59999990463,288066.904,293494.127,8,400,,,
trial,html.Screen,4_23_0,2023-09-09T16:09:07.784Z,,0,1,,5242.072999809287,response,ISIC_0066203.JPG,5,ISIC_0011437.JPG,ISIC_0011437.JPG,false,0,keypress(z),500,298736.30000019073,298736.19999980927,293477.465,293642.69999980927,293494.127,298570.663,8,400,24,,ISIC_0066203.JPG
break,html.Screen,4_23_1,2023-09-09T16:09:07.784Z,,0,,,NaN,,,,,,false,,,,298736.69999980927,298736.59999990463,,298736.40000009537,,298570.663,8,400,,,
break_continue,html.Screen,4_23_2,2023-09-09T16:09:07.784Z,,0,,,NaN,,,,,,false,,,,298736.90000009537,298736.90000009537,,298736.80000019073,,298570.663,8,400,,,
sequence,flow.Sequence,4_23,2023-09-09T16:09:07.784Z,,0,,,5242.773000095389,completion,,,,,false,,,,298737,298736.90000009537,293477.465,293642.69999980927,293494.127,298570.663,8,400,,,
trial,html.Screen,4_24_0,2023-09-09T16:09:13.998Z,,0,1,,6380.237000095367,response,ISIC_0072286.JPG,5,ISIC_0072641.JPG,ISIC_0072641.JPG,false,0,keypress(z),500,304951,304950.90000009537,298554.05,298737.09999990463,298570.663,304782.768,8,400,25,,ISIC_0072286.JPG
break,html.Screen,4_24_1,2023-09-09T16:09:13.999Z,,0,,,NaN,,,,,,false,,,,304951.69999980927,304951.5,,304951.19999980927,,304782.768,8,400,,,
break_continue,html.Screen,4_24_2,2023-09-09T16:09:13.999Z,,0,,,NaN,,,,,,false,,,,304952,304951.90000009537,,304951.80000019073,,304782.768,8,400,,,
sequence,flow.Sequence,4_24,2023-09-09T16:09:13.999Z,,0,,,6381.237000095367,completion,,,,,false,,,,304952.09999990463,304951.90000009537,298554.05,298737.09999990463,298570.663,304782.768,8,400,,,
trial,html.Screen,4_25_0,2023-09-09T16:09:19.009Z,,0,1,,5178.931999809283,response,ISIC_4692567.JPG,6,ISIC_8627293.JPG,ISIC_4692567.JPG,false,1,keypress(m),500,309961.90000009537,309961.69999980927,304766.126,304952.09999990463,304782.768,309792.515,8,400,26,,ISIC_8627293.JPG
break,html.Screen,4_25_1,2023-09-09T16:09:19.010Z,,0,,,NaN,,,,,,false,,,,309962.5,309962.30000019073,,309962.09999990463,,309792.515,8,400,,,
break_continue,html.Screen,4_25_2,2023-09-09T16:09:19.010Z,,0,,,NaN,,,,,,false,,,,309962.69999980927,309962.69999980927,,309962.5,,309792.515,8,400,,,
sequence,flow.Sequence,4_25,2023-09-09T16:09:19.010Z,,0,,,5179.931999809283,completion,,,,,false,,,,309962.69999980927,309962.69999980927,304766.126,304952.09999990463,304782.768,309792.515,8,400,,,
trial,html.Screen,4_26_0,2023-09-09T16:09:25.357Z,,0,1,,6515.785000190721,response,ISIC_3058800.JPG,5,ISIC_5614446.JPG,ISIC_3058800.JPG,false,1,keypress(m),500,316308.5,316308.30000019073,309775.817,309962.80000019073,309792.515,316154.901,8,400,27,,ISIC_5614446.JPG
break,html.Screen,4_26_1,2023-09-09T16:09:25.358Z,,0,,,NaN,,,,,,false,,,,316309.30000019073,316309,,316308.59999990463,,316154.901,8,400,,,
break_continue,html.Screen,4_26_2,2023-09-09T16:09:25.358Z,,0,,,NaN,,,,,,false,,,,316309.59999990463,316309.59999990463,,316309.40000009537,,316154.901,8,400,,,
sequence,flow.Sequence,4_26,2023-09-09T16:09:25.358Z,,0,,,6517.084999904619,completion,,,,,false,,,,316309.69999980927,316309.59999990463,309775.817,309962.80000019073,309792.515,316154.901,8,400,,,
trial,html.Screen,4_27_0,2023-09-09T16:09:31.794Z,,0,1,,6590.899000190722,response,ISIC_0025231.JPG,5,ISIC_0000462.JPG,ISIC_0000462.JPG,false,0,keypress(z),500,322745.90000009537,322745.80000019073,316138.227,316309.69999980927,316154.901,322584.084,8,400,28,,ISIC_0025231.JPG
break,html.Screen,4_27_1,2023-09-09T16:09:31.795Z,,0,,,NaN,,,,,,false,,,,322746.40000009537,322746.19999980927,,322746,,322584.084,8,400,,,
break_continue,html.Screen,4_27_2,2023-09-09T16:09:31.795Z,,0,,,NaN,,,,,,false,,,,322746.5,322746.5,,322746.40000009537,,322584.084,8,400,,,
sequence,flow.Sequence,4_27,2023-09-09T16:09:31.795Z,,0,,,6591.598999999987,completion,,,,,false,,,,322746.5,322746.5,316138.227,316309.69999980927,316154.901,322584.084,8,400,,,
trial,html.Screen,4_28_0,2023-09-09T16:09:37.579Z,,0,1,,5946.615999809292,response,ISIC_9436034.JPG,6,ISIC_0014160.JPG,ISIC_0014160.JPG,false,0,keypress(z),500,328530.80000019073,328530.69999980927,322567.354,322746.59999990463,322584.084,328378.807,8,400,29,,ISIC_9436034.JPG
break,html.Screen,4_28_1,2023-09-09T16:09:37.580Z,,0,,,NaN,,,,,,false,,,,328531.09999990463,328531.09999990463,,328530.90000009537,,328378.807,8,400,,,
break_continue,html.Screen,4_28_2,2023-09-09T16:09:37.580Z,,0,,,NaN,,,,,,false,,,,328531.40000009537,328531.30000019073,,328531.30000019073,,328378.807,8,400,,,
sequence,flow.Sequence,4_28,2023-09-09T16:09:37.580Z,,0,,,5947.216000190761,completion,,,,,false,,,,328531.5,328531.30000019073,322567.354,322746.59999990463,322584.084,328378.807,8,400,,,
trial,html.Screen,4_29_0,2023-09-09T16:09:42.305Z,,0,1,,4877.993000190763,response,ISIC_0011958.JPG,6,ISIC_0028886.JPG,ISIC_0011958.JPG,false,1,keypress(m),500,333256.90000009537,333256.80000019073,328361.986,328531.5,328378.807,333087.829,8,400,30,,ISIC_0028886.JPG
break,html.Screen,4_29_1,2023-09-09T16:09:42.306Z,,0,,,NaN,,,,,,false,,,,333257.5,333257.40000009537,,333257.09999990463,,333087.829,8,400,,,
break_continue,html.Screen,4_29_2,2023-09-09T16:09:42.306Z,,0,,,NaN,,,,,,false,,,,333257.69999980927,333257.59999990463,,333257.59999990463,,333087.829,8,400,,,
sequence,flow.Sequence,4_29,2023-09-09T16:09:42.306Z,,0,,,4878.792999904661,completion,,,,,false,,,,333257.80000019073,333257.59999990463,328361.986,328531.5,328378.807,333087.829,8,400,,,
trial,html.Screen,4_30_0,2023-09-09T16:09:49.080Z,,0,1,,6943.170999999973,response,ISIC_0000121.JPG,5,ISIC_0034218.JPG,ISIC_0034218.JPG,false,0,keypress(z),500,340031.09999990463,340031,333071.148,333257.80000019073,333087.829,339867.775,8,400,31,,ISIC_0000121.JPG
break,html.Screen,4_30_1,2023-09-09T16:09:49.080Z,,0,,,NaN,,,,,,false,,,,340031.59999990463,340031.40000009537,,340031.30000019073,,339867.775,8,400,,,
break_continue,html.Screen,4_30_2,2023-09-09T16:09:49.080Z,,0,,,NaN,,,,,,false,,,,340031.69999980927,340031.69999980927,,340031.69999980927,,339867.775,8,400,,,
sequence,flow.Sequence,4_30,2023-09-09T16:09:49.080Z,,0,,,6943.870999809238,completion,,,,,false,,,,340031.80000019073,340031.69999980927,333071.148,333257.80000019073,333087.829,339867.775,8,400,,,
trial,html.Screen,4_31_0,2023-09-09T16:09:53.471Z,,0,1,,4554.224999999977,response,ISIC_0066952.JPG,5,ISIC_4875370.JPG,ISIC_4875370.JPG,false,0,keypress(z),500,344422.19999980927,344422,339851.01,340031.90000009537,339867.775,344259.591,8,400,32,,ISIC_0066952.JPG
break,html.Screen,4_31_1,2023-09-09T16:09:53.471Z,,0,,,NaN,,,,,,false,,,,344422.59999990463,344422.59999990463,,344422.30000019073,,344259.591,8,400,,,
break_continue,html.Screen,4_31_2,2023-09-09T16:09:53.471Z,,0,,,NaN,,,,,,false,,,,344422.90000009537,344422.69999980927,,344422.69999980927,,344259.591,8,400,,,
sequence,flow.Sequence,4_31,2023-09-09T16:09:53.471Z,,0,,,4554.924999809242,completion,,,,,false,,,,344422.90000009537,344422.69999980927,339851.01,340031.90000009537,339867.775,344259.591,8,400,,,
trial,html.Screen,4_32_0,2023-09-09T16:09:58.944Z,,0,1,,5636.10899980925,response,ISIC_7618133.JPG,5,ISIC_1782545.JPG,ISIC_7618133.JPG,false,1,keypress(m),500,349895.80000019073,349895.69999980927,344242.95,344423,344259.591,349736.909,8,400,33,,ISIC_1782545.JPG
break,html.Screen,4_32_1,2023-09-09T16:09:58.945Z,,0,,,NaN,,,,,,false,,,,349896.5,349896.40000009537,,349896,,349736.909,8,400,,,
break_continue,html.Screen,4_32_2,2023-09-09T16:09:58.945Z,,0,,,NaN,,,,,,false,,,,349896.80000019073,349896.69999980927,,349896.5,,349736.909,8,400,,,
sequence,flow.Sequence,4_32,2023-09-09T16:09:58.945Z,,0,,,5637.10899980925,completion,,,,,false,,,,349896.90000009537,349896.69999980927,344242.95,344423,344259.591,349736.909,8,400,,,
trial,html.Screen,4_33_0,2023-09-09T16:10:05.785Z,,0,1,,6999.491000095382,response,ISIC_0031629.JPG,5,ISIC_3238687.JPG,ISIC_0031629.JPG,false,1,keypress(m),500,356736.5,356736.40000009537,349720.364,349897,349736.909,356566.836,8,400,34,,ISIC_3238687.JPG
break,html.Screen,4_33_1,2023-09-09T16:10:05.785Z,,0,,,NaN,,,,,,false,,,,356737,356736.90000009537,,356736.59999990463,,356566.836,8,400,,,
break_continue,html.Screen,4_33_2,2023-09-09T16:10:05.786Z,,0,,,NaN,,,,,,false,,,,356737.19999980927,356737.09999990463,,356737.09999990463,,356566.836,8,400,,,
sequence,flow.Sequence,4_33,2023-09-09T16:10:05.786Z,,0,,,7000.1909999046475,completion,,,,,false,,,,356737.19999980927,356737.09999990463,349720.364,349897,349736.909,356566.836,8,400,,,
trial,html.Screen,4_34_0,2023-09-09T16:10:12.299Z,,0,1,,6683.464000190725,response,ISIC_0071806.JPG,5,ISIC_7378303.JPG,ISIC_0071806.JPG,false,1,keypress(m),500,363250.5,363250.30000019073,356550.184,356737.30000019073,356566.836,363096.224,8,400,35,,ISIC_7378303.JPG
break,html.Screen,4_34_1,2023-09-09T16:10:12.299Z,,0,,,NaN,,,,,,false,,,,363250.90000009537,363250.80000019073,,363250.5,,363096.224,8,400,,,
break_continue,html.Screen,4_34_2,2023-09-09T16:10:12.299Z,,0,,,NaN,,,,,,false,,,,363251.09999990463,363251,,363251,,363096.224,8,400,,,
sequence,flow.Sequence,4_34,2023-09-09T16:10:12.300Z,,0,,,6684.16399999999,completion,,,,,false,,,,363251.19999980927,363251,356550.184,356737.19999980927,356566.836,363096.224,8,400,,,
trial,html.Screen,4_35_0,2023-09-09T16:10:20.772Z,,0,1,,8626.776000000013,response,ISIC_2927587.JPG,6,ISIC_0025327.JPG,ISIC_0025327.JPG,false,0,keypress(z),500,371723.09999990463,371723,363079.616,363251.19999980927,363096.224,371562.699,8,400,36,,ISIC_2927587.JPG
break,html.Screen,4_35_1,2023-09-09T16:10:20.772Z,,0,,,NaN,,,,,,false,,,,371723.69999980927,371723.5,,371723.30000019073,,371562.699,8,400,,,
break_continue,html.Screen,4_35_2,2023-09-09T16:10:20.772Z,,0,,,NaN,,,,,,false,,,,371724.09999990463,371724,,371723.90000009537,,371562.699,8,400,,,
sequence,flow.Sequence,4_35,2023-09-09T16:10:20.773Z,,0,,,8627.776000000013,completion,,,,,false,,,,371724.19999980927,371724,363079.616,363251.19999980927,363096.224,371562.699,8,400,,,
trial,html.Screen,4_36_0,2023-09-09T16:10:25.766Z,,0,1,,5154.90099990461,response,ISIC_0002435.JPG,4,ISIC_4298761.JPG,ISIC_4298761.JPG,false,0,keypress(z),500,376717.69999980927,376717.59999990463,371546.158,371724.19999980927,371562.699,376572.466,8,400,37,,ISIC_0002435.JPG
break,html.Screen,4_36_1,2023-09-09T16:10:25.767Z,,0,,,NaN,,,,,,false,,,,376718.19999980927,376718.09999990463,,376717.90000009537,,376572.466,8,400,,,
break_continue,html.Screen,4_36_2,2023-09-09T16:10:25.767Z,,0,,,NaN,,,,,,false,,,,376718.40000009537,376718.30000019073,,376718.19999980927,,376572.466,8,400,,,
sequence,flow.Sequence,4_36,2023-09-09T16:10:25.767Z,,0,,,5155.6010001907125,completion,,,,,false,,,,376718.40000009537,376718.30000019073,371546.158,371724.19999980927,371562.699,376572.466,8,400,,,
trial,html.Screen,4_37_0,2023-09-09T16:10:32.553Z,,0,1,,6931.533999999985,response,ISIC_9655520.JPG,6,ISIC_9108776.JPG,ISIC_9655520.JPG,false,1,keypress(m),500,383504,383504,376555.764,376718.5,376572.466,383335.63,8,400,38,,ISIC_9108776.JPG
break,html.Screen,4_37_1,2023-09-09T16:10:32.553Z,,0,,,NaN,,,,,,false,,,,383504.69999980927,383504.5,,383504.19999980927,,383335.63,8,400,,,
break_continue,html.Screen,4_37_2,2023-09-09T16:10:32.554Z,,0,,,NaN,,,,,,false,,,,383505,383505,,383504.80000019073,,383335.63,8,400,,,
sequence,flow.Sequence,4_37,2023-09-09T16:10:32.554Z,,0,,,6932.533999999985,completion,,,,,false,,,,383505.09999990463,383505,376555.764,376718.5,376572.466,383335.63,8,400,,,
trial,html.Screen,4_38_0,2023-09-09T16:10:36.811Z,,0,1,,4426.369999999995,response,ISIC_4966865.JPG,5,ISIC_0031146.JPG,ISIC_0031146.JPG,false,0,keypress(z),500,387762.09999990463,387762,383319.073,383505.19999980927,383335.63,387593.866,8,400,39,,ISIC_4966865.JPG
break,html.Screen,4_38_1,2023-09-09T16:10:36.811Z,,0,,,NaN,,,,,,false,,,,387762.59999990463,387762.5,,387762.19999980927,,387593.866,8,400,,,
break_continue,html.Screen,4_38_2,2023-09-09T16:10:36.811Z,,0,,,NaN,,,,,,false,,,,387762.80000019073,387762.80000019073,,387762.69999980927,,387593.866,8,400,,,
sequence,flow.Sequence,4_38,2023-09-09T16:10:36.811Z,,0,,,4427.17000019073,completion,,,,,false,,,,387762.90000009537,387762.80000019073,383319.073,383505.19999980927,383335.63,387593.866,8,400,,,
trial,html.Screen,4_39_0,2023-09-09T16:10:42.627Z,,0,1,,5984.733999904653,response,ISIC_5229861.JPG,6,ISIC_6517852.JPG,ISIC_5229861.JPG,false,1,keypress(m),500,393578.69999980927,393578.59999990463,387577.427,387762.90000009537,387593.866,393421.874,8,400,40,,ISIC_6517852.JPG
break,html.Screen,4_39_1,2023-09-09T16:10:42.628Z,,0,,,NaN,,,,,,false,,,,393579.19999980927,393579.09999990463,,393578.80000019073,,393421.874,8,400,,,
break_continue,html.Screen,4_39_2,2023-09-09T16:10:42.628Z,,0,,,NaN,,,,,,false,,,,393579.40000009537,393579.40000009537,,393579.40000009537,,393421.874,8,400,,,
sequence,flow.Sequence,4_39,2023-09-09T16:10:42.628Z,,0,,,5985.5340000953875,completion,,,,,false,,,,393579.5,393579.40000009537,387577.427,387762.90000009537,387593.866,393421.874,8,400,,,
trial,html.Screen,4_40_0,2023-09-09T16:10:48.325Z,,0,1,,5854.325999809254,response,ISIC_0058151.JPG,5,ISIC_0026150.JPG,ISIC_0058151.JPG,false,1,keypress(m),500,399276.40000009537,399276.19999980927,393405.185,393579.5,393421.874,399116.407,8,400,41,,ISIC_0026150.JPG
break,html.Screen,4_40_1,2023-09-09T16:10:48.325Z,,0,,,NaN,,,,,,false,,,,399276.69999980927,399276.69999980927,,399276.5,,399116.407,8,400,,,
break_continue,html.Screen,4_40_2,2023-09-09T16:10:48.325Z,,0,,,NaN,,,,,,false,,,,399277,399276.90000009537,,399276.80000019073,,399116.407,8,400,,,
sequence,flow.Sequence,4_40,2023-09-09T16:10:48.326Z,,0,,,5855.026000095357,completion,,,,,false,,,,399277,399276.90000009537,393405.185,393579.5,393421.874,399116.407,8,400,,,
trial,html.Screen,4_41_0,2023-09-09T16:10:54.919Z,,0,1,,6753.493000095361,response,ISIC_0031958.JPG,5,ISIC_0003925.JPG,ISIC_0031958.JPG,false,1,keypress(m),500,405870.09999990463,405869.90000009537,399099.726,399277.09999990463,399116.407,405712.608,8,400,42,,ISIC_0003925.JPG
break,html.Screen,4_41_1,2023-09-09T16:10:54.919Z,,0,,,NaN,,,,,,false,,,,405870.69999980927,405870.40000009537,,405870.19999980927,,405712.608,8,400,,,
break_continue,html.Screen,4_41_2,2023-09-09T16:10:54.919Z,,0,,,NaN,,,,,,false,,,,405870.90000009537,405870.90000009537,,405870.80000019073,,405712.608,8,400,,,
sequence,flow.Sequence,4_41,2023-09-09T16:10:54.920Z,,0,,,6754.493000095361,completion,,,,,false,,,,405871.09999990463,405870.90000009537,399099.726,399277,399116.407,405712.608,8,400,,,
trial,html.Screen,4_42_0,2023-09-09T16:10:59.785Z,,0,1,,5023.79200009536,response,ISIC_0268187.JPG,5,ISIC_0067972.JPG,ISIC_0268187.JPG,false,1,keypress(m),500,410736.5,410736.40000009537,405695.866,405871.09999990463,405712.608,410588.656,8,400,43,,ISIC_0067972.JPG
break,html.Screen,4_42_1,2023-09-09T16:10:59.785Z,,0,,,NaN,,,,,,false,,,,410736.90000009537,410736.80000019073,,410736.59999990463,,410588.656,8,400,,,
break_continue,html.Screen,4_42_2,2023-09-09T16:10:59.786Z,,0,,,NaN,,,,,,false,,,,410737.19999980927,410737.19999980927,,410737,,410588.656,8,400,,,
sequence,flow.Sequence,4_42,2023-09-09T16:10:59.786Z,,0,,,5024.591999809258,completion,,,,,false,,,,410737.30000019073,410737.19999980927,405695.866,405871.09999990463,405712.608,410588.656,8,400,,,
trial,html.Screen,4_43_0,2023-09-09T16:11:05.531Z,,0,1,,5893.843999999983,response,ISIC_0067521.JPG,7,ISIC_4570724.JPG,ISIC_0067521.JPG,false,1,keypress(m),500,416482.90000009537,416482.5,410571.931,410737.30000019073,410588.656,416316.642,8,400,44,,ISIC_4570724.JPG
break,html.Screen,4_43_1,2023-09-09T16:11:05.533Z,,0,,,NaN,,,,,,false,,,,416484.30000019073,416483.90000009537,,416483.19999980927,,416316.642,8,400,,,
break_continue,html.Screen,4_43_2,2023-09-09T16:11:05.534Z,,0,,,NaN,,,,,,false,,,,416485,416484.90000009537,,416484.5,,416316.642,8,400,,,
sequence,flow.Sequence,4_43,2023-09-09T16:11:05.534Z,,0,,,5896.24400009535,completion,,,,,false,,,,416486,416484.90000009537,410571.931,410737.30000019073,410588.656,416316.642,8,400,,,
trial,html.Screen,4_44_0,2023-09-09T16:11:11.842Z,,0,1,,6476.858000000007,response,ISIC_0758797.JPG,5,ISIC_5714285.JPG,ISIC_5714285.JPG,false,0,keypress(z),500,422793.69999980927,422793.5,416299.837,416486.5,416316.642,422645.447,8,400,45,,ISIC_0758797.JPG
break,html.Screen,4_44_1,2023-09-09T16:11:11.843Z,,0,,,NaN,,,,,,false,,,,422794.09999990463,422794,,422793.80000019073,,422645.447,8,400,,,
break_continue,html.Screen,4_44_2,2023-09-09T16:11:11.843Z,,0,,,NaN,,,,,,false,,,,422794.30000019073,422794.30000019073,,422794.19999980927,,422645.447,8,400,,,
sequence,flow.Sequence,4_44,2023-09-09T16:11:11.843Z,,0,,,6477.658000190742,completion,,,,,false,,,,422794.40000009537,422794.30000019073,416299.837,416486.40000009537,416316.642,422645.447,8,400,,,
trial,html.Screen,4_45_0,2023-09-09T16:11:18.532Z,,0,1,,6838.053000000014,response,ISIC_0014788.JPG,6,ISIC_0064026.JPG,ISIC_0064026.JPG,false,0,keypress(z),500,429483.69999980927,429483.5,422628.778,422794.5,422645.447,429325.196,8,400,46,,ISIC_0014788.JPG
break,html.Screen,4_45_1,2023-09-09T16:11:18.533Z,,0,,,NaN,,,,,,false,,,,429484.40000009537,429484.19999980927,,429483.80000019073,,429325.196,8,400,,,
break_continue,html.Screen,4_45_2,2023-09-09T16:11:18.533Z,,0,,,NaN,,,,,,false,,,,429484.59999990463,429484.59999990463,,429484.40000009537,,429325.196,8,400,,,
sequence,flow.Sequence,4_45,2023-09-09T16:11:18.533Z,,0,,,6839.152999904647,completion,,,,,false,,,,429484.69999980927,429484.59999990463,422628.778,422794.40000009537,422645.447,429325.196,8,400,,,
trial,html.Screen,4_46_0,2023-09-09T16:11:27.785Z,,0,1,,9409.003999809269,response,ISIC_0012263.JPG,6,ISIC_0010782.JPG,ISIC_0010782.JPG,false,0,keypress(z),500,438734.40000009537,438734.19999980927,429308.466,429484.80000019073,429325.196,438593.149,8,400,47,,ISIC_0012263.JPG
break,html.Screen,4_46_1,2023-09-09T16:11:27.786Z,,0,,,NaN,,,,,,false,,,,438735.19999980927,438734.90000009537,,438734.59999990463,,438593.149,8,400,,,
break_continue,html.Screen,4_46_2,2023-09-09T16:11:27.786Z,,0,,,NaN,,,,,,false,,,,438735.59999990463,438735.5,,438735.30000019073,,438593.149,8,400,,,
sequence,flow.Sequence,4_46,2023-09-09T16:11:27.786Z,,0,,,9410.304000000004,completion,,,,,false,,,,438735.80000019073,438735.5,429308.466,429484.80000019073,429325.196,438593.149,8,400,,,
trial,html.Screen,4_47_0,2023-09-09T16:11:34.385Z,,0,1,,6740.950999904657,response,ISIC_5091996.JPG,5,ISIC_4174983.JPG,ISIC_4174983.JPG,false,0,keypress(z),500,445334.19999980927,445334.09999990463,438576.496,438735.90000009537,438593.149,445172.654,8,400,48,,ISIC_5091996.JPG
break,html.Screen,4_47_1,2023-09-09T16:11:34.385Z,,0,,,NaN,,,,,,false,,,,445335.09999990463,445334.80000019073,,445334.40000009537,,445172.654,8,400,,,
break_continue,html.Screen,4_47_2,2023-09-09T16:11:34.386Z,,0,,,NaN,,,,,,false,,,,445335.5,445335.30000019073,,445335.19999980927,,445172.654,8,400,,,
sequence,flow.Sequence,4_47,2023-09-09T16:11:34.386Z,,0,,,6742.151000190759,completion,,,,,false,,,,445335.59999990463,445335.30000019073,438576.496,438735.90000009537,438593.149,445172.654,8,400,,,
trial,html.Screen,4_48_0,2023-09-09T16:11:40.629Z,,0,1,,6405.34600000002,response,ISIC_0063151.JPG,5,ISIC_0028916.JPG,ISIC_0028916.JPG,false,0,keypress(z),500,451578.30000019073,451578,445155.928,445335.69999980927,445172.654,451434.836,8,400,49,,ISIC_0063151.JPG
break,html.Screen,4_48_1,2023-09-09T16:11:40.630Z,,0,,,NaN,,,,,,false,,,,451579.69999980927,451579.30000019073,,451578.40000009537,,451434.836,8,400,,,
break_continue,html.Screen,4_48_2,2023-09-09T16:11:40.631Z,,0,,,NaN,,,,,,false,,,,451580.19999980927,451580,,451579.90000009537,,451434.836,8,400,,,
sequence,flow.Sequence,4_48,2023-09-09T16:11:40.631Z,,0,,,6407.34600000002,completion,,,,,false,,,,451580.30000019073,451580,445155.928,445335.69999980927,445172.654,451434.836,8,400,,,
trial,html.Screen,4_49_0,2023-09-09T16:11:45.898Z,,0,1,,5412.263999904622,response,ISIC_3593161.JPG,6,ISIC_0055996.JPG,ISIC_0055996.JPG,false,0,keypress(z),500,456847.30000019073,456847.09999990463,451418.151,451580.40000009537,451434.836,456678.368,8,400,50,,ISIC_3593161.JPG
break,html.Screen,4_49_1,2023-09-09T16:11:55.744Z,,0,,,9852.539999999979,timeout,,,,,false,,,,466693.30000019073,466693.09999990463,456661.71,456847.40000009537,456678.368,466530.908,8,400,,,
break_continue,html.Screen,4_49_2,2023-09-09T16:12:04.826Z,,0,,,9232.892000190739,response,,,,,false,continue,keypress(Space),,475775.69999980927,475763.80000019073,466693.09999990463,466693.30000019073,466530.908,475615.168,8,400,,,
sequence,flow.Sequence,4_49,2023-09-09T16:12:04.826Z,,0,,,24328.964000190725,completion,,,,,false,,,,475775.80000019073,475763.80000019073,451418.151,451580.40000009537,451434.836,475615.168,8,400,,,
trial,html.Screen,4_50_0,2023-09-09T16:12:09.746Z,,0,2,,5080.53199980926,response,ISIC_0069273.JPG,5,ISIC_0026498.JPG,ISIC_0069273.JPG,false,1,keypress(m),500,480695.80000019073,480695.69999980927,475598.504,475775.90000009537,475615.168,480541.539,8,400,1,,ISIC_0026498.JPG
break,html.Screen,4_50_1,2023-09-09T16:12:09.747Z,,0,,,NaN,,,,,,false,,,,480696.59999990463,480696.30000019073,,480695.90000009537,,480541.539,8,400,,,
break_continue,html.Screen,4_50_2,2023-09-09T16:12:09.747Z,,0,,,NaN,,,,,,false,,,,480696.80000019073,480696.80000019073,,480696.69999980927,,480541.539,8,400,,,
sequence,flow.Sequence,4_50,2023-09-09T16:12:09.747Z,,0,,,5081.63200019073,completion,,,,,false,,,,480697,480696.80000019073,475598.504,475775.90000009537,475615.168,480541.539,8,400,,,
trial,html.Screen,4_51_0,2023-09-09T16:12:13.606Z,,0,2,,4013.3610000953777,response,ISIC_0008619.JPG,6,ISIC_8167374.JPG,ISIC_8167374.JPG,false,0,keypress(z),500,484555.40000009537,484554.90000009537,480524.835,480697,480541.539,484415.69,8,400,2,,ISIC_0008619.JPG
break,html.Screen,4_51_1,2023-09-09T16:12:13.607Z,,0,,,NaN,,,,,,false,,,,484556.80000019073,484556.40000009537,,484555.80000019073,,484415.69,8,400,,,
break_continue,html.Screen,4_51_2,2023-09-09T16:12:13.608Z,,0,,,NaN,,,,,,false,,,,484557.59999990463,484557.5,,484557,,484415.69,8,400,,,
sequence,flow.Sequence,4_51,2023-09-09T16:12:13.608Z,,0,,,4015.9610000000102,completion,,,,,false,,,,484558,484557.5,480524.835,480697,480541.539,484415.69,8,400,,,
trial,html.Screen,4_52_0,2023-09-09T16:12:19.149Z,,0,2,,5682.710000095365,response,ISIC_9718067.JPG,5,ISIC_0027321.JPG,ISIC_9718067.JPG,false,1,keypress(m),500,490098.5,490098.40000009537,484399.103,484558.19999980927,484415.69,489943.161,8,400,3,,ISIC_0027321.JPG
break,html.Screen,4_52_1,2023-09-09T16:12:19.149Z,,0,,,NaN,,,,,,false,,,,490098.90000009537,490098.80000019073,,490098.59999990463,,489943.161,8,400,,,
break_continue,html.Screen,4_52_2,2023-09-09T16:12:19.149Z,,0,,,NaN,,,,,,false,,,,490099.09999990463,490099,,490098.90000009537,,489943.161,8,400,,,
sequence,flow.Sequence,4_52,2023-09-09T16:12:19.150Z,,0,,,5683.309999999998,completion,,,,,false,,,,490099.19999980927,490099,484399.103,484558.19999980927,484415.69,489943.161,8,400,,,
trial,html.Screen,4_53_0,2023-09-09T16:12:23.583Z,,0,2,,4588.838999999978,response,ISIC_3576066.JPG,5,ISIC_0034222.JPG,ISIC_0034222.JPG,false,0,keypress(z),500,494532.09999990463,494532,489926.391,490099.19999980927,489943.161,494368.5,8,400,4,,ISIC_3576066.JPG
break,html.Screen,4_53_1,2023-09-09T16:12:23.584Z,,0,,,NaN,,,,,,false,,,,494532.90000009537,494532.69999980927,,494532.30000019073,,494368.5,8,400,,,
break_continue,html.Screen,4_53_2,2023-09-09T16:12:23.584Z,,0,,,NaN,,,,,,false,,,,494533.09999990463,494533.09999990463,,494533,,494368.5,8,400,,,
sequence,flow.Sequence,4_53,2023-09-09T16:12:23.585Z,,0,,,4589.938999904611,completion,,,,,false,,,,494533.19999980927,494533.09999990463,489926.391,490099.19999980927,489943.161,494368.5,8,400,,,
trial,html.Screen,4_54_0,2023-09-09T16:12:28.994Z,,0,2,,5574.300000190735,response,ISIC_5758316.JPG,5,ISIC_0060860.JPG,ISIC_0060860.JPG,false,0,keypress(z),500,499943.09999990463,499942.80000019073,494351.654,494533.19999980927,494368.5,499795.553,8,400,5,,ISIC_5758316.JPG
break,html.Screen,4_54_1,2023-09-09T16:12:28.995Z,,0,,,NaN,,,,,,false,,,,499943.59999990463,499943.40000009537,,499943.19999980927,,499795.553,8,400,,,
break_continue,html.Screen,4_54_2,2023-09-09T16:12:28.995Z,,0,,,NaN,,,,,,false,,,,499943.80000019073,499943.80000019073,,499943.69999980927,,499795.553,8,400,,,
sequence,flow.Sequence,4_54,2023-09-09T16:12:28.995Z,,0,,,5575.300000190735,completion,,,,,false,,,,499943.90000009537,499943.80000019073,494351.654,494533.19999980927,494368.5,499795.553,8,400,,,
trial,html.Screen,4_55_0,2023-09-09T16:12:36.244Z,,0,2,,7397.446999999986,response,ISIC_8095877.JPG,4,ISIC_0000121.JPG,ISIC_8095877.JPG,false,1,keypress(m),500,507193.09999990463,507193,499778.851,499944,499795.553,507026.325,8,400,6,,ISIC_0000121.JPG
break,html.Screen,4_55_1,2023-09-09T16:12:36.245Z,,0,,,NaN,,,,,,false,,,,507193.59999990463,507193.59999990463,,507193.30000019073,,507026.325,8,400,,,
break_continue,html.Screen,4_55_2,2023-09-09T16:12:36.245Z,,0,,,NaN,,,,,,false,,,,507193.90000009537,507193.80000019073,,507193.80000019073,,507026.325,8,400,,,
sequence,flow.Sequence,4_55,2023-09-09T16:12:36.245Z,,0,,,7398.24700019072,completion,,,,,false,,,,507194.09999990463,507193.80000019073,499778.851,499944,499795.553,507026.325,8,400,,,
trial,html.Screen,4_56_0,2023-09-09T16:12:40.967Z,,0,2,,4888.975000190723,response,ISIC_9568327.JPG,4,ISIC_4463086.JPG,ISIC_9568327.JPG,false,1,keypress(m),500,511915.40000009537,511915.30000019073,507009.664,507194.09999990463,507026.325,511768.886,8,400,7,,ISIC_4463086.JPG
break,html.Screen,4_56_1,2023-09-09T16:12:40.967Z,,0,,,NaN,,,,,,false,,,,511915.80000019073,511915.59999990463,,511915.5,,511768.886,8,400,,,
break_continue,html.Screen,4_56_2,2023-09-09T16:12:40.967Z,,0,,,NaN,,,,,,false,,,,511916,511915.90000009537,,511915.80000019073,,511768.886,8,400,,,
sequence,flow.Sequence,4_56,2023-09-09T16:12:40.967Z,,0,,,4889.575000095356,completion,,,,,false,,,,511916,511915.90000009537,507009.664,507194.09999990463,507026.325,511768.886,8,400,,,
trial,html.Screen,4_57_0,2023-09-09T16:12:48.104Z,,0,2,,7283.8139998092665,response,ISIC_5854552.JPG,5,ISIC_2177748.JPG,ISIC_2177748.JPG,false,0,keypress(z),500,519053.09999990463,519052.69999980927,511752.198,511916,511768.886,518899.5,8,400,8,,ISIC_5854552.JPG
break,html.Screen,4_57_1,2023-09-09T16:12:48.107Z,,0,,,NaN,,,,,,false,,,,519055.80000019073,519055.59999990463,,519053.5,,518899.5,8,400,,,
break_continue,html.Screen,4_57_2,2023-09-09T16:12:48.107Z,,0,,,NaN,,,,,,false,,,,519055.90000009537,519055.90000009537,,519055.80000019073,,518899.5,8,400,,,
sequence,flow.Sequence,4_57,2023-09-09T16:12:48.107Z,,0,,,7287.014000095369,completion,,,,,false,,,,519056,519055.90000009537,511752.198,511916,511768.886,518899.5,8,400,,,
trial,html.Screen,4_58_0,2023-09-09T16:12:53.821Z,,0,2,,5870.199999809265,response,ISIC_0644590.JPG,4,ISIC_0033174.JPG,ISIC_0644590.JPG,false,1,keypress(m),500,524769.8000001907,524769.6999998093,518882.794,519056.09999990463,518899.5,524610.729,8,400,9,,ISIC_0033174.JPG
break,html.Screen,4_58_1,2023-09-09T16:12:53.822Z,,0,,,NaN,,,,,,false,,,,524770.3000001907,524770.0999999046,,524769.9000000954,,524610.729,8,400,,,
break_continue,html.Screen,4_58_2,2023-09-09T16:12:53.822Z,,0,,,NaN,,,,,,false,,,,524770.5,524770.4000000954,,524770.3000001907,,524610.729,8,400,,,
sequence,flow.Sequence,4_58,2023-09-09T16:12:53.822Z,,0,,,5870.900000095367,completion,,,,,false,,,,524770.5,524770.4000000954,518882.794,519056.09999990463,518899.5,524610.729,8,400,,,
trial,html.Screen,4_59_0,2023-09-09T16:12:59.108Z,,0,2,,5446.071000190685,response,ISIC_0592973.JPG,6,ISIC_7084553.JPG,ISIC_7084553.JPG,false,0,keypress(z),500,530057,530056.8000001907,524593.926,524770.5999999046,524610.729,529887.498,8,400,10,,ISIC_0592973.JPG
break,html.Screen,4_59_1,2023-09-09T16:12:59.109Z,,0,,,NaN,,,,,,false,,,,530057.6999998093,530057.3000001907,,530057.0999999046,,529887.498,8,400,,,
break_continue,html.Screen,4_59_2,2023-09-09T16:12:59.109Z,,0,,,NaN,,,,,,false,,,,530058,530058,,530057.8000001907,,529887.498,8,400,,,
sequence,flow.Sequence,4_59,2023-09-09T16:12:59.110Z,,0,,,5447.27099999995,completion,,,,,false,,,,530058.1999998093,530058,524593.926,524770.5999999046,524610.729,529887.498,8,400,,,
trial,html.Screen,4_60_0,2023-09-09T16:13:05.135Z,,0,2,,6196.001999999979,response,ISIC_9386509.JPG,5,ISIC_1520897.JPG,ISIC_1520897.JPG,false,0,keypress(z),500,536083.9000000954,536083.5,529870.752,530058.4000000954,529887.498,535915.936,8,400,11,,ISIC_9386509.JPG
break,html.Screen,4_60_1,2023-09-09T16:13:05.137Z,,0,,,NaN,,,,,,false,,,,536085.6999998093,536085,,536084.3000001907,,535915.936,8,400,,,
break_continue,html.Screen,4_60_2,2023-09-09T16:13:05.139Z,,0,,,NaN,,,,,,false,,,,536087.4000000954,536086.9000000954,,536086.0999999046,,535915.936,8,400,,,
sequence,flow.Sequence,4_60,2023-09-09T16:13:05.139Z,,0,,,6199.402000095346,completion,,,,,false,,,,536087.9000000954,536086.9000000954,529870.752,530058.4000000954,529887.498,535915.936,8,400,,,
trial,html.Screen,4_61_0,2023-09-09T16:13:12.169Z,,0,2,,7201.564000000013,response,ISIC_0029328.JPG,5,ISIC_0024999.JPG,ISIC_0024999.JPG,false,0,keypress(z),500,543117.6999998093,543117.5,535899.3,536088.0999999046,535915.936,542962.935,8,400,12,,ISIC_0029328.JPG
break,html.Screen,4_61_1,2023-09-09T16:13:12.170Z,,0,,,NaN,,,,,,false,,,,543118.1999998093,543118.0999999046,,543117.8000001907,,542962.935,8,400,,,
break_continue,html.Screen,4_61_2,2023-09-09T16:13:12.170Z,,0,,,NaN,,,,,,false,,,,543118.4000000954,543118.4000000954,,543118.3000001907,,542962.935,8,400,,,
sequence,flow.Sequence,4_61,2023-09-09T16:13:12.170Z,,0,,,7202.4640000953805,completion,,,,,false,,,,543118.5999999046,543118.4000000954,535899.3,536088.0999999046,535915.936,542962.935,8,400,,,
trial,html.Screen,4_62_0,2023-09-09T16:13:16.444Z,,0,2,,4429.564999999944,response,ISIC_0027986.JPG,6,ISIC_0029651.JPG,ISIC_0029651.JPG,false,0,keypress(z),500,547392.6999998093,547392.5,542946.22,543118.6999998093,542962.935,547237.947,8,400,13,,ISIC_0027986.JPG
break,html.Screen,4_62_1,2023-09-09T16:13:16.445Z,,0,,,NaN,,,,,,false,,,,547393.5,547393.3000001907,,547392.9000000954,,547237.947,8,400,,,
break_continue,html.Screen,4_62_2,2023-09-09T16:13:16.445Z,,0,,,NaN,,,,,,false,,,,547393.8000001907,547393.6999998093,,547393.6999998093,,547237.947,8,400,,,
sequence,flow.Sequence,4_62,2023-09-09T16:13:16.445Z,,0,,,4430.764999809209,completion,,,,,false,,,,547393.9000000954,547393.6999998093,542946.22,543118.6999998093,542962.935,547237.947,8,400,,,
trial,html.Screen,4_63_0,2023-09-09T16:13:23.457Z,,0,2,,7166.552999999956,response,ISIC_0033594.JPG,5,ISIC_8560106.JPG,ISIC_0033594.JPG,false,1,keypress(m),500,554404.9000000954,554404.5,547221.209,547393.9000000954,547237.947,554251.583,8,400,14,,ISIC_8560106.JPG
break,html.Screen,4_63_1,2023-09-09T16:13:23.459Z,,0,,,NaN,,,,,,false,,,,554406.6999998093,554406.1999998093,,554405.1999998093,,554251.583,8,400,,,
break_continue,html.Screen,4_63_2,2023-09-09T16:13:23.460Z,,0,,,NaN,,,,,,false,,,,554407.4000000954,554407.1999998093,,554406.8000001907,,554251.583,8,400,,,
sequence,flow.Sequence,4_63,2023-09-09T16:13:23.460Z,,0,,,7169.252999809221,completion,,,,,false,,,,554408,554407.1999998093,547221.209,547393.9000000954,547237.947,554251.583,8,400,,,
trial,html.Screen,4_64_0,2023-09-09T16:13:30.539Z,,0,2,,7235.217000190751,response,ISIC_5005253.JPG,5,ISIC_7945429.JPG,ISIC_7945429.JPG,false,0,keypress(z),500,561487,561486.8000001907,554234.96,554408.1999998093,554251.583,561332.004,8,400,15,,ISIC_5005253.JPG
break,html.Screen,4_64_1,2023-09-09T16:13:30.540Z,,0,,,NaN,,,,,,false,,,,561487.9000000954,561487.5999999046,,561487.1999998093,,561332.004,8,400,,,
break_continue,html.Screen,4_64_2,2023-09-09T16:13:30.541Z,,0,,,NaN,,,,,,false,,,,561488.3000001907,561488.1999998093,,561488.0999999046,,561332.004,8,400,,,
sequence,flow.Sequence,4_64,2023-09-09T16:13:30.541Z,,0,,,7236.616999809281,completion,,,,,false,,,,561488.4000000954,561488.1999998093,554234.96,554408.0999999046,554251.583,561332.004,8,400,,,
trial,html.Screen,4_65_0,2023-09-09T16:13:35.583Z,,0,2,,5198.195999809308,response,ISIC_7550510.JPG,4,ISIC_0010752.JPG,ISIC_0010752.JPG,false,0,keypress(z),500,566530.3000001907,566530.1999998093,561315.275,561488.5999999046,561332.004,566375.383,8,400,16,,ISIC_7550510.JPG
break,html.Screen,4_65_1,2023-09-09T16:13:35.583Z,,0,,,NaN,,,,,,false,,,,566530.8000001907,566530.5999999046,,566530.4000000954,,566375.383,8,400,,,
break_continue,html.Screen,4_65_2,2023-09-09T16:13:35.583Z,,0,,,NaN,,,,,,false,,,,566531,566531,,566530.8000001907,,566375.383,8,400,,,
sequence,flow.Sequence,4_65,2023-09-09T16:13:35.583Z,,0,,,5198.996000000043,completion,,,,,false,,,,566531.0999999046,566531,561315.275,561488.5,561332.004,566375.383,8,400,,,
trial,html.Screen,4_66_0,2023-09-09T16:13:39.217Z,,0,2,,3789.5170000953367,response,ISIC_0032258.JPG,5,ISIC_7043369.JPG,ISIC_0032258.JPG,false,1,keypress(m),500,570164.9000000954,570164.9000000954,566358.452,566531.1999998093,566375.383,569998.952,8,400,17,,ISIC_7043369.JPG
break,html.Screen,4_66_1,2023-09-09T16:13:39.218Z,,0,,,NaN,,,,,,false,,,,570165.3000001907,570165.1999998093,,570165.0999999046,,569998.952,8,400,,,
break_continue,html.Screen,4_66_2,2023-09-09T16:13:39.218Z,,0,,,NaN,,,,,,false,,,,570165.5,570165.5,,570165.4000000954,,569998.952,8,400,,,
sequence,flow.Sequence,4_66,2023-09-09T16:13:39.218Z,,0,,,3790.1169999999693,completion,,,,,false,,,,570165.5,570165.5,566358.452,566531.1999998093,566375.383,569998.952,8,400,,,
trial,html.Screen,4_67_0,2023-09-09T16:13:44.820Z,,0,2,,5768.448000095319,response,ISIC_5420979.JPG,5,ISIC_0030653.JPG,ISIC_0030653.JPG,false,0,keypress(z),500,575767.5999999046,575767.4000000954,569982.171,570165.5999999046,569998.952,575609.884,8,400,18,,ISIC_5420979.JPG
break,html.Screen,4_67_1,2023-09-09T16:13:44.820Z,,0,,,NaN,,,,,,false,,,,575767.9000000954,575767.9000000954,,575767.6999998093,,575609.884,8,400,,,
break_continue,html.Screen,4_67_2,2023-09-09T16:13:44.821Z,,0,,,NaN,,,,,,false,,,,575768.0999999046,575768.0999999046,,575768.0999999046,,575609.884,8,400,,,
sequence,flow.Sequence,4_67,2023-09-09T16:13:44.821Z,,0,,,5769.147999904584,completion,,,,,false,,,,575768.1999998093,575768.0999999046,569982.171,570165.5999999046,569998.952,575609.884,8,400,,,
trial,html.Screen,4_68_0,2023-09-09T16:13:49.548Z,,0,2,,4885.416000190773,response,ISIC_0028317.JPG,5,ISIC_0645116.JPG,ISIC_0028317.JPG,false,1,keypress(m),500,580495.5999999046,580495.3000001907,575593.066,575768.3000001907,575609.884,580352.415,8,400,19,,ISIC_0645116.JPG
break,html.Screen,4_68_1,2023-09-09T16:13:49.549Z,,0,,,NaN,,,,,,false,,,,580496.6999998093,580496.3000001907,,580495.8000001907,,580352.415,8,400,,,
break_continue,html.Screen,4_68_2,2023-09-09T16:13:49.549Z,,0,,,NaN,,,,,,false,,,,580497.0999999046,580497,,580496.8000001907,,580352.415,8,400,,,
sequence,flow.Sequence,4_68,2023-09-09T16:13:49.550Z,,0,,,4887.116000000038,completion,,,,,false,,,,580497.1999998093,580497,575593.066,575768.1999998093,575609.884,580352.415,8,400,,,
trial,html.Screen,4_69_0,2023-09-09T16:13:54.164Z,,0,2,,4758.584999999963,response,ISIC_4981135.JPG,6,ISIC_0066659.JPG,ISIC_0066659.JPG,false,0,keypress(z),500,585111.1999998093,585111,580335.668,580497.3000001907,580352.415,584961.425,8,400,20,,ISIC_4981135.JPG
break,html.Screen,4_69_1,2023-09-09T16:13:54.164Z,,0,,,NaN,,,,,,false,,,,585111.9000000954,585111.8000001907,,585111.4000000954,,584961.425,8,400,,,
break_continue,html.Screen,4_69_2,2023-09-09T16:13:54.164Z,,0,,,NaN,,,,,,false,,,,585112.0999999046,585112,,585111.9000000954,,584961.425,8,400,,,
sequence,flow.Sequence,4_69,2023-09-09T16:13:54.165Z,,0,,,4759.584999999963,completion,,,,,false,,,,585112.0999999046,585112,580335.668,580497.3000001907,580352.415,584961.425,8,400,,,
trial,html.Screen,4_70_0,2023-09-09T16:14:01.211Z,,0,2,,7196.875000190688,response,ISIC_1598039.JPG,5,ISIC_3632419.JPG,ISIC_3632419.JPG,false,0,keypress(z),500,592158.5,592158.3000001907,584944.664,585112.1999998093,584961.425,592008.343,8,400,21,,ISIC_1598039.JPG
break,html.Screen,4_70_1,2023-09-09T16:14:01.211Z,,0,,,NaN,,,,,,false,,,,592158.9000000954,592158.8000001907,,592158.5999999046,,592008.343,8,400,,,
break_continue,html.Screen,4_70_2,2023-09-09T16:14:01.211Z,,0,,,NaN,,,,,,false,,,,592159,592159,,592158.9000000954,,592008.343,8,400,,,
sequence,flow.Sequence,4_70,2023-09-09T16:14:01.211Z,,0,,,7197.574999999953,completion,,,,,false,,,,592159.0999999046,592159,584944.664,585112.1999998093,584961.425,592008.343,8,400,,,
trial,html.Screen,4_71_0,2023-09-09T16:14:07.837Z,,0,2,,6776.057000095374,response,ISIC_8496052.JPG,5,ISIC_0033638.JPG,ISIC_8496052.JPG,false,1,keypress(m),500,598784.5,598784.4000000954,591991.635,592159.0999999046,592008.343,598621.234,8,400,22,,ISIC_0033638.JPG
break,html.Screen,4_71_1,2023-09-09T16:14:07.837Z,,0,,,NaN,,,,,,false,,,,598785.0999999046,598784.9000000954,,598784.6999998093,,598621.234,8,400,,,
break_continue,html.Screen,4_71_2,2023-09-09T16:14:07.838Z,,0,,,NaN,,,,,,false,,,,598785.5999999046,598785.4000000954,,598785.1999998093,,598621.234,8,400,,,
sequence,flow.Sequence,4_71,2023-09-09T16:14:07.838Z,,0,,,6777.057000095374,completion,,,,,false,,,,598785.5999999046,598785.4000000954,591991.635,592159.0999999046,592008.343,598621.234,8,400,,,
trial,html.Screen,4_72_0,2023-09-09T16:14:15.055Z,,0,2,,7380.96599980921,response,ISIC_5110133.JPG,5,ISIC_0430356.JPG,ISIC_5110133.JPG,false,1,keypress(m),500,606002.4000000954,606002.1999998093,598604.506,598785.6999998093,598621.234,605851.941,8,400,23,,ISIC_0430356.JPG
break,html.Screen,4_72_1,2023-09-09T16:14:15.055Z,,0,,,NaN,,,,,,false,,,,606003,606002.9000000954,,606002.5,,605851.941,8,400,,,
break_continue,html.Screen,4_72_2,2023-09-09T16:14:15.056Z,,0,,,NaN,,,,,,false,,,,606003.3000001907,606003.1999998093,,606003.1999998093,,605851.941,8,400,,,
sequence,flow.Sequence,4_72,2023-09-09T16:14:15.056Z,,0,,,7381.96599980921,completion,,,,,false,,,,606003.5,606003.1999998093,598604.506,598785.6999998093,598621.234,605851.941,8,400,,,
trial,html.Screen,4_73_0,2023-09-09T16:14:20.743Z,,0,2,,5838.559000000008,response,ISIC_0001142.JPG,5,ISIC_0067120.JPG,ISIC_0001142.JPG,false,1,keypress(m),500,611690.5999999046,611690.5,605835.27,606003.5999999046,605851.941,611529.747,8,400,24,,ISIC_0067120.JPG
break,html.Screen,4_73_1,2023-09-09T16:14:20.743Z,,0,,,NaN,,,,,,false,,,,611691.0999999046,611690.9000000954,,611690.6999998093,,611529.747,8,400,,,
break_continue,html.Screen,4_73_2,2023-09-09T16:14:20.744Z,,0,,,NaN,,,,,,false,,,,611691.4000000954,611691.3000001907,,611691.1999998093,,611529.747,8,400,,,
sequence,flow.Sequence,4_73,2023-09-09T16:14:20.744Z,,0,,,5839.359000190743,completion,,,,,false,,,,611691.5,611691.3000001907,605835.27,606003.5,605851.941,611529.747,8,400,,,
trial,html.Screen,4_74_0,2023-09-09T16:14:26.618Z,,0,2,,6035.053000190761,response,ISIC_0356904.JPG,6,ISIC_5240387.JPG,ISIC_5240387.JPG,false,0,keypress(z),500,617564.9000000954,617564.8000001907,611513.001,611691.5,611529.747,617424.567,8,400,25,,ISIC_0356904.JPG
break,html.Screen,4_74_1,2023-09-09T16:14:26.619Z,,0,,,NaN,,,,,,false,,,,617565.3000001907,617565.1999998093,,617565,,617424.567,8,400,,,
break_continue,html.Screen,4_74_2,2023-09-09T16:14:26.619Z,,0,,,NaN,,,,,,false,,,,617565.5,617565.4000000954,,617565.4000000954,,617424.567,8,400,,,
sequence,flow.Sequence,4_74,2023-09-09T16:14:26.619Z,,0,,,6035.6530000953935,completion,,,,,false,,,,617565.5999999046,617565.4000000954,611513.001,611691.5,611529.747,617424.567,8,400,,,
trial,html.Screen,4_75_0,2023-09-09T16:14:32.035Z,,0,2,,5557.233000190696,response,ISIC_1961064.JPG,5,ISIC_0026292.JPG,ISIC_0026292.JPG,false,0,keypress(z),500,622982,622981.8000001907,617407.88,617565.6999998093,617424.567,622818.359,8,400,26,,ISIC_1961064.JPG
break,html.Screen,4_75_1,2023-09-09T16:14:32.036Z,,0,,,NaN,,,,,,false,,,,622982.4000000954,622982.3000001907,,622982.0999999046,,622818.359,8,400,,,
break_continue,html.Screen,4_75_2,2023-09-09T16:14:32.036Z,,0,,,NaN,,,,,,false,,,,622982.5,622982.5,,622982.5,,622818.359,8,400,,,
sequence,flow.Sequence,4_75,2023-09-09T16:14:32.036Z,,0,,,5557.932999999961,completion,,,,,false,,,,622982.5999999046,622982.5,617407.88,617565.5999999046,617424.567,622818.359,8,400,,,
trial,html.Screen,4_76_0,2023-09-09T16:14:37.958Z,,0,2,,6085.740999904578,response,ISIC_0063617.JPG,6,ISIC_0011958.JPG,ISIC_0011958.JPG,false,0,keypress(z),500,628904.0999999046,628904.0999999046,622801.61,622982.6999998093,622818.359,628746.533,8,400,27,,ISIC_0063617.JPG
break,html.Screen,4_76_1,2023-09-09T16:14:37.958Z,,0,,,NaN,,,,,,false,,,,628904.5999999046,628904.5,,628904.3000001907,,628746.533,8,400,,,
break_continue,html.Screen,4_76_2,2023-09-09T16:14:37.958Z,,0,,,NaN,,,,,,false,,,,628904.8000001907,628904.6999998093,,628904.5999999046,,628746.533,8,400,,,
sequence,flow.Sequence,4_76,2023-09-09T16:14:37.958Z,,0,,,6086.34099980921,completion,,,,,false,,,,628904.9000000954,628904.6999998093,622801.61,622982.6999998093,622818.359,628746.533,8,400,,,
trial,html.Screen,4_77_0,2023-09-09T16:14:44.871Z,,0,2,,7071.267000190681,response,ISIC_0000314.JPG,5,ISIC_3230874.JPG,ISIC_0000314.JPG,false,1,keypress(m),500,635817.9000000954,635817.8000001907,628729.909,628904.9000000954,628746.533,635676.654,8,400,28,,ISIC_3230874.JPG
break,html.Screen,4_77_1,2023-09-09T16:14:44.872Z,,0,,,NaN,,,,,,false,,,,635818.3000001907,635818.1999998093,,635818,,635676.654,8,400,,,
break_continue,html.Screen,4_77_2,2023-09-09T16:14:44.872Z,,0,,,NaN,,,,,,false,,,,635818.5,635818.4000000954,,635818.3000001907,,635676.654,8,400,,,
sequence,flow.Sequence,4_77,2023-09-09T16:14:44.872Z,,0,,,7071.867000095313,completion,,,,,false,,,,635818.5,635818.4000000954,628729.909,628904.9000000954,628746.533,635676.654,8,400,,,
trial,html.Screen,4_78_0,2023-09-09T16:14:51.118Z,,0,2,,6388.146000190754,response,ISIC_0032887.JPG,5,ISIC_6705966.JPG,ISIC_0032887.JPG,false,1,keypress(m),500,642065,642064.8000001907,635659.914,635818.5999999046,635676.654,641905.508,8,400,29,,ISIC_6705966.JPG
break,html.Screen,4_78_1,2023-09-09T16:14:51.119Z,,0,,,NaN,,,,,,false,,,,642065.6999998093,642065.5,,642065.1999998093,,641905.508,8,400,,,
break_continue,html.Screen,4_78_2,2023-09-09T16:14:51.119Z,,0,,,NaN,,,,,,false,,,,642065.9000000954,642065.8000001907,,642065.6999998093,,641905.508,8,400,,,
sequence,flow.Sequence,4_78,2023-09-09T16:14:51.119Z,,0,,,6389.146000190754,completion,,,,,false,,,,642066,642065.8000001907,635659.914,635818.5,635676.654,641905.508,8,400,,,
trial,html.Screen,4_79_0,2023-09-09T16:14:57.088Z,,0,2,,6129.491999999969,response,ISIC_0030083.JPG,5,ISIC_8671119.JPG,ISIC_0030083.JPG,false,1,keypress(m),500,648035.0999999046,648035,641888.853,642066.0999999046,641905.508,647867.045,8,400,30,,ISIC_8671119.JPG
break,html.Screen,4_79_1,2023-09-09T16:14:57.089Z,,0,,,NaN,,,,,,false,,,,648035.5999999046,648035.5,,648035.1999998093,,647867.045,8,400,,,
break_continue,html.Screen,4_79_2,2023-09-09T16:14:57.089Z,,0,,,NaN,,,,,,false,,,,648036,648035.9000000954,,648035.8000001907,,647867.045,8,400,,,
sequence,flow.Sequence,4_79,2023-09-09T16:14:57.089Z,,0,,,6130.392000095337,completion,,,,,false,,,,648036,648035.9000000954,641888.853,642066,641905.508,647867.045,8,400,,,
trial,html.Screen,4_80_0,2023-09-09T16:15:01.716Z,,0,2,,4794.954999999958,response,ISIC_0069395.JPG,5,ISIC_5230371.JPG,ISIC_0069395.JPG,false,1,keypress(m),500,652662.1999998093,652662,647850.39,648036.0999999046,647867.045,652492.726,8,400,31,,ISIC_5230371.JPG
break,html.Screen,4_80_1,2023-09-09T16:15:01.716Z,,0,,,NaN,,,,,,false,,,,652662.5999999046,652662.4000000954,,652662.3000001907,,652492.726,8,400,,,
break_continue,html.Screen,4_80_2,2023-09-09T16:15:01.716Z,,0,,,NaN,,,,,,false,,,,652662.6999998093,652662.6999998093,,652662.5999999046,,652492.726,8,400,,,
sequence,flow.Sequence,4_80,2023-09-09T16:15:01.716Z,,0,,,4795.654999809223,completion,,,,,false,,,,652662.9000000954,652662.6999998093,647850.39,648036.0999999046,647867.045,652492.726,8,400,,,
trial,html.Screen,4_81_0,2023-09-09T16:15:06.134Z,,0,2,,4588.174000095343,response,ISIC_0032531.JPG,4,ISIC_6635699.JPG,ISIC_0032531.JPG,false,1,keypress(m),500,657081.0999999046,657080.9000000954,652476.119,652662.9000000954,652492.726,656918.177,8,400,32,,ISIC_6635699.JPG
break,html.Screen,4_81_1,2023-09-09T16:15:06.136Z,,0,,,NaN,,,,,,false,,,,657082.0999999046,657081.9000000954,,657081.3000001907,,656918.177,8,400,,,
break_continue,html.Screen,4_81_2,2023-09-09T16:15:06.136Z,,0,,,NaN,,,,,,false,,,,657082.8000001907,657082.5,,657082.3000001907,,656918.177,8,400,,,
sequence,flow.Sequence,4_81,2023-09-09T16:15:06.136Z,,0,,,4589.773999999976,completion,,,,,false,,,,657082.9000000954,657082.5,652476.119,652662.9000000954,652492.726,656918.177,8,400,,,
trial,html.Screen,4_82_0,2023-09-09T16:15:13.642Z,,0,2,,7670.62300019071,response,ISIC_1091626.JPG,6,ISIC_0012810.JPG,ISIC_0012810.JPG,false,0,keypress(z),500,664588.9000000954,664588.8000001907,656901.351,657083.3000001907,656918.177,664432.719,8,400,33,,ISIC_1091626.JPG
break,html.Screen,4_82_1,2023-09-09T16:15:13.643Z,,0,,,NaN,,,,,,false,,,,664589.4000000954,664589.3000001907,,664589,,664432.719,8,400,,,
break_continue,html.Screen,4_82_2,2023-09-09T16:15:13.643Z,,0,,,NaN,,,,,,false,,,,664589.8000001907,664589.6999998093,,664589.5,,664432.719,8,400,,,
sequence,flow.Sequence,4_82,2023-09-09T16:15:13.643Z,,0,,,7671.52299980924,completion,,,,,false,,,,664589.9000000954,664589.6999998093,656901.351,657083.1999998093,656918.177,664432.719,8,400,,,
trial,html.Screen,4_83_0,2023-09-09T16:15:17.955Z,,0,2,,4468.280999999959,response,ISIC_0027112.JPG,6,ISIC_4801737.JPG,ISIC_4801737.JPG,false,0,keypress(z),500,668901.0999999046,668901,664415.928,664589.9000000954,664432.719,668757.739,8,400,34,,ISIC_0027112.JPG
break,html.Screen,4_83_1,2023-09-09T16:15:17.955Z,,0,,,NaN,,,,,,false,,,,668901.8000001907,668901.5999999046,,668901.3000001907,,668757.739,8,400,,,
break_continue,html.Screen,4_83_2,2023-09-09T16:15:17.955Z,,0,,,NaN,,,,,,false,,,,668902.0999999046,668902,,668901.9000000954,,668757.739,8,400,,,
sequence,flow.Sequence,4_83,2023-09-09T16:15:17.956Z,,0,,,4469.280999999959,completion,,,,,false,,,,668902.0999999046,668902,664415.928,664589.9000000954,664432.719,668757.739,8,400,,,
trial,html.Screen,4_84_0,2023-09-09T16:15:22.298Z,,0,2,,4486.960999809322,response,ISIC_0210282.JPG,5,ISIC_3965872.JPG,ISIC_3965872.JPG,false,0,keypress(z),500,673244.9000000954,673244.6999998093,668741.033,668902.1999998093,668757.739,673082.81,8,400,35,,ISIC_0210282.JPG
break,html.Screen,4_84_1,2023-09-09T16:15:22.299Z,,0,,,NaN,,,,,,false,,,,673245.5,673245.3000001907,,673245,,673082.81,8,400,,,
break_continue,html.Screen,4_84_2,2023-09-09T16:15:22.299Z,,0,,,NaN,,,,,,false,,,,673245.6999998093,673245.6999998093,,673245.5,,673082.81,8,400,,,
sequence,flow.Sequence,4_84,2023-09-09T16:15:22.299Z,,0,,,4487.960999809322,completion,,,,,false,,,,673245.8000001907,673245.6999998093,668741.033,668902.0999999046,668757.739,673082.81,8,400,,,
trial,html.Screen,4_85_0,2023-09-09T16:15:28.446Z,,0,2,,6308.889999809209,response,ISIC_5287679.JPG,7,ISIC_0056257.JPG,ISIC_0056257.JPG,false,0,keypress(z),500,679391.8000001907,679391.6999998093,673066.108,673245.8000001907,673082.81,679228.102,8,400,36,,ISIC_5287679.JPG
break,html.Screen,4_85_1,2023-09-09T16:15:28.447Z,,0,,,NaN,,,,,,false,,,,679392.1999998093,679392.0999999046,,679391.9000000954,,679228.102,8,400,,,
break_continue,html.Screen,4_85_2,2023-09-09T16:15:28.447Z,,0,,,NaN,,,,,,false,,,,679392.4000000954,679392.3000001907,,679392.1999998093,,679228.102,8,400,,,
sequence,flow.Sequence,4_85,2023-09-09T16:15:28.447Z,,0,,,6309.490000190679,completion,,,,,false,,,,679392.4000000954,679392.3000001907,673066.108,673245.8000001907,673082.81,679228.102,8,400,,,
trial,html.Screen,4_86_0,2023-09-09T16:15:34.198Z,,0,2,,5915.497999904677,response,ISIC_5290521.JPG,5,ISIC_0032970.JPG,ISIC_0032970.JPG,false,0,keypress(z),500,685143.6999998093,685143.5999999046,679211.386,679392.5,679228.102,685006.1,8,400,37,,ISIC_5290521.JPG
break,html.Screen,4_86_1,2023-09-09T16:15:34.199Z,,0,,,NaN,,,,,,false,,,,685144.0999999046,685144,,685143.8000001907,,685006.1,8,400,,,
break_continue,html.Screen,4_86_2,2023-09-09T16:15:34.199Z,,0,,,NaN,,,,,,false,,,,685144.3000001907,685144.3000001907,,685144.0999999046,,685006.1,8,400,,,
sequence,flow.Sequence,4_86,2023-09-09T16:15:34.199Z,,0,,,5916.19800019078,completion,,,,,false,,,,685144.4000000954,685144.3000001907,679211.386,679392.5,679228.102,685006.1,8,400,,,
trial,html.Screen,4_87_0,2023-09-09T16:15:41.576Z,,0,2,,7515.400000000023,response,ISIC_9022005.JPG,6,ISIC_0027282.JPG,ISIC_9022005.JPG,false,1,keypress(m),500,692521.6999998093,692521.5,684989.285,685144.4000000954,685006.1,692353.64,8,400,38,,ISIC_0027282.JPG
break,html.Screen,4_87_1,2023-09-09T16:15:41.577Z,,0,,,NaN,,,,,,false,,,,692522.1999998093,692522,,692521.6999998093,,692353.64,8,400,,,
break_continue,html.Screen,4_87_2,2023-09-09T16:15:41.577Z,,0,,,NaN,,,,,,false,,,,692522.5,692522.4000000954,,692522.3000001907,,692353.64,8,400,,,
sequence,flow.Sequence,4_87,2023-09-09T16:15:41.577Z,,0,,,7516.300000095391,completion,,,,,false,,,,692522.5999999046,692522.4000000954,684989.285,685144.4000000954,685006.1,692353.64,8,400,,,
trial,html.Screen,4_88_0,2023-09-09T16:15:48.634Z,,0,2,,7226.160000190721,response,ISIC_0031438.JPG,5,ISIC_0012334.JPG,ISIC_0012334.JPG,false,0,keypress(z),500,699580,699579.8000001907,692336.915,692522.6999998093,692353.64,699417.445,8,400,39,,ISIC_0031438.JPG
break,html.Screen,4_88_1,2023-09-09T16:15:48.635Z,,0,,,NaN,,,,,,false,,,,699580.5,699580.3000001907,,699580.0999999046,,699417.445,8,400,,,
break_continue,html.Screen,4_88_2,2023-09-09T16:15:48.635Z,,0,,,NaN,,,,,,false,,,,699580.9000000954,699580.8000001907,,699580.5999999046,,699417.445,8,400,,,
sequence,flow.Sequence,4_88,2023-09-09T16:15:48.635Z,,0,,,7227.160000190721,completion,,,,,false,,,,699581,699580.8000001907,692336.915,692522.6999998093,692353.64,699417.445,8,400,,,
trial,html.Screen,4_89_0,2023-09-09T16:15:54.753Z,,0,2,,6280.955000095419,response,ISIC_9792253.JPG,5,ISIC_4226975.JPG,ISIC_9792253.JPG,false,1,keypress(m),500,705698.5,705698.4000000954,699400.707,699581,699417.445,705545.939,8,400,40,,ISIC_4226975.JPG
break,html.Screen,4_89_1,2023-09-09T16:15:54.753Z,,0,,,NaN,,,,,,false,,,,705699,705698.8000001907,,705698.5999999046,,705545.939,8,400,,,
break_continue,html.Screen,4_89_2,2023-09-09T16:15:54.754Z,,0,,,NaN,,,,,,false,,,,705699.3000001907,705699.1999998093,,705699,,705545.939,8,400,,,
sequence,flow.Sequence,4_89,2023-09-09T16:15:54.754Z,,0,,,6281.754999809316,completion,,,,,false,,,,705699.5,705699.1999998093,699400.707,699581,699417.445,705545.939,8,400,,,
trial,html.Screen,4_90_0,2023-09-09T16:15:59.191Z,,0,2,,4590.6609999046195,response,ISIC_0032960.JPG,5,ISIC_0974833.JPG,ISIC_0032960.JPG,false,1,keypress(m),500,710136.6999998093,710136.5999999046,705529.285,705699.5,705545.939,709987.959,8,400,41,,ISIC_0974833.JPG
break,html.Screen,4_90_1,2023-09-09T16:15:59.192Z,,0,,,NaN,,,,,,false,,,,710137.1999998093,710137,,710136.8000001907,,709987.959,8,400,,,
break_continue,html.Screen,4_90_2,2023-09-09T16:15:59.192Z,,0,,,NaN,,,,,,false,,,,710137.5,710137.4000000954,,710137.3000001907,,709987.959,8,400,,,
sequence,flow.Sequence,4_90,2023-09-09T16:15:59.192Z,,0,,,4591.461000095354,completion,,,,,false,,,,710137.5999999046,710137.4000000954,705529.285,705699.5,705545.939,709987.959,8,400,,,
trial,html.Screen,4_91_0,2023-09-09T16:16:03.629Z,,0,2,,4586.640999904601,response,ISIC_0296109.JPG,4,ISIC_0011750.JPG,ISIC_0011750.JPG,false,0,keypress(z),500,714574.6999998093,714574.5999999046,709971.236,710137.8000001907,709987.959,714413.24,8,400,42,,ISIC_0296109.JPG
break,html.Screen,4_91_1,2023-09-09T16:16:03.630Z,,0,,,NaN,,,,,,false,,,,714575.4000000954,714575.1999998093,,714574.9000000954,,714413.24,8,400,,,
break_continue,html.Screen,4_91_2,2023-09-09T16:16:03.630Z,,0,,,NaN,,,,,,false,,,,714575.5999999046,714575.5,,714575.4000000954,,714413.24,8,400,,,
sequence,flow.Sequence,4_91,2023-09-09T16:16:03.630Z,,0,,,4587.540999999968,completion,,,,,false,,,,714575.6999998093,714575.5,709971.236,710137.6999998093,709987.959,714413.24,8,400,,,
trial,html.Screen,4_92_0,2023-09-09T16:16:08.567Z,,0,2,,5099.359999904642,response,ISIC_0059626.JPG,5,ISIC_0027321.JPG,ISIC_0059626.JPG,false,1,keypress(m),500,719512.9000000954,719512.5999999046,714396.613,714575.8000001907,714413.24,719356.322,8,400,43,,ISIC_0027321.JPG
break,html.Screen,4_92_1,2023-09-09T16:16:08.569Z,,0,,,NaN,,,,,,false,,,,719514.9000000954,719514.3000001907,,719513.3000001907,,719356.322,8,400,,,
break_continue,html.Screen,4_92_2,2023-09-09T16:16:08.570Z,,0,,,NaN,,,,,,false,,,,719515.5999999046,719515.5,,719515.1999998093,,719356.322,8,400,,,
sequence,flow.Sequence,4_92,2023-09-09T16:16:08.570Z,,0,,,5102.260000000009,completion,,,,,false,,,,719515.6999998093,719515.5,714396.613,714575.6999998093,714413.24,719356.322,8,400,,,
trial,html.Screen,4_93_0,2023-09-09T16:16:13.308Z,,0,2,,4896.578000095324,response,ISIC_1550721.JPG,6,ISIC_0945844.JPG,ISIC_0945844.JPG,false,0,keypress(z),500,724253.0999999046,724252.9000000954,719339.488,719515.6999998093,719356.322,724098.722,8,400,44,,ISIC_1550721.JPG
break,html.Screen,4_93_1,2023-09-09T16:16:13.308Z,,0,,,NaN,,,,,,false,,,,724253.9000000954,724253.6999998093,,724253.4000000954,,724098.722,8,400,,,
break_continue,html.Screen,4_93_2,2023-09-09T16:16:13.309Z,,0,,,NaN,,,,,,false,,,,724254.3000001907,724254.1999998093,,724254.0999999046,,724098.722,8,400,,,
sequence,flow.Sequence,4_93,2023-09-09T16:16:13.309Z,,0,,,4897.877999809221,completion,,,,,false,,,,724254.5,724254.1999998093,719339.488,719515.6999998093,719356.322,724098.722,8,400,,,
trial,html.Screen,4_94_0,2023-09-09T16:16:18.158Z,,0,2,,5004.9779998093145,response,ISIC_0061077.JPG,6,ISIC_0027065.JPG,ISIC_0027065.JPG,false,0,keypress(z),500,729103.9000000954,729103.6999998093,724082.031,724254.5999999046,724098.722,728958.372,8,400,45,,ISIC_0061077.JPG
break,html.Screen,4_94_1,2023-09-09T16:16:18.159Z,,0,,,NaN,,,,,,false,,,,729104.4000000954,729104.1999998093,,729104,,728958.372,8,400,,,
break_continue,html.Screen,4_94_2,2023-09-09T16:16:18.159Z,,0,,,NaN,,,,,,false,,,,729104.5999999046,729104.5,,729104.4000000954,,728958.372,8,400,,,
sequence,flow.Sequence,4_94,2023-09-09T16:16:18.159Z,,0,,,5005.778000000049,completion,,,,,false,,,,729104.6999998093,729104.5,724082.031,724254.5999999046,724098.722,728958.372,8,400,,,
trial,html.Screen,4_95_0,2023-09-09T16:16:22.881Z,,0,2,,4867.727999904659,response,ISIC_9196783.JPG,5,ISIC_0026394.JPG,ISIC_9196783.JPG,false,1,keypress(m),500,733826.1999998093,733826.0999999046,728941.468,729104.8000001907,728958.372,733684.135,8,400,46,,ISIC_0026394.JPG
break,html.Screen,4_95_1,2023-09-09T16:16:22.881Z,,0,,,NaN,,,,,,false,,,,733826.6999998093,733826.5,,733826.3000001907,,733684.135,8,400,,,
break_continue,html.Screen,4_95_2,2023-09-09T16:16:22.881Z,,0,,,NaN,,,,,,false,,,,733826.9000000954,733826.8000001907,,733826.6999998093,,733684.135,8,400,,,
sequence,flow.Sequence,4_95,2023-09-09T16:16:22.881Z,,0,,,4868.428000190761,completion,,,,,false,,,,733827,733826.8000001907,728941.468,729104.8000001907,728958.372,733684.135,8,400,,,
trial,html.Screen,4_96_0,2023-09-09T16:16:29.237Z,,0,2,,6497.064999809256,response,ISIC_8942967.JPG,6,ISIC_4915897.JPG,ISIC_4915897.JPG,false,0,keypress(z),500,740181.3000001907,740181.1999998093,733667.448,733827.0999999046,733684.135,740029.762,8,400,47,,ISIC_8942967.JPG
break,html.Screen,4_96_1,2023-09-09T16:16:29.237Z,,0,,,NaN,,,,,,false,,,,740182.0999999046,740181.9000000954,,740181.5999999046,,740029.762,8,400,,,
break_continue,html.Screen,4_96_2,2023-09-09T16:16:29.238Z,,0,,,NaN,,,,,,false,,,,740182.4000000954,740182.3000001907,,740182.1999998093,,740029.762,8,400,,,
sequence,flow.Sequence,4_96,2023-09-09T16:16:29.238Z,,0,,,6498.165000190726,completion,,,,,false,,,,740182.5,740182.3000001907,733667.448,733827.0999999046,733684.135,740029.762,8,400,,,
trial,html.Screen,4_97_0,2023-09-09T16:16:37.068Z,,0,2,,7982.738000000012,response,ISIC_9987485.JPG,5,ISIC_0000466.JPG,ISIC_0000466.JPG,false,0,keypress(z),500,748012.6999998093,748012.5,740013.078,740182.5999999046,740029.762,747844.986,8,400,48,,ISIC_9987485.JPG
break,html.Screen,4_97_1,2023-09-09T16:16:37.068Z,,0,,,NaN,,,,,,false,,,,748013,748013,,748012.6999998093,,747844.986,8,400,,,
break_continue,html.Screen,4_97_2,2023-09-09T16:16:37.069Z,,0,,,NaN,,,,,,false,,,,748013.3000001907,748013.1999998093,,748013.0999999046,,747844.986,8,400,,,
sequence,flow.Sequence,4_97,2023-09-09T16:16:37.069Z,,0,,,7983.437999809277,completion,,,,,false,,,,748013.3000001907,748013.1999998093,740013.078,740182.5999999046,740029.762,747844.986,8,400,,,
trial,html.Screen,4_98_0,2023-09-09T16:16:42.942Z,,0,2,,6041.5139999999665,response,ISIC_9820910.JPG,5,ISIC_3105924.JPG,ISIC_9820910.JPG,false,1,keypress(m),500,753886.8000001907,753886.5,747828.452,748013.4000000954,747844.986,753723.098,8,400,49,,ISIC_3105924.JPG
break,html.Screen,4_98_1,2023-09-09T16:16:42.944Z,,0,,,NaN,,,,,,false,,,,753888.4000000954,753887.9000000954,,753887.3000001907,,753723.098,8,400,,,
break_continue,html.Screen,4_98_2,2023-09-09T16:16:42.944Z,,0,,,NaN,,,,,,false,,,,753889.0999999046,753888.8000001907,,753888.5,,753723.098,8,400,,,
sequence,flow.Sequence,4_98,2023-09-09T16:16:42.945Z,,0,,,6043.814000190701,completion,,,,,false,,,,753889.4000000954,753888.8000001907,747828.452,748013.3000001907,747844.986,753723.098,8,400,,,
trial,html.Screen,4_99_0,2023-09-09T16:16:47.960Z,,0,2,,5181.402000000002,response,ISIC_0026302.JPG,6,ISIC_3770380.JPG,ISIC_0026302.JPG,false,1,keypress(m),500,758904.9000000954,758904.5,753706.619,753889.5999999046,753723.098,758749.526,8,400,50,,ISIC_3770380.JPG
break,html.Screen,4_99_1,2023-09-09T16:16:57.819Z,,0,,,9852.51000000001,timeout,,,,,false,,,,768763.5999999046,768763.5,758732.971,758905,758749.526,768602.036,8,400,,,
break_continue,html.Screen,4_99_2,2023-09-09T16:17:02.539Z,,0,,,4868.063999904669,response,,,,,false,continue,keypress(Space),,773483.8000001907,773470.0999999046,768763.5,768763.6999998093,768602.036,773327.859,8,400,,,
sequence,flow.Sequence,4_99,2023-09-09T16:17:02.539Z,,0,,,19747.001999904634,completion,,,,,false,,,,773483.9000000954,773470.0999999046,753706.619,753889.5999999046,753723.098,773327.859,8,400,,,
trial,html.Screen,4_100_0,2023-09-09T16:17:07.725Z,,0,3,,5342.0410000953125,response,ISIC_0024385.JPG,6,ISIC_7017547.JPG,ISIC_0024385.JPG,false,1,keypress(m),500,778670,778669.9000000954,773311.126,773484.5999999046,773327.859,778504.606,8,400,1,,ISIC_7017547.JPG
break,html.Screen,4_100_1,2023-09-09T16:17:07.726Z,,0,,,NaN,,,,,,false,,,,778670.4000000954,778670.3000001907,,778670.0999999046,,778504.606,8,400,,,
break_continue,html.Screen,4_100_2,2023-09-09T16:17:07.726Z,,0,,,NaN,,,,,,false,,,,778670.5999999046,778670.5,,778670.4000000954,,778504.606,8,400,,,
sequence,flow.Sequence,4_100,2023-09-09T16:17:07.726Z,,0,,,5342.640999999945,completion,,,,,false,,,,778670.5999999046,778670.5,773311.126,773484.5,773327.859,778504.606,8,400,,,
trial,html.Screen,4_101_0,2023-09-09T16:17:11.983Z,,0,3,,4422.993999904604,response,ISIC_0064941.JPG,5,ISIC_0054318.JPG,ISIC_0064941.JPG,false,1,keypress(m),500,782927.6999998093,782927.5999999046,778487.878,778670.5999999046,778504.606,782779.653,8,400,2,,ISIC_0054318.JPG
break,html.Screen,4_101_1,2023-09-09T16:17:11.983Z,,0,,,NaN,,,,,,false,,,,782928,782928,,782927.8000001907,,782779.653,8,400,,,
break_continue,html.Screen,4_101_2,2023-09-09T16:17:11.984Z,,0,,,NaN,,,,,,false,,,,782928.3000001907,782928.1999998093,,782928.0999999046,,782779.653,8,400,,,
sequence,flow.Sequence,4_101,2023-09-09T16:17:11.984Z,,0,,,4423.593999809236,completion,,,,,false,,,,782928.4000000954,782928.1999998093,778487.878,778670.5999999046,778504.606,782779.653,8,400,,,
trial,html.Screen,4_102_0,2023-09-09T16:17:16.129Z,,0,3,,4294.247000095318,response,ISIC_0484171.JPG,5,ISIC_6455702.JPG,ISIC_0484171.JPG,false,1,keypress(m),500,787074,787073.9000000954,782762.886,782928.5,782779.653,786904.292,8,400,3,,ISIC_6455702.JPG
break,html.Screen,4_102_1,2023-09-09T16:17:16.130Z,,0,,,NaN,,,,,,false,,,,787074.5999999046,787074.5,,787074.1999998093,,786904.292,8,400,,,
break_continue,html.Screen,4_102_2,2023-09-09T16:17:16.130Z,,0,,,NaN,,,,,,false,,,,787074.8000001907,787074.8000001907,,787074.6999998093,,786904.292,8,400,,,
sequence,flow.Sequence,4_102,2023-09-09T16:17:16.130Z,,0,,,4295.1470001906855,completion,,,,,false,,,,787075,787074.8000001907,782762.886,782928.4000000954,782779.653,786904.292,8,400,,,
trial,html.Screen,4_103_0,2023-09-09T16:17:21.251Z,,0,3,,5291.407999809249,response,ISIC_0012263.JPG,5,ISIC_0030554.JPG,ISIC_0012263.JPG,false,1,keypress(m),500,792196,792195.6999998093,786887.632,787075.0999999046,786904.292,792030.913,8,400,4,,ISIC_0030554.JPG
break,html.Screen,4_103_1,2023-09-09T16:17:21.252Z,,0,,,NaN,,,,,,false,,,,792196.8000001907,792196.6999998093,,792196.0999999046,,792030.913,8,400,,,
break_continue,html.Screen,4_103_2,2023-09-09T16:17:21.253Z,,0,,,NaN,,,,,,false,,,,792197.3000001907,792197.1999998093,,792197.0999999046,,792030.913,8,400,,,
sequence,flow.Sequence,4_103,2023-09-09T16:17:21.253Z,,0,,,5292.907999809249,completion,,,,,false,,,,792197.6999998093,792197.1999998093,786887.632,787075.0999999046,786904.292,792030.913,8,400,,,
trial,html.Screen,4_104_0,2023-09-09T16:17:26.893Z,,0,3,,5806.087000000058,response,ISIC_0072101.JPG,4,ISIC_1772828.JPG,ISIC_0072101.JPG,false,1,keypress(m),500,797837.0999999046,797837,792014.337,792197.9000000954,792030.913,797691.961,8,400,5,,ISIC_1772828.JPG
break,html.Screen,4_104_1,2023-09-09T16:17:26.894Z,,0,,,NaN,,,,,,false,,,,797837.5999999046,797837.5,,797837.3000001907,,797691.961,8,400,,,
break_continue,html.Screen,4_104_2,2023-09-09T16:17:26.894Z,,0,,,NaN,,,,,,false,,,,797837.8000001907,797837.8000001907,,797837.6999998093,,797691.961,8,400,,,
sequence,flow.Sequence,4_104,2023-09-09T16:17:26.894Z,,0,,,5806.887000190793,completion,,,,,false,,,,797837.9000000954,797837.8000001907,792014.337,792197.9000000954,792030.913,797691.961,8,400,,,
trial,html.Screen,4_105_0,2023-09-09T16:17:31.204Z,,0,3,,4455.439000095357,response,ISIC_0000445.JPG,5,ISIC_0911264.JPG,ISIC_0911264.JPG,false,0,keypress(z),500,802147.5,802147.4000000954,797675.353,797837.9000000954,797691.961,801983.661,8,400,6,,ISIC_0000445.JPG
break,html.Screen,4_105_1,2023-09-09T16:17:31.204Z,,0,,,NaN,,,,,,false,,,,802147.9000000954,802147.8000001907,,802147.5999999046,,801983.661,8,400,,,
break_continue,html.Screen,4_105_2,2023-09-09T16:17:31.204Z,,0,,,NaN,,,,,,false,,,,802148.0999999046,802148,,802148,,801983.661,8,400,,,
sequence,flow.Sequence,4_105,2023-09-09T16:17:31.204Z,,0,,,4456.03899999999,completion,,,,,false,,,,802148.1999998093,802148,797675.353,797837.9000000954,797691.961,801983.661,8,400,,,
trial,html.Screen,4_106_0,2023-09-09T16:17:37.863Z,,0,3,,6822.739000095404,response,ISIC_7755106.JPG,4,ISIC_1373468.JPG,ISIC_1373468.JPG,false,0,keypress(z),500,808806.5,808806.4000000954,801966.947,802148.1999998093,801983.661,808663.346,8,400,7,,ISIC_7755106.JPG
break,html.Screen,4_106_1,2023-09-09T16:17:37.863Z,,0,,,NaN,,,,,,false,,,,808807,808806.9000000954,,808806.5999999046,,808663.346,8,400,,,
break_continue,html.Screen,4_106_2,2023-09-09T16:17:37.863Z,,0,,,NaN,,,,,,false,,,,808807.1999998093,808807.1999998093,,808807,,808663.346,8,400,,,
sequence,flow.Sequence,4_106,2023-09-09T16:17:37.864Z,,0,,,6823.5389998093015,completion,,,,,false,,,,808807.3000001907,808807.1999998093,801966.947,802148.1999998093,801983.661,808663.346,8,400,,,
trial,html.Screen,4_107_0,2023-09-09T16:17:42.714Z,,0,3,,4994.253999904613,response,ISIC_0033692.JPG,5,ISIC_0011381.JPG,ISIC_0011381.JPG,false,0,keypress(z),500,813657.8000001907,813657.5999999046,808646.636,808807.4000000954,808663.346,813489.387,8,400,8,,ISIC_0033692.JPG
break,html.Screen,4_107_1,2023-09-09T16:17:42.715Z,,0,,,NaN,,,,,,false,,,,813658.3000001907,813658.0999999046,,813657.9000000954,,813489.387,8,400,,,
break_continue,html.Screen,4_107_2,2023-09-09T16:17:42.715Z,,0,,,NaN,,,,,,false,,,,813658.5,813658.5,,813658.3000001907,,813489.387,8,400,,,
sequence,flow.Sequence,4_107,2023-09-09T16:17:42.715Z,,0,,,4995.15399999998,completion,,,,,false,,,,813658.5999999046,813658.5,808646.636,808807.3000001907,808663.346,813489.387,8,400,,,
trial,html.Screen,4_108_0,2023-09-09T16:17:48.529Z,,0,3,,5983.113000000012,response,ISIC_2126084.JPG,5,ISIC_0013204.JPG,ISIC_0013204.JPG,false,0,keypress(z),500,819472.9000000954,819472.5,813472.82,813658.6999998093,813489.387,819334.276,8,400,9,,ISIC_2126084.JPG
break,html.Screen,4_108_1,2023-09-09T16:17:48.531Z,,0,,,NaN,,,,,,false,,,,819474.4000000954,819474,,819473.1999998093,,819334.276,8,400,,,
break_continue,html.Screen,4_108_2,2023-09-09T16:17:48.531Z,,0,,,NaN,,,,,,false,,,,819475.0999999046,819474.9000000954,,819474.5999999046,,819334.276,8,400,,,
sequence,flow.Sequence,4_108,2023-09-09T16:17:48.532Z,,0,,,5985.5130000953795,completion,,,,,false,,,,819475.4000000954,819474.9000000954,813472.82,813658.6999998093,813489.387,819334.276,8,400,,,
trial,html.Screen,4_109_0,2023-09-09T16:17:54.038Z,,0,3,,5647.124000095413,response,ISIC_9178485.JPG,5,ISIC_9615486.JPG,ISIC_9615486.JPG,false,0,keypress(z),500,824981.5999999046,824981.4000000954,819317.438,819475.6999998093,819334.276,824828.169,8,400,10,,ISIC_9178485.JPG
break,html.Screen,4_109_1,2023-09-09T16:17:54.039Z,,0,,,NaN,,,,,,false,,,,824982.5,824982.3000001907,,824981.8000001907,,824828.169,8,400,,,
break_continue,html.Screen,4_109_2,2023-09-09T16:17:54.039Z,,0,,,NaN,,,,,,false,,,,824982.9000000954,824982.8000001907,,824982.5999999046,,824828.169,8,400,,,
sequence,flow.Sequence,4_109,2023-09-09T16:17:54.039Z,,0,,,5648.5240001907805,completion,,,,,false,,,,824982.9000000954,824982.8000001907,819317.438,819475.5999999046,819334.276,824828.169,8,400,,,
trial,html.Screen,4_110_0,2023-09-09T16:17:59.152Z,,0,3,,5267.430999904638,response,ISIC_6985859.JPG,6,ISIC_3877643.JPG,ISIC_6985859.JPG,false,1,keypress(m),500,830095.6999998093,830095.5999999046,824811.396,824983,824828.169,829954.735,8,400,11,,ISIC_3877643.JPG
break,html.Screen,4_110_1,2023-09-09T16:17:59.152Z,,0,,,NaN,,,,,,false,,,,830096.0999999046,830096,,830095.8000001907,,829954.735,8,400,,,
break_continue,html.Screen,4_110_2,2023-09-09T16:17:59.153Z,,0,,,NaN,,,,,,false,,,,830096.3000001907,830096.1999998093,,830096.1999998093,,829954.735,8,400,,,
sequence,flow.Sequence,4_110,2023-09-09T16:17:59.153Z,,0,,,5268.030999809271,completion,,,,,false,,,,830096.4000000954,830096.1999998093,824811.396,824982.9000000954,824828.169,829954.735,8,400,,,
trial,html.Screen,4_111_0,2023-09-09T16:18:03.002Z,,0,3,,3991.3649999046465,response,ISIC_3981101.JPG,4,ISIC_3281565.JPG,ISIC_3281565.JPG,false,0,keypress(z),500,833946.1999998093,833946.0999999046,829938.12,830096.4000000954,829954.735,833795.534,8,400,12,,ISIC_3981101.JPG
break,html.Screen,4_111_1,2023-09-09T16:18:03.003Z,,0,,,NaN,,,,,,false,,,,833946.5999999046,833946.5999999046,,833946.3000001907,,833795.534,8,400,,,
break_continue,html.Screen,4_111_2,2023-09-09T16:18:03.003Z,,0,,,NaN,,,,,,false,,,,833946.6999998093,833946.6999998093,,833946.6999998093,,833795.534,8,400,,,
sequence,flow.Sequence,4_111,2023-09-09T16:18:03.003Z,,0,,,3991.964999809279,completion,,,,,false,,,,833946.9000000954,833946.6999998093,829938.12,830096.4000000954,829954.735,833795.534,8,400,,,
trial,html.Screen,4_112_0,2023-09-09T16:18:09.101Z,,0,3,,6249.16599980928,response,ISIC_1883330.JPG,5,ISIC_8649055.JPG,ISIC_8649055.JPG,false,0,keypress(z),500,840044.9000000954,840044.6999998093,833778.853,833947,833795.534,839890.77,8,400,13,,ISIC_1883330.JPG
break,html.Screen,4_112_1,2023-09-09T16:18:09.102Z,,0,,,NaN,,,,,,false,,,,840045.3000001907,840045.1999998093,,840044.9000000954,,839890.77,8,400,,,
break_continue,html.Screen,4_112_2,2023-09-09T16:18:09.102Z,,0,,,NaN,,,,,,false,,,,840045.4000000954,840045.4000000954,,840045.3000001907,,839890.77,8,400,,,
sequence,flow.Sequence,4_112,2023-09-09T16:18:09.102Z,,0,,,6249.866000095382,completion,,,,,false,,,,840045.5999999046,840045.4000000954,833778.853,833946.9000000954,833795.534,839890.77,8,400,,,
trial,html.Screen,4_113_0,2023-09-09T16:18:13.414Z,,0,3,,4466.530000190716,response,ISIC_0178370.JPG,5,ISIC_0000551.JPG,ISIC_0000551.JPG,false,0,keypress(z),500,844357.4000000954,844357.3000001907,839874.071,840045.5999999046,839890.77,844215.812,8,400,14,,ISIC_0178370.JPG
break,html.Screen,4_113_1,2023-09-09T16:18:13.414Z,,0,,,NaN,,,,,,false,,,,844357.8000001907,844357.6999998093,,844357.5,,844215.812,8,400,,,
break_continue,html.Screen,4_113_2,2023-09-09T16:18:13.414Z,,0,,,NaN,,,,,,false,,,,844358,844358,,844357.8000001907,,844215.812,8,400,,,
sequence,flow.Sequence,4_113,2023-09-09T16:18:13.414Z,,0,,,4467.229999999981,completion,,,,,false,,,,844358.0999999046,844358,839874.071,840045.5999999046,839890.77,844215.812,8,400,,,
trial,html.Screen,4_114_0,2023-09-09T16:18:19.932Z,,0,3,,6659.887999809231,response,ISIC_0013644.JPG,5,ISIC_5555700.JPG,ISIC_0013644.JPG,false,1,keypress(m),500,850875.9000000954,850875.6999998093,844199.122,844358.0999999046,844215.812,850711.767,8,400,15,,ISIC_5555700.JPG
break,html.Screen,4_114_1,2023-09-09T16:18:19.933Z,,0,,,NaN,,,,,,false,,,,850876.4000000954,850876.1999998093,,850875.9000000954,,850711.767,8,400,,,
break_continue,html.Screen,4_114_2,2023-09-09T16:18:19.933Z,,0,,,NaN,,,,,,false,,,,850876.5,850876.5,,850876.4000000954,,850711.767,8,400,,,
sequence,flow.Sequence,4_114,2023-09-09T16:18:19.933Z,,0,,,6660.6879999999655,completion,,,,,false,,,,850876.5999999046,850876.5,844199.122,844358.0999999046,844215.812,850711.767,8,400,,,
trial,html.Screen,4_115_0,2023-09-09T16:18:26.015Z,,0,3,,6245.33299990464,response,ISIC_0010789.JPG,6,ISIC_0065062.JPG,ISIC_0065062.JPG,false,0,keypress(z),500,856957.1999998093,856957.0999999046,850695.067,850876.5999999046,850711.767,856807.03,8,400,16,,ISIC_0010789.JPG
break,html.Screen,4_115_1,2023-09-09T16:18:26.015Z,,0,,,NaN,,,,,,false,,,,856957.5999999046,856957.5,,856957.4000000954,,856807.03,8,400,,,
break_continue,html.Screen,4_115_2,2023-09-09T16:18:26.015Z,,0,,,NaN,,,,,,false,,,,856957.8000001907,856957.8000001907,,856957.6999998093,,856807.03,8,400,,,
sequence,flow.Sequence,4_115,2023-09-09T16:18:26.015Z,,0,,,6246.033000190742,completion,,,,,false,,,,856957.9000000954,856957.8000001907,850695.067,850876.5999999046,850711.767,856807.03,8,400,,,
trial,html.Screen,4_116_0,2023-09-09T16:18:30.992Z,,0,3,,5127.8700000953395,response,ISIC_0064472.JPG,5,ISIC_0013967.JPG,ISIC_0064472.JPG,false,1,keypress(m),500,861935,861934.9000000954,856790.514,856957.9000000954,856807.03,861766.63,8,400,17,,ISIC_0013967.JPG
break,html.Screen,4_116_1,2023-09-09T16:18:30.993Z,,0,,,NaN,,,,,,false,,,,861935.5,861935.4000000954,,861935.0999999046,,861766.63,8,400,,,
break_continue,html.Screen,4_116_2,2023-09-09T16:18:30.993Z,,0,,,NaN,,,,,,false,,,,861935.8000001907,861935.5999999046,,861935.5999999046,,861766.63,8,400,,,
sequence,flow.Sequence,4_116,2023-09-09T16:18:30.993Z,,0,,,5128.569999904605,completion,,,,,false,,,,861935.8000001907,861935.5999999046,856790.514,856957.9000000954,856807.03,861766.63,8,400,,,
trial,html.Screen,4_117_0,2023-09-09T16:18:37.673Z,,0,3,,6848.770000095363,response,ISIC_2383335.JPG,4,ISIC_0028986.JPG,ISIC_0028986.JPG,false,0,keypress(z),500,868615.5999999046,868615.4000000954,861750.097,861935.9000000954,861766.63,868446.284,8,400,18,,ISIC_2383335.JPG
break,html.Screen,4_117_1,2023-09-09T16:18:37.674Z,,0,,,NaN,,,,,,false,,,,868616.6999998093,868616.5,,868615.9000000954,,868446.284,8,400,,,
break_continue,html.Screen,4_117_2,2023-09-09T16:18:37.675Z,,0,,,NaN,,,,,,false,,,,868617.9000000954,868617.6999998093,,868617.1999998093,,868446.284,8,400,,,
sequence,flow.Sequence,4_117,2023-09-09T16:18:37.676Z,,0,,,6851.0699998092605,completion,,,,,false,,,,868618.3000001907,868617.6999998093,861750.097,861935.9000000954,861766.63,868446.284,8,400,,,
trial,html.Screen,4_118_0,2023-09-09T16:18:41.534Z,,0,3,,4030.6160000953823,response,ISIC_0944273.JPG,6,ISIC_3973431.JPG,ISIC_0944273.JPG,false,1,keypress(m),500,872477,872476.9000000954,868429.699,868618.5,868446.284,872337.305,8,400,19,,ISIC_3973431.JPG
break,html.Screen,4_118_1,2023-09-09T16:18:41.535Z,,0,,,NaN,,,,,,false,,,,872477.5,872477.4000000954,,872477.0999999046,,872337.305,8,400,,,
break_continue,html.Screen,4_118_2,2023-09-09T16:18:41.535Z,,0,,,NaN,,,,,,false,,,,872477.6999998093,872477.6999998093,,872477.5,,872337.305,8,400,,,
sequence,flow.Sequence,4_118,2023-09-09T16:18:41.535Z,,0,,,4031.41599980928,completion,,,,,false,,,,872477.8000001907,872477.6999998093,868429.699,868618.4000000954,868446.284,872337.305,8,400,,,
trial,html.Screen,4_119_0,2023-09-09T16:18:46.280Z,,0,3,,4884.995000190684,response,ISIC_4277207.JPG,6,ISIC_5525765.JPG,ISIC_5525765.JPG,false,0,keypress(z),500,877222.5,877222.3000001907,872320.646,872477.8000001907,872337.305,877063.109,8,400,20,,ISIC_4277207.JPG
break,html.Screen,4_119_1,2023-09-09T16:18:46.280Z,,0,,,NaN,,,,,,false,,,,877222.8000001907,877222.6999998093,,877222.5,,877063.109,8,400,,,
break_continue,html.Screen,4_119_2,2023-09-09T16:18:46.280Z,,0,,,NaN,,,,,,false,,,,877223,877223,,877222.9000000954,,877063.109,8,400,,,
sequence,flow.Sequence,4_119,2023-09-09T16:18:46.280Z,,0,,,4885.694999999949,completion,,,,,false,,,,877223.0999999046,877223,872320.646,872477.8000001907,872337.305,877063.109,8,400,,,
trial,html.Screen,4_120_0,2023-09-09T16:18:52.729Z,,0,3,,6608.890999999945,response,ISIC_0013136.JPG,5,ISIC_4187627.JPG,ISIC_0013136.JPG,false,1,keypress(m),500,883672.0999999046,883672,877046.564,877223.3000001907,877063.109,883509.111,8,400,21,,ISIC_4187627.JPG
break,html.Screen,4_120_1,2023-09-09T16:18:52.730Z,,0,,,NaN,,,,,,false,,,,883672.6999998093,883672.5,,883672.3000001907,,883509.111,8,400,,,
break_continue,html.Screen,4_120_2,2023-09-09T16:18:52.730Z,,0,,,NaN,,,,,,false,,,,883672.9000000954,883672.9000000954,,883672.8000001907,,883509.111,8,400,,,
sequence,flow.Sequence,4_120,2023-09-09T16:18:52.730Z,,0,,,6609.7910000953125,completion,,,,,false,,,,883673,883672.9000000954,877046.564,877223.1999998093,877063.109,883509.111,8,400,,,
trial,html.Screen,4_121_0,2023-09-09T16:18:58.672Z,,0,3,,6105.3889999999665,response,ISIC_0054317.JPG,5,ISIC_9267202.JPG,ISIC_0054317.JPG,false,1,keypress(m),500,889614.6999998093,889614.5,883492.24,883673.0999999046,883509.111,889470.633,8,400,22,,ISIC_9267202.JPG
break,html.Screen,4_121_1,2023-09-09T16:18:58.672Z,,0,,,NaN,,,,,,false,,,,889615.0999999046,889614.9000000954,,889614.6999998093,,889470.633,8,400,,,
break_continue,html.Screen,4_121_2,2023-09-09T16:18:58.673Z,,0,,,NaN,,,,,,false,,,,889615.1999998093,889615.1999998093,,889615.0999999046,,889470.633,8,400,,,
sequence,flow.Sequence,4_121,2023-09-09T16:18:58.673Z,,0,,,6106.088999809232,completion,,,,,false,,,,889615.3000001907,889615.1999998093,883492.24,883673,883509.111,889470.633,8,400,,,
trial,html.Screen,4_122_0,2023-09-09T16:19:03.625Z,,0,3,,5096.466999904602,response,ISIC_0031972.JPG,5,ISIC_4382115.JPG,ISIC_0031972.JPG,false,1,keypress(m),500,894567.3000001907,894567.0999999046,889453.914,889615.4000000954,889470.633,894413.602,8,400,23,,ISIC_4382115.JPG
break,html.Screen,4_122_1,2023-09-09T16:19:03.625Z,,0,,,NaN,,,,,,false,,,,894568.0999999046,894567.6999998093,,894567.4000000954,,894413.602,8,400,,,
break_continue,html.Screen,4_122_2,2023-09-09T16:19:03.626Z,,0,,,NaN,,,,,,false,,,,894568.3000001907,894568.1999998093,,894568.1999998093,,894413.602,8,400,,,
sequence,flow.Sequence,4_122,2023-09-09T16:19:03.626Z,,0,,,5097.566999809234,completion,,,,,false,,,,894568.4000000954,894568.1999998093,889453.914,889615.3000001907,889470.633,894413.602,8,400,,,
trial,html.Screen,4_123_0,2023-09-09T16:19:08.402Z,,0,3,,4930.798000095412,response,ISIC_0070689.JPG,5,ISIC_9511832.JPG,ISIC_0070689.JPG,false,1,keypress(m),500,899344.9000000954,899344.4000000954,894396.803,894568.5,894413.602,899189.509,8,400,24,,ISIC_9511832.JPG
break,html.Screen,4_123_1,2023-09-09T16:19:08.404Z,,0,,,NaN,,,,,,false,,,,899347,899346.5,,899345.5,,899189.509,8,400,,,
break_continue,html.Screen,4_123_2,2023-09-09T16:19:08.405Z,,0,,,NaN,,,,,,false,,,,899348,899347.6999998093,,899347.3000001907,,899189.509,8,400,,,
sequence,flow.Sequence,4_123,2023-09-09T16:19:08.406Z,,0,,,4934.09799980931,completion,,,,,false,,,,899348.4000000954,899347.6999998093,894396.803,894568.5,894413.602,899189.509,8,400,,,
trial,html.Screen,4_124_0,2023-09-09T16:19:14.968Z,,0,3,,6721.391000095406,response,ISIC_0975874.JPG,6,ISIC_9076021.JPG,ISIC_0975874.JPG,false,1,keypress(m),500,905911,905910.9000000954,899172.834,899348.6999998093,899189.509,905752.316,8,400,25,,ISIC_9076021.JPG
break,html.Screen,4_124_1,2023-09-09T16:19:14.969Z,,0,,,NaN,,,,,,false,,,,905911.6999998093,905911.5,,905911.1999998093,,905752.316,8,400,,,
break_continue,html.Screen,4_124_2,2023-09-09T16:19:14.969Z,,0,,,NaN,,,,,,false,,,,905912,905911.9000000954,,905911.8000001907,,905752.316,8,400,,,
sequence,flow.Sequence,4_124,2023-09-09T16:19:14.969Z,,0,,,6722.391000095406,completion,,,,,false,,,,905912.0999999046,905911.9000000954,899172.834,899348.5999999046,899189.509,905752.316,8,400,,,
trial,html.Screen,4_125_0,2023-09-09T16:19:20.764Z,,0,3,,5953.684000000008,response,ISIC_0069595.JPG,4,ISIC_7853136.JPG,ISIC_0069595.JPG,false,1,keypress(m),500,911706.1999998093,911706,905735.678,905912.1999998093,905752.316,911546.878,8,400,26,,ISIC_7853136.JPG
break,html.Screen,4_125_1,2023-09-09T16:19:20.764Z,,0,,,NaN,,,,,,false,,,,911706.5999999046,911706.5999999046,,911706.3000001907,,911546.878,8,400,,,
break_continue,html.Screen,4_125_2,2023-09-09T16:19:20.764Z,,0,,,NaN,,,,,,false,,,,911706.9000000954,911706.8000001907,,911706.5999999046,,911546.878,8,400,,,
sequence,flow.Sequence,4_125,2023-09-09T16:19:20.764Z,,0,,,5954.484000190743,completion,,,,,false,,,,911706.9000000954,911706.8000001907,905735.678,905912.0999999046,905752.316,911546.878,8,400,,,
trial,html.Screen,4_126_0,2023-09-09T16:19:25.567Z,,0,3,,4961.621999999974,response,ISIC_0068217.JPG,5,ISIC_1534391.JPG,ISIC_0068217.JPG,false,1,keypress(m),500,916508.5999999046,916508.5,911530.216,911707,911546.878,916339.519,8,400,27,,ISIC_1534391.JPG
