sender,sender_type,sender_id,timestamp,meta,,blockNo,condition,duration,ended_on,img_left,img_reveal,img_right,loser,practice,response,response_action,selection_duration,time_commit,time_end,time_render,time_run,time_show,time_switch,total_blocks,total_trials,trialNo,url,winner
informed_consent,html.Screen,0,2023-09-08T19:47:24.644Z,"{""labjs_version"":""20.2.4"",""labjs_build"":{""flavor"":""development"",""commit"":""f5b4a49f956347addd546a832a3327688c2c0fef""},""location"":""https://labjs.felixhenninger.com/api/labjs_preview/index.html"",""userAgent"":""Mozilla/5.0 (Windows NT 10.0; Win64; x64) AppleWebKit/537.36 (KHTML, like Gecko) Chrome/116.0.0.0 Safari/537.36"",""platform"":""Win32"",""language"":""en-AU"",""locale"":""en-US"",""timeZone"":""America/Chicago"",""timezoneOffset"":300,""screen_width"":1680,""screen_height"":1050,""scroll_width"":1296,""scroll_height"":688,""window_innerWidth"":1296,""window_innerHeight"":736,""devicePixelRatio"":1}",,,,993.3339998569488,response,,,,,,consent,click button,,1394.2999999523163,1393.3999998569489,49.369,446.59999990463257,400.066,1351.92,,,,{},
Welcome,html.Screen,1,2023-09-08T19:48:57.009Z,,,,asymmetry,92405.77999980927,response,,,,,,continue,click button,,93758.5,93757.69999980927,1335.321,1394.3999998569489,1351.92,93731.682,,,,,
trial,html.Screen,2_0_0,2023-09-08T19:49:08.514Z,,0,0,,11522.577000000005,timeout,ISIC_0069348.JPG,,ISIC_6997061.JPG,,true,,,500,105264.09999990463,105263.89999985695,93715.051,93758.59999990463,93731.682,105254.259,1,6,1,,
sequence,flow.Sequence,2_0,2023-09-08T19:49:08.515Z,,0,,,11532.217999856948,completion,,,,,true,,,,105264.5,105263.89999985695,93715.051,93758.59999990463,93731.682,105254.259,1,6,,,
trial,html.Screen,2_1_0,2023-09-08T19:49:16.068Z,,0,0,,7563.340999904627,response,ISIC_0057368.JPG,,ISIC_0009529.JPG,ISIC_0057368.JPG,true,1,keypress(m),500,112818,112817.59999990463,105237.452,105264.59999990463,105254.259,112785.456,1,6,2,,ISIC_0009529.JPG
sequence,flow.Sequence,2_1,2023-09-08T19:49:16.069Z,,0,,,7563.340999904627,completion,,,,,true,,,,112818.59999990463,112817.59999990463,105237.452,105264.59999990463,105254.259,112785.456,1,6,,,
trial,html.Screen,2_2_0,2023-09-08T19:49:23.000Z,,0,0,,6964.443999856943,response,ISIC_0064954.JPG,,ISIC_9758671.JPG,ISIC_0064954.JPG,true,1,keypress(m),500,119750,119749.89999985695,112768.823,112819,112785.456,119715.542,1,6,3,,ISIC_9758671.JPG
sequence,flow.Sequence,2_2,2023-09-08T19:49:23.000Z,,0,,,6964.443999856943,completion,,,,,true,,,,119750.09999990463,119749.89999985695,112768.823,112818.89999985695,112785.456,119715.542,1,6,,,
trial,html.Screen,2_3_0,2023-09-08T19:49:25.743Z,,0,0,,2777.0579999046313,response,ISIC_0005785.JPG,,ISIC_0000080.JPG,ISIC_0005785.JPG,true,1,keypress(m),500,122492.69999980927,122492.59999990463,119698.845,119750.19999980927,119715.542,122454.228,1,6,4,,ISIC_0000080.JPG
sequence,flow.Sequence,2_3,2023-09-08T19:49:25.743Z,,0,,,2777.0579999046313,completion,,,,,true,,,,122492.89999985695,122492.59999990463,119698.845,119750.19999980927,119715.542,122454.228,1,6,,,
trial,html.Screen,2_4_0,2023-09-08T19:49:29.360Z,,0,0,,3655.37199990463,response,ISIC_7944028.JPG,,ISIC_5390060.JPG,ISIC_7944028.JPG,true,1,keypress(m),500,126109.69999980927,126109.59999990463,122437.533,122493,122454.228,126078.038,1,6,5,,ISIC_5390060.JPG
sequence,flow.Sequence,2_4,2023-09-08T19:49:29.360Z,,0,,,3655.37199990463,completion,,,,,true,,,,126109.89999985695,126109.59999990463,122437.533,122493,122454.228,126078.038,1,6,,,
trial,html.Screen,2_5_0,2023-09-08T19:49:33.169Z,,0,0,,3840.6619998092647,response,ISIC_0010188.JPG,,ISIC_0794216.JPG,ISIC_0794216.JPG,true,0,keypress(z),500,129918.79999995232,129918.69999980927,126061.476,126109.89999985695,126078.038,129885.359,1,6,6,,ISIC_0010188.JPG
sequence,flow.Sequence,2_5,2023-09-08T19:49:33.169Z,,0,,,3840.6619998092647,completion,,,,,true,,,,129919,129918.69999980927,126061.476,126109.89999985695,126078.038,129885.359,1,6,,,
loop,flow.Loop,2,2023-09-08T19:49:33.169Z,,,,,36187.017999809264,completion,,,,,true,,,,129919.09999990463,129918.69999980927,93715.051,93758.59999990463,93731.682,129885.359,1,6,,,
exp_instructions,html.Screen,3,2023-09-08T19:49:41.419Z,,,,,8283.040999856952,response,,,,,,continue,keypress(Space),,138168.79999995232,138168.39999985695,129868.672,129919.09999990463,129885.359,138151.422,,,,,
trial,html.Screen,4_0_0,2023-09-08T19:49:47.796Z,,0,1,,6394.277999809274,response,ISIC_0055086.JPG,5,ISIC_3501997.JPG,ISIC_3501997.JPG,false,0,keypress(z),500,144545.89999985695,144545.69999980927,138134.744,138168.89999985695,138151.422,144513.814,8,400,1,,ISIC_0055086.JPG
break,html.Screen,4_0_1,2023-09-08T19:49:47.797Z,,0,,,NaN,,,,,,false,,,,144546.69999980927,144546.39999985695,,144546.09999990463,,144513.814,8,400,,,
break_continue,html.Screen,4_0_2,2023-09-08T19:49:47.797Z,,0,,,NaN,,,,,,false,,,,144547,144546.79999995232,,144546.79999995232,,144513.814,8,400,,,
sequence,flow.Sequence,4_0,2023-09-08T19:49:47.797Z,,0,,,6395.377999952325,completion,,,,,false,,,,144547,144546.79999995232,138134.744,138168.89999985695,138151.422,144513.814,8,400,,,
trial,html.Screen,4_1_0,2023-09-08T19:49:52.519Z,,0,1,,4754.885999809252,response,ISIC_0063742.JPG,6,ISIC_4786412.JPG,ISIC_4786412.JPG,false,0,keypress(z),500,149269,149268.69999980927,144497.17,144547.09999990463,144513.814,149239.787,8,400,2,,ISIC_0063742.JPG
break,html.Screen,4_1_1,2023-09-08T19:49:52.521Z,,0,,,NaN,,,,,,false,,,,149270.89999985695,149270.19999980927,,149269.59999990463,,149239.787,8,400,,,
break_continue,html.Screen,4_1_2,2023-09-08T19:49:52.522Z,,0,,,NaN,,,,,,false,,,,149271.69999980927,149271.5,,149271.19999980927,,149239.787,8,400,,,
sequence,flow.Sequence,4_1,2023-09-08T19:49:52.522Z,,0,,,4757.685999999987,completion,,,,,false,,,,149272,149271.5,144497.17,144547.09999990463,144513.814,149239.787,8,400,,,
trial,html.Screen,4_2_0,2023-09-08T19:49:59.389Z,,0,1,,6898.812999904621,response,ISIC_0028065.JPG,6,ISIC_0000152.JPG,ISIC_0000152.JPG,false,0,keypress(z),500,156138.79999995232,156138.59999990463,149223.153,149272.19999980927,149239.787,156103.035,8,400,3,,ISIC_0028065.JPG
break,html.Screen,4_2_1,2023-09-08T19:49:59.389Z,,0,,,NaN,,,,,,false,,,,156139.09999990463,156139,,156138.89999985695,,156103.035,8,400,,,
break_continue,html.Screen,4_2_2,2023-09-08T19:49:59.389Z,,0,,,NaN,,,,,,false,,,,156139.19999980927,156139.19999980927,,156139.09999990463,,156103.035,8,400,,,
sequence,flow.Sequence,4_2,2023-09-08T19:49:59.390Z,,0,,,6899.412999809254,completion,,,,,false,,,,156139.39999985695,156139.19999980927,149223.153,149272.19999980927,149239.787,156103.035,8,400,,,
trial,html.Screen,4_3_0,2023-09-08T19:50:04.224Z,,0,1,,4870.4649999999965,response,ISIC_4296456.JPG,4,ISIC_2255411.JPG,ISIC_4296456.JPG,false,1,keypress(m),500,160973.79999995232,160973.5,156086.375,156139.39999985695,156103.035,160945.844,8,400,4,,ISIC_2255411.JPG
break,html.Screen,4_3_1,2023-09-08T19:50:04.225Z,,0,,,NaN,,,,,,false,,,,160975,160974.69999980927,,160974.19999980927,,160945.844,8,400,,,
break_continue,html.Screen,4_3_2,2023-09-08T19:50:04.226Z,,0,,,NaN,,,,,,false,,,,160975.5,160975.29999995232,,160975.09999990463,,160945.844,8,400,,,
sequence,flow.Sequence,4_3,2023-09-08T19:50:04.226Z,,0,,,4872.264999952313,completion,,,,,false,,,,160975.79999995232,160975.29999995232,156086.375,156139.39999985695,156103.035,160945.844,8,400,,,
trial,html.Screen,4_4_0,2023-09-08T19:50:09.751Z,,0,1,,5554.155999999988,response,ISIC_0027472.JPG,5,ISIC_8409262.JPG,ISIC_0027472.JPG,false,1,keypress(m),500,166500.79999995232,166500,160929.144,160976,160945.844,166473.289,8,400,5,,ISIC_8409262.JPG
break,html.Screen,4_4_1,2023-09-08T19:50:09.753Z,,0,,,NaN,,,,,,false,,,,166502.69999980927,166502.19999980927,,166501.39999985695,,166473.289,8,400,,,
break_continue,html.Screen,4_4_2,2023-09-08T19:50:09.754Z,,0,,,NaN,,,,,,false,,,,166503.39999985695,166503.19999980927,,166503,,166473.289,8,400,,,
sequence,flow.Sequence,4_4,2023-09-08T19:50:09.754Z,,0,,,5557.355999809253,completion,,,,,false,,,,166503.79999995232,166503.19999980927,160929.144,160976,160945.844,166473.289,8,400,,,
trial,html.Screen,4_5_0,2023-09-08T19:50:16.702Z,,0,1,,6977.810999904643,response,ISIC_0033239.JPG,5,ISIC_0014229.JPG,ISIC_0033239.JPG,false,1,keypress(m),500,173451.39999985695,173451.09999990463,166456.626,166504.19999980927,166473.289,173420.104,8,400,6,,ISIC_0014229.JPG
break,html.Screen,4_5_1,2023-09-08T19:50:16.703Z,,0,,,NaN,,,,,,false,,,,173452.19999980927,173452,,173451.69999980927,,173420.104,8,400,,,
break_continue,html.Screen,4_5_2,2023-09-08T19:50:16.703Z,,0,,,NaN,,,,,,false,,,,173452.69999980927,173452.59999990463,,173452.39999985695,,173420.104,8,400,,,
sequence,flow.Sequence,4_5,2023-09-08T19:50:16.704Z,,0,,,6979.310999904643,completion,,,,,false,,,,173452.89999985695,173452.59999990463,166456.626,166504,166473.289,173420.104,8,400,,,
trial,html.Screen,4_6_0,2023-09-08T19:50:22.902Z,,0,1,,6231.195999952324,response,ISIC_0062301.JPG,5,ISIC_3376976.JPG,ISIC_0062301.JPG,false,1,keypress(m),500,179651.39999985695,179651.29999995232,173403.411,173453.09999990463,173420.104,179615.44,8,400,7,,ISIC_3376976.JPG
break,html.Screen,4_6_1,2023-09-08T19:50:22.902Z,,0,,,NaN,,,,,,false,,,,179651.69999980927,179651.59999990463,,179651.5,,179615.44,8,400,,,
break_continue,html.Screen,4_6_2,2023-09-08T19:50:22.903Z,,0,,,NaN,,,,,,false,,,,179651.79999995232,179651.79999995232,,179651.79999995232,,179615.44,8,400,,,
sequence,flow.Sequence,4_6,2023-09-08T19:50:22.903Z,,0,,,6231.695999952324,completion,,,,,false,,,,179651.89999985695,179651.79999995232,173403.411,173453,173420.104,179615.44,8,400,,,
trial,html.Screen,4_7_0,2023-09-08T19:50:31.368Z,,0,1,,8501.959999856947,response,ISIC_0067601.JPG,5,ISIC_0072642.JPG,ISIC_0072642.JPG,false,0,keypress(z),500,188117.5,188117.39999985695,179598.941,179651.89999985695,179615.44,188081.926,8,400,8,,ISIC_0067601.JPG
break,html.Screen,4_7_1,2023-09-08T19:50:31.368Z,,0,,,NaN,,,,,,false,,,,188117.89999985695,188117.69999980927,,188117.59999990463,,188081.926,8,400,,,
break_continue,html.Screen,4_7_2,2023-09-08T19:50:31.369Z,,0,,,NaN,,,,,,false,,,,188118,188117.89999985695,,188117.89999985695,,188081.926,8,400,,,
sequence,flow.Sequence,4_7,2023-09-08T19:50:31.369Z,,0,,,8502.459999856947,completion,,,,,false,,,,188118.09999990463,188117.89999985695,179598.941,179651.89999985695,179615.44,188081.926,8,400,,,
trial,html.Screen,4_8_0,2023-09-08T19:50:36.778Z,,0,1,,5445.273999809258,response,ISIC_0011648.JPG,4,ISIC_0031586.JPG,ISIC_0031586.JPG,false,0,keypress(z),500,193527.39999985695,193527.19999980927,188065.273,188118.09999990463,188081.926,193492.643,8,400,9,,ISIC_0011648.JPG
break,html.Screen,4_8_1,2023-09-08T19:50:36.779Z,,0,,,NaN,,,,,,false,,,,193528.09999990463,193527.89999985695,,193527.59999990463,,193492.643,8,400,,,
break_continue,html.Screen,4_8_2,2023-09-08T19:50:36.779Z,,0,,,NaN,,,,,,false,,,,193528.39999985695,193528.39999985695,,193528.19999980927,,193492.643,8,400,,,
sequence,flow.Sequence,4_8,2023-09-08T19:50:36.779Z,,0,,,5446.473999856942,completion,,,,,false,,,,193528.59999990463,193528.39999985695,188065.273,188118.09999990463,188081.926,193492.643,8,400,,,
trial,html.Screen,4_9_0,2023-09-08T19:50:42.493Z,,0,1,,5749.756999856938,response,ISIC_0011437.JPG,4,ISIC_0027798.JPG,ISIC_0027798.JPG,false,0,keypress(z),500,199242.39999985695,199242.39999985695,193475.906,193528.59999990463,193492.643,199203.622,8,400,10,,ISIC_0011437.JPG
break,html.Screen,4_9_1,2023-09-08T19:50:42.493Z,,0,,,NaN,,,,,,false,,,,199242.79999995232,199242.69999980927,,199242.5,,199203.622,8,400,,,
break_continue,html.Screen,4_9_2,2023-09-08T19:50:42.494Z,,0,,,NaN,,,,,,false,,,,199242.89999985695,199242.79999995232,,199242.79999995232,,199203.622,8,400,,,
sequence,flow.Sequence,4_9,2023-09-08T19:50:42.494Z,,0,,,5750.156999952305,completion,,,,,false,,,,199242.89999985695,199242.79999995232,193475.906,193528.59999990463,193492.643,199203.622,8,400,,,
trial,html.Screen,4_10_0,2023-09-08T19:50:48.735Z,,0,1,,6281.077999809262,response,ISIC_7899041.JPG,5,ISIC_4853597.JPG,ISIC_4853597.JPG,false,0,keypress(z),500,205484.79999995232,205484.69999980927,199186.985,199243,199203.622,205449.053,8,400,11,,ISIC_7899041.JPG
break,html.Screen,4_10_1,2023-09-08T19:50:48.736Z,,0,,,NaN,,,,,,false,,,,205485.29999995232,205485.09999990463,,205484.89999985695,,205449.053,8,400,,,
break_continue,html.Screen,4_10_2,2023-09-08T19:50:48.736Z,,0,,,NaN,,,,,,false,,,,205485.5,205485.39999985695,,205485.29999995232,,205449.053,8,400,,,
sequence,flow.Sequence,4_10,2023-09-08T19:50:48.736Z,,0,,,6281.777999856946,completion,,,,,false,,,,205485.59999990463,205485.39999985695,199186.985,199243,199203.622,205449.053,8,400,,,
trial,html.Screen,4_11_0,2023-09-08T19:50:55.506Z,,0,1,,6805.746999952302,response,ISIC_5625747.JPG,5,ISIC_0055265.JPG,ISIC_5625747.JPG,false,1,keypress(m),500,212255,212254.79999995232,205432.376,205485.59999990463,205449.053,212229.025,8,400,12,,ISIC_0055265.JPG
break,html.Screen,4_11_1,2023-09-08T19:50:55.506Z,,0,,,NaN,,,,,,false,,,,212255.5,212255.39999985695,,212255.19999980927,,212229.025,8,400,,,
break_continue,html.Screen,4_11_2,2023-09-08T19:50:55.507Z,,0,,,NaN,,,,,,false,,,,212255.79999995232,212255.69999980927,,212255.69999980927,,212229.025,8,400,,,
sequence,flow.Sequence,4_11,2023-09-08T19:50:55.507Z,,0,,,6806.646999809251,completion,,,,,false,,,,212256,212255.69999980927,205432.376,205485.59999990463,205449.053,212229.025,8,400,,,
trial,html.Screen,4_12_0,2023-09-08T19:51:01.785Z,,0,1,,6305.374999856955,response,ISIC_8629635.JPG,5,ISIC_0027479.JPG,ISIC_0027479.JPG,false,0,keypress(z),500,218534.59999990463,218534.39999985695,212212.396,212256,212229.025,218507.861,8,400,13,,ISIC_8629635.JPG
break,html.Screen,4_12_1,2023-09-08T19:51:01.786Z,,0,,,NaN,,,,,,false,,,,218534.89999985695,218534.89999985695,,218534.69999980927,,218507.861,8,400,,,
break_continue,html.Screen,4_12_2,2023-09-08T19:51:01.786Z,,0,,,NaN,,,,,,false,,,,218535.19999980927,218535.09999990463,,218535,,218507.861,8,400,,,
sequence,flow.Sequence,4_12,2023-09-08T19:51:01.786Z,,0,,,6306.074999904638,completion,,,,,false,,,,218535.29999995232,218535.09999990463,212212.396,212256,212229.025,218507.861,8,400,,,
trial,html.Screen,4_13_0,2023-09-08T19:51:08.123Z,,0,1,,6364.838999809261,response,ISIC_3685448.JPG,5,ISIC_0030194.JPG,ISIC_3685448.JPG,false,1,keypress(m),500,224872.79999995232,224872.69999980927,218491.124,218535.5,218507.861,224836.798,8,400,14,,ISIC_0030194.JPG
break,html.Screen,4_13_1,2023-09-08T19:51:08.124Z,,0,,,NaN,,,,,,false,,,,224873.09999990463,224873.09999990463,,224872.89999985695,,224836.798,8,400,,,
break_continue,html.Screen,4_13_2,2023-09-08T19:51:08.124Z,,0,,,NaN,,,,,,false,,,,224873.29999995232,224873.29999995232,,224873.29999995232,,224836.798,8,400,,,
sequence,flow.Sequence,4_13,2023-09-08T19:51:08.124Z,,0,,,6365.438999952312,completion,,,,,false,,,,224873.39999985695,224873.29999995232,218491.124,218535.39999985695,218507.861,224836.798,8,400,,,
trial,html.Screen,4_14_0,2023-09-08T19:51:13.684Z,,0,1,,5596.20199999999,response,ISIC_0071771.JPG,5,ISIC_5808758.JPG,ISIC_5808758.JPG,false,0,keypress(z),500,230433.19999980927,230433,224820.126,224873.39999985695,224836.798,230414.413,8,400,15,,ISIC_0071771.JPG
break,html.Screen,4_14_1,2023-09-08T19:51:13.684Z,,0,,,NaN,,,,,,false,,,,230433.39999985695,230433.39999985695,,230433.29999995232,,230414.413,8,400,,,
break_continue,html.Screen,4_14_2,2023-09-08T19:51:13.684Z,,0,,,NaN,,,,,,false,,,,230433.79999995232,230433.69999980927,,230433.5,,230414.413,8,400,,,
sequence,flow.Sequence,4_14,2023-09-08T19:51:13.684Z,,0,,,5596.901999809255,completion,,,,,false,,,,230433.79999995232,230433.69999980927,224820.126,224873.39999985695,224836.798,230414.413,8,400,,,
trial,html.Screen,4_15_0,2023-09-08T19:51:20.198Z,,0,1,,6532.686999904632,response,ISIC_2078053.JPG,5,ISIC_0865706.JPG,ISIC_0865706.JPG,false,0,keypress(z),500,236947.19999980927,236947.09999990463,230397.633,230433.89999985695,230414.413,236910.454,8,400,16,,ISIC_2078053.JPG
break,html.Screen,4_15_1,2023-09-08T19:51:20.198Z,,0,,,NaN,,,,,,false,,,,236947.59999990463,236947.5,,236947.29999995232,,236910.454,8,400,,,
break_continue,html.Screen,4_15_2,2023-09-08T19:51:20.199Z,,0,,,NaN,,,,,,false,,,,236948,236947.79999995232,,236947.69999980927,,236910.454,8,400,,,
sequence,flow.Sequence,4_15,2023-09-08T19:51:20.199Z,,0,,,6533.386999952316,completion,,,,,false,,,,236948,236947.79999995232,230397.633,230433.89999985695,230414.413,236910.454,8,400,,,
trial,html.Screen,4_16_0,2023-09-08T19:51:25.897Z,,0,1,,5735.546000000002,response,ISIC_0012672.JPG,5,ISIC_0004352.JPG,ISIC_0004352.JPG,false,0,keypress(z),500,242646.39999985695,242646,236893.596,236948.69999980927,236910.454,242621.509,8,400,17,,ISIC_0012672.JPG
break,html.Screen,4_16_1,2023-09-08T19:51:25.898Z,,0,,,NaN,,,,,,false,,,,242647.59999990463,242647.29999995232,,242646.89999985695,,242621.509,8,400,,,
break_continue,html.Screen,4_16_2,2023-09-08T19:51:25.900Z,,0,,,NaN,,,,,,false,,,,242648.79999995232,242648.39999985695,,242648.19999980927,,242621.509,8,400,,,
sequence,flow.Sequence,4_16,2023-09-08T19:51:25.900Z,,0,,,5737.945999856951,completion,,,,,false,,,,242649.09999990463,242648.39999985695,236893.596,236948.69999980927,236910.454,242621.509,8,400,,,
trial,html.Screen,4_17_0,2023-09-08T19:51:30.886Z,,0,1,,5013.790999952325,response,ISIC_2739449.JPG,4,ISIC_5822017.JPG,ISIC_5822017.JPG,false,0,keypress(z),500,247635.59999990463,247635.29999995232,242604.732,242649.29999995232,242621.509,247597.761,8,400,18,,ISIC_2739449.JPG
break,html.Screen,4_17_1,2023-09-08T19:51:30.887Z,,0,,,NaN,,,,,,false,,,,247636,247635.89999985695,,247635.59999990463,,247597.761,8,400,,,
break_continue,html.Screen,4_17_2,2023-09-08T19:51:30.887Z,,0,,,NaN,,,,,,false,,,,247636.29999995232,247636.19999980927,,247636.09999990463,,247597.761,8,400,,,
sequence,flow.Sequence,4_17,2023-09-08T19:51:30.887Z,,0,,,5014.690999809274,completion,,,,,false,,,,247636.39999985695,247636.19999980927,242604.732,242649.29999995232,242621.509,247597.761,8,400,,,
trial,html.Screen,4_18_0,2023-09-08T19:51:38.989Z,,0,1,,8140.4389998092665,response,ISIC_0026049.JPG,5,ISIC_9005623.JPG,ISIC_0026049.JPG,false,1,keypress(m),500,255738.5,255738.19999980927,247581.271,247636.5,247597.761,255696.866,8,400,19,,ISIC_9005623.JPG
break,html.Screen,4_18_1,2023-09-08T19:51:38.990Z,,0,,,NaN,,,,,,false,,,,255739,255739,,255738.69999980927,,255696.866,8,400,,,
break_continue,html.Screen,4_18_2,2023-09-08T19:51:38.990Z,,0,,,NaN,,,,,,false,,,,255739.59999990463,255739.5,,255739.29999995232,,255696.866,8,400,,,
sequence,flow.Sequence,4_18,2023-09-08T19:51:38.991Z,,0,,,8141.739000000001,completion,,,,,false,,,,255739.69999980927,255739.5,247581.271,247636.5,247597.761,255696.866,8,400,,,
trial,html.Screen,4_19_0,2023-09-08T19:51:46.161Z,,0,1,,7212.53399985694,response,ISIC_8510848.JPG,6,ISIC_6672654.JPG,ISIC_8510848.JPG,false,1,keypress(m),500,262909.69999980927,262909.39999985695,255680.284,255739.89999985695,255696.866,262877.488,8,400,20,,ISIC_6672654.JPG
break,html.Screen,4_19_1,2023-09-08T19:51:46.161Z,,0,,,NaN,,,,,,false,,,,262910.5,262910.2999999523,,262910,,262877.488,8,400,,,
break_continue,html.Screen,4_19_2,2023-09-08T19:51:46.162Z,,0,,,NaN,,,,,,false,,,,262910.89999985695,262910.7999999523,,262910.69999980927,,262877.488,8,400,,,
sequence,flow.Sequence,4_19,2023-09-08T19:51:46.162Z,,0,,,7213.933999952307,completion,,,,,false,,,,262911.09999990463,262910.7999999523,255680.284,255739.89999985695,255696.866,262877.488,8,400,,,
trial,html.Screen,4_20_0,2023-09-08T19:51:52.677Z,,0,1,,6548.411999856937,response,ISIC_0061158.JPG,6,ISIC_0058647.JPG,ISIC_0061158.JPG,false,1,keypress(m),500,269426.09999990463,269425.89999985695,262860.841,262911.2999999523,262877.488,269390.142,8,400,21,,ISIC_0058647.JPG
break,html.Screen,4_20_1,2023-09-08T19:51:52.677Z,,0,,,NaN,,,,,,false,,,,269426.59999990463,269426.39999985695,,269426.19999980927,,269390.142,8,400,,,
break_continue,html.Screen,4_20_2,2023-09-08T19:51:52.678Z,,0,,,NaN,,,,,,false,,,,269427.19999980927,269427,,269426.89999985695,,269390.142,8,400,,,
sequence,flow.Sequence,4_20,2023-09-08T19:51:52.678Z,,0,,,6549.511999999988,completion,,,,,false,,,,269427.39999985695,269427,262860.841,262911.19999980927,262877.488,269390.142,8,400,,,
trial,html.Screen,4_21_0,2023-09-08T19:51:59.961Z,,0,1,,7319.95799990464,response,ISIC_5634573.JPG,4,ISIC_0070137.JPG,ISIC_0070137.JPG,false,0,keypress(z),500,276710.19999980927,276710.09999990463,269373.48,269427.59999990463,269390.142,276671.037,8,400,22,,ISIC_5634573.JPG
break,html.Screen,4_21_1,2023-09-08T19:51:59.962Z,,0,,,NaN,,,,,,false,,,,276710.7999999523,276710.59999990463,,276710.39999985695,,276671.037,8,400,,,
break_continue,html.Screen,4_21_2,2023-09-08T19:51:59.962Z,,0,,,NaN,,,,,,false,,,,276711.09999990463,276711.09999990463,,276710.89999985695,,276671.037,8,400,,,
sequence,flow.Sequence,4_21,2023-09-08T19:51:59.962Z,,0,,,7320.95799990464,completion,,,,,false,,,,276711.2999999523,276711.09999990463,269373.48,269427.59999990463,269390.142,276671.037,8,400,,,
trial,html.Screen,4_22_0,2023-09-08T19:52:07.181Z,,0,1,,7258.862999856938,response,ISIC_0069257.JPG,5,ISIC_9538004.JPG,ISIC_9538004.JPG,false,0,keypress(z),500,283930.39999985695,283929.89999985695,276654.399,276711.39999985695,276671.037,283901.832,8,400,23,,ISIC_0069257.JPG
break,html.Screen,4_22_1,2023-09-08T19:52:07.183Z,,0,,,NaN,,,,,,false,,,,283932.2999999523,283931.89999985695,,283931.2999999523,,283901.832,8,400,,,
break_continue,html.Screen,4_22_2,2023-09-08T19:52:07.184Z,,0,,,NaN,,,,,,false,,,,283933,283932.69999980927,,283932.59999990463,,283901.832,8,400,,,
sequence,flow.Sequence,4_22,2023-09-08T19:52:07.184Z,,0,,,7261.662999809254,completion,,,,,false,,,,283933.2999999523,283932.69999980927,276654.399,276711.2999999523,276671.037,283901.832,8,400,,,
trial,html.Screen,4_23_0,2023-09-08T19:52:11.938Z,,0,1,,4785.567999856954,response,ISIC_8635849.JPG,4,ISIC_3152541.JPG,ISIC_3152541.JPG,false,0,keypress(z),500,288687.5,288687.39999985695,283885.171,283933.5,283901.832,288661.061,8,400,24,,ISIC_8635849.JPG
break,html.Screen,4_23_1,2023-09-08T19:52:11.939Z,,0,,,NaN,,,,,,false,,,,288688,288687.89999985695,,288687.59999990463,,288661.061,8,400,,,
break_continue,html.Screen,4_23_2,2023-09-08T19:52:11.939Z,,0,,,NaN,,,,,,false,,,,288688.39999985695,288688.2999999523,,288688.19999980927,,288661.061,8,400,,,
sequence,flow.Sequence,4_23,2023-09-08T19:52:11.939Z,,0,,,4786.467999952321,completion,,,,,false,,,,288688.5,288688.2999999523,283885.171,283933.5,283901.832,288661.061,8,400,,,
trial,html.Screen,4_24_0,2023-09-08T19:52:18.821Z,,0,1,,6908.738999952329,response,ISIC_0031674.JPG,4,ISIC_0009882.JPG,ISIC_0009882.JPG,false,0,keypress(z),500,295569.89999985695,295569.7999999523,288644.326,288689.09999990463,288661.061,295541.16,8,400,25,,ISIC_0031674.JPG
break,html.Screen,4_24_1,2023-09-08T19:52:18.822Z,,0,,,NaN,,,,,,false,,,,295570.59999990463,295570.39999985695,,295570.19999980927,,295541.16,8,400,,,
break_continue,html.Screen,4_24_2,2023-09-08T19:52:18.822Z,,0,,,NaN,,,,,,false,,,,295571,295570.89999985695,,295570.7999999523,,295541.16,8,400,,,
sequence,flow.Sequence,4_24,2023-09-08T19:52:18.822Z,,0,,,6909.838999856962,completion,,,,,false,,,,295571.19999980927,295570.89999985695,288644.326,288688.5,288661.061,295541.16,8,400,,,
trial,html.Screen,4_25_0,2023-09-08T19:52:25.530Z,,0,1,,6737.7399998569745,response,ISIC_2757355.JPG,5,ISIC_9720044.JPG,ISIC_9720044.JPG,false,0,keypress(z),500,302279,302278.89999985695,295524.35,295571.2999999523,295541.16,302255.339,8,400,26,,ISIC_2757355.JPG
break,html.Screen,4_25_1,2023-09-08T19:52:25.531Z,,0,,,NaN,,,,,,false,,,,302279.5,302279.39999985695,,302279.19999980927,,302255.339,8,400,,,
break_continue,html.Screen,4_25_2,2023-09-08T19:52:25.531Z,,0,,,NaN,,,,,,false,,,,302279.89999985695,302279.69999980927,,302279.69999980927,,302255.339,8,400,,,
sequence,flow.Sequence,4_25,2023-09-08T19:52:25.531Z,,0,,,6738.539999809291,completion,,,,,false,,,,302280,302279.69999980927,295524.35,295571.2999999523,295541.16,302255.339,8,400,,,
trial,html.Screen,4_26_0,2023-09-08T19:52:30.461Z,,0,1,,4954.560999856971,response,ISIC_0028152.JPG,5,ISIC_0024292.JPG,ISIC_0024292.JPG,false,0,keypress(z),500,307209.89999985695,307209.89999985695,302220.814,302280.09999990463,302255.339,307180.354,8,400,27,,ISIC_0028152.JPG
break,html.Screen,4_26_1,2023-09-08T19:52:30.461Z,,0,,,NaN,,,,,,false,,,,307210.19999980927,307210.09999990463,,307210,,307180.354,8,400,,,
break_continue,html.Screen,4_26_2,2023-09-08T19:52:30.461Z,,0,,,NaN,,,,,,false,,,,307210.39999985695,307210.39999985695,,307210.19999980927,,307180.354,8,400,,,
sequence,flow.Sequence,4_26,2023-09-08T19:52:30.461Z,,0,,,4955.060999856971,completion,,,,,false,,,,307210.5,307210.39999985695,302220.814,302280.09999990463,302255.339,307180.354,8,400,,,
trial,html.Screen,4_27_0,2023-09-08T19:52:37.008Z,,0,1,,6576.345999809273,response,ISIC_7010552.JPG,6,ISIC_0014189.JPG,ISIC_7010552.JPG,false,1,keypress(m),500,313756.89999985695,313756.69999980927,307163.701,307210.5,307180.354,313726.436,8,400,28,,ISIC_0014189.JPG
break,html.Screen,4_27_1,2023-09-08T19:52:37.008Z,,0,,,NaN,,,,,,false,,,,313757.19999980927,313757.09999990463,,313757,,313726.436,8,400,,,
break_continue,html.Screen,4_27_2,2023-09-08T19:52:37.008Z,,0,,,NaN,,,,,,false,,,,313757.2999999523,313757.2999999523,,313757.2999999523,,313726.436,8,400,,,
sequence,flow.Sequence,4_27,2023-09-08T19:52:37.009Z,,0,,,6576.945999952324,completion,,,,,false,,,,313757.39999985695,313757.2999999523,307163.701,307210.5,307180.354,313726.436,8,400,,,
trial,html.Screen,4_28_0,2023-09-08T19:52:42.756Z,,0,1,,5778.663999904646,response,ISIC_1200689.JPG,5,ISIC_0030150.JPG,ISIC_1200689.JPG,false,1,keypress(m),500,319505.2999999523,319505.09999990463,313709.787,313757.5,313726.436,319471.026,8,400,29,,ISIC_0030150.JPG
break,html.Screen,4_28_1,2023-09-08T19:52:42.757Z,,0,,,NaN,,,,,,false,,,,319505.69999980927,319505.5,,319505.39999985695,,319471.026,8,400,,,
break_continue,html.Screen,4_28_2,2023-09-08T19:52:42.757Z,,0,,,NaN,,,,,,false,,,,319505.89999985695,319505.7999999523,,319505.69999980927,,319471.026,8,400,,,
sequence,flow.Sequence,4_28,2023-09-08T19:52:42.757Z,,0,,,5779.363999952329,completion,,,,,false,,,,319506,319505.7999999523,313709.787,313757.5,313726.436,319471.026,8,400,,,
trial,html.Screen,4_29_0,2023-09-08T19:52:49.353Z,,0,1,,6631.173999809253,response,ISIC_2394780.JPG,5,ISIC_0003122.JPG,ISIC_0003122.JPG,false,0,keypress(z),500,326102.39999985695,326102.19999980927,319454.375,319506.09999990463,319471.026,326067.149,8,400,30,,ISIC_2394780.JPG
break,html.Screen,4_29_1,2023-09-08T19:52:49.354Z,,0,,,NaN,,,,,,false,,,,326102.7999999523,326102.69999980927,,326102.5,,326067.149,8,400,,,
break_continue,html.Screen,4_29_2,2023-09-08T19:52:49.354Z,,0,,,NaN,,,,,,false,,,,326102.89999985695,326102.89999985695,,326102.7999999523,,326067.149,8,400,,,
sequence,flow.Sequence,4_29,2023-09-08T19:52:49.354Z,,0,,,6631.873999856936,completion,,,,,false,,,,326103,326102.89999985695,319454.375,319506,319471.026,326067.149,8,400,,,
trial,html.Screen,4_30_0,2023-09-08T19:52:54.643Z,,0,1,,5324.950999904657,response,ISIC_0025619.JPG,6,ISIC_0472513.JPG,ISIC_0472513.JPG,false,0,keypress(z),500,331392.19999980927,331392.09999990463,326050.646,326103.09999990463,326067.149,331360.864,8,400,31,,ISIC_0025619.JPG
break,html.Screen,4_30_1,2023-09-08T19:52:54.644Z,,0,,,NaN,,,,,,false,,,,331392.5,331392.39999985695,,331392.2999999523,,331360.864,8,400,,,
break_continue,html.Screen,4_30_2,2023-09-08T19:52:54.644Z,,0,,,NaN,,,,,,false,,,,331392.59999990463,331392.59999990463,,331392.59999990463,,331360.864,8,400,,,
sequence,flow.Sequence,4_30,2023-09-08T19:52:54.644Z,,0,,,5325.450999904657,completion,,,,,false,,,,331392.7999999523,331392.59999990463,326050.646,326103,326067.149,331360.864,8,400,,,
trial,html.Screen,4_31_0,2023-09-08T19:53:02.533Z,,0,1,,7920.5359998569475,response,ISIC_6180870.JPG,4,ISIC_0804420.JPG,ISIC_6180870.JPG,false,1,keypress(m),500,339281.5,339281.39999985695,331344.081,331392.7999999523,331360.864,339242.807,8,400,32,,ISIC_0804420.JPG
break,html.Screen,4_31_1,2023-09-08T19:53:02.533Z,,0,,,NaN,,,,,,false,,,,339282,339281.89999985695,,339281.69999980927,,339242.807,8,400,,,
break_continue,html.Screen,4_31_2,2023-09-08T19:53:02.533Z,,0,,,NaN,,,,,,false,,,,339282.2999999523,339282.19999980927,,339282.09999990463,,339242.807,8,400,,,
sequence,flow.Sequence,4_31,2023-09-08T19:53:02.533Z,,0,,,7921.335999809264,completion,,,,,false,,,,339282.2999999523,339282.19999980927,331344.081,331392.7999999523,331360.864,339242.807,8,400,,,
trial,html.Screen,4_32_0,2023-09-08T19:53:06.759Z,,0,1,,4264.792999904661,response,ISIC_3372750.JPG,5,ISIC_9568138.JPG,ISIC_3372750.JPG,false,1,keypress(m),500,343507.7999999523,343507.59999990463,339226.172,339282.5,339242.807,343467.63,8,400,33,,ISIC_9568138.JPG
break,html.Screen,4_32_1,2023-09-08T19:53:06.759Z,,0,,,NaN,,,,,,false,,,,343508.09999990463,343508,,343507.7999999523,,343467.63,8,400,,,
break_continue,html.Screen,4_32_2,2023-09-08T19:53:06.759Z,,0,,,NaN,,,,,,false,,,,343508.39999985695,343508.19999980927,,343508.19999980927,,343467.63,8,400,,,
sequence,flow.Sequence,4_32,2023-09-08T19:53:06.759Z,,0,,,4265.3929998092935,completion,,,,,false,,,,343508.5,343508.19999980927,339226.172,339282.5,339242.807,343467.63,8,400,,,
trial,html.Screen,4_33_0,2023-09-08T19:53:13.761Z,,0,1,,7042.269999856944,response,ISIC_6790780.JPG,5,ISIC_1358527.JPG,ISIC_1358527.JPG,false,0,keypress(z),500,350510.19999980927,350509.89999985695,343451.078,343508.5,343467.63,350481.605,8,400,34,,ISIC_6790780.JPG
break,html.Screen,4_33_1,2023-09-08T19:53:13.762Z,,0,,,NaN,,,,,,false,,,,350510.89999985695,350510.69999980927,,350510.39999985695,,350481.605,8,400,,,
break_continue,html.Screen,4_33_2,2023-09-08T19:53:13.763Z,,0,,,NaN,,,,,,false,,,,350511.5,350511.39999985695,,350511.19999980927,,350481.605,8,400,,,
sequence,flow.Sequence,4_33,2023-09-08T19:53:13.763Z,,0,,,7043.769999856944,completion,,,,,false,,,,350511.69999980927,350511.39999985695,343451.078,343508.5,343467.63,350481.605,8,400,,,
trial,html.Screen,4_34_0,2023-09-08T19:53:19.210Z,,0,1,,5476.895000000019,response,ISIC_9572761.JPG,5,ISIC_0098784.JPG,ISIC_9572761.JPG,false,1,keypress(m),500,355958.69999980927,355958.5,350464.78,350511.7999999523,350481.605,355925.272,8,400,35,,ISIC_0098784.JPG
break,html.Screen,4_34_1,2023-09-08T19:53:19.211Z,,0,,,NaN,,,,,,false,,,,355959.2999999523,355959.19999980927,,355958.89999985695,,355925.272,8,400,,,
break_continue,html.Screen,4_34_2,2023-09-08T19:53:19.211Z,,0,,,NaN,,,,,,false,,,,355959.69999980927,355959.59999990463,,355959.5,,355925.272,8,400,,,
sequence,flow.Sequence,4_34,2023-09-08T19:53:19.211Z,,0,,,5477.994999904651,completion,,,,,false,,,,355959.89999985695,355959.59999990463,350464.78,350511.7999999523,350481.605,355925.272,8,400,,,
trial,html.Screen,4_35_0,2023-09-08T19:53:25.236Z,,0,1,,6059.127999856952,response,ISIC_0007619.JPG,4,ISIC_9125409.JPG,ISIC_0007619.JPG,false,1,keypress(m),500,361984.59999990463,361984.39999985695,355908.71,355960,355925.272,361953.911,8,400,36,,ISIC_9125409.JPG
break,html.Screen,4_35_1,2023-09-08T19:53:25.237Z,,0,,,NaN,,,,,,false,,,,361985.39999985695,361985.09999990463,,361984.89999985695,,361953.911,8,400,,,
break_continue,html.Screen,4_35_2,2023-09-08T19:53:25.237Z,,0,,,NaN,,,,,,false,,,,361985.7999999523,361985.69999980927,,361985.5,,361953.911,8,400,,,
sequence,flow.Sequence,4_35,2023-09-08T19:53:25.237Z,,0,,,6060.427999809268,completion,,,,,false,,,,361985.89999985695,361985.69999980927,355908.71,355960,355925.272,361953.911,8,400,,,
trial,html.Screen,4_36_0,2023-09-08T19:53:31.255Z,,0,1,,6049.588999999978,response,ISIC_7438013.JPG,5,ISIC_2523776.JPG,ISIC_2523776.JPG,false,0,keypress(z),500,368003.7999999523,368003.5,361937.08,361986,361953.911,367965.366,8,400,37,,ISIC_7438013.JPG
break,html.Screen,4_36_1,2023-09-08T19:53:31.256Z,,0,,,NaN,,,,,,false,,,,368004.59999990463,368004.39999985695,,368004,,367965.366,8,400,,,
break_continue,html.Screen,4_36_2,2023-09-08T19:53:31.256Z,,0,,,NaN,,,,,,false,,,,368005,368004.7999999523,,368004.69999980927,,367965.366,8,400,,,
sequence,flow.Sequence,4_36,2023-09-08T19:53:31.256Z,,0,,,6050.888999952294,completion,,,,,false,,,,368005.09999990463,368004.7999999523,361937.08,361986,361953.911,367965.366,8,400,,,
trial,html.Screen,4_37_0,2023-09-08T19:53:39.275Z,,0,1,,8058.033999856969,response,ISIC_3518299.JPG,6,ISIC_6828587.JPG,ISIC_3518299.JPG,false,1,keypress(m),500,376023.69999980927,376023.39999985695,367948.809,368005.39999985695,367965.366,375997.776,8,400,38,,ISIC_6828587.JPG
break,html.Screen,4_37_1,2023-09-08T19:53:39.275Z,,0,,,NaN,,,,,,false,,,,376024.2999999523,376024,,376023.7999999523,,375997.776,8,400,,,
break_continue,html.Screen,4_37_2,2023-09-08T19:53:39.276Z,,0,,,NaN,,,,,,false,,,,376024.69999980927,376024.59999990463,,376024.39999985695,,375997.776,8,400,,,
sequence,flow.Sequence,4_37,2023-09-08T19:53:39.276Z,,0,,,8059.233999904653,completion,,,,,false,,,,376024.7999999523,376024.59999990463,367948.809,368005.2999999523,367965.366,375997.776,8,400,,,
trial,html.Screen,4_38_0,2023-09-08T19:53:45.902Z,,0,1,,6652.82399990462,response,ISIC_0031013.JPG,6,ISIC_0056330.JPG,ISIC_0056330.JPG,false,0,keypress(z),500,382650.89999985695,382650.59999990463,375981.056,376024.89999985695,375997.776,382610.635,8,400,39,,ISIC_0031013.JPG
break,html.Screen,4_38_1,2023-09-08T19:53:45.903Z,,0,,,NaN,,,,,,false,,,,382652,382651.7999999523,,382651.2999999523,,382610.635,8,400,,,
break_continue,html.Screen,4_38_2,2023-09-08T19:53:45.904Z,,0,,,NaN,,,,,,false,,,,382652.69999980927,382652.5,,382652.2999999523,,382610.635,8,400,,,
sequence,flow.Sequence,4_38,2023-09-08T19:53:45.904Z,,0,,,6654.723999999987,completion,,,,,false,,,,382653,382652.5,375981.056,376024.89999985695,375997.776,382610.635,8,400,,,
trial,html.Screen,4_39_0,2023-09-08T19:53:52.580Z,,0,1,,6718.2649998569395,response,ISIC_0011057.JPG,6,ISIC_0029868.JPG,ISIC_0011057.JPG,false,1,keypress(m),500,389329,389328.89999985695,382593.871,382653.7999999523,382610.635,389290.129,8,400,40,,ISIC_0029868.JPG
break,html.Screen,4_39_1,2023-09-08T19:53:52.581Z,,0,,,NaN,,,,,,false,,,,389329.59999990463,389329.5,,389329.19999980927,,389290.129,8,400,,,
break_continue,html.Screen,4_39_2,2023-09-08T19:53:52.581Z,,0,,,NaN,,,,,,false,,,,389329.89999985695,389329.69999980927,,389329.69999980927,,389290.129,8,400,,,
sequence,flow.Sequence,4_39,2023-09-08T19:53:52.581Z,,0,,,6719.064999809256,completion,,,,,false,,,,389330,389329.69999980927,382593.871,382653.59999990463,382610.635,389290.129,8,400,,,
trial,html.Screen,4_40_0,2023-09-08T19:53:57.613Z,,0,1,,5071.7709998569335,response,ISIC_4798962.JPG,4,ISIC_0031203.JPG,ISIC_4798962.JPG,false,1,keypress(m),500,394362,394361.89999985695,389273.724,389330.09999990463,389290.129,394333.333,8,400,41,,ISIC_0031203.JPG
break,html.Screen,4_40_1,2023-09-08T19:53:57.614Z,,0,,,NaN,,,,,,false,,,,394362.5,394362.39999985695,,394362.19999980927,,394333.333,8,400,,,
break_continue,html.Screen,4_40_2,2023-09-08T19:53:57.614Z,,0,,,NaN,,,,,,false,,,,394362.69999980927,394362.59999990463,,394362.59999990463,,394333.333,8,400,,,
sequence,flow.Sequence,4_40,2023-09-08T19:53:57.614Z,,0,,,5072.470999904617,completion,,,,,false,,,,394362.7999999523,394362.59999990463,389273.724,389330.09999990463,389290.129,394333.333,8,400,,,
trial,html.Screen,4_41_0,2023-09-08T19:54:04.784Z,,0,1,,7199.667000000016,response,ISIC_0010398.JPG,5,ISIC_0347984.JPG,ISIC_0010398.JPG,false,1,keypress(m),500,401533.09999990463,401533,394316.633,394362.89999985695,394333.333,401497.323,8,400,42,,ISIC_0347984.JPG
break,html.Screen,4_41_1,2023-09-08T19:54:04.785Z,,0,,,NaN,,,,,,false,,,,401533.5,401533.39999985695,,401533.19999980927,,401497.323,8,400,,,
break_continue,html.Screen,4_41_2,2023-09-08T19:54:04.785Z,,0,,,NaN,,,,,,false,,,,401533.69999980927,401533.59999990463,,401533.59999990463,,401497.323,8,400,,,
sequence,flow.Sequence,4_41,2023-09-08T19:54:04.785Z,,0,,,7200.266999904648,completion,,,,,false,,,,401533.7999999523,401533.59999990463,394316.633,394362.89999985695,394333.333,401497.323,8,400,,,
trial,html.Screen,4_42_0,2023-09-08T19:54:12.537Z,,0,1,,7788.177000000025,response,ISIC_4899386.JPG,6,ISIC_0065378.JPG,ISIC_4899386.JPG,false,1,keypress(m),500,409285.59999990463,409285.5,401480.59,401534,401497.323,409245.64,8,400,43,,ISIC_0065378.JPG
break,html.Screen,4_42_1,2023-09-08T19:54:12.537Z,,0,,,NaN,,,,,,false,,,,409285.7999999523,409285.7999999523,,409285.69999980927,,409245.64,8,400,,,
break_continue,html.Screen,4_42_2,2023-09-08T19:54:12.537Z,,0,,,NaN,,,,,,false,,,,409286,409286,,409285.89999985695,,409245.64,8,400,,,
sequence,flow.Sequence,4_42,2023-09-08T19:54:12.537Z,,0,,,7788.677000000025,completion,,,,,false,,,,409286.09999990463,409286,401480.59,401533.89999985695,401497.323,409245.64,8,400,,,
trial,html.Screen,4_43_0,2023-09-08T19:54:19.374Z,,0,1,,6876.359999999986,response,ISIC_0069193.JPG,5,ISIC_7562175.JPG,ISIC_7562175.JPG,false,0,keypress(z),500,416122.19999980927,416122,409228.994,409286.09999990463,409245.64,416092.419,8,400,44,,ISIC_0069193.JPG
break,html.Screen,4_43_1,2023-09-08T19:54:19.374Z,,0,,,NaN,,,,,,false,,,,416123,416122.69999980927,,416122.5,,416092.419,8,400,,,
break_continue,html.Screen,4_43_2,2023-09-08T19:54:19.375Z,,0,,,NaN,,,,,,false,,,,416123.19999980927,416123.09999990463,,416123,,416092.419,8,400,,,
sequence,flow.Sequence,4_43,2023-09-08T19:54:19.375Z,,0,,,6877.459999904619,completion,,,,,false,,,,416123.19999980927,416123.09999990463,409228.994,409286.09999990463,409245.64,416092.419,8,400,,,
trial,html.Screen,4_44_0,2023-09-08T19:54:23.222Z,,0,1,,3878.180999904638,response,ISIC_5396394.JPG,5,ISIC_1202976.JPG,ISIC_1202976.JPG,false,0,keypress(z),500,419970.7999999523,419970.59999990463,416075.627,416123.2999999523,416092.419,419933.243,8,400,45,,ISIC_5396394.JPG
break,html.Screen,4_44_1,2023-09-08T19:54:23.223Z,,0,,,NaN,,,,,,false,,,,419971.2999999523,419971.19999980927,,419971,,419933.243,8,400,,,
break_continue,html.Screen,4_44_2,2023-09-08T19:54:23.223Z,,0,,,NaN,,,,,,false,,,,419971.5,419971.5,,419971.39999985695,,419933.243,8,400,,,
sequence,flow.Sequence,4_44,2023-09-08T19:54:23.223Z,,0,,,3879.0810000000056,completion,,,,,false,,,,419971.59999990463,419971.5,416075.627,416123.2999999523,416092.419,419933.243,8,400,,,
trial,html.Screen,4_45_0,2023-09-08T19:54:31.561Z,,0,1,,8376.456999809248,response,ISIC_3786438.JPG,5,ISIC_6687927.JPG,ISIC_6687927.JPG,false,0,keypress(z),500,428309.89999985695,428309.69999980927,419916.449,419971.7999999523,419933.243,428282.726,8,400,46,,ISIC_3786438.JPG
break,html.Screen,4_45_1,2023-09-08T19:54:31.562Z,,0,,,NaN,,,,,,false,,,,428310.89999985695,428310.7999999523,,428310.69999980927,,428282.726,8,400,,,
break_continue,html.Screen,4_45_2,2023-09-08T19:54:31.563Z,,0,,,NaN,,,,,,false,,,,428311.09999990463,428311,,428311,,428282.726,8,400,,,
sequence,flow.Sequence,4_45,2023-09-08T19:54:31.563Z,,0,,,8377.756999999983,completion,,,,,false,,,,428311.19999980927,428311,419916.449,419971.7999999523,419933.243,428282.726,8,400,,,
trial,html.Screen,4_46_0,2023-09-08T19:54:37.035Z,,0,1,,5501.173999856925,response,ISIC_0030985.JPG,5,ISIC_7025208.JPG,ISIC_7025208.JPG,false,0,keypress(z),500,433783.89999985695,433783.89999985695,428266.181,428311.19999980927,428282.726,433743.38,8,400,47,,ISIC_0030985.JPG
break,html.Screen,4_46_1,2023-09-08T19:54:37.036Z,,0,,,NaN,,,,,,false,,,,433784.2999999523,433784.09999990463,,433784.09999990463,,433743.38,8,400,,,
break_continue,html.Screen,4_46_2,2023-09-08T19:54:37.036Z,,0,,,NaN,,,,,,false,,,,433784.5,433784.2999999523,,433784.2999999523,,433743.38,8,400,,,
sequence,flow.Sequence,4_46,2023-09-08T19:54:37.036Z,,0,,,5501.573999952292,completion,,,,,false,,,,433784.5,433784.2999999523,428266.181,428311.19999980927,428282.726,433743.38,8,400,,,
trial,html.Screen,4_47_0,2023-09-08T19:54:44.068Z,,0,1,,7073.219999904628,response,ISIC_7266462.JPG,6,ISIC_1200689.JPG,ISIC_1200689.JPG,false,0,keypress(z),500,440817,440816.59999990463,433726.74,433784.5,433743.38,440790.475,8,400,48,,ISIC_7266462.JPG
break,html.Screen,4_47_1,2023-09-08T19:54:44.070Z,,0,,,NaN,,,,,,false,,,,440818.5,440818.09999990463,,440817.2999999523,,440790.475,8,400,,,
break_continue,html.Screen,4_47_2,2023-09-08T19:54:44.071Z,,0,,,NaN,,,,,,false,,,,440819.39999985695,440819.09999990463,,440818.7999999523,,440790.475,8,400,,,
sequence,flow.Sequence,4_47,2023-09-08T19:54:44.071Z,,0,,,7075.719999904628,completion,,,,,false,,,,440819.7999999523,440819.09999990463,433726.74,433784.5,433743.38,440790.475,8,400,,,
trial,html.Screen,4_48_0,2023-09-08T19:54:50.524Z,,0,1,,6481.32499995234,response,ISIC_3764173.JPG,5,ISIC_0071996.JPG,ISIC_3764173.JPG,false,1,keypress(m),500,447272,447271.7999999523,440773.776,440820.19999980927,440790.475,447236.251,8,400,49,,ISIC_0071996.JPG
break,html.Screen,4_48_1,2023-09-08T19:54:50.524Z,,0,,,NaN,,,,,,false,,,,447272.69999980927,447272.5,,447272.2999999523,,447236.251,8,400,,,
break_continue,html.Screen,4_48_2,2023-09-08T19:54:50.525Z,,0,,,NaN,,,,,,false,,,,447273.09999990463,447273,,447272.89999985695,,447236.251,8,400,,,
sequence,flow.Sequence,4_48,2023-09-08T19:54:50.525Z,,0,,,6482.525000000023,completion,,,,,false,,,,447273.2999999523,447273,440773.776,440820,440790.475,447236.251,8,400,,,
trial,html.Screen,4_49_0,2023-09-08T19:54:56.849Z,,0,1,,6361.249000000011,response,ISIC_0502582.JPG,5,ISIC_0025755.JPG,ISIC_0025755.JPG,false,0,keypress(z),500,453597.89999985695,453597.5,447219.621,447273.39999985695,447236.251,453565.386,8,400,50,,ISIC_0502582.JPG
break,html.Screen,4_49_1,2023-09-08T19:55:06.846Z,,0,,,10002.713999999978,timeout,,,,,false,,,,463594.5,463551.342,453548.511,453598.19999980927,453565.386,463568.1,8,400,,,
break_continue,html.Screen,4_49_2,2023-09-08T19:55:07.976Z,,0,,,1152.4000000000233,response,,,,,false,continue,keypress(Space),,464724.19999980927,464720.5,463551.342,463594.69999980927,463568.1,464686.848,8,400,,,
sequence,flow.Sequence,4_49,2023-09-08T19:55:07.976Z,,0,,,17484.24900000001,completion,,,,,false,,,,464724.2999999523,464720.5,447219.621,447273.2999999523,447236.251,464686.848,8,400,,,
trial,html.Screen,4_50_0,2023-09-08T19:55:12.570Z,,0,2,,4631.652000000002,response,ISIC_0010934.JPG,5,ISIC_5152859.JPG,ISIC_5152859.JPG,false,0,keypress(z),500,469318.59999990463,469318.5,464670.238,464724.39999985695,464686.848,469279.171,8,400,1,,ISIC_0010934.JPG
break,html.Screen,4_50_1,2023-09-08T19:55:12.571Z,,0,,,NaN,,,,,,false,,,,469319.19999980927,469319,,469318.7999999523,,469279.171,8,400,,,
break_continue,html.Screen,4_50_2,2023-09-08T19:55:12.571Z,,0,,,NaN,,,,,,false,,,,469319.2999999523,469319.19999980927,,469319.19999980927,,469279.171,8,400,,,
sequence,flow.Sequence,4_50,2023-09-08T19:55:12.571Z,,0,,,4632.351999809267,completion,,,,,false,,,,469319.39999985695,469319.19999980927,464670.238,464724.39999985695,464686.848,469279.171,8,400,,,
trial,html.Screen,4_51_0,2023-09-08T19:55:17.317Z,,0,2,,4785.829000000027,response,ISIC_0060629.JPG,5,ISIC_7562175.JPG,ISIC_7562175.JPG,false,0,keypress(z),500,474065.19999980927,474065,469262.481,469319.5,469279.171,474038.417,8,400,2,,ISIC_0060629.JPG
break,html.Screen,4_51_1,2023-09-08T19:55:17.317Z,,0,,,NaN,,,,,,false,,,,474065.69999980927,474065.59999990463,,474065.39999985695,,474038.417,8,400,,,
break_continue,html.Screen,4_51_2,2023-09-08T19:55:17.318Z,,0,,,NaN,,,,,,false,,,,474066,474066,,474065.7999999523,,474038.417,8,400,,,
sequence,flow.Sequence,4_51,2023-09-08T19:55:17.318Z,,0,,,4786.829000000027,completion,,,,,false,,,,474066.09999990463,474066,469262.481,469319.5,469279.171,474038.417,8,400,,,
trial,html.Screen,4_52_0,2023-09-08T19:55:22.171Z,,0,2,,4880.3829999523,response,ISIC_1264576.JPG,5,ISIC_0027863.JPG,ISIC_1264576.JPG,false,1,keypress(m),500,478919.09999990463,478918.7999999523,474021.904,474066.2999999523,474038.417,478881.227,8,400,3,,ISIC_0027863.JPG
break,html.Screen,4_52_1,2023-09-08T19:55:22.172Z,,0,,,NaN,,,,,,false,,,,478920,478919.7999999523,,478919.2999999523,,478881.227,8,400,,,
break_continue,html.Screen,4_52_2,2023-09-08T19:55:22.172Z,,0,,,NaN,,,,,,false,,,,478920.39999985695,478920.2999999523,,478920.19999980927,,478881.227,8,400,,,
sequence,flow.Sequence,4_52,2023-09-08T19:55:22.172Z,,0,,,4881.8829999523,completion,,,,,false,,,,478920.59999990463,478920.2999999523,474021.904,474066.19999980927,474038.417,478881.227,8,400,,,
trial,html.Screen,4_53_0,2023-09-08T19:55:26.335Z,,0,2,,4201.872999904619,response,ISIC_0024219.JPG,5,ISIC_1226882.JPG,ISIC_1226882.JPG,false,0,keypress(z),500,483083.2999999523,483083.09999990463,478864.607,478921,478881.227,483056.007,8,400,4,,ISIC_0024219.JPG
break,html.Screen,4_53_1,2023-09-08T19:55:26.336Z,,0,,,NaN,,,,,,false,,,,483084.09999990463,483083.7999999523,,483083.5,,483056.007,8,400,,,
break_continue,html.Screen,4_53_2,2023-09-08T19:55:26.336Z,,0,,,NaN,,,,,,false,,,,483084.2999999523,483084.2999999523,,483084.19999980927,,483056.007,8,400,,,
sequence,flow.Sequence,4_53,2023-09-08T19:55:26.336Z,,0,,,4203.072999952303,completion,,,,,false,,,,483084.39999985695,483084.2999999523,478864.607,478921,478881.227,483056.007,8,400,,,
trial,html.Screen,4_54_0,2023-09-08T19:55:31.459Z,,0,2,,5150.792999952333,response,ISIC_8634334.JPG,6,ISIC_0000213.JPG,ISIC_8634334.JPG,false,1,keypress(m),500,488206.89999985695,488206.7999999523,483039.274,483084.59999990463,483056.007,488165.886,8,400,5,,ISIC_0000213.JPG
break,html.Screen,4_54_1,2023-09-08T19:55:31.459Z,,0,,,NaN,,,,,,false,,,,488207.2999999523,488207.19999980927,,488207,,488165.886,8,400,,,
break_continue,html.Screen,4_54_2,2023-09-08T19:55:31.459Z,,0,,,NaN,,,,,,false,,,,488207.5,488207.39999985695,,488207.2999999523,,488165.886,8,400,,,
sequence,flow.Sequence,4_54,2023-09-08T19:55:31.459Z,,0,,,5151.392999856966,completion,,,,,false,,,,488207.59999990463,488207.39999985695,483039.274,483084.59999990463,483056.007,488165.886,8,400,,,
trial,html.Screen,4_55_0,2023-09-08T19:55:36.074Z,,0,2,,4655.614000000001,response,ISIC_6126620.JPG,4,ISIC_0011695.JPG,ISIC_6126620.JPG,false,1,keypress(m),500,492821.89999985695,492821.5,488149.319,488207.7999999523,488165.886,492791.731,8,400,6,,ISIC_0011695.JPG
break,html.Screen,4_55_1,2023-09-08T19:55:36.075Z,,0,,,NaN,,,,,,false,,,,492823.39999985695,492823,,492822.39999985695,,492791.731,8,400,,,
break_continue,html.Screen,4_55_2,2023-09-08T19:55:36.076Z,,0,,,NaN,,,,,,false,,,,492824.09999990463,492823.7999999523,,492823.59999990463,,492791.731,8,400,,,
sequence,flow.Sequence,4_55,2023-09-08T19:55:36.076Z,,0,,,4657.913999952318,completion,,,,,false,,,,492824.2999999523,492823.7999999523,488149.319,488207.69999980927,488165.886,492791.731,8,400,,,
trial,html.Screen,4_56_0,2023-09-08T19:55:43.282Z,,0,2,,7238.568999952287,response,ISIC_0363130.JPG,4,ISIC_9308275.JPG,ISIC_0363130.JPG,false,1,keypress(m),500,500030.39999985695,500030.2999999523,492774.99,492824.5,492791.731,499988.94,8,400,7,,ISIC_9308275.JPG
break,html.Screen,4_56_1,2023-09-08T19:55:43.283Z,,0,,,NaN,,,,,,false,,,,500031,500030.7999999523,,500030.59999990463,,499988.94,8,400,,,
break_continue,html.Screen,4_56_2,2023-09-08T19:55:43.283Z,,0,,,NaN,,,,,,false,,,,500031.2999999523,500031.09999990463,,500031.09999990463,,499988.94,8,400,,,
sequence,flow.Sequence,4_56,2023-09-08T19:55:43.283Z,,0,,,7239.368999904604,completion,,,,,false,,,,500031.5,500031.09999990463,492774.99,492824.39999985695,492791.731,499988.94,8,400,,,
trial,html.Screen,4_57_0,2023-09-08T19:55:47.931Z,,0,2,,4690.059999999998,response,ISIC_0029150.JPG,6,ISIC_0014186.JPG,ISIC_0029150.JPG,false,1,keypress(m),500,504679.39999985695,504679,499972.333,500031.69999980927,499988.94,504648.037,8,400,8,,ISIC_0014186.JPG
break,html.Screen,4_57_1,2023-09-08T19:55:47.932Z,,0,,,NaN,,,,,,false,,,,504680.59999990463,504680.09999990463,,504679.69999980927,,504648.037,8,400,,,
break_continue,html.Screen,4_57_2,2023-09-08T19:55:47.933Z,,0,,,NaN,,,,,,false,,,,504681.09999990463,504680.89999985695,,504680.69999980927,,504648.037,8,400,,,
sequence,flow.Sequence,4_57,2023-09-08T19:55:47.933Z,,0,,,4691.9599998569465,completion,,,,,false,,,,504681.2999999523,504680.89999985695,499972.333,500031.59999990463,499988.94,504648.037,8,400,,,
trial,html.Screen,4_58_0,2023-09-08T19:55:51.845Z,,0,2,,3945.3629998569377,response,ISIC_6052860.JPG,5,ISIC_0033081.JPG,ISIC_6052860.JPG,false,1,keypress(m),500,508593.69999980927,508593.39999985695,504631.292,504681.59999990463,504648.037,508555.626,8,400,9,,ISIC_0033081.JPG
break,html.Screen,4_58_1,2023-09-08T19:55:51.846Z,,0,,,NaN,,,,,,false,,,,508594.7999999523,508594.5,,508594.09999990463,,508555.626,8,400,,,
break_continue,html.Screen,4_58_2,2023-09-08T19:55:51.847Z,,0,,,NaN,,,,,,false,,,,508595.39999985695,508595.09999990463,,508595,,508555.626,8,400,,,
sequence,flow.Sequence,4_58,2023-09-08T19:55:51.847Z,,0,,,3947.0629999046214,completion,,,,,false,,,,508595.69999980927,508595.09999990463,504631.292,504681.5,504648.037,508555.626,8,400,,,
trial,html.Screen,4_59_0,2023-09-08T19:55:57.755Z,,0,2,,5947.27399985696,response,ISIC_0026407.JPG,5,ISIC_5529924.JPG,ISIC_5529924.JPG,false,0,keypress(z),500,514503.19999980927,514502.89999985695,508538.972,508595.89999985695,508555.626,514483.853,8,400,10,,ISIC_0026407.JPG
break,html.Screen,4_59_1,2023-09-08T19:55:57.756Z,,0,,,NaN,,,,,,false,,,,514503.89999985695,514503.59999990463,,514503.2999999523,,514483.853,8,400,,,
break_continue,html.Screen,4_59_2,2023-09-08T19:55:57.756Z,,0,,,NaN,,,,,,false,,,,514504.19999980927,514504.09999990463,,514504,,514483.853,8,400,,,
sequence,flow.Sequence,4_59,2023-09-08T19:55:57.756Z,,0,,,5948.473999904643,completion,,,,,false,,,,514504.39999985695,514504.09999990463,508538.972,508595.7999999523,508555.626,514483.853,8,400,,,
trial,html.Screen,4_60_0,2023-09-08T19:56:04.048Z,,0,2,,6311.9469999523135,response,ISIC_0008636.JPG,4,ISIC_8310944.JPG,ISIC_0008636.JPG,false,1,keypress(m),500,520796,520795.7999999523,514467.184,514504.5,514483.853,520762.797,8,400,11,,ISIC_8310944.JPG
break,html.Screen,4_60_1,2023-09-08T19:56:04.048Z,,0,,,NaN,,,,,,false,,,,520796.2999999523,520796.19999980927,,520796.09999990463,,520762.797,8,400,,,
break_continue,html.Screen,4_60_2,2023-09-08T19:56:04.048Z,,0,,,NaN,,,,,,false,,,,520796.59999990463,520796.5,,520796.39999985695,,520762.797,8,400,,,
sequence,flow.Sequence,4_60,2023-09-08T19:56:04.048Z,,0,,,6312.646999999997,completion,,,,,false,,,,520796.69999980927,520796.5,514467.184,514504.5,514483.853,520762.797,8,400,,,
trial,html.Screen,4_61_0,2023-09-08T19:56:08.562Z,,0,2,,4547.402999809245,response,ISIC_0000441.JPG,5,ISIC_0770920.JPG,ISIC_0770920.JPG,false,0,keypress(z),500,525310.399999857,525310.1999998093,520746.227,520796.7999999523,520762.797,525271.521,8,400,12,,ISIC_0000441.JPG
break,html.Screen,4_61_1,2023-09-08T19:56:08.563Z,,0,,,NaN,,,,,,false,,,,525311,525310.899999857,,525310.5999999046,,525271.521,8,400,,,
break_continue,html.Screen,4_61_2,2023-09-08T19:56:08.563Z,,0,,,NaN,,,,,,false,,,,525311.399999857,525311.2999999523,,525311.0999999046,,525271.521,8,400,,,
sequence,flow.Sequence,4_61,2023-09-08T19:56:08.563Z,,0,,,4548.502999952296,completion,,,,,false,,,,525311.5,525311.2999999523,520746.227,520796.7999999523,520762.797,525271.521,8,400,,,
trial,html.Screen,4_62_0,2023-09-08T19:56:15.463Z,,0,2,,6939.378999856999,response,ISIC_0032790.JPG,4,ISIC_0034316.JPG,ISIC_0032790.JPG,false,1,keypress(m),500,532211.1999998093,532210.899999857,525254.789,525311.6999998093,525271.521,532184.992,8,400,13,,ISIC_0034316.JPG
break,html.Screen,4_62_1,2023-09-08T19:56:15.463Z,,0,,,NaN,,,,,,false,,,,532211.5999999046,532211.5,,532211.399999857,,532184.992,8,400,,,
break_continue,html.Screen,4_62_2,2023-09-08T19:56:15.464Z,,0,,,NaN,,,,,,false,,,,532211.899999857,532211.7999999523,,532211.6999998093,,532184.992,8,400,,,
sequence,flow.Sequence,4_62,2023-09-08T19:56:15.464Z,,0,,,6940.278999952367,completion,,,,,false,,,,532211.899999857,532211.7999999523,525254.789,525311.5999999046,525271.521,532184.992,8,400,,,
trial,html.Screen,4_63_0,2023-09-08T19:56:19.359Z,,0,2,,3922.5080000000307,response,ISIC_0032190.JPG,5,ISIC_0024546.JPG,ISIC_0024546.JPG,false,0,keypress(z),500,536107.6999998093,536107.5,532168.321,532212,532184.992,536075.878,8,400,14,,ISIC_0032190.JPG
break,html.Screen,4_63_1,2023-09-08T19:56:19.360Z,,0,,,NaN,,,,,,false,,,,536108.5,536108.2999999523,,536107.899999857,,536075.878,8,400,,,
break_continue,html.Screen,4_63_2,2023-09-08T19:56:19.361Z,,0,,,NaN,,,,,,false,,,,536108.7999999523,536108.6999998093,,536108.5999999046,,536075.878,8,400,,,
sequence,flow.Sequence,4_63,2023-09-08T19:56:19.361Z,,0,,,3923.707999809296,completion,,,,,false,,,,536109,536108.6999998093,532168.321,532211.899999857,532184.992,536075.878,8,400,,,
trial,html.Screen,4_64_0,2023-09-08T19:56:25.417Z,,0,2,,6089.2219999046065,response,ISIC_0015411.JPG,4,ISIC_5576250.JPG,ISIC_5576250.JPG,false,0,keypress(z),500,542165.2999999523,542165.0999999046,536059.315,536109.1999998093,536075.878,542154.389,8,400,15,,ISIC_0015411.JPG
break,html.Screen,4_64_1,2023-09-08T19:56:25.418Z,,0,,,NaN,,,,,,false,,,,542165.899999857,542165.6999998093,,542165.5,,542154.389,8,400,,,
break_continue,html.Screen,4_64_2,2023-09-08T19:56:25.418Z,,0,,,NaN,,,,,,false,,,,542166.1999998093,542166,,542166,,542154.389,8,400,,,
sequence,flow.Sequence,4_64,2023-09-08T19:56:25.418Z,,0,,,6090.121999999974,completion,,,,,false,,,,542166.2999999523,542166,536059.315,536109.0999999046,536075.878,542154.389,8,400,,,
trial,html.Screen,4_65_0,2023-09-08T19:56:32.380Z,,0,2,,6973.710999904666,response,ISIC_0014190.JPG,5,ISIC_0032516.JPG,ISIC_0014190.JPG,false,1,keypress(m),500,549128.5,549128.0999999046,542137.674,542166.399999857,542154.389,549101.197,8,400,16,,ISIC_0032516.JPG
break,html.Screen,4_65_1,2023-09-08T19:56:32.382Z,,0,,,NaN,,,,,,false,,,,549130.5,549129.5999999046,,549129,,549101.197,8,400,,,
break_continue,html.Screen,4_65_2,2023-09-08T19:56:32.383Z,,0,,,NaN,,,,,,false,,,,549131.6999998093,549131.2999999523,,549130.899999857,,549101.197,8,400,,,
sequence,flow.Sequence,4_65,2023-09-08T19:56:32.384Z,,0,,,6976.91099995235,completion,,,,,false,,,,549132.1999998093,549131.2999999523,542137.674,542166.2999999523,542154.389,549101.197,8,400,,,
trial,html.Screen,4_66_0,2023-09-08T19:56:37.669Z,,0,2,,5315.802999999956,response,ISIC_7349772.JPG,4,ISIC_6377622.JPG,ISIC_6377622.JPG,false,0,keypress(z),500,554417.1999998093,554417,549084.487,549132.7999999523,549101.197,554378.139,8,400,17,,ISIC_7349772.JPG
break,html.Screen,4_66_1,2023-09-08T19:56:37.670Z,,0,,,NaN,,,,,,false,,,,554417.7999999523,554417.6999998093,,554417.399999857,,554378.139,8,400,,,
break_continue,html.Screen,4_66_2,2023-09-08T19:56:37.670Z,,0,,,NaN,,,,,,false,,,,554418.0999999046,554418,,554417.899999857,,554378.139,8,400,,,
sequence,flow.Sequence,4_66,2023-09-08T19:56:37.670Z,,0,,,5316.802999999956,completion,,,,,false,,,,554418.2999999523,554418,549084.487,549132.5999999046,549101.197,554378.139,8,400,,,
trial,html.Screen,4_67_0,2023-09-08T19:56:46.408Z,,0,2,,8777.960999904666,response,ISIC_9239093.JPG,5,ISIC_0070352.JPG,ISIC_9239093.JPG,false,1,keypress(m),500,563156.2999999523,563156.0999999046,554361.521,554418.399999857,554378.139,563128.477,8,400,18,,ISIC_0070352.JPG
break,html.Screen,4_67_1,2023-09-08T19:56:46.409Z,,0,,,NaN,,,,,,false,,,,563157,563156.7999999523,,563156.5,,563128.477,8,400,,,
break_continue,html.Screen,4_67_2,2023-09-08T19:56:46.409Z,,0,,,NaN,,,,,,false,,,,563157.399999857,563157.1999998093,,563157.1999998093,,563128.477,8,400,,,
sequence,flow.Sequence,4_67,2023-09-08T19:56:46.409Z,,0,,,8779.060999809299,completion,,,,,false,,,,563157.6999998093,563157.1999998093,554361.521,554418.2999999523,554378.139,563128.477,8,400,,,
trial,html.Screen,4_68_0,2023-09-08T19:56:51.038Z,,0,2,,4655.523000000045,response,ISIC_9499787.JPG,5,ISIC_2619533.JPG,ISIC_9499787.JPG,false,1,keypress(m),500,567786.0999999046,567784,563111.744,563157.7999999523,563128.477,567770.947,8,400,19,,ISIC_2619533.JPG
break,html.Screen,4_68_1,2023-09-08T19:56:51.039Z,,0,,,NaN,,,,,,false,,,,567787.2999999523,567787,,567786.5,,567770.947,8,400,,,
break_continue,html.Screen,4_68_2,2023-09-08T19:56:51.040Z,,0,,,NaN,,,,,,false,,,,567787.899999857,567787.6999998093,,567787.5,,567770.947,8,400,,,
sequence,flow.Sequence,4_68,2023-09-08T19:56:51.040Z,,0,,,4659.22299980931,completion,,,,,false,,,,567788.1999998093,567787.6999998093,563111.744,563157.7999999523,563128.477,567770.947,8,400,,,
trial,html.Screen,4_69_0,2023-09-08T19:56:55.827Z,,0,2,,4803.8529999522725,response,ISIC_0029574.JPG,5,ISIC_9244393.JPG,ISIC_9244393.JPG,false,0,keypress(z),500,572575.1999998093,572574.7999999523,567737.448,567788.5,567770.947,572546.853,8,400,20,,ISIC_0029574.JPG
break,html.Screen,4_69_1,2023-09-08T19:56:55.828Z,,0,,,NaN,,,,,,false,,,,572576.2999999523,572576.0999999046,,572575.5,,572546.853,8,400,,,
break_continue,html.Screen,4_69_2,2023-09-08T19:56:55.829Z,,0,,,NaN,,,,,,false,,,,572576.7999999523,572576.5999999046,,572576.5,,572546.853,8,400,,,
sequence,flow.Sequence,4_69,2023-09-08T19:56:55.829Z,,0,,,4805.652999904589,completion,,,,,false,,,,572577.1999998093,572576.5999999046,567737.448,567788.399999857,567770.947,572546.853,8,400,,,
trial,html.Screen,4_70_0,2023-09-08T19:57:00.072Z,,0,2,,4273.346999809262,response,ISIC_4129376.JPG,5,ISIC_0027674.JPG,ISIC_4129376.JPG,false,1,keypress(m),500,576820.2999999523,576820.1999998093,572530.169,572577.2999999523,572546.853,576788.392,8,400,21,,ISIC_0027674.JPG
break,html.Screen,4_70_1,2023-09-08T19:57:00.072Z,,0,,,NaN,,,,,,false,,,,576820.6999998093,576820.5999999046,,576820.5,,576788.392,8,400,,,
break_continue,html.Screen,4_70_2,2023-09-08T19:57:00.073Z,,0,,,NaN,,,,,,false,,,,576820.899999857,576820.7999999523,,576820.7999999523,,576788.392,8,400,,,
sequence,flow.Sequence,4_70,2023-09-08T19:57:00.073Z,,0,,,4273.9469999523135,completion,,,,,false,,,,576821,576820.7999999523,572530.169,572577.2999999523,572546.853,576788.392,8,400,,,
trial,html.Screen,4_71_0,2023-09-08T19:57:08.256Z,,0,2,,8215.507999856956,response,ISIC_2977718.JPG,4,ISIC_7266462.JPG,ISIC_2977718.JPG,false,1,keypress(m),500,585004.0999999046,585003.899999857,576771.799,576821,576788.392,584971.03,8,400,22,,ISIC_7266462.JPG
break,html.Screen,4_71_1,2023-09-08T19:57:08.257Z,,0,,,NaN,,,,,,false,,,,585004.7999999523,585004.6999998093,,585004.399999857,,584971.03,8,400,,,
break_continue,html.Screen,4_71_2,2023-09-08T19:57:08.257Z,,0,,,NaN,,,,,,false,,,,585005.0999999046,585005,,585004.899999857,,584971.03,8,400,,,
sequence,flow.Sequence,4_71,2023-09-08T19:57:08.257Z,,0,,,8216.608000000007,completion,,,,,false,,,,585005.2999999523,585005,576771.799,576821,576788.392,584971.03,8,400,,,
trial,html.Screen,4_72_0,2023-09-08T19:57:13.845Z,,0,2,,5622.569999904605,response,ISIC_0030443.JPG,5,ISIC_0014233.JPG,ISIC_0030443.JPG,false,1,keypress(m),500,590593.6999998093,590593.5999999046,584954.454,585005.5,584971.03,590565.2,8,400,23,,ISIC_0014233.JPG
break,html.Screen,4_72_1,2023-09-08T19:57:13.846Z,,0,,,NaN,,,,,,false,,,,590594.1999998093,590594,,590593.899999857,,590565.2,8,400,,,
break_continue,html.Screen,4_72_2,2023-09-08T19:57:13.846Z,,0,,,NaN,,,,,,false,,,,590594.399999857,590594.2999999523,,590594.1999998093,,590565.2,8,400,,,
sequence,flow.Sequence,4_72,2023-09-08T19:57:13.846Z,,0,,,5623.269999952288,completion,,,,,false,,,,590594.5999999046,590594.2999999523,584954.454,585005.399999857,584971.03,590565.2,8,400,,,
trial,html.Screen,4_73_0,2023-09-08T19:57:20.184Z,,0,2,,6366.999999809312,response,ISIC_0034048.JPG,6,ISIC_0033689.JPG,ISIC_0033689.JPG,false,0,keypress(z),500,596932.2999999523,596932.1999998093,590548.485,590594.6999998093,590565.2,596894.159,8,400,24,,ISIC_0034048.JPG
break,html.Screen,4_73_1,2023-09-08T19:57:20.185Z,,0,,,NaN,,,,,,false,,,,596932.6999998093,596932.5999999046,,596932.399999857,,596894.159,8,400,,,
break_continue,html.Screen,4_73_2,2023-09-08T19:57:20.185Z,,0,,,NaN,,,,,,false,,,,596933,596933,,596932.899999857,,596894.159,8,400,,,
sequence,flow.Sequence,4_73,2023-09-08T19:57:20.185Z,,0,,,6367.800000000047,completion,,,,,false,,,,596933.1999998093,596933,590548.485,590594.6999998093,590565.2,596894.159,8,400,,,
trial,html.Screen,4_74_0,2023-09-08T19:57:24.634Z,,0,2,,4488.04099980928,response,ISIC_0066739.JPG,5,ISIC_0029120.JPG,ISIC_0066739.JPG,false,1,keypress(m),500,601382.2999999523,601382.1999998093,596877.548,596933.2999999523,596894.159,601352.801,8,400,25,,ISIC_0029120.JPG
break,html.Screen,4_74_1,2023-09-08T19:57:24.635Z,,0,,,NaN,,,,,,false,,,,601382.5999999046,601382.5,,601382.399999857,,601352.801,8,400,,,
break_continue,html.Screen,4_74_2,2023-09-08T19:57:24.635Z,,0,,,NaN,,,,,,false,,,,601382.6999998093,601382.6999998093,,601382.5999999046,,601352.801,8,400,,,
sequence,flow.Sequence,4_74,2023-09-08T19:57:24.635Z,,0,,,4488.54099980928,completion,,,,,false,,,,601382.7999999523,601382.6999998093,596877.548,596933.1999998093,596894.159,601352.801,8,400,,,
trial,html.Screen,4_75_0,2023-09-08T19:57:30.846Z,,0,2,,6241.098999856971,response,ISIC_9112747.JPG,5,ISIC_0033845.JPG,ISIC_0033845.JPG,false,0,keypress(z),500,607594,607593.899999857,601336.229,601382.899999857,601352.801,607564.964,8,400,26,,ISIC_9112747.JPG
break,html.Screen,4_75_1,2023-09-08T19:57:30.846Z,,0,,,NaN,,,,,,false,,,,607594.399999857,607594.2999999523,,607594.1999998093,,607564.964,8,400,,,
break_continue,html.Screen,4_75_2,2023-09-08T19:57:30.847Z,,0,,,NaN,,,,,,false,,,,607594.6999998093,607594.5999999046,,607594.5,,607564.964,8,400,,,
sequence,flow.Sequence,4_75,2023-09-08T19:57:30.847Z,,0,,,6241.798999904655,completion,,,,,false,,,,607594.899999857,607594.5999999046,601336.229,601382.7999999523,601352.801,607564.964,8,400,,,
trial,html.Screen,4_76_0,2023-09-08T19:57:38.229Z,,0,2,,7411.635999904596,response,ISIC_0034120.JPG,5,ISIC_6995731.JPG,ISIC_0034120.JPG,false,1,keypress(m),500,614976.6999998093,614976.5999999046,607548.256,607594.899999857,607564.964,614945.944,8,400,27,,ISIC_6995731.JPG
break,html.Screen,4_76_1,2023-09-08T19:57:38.229Z,,0,,,NaN,,,,,,false,,,,614977,614976.899999857,,614976.7999999523,,614945.944,8,400,,,
break_continue,html.Screen,4_76_2,2023-09-08T19:57:38.229Z,,0,,,NaN,,,,,,false,,,,614977.1999998093,614977.0999999046,,614977.0999999046,,614945.944,8,400,,,
sequence,flow.Sequence,4_76,2023-09-08T19:57:38.229Z,,0,,,7412.135999904596,completion,,,,,false,,,,614977.2999999523,614977.0999999046,607548.256,607594.899999857,607564.964,614945.944,8,400,,,
trial,html.Screen,4_77_0,2023-09-08T19:57:43.498Z,,0,2,,5299.855999952299,response,ISIC_0026619.JPG,4,ISIC_0054341.JPG,ISIC_0026619.JPG,false,1,keypress(m),500,620245.899999857,620245.7999999523,614929.315,614977.2999999523,614945.944,620206.163,8,400,28,,ISIC_0054341.JPG
break,html.Screen,4_77_1,2023-09-08T19:57:43.498Z,,0,,,NaN,,,,,,false,,,,620246.2999999523,620246.1999998093,,620246.0999999046,,620206.163,8,400,,,
break_continue,html.Screen,4_77_2,2023-09-08T19:57:43.499Z,,0,,,NaN,,,,,,false,,,,620246.5,620246.399999857,,620246.399999857,,620206.163,8,400,,,
sequence,flow.Sequence,4_77,2023-09-08T19:57:43.499Z,,0,,,5300.455999856931,completion,,,,,false,,,,620246.5999999046,620246.399999857,614929.315,614977.2999999523,614945.944,620206.163,8,400,,,
trial,html.Screen,4_78_0,2023-09-08T19:57:50.108Z,,0,2,,6649.43699990469,response,ISIC_3556980.JPG,5,ISIC_0055435.JPG,ISIC_3556980.JPG,false,1,keypress(m),500,626855.7999999523,626855.5999999046,620189.612,620246.5999999046,620206.163,626819.138,8,400,29,,ISIC_0055435.JPG
break,html.Screen,4_78_1,2023-09-08T19:57:50.109Z,,0,,,NaN,,,,,,false,,,,626856.6999998093,626856.399999857,,626856.0999999046,,626819.138,8,400,,,
break_continue,html.Screen,4_78_2,2023-09-08T19:57:50.109Z,,0,,,NaN,,,,,,false,,,,626857.0999999046,626857,,626856.7999999523,,626819.138,8,400,,,
sequence,flow.Sequence,4_78,2023-09-08T19:57:50.109Z,,0,,,6650.837000000058,completion,,,,,false,,,,626857.2999999523,626857,620189.612,620246.5999999046,620206.163,626819.138,8,400,,,
trial,html.Screen,4_79_0,2023-09-08T19:57:56.480Z,,0,2,,6408.2619998569135,response,ISIC_0031843.JPG,5,ISIC_0004794.JPG,ISIC_0004794.JPG,false,0,keypress(z),500,633227.6999998093,633227.399999857,626802.54,626857.399999857,626819.138,633198.14,8,400,30,,ISIC_0031843.JPG
break,html.Screen,4_79_1,2023-09-08T19:57:56.481Z,,0,,,NaN,,,,,,false,,,,633229,633228.6999998093,,633228.0999999046,,633198.14,8,400,,,
break_continue,html.Screen,4_79_2,2023-09-08T19:57:56.482Z,,0,,,NaN,,,,,,false,,,,633229.7999999523,633229.5,,633229.399999857,,633198.14,8,400,,,
sequence,flow.Sequence,4_79,2023-09-08T19:57:56.482Z,,0,,,6410.361999999965,completion,,,,,false,,,,633230.0999999046,633229.5,626802.54,626857.2999999523,626819.138,633198.14,8,400,,,
trial,html.Screen,4_80_0,2023-09-08T19:58:02.570Z,,0,2,,6119.759999856935,response,ISIC_0068233.JPG,4,ISIC_0059866.JPG,ISIC_0059866.JPG,false,0,keypress(z),500,639318.1999998093,639317.899999857,633181.59,633230.5,633198.14,639293.637,8,400,31,,ISIC_0068233.JPG
break,html.Screen,4_80_1,2023-09-08T19:58:02.571Z,,0,,,NaN,,,,,,false,,,,639319.0999999046,639318.899999857,,639318.5999999046,,639293.637,8,400,,,
break_continue,html.Screen,4_80_2,2023-09-08T19:58:02.572Z,,0,,,NaN,,,,,,false,,,,639319.7999999523,639319.5,,639319.5,,639293.637,8,400,,,
sequence,flow.Sequence,4_80,2023-09-08T19:58:02.572Z,,0,,,6121.359999999986,completion,,,,,false,,,,639320.0999999046,639319.5,633181.59,633230.399999857,633198.14,639293.637,8,400,,,
trial,html.Screen,4_81_0,2023-09-08T19:58:07.134Z,,0,2,,4588.462999904645,response,ISIC_9294799.JPG,5,ISIC_0011097.JPG,ISIC_0011097.JPG,false,0,keypress(z),500,643882.1999998093,643882.0999999046,639260.178,639320.2999999523,639293.637,643852.45,8,400,32,,ISIC_9294799.JPG
break,html.Screen,4_81_1,2023-09-08T19:58:07.135Z,,0,,,NaN,,,,,,false,,,,643882.5999999046,643882.5,,643882.2999999523,,643852.45,8,400,,,
break_continue,html.Screen,4_81_2,2023-09-08T19:58:07.135Z,,0,,,NaN,,,,,,false,,,,643882.7999999523,643882.6999998093,,643882.5999999046,,643852.45,8,400,,,
sequence,flow.Sequence,4_81,2023-09-08T19:58:07.135Z,,0,,,4589.062999809277,completion,,,,,false,,,,643882.899999857,643882.6999998093,639260.178,639320.2999999523,639293.637,643852.45,8,400,,,
trial,html.Screen,4_82_0,2023-09-08T19:58:12.150Z,,0,2,,5044.649999904679,response,ISIC_0063601.JPG,5,ISIC_8692006.JPG,ISIC_8692006.JPG,false,0,keypress(z),500,648897.5999999046,648897.0999999046,643835.528,643883,643852.45,648862.023,8,400,33,,ISIC_0063601.JPG
break,html.Screen,4_82_1,2023-09-08T19:58:12.151Z,,0,,,NaN,,,,,,false,,,,648898.899999857,648898.5999999046,,648898,,648862.023,8,400,,,
break_continue,html.Screen,4_82_2,2023-09-08T19:58:12.152Z,,0,,,NaN,,,,,,false,,,,648899.5999999046,648899.399999857,,648899.1999998093,,648862.023,8,400,,,
sequence,flow.Sequence,4_82,2023-09-08T19:58:12.152Z,,0,,,5046.949999856995,completion,,,,,false,,,,648900,648899.399999857,643835.528,643883,643852.45,648862.023,8,400,,,
trial,html.Screen,4_83_0,2023-09-08T19:58:17.227Z,,0,2,,5112.076999904588,response,ISIC_4843102.JPG,6,ISIC_3448630.JPG,ISIC_4843102.JPG,false,1,keypress(m),500,653974.1999998093,653974.0999999046,648845.283,648900.2999999523,648862.023,653938.56,8,400,34,,ISIC_3448630.JPG
break,html.Screen,4_83_1,2023-09-08T19:58:17.227Z,,0,,,NaN,,,,,,false,,,,653974.7999999523,653974.5999999046,,653974.399999857,,653938.56,8,400,,,
break_continue,html.Screen,4_83_2,2023-09-08T19:58:17.227Z,,0,,,NaN,,,,,,false,,,,653975,653974.899999857,,653974.7999999523,,653938.56,8,400,,,
sequence,flow.Sequence,4_83,2023-09-08T19:58:17.227Z,,0,,,5112.876999856904,completion,,,,,false,,,,653975.0999999046,653974.899999857,648845.283,648900.1999998093,648862.023,653938.56,8,400,,,
trial,html.Screen,4_84_0,2023-09-08T19:58:22.210Z,,0,2,,5019.139999809209,response,ISIC_8458843.JPG,5,ISIC_0053611.JPG,ISIC_8458843.JPG,false,1,keypress(m),500,658957.899999857,658957.6999998093,653922.025,653975.1999998093,653938.56,658931.623,8,400,35,,ISIC_0053611.JPG
break,html.Screen,4_84_1,2023-09-08T19:58:22.211Z,,0,,,NaN,,,,,,false,,,,658958.1999998093,658958.0999999046,,658958,,658931.623,8,400,,,
break_continue,html.Screen,4_84_2,2023-09-08T19:58:22.211Z,,0,,,NaN,,,,,,false,,,,658958.5,658958.399999857,,658958.399999857,,658931.623,8,400,,,
sequence,flow.Sequence,4_84,2023-09-08T19:58:22.211Z,,0,,,5019.839999856893,completion,,,,,false,,,,658958.5999999046,658958.399999857,653922.025,653975.1999998093,653938.56,658931.623,8,400,,,
trial,html.Screen,4_85_0,2023-09-08T19:58:29.500Z,,0,2,,7315.576999809244,response,ISIC_1576437.JPG,5,ISIC_0055747.JPG,ISIC_1576437.JPG,false,1,keypress(m),500,666247.2999999523,666247.1999998093,658915.063,658958.5999999046,658931.623,666212.402,8,400,36,,ISIC_0055747.JPG
break,html.Screen,4_85_1,2023-09-08T19:58:29.500Z,,0,,,NaN,,,,,,false,,,,666248,666247.7999999523,,666247.5999999046,,666212.402,8,400,,,
break_continue,html.Screen,4_85_2,2023-09-08T19:58:29.501Z,,0,,,NaN,,,,,,false,,,,666248.399999857,666248.2999999523,,666248.1999998093,,666212.402,8,400,,,
sequence,flow.Sequence,4_85,2023-09-08T19:58:29.501Z,,0,,,7316.676999952295,completion,,,,,false,,,,666248.5,666248.2999999523,658915.063,658958.5999999046,658931.623,666212.402,8,400,,,
trial,html.Screen,4_86_0,2023-09-08T19:58:35.902Z,,0,2,,6437.097999999998,response,ISIC_0056531.JPG,5,ISIC_6025721.JPG,ISIC_6025721.JPG,false,0,keypress(z),500,672649.7999999523,672649.5,666195.763,666248.6999998093,666212.402,672641.704,8,400,37,,ISIC_0056531.JPG
break,html.Screen,4_86_1,2023-09-08T19:58:35.903Z,,0,,,NaN,,,,,,false,,,,672650.7999999523,672650.399999857,,672650.0999999046,,672641.704,8,400,,,
break_continue,html.Screen,4_86_2,2023-09-08T19:58:35.903Z,,0,,,NaN,,,,,,false,,,,672651.1999998093,672651.0999999046,,672650.899999857,,672641.704,8,400,,,
sequence,flow.Sequence,4_86,2023-09-08T19:58:35.904Z,,0,,,6438.697999904631,completion,,,,,false,,,,672651.5,672651.0999999046,666195.763,666248.5999999046,666212.402,672641.704,8,400,,,
trial,html.Screen,4_87_0,2023-09-08T19:58:42.439Z,,0,2,,6544.295999999973,response,ISIC_0068259.JPG,5,ISIC_8135400.JPG,ISIC_8135400.JPG,false,0,keypress(z),500,679186.2999999523,679186,672625.043,672651.6999998093,672641.704,679154.404,8,400,38,,ISIC_0068259.JPG
break,html.Screen,4_87_1,2023-09-08T19:58:42.440Z,,0,,,NaN,,,,,,false,,,,679187.2999999523,679187,,679186.5999999046,,679154.404,8,400,,,
break_continue,html.Screen,4_87_2,2023-09-08T19:58:42.440Z,,0,,,NaN,,,,,,false,,,,679187.7999999523,679187.5999999046,,679187.399999857,,679154.404,8,400,,,
sequence,flow.Sequence,4_87,2023-09-08T19:58:42.440Z,,0,,,6545.895999904606,completion,,,,,false,,,,679188.0999999046,679187.5999999046,672625.043,672651.5999999046,672641.704,679154.404,8,400,,,
trial,html.Screen,4_88_0,2023-09-08T19:58:48.301Z,,0,2,,5894.395999952336,response,ISIC_0013740.JPG,5,ISIC_0026150.JPG,ISIC_0026150.JPG,false,0,keypress(z),500,685049,685048.7999999523,679137.524,679188.1999998093,679154.404,685015.717,8,400,39,,ISIC_0013740.JPG
break,html.Screen,4_88_1,2023-09-08T19:58:48.302Z,,0,,,NaN,,,,,,false,,,,685050.0999999046,685049.6999998093,,685049.2999999523,,685015.717,8,400,,,
break_continue,html.Screen,4_88_2,2023-09-08T19:58:48.303Z,,0,,,NaN,,,,,,false,,,,685050.5,685050.2999999523,,685050.2999999523,,685015.717,8,400,,,
sequence,flow.Sequence,4_88,2023-09-08T19:58:48.303Z,,0,,,5895.895999952336,completion,,,,,false,,,,685050.6999998093,685050.2999999523,679137.524,679188.1999998093,679154.404,685015.717,8,400,,,
trial,html.Screen,4_89_0,2023-09-08T19:58:55.905Z,,0,2,,7636.982999809319,response,ISIC_2731621.JPG,4,ISIC_8066660.JPG,ISIC_2731621.JPG,false,1,keypress(m),500,692652.7999999523,692652.6999998093,684999.037,685051,685015.717,692613.788,8,400,40,,ISIC_8066660.JPG
break,html.Screen,4_89_1,2023-09-08T19:58:55.905Z,,0,,,NaN,,,,,,false,,,,692653.2999999523,692653.0999999046,,692653,,692613.788,8,400,,,
break_continue,html.Screen,4_89_2,2023-09-08T19:58:55.906Z,,0,,,NaN,,,,,,false,,,,692653.399999857,692653.2999999523,,692653.2999999523,,692613.788,8,400,,,
sequence,flow.Sequence,4_89,2023-09-08T19:58:55.906Z,,0,,,7637.58299995237,completion,,,,,false,,,,692653.5,692653.2999999523,684999.037,685050.899999857,685015.717,692613.788,8,400,,,
trial,html.Screen,4_90_0,2023-09-08T19:58:59.511Z,,0,2,,3644.8119999046903,response,ISIC_0032369.JPG,5,ISIC_0501108.JPG,ISIC_0501108.JPG,false,0,keypress(z),500,696258.7999999523,696258.5999999046,692597.207,692653.5999999046,692613.788,696220.808,8,400,41,,ISIC_0032369.JPG
break,html.Screen,4_90_1,2023-09-08T19:58:59.511Z,,0,,,NaN,,,,,,false,,,,696259.0999999046,696259.0999999046,,696258.7999999523,,696220.808,8,400,,,
break_continue,html.Screen,4_90_2,2023-09-08T19:58:59.512Z,,0,,,NaN,,,,,,false,,,,696259.399999857,696259.2999999523,,696259.1999998093,,696220.808,8,400,,,
sequence,flow.Sequence,4_90,2023-09-08T19:58:59.512Z,,0,,,3645.511999952374,completion,,,,,false,,,,696259.5,696259.2999999523,692597.207,692653.5999999046,692613.788,696220.808,8,400,,,
trial,html.Screen,4_91_0,2023-09-08T19:59:04.410Z,,0,2,,4937.091999856988,response,ISIC_0061559.JPG,6,ISIC_7443391.JPG,ISIC_7443391.JPG,false,0,keypress(z),500,701158.0999999046,701157.899999857,696204.293,696259.5999999046,696220.808,701130.321,8,400,42,,ISIC_0061559.JPG
break,html.Screen,4_91_1,2023-09-08T19:59:04.411Z,,0,,,NaN,,,,,,false,,,,701158.399999857,701158.399999857,,701158.1999998093,,701130.321,8,400,,,
break_continue,html.Screen,4_91_2,2023-09-08T19:59:04.411Z,,0,,,NaN,,,,,,false,,,,701158.5999999046,701158.5,,701158.5,,701130.321,8,400,,,
sequence,flow.Sequence,4_91,2023-09-08T19:59:04.411Z,,0,,,4937.692000000039,completion,,,,,false,,,,701158.5999999046,701158.5,696204.293,696259.5,696220.808,701130.321,8,400,,,
trial,html.Screen,4_92_0,2023-09-08T19:59:07.822Z,,0,2,,3438.878999809269,response,ISIC_9795458.JPG,5,ISIC_4055288.JPG,ISIC_4055288.JPG,false,0,keypress(z),500,704569.399999857,704569.1999998093,701113.645,701158.6999998093,701130.321,704537,8,400,43,,ISIC_9795458.JPG
break,html.Screen,4_92_1,2023-09-08T19:59:07.822Z,,0,,,NaN,,,,,,false,,,,704570,704569.7999999523,,704569.5999999046,,704537,8,400,,,
break_continue,html.Screen,4_92_2,2023-09-08T19:59:07.822Z,,0,,,NaN,,,,,,false,,,,704570.1999998093,704570.0999999046,,704570,,704537,8,400,,,
sequence,flow.Sequence,4_92,2023-09-08T19:59:07.823Z,,0,,,3439.7789999046363,completion,,,,,false,,,,704570.399999857,704570.0999999046,701113.645,701158.6999998093,701130.321,704537,8,400,,,
trial,html.Screen,4_93_0,2023-09-08T19:59:16.263Z,,0,2,,8473.899999856949,response,ISIC_6208508.JPG,5,ISIC_6805527.JPG,ISIC_6805527.JPG,false,0,keypress(z),500,713011.0999999046,713010.899999857,704520.252,704570.5,704537,712987.319,8,400,44,,ISIC_6208508.JPG
break,html.Screen,4_93_1,2023-09-08T19:59:16.264Z,,0,,,NaN,,,,,,false,,,,713011.5,713011.399999857,,713011.1999998093,,712987.319,8,400,,,
break_continue,html.Screen,4_93_2,2023-09-08T19:59:16.264Z,,0,,,NaN,,,,,,false,,,,713011.7999999523,713011.6999998093,,713011.5999999046,,712987.319,8,400,,,
sequence,flow.Sequence,4_93,2023-09-08T19:59:16.264Z,,0,,,8474.699999809265,completion,,,,,false,,,,713011.899999857,713011.6999998093,704520.252,704570.5,704537,712987.319,8,400,,,
trial,html.Screen,4_94_0,2023-09-08T19:59:22.426Z,,0,2,,6185.880999809247,response,ISIC_1603834.JPG,5,ISIC_0031202.JPG,ISIC_0031202.JPG,false,0,keypress(z),500,719173.399999857,719173.1999998093,712953.544,713012,712987.319,719149.458,8,400,45,,ISIC_1603834.JPG
break,html.Screen,4_94_1,2023-09-08T19:59:22.426Z,,0,,,NaN,,,,,,false,,,,719174.0999999046,719174,,719173.6999998093,,719149.458,8,400,,,
break_continue,html.Screen,4_94_2,2023-09-08T19:59:22.427Z,,0,,,NaN,,,,,,false,,,,719174.5999999046,719174.399999857,,719174.2999999523,,719149.458,8,400,,,
sequence,flow.Sequence,4_94,2023-09-08T19:59:22.427Z,,0,,,6187.080999856931,completion,,,,,false,,,,719174.6999998093,719174.399999857,712953.544,713012,712987.319,719149.458,8,400,,,
trial,html.Screen,4_95_0,2023-09-08T19:59:29.149Z,,0,2,,6746.741999809281,response,ISIC_3327201.JPG,6,ISIC_0014844.JPG,ISIC_3327201.JPG,false,1,keypress(m),500,725896.2999999523,725896.1999998093,719115.649,719174.7999999523,719149.458,725861.997,8,400,46,,ISIC_0014844.JPG
break,html.Screen,4_95_1,2023-09-08T19:59:29.149Z,,0,,,NaN,,,,,,false,,,,725897,725896.7999999523,,725896.5999999046,,725861.997,8,400,,,
break_continue,html.Screen,4_95_2,2023-09-08T19:59:29.150Z,,0,,,NaN,,,,,,false,,,,725897.399999857,725897.2999999523,,725897.1999998093,,725861.997,8,400,,,
sequence,flow.Sequence,4_95,2023-09-08T19:59:29.150Z,,0,,,6747.841999952332,completion,,,,,false,,,,725897.5,725897.2999999523,719115.649,719174.7999999523,719149.458,725861.997,8,400,,,
trial,html.Screen,4_96_0,2023-09-08T19:59:36.591Z,,0,2,,7477.003000000026,response,ISIC_0005264.JPG,5,ISIC_0057067.JPG,ISIC_0005264.JPG,false,1,keypress(m),500,733339.0999999046,733339,725845.14,725897.6999998093,725861.997,733309.753,8,400,47,,ISIC_0057067.JPG
break,html.Screen,4_96_1,2023-09-08T19:59:36.592Z,,0,,,NaN,,,,,,false,,,,733339.5999999046,733339.5,,733339.1999998093,,733309.753,8,400,,,
break_continue,html.Screen,4_96_2,2023-09-08T19:59:36.592Z,,0,,,NaN,,,,,,false,,,,733339.6999998093,733339.6999998093,,733339.5999999046,,733309.753,8,400,,,
sequence,flow.Sequence,4_96,2023-09-08T19:59:36.592Z,,0,,,7477.702999809291,completion,,,,,false,,,,733339.7999999523,733339.6999998093,725845.14,725897.5999999046,725861.997,733309.753,8,400,,,
trial,html.Screen,4_97_0,2023-09-08T19:59:40.756Z,,0,2,,4194.146999856923,response,ISIC_0067719.JPG,4,ISIC_0013672.JPG,ISIC_0013672.JPG,false,0,keypress(z),500,737504,737503.899999857,733292.984,733339.899999857,733309.753,737467.702,8,400,48,,ISIC_0067719.JPG
break,html.Screen,4_97_1,2023-09-08T19:59:40.757Z,,0,,,NaN,,,,,,false,,,,737504.5999999046,737504.5999999046,,737504.2999999523,,737467.702,8,400,,,
break_continue,html.Screen,4_97_2,2023-09-08T19:59:40.757Z,,0,,,NaN,,,,,,false,,,,737504.899999857,737504.899999857,,737504.7999999523,,737467.702,8,400,,,
sequence,flow.Sequence,4_97,2023-09-08T19:59:40.757Z,,0,,,4195.146999856923,completion,,,,,false,,,,737505.0999999046,737504.899999857,733292.984,733339.899999857,733309.753,737467.702,8,400,,,
trial,html.Screen,4_98_0,2023-09-08T19:59:46.679Z,,0,2,,5958.797999999952,response,ISIC_2039579.JPG,5,ISIC_0030080.JPG,ISIC_2039579.JPG,false,1,keypress(m),500,743426.5999999046,743426.5,737451.18,737505.0999999046,737467.702,743395.962,8,400,49,,ISIC_0030080.JPG
break,html.Screen,4_98_1,2023-09-08T19:59:46.679Z,,0,,,NaN,,,,,,false,,,,743427,743426.899999857,,743426.7999999523,,743395.962,8,400,,,
break_continue,html.Screen,4_98_2,2023-09-08T19:59:46.680Z,,0,,,NaN,,,,,,false,,,,743427.399999857,743427.2999999523,,743427.1999998093,,743395.962,8,400,,,
sequence,flow.Sequence,4_98,2023-09-08T19:59:46.680Z,,0,,,5959.597999952268,completion,,,,,false,,,,743427.5,743427.2999999523,737451.18,737505.0999999046,737467.702,743395.962,8,400,,,
trial,html.Screen,4_99_0,2023-09-08T19:59:52.159Z,,0,2,,5510.737999809207,response,ISIC_5071555.JPG,5,ISIC_7409889.JPG,ISIC_5071555.JPG,false,1,keypress(m),500,748906.7999999523,748906.6999998093,743379.287,743427.5999999046,743395.962,748873.458,8,400,50,,ISIC_7409889.JPG
break,html.Screen,4_99_1,2023-09-08T20:00:02.155Z,,0,,,10002.678000000073,timeout,,,,,false,,,,758902.5999999046,758859.503,748856.579,748907,748873.458,758876.136,8,400,,,
break_continue,html.Screen,4_99_2,2023-09-08T20:00:04.589Z,,0,,,2447.1639999522595,response,,,,,false,continue,keypress(Space),,761336.5,761323.2999999523,758859.503,758902.899999857,758876.136,761297.405,8,400,,,
sequence,flow.Sequence,4_99,2023-09-08T20:00:04.589Z,,0,,,17927.33799995226,completion,,,,,false,,,,761336.5999999046,761323.2999999523,743379.287,743427.5,743395.962,761297.405,8,400,,,
trial,html.Screen,4_100_0,2023-09-08T20:00:13.567Z,,0,3,,9016.694999904605,response,ISIC_0937261.JPG,6,ISIC_0010171.JPG,ISIC_0010171.JPG,false,0,keypress(z),500,770314.2999999523,770314.0999999046,761280.765,761336.5999999046,761297.405,770281.673,8,400,1,,ISIC_0937261.JPG
break,html.Screen,4_100_1,2023-09-08T20:00:13.567Z,,0,,,NaN,,,,,,false,,,,770315.0999999046,770314.7999999523,,770314.5,,770281.673,8,400,,,
break_continue,html.Screen,4_100_2,2023-09-08T20:00:13.568Z,,0,,,NaN,,,,,,false,,,,770315.2999999523,770315.1999998093,,770315.0999999046,,770281.673,8,400,,,
sequence,flow.Sequence,4_100,2023-09-08T20:00:13.568Z,,0,,,9017.794999809237,completion,,,,,false,,,,770315.5,770315.1999998093,761280.765,761336.5999999046,761297.405,770281.673,8,400,,,
trial,html.Screen,4_101_0,2023-09-08T20:00:19.334Z,,0,3,,5799.526999809314,response,ISIC_3463156.JPG,5,ISIC_0032687.JPG,ISIC_3463156.JPG,false,1,keypress(m),500,776081.2999999523,776081.1999998093,770265.003,770315.6999998093,770281.673,776042.821,8,400,2,,ISIC_0032687.JPG
break,html.Screen,4_101_1,2023-09-08T20:00:19.335Z,,0,,,NaN,,,,,,false,,,,776081.899999857,776081.6999998093,,776081.5,,776042.821,8,400,,,
break_continue,html.Screen,4_101_2,2023-09-08T20:00:19.335Z,,0,,,NaN,,,,,,false,,,,776082.2999999523,776082.1999998093,,776082,,776042.821,8,400,,,
sequence,flow.Sequence,4_101,2023-09-08T20:00:19.335Z,,0,,,5800.526999809314,completion,,,,,false,,,,776082.399999857,776082.1999998093,770265.003,770315.5999999046,770281.673,776042.821,8,400,,,
trial,html.Screen,4_102_0,2023-09-08T20:00:24.556Z,,0,3,,5260.47899995232,response,ISIC_0032602.JPG,5,ISIC_2438917.JPG,ISIC_2438917.JPG,false,0,keypress(z),500,781303.2999999523,781303.2999999523,776026.22,776082.5999999046,776042.821,781269.634,8,400,3,,ISIC_0032602.JPG
break,html.Screen,4_102_1,2023-09-08T20:00:24.556Z,,0,,,NaN,,,,,,false,,,,781303.899999857,781303.7999999523,,781303.5,,781269.634,8,400,,,
break_continue,html.Screen,4_102_2,2023-09-08T20:00:24.557Z,,0,,,NaN,,,,,,false,,,,781304.1999998093,781304,,781303.899999857,,781269.634,8,400,,,
sequence,flow.Sequence,4_102,2023-09-08T20:00:24.557Z,,0,,,5261.179000000004,completion,,,,,false,,,,781304.2999999523,781304,776026.22,776082.5,776042.821,781269.634,8,400,,,
trial,html.Screen,4_103_0,2023-09-08T20:00:29.246Z,,0,3,,4723.265999856987,response,ISIC_0003333.JPG,6,ISIC_0034118.JPG,ISIC_0003333.JPG,false,1,keypress(m),500,785993.0999999046,785992.899999857,781253.033,781304.399999857,781269.634,785978.895,8,400,4,,ISIC_0034118.JPG
break,html.Screen,4_103_1,2023-09-08T20:00:29.246Z,,0,,,NaN,,,,,,false,,,,785993.5,785993.399999857,,785993.1999998093,,785978.895,8,400,,,
break_continue,html.Screen,4_103_2,2023-09-08T20:00:29.246Z,,0,,,NaN,,,,,,false,,,,785993.5999999046,785993.5999999046,,785993.5,,785978.895,8,400,,,
sequence,flow.Sequence,4_103,2023-09-08T20:00:29.246Z,,0,,,4723.965999904671,completion,,,,,false,,,,785993.7999999523,785993.5999999046,781253.033,781304.399999857,781269.634,785978.895,8,400,,,
trial,html.Screen,4_104_0,2023-09-08T20:00:35.508Z,,0,3,,6276.604999999981,response,ISIC_0047022.JPG,4,ISIC_0027021.JPG,ISIC_0027021.JPG,false,0,keypress(z),500,792255.5999999046,792255.5,785962.19,785993.7999999523,785978.895,792224.389,8,400,5,,ISIC_0047022.JPG
break,html.Screen,4_104_1,2023-09-08T20:00:35.509Z,,0,,,NaN,,,,,,false,,,,792256,792255.899999857,,792255.6999998093,,792224.389,8,400,,,
break_continue,html.Screen,4_104_2,2023-09-08T20:00:35.509Z,,0,,,NaN,,,,,,false,,,,792256.2999999523,792256.1999998093,,792256.0999999046,,792224.389,8,400,,,
sequence,flow.Sequence,4_104,2023-09-08T20:00:35.509Z,,0,,,6277.3049998092465,completion,,,,,false,,,,792256.399999857,792256.1999998093,785962.19,785993.7999999523,785978.895,792224.389,8,400,,,
trial,html.Screen,4_105_0,2023-09-08T20:00:39.798Z,,0,3,,4320.510999856982,response,ISIC_0029322.JPG,5,ISIC_0030313.JPG,ISIC_0030313.JPG,false,0,keypress(z),500,796545.0999999046,796544.899999857,792207.689,792256.399999857,792224.389,796515.946,8,400,6,,ISIC_0029322.JPG
break,html.Screen,4_105_1,2023-09-08T20:00:39.798Z,,0,,,NaN,,,,,,false,,,,796545.399999857,796545.2999999523,,796545.1999998093,,796515.946,8,400,,,
break_continue,html.Screen,4_105_2,2023-09-08T20:00:39.798Z,,0,,,NaN,,,,,,false,,,,796545.5,796545.5,,796545.399999857,,796515.946,8,400,,,
sequence,flow.Sequence,4_105,2023-09-08T20:00:39.798Z,,0,,,4321.1110000000335,completion,,,,,false,,,,796545.5,796545.5,792207.689,792256.399999857,792224.389,796515.946,8,400,,,
trial,html.Screen,4_106_0,2023-09-08T20:00:46.300Z,,0,3,,6531.653999904636,response,ISIC_2096695.JPG,5,ISIC_0001103.JPG,ISIC_2096695.JPG,false,1,keypress(m),500,803047.6999998093,803047.5999999046,796499.359,796545.5999999046,796515.946,803012.022,8,400,7,,ISIC_0001103.JPG
break,html.Screen,4_106_1,2023-09-08T20:00:46.301Z,,0,,,NaN,,,,,,false,,,,803048.399999857,803048.0999999046,,803047.899999857,,803012.022,8,400,,,
break_continue,html.Screen,4_106_2,2023-09-08T20:00:46.301Z,,0,,,NaN,,,,,,false,,,,803048.5999999046,803048.5,,803048.5,,803012.022,8,400,,,
sequence,flow.Sequence,4_106,2023-09-08T20:00:46.301Z,,0,,,6532.554000000004,completion,,,,,false,,,,803048.5999999046,803048.5,796499.359,796545.5999999046,796515.946,803012.022,8,400,,,
trial,html.Screen,4_107_0,2023-09-08T20:00:51.968Z,,0,3,,5702.978000000003,response,ISIC_0031303.JPG,5,ISIC_0032637.JPG,ISIC_0031303.JPG,false,1,keypress(m),500,808715.0999999046,808715,802995.336,803048.6999998093,803012.022,808689.686,8,400,8,,ISIC_0032637.JPG
break,html.Screen,4_107_1,2023-09-08T20:00:51.968Z,,0,,,NaN,,,,,,false,,,,808715.399999857,808715.2999999523,,808715.1999998093,,808689.686,8,400,,,
break_continue,html.Screen,4_107_2,2023-09-08T20:00:51.968Z,,0,,,NaN,,,,,,false,,,,808715.6999998093,808715.5999999046,,808715.5,,808689.686,8,400,,,
sequence,flow.Sequence,4_107,2023-09-08T20:00:51.968Z,,0,,,5703.577999904635,completion,,,,,false,,,,808715.6999998093,808715.5999999046,802995.336,803048.6999998093,803012.022,808689.686,8,400,,,
trial,html.Screen,4_108_0,2023-09-08T20:00:57.634Z,,0,3,,5692.013999809278,response,ISIC_2383335.JPG,5,ISIC_0031909.JPG,ISIC_0031909.JPG,false,0,keypress(z),500,814381.7999999523,814381.6999998093,808656.46,808715.7999999523,808689.686,814350.736,8,400,9,,ISIC_2383335.JPG
break,html.Screen,4_108_1,2023-09-08T20:00:57.635Z,,0,,,NaN,,,,,,false,,,,814382.1999998093,814382.0999999046,,814381.899999857,,814350.736,8,400,,,
break_continue,html.Screen,4_108_2,2023-09-08T20:00:57.635Z,,0,,,NaN,,,,,,false,,,,814382.399999857,814382.399999857,,814382.2999999523,,814350.736,8,400,,,
sequence,flow.Sequence,4_108,2023-09-08T20:00:57.635Z,,0,,,5692.713999856962,completion,,,,,false,,,,814382.5,814382.399999857,808656.46,808715.6999998093,808689.686,814350.736,8,400,,,
trial,html.Screen,4_109_0,2023-09-08T20:01:04.836Z,,0,3,,7232.663999856915,response,ISIC_0026166.JPG,5,ISIC_0029244.JPG,ISIC_0029244.JPG,false,0,keypress(z),500,821583.5,821583.399999857,814334.181,814382.5999999046,814350.736,821548.102,8,400,10,,ISIC_0026166.JPG
break,html.Screen,4_109_1,2023-09-08T20:01:04.836Z,,0,,,NaN,,,,,,false,,,,821583.7999999523,821583.6999998093,,821583.5999999046,,821548.102,8,400,,,
break_continue,html.Screen,4_109_2,2023-09-08T20:01:04.837Z,,0,,,NaN,,,,,,false,,,,821584,821584,,821583.899999857,,821548.102,8,400,,,
sequence,flow.Sequence,4_109,2023-09-08T20:01:04.837Z,,0,,,7233.2639999999665,completion,,,,,false,,,,821584,821584,814334.181,814382.5999999046,814350.736,821548.102,8,400,,,
trial,html.Screen,4_110_0,2023-09-08T20:01:09.133Z,,0,3,,4332.297999856994,response,ISIC_2535541.JPG,5,ISIC_4756167.JPG,ISIC_4756167.JPG,false,0,keypress(z),500,825880.5,825880.399999857,821531.294,821584.0999999046,821548.102,825839.713,8,400,11,,ISIC_2535541.JPG
break,html.Screen,4_110_1,2023-09-08T20:01:09.133Z,,0,,,NaN,,,,,,false,,,,825880.899999857,825880.7999999523,,825880.6999998093,,825839.713,8,400,,,
break_continue,html.Screen,4_110_2,2023-09-08T20:01:09.134Z,,0,,,NaN,,,,,,false,,,,825881,825880.899999857,,825880.899999857,,825839.713,8,400,,,
sequence,flow.Sequence,4_110,2023-09-08T20:01:09.134Z,,0,,,4332.797999856994,completion,,,,,false,,,,825881.0999999046,825880.899999857,821531.294,821584.0999999046,821548.102,825839.713,8,400,,,
trial,html.Screen,4_111_0,2023-09-08T20:01:17.172Z,,0,3,,8079.5869999523275,response,ISIC_8278458.JPG,5,ISIC_0067564.JPG,ISIC_8278458.JPG,false,1,keypress(m),500,833919.5,833919.2999999523,825823.047,825881.0999999046,825839.713,833888.681,8,400,12,,ISIC_0067564.JPG
break,html.Screen,4_111_1,2023-09-08T20:01:17.173Z,,0,,,NaN,,,,,,false,,,,833920.0999999046,833919.899999857,,833919.6999998093,,833888.681,8,400,,,
break_continue,html.Screen,4_111_2,2023-09-08T20:01:17.173Z,,0,,,NaN,,,,,,false,,,,833920.399999857,833920.2999999523,,833920.1999998093,,833888.681,8,400,,,
sequence,flow.Sequence,4_111,2023-09-08T20:01:17.173Z,,0,,,8080.5869999523275,completion,,,,,false,,,,833920.5999999046,833920.2999999523,825823.047,825881.0999999046,825839.713,833888.681,8,400,,,
trial,html.Screen,4_112_0,2023-09-08T20:01:22.542Z,,0,3,,5400.319000000018,response,ISIC_4067693.JPG,5,ISIC_0025616.JPG,ISIC_4067693.JPG,false,1,keypress(m),500,839289.0999999046,839289,833872.094,833920.6999998093,833888.681,839249.09,8,400,13,,ISIC_0025616.JPG
break,html.Screen,4_112_1,2023-09-08T20:01:22.542Z,,0,,,NaN,,,,,,false,,,,839289.5,839289.399999857,,839289.1999998093,,839249.09,8,400,,,
break_continue,html.Screen,4_112_2,2023-09-08T20:01:22.542Z,,0,,,NaN,,,,,,false,,,,839289.6999998093,839289.5999999046,,839289.5,,839249.09,8,400,,,
sequence,flow.Sequence,4_112,2023-09-08T20:01:22.542Z,,0,,,5400.91899990465,completion,,,,,false,,,,839289.6999998093,839289.5999999046,833872.094,833920.6999998093,833888.681,839249.09,8,400,,,
trial,html.Screen,4_113_0,2023-09-08T20:01:27.504Z,,0,3,,5001.609999809298,response,ISIC_0072412.JPG,4,ISIC_0000161.JPG,ISIC_0072412.JPG,false,1,keypress(m),500,844250.7999999523,844250.6999998093,839232.59,839289.6999998093,839249.09,844225.507,8,400,14,,ISIC_0000161.JPG
break,html.Screen,4_113_1,2023-09-08T20:01:27.504Z,,0,,,NaN,,,,,,false,,,,844251.1999998093,844251.0999999046,,844251,,844225.507,8,400,,,
break_continue,html.Screen,4_113_2,2023-09-08T20:01:27.504Z,,0,,,NaN,,,,,,false,,,,844251.399999857,844251.2999999523,,844251.1999998093,,844225.507,8,400,,,
sequence,flow.Sequence,4_113,2023-09-08T20:01:27.504Z,,0,,,5002.209999952349,completion,,,,,false,,,,844251.5999999046,844251.2999999523,839232.59,839289.6999998093,839249.09,844225.507,8,400,,,
trial,html.Screen,4_114_0,2023-09-08T20:01:33.650Z,,0,3,,6171.192999809282,response,ISIC_0026500.JPG,5,ISIC_1497525.JPG,ISIC_1497525.JPG,false,0,keypress(z),500,850396.7999999523,850396.6999998093,844192.158,844251.5999999046,844225.507,850370.852,8,400,15,,ISIC_0026500.JPG
break,html.Screen,4_114_1,2023-09-08T20:01:33.650Z,,0,,,NaN,,,,,,false,,,,850397.2999999523,850397.0999999046,,850396.899999857,,850370.852,8,400,,,
break_continue,html.Screen,4_114_2,2023-09-08T20:01:33.650Z,,0,,,NaN,,,,,,false,,,,850397.5,850397.399999857,,850397.399999857,,850370.852,8,400,,,
sequence,flow.Sequence,4_114,2023-09-08T20:01:33.650Z,,0,,,6171.892999856966,completion,,,,,false,,,,850397.5999999046,850397.399999857,844192.158,844251.5999999046,844225.507,850370.852,8,400,,,
trial,html.Screen,4_115_0,2023-09-08T20:01:38.516Z,,0,3,,4892.247999904677,response,ISIC_0013615.JPG,5,ISIC_3624318.JPG,ISIC_3624318.JPG,false,0,keypress(z),500,855263.1999998093,855263.0999999046,850354.082,850397.6999998093,850370.852,855230.315,8,400,16,,ISIC_0013615.JPG
break,html.Screen,4_115_1,2023-09-08T20:01:38.516Z,,0,,,NaN,,,,,,false,,,,855263.5,855263.5,,855263.2999999523,,855230.315,8,400,,,
break_continue,html.Screen,4_115_2,2023-09-08T20:01:38.516Z,,0,,,NaN,,,,,,false,,,,855263.5999999046,855263.5999999046,,855263.5,,855230.315,8,400,,,
sequence,flow.Sequence,4_115,2023-09-08T20:01:38.516Z,,0,,,4892.747999904677,completion,,,,,false,,,,855263.6999998093,855263.5999999046,850354.082,850397.6999998093,850370.852,855230.315,8,400,,,
trial,html.Screen,4_116_0,2023-09-08T20:01:46.295Z,,0,3,,7811.185000000056,response,ISIC_5854552.JPG,6,ISIC_3274493.JPG,ISIC_3274493.JPG,false,0,keypress(z),500,863041.899999857,863041.5,855213.742,855263.7999999523,855230.315,863012.126,8,400,17,,ISIC_5854552.JPG
break,html.Screen,4_116_1,2023-09-08T20:01:46.296Z,,0,,,NaN,,,,,,false,,,,863043.399999857,863042.7999999523,,863042.2999999523,,863012.126,8,400,,,
break_continue,html.Screen,4_116_2,2023-09-08T20:01:46.297Z,,0,,,NaN,,,,,,false,,,,863044,863043.7999999523,,863043.5999999046,,863012.126,8,400,,,
sequence,flow.Sequence,4_116,2023-09-08T20:01:46.297Z,,0,,,7813.484999952372,completion,,,,,false,,,,863044.399999857,863043.7999999523,855213.742,855263.6999998093,855230.315,863012.126,8,400,,,
trial,html.Screen,4_117_0,2023-09-08T20:01:50.572Z,,0,3,,4306.673999952269,response,ISIC_9263990.JPG,6,ISIC_2193761.JPG,ISIC_2193761.JPG,false,0,keypress(z),500,867319.0999999046,867318.7999999523,862995.462,863044.5,863012.126,867287.043,8,400,18,,ISIC_9263990.JPG
break,html.Screen,4_117_1,2023-09-08T20:01:50.573Z,,0,,,NaN,,,,,,false,,,,867320,867319.5999999046,,867319.2999999523,,867287.043,8,400,,,
break_continue,html.Screen,4_117_2,2023-09-08T20:01:50.573Z,,0,,,NaN,,,,,,false,,,,867320.399999857,867320.2999999523,,867320.0999999046,,867287.043,8,400,,,
sequence,flow.Sequence,4_117,2023-09-08T20:01:50.573Z,,0,,,4308.173999952269,completion,,,,,false,,,,867320.5999999046,867320.2999999523,862995.462,863044.5,863012.126,867287.043,8,400,,,
trial,html.Screen,4_118_0,2023-09-08T20:01:57.151Z,,0,3,,6611.156999809318,response,ISIC_6028082.JPG,5,ISIC_0000300.JPG,ISIC_6028082.JPG,false,1,keypress(m),500,873898.2999999523,873898.1999998093,867270.441,867320.7999999523,867287.043,873866.478,8,400,19,,ISIC_0000300.JPG
break,html.Screen,4_118_1,2023-09-08T20:01:57.151Z,,0,,,NaN,,,,,,false,,,,873898.6999998093,873898.5999999046,,873898.5,,873866.478,8,400,,,
break_continue,html.Screen,4_118_2,2023-09-08T20:01:57.152Z,,0,,,NaN,,,,,,false,,,,873898.7999999523,873898.7999999523,,873898.6999998093,,873866.478,8,400,,,
sequence,flow.Sequence,4_118,2023-09-08T20:01:57.152Z,,0,,,6611.756999952369,completion,,,,,false,,,,873898.7999999523,873898.7999999523,867270.441,867320.7999999523,867287.043,873866.478,8,400,,,
trial,html.Screen,4_119_0,2023-09-08T20:02:04.295Z,,0,3,,7175.62199990463,response,ISIC_0706692.JPG,6,ISIC_8051628.JPG,ISIC_0706692.JPG,false,1,keypress(m),500,881042.1999998093,881042.0999999046,873849.809,873899,873866.478,881013.823,8,400,20,,ISIC_8051628.JPG
break,html.Screen,4_119_1,2023-09-08T20:02:04.296Z,,0,,,NaN,,,,,,false,,,,881043,881043,,881042.6999998093,,881013.823,8,400,,,
break_continue,html.Screen,4_119_2,2023-09-08T20:02:04.296Z,,0,,,NaN,,,,,,false,,,,881043.1999998093,881043.0999999046,,881043.0999999046,,881013.823,8,400,,,
sequence,flow.Sequence,4_119,2023-09-08T20:02:04.296Z,,0,,,7176.62199990463,completion,,,,,false,,,,881043.2999999523,881043.0999999046,873849.809,873899,873866.478,881013.823,8,400,,,
trial,html.Screen,4_120_0,2023-09-08T20:02:10.906Z,,0,3,,6638.776999904658,response,ISIC_6609379.JPG,6,ISIC_1315123.JPG,ISIC_6609379.JPG,false,1,keypress(m),500,887652.7999999523,887652.5999999046,880997.15,881043.2999999523,881013.823,887626.609,8,400,21,,ISIC_1315123.JPG
break,html.Screen,4_120_1,2023-09-08T20:02:10.906Z,,0,,,NaN,,,,,,false,,,,887653.2999999523,887653.0999999046,,887653,,887626.609,8,400,,,
break_continue,html.Screen,4_120_2,2023-09-08T20:02:10.906Z,,0,,,NaN,,,,,,false,,,,887653.5,887653.399999857,,887653.2999999523,,887626.609,8,400,,,
sequence,flow.Sequence,4_120,2023-09-08T20:02:10.906Z,,0,,,6639.576999856974,completion,,,,,false,,,,887653.5,887653.399999857,880997.15,881043.2999999523,881013.823,887626.609,8,400,,,
trial,html.Screen,4_121_0,2023-09-08T20:02:16.173Z,,0,3,,5292.990999904578,response,ISIC_1560272.JPG,5,ISIC_5149162.JPG,ISIC_1560272.JPG,false,1,keypress(m),500,892919.7999999523,892919.5999999046,887609.913,887653.5999999046,887626.609,892886.871,8,400,22,,ISIC_5149162.JPG
break,html.Screen,4_121_1,2023-09-08T20:02:16.173Z,,0,,,NaN,,,,,,false,,,,892920.2999999523,892920.0999999046,,892920,,892886.871,8,400,,,
break_continue,html.Screen,4_121_2,2023-09-08T20:02:16.174Z,,0,,,NaN,,,,,,false,,,,892920.5999999046,892920.5,,892920.399999857,,892886.871,8,400,,,
sequence,flow.Sequence,4_121,2023-09-08T20:02:16.174Z,,0,,,5293.890999999945,completion,,,,,false,,,,892920.7999999523,892920.5,887609.913,887653.5999999046,887626.609,892886.871,8,400,,,
trial,html.Screen,4_122_0,2023-09-08T20:02:21.655Z,,0,3,,5514.828999809222,response,ISIC_5778927.JPG,6,ISIC_0025243.JPG,ISIC_0025243.JPG,false,0,keypress(z),500,898401.7999999523,898401.6999998093,892870.332,892920.899999857,892886.871,898364.292,8,400,23,,ISIC_5778927.JPG
break,html.Screen,4_122_1,2023-09-08T20:02:21.655Z,,0,,,NaN,,,,,,false,,,,898402.2999999523,898402.1999998093,,898402,,898364.292,8,400,,,
break_continue,html.Screen,4_122_2,2023-09-08T20:02:21.656Z,,0,,,NaN,,,,,,false,,,,898402.5,898402.399999857,,898402.399999857,,898364.292,8,400,,,
sequence,flow.Sequence,4_122,2023-09-08T20:02:21.656Z,,0,,,5515.528999856906,completion,,,,,false,,,,898402.5999999046,898402.399999857,892870.332,892920.7999999523,892886.871,898364.292,8,400,,,
trial,html.Screen,4_123_0,2023-09-08T20:02:28.137Z,,0,3,,6519.707999999984,response,ISIC_6255113.JPG,5,ISIC_7475827.JPG,ISIC_7475827.JPG,false,0,keypress(z),500,904884.0999999046,904884,898347.589,898402.6999998093,898364.292,904843.494,8,400,24,,ISIC_6255113.JPG
break,html.Screen,4_123_1,2023-09-08T20:02:28.138Z,,0,,,NaN,,,,,,false,,,,904884.7999999523,904884.5999999046,,904884.399999857,,904843.494,8,400,,,
break_continue,html.Screen,4_123_2,2023-09-08T20:02:28.138Z,,0,,,NaN,,,,,,false,,,,904885.1999998093,904885,,904885,,904843.494,8,400,,,
sequence,flow.Sequence,4_123,2023-09-08T20:02:28.138Z,,0,,,6520.707999999984,completion,,,,,false,,,,904885.2999999523,904885,898347.589,898402.5999999046,898364.292,904843.494,8,400,,,
trial,html.Screen,4_124_0,2023-09-08T20:02:35.581Z,,0,3,,7483.905999857001,response,ISIC_0031900.JPG,6,ISIC_4659355.JPG,ISIC_4659355.JPG,false,0,keypress(z),500,912327.5999999046,912327.399999857,904826.905,904885.2999999523,904843.494,912291.242,8,400,25,,ISIC_0031900.JPG
break,html.Screen,4_124_1,2023-09-08T20:02:35.581Z,,0,,,NaN,,,,,,false,,,,912328.399999857,912328.1999998093,,912327.899999857,,912291.242,8,400,,,
break_continue,html.Screen,4_124_2,2023-09-08T20:02:35.582Z,,0,,,NaN,,,,,,false,,,,912328.6999998093,912328.5999999046,,912328.5,,912291.242,8,400,,,
sequence,flow.Sequence,4_124,2023-09-08T20:02:35.582Z,,0,,,7485.105999904685,completion,,,,,false,,,,912328.7999999523,912328.5999999046,904826.905,904885.2999999523,904843.494,912291.242,8,400,,,
trial,html.Screen,4_125_0,2023-09-08T20:02:41.232Z,,0,3,,5687.057999952347,response,ISIC_0026008.JPG,5,ISIC_0058255.JPG,ISIC_0058255.JPG,false,0,keypress(z),500,917978.5,917978.2999999523,912274.616,912328.899999857,912291.242,917952.31,8,400,26,,ISIC_0026008.JPG
break,html.Screen,4_125_1,2023-09-08T20:02:41.232Z,,0,,,NaN,,,,,,false,,,,917978.899999857,917978.899999857,,917978.5999999046,,917952.31,8,400,,,
break_continue,html.Screen,4_125_2,2023-09-08T20:02:41.232Z,,0,,,NaN,,,,,,false,,,,917979.0999999046,917979.0999999046,,917979,,917952.31,8,400,,,
sequence,flow.Sequence,4_125,2023-09-08T20:02:41.232Z,,0,,,5687.857999904663,completion,,,,,false,,,,917979.2999999523,917979.0999999046,912274.616,912328.899999857,912291.242,917952.31,8,400,,,
trial,html.Screen,4_126_0,2023-09-08T20:02:48.546Z,,0,3,,7340.589999856893,response,ISIC_0014181.JPG,5,ISIC_0912291.JPG,ISIC_0912291.JPG,false,0,keypress(z),500,925293.1999998093,925292.899999857,917935.575,917979.2999999523,917952.31,925266.559,8,400,27,,ISIC_0014181.JPG
break,html.Screen,4_126_1,2023-09-08T20:02:48.547Z,,0,,,NaN,,,,,,false,,,,925294,925293.6999998093,,925293.5,,925266.559,8,400,,,
