sender,sender_type,sender_id,timestamp,meta,,blockNo,condition,duration,ended_on,img_left,img_reveal,img_right,loser,practice,response,response_action,selection_duration,time_commit,time_end,time_render,time_run,time_show,time_switch,total_blocks,total_trials,trialNo,url,winner
informed_consent,html.Screen,0,2023-09-13T15:45:52.775Z,"{""labjs_version"":""20.2.4"",""labjs_build"":{""flavor"":""development"",""commit"":""f5b4a49f956347addd546a832a3327688c2c0fef""},""location"":""https://labjs.felixhenninger.com/api/labjs_preview/index.html"",""userAgent"":""Mozilla/5.0 (Windows NT 10.0; Win64; x64) AppleWebKit/537.36 (KHTML, like Gecko) Chrome/116.0.0.0 Safari/537.36"",""platform"":""Win32"",""language"":""en-AU"",""locale"":""en-US"",""timeZone"":""America/Chicago"",""timezoneOffset"":300,""screen_width"":2560,""screen_height"":1440,""scroll_width"":1296,""scroll_height"":688,""window_innerWidth"":1296,""window_innerHeight"":736,""devicePixelRatio"":1}",,,,4253.707000095367,response,,,,,,consent,click button,,4806.900000095367,4805.900000095367,535.499,550.4000000953674,552.193,4827.146,,,,{},
Welcome,html.Screen,1,2023-09-13T15:45:53.122Z,,,,asymmetry,326.5539998092654,response,,,,,,continue,click button,,5154,5153.699999809265,4810.496,4807.099999904633,4827.146,5177.988,,,,,
trial,html.Screen,2_0_0,2023-09-13T15:46:04.636Z,,0,0,,11522.514,timeout,ISIC_6997061.JPG,,ISIC_0069348.JPG,,true,,,500,16667.699999809265,16667.5,5161.256,5154.199999809265,5177.988,16700.502,1,6,1,,
sequence,flow.Sequence,2_0,2023-09-13T15:46:04.636Z,,0,,,11489.511999999999,completion,,,,,true,,,,16667.900000095367,16667.5,5161.256,5154.199999809265,5177.988,16700.502,1,6,,,
trial,html.Screen,2_1_0,2023-09-13T15:46:16.158Z,,0,0,,11522.206999999999,timeout,ISIC_0009529.JPG,,ISIC_0057368.JPG,,true,,,500,28189.800000190735,28189.699999809265,16683.721,16668,16700.502,28222.709,1,6,2,,
sequence,flow.Sequence,2_1,2023-09-13T15:46:16.158Z,,0,,,11489.197999809265,completion,,,,,true,,,,28190,28189.699999809265,16683.721,16668,16700.502,28222.709,1,6,,,
trial,html.Screen,2_2_0,2023-09-13T15:46:27.681Z,,0,0,,11522.598999999998,timeout,ISIC_0064954.JPG,,ISIC_9758671.JPG,,true,,,500,39712.40000009537,39712.09999990463,28206.003,28190,28222.709,39745.308,1,6,3,,
sequence,flow.Sequence,2_2,2023-09-13T15:46:27.681Z,,0,,,11489.390999904634,completion,,,,,true,,,,39712.699999809265,39712.09999990463,28206.003,28190,28222.709,39745.308,1,6,,,
trial,html.Screen,2_3_0,2023-09-13T15:46:39.205Z,,0,0,,11522.249000000003,timeout,ISIC_0005785.JPG,,ISIC_0000080.JPG,,true,,,500,51234.699999809265,51234.5,39728.51,39712.800000190735,39745.308,51267.557,1,6,4,,
sequence,flow.Sequence,2_3,2023-09-13T15:46:39.205Z,,0,,,11489.192000000003,completion,,,,,true,,,,51234.800000190735,51234.5,39728.51,39712.800000190735,39745.308,51267.557,1,6,,,
trial,html.Screen,2_4_0,2023-09-13T15:46:50.727Z,,0,0,,11522.568,timeout,ISIC_5390060.JPG,,ISIC_7944028.JPG,,true,,,500,62757.199999809265,62757,51250.853,51235,51267.557,62790.125,1,6,5,,
sequence,flow.Sequence,2_4,2023-09-13T15:46:50.728Z,,0,,,11489.443,completion,,,,,true,,,,62757.300000190735,62757,51250.853,51234.90000009537,51267.557,62790.125,1,6,,,
trial,html.Screen,2_5_0,2023-09-13T15:46:59.552Z,,0,0,,8791.175000190735,response,ISIC_0794216.JPG,,ISIC_0010188.JPG,ISIC_0794216.JPG,true,1,keypress(m),500,71581.5,71581.30000019073,62773.34,62757.40000009537,62790.125,71590.504,1,6,6,,ISIC_0010188.JPG
sequence,flow.Sequence,2_5,2023-09-13T15:46:59.552Z,,0,,,8791.175000190735,completion,,,,,true,,,,71581.69999980927,71581.30000019073,62773.34,62757.40000009537,62790.125,71590.504,1,6,,,
loop,flow.Loop,2,2023-09-13T15:46:59.552Z,,,,,66403.31200019074,completion,,,,,true,,,,71581.80000019073,71581.30000019073,5161.256,5154.199999809265,5177.988,71590.504,1,6,,,
exp_instructions,html.Screen,3,2023-09-13T15:47:28.237Z,,,,,28675.695999809264,response,,,,,,continue,keypress(Space),,100266.59999990463,100266.19999980927,71573.749,71581.90000009537,71590.504,100279.743,,,,,
trial,html.Screen,4_0_0,2023-09-13T15:47:33.064Z,,0,1,,4812.35699990463,response,ISIC_0033638.JPG,5,ISIC_1290821.JPG,ISIC_1290821.JPG,false,0,keypress(z),500,105092.30000019073,105092.09999990463,100263.057,100266.80000019073,100279.743,105105.612,8,400,1,,ISIC_0033638.JPG
break,html.Screen,4_0_1,2023-09-13T15:47:33.065Z,,0,,,NaN,,,,,,false,,,,105092.69999980927,105092.59999990463,,105092.30000019073,,105105.612,8,400,,,
break_continue,html.Screen,4_0_2,2023-09-13T15:47:33.065Z,,0,,,NaN,,,,,,false,,,,105093,105092.90000009537,,105092.80000019073,,105105.612,8,400,,,
sequence,flow.Sequence,4_0,2023-09-13T15:47:33.065Z,,0,,,4813.157000095365,completion,,,,,false,,,,105093.09999990463,105092.90000009537,100263.057,100266.69999980927,100279.743,105105.612,8,400,,,
trial,html.Screen,4_1_0,2023-09-13T15:47:39.594Z,,0,1,,6516.288000095374,response,ISIC_0029250.JPG,5,ISIC_0000387.JPG,ISIC_0000387.JPG,false,0,keypress(z),500,111622,111621.90000009537,105089.012,105093.09999990463,105105.612,111635.163,8,400,2,,ISIC_0029250.JPG
break,html.Screen,4_1_1,2023-09-13T15:47:39.594Z,,0,,,NaN,,,,,,false,,,,111622.59999990463,111622.5,,111622.19999980927,,111635.163,8,400,,,
break_continue,html.Screen,4_1_2,2023-09-13T15:47:39.595Z,,0,,,NaN,,,,,,false,,,,111622.80000019073,111622.69999980927,,111622.69999980927,,111635.163,8,400,,,
sequence,flow.Sequence,4_1,2023-09-13T15:47:39.595Z,,0,,,6517.087999809271,completion,,,,,false,,,,111622.90000009537,111622.69999980927,105089.012,105093.09999990463,105105.612,111635.163,8,400,,,
trial,html.Screen,4_2_0,2023-09-13T15:47:46.732Z,,0,1,,7124.936999904632,response,ISIC_3296136.JPG,4,ISIC_0012222.JPG,ISIC_3296136.JPG,false,1,keypress(m),500,118760.30000019073,118760.09999990463,111618.475,111623,111635.163,118765.647,8,400,3,,ISIC_0012222.JPG
break,html.Screen,4_2_1,2023-09-13T15:47:46.732Z,,0,,,NaN,,,,,,false,,,,118760.59999990463,118760.59999990463,,118760.30000019073,,118765.647,8,400,,,
break_continue,html.Screen,4_2_2,2023-09-13T15:47:46.733Z,,0,,,NaN,,,,,,false,,,,118760.90000009537,118760.80000019073,,118760.69999980927,,118765.647,8,400,,,
sequence,flow.Sequence,4_2,2023-09-13T15:47:46.733Z,,0,,,7125.637000190734,completion,,,,,false,,,,118760.90000009537,118760.80000019073,111618.475,111623,111635.163,118765.647,8,400,,,
trial,html.Screen,4_3_0,2023-09-13T15:47:53.540Z,,0,1,,6801.952999904635,response,ISIC_2799447.JPG,6,ISIC_6569060.JPG,ISIC_6569060.JPG,false,0,keypress(z),500,125567.69999980927,125567.59999990463,118749.042,118760.90000009537,118765.647,125578.881,8,400,4,,ISIC_2799447.JPG
break,html.Screen,4_3_1,2023-09-13T15:47:53.540Z,,0,,,NaN,,,,,,false,,,,125568.09999990463,125568.09999990463,,125567.80000019073,,125578.881,8,400,,,
break_continue,html.Screen,4_3_2,2023-09-13T15:47:53.540Z,,0,,,NaN,,,,,,false,,,,125568.30000019073,125568.30000019073,,125568.19999980927,,125578.881,8,400,,,
sequence,flow.Sequence,4_3,2023-09-13T15:47:53.540Z,,0,,,6802.653000190738,completion,,,,,false,,,,125568.40000009537,125568.30000019073,118749.042,118760.90000009537,118765.647,125578.881,8,400,,,
trial,html.Screen,4_4_0,2023-09-13T15:48:00.741Z,,0,1,,7190.619000000006,response,ISIC_1974281.JPG,4,ISIC_0010251.JPG,ISIC_1974281.JPG,false,1,keypress(m),500,132769.59999990463,132769.5,125562.119,125568.40000009537,125578.881,132776.15,8,400,5,,ISIC_0010251.JPG
break,html.Screen,4_4_1,2023-09-13T15:48:00.742Z,,0,,,NaN,,,,,,false,,,,132770.09999990463,132770,,132769.80000019073,,132776.15,8,400,,,
break_continue,html.Screen,4_4_2,2023-09-13T15:48:00.742Z,,0,,,NaN,,,,,,false,,,,132770.19999980927,132770.19999980927,,132770.19999980927,,132776.15,8,400,,,
sequence,flow.Sequence,4_4,2023-09-13T15:48:00.742Z,,0,,,7191.318999809271,completion,,,,,false,,,,132770.30000019073,132770.19999980927,125562.119,125568.40000009537,125578.881,132776.15,8,400,,,
trial,html.Screen,4_5_0,2023-09-13T15:48:07.016Z,,0,1,,6267.449999904638,response,ISIC_0015291.JPG,4,ISIC_0011855.JPG,ISIC_0015291.JPG,false,1,keypress(m),500,139043.69999980927,139043.59999990463,132759.625,132770.5,132776.15,139055.212,8,400,6,,ISIC_0011855.JPG
break,html.Screen,4_5_1,2023-09-13T15:48:07.016Z,,0,,,NaN,,,,,,false,,,,139044.5,139044.19999980927,,139043.90000009537,,139055.212,8,400,,,
break_continue,html.Screen,4_5_2,2023-09-13T15:48:07.017Z,,0,,,NaN,,,,,,false,,,,139044.80000019073,139044.69999980927,,139044.69999980927,,139055.212,8,400,,,
sequence,flow.Sequence,4_5,2023-09-13T15:48:07.017Z,,0,,,6268.549999809271,completion,,,,,false,,,,139044.90000009537,139044.69999980927,132759.625,132770.30000019073,132776.15,139055.212,8,400,,,
trial,html.Screen,4_6_0,2023-09-13T15:48:14.908Z,,0,1,,7880.887999904633,response,ISIC_0031324.JPG,5,ISIC_0025571.JPG,ISIC_0025571.JPG,false,0,keypress(z),500,146936.09999990463,146936.09999990463,139038.369,139045,139055.212,146937.058,8,400,7,,ISIC_0031324.JPG
break,html.Screen,4_6_1,2023-09-13T15:48:14.909Z,,0,,,NaN,,,,,,false,,,,146937,146936.80000019073,,146936.30000019073,,146937.058,8,400,,,
break_continue,html.Screen,4_6_2,2023-09-13T15:48:14.909Z,,0,,,NaN,,,,,,false,,,,146937.40000009537,146937.30000019073,,146937.09999990463,,146937.058,8,400,,,
sequence,flow.Sequence,4_6,2023-09-13T15:48:14.910Z,,0,,,7882.088000190735,completion,,,,,false,,,,146937.59999990463,146937.30000019073,139038.369,139045,139055.212,146937.058,8,400,,,
trial,html.Screen,4_7_0,2023-09-13T15:48:19.830Z,,0,1,,4920.641999809275,response,ISIC_7301963.JPG,6,ISIC_0028291.JPG,ISIC_7301963.JPG,false,1,keypress(m),500,151857.80000019073,151857.69999980927,146920.353,146938,146937.058,151863.3,8,400,8,,ISIC_0028291.JPG
break,html.Screen,4_7_1,2023-09-13T15:48:19.831Z,,0,,,NaN,,,,,,false,,,,151858.69999980927,151858.40000009537,,151857.90000009537,,151863.3,8,400,,,
break_continue,html.Screen,4_7_2,2023-09-13T15:48:19.831Z,,0,,,NaN,,,,,,false,,,,151859,151858.90000009537,,151858.69999980927,,151863.3,8,400,,,
sequence,flow.Sequence,4_7,2023-09-13T15:48:19.831Z,,0,,,4921.842000095377,completion,,,,,false,,,,151859.09999990463,151858.90000009537,146920.353,146937.90000009537,146937.058,151863.3,8,400,,,
trial,html.Screen,4_8_0,2023-09-13T15:48:25.722Z,,0,1,,5886.299999904644,response,ISIC_6032520.JPG,4,ISIC_6892286.JPG,ISIC_6032520.JPG,false,1,keypress(m),500,157749.80000019073,157749.59999990463,151846.626,151859.19999980927,151863.3,157758.063,8,400,9,,ISIC_6892286.JPG
break,html.Screen,4_8_1,2023-09-13T15:48:25.722Z,,0,,,NaN,,,,,,false,,,,157750.30000019073,157750.19999980927,,157750,,157758.063,8,400,,,
break_continue,html.Screen,4_8_2,2023-09-13T15:48:25.722Z,,0,,,NaN,,,,,,false,,,,157750.5,157750.5,,157750.30000019073,,157758.063,8,400,,,
sequence,flow.Sequence,4_8,2023-09-13T15:48:25.722Z,,0,,,5887.200000000012,completion,,,,,false,,,,157750.59999990463,157750.5,151846.626,151859.19999980927,151863.3,157758.063,8,400,,,
trial,html.Screen,4_9_0,2023-09-13T15:48:31.516Z,,0,1,,5786.536999904638,response,ISIC_3267196.JPG,5,ISIC_0000419.JPG,ISIC_3267196.JPG,false,1,keypress(m),500,163544.69999980927,163544.59999990463,157741.57,157750.59999990463,157758.063,163552.801,8,400,10,,ISIC_0000419.JPG
break,html.Screen,4_9_1,2023-09-13T15:48:31.517Z,,0,,,NaN,,,,,,false,,,,163545.09999990463,163544.90000009537,,163544.80000019073,,163552.801,8,400,,,
break_continue,html.Screen,4_9_2,2023-09-13T15:48:31.517Z,,0,,,NaN,,,,,,false,,,,163545.30000019073,163545.30000019073,,163545.09999990463,,163552.801,8,400,,,
sequence,flow.Sequence,4_9,2023-09-13T15:48:31.517Z,,0,,,5787.23700019074,completion,,,,,false,,,,163545.30000019073,163545.30000019073,157741.57,157750.59999990463,157758.063,163552.801,8,400,,,
trial,html.Screen,4_10_0,2023-09-13T15:48:37.616Z,,0,1,,6089.499000190728,response,ISIC_7047780.JPG,6,ISIC_1740912.JPG,ISIC_1740912.JPG,false,0,keypress(z),500,169642.40000009537,169642.30000019073,163536.081,163545.40000009537,163552.801,169647.942,8,400,11,,ISIC_7047780.JPG
break,html.Screen,4_10_1,2023-09-13T15:48:37.616Z,,0,,,NaN,,,,,,false,,,,169642.80000019073,169642.69999980927,,169642.5,,169647.942,8,400,,,
break_continue,html.Screen,4_10_2,2023-09-13T15:48:37.616Z,,0,,,NaN,,,,,,false,,,,169643,169643,,169642.90000009537,,169647.942,8,400,,,
sequence,flow.Sequence,4_10,2023-09-13T15:48:37.616Z,,0,,,6090.198999999993,completion,,,,,false,,,,169643,169643,163536.081,163545.40000009537,163552.801,169647.942,8,400,,,
trial,html.Screen,4_11_0,2023-09-13T15:48:44.018Z,,0,1,,6396.257999809255,response,ISIC_3009877.JPG,6,ISIC_1344537.JPG,ISIC_1344537.JPG,false,0,keypress(z),500,176044.40000009537,176044.19999980927,169631.386,169643.09999990463,169647.942,176060.41,8,400,12,,ISIC_3009877.JPG
break,html.Screen,4_11_1,2023-09-13T15:48:44.018Z,,0,,,NaN,,,,,,false,,,,176044.90000009537,176044.80000019073,,176044.5,,176060.41,8,400,,,
break_continue,html.Screen,4_11_2,2023-09-13T15:48:44.019Z,,0,,,NaN,,,,,,false,,,,176045.19999980927,176045.09999990463,,176044.90000009537,,176060.41,8,400,,,
sequence,flow.Sequence,4_11,2023-09-13T15:48:44.019Z,,0,,,6397.157999904623,completion,,,,,false,,,,176045.19999980927,176045.09999990463,169631.386,169643.09999990463,169647.942,176060.41,8,400,,,
trial,html.Screen,4_12_0,2023-09-13T15:48:48.964Z,,0,1,,4929.689999904629,response,ISIC_0013491.JPG,5,ISIC_6595186.JPG,ISIC_0013491.JPG,false,1,keypress(m),500,180990.19999980927,180990.09999990463,176043.711,176045.30000019073,176060.41,181003.433,8,400,13,,ISIC_6595186.JPG
break,html.Screen,4_12_1,2023-09-13T15:48:48.964Z,,0,,,NaN,,,,,,false,,,,180990.80000019073,180990.5,,180990.30000019073,,181003.433,8,400,,,
break_continue,html.Screen,4_12_2,2023-09-13T15:48:48.964Z,,0,,,NaN,,,,,,false,,,,180991.09999990463,180991,,180990.90000009537,,181003.433,8,400,,,
sequence,flow.Sequence,4_12,2023-09-13T15:48:48.965Z,,0,,,4930.5899999999965,completion,,,,,false,,,,180991.19999980927,180991,176043.711,176045.30000019073,176060.41,181003.433,8,400,,,
trial,html.Screen,4_13_0,2023-09-13T15:48:56.471Z,,0,1,,7493.666999904643,response,ISIC_3401631.JPG,6,ISIC_1925623.JPG,ISIC_1925623.JPG,false,0,keypress(z),500,188497.19999980927,188497.09999990463,180986.837,180991.30000019073,181003.433,188501.331,8,400,14,,ISIC_3401631.JPG
break,html.Screen,4_13_1,2023-09-13T15:48:56.471Z,,0,,,NaN,,,,,,false,,,,188497.69999980927,188497.59999990463,,188497.40000009537,,188501.331,8,400,,,
break_continue,html.Screen,4_13_2,2023-09-13T15:48:56.471Z,,0,,,NaN,,,,,,false,,,,188497.90000009537,188497.80000019073,,188497.69999980927,,188501.331,8,400,,,
sequence,flow.Sequence,4_13,2023-09-13T15:48:56.471Z,,0,,,7494.367000190745,completion,,,,,false,,,,188498,188497.80000019073,180986.837,180991.30000019073,181003.433,188501.331,8,400,,,
trial,html.Screen,4_14_0,2023-09-13T15:49:03.740Z,,0,1,,7265.069000095362,response,ISIC_0025897.JPG,5,ISIC_0055608.JPG,ISIC_0025897.JPG,false,1,keypress(m),500,195766.5,195766.40000009537,188484.756,188498,188501.331,195782.341,8,400,15,,ISIC_0055608.JPG
break,html.Screen,4_14_1,2023-09-13T15:49:03.740Z,,0,,,NaN,,,,,,false,,,,195767.09999990463,195766.90000009537,,195766.69999980927,,195782.341,8,400,,,
break_continue,html.Screen,4_14_2,2023-09-13T15:49:03.741Z,,0,,,NaN,,,,,,false,,,,195767.40000009537,195767.30000019073,,195767.19999980927,,195782.341,8,400,,,
sequence,flow.Sequence,4_14,2023-09-13T15:49:03.741Z,,0,,,7265.969000190729,completion,,,,,false,,,,195767.5,195767.30000019073,188484.756,188498,188501.331,195782.341,8,400,,,
trial,html.Screen,4_15_0,2023-09-13T15:49:09.538Z,,0,1,,5782.358999809279,response,ISIC_4129321.JPG,5,ISIC_8355446.JPG,ISIC_8355446.JPG,false,0,keypress(z),500,201564.80000019073,201564.69999980927,195765.537,195767.59999990463,195782.341,201576.682,8,400,16,,ISIC_4129321.JPG
break,html.Screen,4_15_1,2023-09-13T15:49:09.539Z,,0,,,NaN,,,,,,false,,,,201565.40000009537,201565.19999980927,,201564.90000009537,,201576.682,8,400,,,
break_continue,html.Screen,4_15_2,2023-09-13T15:49:09.539Z,,0,,,NaN,,,,,,false,,,,201565.59999990463,201565.59999990463,,201565.5,,201576.682,8,400,,,
sequence,flow.Sequence,4_15,2023-09-13T15:49:09.539Z,,0,,,5783.258999904647,completion,,,,,false,,,,201565.90000009537,201565.59999990463,195765.537,195767.59999990463,195782.341,201576.682,8,400,,,
trial,html.Screen,4_16_0,2023-09-13T15:49:15.643Z,,0,1,,6092.618000190734,response,ISIC_0024310.JPG,4,ISIC_7100755.JPG,ISIC_7100755.JPG,false,0,keypress(z),500,207669.40000009537,207669.30000019073,201560.011,201565.90000009537,201576.682,207671.877,8,400,17,,ISIC_0024310.JPG
break,html.Screen,4_16_1,2023-09-13T15:49:15.643Z,,0,,,NaN,,,,,,false,,,,207669.80000019073,207669.80000019073,,207669.5,,207671.877,8,400,,,
break_continue,html.Screen,4_16_2,2023-09-13T15:49:15.643Z,,0,,,NaN,,,,,,false,,,,207670,207670,,207669.90000009537,,207671.877,8,400,,,
sequence,flow.Sequence,4_16,2023-09-13T15:49:15.644Z,,0,,,6093.317999999999,completion,,,,,false,,,,207670.09999990463,207670,201560.011,201565.90000009537,201576.682,207671.877,8,400,,,
trial,html.Screen,4_17_0,2023-09-13T15:49:21.710Z,,0,1,,6064.222999904625,response,ISIC_0060975.JPG,5,ISIC_4734950.JPG,ISIC_4734950.JPG,false,0,keypress(z),500,213736.19999980927,213736.09999990463,207655.307,207670.19999980927,207671.877,213750.392,8,400,18,,ISIC_0060975.JPG
break,html.Screen,4_17_1,2023-09-13T15:49:21.710Z,,0,,,NaN,,,,,,false,,,,213736.80000019073,213736.59999990463,,213736.40000009537,,213750.392,8,400,,,
break_continue,html.Screen,4_17_2,2023-09-13T15:49:21.710Z,,0,,,NaN,,,,,,false,,,,213737,213737,,213736.90000009537,,213750.392,8,400,,,
sequence,flow.Sequence,4_17,2023-09-13T15:49:21.710Z,,0,,,6065.122999999992,completion,,,,,false,,,,213737.09999990463,213737,207655.307,207670.19999980927,207671.877,213750.392,8,400,,,
trial,html.Screen,4_18_0,2023-09-13T15:49:27.504Z,,0,1,,5780.108000000007,response,ISIC_7575246.JPG,5,ISIC_7967397.JPG,ISIC_7575246.JPG,false,1,keypress(m),500,219530.59999990463,219530.5,213733.807,213737.19999980927,213750.392,219545.018,8,400,19,,ISIC_7967397.JPG
break,html.Screen,4_18_1,2023-09-13T15:49:27.504Z,,0,,,NaN,,,,,,false,,,,219531.09999990463,219530.90000009537,,219530.69999980927,,219545.018,8,400,,,
break_continue,html.Screen,4_18_2,2023-09-13T15:49:27.505Z,,0,,,NaN,,,,,,false,,,,219531.30000019073,219531.30000019073,,219531.09999990463,,219545.018,8,400,,,
sequence,flow.Sequence,4_18,2023-09-13T15:49:27.505Z,,0,,,5780.908000190742,completion,,,,,false,,,,219531.40000009537,219531.30000019073,213733.807,213737.19999980927,213750.392,219545.018,8,400,,,
trial,html.Screen,4_19_0,2023-09-13T15:49:33.434Z,,0,1,,5913.981999999989,response,ISIC_0025357.JPG,6,ISIC_0428257.JPG,ISIC_0428257.JPG,false,0,keypress(z),500,225459.09999990463,225459,219528.311,219531.5,219545.018,225473.384,8,400,20,,ISIC_0025357.JPG
break,html.Screen,4_19_1,2023-09-13T15:49:33.435Z,,0,,,NaN,,,,,,false,,,,225459.69999980927,225459.5,,225459.30000019073,,225473.384,8,400,,,
break_continue,html.Screen,4_19_2,2023-09-13T15:49:33.435Z,,0,,,NaN,,,,,,false,,,,225460,225459.90000009537,,225459.80000019073,,225473.384,8,400,,,
sequence,flow.Sequence,4_19,2023-09-13T15:49:33.435Z,,0,,,5914.8820000953565,completion,,,,,false,,,,225460.09999990463,225459.90000009537,219528.311,219531.5,219545.018,225473.384,8,400,,,
trial,html.Screen,4_20_0,2023-09-13T15:49:40.477Z,,0,1,,7028.815999809274,response,ISIC_0057696.JPG,6,ISIC_0056739.JPG,ISIC_0057696.JPG,false,1,keypress(m),500,232502.40000009537,232502.19999980927,225456.684,225460.19999980927,225473.384,232503.538,8,400,21,,ISIC_0056739.JPG
break,html.Screen,4_20_1,2023-09-13T15:49:40.478Z,,0,,,NaN,,,,,,false,,,,232503,232502.80000019073,,232502.59999990463,,232503.538,8,400,,,
break_continue,html.Screen,4_20_2,2023-09-13T15:49:40.478Z,,0,,,NaN,,,,,,false,,,,232503.09999990463,232503.09999990463,,232503,,232503.538,8,400,,,
sequence,flow.Sequence,4_20,2023-09-13T15:49:40.478Z,,0,,,7029.715999904642,completion,,,,,false,,,,232503.19999980927,232503.09999990463,225456.684,225460.19999980927,225473.384,232503.538,8,400,,,
trial,html.Screen,4_21_0,2023-09-13T15:49:46.802Z,,0,1,,6321.9619999999995,response,ISIC_0028338.JPG,4,ISIC_8194467.JPG,ISIC_8194467.JPG,false,0,keypress(z),500,238826.80000019073,238825.5,232486.846,232503.30000019073,232503.538,238832.508,8,400,22,,ISIC_0028338.JPG
break,html.Screen,4_21_1,2023-09-13T15:49:46.802Z,,0,,,NaN,,,,,,false,,,,238827.59999990463,238827.40000009537,,238827,,238832.508,8,400,,,
break_continue,html.Screen,4_21_2,2023-09-13T15:49:46.803Z,,0,,,NaN,,,,,,false,,,,238827.90000009537,238827.80000019073,,238827.69999980927,,238832.508,8,400,,,
sequence,flow.Sequence,4_21,2023-09-13T15:49:46.803Z,,0,,,6324.262000190734,completion,,,,,false,,,,238828.09999990463,238827.80000019073,232486.846,232503.30000019073,232503.538,238832.508,8,400,,,
trial,html.Screen,4_22_0,2023-09-13T15:49:51.828Z,,0,1,,5020.792000190733,response,ISIC_0067226.JPG,5,ISIC_0015245.JPG,ISIC_0015245.JPG,false,0,keypress(z),500,243853.5,243853.30000019073,238815.851,238828.09999990463,238832.508,243859.073,8,400,23,,ISIC_0067226.JPG
break,html.Screen,4_22_1,2023-09-13T15:49:51.829Z,,0,,,NaN,,,,,,false,,,,243853.90000009537,243853.80000019073,,243853.59999990463,,243859.073,8,400,,,
break_continue,html.Screen,4_22_2,2023-09-13T15:49:51.829Z,,0,,,NaN,,,,,,false,,,,243854,243854,,243853.90000009537,,243859.073,8,400,,,
sequence,flow.Sequence,4_22,2023-09-13T15:49:51.829Z,,0,,,5021.491999999998,completion,,,,,false,,,,243854.09999990463,243854,238815.851,238828.09999990463,238832.508,243859.073,8,400,,,
trial,html.Screen,4_23_0,2023-09-13T15:49:58.215Z,,0,1,,6380.626999809261,response,ISIC_0001119.JPG,5,ISIC_0055491.JPG,ISIC_0001119.JPG,false,1,keypress(m),500,250240,250239.69999980927,243842.395,243854.19999980927,243859.073,250254.737,8,400,24,,ISIC_0055491.JPG
break,html.Screen,4_23_1,2023-09-13T15:49:58.216Z,,0,,,NaN,,,,,,false,,,,250240.90000009537,250240.5,,250240.19999980927,,250254.737,8,400,,,
break_continue,html.Screen,4_23_2,2023-09-13T15:49:58.216Z,,0,,,NaN,,,,,,false,,,,250241.30000019073,250241.19999980927,,250241,,250254.737,8,400,,,
sequence,flow.Sequence,4_23,2023-09-13T15:49:58.216Z,,0,,,6382.126999809261,completion,,,,,false,,,,250241.40000009537,250241.19999980927,243842.395,243854.19999980927,243859.073,250254.737,8,400,,,
trial,html.Screen,4_24_0,2023-09-13T15:50:05.578Z,,0,1,,7348.163000095374,response,ISIC_0014846.JPG,5,ISIC_1733794.JPG,ISIC_1733794.JPG,false,0,keypress(z),500,257603,257602.90000009537,250238.1,250241.59999990463,250254.737,257619.205,8,400,25,,ISIC_0014846.JPG
break,html.Screen,4_24_1,2023-09-13T15:50:05.578Z,,0,,,NaN,,,,,,false,,,,257603.59999990463,257603.5,,257603.19999980927,,257619.205,8,400,,,
break_continue,html.Screen,4_24_2,2023-09-13T15:50:05.579Z,,0,,,NaN,,,,,,false,,,,257603.90000009537,257603.80000019073,,257603.69999980927,,257619.205,8,400,,,
sequence,flow.Sequence,4_24,2023-09-13T15:50:05.579Z,,0,,,7349.063000190741,completion,,,,,false,,,,257604,257603.80000019073,250238.1,250241.5,250254.737,257619.205,8,400,,,
trial,html.Screen,4_25_0,2023-09-13T15:50:10.417Z,,0,1,,4822.894999904645,response,ISIC_0068382.JPG,5,ISIC_0011045.JPG,ISIC_0068382.JPG,false,1,keypress(m),500,262442.09999990463,262442.09999990463,257602.377,257604,257619.205,262445.151,8,400,26,,ISIC_0011045.JPG
break,html.Screen,4_25_1,2023-09-13T15:50:10.417Z,,0,,,NaN,,,,,,false,,,,262442.59999990463,262442.5,,262442.19999980927,,262445.151,8,400,,,
break_continue,html.Screen,4_25_2,2023-09-13T15:50:10.418Z,,0,,,NaN,,,,,,false,,,,262442.80000019073,262442.80000019073,,262442.59999990463,,262445.151,8,400,,,
sequence,flow.Sequence,4_25,2023-09-13T15:50:10.418Z,,0,,,4823.595000190748,completion,,,,,false,,,,262442.90000009537,262442.80000019073,257602.377,257604,257619.205,262445.151,8,400,,,
trial,html.Screen,4_26_0,2023-09-13T15:50:17.337Z,,0,1,,6917.048999809253,response,ISIC_1964243.JPG,6,ISIC_0024275.JPG,ISIC_0024275.JPG,false,0,keypress(z),500,269362.30000019073,269362.19999980927,262428.476,262442.90000009537,262445.151,269375.404,8,400,27,,ISIC_1964243.JPG
break,html.Screen,4_26_1,2023-09-13T15:50:17.338Z,,0,,,NaN,,,,,,false,,,,269362.90000009537,269362.69999980927,,269362.40000009537,,269375.404,8,400,,,
break_continue,html.Screen,4_26_2,2023-09-13T15:50:17.338Z,,0,,,NaN,,,,,,false,,,,269363.19999980927,269363.09999990463,,269363,,269375.404,8,400,,,
sequence,flow.Sequence,4_26,2023-09-13T15:50:17.338Z,,0,,,6917.94899990462,completion,,,,,false,,,,269363.30000019073,269363.09999990463,262428.476,262442.90000009537,262445.151,269375.404,8,400,,,
trial,html.Screen,4_27_0,2023-09-13T15:50:22.707Z,,0,1,,5356.496000095387,response,ISIC_0065872.JPG,4,ISIC_9363106.JPG,ISIC_9363106.JPG,false,0,keypress(z),500,274732.09999990463,274731.90000009537,269358.793,269363.40000009537,269375.404,274735.716,8,400,28,,ISIC_0065872.JPG
break,html.Screen,4_27_1,2023-09-13T15:50:22.707Z,,0,,,NaN,,,,,,false,,,,274732.40000009537,274732.40000009537,,274732.09999990463,,274735.716,8,400,,,
break_continue,html.Screen,4_27_2,2023-09-13T15:50:22.708Z,,0,,,NaN,,,,,,false,,,,274732.59999990463,274732.5,,274732.5,,274735.716,8,400,,,
sequence,flow.Sequence,4_27,2023-09-13T15:50:22.708Z,,0,,,5357.09600000002,completion,,,,,false,,,,274732.69999980927,274732.5,269358.793,269363.30000019073,269375.404,274735.716,8,400,,,
trial,html.Screen,4_28_0,2023-09-13T15:50:27.724Z,,0,1,,5013.58400019072,response,ISIC_1444154.JPG,4,ISIC_0014925.JPG,ISIC_1444154.JPG,false,1,keypress(m),500,279749.40000009537,279749.30000019073,274719.034,274732.80000019073,274735.716,279762.179,8,400,29,,ISIC_0014925.JPG
break,html.Screen,4_28_1,2023-09-13T15:50:27.725Z,,0,,,NaN,,,,,,false,,,,279750.09999990463,279750,,279749.59999990463,,279762.179,8,400,,,
break_continue,html.Screen,4_28_2,2023-09-13T15:50:27.725Z,,0,,,NaN,,,,,,false,,,,279750.5,279750.40000009537,,279750.19999980927,,279762.179,8,400,,,
sequence,flow.Sequence,4_28,2023-09-13T15:50:27.726Z,,0,,,5014.6840000953525,completion,,,,,false,,,,279750.69999980927,279750.40000009537,274719.034,274732.80000019073,274735.716,279762.179,8,400,,,
trial,html.Screen,4_29_0,2023-09-13T15:50:33.152Z,,0,1,,5414.121000190731,response,ISIC_6657600.JPG,5,ISIC_6613150.JPG,ISIC_6657600.JPG,false,1,keypress(m),500,285176.40000009537,285176.30000019073,279745.512,279750.80000019073,279762.179,285189.51,8,400,30,,ISIC_6613150.JPG
break,html.Screen,4_29_1,2023-09-13T15:50:33.153Z,,0,,,NaN,,,,,,false,,,,285177,285176.90000009537,,285176.59999990463,,285189.51,8,400,,,
break_continue,html.Screen,4_29_2,2023-09-13T15:50:33.153Z,,0,,,NaN,,,,,,false,,,,285177.19999980927,285177.19999980927,,285177.09999990463,,285189.51,8,400,,,
sequence,flow.Sequence,4_29,2023-09-13T15:50:33.153Z,,0,,,5415.020999809261,completion,,,,,false,,,,285177.19999980927,285177.19999980927,279745.512,279750.69999980927,279762.179,285189.51,8,400,,,
trial,html.Screen,4_30_0,2023-09-13T15:50:37.589Z,,0,1,,4423.390000095358,response,ISIC_0032782.JPG,5,ISIC_9204678.JPG,ISIC_9204678.JPG,false,0,keypress(z),500,289613,289612.90000009537,285172.858,285177.40000009537,285189.51,289631.422,8,400,31,,ISIC_0032782.JPG
break,html.Screen,4_30_1,2023-09-13T15:50:37.590Z,,0,,,NaN,,,,,,false,,,,289613.5,289613.30000019073,,289613.09999990463,,289631.422,8,400,,,
break_continue,html.Screen,4_30_2,2023-09-13T15:50:37.590Z,,0,,,NaN,,,,,,false,,,,289613.69999980927,289613.59999990463,,289613.5,,289631.422,8,400,,,
sequence,flow.Sequence,4_30,2023-09-13T15:50:37.590Z,,0,,,4424.089999904623,completion,,,,,false,,,,289613.69999980927,289613.59999990463,285172.858,285177.30000019073,285189.51,289631.422,8,400,,,
trial,html.Screen,4_31_0,2023-09-13T15:50:43.304Z,,0,1,,5696.378000190714,response,ISIC_0001120.JPG,5,ISIC_0538042.JPG,ISIC_0538042.JPG,false,0,keypress(z),500,295327.90000009537,295327.80000019073,289614.723,289613.80000019073,289631.422,295342.526,8,400,32,,ISIC_0001120.JPG
break,html.Screen,4_31_1,2023-09-13T15:50:43.305Z,,0,,,NaN,,,,,,false,,,,295328.59999990463,295328.40000009537,,295328.09999990463,,295342.526,8,400,,,
break_continue,html.Screen,4_31_2,2023-09-13T15:50:43.305Z,,0,,,NaN,,,,,,false,,,,295328.90000009537,295328.80000019073,,295328.69999980927,,295342.526,8,400,,,
sequence,flow.Sequence,4_31,2023-09-13T15:50:43.305Z,,0,,,5697.378000190714,completion,,,,,false,,,,295329,295328.80000019073,289614.723,289613.80000019073,289631.422,295342.526,8,400,,,
trial,html.Screen,4_32_0,2023-09-13T15:50:48.378Z,,0,1,,5059.774000190722,response,ISIC_0027149.JPG,5,ISIC_0015969.JPG,ISIC_0015969.JPG,false,0,keypress(z),500,300402.40000009537,300402.30000019073,295325.878,295329.09999990463,295342.526,300419.133,8,400,33,,ISIC_0027149.JPG
break,html.Screen,4_32_1,2023-09-13T15:50:48.379Z,,0,,,NaN,,,,,,false,,,,300403.30000019073,300403.09999990463,,300402.59999990463,,300419.133,8,400,,,
break_continue,html.Screen,4_32_2,2023-09-13T15:50:48.380Z,,0,,,NaN,,,,,,false,,,,300403.59999990463,300403.5,,300403.40000009537,,300419.133,8,400,,,
sequence,flow.Sequence,4_32,2023-09-13T15:50:48.380Z,,0,,,5060.973999999987,completion,,,,,false,,,,300403.59999990463,300403.5,295325.878,295329,295342.526,300419.133,8,400,,,
trial,html.Screen,4_33_0,2023-09-13T15:50:55.326Z,,0,1,,6930.167000190762,response,ISIC_0012988.JPG,6,ISIC_4269227.JPG,ISIC_4269227.JPG,false,0,keypress(z),500,307349.5,307349.30000019073,300402.538,300403.69999980927,300419.133,307365.935,8,400,34,,ISIC_0012988.JPG
break,html.Screen,4_33_1,2023-09-13T15:50:55.326Z,,0,,,NaN,,,,,,false,,,,307349.90000009537,307349.90000009537,,307349.59999990463,,307365.935,8,400,,,
break_continue,html.Screen,4_33_2,2023-09-13T15:50:55.326Z,,0,,,NaN,,,,,,false,,,,307350.19999980927,307350.09999990463,,307350,,307365.935,8,400,,,
sequence,flow.Sequence,4_33,2023-09-13T15:50:55.326Z,,0,,,6930.96699990466,completion,,,,,false,,,,307350.30000019073,307350.09999990463,300402.538,300403.69999980927,300419.133,307365.935,8,400,,,
trial,html.Screen,4_34_0,2023-09-13T15:51:01.696Z,,0,1,,6354.065000000002,response,ISIC_8171432.JPG,5,ISIC_3087402.JPG,ISIC_8171432.JPG,false,1,keypress(m),500,313720.19999980927,313720,307349.223,307350.30000019073,307365.935,313728.3,8,400,35,,ISIC_3087402.JPG
break,html.Screen,4_34_1,2023-09-13T15:51:01.697Z,,0,,,NaN,,,,,,false,,,,313721.09999990463,313720.80000019073,,313720.40000009537,,313728.3,8,400,,,
break_continue,html.Screen,4_34_2,2023-09-13T15:51:01.698Z,,0,,,NaN,,,,,,false,,,,313721.59999990463,313721.40000009537,,313721.30000019073,,313728.3,8,400,,,
sequence,flow.Sequence,4_34,2023-09-13T15:51:01.698Z,,0,,,6355.46500009537,completion,,,,,false,,,,313721.69999980927,313721.40000009537,307349.223,307350.30000019073,307365.935,313728.3,8,400,,,
trial,html.Screen,4_35_0,2023-09-13T15:51:07.927Z,,0,1,,6222.0000001907465,response,ISIC_0025927.JPG,6,ISIC_3157046.JPG,ISIC_3157046.JPG,false,0,keypress(z),500,319950.40000009537,319950.30000019073,313711.763,313721.90000009537,313728.3,319957.12,8,400,36,,ISIC_0025927.JPG
break,html.Screen,4_35_1,2023-09-13T15:51:07.927Z,,0,,,NaN,,,,,,false,,,,319950.90000009537,319950.69999980927,,319950.5,,319957.12,8,400,,,
break_continue,html.Screen,4_35_2,2023-09-13T15:51:07.927Z,,0,,,NaN,,,,,,false,,,,319951.09999990463,319951.09999990463,,319950.90000009537,,319957.12,8,400,,,
sequence,flow.Sequence,4_35,2023-09-13T15:51:07.927Z,,0,,,6222.799999904644,completion,,,,,false,,,,319951.09999990463,319951.09999990463,313711.763,313721.80000019073,313728.3,319957.12,8,400,,,
trial,html.Screen,4_36_0,2023-09-13T15:51:14.361Z,,0,1,,6427.6800001907395,response,ISIC_0030957.JPG,5,ISIC_8654660.JPG,ISIC_8654660.JPG,false,0,keypress(z),500,326385,326384.80000019073,319940.399,319951.19999980927,319957.12,326386.284,8,400,37,,ISIC_0030957.JPG
break,html.Screen,4_36_1,2023-09-13T15:51:14.362Z,,0,,,NaN,,,,,,false,,,,326385.5,326385.30000019073,,326385.09999990463,,326386.284,8,400,,,
break_continue,html.Screen,4_36_2,2023-09-13T15:51:14.362Z,,0,,,NaN,,,,,,false,,,,326385.80000019073,326385.80000019073,,326385.59999990463,,326386.284,8,400,,,
sequence,flow.Sequence,4_36,2023-09-13T15:51:14.362Z,,0,,,6428.6800001907395,completion,,,,,false,,,,326386,326385.80000019073,319940.399,319951.19999980927,319957.12,326386.284,8,400,,,
trial,html.Screen,4_37_0,2023-09-13T15:51:19.932Z,,0,1,,5569.716000000015,response,ISIC_0010145.JPG,5,ISIC_7511557.JPG,ISIC_7511557.JPG,false,0,keypress(z),500,331956.09999990463,331956,326369.745,326386,326386.284,331963.896,8,400,38,,ISIC_0010145.JPG
break,html.Screen,4_37_1,2023-09-13T15:51:19.933Z,,0,,,NaN,,,,,,false,,,,331956.69999980927,331956.5,,331956.30000019073,,331963.896,8,400,,,
break_continue,html.Screen,4_37_2,2023-09-13T15:51:19.933Z,,0,,,NaN,,,,,,false,,,,331956.80000019073,331956.80000019073,,331956.80000019073,,331963.896,8,400,,,
sequence,flow.Sequence,4_37,2023-09-13T15:51:19.933Z,,0,,,5570.51600019075,completion,,,,,false,,,,331957,331956.80000019073,326369.745,326386,326386.284,331963.896,8,400,,,
trial,html.Screen,4_38_0,2023-09-13T15:51:25.774Z,,0,1,,5834.203999904625,response,ISIC_0005655.JPG,6,ISIC_9622250.JPG,ISIC_0005655.JPG,false,1,keypress(m),500,337798.30000019073,337798.09999990463,331947.08,331957,331963.896,337808.572,8,400,39,,ISIC_9622250.JPG
break,html.Screen,4_38_1,2023-09-13T15:51:25.775Z,,0,,,NaN,,,,,,false,,,,337799.09999990463,337798.80000019073,,337798.5,,337808.572,8,400,,,
break_continue,html.Screen,4_38_2,2023-09-13T15:51:25.775Z,,0,,,NaN,,,,,,false,,,,337799.19999980927,337799.19999980927,,337799.09999990463,,337808.572,8,400,,,
sequence,flow.Sequence,4_38,2023-09-13T15:51:25.775Z,,0,,,5835.303999809257,completion,,,,,false,,,,337799.30000019073,337799.19999980927,331947.08,331957,331963.896,337808.572,8,400,,,
trial,html.Screen,4_39_0,2023-09-13T15:51:31.425Z,,0,1,,5640.428000000014,response,ISIC_0008393.JPG,6,ISIC_2612661.JPG,ISIC_0008393.JPG,false,1,keypress(m),500,343449.09999990463,343449,337791.939,337799.40000009537,337808.572,343452.837,8,400,40,,ISIC_2612661.JPG
break,html.Screen,4_39_1,2023-09-13T15:51:31.426Z,,0,,,NaN,,,,,,false,,,,343449.5,343449.40000009537,,343449.19999980927,,343452.837,8,400,,,
break_continue,html.Screen,4_39_2,2023-09-13T15:51:31.426Z,,0,,,NaN,,,,,,false,,,,343449.69999980927,343449.59999990463,,343449.59999990463,,343452.837,8,400,,,
sequence,flow.Sequence,4_39,2023-09-13T15:51:31.426Z,,0,,,5641.027999904647,completion,,,,,false,,,,343449.80000019073,343449.59999990463,337791.939,337799.40000009537,337808.572,343452.837,8,400,,,
trial,html.Screen,4_40_0,2023-09-13T15:51:36.597Z,,0,1,,5166.262999904633,response,ISIC_0055826.JPG,7,ISIC_0025238.JPG,ISIC_0055826.JPG,false,1,keypress(m),500,348619.19999980927,348619.09999990463,343436.097,343449.90000009537,343452.837,348629.623,8,400,41,,ISIC_0025238.JPG
break,html.Screen,4_40_1,2023-09-13T15:51:36.598Z,,0,,,NaN,,,,,,false,,,,348619.90000009537,348619.69999980927,,348619.40000009537,,348629.623,8,400,,,
break_continue,html.Screen,4_40_2,2023-09-13T15:51:36.598Z,,0,,,NaN,,,,,,false,,,,348620.30000019073,348620.19999980927,,348620.09999990463,,348629.623,8,400,,,
sequence,flow.Sequence,4_40,2023-09-13T15:51:36.598Z,,0,,,5167.362999809266,completion,,,,,false,,,,348620.40000009537,348620.19999980927,343436.097,343449.90000009537,343452.837,348629.623,8,400,,,
trial,html.Screen,4_41_0,2023-09-13T15:51:42.664Z,,0,1,,6056.777000095346,response,ISIC_1619470.JPG,5,ISIC_8510848.JPG,ISIC_1619470.JPG,false,1,keypress(m),500,354686.5,354686.40000009537,348612.872,348620.40000009537,348629.623,354691.325,8,400,42,,ISIC_8510848.JPG
break,html.Screen,4_41_1,2023-09-13T15:51:42.665Z,,0,,,NaN,,,,,,false,,,,354687,354686.90000009537,,354686.59999990463,,354691.325,8,400,,,
break_continue,html.Screen,4_41_2,2023-09-13T15:51:42.665Z,,0,,,NaN,,,,,,false,,,,354687.19999980927,354687.09999990463,,354687,,354691.325,8,400,,,
sequence,flow.Sequence,4_41,2023-09-13T15:51:42.665Z,,0,,,6057.476999904611,completion,,,,,false,,,,354687.19999980927,354687.09999990463,348612.872,348620.40000009537,348629.623,354691.325,8,400,,,
trial,html.Screen,4_42_0,2023-09-13T15:51:48.291Z,,0,1,,5621.274999904621,response,ISIC_7806926.JPG,4,ISIC_0026150.JPG,ISIC_7806926.JPG,false,1,keypress(m),500,360312.69999980927,360312.59999990463,354674.815,354687.30000019073,354691.325,360318.949,8,400,43,,ISIC_0026150.JPG
break,html.Screen,4_42_1,2023-09-13T15:51:48.291Z,,0,,,NaN,,,,,,false,,,,360313.09999990463,360313,,360312.80000019073,,360318.949,8,400,,,
break_continue,html.Screen,4_42_2,2023-09-13T15:51:48.291Z,,0,,,NaN,,,,,,false,,,,360313.30000019073,360313.19999980927,,360313.09999990463,,360318.949,8,400,,,
sequence,flow.Sequence,4_42,2023-09-13T15:51:48.291Z,,0,,,5621.8749998092535,completion,,,,,false,,,,360313.30000019073,360313.19999980927,354674.815,354687.19999980927,354691.325,360318.949,8,400,,,
trial,html.Screen,4_43_0,2023-09-13T15:51:52.869Z,,0,1,,4571.550999999978,response,ISIC_0028520.JPG,5,ISIC_0027600.JPG,ISIC_0027600.JPG,false,0,keypress(z),500,364890.69999980927,364890.5,360302.431,360313.5,360318.949,364894.6,8,400,44,,ISIC_0028520.JPG
break,html.Screen,4_43_1,2023-09-13T15:51:52.869Z,,0,,,NaN,,,,,,false,,,,364891.30000019073,364891.09999990463,,364890.80000019073,,364894.6,8,400,,,
break_continue,html.Screen,4_43_2,2023-09-13T15:51:52.870Z,,0,,,NaN,,,,,,false,,,,364891.59999990463,364891.5,,364891.40000009537,,364894.6,8,400,,,
sequence,flow.Sequence,4_43,2023-09-13T15:51:52.870Z,,0,,,4572.550999999978,completion,,,,,false,,,,364891.69999980927,364891.5,360302.431,360313.40000009537,360318.949,364894.6,8,400,,,
trial,html.Screen,4_44_0,2023-09-13T15:51:58.382Z,,0,1,,5509.499999904656,response,ISIC_2893340.JPG,6,ISIC_0011546.JPG,ISIC_2893340.JPG,false,1,keypress(m),500,370404.19999980927,370404.09999990463,364877.913,364891.69999980927,364894.6,370405.223,8,400,45,,ISIC_0011546.JPG
break,html.Screen,4_44_1,2023-09-13T15:51:58.383Z,,0,,,NaN,,,,,,false,,,,370404.59999990463,370404.59999990463,,370404.30000019073,,370405.223,8,400,,,
break_continue,html.Screen,4_44_2,2023-09-13T15:51:58.383Z,,0,,,NaN,,,,,,false,,,,370404.80000019073,370404.80000019073,,370404.69999980927,,370405.223,8,400,,,
sequence,flow.Sequence,4_44,2023-09-13T15:51:58.383Z,,0,,,5510.200000190758,completion,,,,,false,,,,370404.90000009537,370404.80000019073,364877.913,364891.69999980927,364894.6,370405.223,8,400,,,
trial,html.Screen,4_45_0,2023-09-13T15:52:03.041Z,,0,1,,4657.177000095369,response,ISIC_0176781.JPG,5,ISIC_0033946.JPG,ISIC_0176781.JPG,false,1,keypress(m),500,375062.59999990463,375062.40000009537,370388.551,370405,370405.223,375064.292,8,400,46,,ISIC_0033946.JPG
break,html.Screen,4_45_1,2023-09-13T15:52:03.041Z,,0,,,NaN,,,,,,false,,,,375063.19999980927,375062.90000009537,,375062.80000019073,,375064.292,8,400,,,
break_continue,html.Screen,4_45_2,2023-09-13T15:52:03.041Z,,0,,,NaN,,,,,,false,,,,375063.5,375063.40000009537,,375063.19999980927,,375064.292,8,400,,,
sequence,flow.Sequence,4_45,2023-09-13T15:52:03.042Z,,0,,,4658.177000095369,completion,,,,,false,,,,375063.69999980927,375063.40000009537,370388.551,370404.90000009537,370405.223,375064.292,8,400,,,
trial,html.Screen,4_46_0,2023-09-13T15:52:07.236Z,,0,1,,4193.108000095352,response,ISIC_0028584.JPG,5,ISIC_2075372.JPG,ISIC_2075372.JPG,false,0,keypress(z),500,379257.59999990463,379257.40000009537,375047.705,375063.80000019073,375064.292,379272.644,8,400,47,,ISIC_0028584.JPG
break,html.Screen,4_46_1,2023-09-13T15:52:07.236Z,,0,,,NaN,,,,,,false,,,,379258.30000019073,379257.90000009537,,379257.69999980927,,379272.644,8,400,,,
break_continue,html.Screen,4_46_2,2023-09-13T15:52:07.237Z,,0,,,NaN,,,,,,false,,,,379258.5,379258.5,,379258.40000009537,,379272.644,8,400,,,
sequence,flow.Sequence,4_46,2023-09-13T15:52:07.237Z,,0,,,4194.207999999984,completion,,,,,false,,,,379258.69999980927,379258.5,375047.705,375063.80000019073,375064.292,379272.644,8,400,,,
trial,html.Screen,4_47_0,2023-09-13T15:52:14.235Z,,0,1,,6984.756000095396,response,ISIC_5776158.JPG,5,ISIC_1971254.JPG,ISIC_5776158.JPG,false,1,keypress(m),500,386257.59999990463,386257.40000009537,379255.897,379258.69999980927,379272.644,386269.433,8,400,48,,ISIC_1971254.JPG
break,html.Screen,4_47_1,2023-09-13T15:52:14.236Z,,0,,,NaN,,,,,,false,,,,386257.90000009537,386257.80000019073,,386257.59999990463,,386269.433,8,400,,,
break_continue,html.Screen,4_47_2,2023-09-13T15:52:14.236Z,,0,,,NaN,,,,,,false,,,,386258.09999990463,386258,,386258,,386269.433,8,400,,,
sequence,flow.Sequence,4_47,2023-09-13T15:52:14.236Z,,0,,,6985.356000000029,completion,,,,,false,,,,386258.09999990463,386258,379255.897,379258.69999980927,379272.644,386269.433,8,400,,,
trial,html.Screen,4_48_0,2023-09-13T15:52:21.550Z,,0,1,,7302.1669999046135,response,ISIC_9978498.JPG,5,ISIC_4066726.JPG,ISIC_4066726.JPG,false,0,keypress(z),500,393571.69999980927,393571.59999990463,386252.926,386258.19999980927,386269.433,393583.672,8,400,49,,ISIC_9978498.JPG
break,html.Screen,4_48_1,2023-09-13T15:52:21.550Z,,0,,,NaN,,,,,,false,,,,393572.30000019073,393572.19999980927,,393571.90000009537,,393583.672,8,400,,,
break_continue,html.Screen,4_48_2,2023-09-13T15:52:21.550Z,,0,,,NaN,,,,,,false,,,,393572.59999990463,393572.40000009537,,393572.40000009537,,393583.672,8,400,,,
sequence,flow.Sequence,4_48,2023-09-13T15:52:21.551Z,,0,,,7302.967000095348,completion,,,,,false,,,,393572.69999980927,393572.40000009537,386252.926,386258.19999980927,386269.433,393583.672,8,400,,,
trial,html.Screen,4_49_0,2023-09-13T15:52:27.216Z,,0,1,,5654.3279999999795,response,ISIC_0679553.JPG,5,ISIC_0010098.JPG,ISIC_0679553.JPG,false,1,keypress(m),500,399238.09999990463,399238,393567.051,393572.69999980927,393583.672,399244.865,8,400,50,,ISIC_0010098.JPG
break,html.Screen,4_49_1,2023-09-13T15:52:37.212Z,,0,,,10002.79800000001,timeout,,,,,false,,,,409232.80000019073,409231.078,399228.191,399238.30000019073,399244.865,409247.663,8,400,,,
break_continue,html.Screen,4_49_2,2023-09-13T15:54:43.907Z,,0,,,126665.23700009537,response,,,,,false,continue,keypress(Space),,535925.5,535912.9000000954,409231.078,409233.5,409247.663,535944.104,8,400,,,
sequence,flow.Sequence,4_49,2023-09-13T15:54:43.907Z,,0,,,142329.22800009535,completion,,,,,false,,,,535925.6999998093,535912.9000000954,393567.051,393572.69999980927,393583.672,535944.104,8,400,,,
trial,html.Screen,4_50_0,2023-09-13T15:54:48.230Z,,0,2,,4303.995999904582,response,ISIC_0000148.JPG,5,ISIC_0028548.JPG,ISIC_0000148.JPG,false,1,keypress(m),500,540248.1999998093,540248.0999999046,535927.325,535925.6999998093,535944.104,540252.474,8,400,1,,ISIC_0028548.JPG
break,html.Screen,4_50_1,2023-09-13T15:54:48.230Z,,0,,,NaN,,,,,,false,,,,540248.6999998093,540248.5,,540248.3000001907,,540252.474,8,400,,,
break_continue,html.Screen,4_50_2,2023-09-13T15:54:48.230Z,,0,,,NaN,,,,,,false,,,,540248.8000001907,540248.8000001907,,540248.6999998093,,540252.474,8,400,,,
sequence,flow.Sequence,4_50,2023-09-13T15:54:48.231Z,,0,,,4304.696000190685,completion,,,,,false,,,,540248.9000000954,540248.8000001907,535927.325,535925.6999998093,535944.104,540252.474,8,400,,,
trial,html.Screen,4_51_0,2023-09-13T15:54:53.372Z,,0,2,,5137.2259998092195,response,ISIC_0059041.JPG,5,ISIC_8764464.JPG,ISIC_8764464.JPG,false,0,keypress(z),500,545389.9000000954,545389.6999998093,540235.791,540248.9000000954,540252.474,545395.835,8,400,2,,ISIC_0059041.JPG
break,html.Screen,4_51_1,2023-09-13T15:54:53.372Z,,0,,,NaN,,,,,,false,,,,545390.6999998093,545390.5,,545390.1999998093,,545395.835,8,400,,,
break_continue,html.Screen,4_51_2,2023-09-13T15:54:53.373Z,,0,,,NaN,,,,,,false,,,,545391,545390.9000000954,,545390.8000001907,,545395.835,8,400,,,
sequence,flow.Sequence,4_51,2023-09-13T15:54:53.373Z,,0,,,5138.426000095322,completion,,,,,false,,,,545391.1999998093,545390.9000000954,540235.791,540248.9000000954,540252.474,545395.835,8,400,,,
trial,html.Screen,4_52_0,2023-09-13T15:54:59.440Z,,0,2,,6061.864999809302,response,ISIC_2616719.JPG,4,ISIC_0059314.JPG,ISIC_2616719.JPG,false,1,keypress(m),500,551457.9000000954,551457.6999998093,545379.097,545391.3000001907,545395.835,551474.426,8,400,3,,ISIC_0059314.JPG
break,html.Screen,4_52_1,2023-09-13T15:54:59.440Z,,0,,,NaN,,,,,,false,,,,551458.4000000954,551458.3000001907,,551458.0999999046,,551474.426,8,400,,,
break_continue,html.Screen,4_52_2,2023-09-13T15:54:59.440Z,,0,,,NaN,,,,,,false,,,,551458.6999998093,551458.5999999046,,551458.5,,551474.426,8,400,,,
sequence,flow.Sequence,4_52,2023-09-13T15:54:59.441Z,,0,,,6062.76499990467,completion,,,,,false,,,,551458.9000000954,551458.5999999046,545379.097,545391.3000001907,545395.835,551474.426,8,400,,,
trial,html.Screen,4_53_0,2023-09-13T15:55:05.082Z,,0,2,,5625.173999904655,response,ISIC_0058303.JPG,5,ISIC_0592973.JPG,ISIC_0592973.JPG,false,0,keypress(z),500,557099.8000001907,557099.5999999046,551457.664,551458.9000000954,551474.426,557101.941,8,400,4,,ISIC_0058303.JPG
break,html.Screen,4_53_1,2023-09-13T15:55:05.082Z,,0,,,NaN,,,,,,false,,,,557100.6999998093,557100.5,,557100.0999999046,,557101.941,8,400,,,
break_continue,html.Screen,4_53_2,2023-09-13T15:55:05.083Z,,0,,,NaN,,,,,,false,,,,557101,557100.9000000954,,557100.8000001907,,557101.941,8,400,,,
sequence,flow.Sequence,4_53,2023-09-13T15:55:05.083Z,,0,,,5626.47400009539,completion,,,,,false,,,,557101.0999999046,557100.9000000954,551457.664,551458.9000000954,551474.426,557101.941,8,400,,,
trial,html.Screen,4_54_0,2023-09-13T15:55:10.044Z,,0,2,,4960.559000000008,response,ISIC_0239178.JPG,6,ISIC_0010915.JPG,ISIC_0239178.JPG,false,1,keypress(m),500,562062.5999999046,562062.5,557085.209,557101.1999998093,557101.941,562078.408,8,400,5,,ISIC_0010915.JPG
break,html.Screen,4_54_1,2023-09-13T15:55:10.045Z,,0,,,NaN,,,,,,false,,,,562063.0999999046,562062.9000000954,,562062.6999998093,,562078.408,8,400,,,
break_continue,html.Screen,4_54_2,2023-09-13T15:55:10.045Z,,0,,,NaN,,,,,,false,,,,562063.3000001907,562063.3000001907,,562063.1999998093,,562078.408,8,400,,,
sequence,flow.Sequence,4_54,2023-09-13T15:55:10.045Z,,0,,,4961.359000190743,completion,,,,,false,,,,562063.4000000954,562063.3000001907,557085.209,557101.1999998093,557101.941,562078.408,8,400,,,
trial,html.Screen,4_55_0,2023-09-13T15:55:14.720Z,,0,2,,4657.591999999946,response,ISIC_0033180.JPG,5,ISIC_0010761.JPG,ISIC_0033180.JPG,false,1,keypress(m),500,566736.0999999046,566736,562061.588,562063.4000000954,562078.408,566737.313,8,400,6,,ISIC_0010761.JPG
break,html.Screen,4_55_1,2023-09-13T15:55:14.720Z,,0,,,NaN,,,,,,false,,,,566736.5999999046,566736.5,,566736.3000001907,,566737.313,8,400,,,
break_continue,html.Screen,4_55_2,2023-09-13T15:55:14.720Z,,0,,,NaN,,,,,,false,,,,566736.8000001907,566736.8000001907,,566736.8000001907,,566737.313,8,400,,,
sequence,flow.Sequence,4_55,2023-09-13T15:55:14.720Z,,0,,,4658.392000190681,completion,,,,,false,,,,566736.9000000954,566736.8000001907,562061.588,562063.4000000954,562078.408,566737.313,8,400,,,
trial,html.Screen,4_56_0,2023-09-13T15:55:19.844Z,,0,2,,5123.587000095402,response,ISIC_9108776.JPG,5,ISIC_5656921.JPG,ISIC_9108776.JPG,false,1,keypress(m),500,571861.0999999046,571860.9000000954,566720.63,566737,566737.313,571863.919,8,400,7,,ISIC_5656921.JPG
break,html.Screen,4_56_1,2023-09-13T15:55:19.845Z,,0,,,NaN,,,,,,false,,,,571861.8000001907,571861.5,,571861.0999999046,,571863.919,8,400,,,
break_continue,html.Screen,4_56_2,2023-09-13T15:55:19.846Z,,0,,,NaN,,,,,,false,,,,571862.0999999046,571862.0999999046,,571861.9000000954,,571863.919,8,400,,,
sequence,flow.Sequence,4_56,2023-09-13T15:55:19.846Z,,0,,,5124.786999904667,completion,,,,,false,,,,571862.1999998093,571862.0999999046,566720.63,566737,566737.313,571863.919,8,400,,,
trial,html.Screen,4_57_0,2023-09-13T15:55:24.702Z,,0,2,,4853.981000095373,response,ISIC_2146346.JPG,5,ISIC_0010925.JPG,ISIC_2146346.JPG,false,1,keypress(m),500,576718.0999999046,576717.9000000954,571847.346,571862.1999998093,571863.919,576740.166,8,400,8,,ISIC_0010925.JPG
break,html.Screen,4_57_1,2023-09-13T15:55:24.702Z,,0,,,NaN,,,,,,false,,,,576718.8000001907,576718.5,,576718.1999998093,,576740.166,8,400,,,
break_continue,html.Screen,4_57_2,2023-09-13T15:55:24.703Z,,0,,,NaN,,,,,,false,,,,576719.0999999046,576719,,576718.9000000954,,576740.166,8,400,,,
sequence,flow.Sequence,4_57,2023-09-13T15:55:24.703Z,,0,,,4855.081000000006,completion,,,,,false,,,,576719.1999998093,576719,571847.346,571862.1999998093,571863.919,576740.166,8,400,,,
trial,html.Screen,4_58_0,2023-09-13T15:55:30.344Z,,0,2,,5619.834000000032,response,ISIC_2940684.JPG,5,ISIC_0027817.JPG,ISIC_0027817.JPG,false,0,keypress(z),500,582360.1999998093,582360,576723.634,576719.3000001907,576740.166,582367.825,8,400,9,,ISIC_2940684.JPG
break,html.Screen,4_58_1,2023-09-13T15:55:30.344Z,,0,,,NaN,,,,,,false,,,,582360.8000001907,582360.6999998093,,582360.3000001907,,582367.825,8,400,,,
break_continue,html.Screen,4_58_2,2023-09-13T15:55:30.344Z,,0,,,NaN,,,,,,false,,,,582361,582361,,582360.8000001907,,582367.825,8,400,,,
sequence,flow.Sequence,4_58,2023-09-13T15:55:30.344Z,,0,,,5620.834000000032,completion,,,,,false,,,,582361.0999999046,582361,576723.634,576719.3000001907,576740.166,582367.825,8,400,,,
trial,html.Screen,4_59_0,2023-09-13T15:55:34.826Z,,0,2,,4474.575000095414,response,ISIC_4118762.JPG,5,ISIC_0027089.JPG,ISIC_4118762.JPG,false,1,keypress(m),500,586842.5,586842.4000000954,582351.132,582361.0999999046,582367.825,586843.109,8,400,10,,ISIC_0027089.JPG
break,html.Screen,4_59_1,2023-09-13T15:55:34.826Z,,0,,,NaN,,,,,,false,,,,586843.0999999046,586842.9000000954,,586842.5999999046,,586843.109,8,400,,,
break_continue,html.Screen,4_59_2,2023-09-13T15:55:34.827Z,,0,,,NaN,,,,,,false,,,,586843.5999999046,586843.5,,586843.1999998093,,586843.109,8,400,,,
sequence,flow.Sequence,4_59,2023-09-13T15:55:34.827Z,,0,,,4475.675000000047,completion,,,,,false,,,,586843.8000001907,586843.5,582351.132,582361.0999999046,582367.825,586843.109,8,400,,,
trial,html.Screen,4_60_0,2023-09-13T15:55:40.339Z,,0,2,,5512.59099980921,response,ISIC_0062234.JPG,4,ISIC_0061343.JPG,ISIC_0061343.JPG,false,0,keypress(z),500,592355.8000001907,592355.6999998093,586826.496,586843.8000001907,586843.109,592387.211,8,400,11,,ISIC_0062234.JPG
break,html.Screen,4_60_1,2023-09-13T15:55:40.340Z,,0,,,NaN,,,,,,false,,,,592356.1999998093,592356.0999999046,,592355.9000000954,,592387.211,8,400,,,
break_continue,html.Screen,4_60_2,2023-09-13T15:55:40.340Z,,0,,,NaN,,,,,,false,,,,592356.3000001907,592356.3000001907,,592356.1999998093,,592387.211,8,400,,,
sequence,flow.Sequence,4_60,2023-09-13T15:55:40.340Z,,0,,,5513.19100019068,completion,,,,,false,,,,592356.4000000954,592356.3000001907,586826.496,586843.8000001907,586843.109,592387.211,8,400,,,
trial,html.Screen,4_61_0,2023-09-13T15:55:45.561Z,,0,2,,5189.988999809255,response,ISIC_0070217.JPG,5,ISIC_0010350.JPG,ISIC_0010350.JPG,false,0,keypress(z),500,597577.3000001907,597577.1999998093,592370.63,592356.5,592387.211,597580.68,8,400,12,,ISIC_0070217.JPG
break,html.Screen,4_61_1,2023-09-13T15:55:45.561Z,,0,,,NaN,,,,,,false,,,,597577.8000001907,597577.6999998093,,597577.4000000954,,597580.68,8,400,,,
break_continue,html.Screen,4_61_2,2023-09-13T15:55:45.561Z,,0,,,NaN,,,,,,false,,,,597578,597577.9000000954,,597577.8000001907,,597580.68,8,400,,,
sequence,flow.Sequence,4_61,2023-09-13T15:55:45.561Z,,0,,,5190.689000095357,completion,,,,,false,,,,597578,597577.9000000954,592370.63,592356.5,592387.211,597580.68,8,400,,,
trial,html.Screen,4_62_0,2023-09-13T15:55:50.636Z,,0,2,,5071.319999999949,response,ISIC_8292279.JPG,5,ISIC_0033432.JPG,ISIC_8292279.JPG,false,1,keypress(m),500,602652.1999998093,602652,597564.069,597578.0999999046,597580.68,602657.303,8,400,13,,ISIC_0033432.JPG
break,html.Screen,4_62_1,2023-09-13T15:55:50.636Z,,0,,,NaN,,,,,,false,,,,602652.5999999046,602652.5999999046,,602652.3000001907,,602657.303,8,400,,,
break_continue,html.Screen,4_62_2,2023-09-13T15:55:50.636Z,,0,,,NaN,,,,,,false,,,,602653,602652.9000000954,,602652.8000001907,,602657.303,8,400,,,
sequence,flow.Sequence,4_62,2023-09-13T15:55:50.636Z,,0,,,5072.220000095316,completion,,,,,false,,,,602653.0999999046,602652.9000000954,597564.069,597578.0999999046,597580.68,602657.303,8,400,,,
trial,html.Screen,4_63_0,2023-09-13T15:55:55.246Z,,0,2,,4605.597000095411,response,ISIC_0009941.JPG,5,ISIC_2758999.JPG,ISIC_2758999.JPG,false,0,keypress(z),500,607262.9000000954,607262.9000000954,602640.63,602653.1999998093,602657.303,607266.196,8,400,14,,ISIC_0009941.JPG
break,html.Screen,4_63_1,2023-09-13T15:55:55.247Z,,0,,,NaN,,,,,,false,,,,607263.4000000954,607263.3000001907,,607263.0999999046,,607266.196,8,400,,,
break_continue,html.Screen,4_63_2,2023-09-13T15:55:55.247Z,,0,,,NaN,,,,,,false,,,,607263.5999999046,607263.5,,607263.4000000954,,607266.196,8,400,,,
sequence,flow.Sequence,4_63,2023-09-13T15:55:55.247Z,,0,,,4606.197000000044,completion,,,,,false,,,,607263.6999998093,607263.5,602640.63,602653.1999998093,602657.303,607266.196,8,400,,,
trial,html.Screen,4_64_0,2023-09-13T15:56:00.726Z,,0,2,,5476.503999809269,response,ISIC_0010313.JPG,5,ISIC_0000546.JPG,ISIC_0010313.JPG,false,1,keypress(m),500,612742.8000001907,612742.6999998093,607249.571,607263.6999998093,607266.196,612743.498,8,400,15,,ISIC_0000546.JPG
break,html.Screen,4_64_1,2023-09-13T15:56:00.727Z,,0,,,NaN,,,,,,false,,,,612743.5999999046,612743.4000000954,,612743,,612743.498,8,400,,,
break_continue,html.Screen,4_64_2,2023-09-13T15:56:00.728Z,,0,,,NaN,,,,,,false,,,,612744.3000001907,612744.0999999046,,612743.8000001907,,612743.498,8,400,,,
sequence,flow.Sequence,4_64,2023-09-13T15:56:00.728Z,,0,,,5477.903999904636,completion,,,,,false,,,,612744.3000001907,612744.0999999046,607249.571,607263.6999998093,607266.196,612743.498,8,400,,,
trial,html.Screen,4_65_0,2023-09-13T15:56:06.432Z,,0,2,,5705.001999999979,response,ISIC_5442578.JPG,5,ISIC_5065245.JPG,ISIC_5065245.JPG,false,0,keypress(z),500,618448.9000000954,618448.5,612726.827,612744.4000000954,612743.498,618454.79,8,400,16,,ISIC_5442578.JPG
break,html.Screen,4_65_1,2023-09-13T15:56:06.434Z,,0,,,NaN,,,,,,false,,,,618450.5,618450.3000001907,,618449.4000000954,,618454.79,8,400,,,
break_continue,html.Screen,4_65_2,2023-09-13T15:56:06.434Z,,0,,,NaN,,,,,,false,,,,618450.6999998093,618450.5999999046,,618450.5,,618454.79,8,400,,,
sequence,flow.Sequence,4_65,2023-09-13T15:56:06.434Z,,0,,,5707.101999904611,completion,,,,,false,,,,618450.8000001907,618450.5999999046,612726.827,612744.4000000954,612743.498,618454.79,8,400,,,
trial,html.Screen,4_66_0,2023-09-13T15:56:11.396Z,,0,2,,4957.510000190698,response,ISIC_3234908.JPG,5,ISIC_0026043.JPG,ISIC_3234908.JPG,false,1,keypress(m),500,623412.5999999046,623412.3000001907,618438.014,618450.9000000954,618454.79,623414.394,8,400,17,,ISIC_0026043.JPG
break,html.Screen,4_66_1,2023-09-13T15:56:11.397Z,,0,,,NaN,,,,,,false,,,,623414,623413.5999999046,,623413,,623414.394,8,400,,,
break_continue,html.Screen,4_66_2,2023-09-13T15:56:11.398Z,,0,,,NaN,,,,,,false,,,,623414.8000001907,623414.5999999046,,623414.3000001907,,623414.394,8,400,,,
sequence,flow.Sequence,4_66,2023-09-13T15:56:11.399Z,,0,,,4959.809999904595,completion,,,,,false,,,,623415.0999999046,623414.5999999046,618438.014,618450.9000000954,618454.79,623414.394,8,400,,,
trial,html.Screen,4_67_0,2023-09-13T15:56:15.914Z,,0,2,,4515.006000095396,response,ISIC_0014288.JPG,4,ISIC_0056127.JPG,ISIC_0014288.JPG,false,1,keypress(m),500,627929.5,627929.4000000954,623397.658,623415.3000001907,623414.394,627939.793,8,400,18,,ISIC_0056127.JPG
break,html.Screen,4_67_1,2023-09-13T15:56:15.914Z,,0,,,NaN,,,,,,false,,,,627930,627929.8000001907,,627929.5999999046,,627939.793,8,400,,,
break_continue,html.Screen,4_67_2,2023-09-13T15:56:15.914Z,,0,,,NaN,,,,,,false,,,,627930.1999998093,627930.0999999046,,627930,,627939.793,8,400,,,
sequence,flow.Sequence,4_67,2023-09-13T15:56:15.915Z,,0,,,4515.705999904661,completion,,,,,false,,,,627930.1999998093,627930.0999999046,623397.658,623415.3000001907,623414.394,627939.793,8,400,,,
trial,html.Screen,4_68_0,2023-09-13T15:56:21.724Z,,0,2,,5800.1070000954205,response,ISIC_6996553.JPG,5,ISIC_0066150.JPG,ISIC_6996553.JPG,false,1,keypress(m),500,633740,633739.9000000954,627923.234,627930.1999998093,627939.793,633751.146,8,400,19,,ISIC_0066150.JPG
break,html.Screen,4_68_1,2023-09-13T15:56:21.725Z,,0,,,NaN,,,,,,false,,,,633740.5,633740.4000000954,,633740.0999999046,,633751.146,8,400,,,
break_continue,html.Screen,4_68_2,2023-09-13T15:56:21.725Z,,0,,,NaN,,,,,,false,,,,633740.8000001907,633740.8000001907,,633740.5999999046,,633751.146,8,400,,,
sequence,flow.Sequence,4_68,2023-09-13T15:56:21.725Z,,0,,,5801.007000190788,completion,,,,,false,,,,633740.9000000954,633740.8000001907,627923.234,627930.1999998093,627939.793,633751.146,8,400,,,
trial,html.Screen,4_69_0,2023-09-13T15:56:27.519Z,,0,2,,5783.654000190785,response,ISIC_6378169.JPG,5,ISIC_0014846.JPG,ISIC_6378169.JPG,false,1,keypress(m),500,639535,639534.8000001907,633734.424,633740.9000000954,633751.146,639545.658,8,400,20,,ISIC_0014846.JPG
break,html.Screen,4_69_1,2023-09-13T15:56:27.520Z,,0,,,NaN,,,,,,false,,,,639535.4000000954,639535.3000001907,,639535.0999999046,,639545.658,8,400,,,
break_continue,html.Screen,4_69_2,2023-09-13T15:56:27.520Z,,0,,,NaN,,,,,,false,,,,639535.5999999046,639535.5999999046,,639535.4000000954,,639545.658,8,400,,,
sequence,flow.Sequence,4_69,2023-09-13T15:56:27.520Z,,0,,,5784.453999904683,completion,,,,,false,,,,639535.6999998093,639535.5999999046,633734.424,633740.9000000954,633751.146,639545.658,8,400,,,
trial,html.Screen,4_70_0,2023-09-13T15:56:32.311Z,,0,2,,4780.941999904579,response,ISIC_3045939.JPG,5,ISIC_0234248.JPG,ISIC_3045939.JPG,false,1,keypress(m),500,644326.8000001907,644326.5999999046,639528.994,639535.8000001907,639545.658,644338.315,8,400,21,,ISIC_0234248.JPG
break,html.Screen,4_70_1,2023-09-13T15:56:32.312Z,,0,,,NaN,,,,,,false,,,,644327.3000001907,644327.0999999046,,644326.8000001907,,644338.315,8,400,,,
break_continue,html.Screen,4_70_2,2023-09-13T15:56:32.312Z,,0,,,NaN,,,,,,false,,,,644327.5,644327.5,,644327.3000001907,,644338.315,8,400,,,
sequence,flow.Sequence,4_70,2023-09-13T15:56:32.312Z,,0,,,4781.841999999946,completion,,,,,false,,,,644327.5999999046,644327.5,639528.994,639535.8000001907,639545.658,644338.315,8,400,,,
trial,html.Screen,4_71_0,2023-09-13T15:56:38.841Z,,0,2,,6518.585000095423,response,ISIC_6688417.JPG,5,ISIC_2208006.JPG,ISIC_6688417.JPG,false,1,keypress(m),500,650857.0999999046,650856.9000000954,644321.64,644327.6999998093,644338.315,650867.752,8,400,22,,ISIC_2208006.JPG
break,html.Screen,4_71_1,2023-09-13T15:56:38.842Z,,0,,,NaN,,,,,,false,,,,650857.4000000954,650857.3000001907,,650857.0999999046,,650867.752,8,400,,,
break_continue,html.Screen,4_71_2,2023-09-13T15:56:38.842Z,,0,,,NaN,,,,,,false,,,,650857.5999999046,650857.5999999046,,650857.5,,650867.752,8,400,,,
sequence,flow.Sequence,4_71,2023-09-13T15:56:38.842Z,,0,,,6519.284999904688,completion,,,,,false,,,,650857.5999999046,650857.5999999046,644321.64,644327.6999998093,644338.315,650867.752,8,400,,,
trial,html.Screen,4_72_0,2023-09-13T15:56:44.477Z,,0,2,,5624.847999904654,response,ISIC_0430356.JPG,5,ISIC_4885444.JPG,ISIC_4885444.JPG,false,0,keypress(z),500,656492.6999998093,656492.5999999046,650851.178,650857.6999998093,650867.752,656495.332,8,400,23,,ISIC_0430356.JPG
break,html.Screen,4_72_1,2023-09-13T15:56:44.477Z,,0,,,NaN,,,,,,false,,,,656493.0999999046,656493,,656492.8000001907,,656495.332,8,400,,,
break_continue,html.Screen,4_72_2,2023-09-13T15:56:44.478Z,,0,,,NaN,,,,,,false,,,,656493.3000001907,656493.1999998093,,656493.0999999046,,656495.332,8,400,,,
sequence,flow.Sequence,4_72,2023-09-13T15:56:44.478Z,,0,,,5625.447999809287,completion,,,,,false,,,,656493.4000000954,656493.1999998093,650851.178,650857.6999998093,650867.752,656495.332,8,400,,,
trial,html.Screen,4_73_0,2023-09-13T15:56:48.991Z,,0,2,,4511.167999999947,response,ISIC_4525317.JPG,5,ISIC_0027492.JPG,ISIC_0027492.JPG,false,0,keypress(z),500,661006.5999999046,661006.5,656478.698,656493.4000000954,656495.332,661020.858,8,400,24,,ISIC_4525317.JPG
break,html.Screen,4_73_1,2023-09-13T15:56:48.991Z,,0,,,NaN,,,,,,false,,,,661007.0999999046,661007,,661006.6999998093,,661020.858,8,400,,,
break_continue,html.Screen,4_73_2,2023-09-13T15:56:48.992Z,,0,,,NaN,,,,,,false,,,,661007.3000001907,661007.3000001907,,661007.1999998093,,661020.858,8,400,,,
sequence,flow.Sequence,4_73,2023-09-13T15:56:48.992Z,,0,,,4511.968000190682,completion,,,,,false,,,,661007.4000000954,661007.3000001907,656478.698,656493.4000000954,656495.332,661020.858,8,400,,,
trial,html.Screen,4_74_0,2023-09-13T15:56:55.559Z,,0,2,,6553.341999809258,response,ISIC_4024062.JPG,5,ISIC_0069970.JPG,ISIC_4024062.JPG,false,1,keypress(m),500,667574.1999998093,667574.1999998093,661004.051,661007.5,661020.858,667583.566,8,400,25,,ISIC_0069970.JPG
break,html.Screen,4_74_1,2023-09-13T15:56:55.559Z,,0,,,NaN,,,,,,false,,,,667574.5999999046,667574.5,,667574.3000001907,,667583.566,8,400,,,
break_continue,html.Screen,4_74_2,2023-09-13T15:56:55.559Z,,0,,,NaN,,,,,,false,,,,667574.8000001907,667574.6999998093,,667574.6999998093,,667583.566,8,400,,,
sequence,flow.Sequence,4_74,2023-09-13T15:56:55.559Z,,0,,,6553.841999809258,completion,,,,,false,,,,667574.9000000954,667574.6999998093,661004.051,661007.5,661020.858,667583.566,8,400,,,
trial,html.Screen,4_75_0,2023-09-13T15:57:01.532Z,,0,2,,5963.533999904641,response,ISIC_0054355.JPG,4,ISIC_7139908.JPG,ISIC_7139908.JPG,false,0,keypress(z),500,673547.3000001907,673547.0999999046,667566.963,667575,667583.566,673561.945,8,400,26,,ISIC_0054355.JPG
break,html.Screen,4_75_1,2023-09-13T15:57:01.532Z,,0,,,NaN,,,,,,false,,,,673548,673547.8000001907,,673547.5999999046,,673561.945,8,400,,,
break_continue,html.Screen,4_75_2,2023-09-13T15:57:01.533Z,,0,,,NaN,,,,,,false,,,,673548.0999999046,673548.0999999046,,673548,,673561.945,8,400,,,
sequence,flow.Sequence,4_75,2023-09-13T15:57:01.533Z,,0,,,5964.533999904641,completion,,,,,false,,,,673548.1999998093,673548.0999999046,667566.963,667575,667583.566,673561.945,8,400,,,
trial,html.Screen,4_76_0,2023-09-13T15:57:05.998Z,,0,2,,4451.754999809316,response,ISIC_1075605.JPG,5,ISIC_2826618.JPG,ISIC_1075605.JPG,false,1,keypress(m),500,678013.8000001907,678013.6999998093,673545.253,673548.4000000954,673561.945,678020.655,8,400,27,,ISIC_2826618.JPG
break,html.Screen,4_76_1,2023-09-13T15:57:05.999Z,,0,,,NaN,,,,,,false,,,,678014.5999999046,678014.3000001907,,678014,,678020.655,8,400,,,
break_continue,html.Screen,4_76_2,2023-09-13T15:57:05.999Z,,0,,,NaN,,,,,,false,,,,678014.9000000954,678014.8000001907,,678014.5999999046,,678020.655,8,400,,,
sequence,flow.Sequence,4_76,2023-09-13T15:57:05.999Z,,0,,,4452.855000190786,completion,,,,,false,,,,678014.9000000954,678014.8000001907,673545.253,673548.3000001907,673561.945,678020.655,8,400,,,
trial,html.Screen,4_77_0,2023-09-13T15:57:12.529Z,,0,2,,6523.444999904605,response,ISIC_0025085.JPG,4,ISIC_0028018.JPG,ISIC_0025085.JPG,false,1,keypress(m),500,684544.1999998093,684544.0999999046,678003.925,678014.9000000954,678020.655,684549.889,8,400,28,,ISIC_0028018.JPG
break,html.Screen,4_77_1,2023-09-13T15:57:12.529Z,,0,,,NaN,,,,,,false,,,,684544.5999999046,684544.5,,684544.3000001907,,684549.889,8,400,,,
break_continue,html.Screen,4_77_2,2023-09-13T15:57:12.529Z,,0,,,NaN,,,,,,false,,,,684544.8000001907,684544.8000001907,,684544.6999998093,,684549.889,8,400,,,
sequence,flow.Sequence,4_77,2023-09-13T15:57:12.529Z,,0,,,6524.145000190707,completion,,,,,false,,,,684544.9000000954,684544.8000001907,678003.925,678014.9000000954,678020.655,684549.889,8,400,,,
trial,html.Screen,4_78_0,2023-09-13T15:57:18.967Z,,0,2,,6430.810999809299,response,ISIC_1628539.JPG,7,ISIC_0015401.JPG,ISIC_0015401.JPG,false,0,keypress(z),500,690980.8000001907,690980.6999998093,684533.235,684545,684549.889,690995.753,8,400,29,,ISIC_1628539.JPG
break,html.Screen,4_78_1,2023-09-13T15:57:18.968Z,,0,,,NaN,,,,,,false,,,,690981.4000000954,690981.1999998093,,690981,,690995.753,8,400,,,
break_continue,html.Screen,4_78_2,2023-09-13T15:57:18.968Z,,0,,,NaN,,,,,,false,,,,690981.5999999046,690981.5,,690981.4000000954,,690995.753,8,400,,,
sequence,flow.Sequence,4_78,2023-09-13T15:57:18.968Z,,0,,,6431.6110000000335,completion,,,,,false,,,,690981.6999998093,690981.5,684533.235,684545,684549.889,690995.753,8,400,,,
trial,html.Screen,4_79_0,2023-09-13T15:57:23.130Z,,0,2,,4148.147000095341,response,ISIC_0070852.JPG,6,ISIC_6108795.JPG,ISIC_6108795.JPG,false,0,keypress(z),500,695144,695143.9000000954,690979.188,690981.8000001907,690995.753,695153.907,8,400,30,,ISIC_0070852.JPG
break,html.Screen,4_79_1,2023-09-13T15:57:23.131Z,,0,,,NaN,,,,,,false,,,,695144.5,695144.4000000954,,695144.0999999046,,695153.907,8,400,,,
break_continue,html.Screen,4_79_2,2023-09-13T15:57:23.131Z,,0,,,NaN,,,,,,false,,,,695144.6999998093,695144.5999999046,,695144.5,,695153.907,8,400,,,
sequence,flow.Sequence,4_79,2023-09-13T15:57:23.131Z,,0,,,4148.8469999046065,completion,,,,,false,,,,695144.6999998093,695144.5999999046,690979.188,690981.8000001907,690995.753,695153.907,8,400,,,
trial,html.Screen,4_80_0,2023-09-13T15:57:28.429Z,,0,2,,5288.393000190728,response,ISIC_6731470.JPG,6,ISIC_7296201.JPG,ISIC_6731470.JPG,false,1,keypress(m),500,700442.4000000954,700442.3000001907,695137.178,695144.6999998093,695153.907,700447.533,8,400,31,,ISIC_7296201.JPG
break,html.Screen,4_80_1,2023-09-13T15:57:28.429Z,,0,,,NaN,,,,,,false,,,,700442.8000001907,700442.6999998093,,700442.5,,700447.533,8,400,,,
break_continue,html.Screen,4_80_2,2023-09-13T15:57:28.429Z,,0,,,NaN,,,,,,false,,,,700443,700442.9000000954,,700442.9000000954,,700447.533,8,400,,,
sequence,flow.Sequence,4_80,2023-09-13T15:57:28.429Z,,0,,,5288.993000095361,completion,,,,,false,,,,700443.0999999046,700442.9000000954,695137.178,695144.6999998093,695153.907,700447.533,8,400,,,
trial,html.Screen,4_81_0,2023-09-13T15:57:32.574Z,,0,2,,4140.267000190681,response,ISIC_3762459.JPG,5,ISIC_0001105.JPG,ISIC_3762459.JPG,false,1,keypress(m),500,704587.9000000954,704587.8000001907,700430.852,700443.0999999046,700447.533,704588.932,8,400,32,,ISIC_0001105.JPG
break,html.Screen,4_81_1,2023-09-13T15:57:32.575Z,,0,,,NaN,,,,,,false,,,,704588.4000000954,704588.1999998093,,704588,,704588.932,8,400,,,
break_continue,html.Screen,4_81_2,2023-09-13T15:57:32.575Z,,0,,,NaN,,,,,,false,,,,704588.5999999046,704588.5,,704588.4000000954,,704588.932,8,400,,,
sequence,flow.Sequence,4_81,2023-09-13T15:57:32.575Z,,0,,,4140.966999999946,completion,,,,,false,,,,704588.6999998093,704588.5,700430.852,700443.0999999046,700447.533,704588.932,8,400,,,
trial,html.Screen,4_82_0,2023-09-13T15:57:37.152Z,,0,2,,4576.968000095338,response,ISIC_0058716.JPG,4,ISIC_3046905.JPG,ISIC_0058716.JPG,false,1,keypress(m),500,709166,709165.9000000954,704572.379,704588.9000000954,704588.932,709181.259,8,400,33,,ISIC_3046905.JPG
break,html.Screen,4_82_1,2023-09-13T15:57:37.153Z,,0,,,NaN,,,,,,false,,,,709166.8000001907,709166.5,,709166.0999999046,,709181.259,8,400,,,
break_continue,html.Screen,4_82_2,2023-09-13T15:57:37.153Z,,0,,,NaN,,,,,,false,,,,709167.0999999046,709167,,709166.9000000954,,709181.259,8,400,,,
sequence,flow.Sequence,4_82,2023-09-13T15:57:37.154Z,,0,,,4578.06799999997,completion,,,,,false,,,,709167.1999998093,709167,704572.379,704588.9000000954,704588.932,709181.259,8,400,,,
trial,html.Screen,4_83_0,2023-09-13T15:57:42.104Z,,0,2,,4936.641000095406,response,ISIC_3591332.JPG,5,ISIC_0033091.JPG,ISIC_0033091.JPG,false,0,keypress(z),500,714118,714117.9000000954,709164.581,709167.1999998093,709181.259,714124.28,8,400,34,,ISIC_3591332.JPG
break,html.Screen,4_83_1,2023-09-13T15:57:42.105Z,,0,,,NaN,,,,,,false,,,,714118.5999999046,714118.4000000954,,714118.0999999046,,714124.28,8,400,,,
break_continue,html.Screen,4_83_2,2023-09-13T15:57:42.105Z,,0,,,NaN,,,,,,false,,,,714119,714118.9000000954,,714118.6999998093,,714124.28,8,400,,,
sequence,flow.Sequence,4_83,2023-09-13T15:57:42.105Z,,0,,,4937.641000095406,completion,,,,,false,,,,714119,714118.9000000954,709164.581,709167.1999998093,709181.259,714124.28,8,400,,,
trial,html.Screen,4_84_0,2023-09-13T15:57:47.185Z,,0,2,,5073.819999904605,response,ISIC_8355344.JPG,5,ISIC_1495793.JPG,ISIC_8355344.JPG,false,1,keypress(m),500,719198.1999998093,719198.0999999046,714107.48,714119.0999999046,714124.28,719200.665,8,400,35,,ISIC_1495793.JPG
break,html.Screen,4_84_1,2023-09-13T15:57:47.185Z,,0,,,NaN,,,,,,false,,,,719198.6999998093,719198.5999999046,,719198.3000001907,,719200.665,8,400,,,
break_continue,html.Screen,4_84_2,2023-09-13T15:57:47.185Z,,0,,,NaN,,,,,,false,,,,719199,719199,,719198.8000001907,,719200.665,8,400,,,
sequence,flow.Sequence,4_84,2023-09-13T15:57:47.185Z,,0,,,5074.719999999972,completion,,,,,false,,,,719199,719199,714107.48,714119.0999999046,714124.28,719200.665,8,400,,,
trial,html.Screen,4_85_0,2023-09-13T15:57:52.936Z,,0,2,,5748.73500009533,response,ISIC_5980439.JPG,5,ISIC_0533930.JPG,ISIC_0533930.JPG,false,0,keypress(z),500,724949.6999998093,724949.4000000954,719184.183,719199.0999999046,719200.665,724961.913,8,400,36,,ISIC_5980439.JPG
break,html.Screen,4_85_1,2023-09-13T15:57:52.937Z,,0,,,NaN,,,,,,false,,,,724950.4000000954,724950.0999999046,,724949.8000001907,,724961.913,8,400,,,
break_continue,html.Screen,4_85_2,2023-09-13T15:57:52.937Z,,0,,,NaN,,,,,,false,,,,724950.6999998093,724950.5999999046,,724950.5,,724961.913,8,400,,,
sequence,flow.Sequence,4_85,2023-09-13T15:57:52.937Z,,0,,,5749.934999904595,completion,,,,,false,,,,724950.9000000954,724950.5999999046,719184.183,719199.0999999046,719200.665,724961.913,8,400,,,
trial,html.Screen,4_86_0,2023-09-13T15:57:59.005Z,,0,2,,6056.68699990469,response,ISIC_2129020.JPG,5,ISIC_0054573.JPG,ISIC_2129020.JPG,false,1,keypress(m),500,731018.8000001907,731018.5999999046,724945.268,724951,724961.913,731023.656,8,400,37,,ISIC_0054573.JPG
break,html.Screen,4_86_1,2023-09-13T15:57:59.005Z,,0,,,NaN,,,,,,false,,,,731019.0999999046,731019,,731018.9000000954,,731023.656,8,400,,,
break_continue,html.Screen,4_86_2,2023-09-13T15:57:59.006Z,,0,,,NaN,,,,,,false,,,,731019.3000001907,731019.1999998093,,731019.1999998093,,731023.656,8,400,,,
sequence,flow.Sequence,4_86,2023-09-13T15:57:59.006Z,,0,,,6057.286999809323,completion,,,,,false,,,,731019.3000001907,731019.1999998093,724945.268,724950.9000000954,724961.913,731023.656,8,400,,,
trial,html.Screen,4_87_0,2023-09-13T15:58:06.339Z,,0,2,,7328.844000000041,response,ISIC_9972518.JPG,5,ISIC_6162545.JPG,ISIC_9972518.JPG,false,1,keypress(m),500,738352.6999998093,738352.5,731007.175,731019.4000000954,731023.656,738354.655,8,400,38,,ISIC_6162545.JPG
break,html.Screen,4_87_1,2023-09-13T15:58:06.340Z,,0,,,NaN,,,,,,false,,,,738353.1999998093,738353.0999999046,,738352.8000001907,,738354.655,8,400,,,
break_continue,html.Screen,4_87_2,2023-09-13T15:58:06.340Z,,0,,,NaN,,,,,,false,,,,738353.5,738353.4000000954,,738353.3000001907,,738354.655,8,400,,,
sequence,flow.Sequence,4_87,2023-09-13T15:58:06.340Z,,0,,,7329.744000095408,completion,,,,,false,,,,738353.5,738353.4000000954,731007.175,731019.3000001907,731023.656,738354.655,8,400,,,
trial,html.Screen,4_88_0,2023-09-13T15:58:12.971Z,,0,2,,6628.145000190707,response,ISIC_3106058.JPG,5,ISIC_9860255.JPG,ISIC_9860255.JPG,false,0,keypress(z),500,744982.9000000954,744982.8000001907,738337.985,738353.5999999046,738354.655,744984.213,8,400,39,,ISIC_3106058.JPG
break,html.Screen,4_88_1,2023-09-13T15:58:12.971Z,,0,,,NaN,,,,,,false,,,,744983.4000000954,744983.3000001907,,744983,,744984.213,8,400,,,
break_continue,html.Screen,4_88_2,2023-09-13T15:58:12.972Z,,0,,,NaN,,,,,,false,,,,744983.9000000954,744983.8000001907,,744983.5999999046,,744984.213,8,400,,,
sequence,flow.Sequence,4_88,2023-09-13T15:58:12.972Z,,0,,,6629.145000190707,completion,,,,,false,,,,744984,744983.8000001907,738337.985,738353.5,738354.655,744984.213,8,400,,,
trial,html.Screen,4_89_0,2023-09-13T15:58:18.253Z,,0,2,,5280.386999904644,response,ISIC_0029033.JPG,6,ISIC_6517663.JPG,ISIC_6517663.JPG,false,0,keypress(z),500,750264.6999998093,750264.5999999046,744967.583,744984,744984.213,750277.851,8,400,40,,ISIC_0029033.JPG
break,html.Screen,4_89_1,2023-09-13T15:58:18.253Z,,0,,,NaN,,,,,,false,,,,750265.1999998093,750265,,750264.8000001907,,750277.851,8,400,,,
break_continue,html.Screen,4_89_2,2023-09-13T15:58:18.253Z,,0,,,NaN,,,,,,false,,,,750265.4000000954,750265.4000000954,,750265.1999998093,,750277.851,8,400,,,
sequence,flow.Sequence,4_89,2023-09-13T15:58:18.253Z,,0,,,5281.187000095379,completion,,,,,false,,,,750265.5,750265.4000000954,744967.583,744984,744984.213,750277.851,8,400,,,
trial,html.Screen,4_90_0,2023-09-13T15:58:25.668Z,,0,2,,7402.348999809241,response,ISIC_3965872.JPG,6,ISIC_9209245.JPG,ISIC_9209245.JPG,false,0,keypress(z),500,757680.4000000954,757680.1999998093,750261.218,750265.5,750277.851,757692.308,8,400,41,,ISIC_3965872.JPG
break,html.Screen,4_90_1,2023-09-13T15:58:25.669Z,,0,,,NaN,,,,,,false,,,,757680.8000001907,757680.6999998093,,757680.5,,757692.308,8,400,,,
break_continue,html.Screen,4_90_2,2023-09-13T15:58:25.669Z,,0,,,NaN,,,,,,false,,,,757681.0999999046,757681.0999999046,,757681,,757692.308,8,400,,,
sequence,flow.Sequence,4_90,2023-09-13T15:58:25.669Z,,0,,,7403.248999904608,completion,,,,,false,,,,757681.3000001907,757681.0999999046,750261.218,750265.5,750277.851,757692.308,8,400,,,
trial,html.Screen,4_91_0,2023-09-13T15:58:31.038Z,,0,2,,5357.492000190774,response,ISIC_0034202.JPG,6,ISIC_8671119.JPG,ISIC_8671119.JPG,false,0,keypress(z),500,763050,763049.8000001907,757675.685,757681.3000001907,757692.308,763052.658,8,400,42,,ISIC_0034202.JPG
break,html.Screen,4_91_1,2023-09-13T15:58:31.038Z,,0,,,NaN,,,,,,false,,,,763050.5999999046,763050.4000000954,,763050.0999999046,,763052.658,8,400,,,
break_continue,html.Screen,4_91_2,2023-09-13T15:58:31.039Z,,0,,,NaN,,,,,,false,,,,763050.8000001907,763050.6999998093,,763050.6999998093,,763052.658,8,400,,,
sequence,flow.Sequence,4_91,2023-09-13T15:58:31.039Z,,0,,,5358.391999809304,completion,,,,,false,,,,763050.9000000954,763050.6999998093,757675.685,757681.3000001907,757692.308,763052.658,8,400,,,
trial,html.Screen,4_92_0,2023-09-13T15:58:38.039Z,,0,2,,6998.242000095313,response,ISIC_0028780.JPG,6,ISIC_0067808.JPG,ISIC_0028780.JPG,false,1,keypress(m),500,770051,770050.9000000954,763035.984,763051,763052.658,770066.448,8,400,43,,ISIC_0067808.JPG
break,html.Screen,4_92_1,2023-09-13T15:58:38.039Z,,0,,,NaN,,,,,,false,,,,770051.4000000954,770051.4000000954,,770051.0999999046,,770066.448,8,400,,,
break_continue,html.Screen,4_92_2,2023-09-13T15:58:38.039Z,,0,,,NaN,,,,,,false,,,,770051.5999999046,770051.5999999046,,770051.5,,770066.448,8,400,,,
sequence,flow.Sequence,4_92,2023-09-13T15:58:38.039Z,,0,,,6998.941999904579,completion,,,,,false,,,,770051.5999999046,770051.5999999046,763035.984,763051,763052.658,770066.448,8,400,,,
trial,html.Screen,4_93_0,2023-09-13T15:58:42.778Z,,0,2,,4723.35200019076,response,ISIC_0000414.JPG,5,ISIC_5153848.JPG,ISIC_5153848.JPG,false,0,keypress(z),500,774789.9000000954,774789.8000001907,770049.747,770051.6999998093,770066.448,774792.161,8,400,44,,ISIC_0000414.JPG
break,html.Screen,4_93_1,2023-09-13T15:58:42.778Z,,0,,,NaN,,,,,,false,,,,774790.3000001907,774790.1999998093,,774790,,774792.161,8,400,,,
break_continue,html.Screen,4_93_2,2023-09-13T15:58:42.778Z,,0,,,NaN,,,,,,false,,,,774790.5,774790.5,,774790.4000000954,,774792.161,8,400,,,
sequence,flow.Sequence,4_93,2023-09-13T15:58:42.778Z,,0,,,4724.052000000025,completion,,,,,false,,,,774790.6999998093,774790.5,770049.747,770051.6999998093,770066.448,774792.161,8,400,,,
trial,html.Screen,4_94_0,2023-09-13T15:58:48.620Z,,0,2,,5840.239000095404,response,ISIC_0030824.JPG,5,ISIC_0031397.JPG,ISIC_0031397.JPG,false,0,keypress(z),500,780632.5,780632.4000000954,774775.516,774790.6999998093,774792.161,780636.855,8,400,45,,ISIC_0030824.JPG
break,html.Screen,4_94_1,2023-09-13T15:58:48.621Z,,0,,,NaN,,,,,,false,,,,780633.0999999046,780632.9000000954,,780632.5999999046,,780636.855,8,400,,,
break_continue,html.Screen,4_94_2,2023-09-13T15:58:48.621Z,,0,,,NaN,,,,,,false,,,,780633.1999998093,780633.0999999046,,780633.0999999046,,780636.855,8,400,,,
sequence,flow.Sequence,4_94,2023-09-13T15:58:48.621Z,,0,,,5840.938999904669,completion,,,,,false,,,,780633.3000001907,780633.0999999046,774775.516,774790.6999998093,774792.161,780636.855,8,400,,,
trial,html.Screen,4_95_0,2023-09-13T15:58:53.716Z,,0,2,,5090.744999904651,response,ISIC_7141361.JPG,6,ISIC_0014543.JPG,ISIC_7141361.JPG,false,1,keypress(m),500,785727.8000001907,785727.5999999046,780620.226,780633.4000000954,780636.855,785730.162,8,400,46,,ISIC_0014543.JPG
break,html.Screen,4_95_1,2023-09-13T15:58:53.716Z,,0,,,NaN,,,,,,false,,,,785728.5999999046,785728.4000000954,,785728.0999999046,,785730.162,8,400,,,
break_continue,html.Screen,4_95_2,2023-09-13T15:58:53.717Z,,0,,,NaN,,,,,,false,,,,785728.9000000954,785728.9000000954,,785728.8000001907,,785730.162,8,400,,,
sequence,flow.Sequence,4_95,2023-09-13T15:58:53.717Z,,0,,,5092.045000095386,completion,,,,,false,,,,785729,785728.9000000954,780620.226,780633.4000000954,780636.855,785730.162,8,400,,,
trial,html.Screen,4_96_0,2023-09-13T15:58:59.271Z,,0,2,,5553.238000095356,response,ISIC_7973296.JPG,4,ISIC_8355446.JPG,ISIC_7973296.JPG,false,1,keypress(m),500,791283.5999999046,791283.4000000954,785713.444,785729.0999999046,785730.162,791290.985,8,400,47,,ISIC_8355446.JPG
break,html.Screen,4_96_1,2023-09-13T15:58:59.272Z,,0,,,NaN,,,,,,false,,,,791284.1999998093,791284.0999999046,,791283.8000001907,,791290.985,8,400,,,
break_continue,html.Screen,4_96_2,2023-09-13T15:58:59.272Z,,0,,,NaN,,,,,,false,,,,791284.4000000954,791284.4000000954,,791284.1999998093,,791290.985,8,400,,,
sequence,flow.Sequence,4_96,2023-09-13T15:58:59.272Z,,0,,,5554.238000095356,completion,,,,,false,,,,791284.4000000954,791284.4000000954,785713.444,785729.0999999046,785730.162,791290.985,8,400,,,
trial,html.Screen,4_97_0,2023-09-13T15:59:05.417Z,,0,2,,6138.415000095381,response,ISIC_6697332.JPG,5,ISIC_3552318.JPG,ISIC_3552318.JPG,false,0,keypress(z),500,797429.5,797429.4000000954,791274.323,791284.5,791290.985,797436.246,8,400,48,,ISIC_6697332.JPG
break,html.Screen,4_97_1,2023-09-13T15:59:05.418Z,,0,,,NaN,,,,,,false,,,,797430,797429.8000001907,,797429.6999998093,,797436.246,8,400,,,
break_continue,html.Screen,4_97_2,2023-09-13T15:59:05.418Z,,0,,,NaN,,,,,,false,,,,797430.1999998093,797430.0999999046,,797430.0999999046,,797436.246,8,400,,,
sequence,flow.Sequence,4_97,2023-09-13T15:59:05.418Z,,0,,,6139.1149999046465,completion,,,,,false,,,,797430.1999998093,797430.0999999046,791274.323,791284.5,791290.985,797436.246,8,400,,,
trial,html.Screen,4_98_0,2023-09-13T15:59:10.514Z,,0,2,,5089.654000095325,response,ISIC_8167374.JPG,6,ISIC_0027879.JPG,ISIC_0027879.JPG,false,0,keypress(z),500,802526,802525.9000000954,797419.574,797430.3000001907,797436.246,802529.508,8,400,49,,ISIC_8167374.JPG
break,html.Screen,4_98_1,2023-09-13T15:59:10.515Z,,0,,,NaN,,,,,,false,,,,802526.6999998093,802526.5,,802526.1999998093,,802529.508,8,400,,,
break_continue,html.Screen,4_98_2,2023-09-13T15:59:10.515Z,,0,,,NaN,,,,,,false,,,,802527,802526.9000000954,,802526.6999998093,,802529.508,8,400,,,
sequence,flow.Sequence,4_98,2023-09-13T15:59:10.515Z,,0,,,5090.654000095325,completion,,,,,false,,,,802527.0999999046,802526.9000000954,797419.574,797430.3000001907,797436.246,802529.508,8,400,,,
trial,html.Screen,4_99_0,2023-09-13T15:59:15.911Z,,0,2,,5391.991999999969,response,ISIC_1387456.JPG,5,ISIC_9021685.JPG,ISIC_9021685.JPG,false,0,keypress(z),500,807921.5999999046,807921.5,802512.838,802527.1999998093,802529.508,807923.319,8,400,50,,ISIC_1387456.JPG
break,html.Screen,4_99_1,2023-09-13T15:59:25.900Z,,0,,,10002.918999999994,timeout,,,,,false,,,,817910.5999999046,817909.563,807906.641,807921.6999998093,807923.319,817926.238,8,400,,,
break_continue,html.Screen,4_99_2,2023-09-13T16:00:23.037Z,,0,,,57093.36199990462,response,,,,,false,continue,keypress(Space),,875046,875019.5999999046,817909.563,817910.6999998093,817926.238,875070.677,8,400,,,
sequence,flow.Sequence,4_99,2023-09-13T16:00:23.037Z,,0,,,72490.0919999046,completion,,,,,false,,,,875046.1999998093,875019.5999999046,802512.838,802527.1999998093,802529.508,875070.677,8,400,,,
trial,html.Screen,4_100_0,2023-09-13T16:00:28.467Z,,0,3,,5405.52299980924,response,ISIC_5335139.JPG,5,ISIC_2844085.JPG,ISIC_2844085.JPG,false,0,keypress(z),500,880476.3000001907,880476.1999998093,875054.115,875046.3000001907,875070.677,880481.223,8,400,1,,ISIC_5335139.JPG
break,html.Screen,4_100_1,2023-09-13T16:00:28.467Z,,0,,,NaN,,,,,,false,,,,880476.9000000954,880476.6999998093,,880476.4000000954,,880481.223,8,400,,,
break_continue,html.Screen,4_100_2,2023-09-13T16:00:28.468Z,,0,,,NaN,,,,,,false,,,,880477.3000001907,880477.1999998093,,880477,,880481.223,8,400,,,
sequence,flow.Sequence,4_100,2023-09-13T16:00:28.468Z,,0,,,5406.52299980924,completion,,,,,false,,,,880477.3000001907,880477.1999998093,875054.115,875046.1999998093,875070.677,880481.223,8,400,,,
trial,html.Screen,4_101_0,2023-09-13T16:00:35.068Z,,0,3,,6595.976999809267,response,ISIC_9470020.JPG,5,ISIC_0068000.JPG,ISIC_9470020.JPG,false,1,keypress(m),500,887077.3000001907,887077.1999998093,880464.592,880477.5,880481.223,887094.096,8,400,2,,ISIC_0068000.JPG
break,html.Screen,4_101_1,2023-09-13T16:00:35.069Z,,0,,,NaN,,,,,,false,,,,887078.0999999046,887077.8000001907,,887077.4000000954,,887094.096,8,400,,,
break_continue,html.Screen,4_101_2,2023-09-13T16:00:35.069Z,,0,,,NaN,,,,,,false,,,,887078.3000001907,887078.3000001907,,887078.0999999046,,887094.096,8,400,,,
sequence,flow.Sequence,4_101,2023-09-13T16:00:35.069Z,,0,,,6597.077000190737,completion,,,,,false,,,,887078.4000000954,887078.3000001907,880464.592,880477.5,880481.223,887094.096,8,400,,,
trial,html.Screen,4_102_0,2023-09-13T16:00:41.342Z,,0,3,,6257.503999904613,response,ISIC_4248013.JPG,6,ISIC_0064120.JPG,ISIC_4248013.JPG,false,1,keypress(m),500,893351.6999998093,893351.5999999046,887077.345,887078.4000000954,887094.096,893356.234,8,400,3,,ISIC_0064120.JPG
break,html.Screen,4_102_1,2023-09-13T16:00:41.343Z,,0,,,NaN,,,,,,false,,,,893352.1999998093,893352,,893351.9000000954,,893356.234,8,400,,,
break_continue,html.Screen,4_102_2,2023-09-13T16:00:41.343Z,,0,,,NaN,,,,,,false,,,,893352.5999999046,893352.5,,893352.4000000954,,893356.234,8,400,,,
sequence,flow.Sequence,4_102,2023-09-13T16:00:41.343Z,,0,,,6258.40399999998,completion,,,,,false,,,,893352.6999998093,893352.5,887077.345,887078.4000000954,887094.096,893356.234,8,400,,,
trial,html.Screen,4_103_0,2023-09-13T16:00:46.769Z,,0,3,,5422.1660000953125,response,ISIC_0063601.JPG,5,ISIC_1457687.JPG,ISIC_1457687.JPG,false,0,keypress(z),500,898778.5,898778.4000000954,893339.541,893352.8000001907,893356.234,898783.511,8,400,4,,ISIC_0063601.JPG
break,html.Screen,4_103_1,2023-09-13T16:00:46.770Z,,0,,,NaN,,,,,,false,,,,898779.0999999046,898779,,898778.6999998093,,898783.511,8,400,,,
break_continue,html.Screen,4_103_2,2023-09-13T16:00:46.770Z,,0,,,NaN,,,,,,false,,,,898779.4000000954,898779.4000000954,,898779.3000001907,,898783.511,8,400,,,
sequence,flow.Sequence,4_103,2023-09-13T16:00:46.770Z,,0,,,5423.1660000953125,completion,,,,,false,,,,898779.5999999046,898779.4000000954,893339.541,893352.6999998093,893356.234,898783.511,8,400,,,
trial,html.Screen,4_104_0,2023-09-13T16:00:52.630Z,,0,3,,5855.889000095311,response,ISIC_7870290.JPG,5,ISIC_0014675.JPG,ISIC_0014675.JPG,false,0,keypress(z),500,904639.5999999046,904639.4000000954,898766.884,898779.5999999046,898783.511,904644.853,8,400,5,,ISIC_7870290.JPG
break,html.Screen,4_104_1,2023-09-13T16:00:52.631Z,,0,,,NaN,,,,,,false,,,,904640.0999999046,904640,,904639.6999998093,,904644.853,8,400,,,
break_continue,html.Screen,4_104_2,2023-09-13T16:00:52.631Z,,0,,,NaN,,,,,,false,,,,904640.4000000954,904640.4000000954,,904640.1999998093,,904644.853,8,400,,,
sequence,flow.Sequence,4_104,2023-09-13T16:00:52.631Z,,0,,,5856.889000095311,completion,,,,,false,,,,904640.4000000954,904640.4000000954,898766.884,898779.5999999046,898783.511,904644.853,8,400,,,
trial,html.Screen,4_105_0,2023-09-13T16:01:01.592Z,,0,3,,8956.346999809262,response,ISIC_0030828.JPG,6,ISIC_1396767.JPG,ISIC_1396767.JPG,false,0,keypress(z),500,913601.6999998093,913601.1999998093,904628.283,904640.5,904644.853,913612.34,8,400,6,,ISIC_0030828.JPG
break,html.Screen,4_105_1,2023-09-13T16:01:01.594Z,,0,,,NaN,,,,,,false,,,,913603.6999998093,913602.9000000954,,913602.1999998093,,913612.34,8,400,,,
break_continue,html.Screen,4_105_2,2023-09-13T16:01:01.595Z,,0,,,NaN,,,,,,false,,,,913604.5,913604.3000001907,,913603.9000000954,,913612.34,8,400,,,
sequence,flow.Sequence,4_105,2023-09-13T16:01:01.595Z,,0,,,8959.447000190732,completion,,,,,false,,,,913604.8000001907,913604.3000001907,904628.283,904640.5,904644.853,913612.34,8,400,,,
trial,html.Screen,4_106_0,2023-09-13T16:01:07.263Z,,0,3,,5659.660000000033,response,ISIC_0060091.JPG,6,ISIC_7460111.JPG,ISIC_7460111.JPG,false,0,keypress(z),500,919272,919272,913595.711,913605.0999999046,913612.34,919273.38,8,400,7,,ISIC_0060091.JPG
break,html.Screen,4_106_1,2023-09-13T16:01:07.263Z,,0,,,NaN,,,,,,false,,,,919272.5999999046,919272.4000000954,,919272.0999999046,,919273.38,8,400,,,
break_continue,html.Screen,4_106_2,2023-09-13T16:01:07.263Z,,0,,,NaN,,,,,,false,,,,919272.9000000954,919272.8000001907,,919272.6999998093,,919273.38,8,400,,,
sequence,flow.Sequence,4_106,2023-09-13T16:01:07.264Z,,0,,,5660.4600001907675,completion,,,,,false,,,,919273,919272.8000001907,913595.711,913605,913612.34,919273.38,8,400,,,
trial,html.Screen,4_107_0,2023-09-13T16:01:12.433Z,,0,3,,5168.719999904628,response,ISIC_8922355.JPG,5,ISIC_4718237.JPG,ISIC_4718237.JPG,false,0,keypress(z),500,924442.3000001907,924442.0999999046,919256.812,919273,919273.38,924450.118,8,400,8,,ISIC_8922355.JPG
break,html.Screen,4_107_1,2023-09-13T16:01:12.433Z,,0,,,NaN,,,,,,false,,,,924442.8000001907,924442.5999999046,,924442.4000000954,,924450.118,8,400,,,
break_continue,html.Screen,4_107_2,2023-09-13T16:01:12.433Z,,0,,,NaN,,,,,,false,,,,924442.9000000954,924442.9000000954,,924442.8000001907,,924450.118,8,400,,,
sequence,flow.Sequence,4_107,2023-09-13T16:01:12.433Z,,0,,,5169.520000095363,completion,,,,,false,,,,924443,924442.9000000954,919256.812,919273,919273.38,924450.118,8,400,,,
trial,html.Screen,4_108_0,2023-09-13T16:01:18.211Z,,0,3,,5770.581999809248,response,ISIC_0510617.JPG,5,ISIC_6488658.JPG,ISIC_6488658.JPG,false,0,keypress(z),500,930220.6999998093,930220.6999998093,924433.418,924443,924450.118,930228.003,8,400,9,,ISIC_0510617.JPG
break,html.Screen,4_108_1,2023-09-13T16:01:18.212Z,,0,,,NaN,,,,,,false,,,,930221.3000001907,930221.0999999046,,930220.8000001907,,930228.003,8,400,,,
break_continue,html.Screen,4_108_2,2023-09-13T16:01:18.212Z,,0,,,NaN,,,,,,false,,,,930221.5999999046,930221.5,,930221.4000000954,,930228.003,8,400,,,
sequence,flow.Sequence,4_108,2023-09-13T16:01:18.212Z,,0,,,5771.381999999983,completion,,,,,false,,,,930221.5999999046,930221.5,924433.418,924443,924450.118,930228.003,8,400,,,
trial,html.Screen,4_109_0,2023-09-13T16:01:24.055Z,,0,3,,5834.797000190709,response,ISIC_0010834.JPG,5,ISIC_0058828.JPG,ISIC_0010834.JPG,false,1,keypress(m),500,936063,936062.8000001907,930211.329,930221.6999998093,930228.003,936072.731,8,400,10,,ISIC_0058828.JPG
break,html.Screen,4_109_1,2023-09-13T16:01:24.056Z,,0,,,NaN,,,,,,false,,,,936063.5,936063.3000001907,,936063.0999999046,,936072.731,8,400,,,
break_continue,html.Screen,4_109_2,2023-09-13T16:01:24.056Z,,0,,,NaN,,,,,,false,,,,936063.9000000954,936063.6999998093,,936063.5999999046,,936072.731,8,400,,,
sequence,flow.Sequence,4_109,2023-09-13T16:01:24.056Z,,0,,,5835.696999809239,completion,,,,,false,,,,936063.9000000954,936063.6999998093,930211.329,930221.6999998093,930228.003,936072.731,8,400,,,
trial,html.Screen,4_110_0,2023-09-13T16:01:28.849Z,,0,3,,4783.569000190706,response,ISIC_0068107.JPG,5,ISIC_9512048.JPG,ISIC_9512048.JPG,false,0,keypress(z),500,940856.4000000954,940856.3000001907,936056.197,936064,936072.731,940865.379,8,400,11,,ISIC_0068107.JPG
break,html.Screen,4_110_1,2023-09-13T16:01:28.849Z,,0,,,NaN,,,,,,false,,,,940857,940856.8000001907,,940856.5999999046,,940865.379,8,400,,,
break_continue,html.Screen,4_110_2,2023-09-13T16:01:28.849Z,,0,,,NaN,,,,,,false,,,,940857.1999998093,940857.1999998093,,940857,,940865.379,8,400,,,
sequence,flow.Sequence,4_110,2023-09-13T16:01:28.850Z,,0,,,4784.468999809236,completion,,,,,false,,,,940857.3000001907,940857.1999998093,936056.197,936063.9000000954,936072.731,940865.379,8,400,,,
trial,html.Screen,4_111_0,2023-09-13T16:01:33.347Z,,0,3,,4488.921000190778,response,ISIC_5564757.JPG,5,ISIC_1328488.JPG,ISIC_1328488.JPG,false,0,keypress(z),500,945354.3000001907,945354.3000001907,940848.744,940857.4000000954,940865.379,945357.424,8,400,12,,ISIC_5564757.JPG
break,html.Screen,4_111_1,2023-09-13T16:01:33.347Z,,0,,,NaN,,,,,,false,,,,945354.6999998093,945354.5999999046,,945354.5,,945357.424,8,400,,,
break_continue,html.Screen,4_111_2,2023-09-13T16:01:33.347Z,,0,,,NaN,,,,,,false,,,,945354.9000000954,945354.9000000954,,945354.8000001907,,945357.424,8,400,,,
sequence,flow.Sequence,4_111,2023-09-13T16:01:33.347Z,,0,,,4489.52100009541,completion,,,,,false,,,,945355,945354.9000000954,940848.744,940857.4000000954,940865.379,945357.424,8,400,,,
trial,html.Screen,4_112_0,2023-09-13T16:01:38.119Z,,0,3,,4769.1759999046335,response,ISIC_6037869.JPG,5,ISIC_7017387.JPG,ISIC_6037869.JPG,false,1,keypress(m),500,950126.5999999046,950126.5999999046,945340.841,945355,945357.424,950133.484,8,400,13,,ISIC_7017387.JPG
break,html.Screen,4_112_1,2023-09-13T16:01:38.119Z,,0,,,NaN,,,,,,false,,,,950127,950126.9000000954,,950126.8000001907,,950133.484,8,400,,,
break_continue,html.Screen,4_112_2,2023-09-13T16:01:38.120Z,,0,,,NaN,,,,,,false,,,,950127.1999998093,950127.1999998093,,950127,,950133.484,8,400,,,
sequence,flow.Sequence,4_112,2023-09-13T16:01:38.120Z,,0,,,4769.775999809266,completion,,,,,false,,,,950127.1999998093,950127.1999998093,945340.841,945355,945357.424,950133.484,8,400,,,
trial,html.Screen,4_113_0,2023-09-13T16:01:43.417Z,,0,3,,5291.015999999945,response,ISIC_2562668.JPG,4,ISIC_7260492.JPG,ISIC_7260492.JPG,false,0,keypress(z),500,955424.8000001907,955424.5,950116.719,950127.4000000954,950133.484,955427.119,8,400,14,,ISIC_2562668.JPG
break,html.Screen,4_113_1,2023-09-13T16:01:43.419Z,,0,,,NaN,,,,,,false,,,,955426.5999999046,955426,,955425.1999998093,,955427.119,8,400,,,
break_continue,html.Screen,4_113_2,2023-09-13T16:01:43.420Z,,0,,,NaN,,,,,,false,,,,955427.5,955427.0999999046,,955426.8000001907,,955427.119,8,400,,,
sequence,flow.Sequence,4_113,2023-09-13T16:01:43.420Z,,0,,,5293.615999904578,completion,,,,,false,,,,955427.9000000954,955427.0999999046,950116.719,950127.4000000954,950133.484,955427.119,8,400,,,
trial,html.Screen,4_114_0,2023-09-13T16:01:49.092Z,,0,3,,5672.181000190787,response,ISIC_0032626.JPG,5,ISIC_0262770.JPG,ISIC_0262770.JPG,false,0,keypress(z),500,961099.4000000954,961099.3000001907,955410.365,955428.6999998093,955427.119,961104.767,8,400,15,,ISIC_0032626.JPG
break,html.Screen,4_114_1,2023-09-13T16:01:49.092Z,,0,,,NaN,,,,,,false,,,,961099.6999998093,961099.6999998093,,961099.5,,961104.767,8,400,,,
break_continue,html.Screen,4_114_2,2023-09-13T16:01:49.092Z,,0,,,NaN,,,,,,false,,,,961100.0999999046,961100,,961099.9000000954,,961104.767,8,400,,,
sequence,flow.Sequence,4_114,2023-09-13T16:01:49.093Z,,0,,,5672.881000000052,completion,,,,,false,,,,961100.1999998093,961100,955410.365,955428.5,955427.119,961104.767,8,400,,,
trial,html.Screen,4_115_0,2023-09-13T16:01:55.767Z,,0,3,,6669.533000190742,response,ISIC_1838876.JPG,4,ISIC_0061972.JPG,ISIC_1838876.JPG,false,1,keypress(m),500,967774.4000000954,967774.3000001907,961088.084,961100.3000001907,961104.767,967784.402,8,400,16,,ISIC_0061972.JPG
break,html.Screen,4_115_1,2023-09-13T16:01:55.767Z,,0,,,NaN,,,,,,false,,,,967774.9000000954,967774.6999998093,,967774.5999999046,,967784.402,8,400,,,
break_continue,html.Screen,4_115_2,2023-09-13T16:01:55.767Z,,0,,,NaN,,,,,,false,,,,967775.0999999046,967775.0999999046,,967774.9000000954,,967784.402,8,400,,,
sequence,flow.Sequence,4_115,2023-09-13T16:01:55.767Z,,0,,,6670.33299990464,completion,,,,,false,,,,967775.1999998093,967775.0999999046,961088.084,961100.1999998093,961104.767,967784.402,8,400,,,
trial,html.Screen,4_116_0,2023-09-13T16:02:02.234Z,,0,3,,6457.097999999998,response,ISIC_2291059.JPG,5,ISIC_6790780.JPG,ISIC_2291059.JPG,false,1,keypress(m),500,974241.5999999046,974241.5,967767.731,967775.3000001907,967784.402,974246.973,8,400,17,,ISIC_6790780.JPG
break,html.Screen,4_116_1,2023-09-13T16:02:02.234Z,,0,,,NaN,,,,,,false,,,,974242,974241.9000000954,,974241.6999998093,,974246.973,8,400,,,
break_continue,html.Screen,4_116_2,2023-09-13T16:02:02.235Z,,0,,,NaN,,,,,,false,,,,974242.3000001907,974242.1999998093,,974242.1999998093,,974246.973,8,400,,,
sequence,flow.Sequence,4_116,2023-09-13T16:02:02.235Z,,0,,,6457.797999809263,completion,,,,,false,,,,974242.3000001907,974242.1999998093,967767.731,967775.1999998093,967784.402,974246.973,8,400,,,
trial,html.Screen,4_117_0,2023-09-13T16:02:08.222Z,,0,3,,5983.027000000002,response,ISIC_0030435.JPG,5,ISIC_3195720.JPG,ISIC_3195720.JPG,false,0,keypress(z),500,980230.1999998093,980230,974230.33,974242.4000000954,974246.973,980242.037,8,400,18,,ISIC_0030435.JPG
break,html.Screen,4_117_1,2023-09-13T16:02:08.223Z,,0,,,NaN,,,,,,false,,,,980230.6999998093,980230.5,,980230.3000001907,,980242.037,8,400,,,
break_continue,html.Screen,4_117_2,2023-09-13T16:02:08.223Z,,0,,,NaN,,,,,,false,,,,980231,980230.9000000954,,980230.8000001907,,980242.037,8,400,,,
sequence,flow.Sequence,4_117,2023-09-13T16:02:08.223Z,,0,,,5983.927000095369,completion,,,,,false,,,,980231.1999998093,980230.9000000954,974230.33,974242.4000000954,974246.973,980242.037,8,400,,,
trial,html.Screen,4_118_0,2023-09-13T16:02:12.696Z,,0,3,,4461.763000190724,response,ISIC_4666619.JPG,5,ISIC_0005264.JPG,ISIC_0005264.JPG,false,0,keypress(z),500,984704,984703.8000001907,980225.383,980231.3000001907,980242.037,984717.48,8,400,19,,ISIC_4666619.JPG
break,html.Screen,4_118_1,2023-09-13T16:02:12.697Z,,0,,,NaN,,,,,,false,,,,984704.4000000954,984704.3000001907,,984704,,984717.48,8,400,,,
break_continue,html.Screen,4_118_2,2023-09-13T16:02:12.697Z,,0,,,NaN,,,,,,false,,,,984704.6999998093,984704.6999998093,,984704.5,,984717.48,8,400,,,
sequence,flow.Sequence,4_118,2023-09-13T16:02:12.697Z,,0,,,4462.662999809254,completion,,,,,false,,,,984704.9000000954,984704.6999998093,980225.383,980231.1999998093,980242.037,984717.48,8,400,,,
trial,html.Screen,4_119_0,2023-09-13T16:02:18.186Z,,0,3,,5476.219999809284,response,ISIC_0032736.JPG,5,ISIC_0028109.JPG,ISIC_0028109.JPG,false,0,keypress(z),500,990194.0999999046,990193.6999998093,984700.712,984704.9000000954,984717.48,990211.495,8,400,20,,ISIC_0032736.JPG
break,html.Screen,4_119_1,2023-09-13T16:02:18.188Z,,0,,,NaN,,,,,,false,,,,990195.5999999046,990195.1999998093,,990194.5,,990211.495,8,400,,,
break_continue,html.Screen,4_119_2,2023-09-13T16:02:18.189Z,,0,,,NaN,,,,,,false,,,,990196.4000000954,990196.3000001907,,990195.9000000954,,990211.495,8,400,,,
sequence,flow.Sequence,4_119,2023-09-13T16:02:18.189Z,,0,,,5478.8200001907535,completion,,,,,false,,,,990196.8000001907,990196.3000001907,984700.712,984704.9000000954,984717.48,990211.495,8,400,,,
trial,html.Screen,4_120_0,2023-09-13T16:02:24.805Z,,0,3,,6599.905000095372,response,ISIC_0056679.JPG,5,ISIC_9538419.JPG,ISIC_9538419.JPG,false,0,keypress(z),500,996811.5,996811.4000000954,990194.803,990197,990211.495,996824.401,8,400,21,,ISIC_0056679.JPG
break,html.Screen,4_120_1,2023-09-13T16:02:24.806Z,,0,,,NaN,,,,,,false,,,,996812,996811.8000001907,,996811.5999999046,,996824.401,8,400,,,
break_continue,html.Screen,4_120_2,2023-09-13T16:02:24.806Z,,0,,,NaN,,,,,,false,,,,996812.0999999046,996812.0999999046,,996812.0999999046,,996824.401,8,400,,,
sequence,flow.Sequence,4_120,2023-09-13T16:02:24.806Z,,0,,,6600.604999904637,completion,,,,,false,,,,996812.3000001907,996812.0999999046,990194.803,990196.9000000954,990211.495,996824.401,8,400,,,
trial,html.Screen,4_121_0,2023-09-13T16:02:31.528Z,,0,3,,6709.798999809311,response,ISIC_7973601.JPG,5,ISIC_3568801.JPG,ISIC_3568801.JPG,false,0,keypress(z),500,1003534.5,1003534.1999998093,996807.549,996812.3000001907,996824.401,1003537.419,8,400,22,,ISIC_7973601.JPG
break,html.Screen,4_121_1,2023-09-13T16:02:31.530Z,,0,,,NaN,,,,,,false,,,,1003536,1003535.5,,1003534.9000000954,,1003537.419,8,400,,,
break_continue,html.Screen,4_121_2,2023-09-13T16:02:31.531Z,,0,,,NaN,,,,,,false,,,,1003536.9000000954,1003536.5999999046,,1003536.3000001907,,1003537.419,8,400,,,
sequence,flow.Sequence,4_121,2023-09-13T16:02:31.531Z,,0,,,6712.198999904678,completion,,,,,false,,,,1003537.0999999046,1003536.5999999046,996807.549,996812.3000001907,996824.401,1003537.419,8,400,,,
trial,html.Screen,4_122_0,2023-09-13T16:02:39.317Z,,0,3,,7785.180999904638,response,ISIC_2215276.JPG,5,ISIC_9228573.JPG,ISIC_9228573.JPG,false,0,keypress(z),500,1011323.0999999046,1011322.5999999046,1003520.651,1003537.4000000954,1003537.419,1011336.015,8,400,23,,ISIC_2215276.JPG
break,html.Screen,4_122_1,2023-09-13T16:02:39.318Z,,0,,,NaN,,,,,,false,,,,1011324.4000000954,1011324.0999999046,,1011323.5999999046,,1011336.015,8,400,,,
break_continue,html.Screen,4_122_2,2023-09-13T16:02:39.319Z,,0,,,NaN,,,,,,false,,,,1011325,1011324.8000001907,,1011324.5999999046,,1011336.015,8,400,,,
sequence,flow.Sequence,4_122,2023-09-13T16:02:39.319Z,,0,,,7787.38100019074,completion,,,,,false,,,,1011325.0999999046,1011324.8000001907,1003520.651,1003537.3000001907,1003537.419,1011336.015,8,400,,,
trial,html.Screen,4_123_0,2023-09-13T16:02:45.753Z,,0,3,,6423.484999999986,response,ISIC_5347727.JPG,4,ISIC_0001108.JPG,ISIC_5347727.JPG,false,1,keypress(m),500,1017759.6999998093,1017759.5,1011319.247,1011325.3000001907,1011336.015,1017764.975,8,400,24,,ISIC_0001108.JPG
break,html.Screen,4_123_1,2023-09-13T16:02:45.754Z,,0,,,NaN,,,,,,false,,,,1017760.4000000954,1017760.0999999046,,1017759.8000001907,,1017764.975,8,400,,,
break_continue,html.Screen,4_123_2,2023-09-13T16:02:45.754Z,,0,,,NaN,,,,,,false,,,,1017760.6999998093,1017760.5999999046,,1017760.4000000954,,1017764.975,8,400,,,
sequence,flow.Sequence,4_123,2023-09-13T16:02:45.755Z,,0,,,6424.584999904619,completion,,,,,false,,,,1017760.8000001907,1017760.5999999046,1011319.247,1011325.3000001907,1011336.015,1017764.975,8,400,,,
trial,html.Screen,4_124_0,2023-09-13T16:02:51.308Z,,0,3,,5548.825000190758,response,ISIC_0010372.JPG,4,ISIC_7180418.JPG,ISIC_7180418.JPG,false,0,keypress(z),500,1023313.9000000954,1023313.8000001907,1017748.423,1017760.9000000954,1017764.975,1023325.855,8,400,25,,ISIC_0010372.JPG
break,html.Screen,4_124_1,2023-09-13T16:02:51.308Z,,0,,,NaN,,,,,,false,,,,1023314.3000001907,1023314.1999998093,,1023313.9000000954,,1023325.855,8,400,,,
break_continue,html.Screen,4_124_2,2023-09-13T16:02:51.308Z,,0,,,NaN,,,,,,false,,,,1023314.5,1023314.4000000954,,1023314.3000001907,,1023325.855,8,400,,,
sequence,flow.Sequence,4_124,2023-09-13T16:02:51.308Z,,0,,,5549.425000095391,completion,,,,,false,,,,1023314.5,1023314.4000000954,1017748.423,1017760.9000000954,1017764.975,1023325.855,8,400,,,
trial,html.Screen,4_125_0,2023-09-13T16:02:59.745Z,,0,3,,8425.045000095386,response,ISIC_5352684.JPG,5,ISIC_0030300.JPG,ISIC_5352684.JPG,false,1,keypress(m),500,1031750.9000000954,1031750.9000000954,1023309.149,1023314.5999999046,1023325.855,1031758.965,8,400,26,,ISIC_0030300.JPG
break,html.Screen,4_125_1,2023-09-13T16:02:59.745Z,,0,,,NaN,,,,,,false,,,,1031751.4000000954,1031751.3000001907,,1031751.0999999046,,1031758.965,8,400,,,
break_continue,html.Screen,4_125_2,2023-09-13T16:02:59.745Z,,0,,,NaN,,,,,,false,,,,1031751.5999999046,1031751.5,,1031751.4000000954,,1031758.965,8,400,,,
sequence,flow.Sequence,4_125,2023-09-13T16:02:59.745Z,,0,,,8425.645000000019,completion,,,,,false,,,,1031751.5999999046,1031751.5,1023309.149,1023314.5999999046,1023325.855,1031758.965,8,400,,,
trial,html.Screen,4_126_0,2023-09-13T16:03:04.183Z,,0,3,,4429.9350000954,response,ISIC_0069105.JPG,4,ISIC_0000541.JPG,ISIC_0069105.JPG,false,1,keypress(m),500,1036189,1036188.9000000954,1031742.233,1031751.6999998093,1031758.965,1036200.872,8,400,27,,ISIC_0000541.JPG
