sender,sender_type,sender_id,timestamp,meta,,blockNo,condition,duration,ended_on,img_left,img_reveal,img_right,loser,practice,response,response_action,selection_duration,time_commit,time_end,time_render,time_run,time_show,time_switch,total_blocks,total_trials,trialNo,url,winner
informed_consent,html.Screen,0,2023-09-08T17:45:30.873Z,"{""labjs_version"":""20.2.4"",""labjs_build"":{""flavor"":""development"",""commit"":""f5b4a49f956347addd546a832a3327688c2c0fef""},""location"":""https://labjs.felixhenninger.com/api/labjs_preview/index.html"",""userAgent"":""Mozilla/5.0 (Windows NT 10.0; Win64; x64) AppleWebKit/537.36 (KHTML, like Gecko) Chrome/116.0.0.0 Safari/537.36"",""platform"":""Win32"",""language"":""en-AU"",""locale"":""en-US"",""timeZone"":""America/Chicago"",""timezoneOffset"":300,""screen_width"":1680,""screen_height"":1050,""scroll_width"":1296,""scroll_height"":688,""window_innerWidth"":1296,""window_innerHeight"":736,""devicePixelRatio"":1}",,,,96908.63699985694,response,,,,,,consent,click button,,97436.79999995232,97435.89999985695,510.544,586.5,527.263,97382.353,,,,{},
Welcome,html.Screen,1,2023-09-08T17:47:53.925Z,,,,colourful,143103.84699980926,response,,,,,,continue,click button,,240486.79999995232,240486.19999980927,97365.653,97437.09999990463,97382.353,240427.385,,,,,
trial,html.Screen,2_0_0,2023-09-08T17:48:05.422Z,,0,0,,11522.549999999988,timeout,ISIC_0025593.JPG,,ISIC_0063388.JPG,,true,,,500,251984.09999990463,251983.89999985695,240410.86,240487,240427.385,251949.935,1,6,1,,
sequence,flow.Sequence,2_0,2023-09-08T17:48:05.422Z,,0,,,11556.51499985694,completion,,,,,true,,,,251984.29999995232,251983.89999985695,240410.86,240487,240427.385,251949.935,1,6,,,
trial,html.Screen,2_1_0,2023-09-08T17:48:16.944Z,,0,0,,11522.37599999999,timeout,ISIC_0028178.JPG,,ISIC_1309015.JPG,,true,,,500,263506.69999980927,263506.39999985695,251933.178,251984.39999985695,251949.935,263472.311,1,6,2,,
sequence,flow.Sequence,2_1,2023-09-08T17:48:16.945Z,,0,,,11556.464999856951,completion,,,,,true,,,,263507,263506.39999985695,251933.178,251984.29999995232,251949.935,263472.311,1,6,,,
trial,html.Screen,2_2_0,2023-09-08T17:48:28.467Z,,0,0,,11522.462,timeout,ISIC_3314853.JPG,,ISIC_0031128.JPG,,true,,,500,275029.39999985695,275029,263455.635,263507.19999980927,263472.311,274994.773,1,6,3,,
sequence,flow.Sequence,2_2,2023-09-08T17:48:28.467Z,,0,,,11556.689000000013,completion,,,,,true,,,,275029.69999980927,275029,263455.635,263507.09999990463,263472.311,274994.773,1,6,,,
trial,html.Screen,2_3_0,2023-09-08T17:48:39.989Z,,0,0,,11522.389000000025,timeout,ISIC_8980141.JPG,,ISIC_0031612.JPG,,true,,,500,286551.2999999523,286551.19999980927,274978.069,275029.7999999523,274994.773,286517.162,1,6,4,,
sequence,flow.Sequence,2_3,2023-09-08T17:48:39.989Z,,0,,,11556.426999809279,completion,,,,,true,,,,286551.59999990463,286551.19999980927,274978.069,275029.69999980927,274994.773,286517.162,1,6,,,
trial,html.Screen,2_4_0,2023-09-08T17:48:51.512Z,,0,0,,11522.44299999997,timeout,ISIC_1197737.JPG,,ISIC_9721604.JPG,,true,,,500,298074.09999990463,298073.69999980927,286500.608,286551.69999980927,286517.162,298039.605,1,6,5,,
sequence,flow.Sequence,2_4,2023-09-08T17:48:51.512Z,,0,,,11556.537999809254,completion,,,,,true,,,,298074.2999999523,298073.69999980927,286500.608,286551.59999990463,286517.162,298039.605,1,6,,,
trial,html.Screen,2_5_0,2023-09-08T17:49:03.035Z,,0,0,,11522.380999999994,timeout,ISIC_0025346.JPG,,ISIC_0010681.JPG,,true,,,500,309596.59999990463,309596.2999999523,298022.9,298074.5,298039.605,309561.986,1,6,6,,
sequence,flow.Sequence,2_5,2023-09-08T17:49:03.035Z,,0,,,11556.694999952335,completion,,,,,true,,,,309596.7999999523,309596.2999999523,298022.9,298074.39999985695,298039.605,309561.986,1,6,,,
loop,flow.Loop,2,2023-09-08T17:49:03.035Z,,,,,69168.9149999523,completion,,,,,true,,,,309597,309596.2999999523,240410.86,240486.89999985695,240427.385,309561.986,1,6,,,
exp_instructions,html.Screen,3,2023-09-08T17:49:47.654Z,,,,,44643.11399990466,response,,,,,,continue,keypress(Space),,354215.7999999523,354205.09999990463,309545.335,309597.09999990463,309561.986,354165.589,,,,,
trial,html.Screen,4_0_0,2023-09-08T17:49:56.122Z,,0,1,,8517.510999904654,response,ISIC_1216139.JPG,5,ISIC_0033114.JPG,ISIC_1216139.JPG,false,1,keypress(m),500,362683.39999985695,362683.09999990463,354148.764,354216.09999990463,354165.589,362631.926,8,400,1,,ISIC_0033114.JPG
break,html.Screen,4_0_1,2023-09-08T17:49:56.123Z,,0,,,NaN,,,,,,false,,,,362684,362683.7999999523,,362683.5,,362631.926,8,400,,,
break_continue,html.Screen,4_0_2,2023-09-08T17:49:56.123Z,,0,,,NaN,,,,,,false,,,,362684.2999999523,362684.09999990463,,362684.09999990463,,362631.926,8,400,,,
sequence,flow.Sequence,4_0,2023-09-08T17:49:56.123Z,,0,,,8518.510999904654,completion,,,,,false,,,,362684.39999985695,362684.09999990463,354148.764,354216,354165.589,362631.926,8,400,,,
trial,html.Screen,4_1_0,2023-09-08T17:50:04.452Z,,0,1,,8381.173999904655,response,ISIC_0024410.JPG,5,ISIC_0011035.JPG,ISIC_0024410.JPG,false,1,keypress(m),500,371013.2999999523,371013.09999990463,362615.383,362684.5,362631.926,370948.099,8,400,2,,ISIC_0011035.JPG
break,html.Screen,4_1_1,2023-09-08T17:50:04.452Z,,0,,,NaN,,,,,,false,,,,371013.69999980927,371013.59999990463,,371013.39999985695,,370948.099,8,400,,,
break_continue,html.Screen,4_1_2,2023-09-08T17:50:04.453Z,,0,,,NaN,,,,,,false,,,,371013.89999985695,371013.89999985695,,371013.69999980927,,370948.099,8,400,,,
sequence,flow.Sequence,4_1,2023-09-08T17:50:04.453Z,,0,,,8381.973999856971,completion,,,,,false,,,,371014,371013.89999985695,362615.383,362684.39999985695,362631.926,370948.099,8,400,,,
trial,html.Screen,4_2_0,2023-09-08T17:50:12.822Z,,0,1,,8435.000999904645,response,ISIC_0014694.JPG,6,ISIC_3466769.JPG,ISIC_3466769.JPG,false,0,keypress(z),500,379383.19999980927,379383.09999990463,370931.418,371014,370948.099,379331.089,8,400,3,,ISIC_0014694.JPG
break,html.Screen,4_2_1,2023-09-08T17:50:12.822Z,,0,,,NaN,,,,,,false,,,,379383.5,379383.39999985695,,379383.2999999523,,379331.089,8,400,,,
break_continue,html.Screen,4_2_2,2023-09-08T17:50:12.822Z,,0,,,NaN,,,,,,false,,,,379383.69999980927,379383.59999990463,,379383.5,,379331.089,8,400,,,
sequence,flow.Sequence,4_2,2023-09-08T17:50:12.823Z,,0,,,8435.500999904645,completion,,,,,false,,,,379383.7999999523,379383.59999990463,370931.418,371014,370948.099,379331.089,8,400,,,
trial,html.Screen,4_3_0,2023-09-08T17:50:21.787Z,,0,1,,9017.110999809287,response,ISIC_0033804.JPG,5,ISIC_5647697.JPG,ISIC_5647697.JPG,false,0,keypress(z),500,388348.2999999523,388348.19999980927,379314.42,379383.7999999523,379331.089,388298.543,8,400,4,,ISIC_0033804.JPG
break,html.Screen,4_3_1,2023-09-08T17:50:21.787Z,,0,,,NaN,,,,,,false,,,,388348.59999990463,388348.59999990463,,388348.39999985695,,388298.543,8,400,,,
break_continue,html.Screen,4_3_2,2023-09-08T17:50:21.788Z,,0,,,NaN,,,,,,false,,,,388348.89999985695,388348.89999985695,,388348.69999980927,,388298.543,8,400,,,
sequence,flow.Sequence,4_3,2023-09-08T17:50:21.788Z,,0,,,9017.81099985697,completion,,,,,false,,,,388349.09999990463,388348.89999985695,379314.42,379383.7999999523,379331.089,388298.543,8,400,,,
trial,html.Screen,4_4_0,2023-09-08T17:50:30.061Z,,0,1,,8323.556999904627,response,ISIC_0054767.JPG,5,ISIC_5673994.JPG,ISIC_0054767.JPG,false,1,keypress(m),500,396622.2999999523,396622.09999990463,388281.803,388349.2999999523,388298.543,396564.632,8,400,5,,ISIC_5673994.JPG
break,html.Screen,4_4_1,2023-09-08T17:50:30.062Z,,0,,,NaN,,,,,,false,,,,396622.7999999523,396622.69999980927,,396622.39999985695,,396564.632,8,400,,,
break_continue,html.Screen,4_4_2,2023-09-08T17:50:30.062Z,,0,,,NaN,,,,,,false,,,,396623,396622.89999985695,,396622.89999985695,,396564.632,8,400,,,
sequence,flow.Sequence,4_4,2023-09-08T17:50:30.062Z,,0,,,8324.356999856944,completion,,,,,false,,,,396623.09999990463,396622.89999985695,388281.803,388349.19999980927,388298.543,396564.632,8,400,,,
trial,html.Screen,4_5_0,2023-09-08T17:50:39.011Z,,0,1,,9007.267999856966,response,ISIC_4548632.JPG,4,ISIC_8586909.JPG,ISIC_4548632.JPG,false,1,keypress(m),500,405572.19999980927,405571.89999985695,396547.972,396623.19999980927,396564.632,405515.392,8,400,6,,ISIC_8586909.JPG
break,html.Screen,4_5_1,2023-09-08T17:50:39.012Z,,0,,,NaN,,,,,,false,,,,405573,405572.7999999523,,405572.39999985695,,405515.392,8,400,,,
break_continue,html.Screen,4_5_2,2023-09-08T17:50:39.012Z,,0,,,NaN,,,,,,false,,,,405573.39999985695,405573.19999980927,,405573.09999990463,,405515.392,8,400,,,
sequence,flow.Sequence,4_5,2023-09-08T17:50:39.012Z,,0,,,9008.567999809282,completion,,,,,false,,,,405573.5,405573.19999980927,396547.972,396623.19999980927,396564.632,405515.392,8,400,,,
trial,html.Screen,4_6_0,2023-09-08T17:50:47.734Z,,0,1,,8779.307999809273,response,ISIC_0068993.JPG,4,ISIC_0004961.JPG,ISIC_0004961.JPG,false,0,keypress(z),500,414294.7999999523,414294.69999980927,405498.653,405573.59999990463,405515.392,414249.21,8,400,7,,ISIC_0068993.JPG
break,html.Screen,4_6_1,2023-09-08T17:50:47.734Z,,0,,,NaN,,,,,,false,,,,414295.19999980927,414295.09999990463,,414294.89999985695,,414249.21,8,400,,,
break_continue,html.Screen,4_6_2,2023-09-08T17:50:47.734Z,,0,,,NaN,,,,,,false,,,,414295.5,414295.39999985695,,414295.2999999523,,414249.21,8,400,,,
sequence,flow.Sequence,4_6,2023-09-08T17:50:47.734Z,,0,,,8780.007999856956,completion,,,,,false,,,,414295.5,414295.39999985695,405498.653,405573.5,405515.392,414249.21,8,400,,,
trial,html.Screen,4_7_0,2023-09-08T17:50:56.203Z,,0,1,,8513.989999809244,response,ISIC_1711973.JPG,6,ISIC_0033569.JPG,ISIC_1711973.JPG,false,1,keypress(m),500,422763.2999999523,422763.19999980927,414232.332,414295.59999990463,414249.21,422698.83,8,400,8,,ISIC_0033569.JPG
break,html.Screen,4_7_1,2023-09-08T17:50:56.203Z,,0,,,NaN,,,,,,false,,,,422763.89999985695,422763.69999980927,,422763.5,,422698.83,8,400,,,
break_continue,html.Screen,4_7_2,2023-09-08T17:50:56.204Z,,0,,,NaN,,,,,,false,,,,422764.09999990463,422764,,422764,,422698.83,8,400,,,
sequence,flow.Sequence,4_7,2023-09-08T17:50:56.204Z,,0,,,8514.789999999979,completion,,,,,false,,,,422764.2999999523,422764,414232.332,414295.59999990463,414249.21,422698.83,8,400,,,
trial,html.Screen,4_8_0,2023-09-08T17:51:06.479Z,,0,1,,10340.769999904616,response,ISIC_0026356.JPG,5,ISIC_6188574.JPG,ISIC_6188574.JPG,false,0,keypress(z),500,433039.69999980927,433039.59999990463,422682.13,422764.39999985695,422698.83,432985.666,8,400,9,,ISIC_0026356.JPG
break,html.Screen,4_8_1,2023-09-08T17:51:06.480Z,,0,,,NaN,,,,,,false,,,,433040.39999985695,433040.19999980927,,433040,,432985.666,8,400,,,
break_continue,html.Screen,4_8_2,2023-09-08T17:51:06.480Z,,0,,,NaN,,,,,,false,,,,433040.7999999523,433040.7999999523,,433040.59999990463,,432985.666,8,400,,,
sequence,flow.Sequence,4_8,2023-09-08T17:51:06.480Z,,0,,,10341.9699999523,completion,,,,,false,,,,433041,433040.7999999523,422682.13,422764.39999985695,422698.83,432985.666,8,400,,,
trial,html.Screen,4_9_0,2023-09-08T17:51:15.490Z,,0,1,,9064.733999856922,response,ISIC_9090822.JPG,5,ISIC_4847584.JPG,ISIC_4847584.JPG,false,0,keypress(z),500,442050.39999985695,442050.39999985695,432968.803,433041.09999990463,432985.666,441986.324,8,400,10,,ISIC_9090822.JPG
break,html.Screen,4_9_1,2023-09-08T17:51:15.490Z,,0,,,NaN,,,,,,false,,,,442050.7999999523,442050.69999980927,,442050.5,,441986.324,8,400,,,
break_continue,html.Screen,4_9_2,2023-09-08T17:51:15.490Z,,0,,,NaN,,,,,,false,,,,442050.89999985695,442050.89999985695,,442050.7999999523,,441986.324,8,400,,,
sequence,flow.Sequence,4_9,2023-09-08T17:51:15.490Z,,0,,,9065.233999856922,completion,,,,,false,,,,442050.89999985695,442050.89999985695,432968.803,433041,432985.666,441986.324,8,400,,,
trial,html.Screen,4_10_0,2023-09-08T17:51:24.483Z,,0,1,,9057.27599990461,response,ISIC_0028211.JPG,4,ISIC_0026699.JPG,ISIC_0026699.JPG,false,0,keypress(z),500,451043.69999980927,451043.59999990463,441969.895,442051,441986.324,450987.174,8,400,11,,ISIC_0028211.JPG
break,html.Screen,4_10_1,2023-09-08T17:51:24.484Z,,0,,,NaN,,,,,,false,,,,451044.09999990463,451044,,451043.89999985695,,450987.174,8,400,,,
break_continue,html.Screen,4_10_2,2023-09-08T17:51:24.484Z,,0,,,NaN,,,,,,false,,,,451044.2999999523,451044.19999980927,,451044.19999980927,,450987.174,8,400,,,
sequence,flow.Sequence,4_10,2023-09-08T17:51:24.484Z,,0,,,9057.875999809243,completion,,,,,false,,,,451044.39999985695,451044.19999980927,441969.895,442051,441986.324,450987.174,8,400,,,
trial,html.Screen,4_11_0,2023-09-08T17:51:34.407Z,,0,1,,9979.72599985695,response,ISIC_0010316.JPG,4,ISIC_4587506.JPG,ISIC_4587506.JPG,false,0,keypress(z),500,460967.09999990463,460966.89999985695,450970.515,451044.39999985695,450987.174,460923.223,8,400,12,,ISIC_0010316.JPG
break,html.Screen,4_11_1,2023-09-08T17:51:34.408Z,,0,,,NaN,,,,,,false,,,,460968.09999990463,460967.69999980927,,460967.39999985695,,460923.223,8,400,,,
break_continue,html.Screen,4_11_2,2023-09-08T17:51:34.408Z,,0,,,NaN,,,,,,false,,,,460968.59999990463,460968.5,,460968.19999980927,,460923.223,8,400,,,
sequence,flow.Sequence,4_11,2023-09-08T17:51:34.408Z,,0,,,9981.326000000001,completion,,,,,false,,,,460969,460968.5,450970.515,451044.39999985695,450987.174,460923.223,8,400,,,
trial,html.Screen,4_12_0,2023-09-08T17:51:40.427Z,,0,1,,6064.277000000002,response,ISIC_0011508.JPG,4,ISIC_5883331.JPG,ISIC_5883331.JPG,false,0,keypress(z),500,466987.59999990463,466987.5,460906.562,460969.39999985695,460923.223,466935.03,8,400,13,,ISIC_0011508.JPG
break,html.Screen,4_12_1,2023-09-08T17:51:40.428Z,,0,,,NaN,,,,,,false,,,,466988.19999980927,466988,,466987.7999999523,,466935.03,8,400,,,
break_continue,html.Screen,4_12_2,2023-09-08T17:51:40.428Z,,0,,,NaN,,,,,,false,,,,466988.5,466988.39999985695,,466988.2999999523,,466935.03,8,400,,,
sequence,flow.Sequence,4_12,2023-09-08T17:51:40.428Z,,0,,,6065.176999856951,completion,,,,,false,,,,466988.59999990463,466988.39999985695,460906.562,460969.2999999523,460923.223,466935.03,8,400,,,
trial,html.Screen,4_13_0,2023-09-08T17:51:47.374Z,,0,1,,6999.069999904605,response,ISIC_0056391.JPG,5,ISIC_0000502.JPG,ISIC_0000502.JPG,false,0,keypress(z),500,473934.19999980927,473934.09999990463,466918.368,466988.69999980927,466935.03,473881.769,8,400,14,,ISIC_0056391.JPG
break,html.Screen,4_13_1,2023-09-08T17:51:47.374Z,,0,,,NaN,,,,,,false,,,,473934.7999999523,473934.69999980927,,473934.39999985695,,473881.769,8,400,,,
break_continue,html.Screen,4_13_2,2023-09-08T17:51:47.374Z,,0,,,NaN,,,,,,false,,,,473935.09999990463,473935,,473934.89999985695,,473881.769,8,400,,,
sequence,flow.Sequence,4_13,2023-09-08T17:51:47.375Z,,0,,,6999.969999999972,completion,,,,,false,,,,473935.19999980927,473935,466918.368,466988.69999980927,466935.03,473881.769,8,400,,,
trial,html.Screen,4_14_0,2023-09-08T17:51:57.825Z,,0,1,,10502.930999809294,response,ISIC_0056226.JPG,6,ISIC_5785408.JPG,ISIC_5785408.JPG,false,0,keypress(z),500,484384.7999999523,484384.69999980927,473865.226,473935.2999999523,473881.769,484318.705,8,400,15,,ISIC_0056226.JPG
break,html.Screen,4_14_1,2023-09-08T17:51:57.825Z,,0,,,NaN,,,,,,false,,,,484385.19999980927,484385.09999990463,,484384.89999985695,,484318.705,8,400,,,
break_continue,html.Screen,4_14_2,2023-09-08T17:51:57.825Z,,0,,,NaN,,,,,,false,,,,484385.39999985695,484385.2999999523,,484385.2999999523,,484318.705,8,400,,,
sequence,flow.Sequence,4_14,2023-09-08T17:51:57.825Z,,0,,,10503.530999952345,completion,,,,,false,,,,484385.39999985695,484385.2999999523,473865.226,473935.2999999523,473881.769,484318.705,8,400,,,
trial,html.Screen,4_15_0,2023-09-08T17:52:06.995Z,,0,1,,9236.394999904616,response,ISIC_1690909.JPG,6,ISIC_4329176.JPG,ISIC_1690909.JPG,false,1,keypress(m),500,493555.19999980927,493555.09999990463,484302.053,484385.5,484318.705,493503.273,8,400,16,,ISIC_4329176.JPG
break,html.Screen,4_15_1,2023-09-08T17:52:06.996Z,,0,,,NaN,,,,,,false,,,,493555.5,493555.5,,493555.2999999523,,493503.273,8,400,,,
break_continue,html.Screen,4_15_2,2023-09-08T17:52:06.996Z,,0,,,NaN,,,,,,false,,,,493555.7999999523,493555.69999980927,,493555.59999990463,,493503.273,8,400,,,
sequence,flow.Sequence,4_15,2023-09-08T17:52:06.996Z,,0,,,9236.994999809249,completion,,,,,false,,,,493555.7999999523,493555.69999980927,484302.053,484385.39999985695,484318.705,493503.273,8,400,,,
trial,html.Screen,4_16_0,2023-09-08T17:52:16.469Z,,0,1,,9525.426999809279,response,ISIC_0013243.JPG,5,ISIC_0032790.JPG,ISIC_0013243.JPG,false,1,keypress(m),500,503028.89999985695,503028.69999980927,493486.585,493555.89999985695,493503.273,502971.664,8,400,17,,ISIC_0032790.JPG
break,html.Screen,4_16_1,2023-09-08T17:52:16.469Z,,0,,,NaN,,,,,,false,,,,503029.2999999523,503029.19999980927,,503029,,502971.664,8,400,,,
break_continue,html.Screen,4_16_2,2023-09-08T17:52:16.470Z,,0,,,NaN,,,,,,false,,,,503029.59999990463,503029.5,,503029.5,,502971.664,8,400,,,
sequence,flow.Sequence,4_16,2023-09-08T17:52:16.470Z,,0,,,9526.227000000014,completion,,,,,false,,,,503029.7999999523,503029.5,493486.585,493555.89999985695,493503.273,502971.664,8,400,,,
trial,html.Screen,4_17_0,2023-09-08T17:52:22.088Z,,0,1,,5676.535999809275,response,ISIC_0061011.JPG,5,ISIC_0961235.JPG,ISIC_0961235.JPG,false,0,keypress(z),500,508648.5,508648.19999980927,502955.004,503029.89999985695,502971.664,508582.563,8,400,18,,ISIC_0061011.JPG
break,html.Screen,4_17_1,2023-09-08T17:52:22.089Z,,0,,,NaN,,,,,,false,,,,508649.2999999523,508649,,508648.7999999523,,508582.563,8,400,,,
break_continue,html.Screen,4_17_2,2023-09-08T17:52:22.089Z,,0,,,NaN,,,,,,false,,,,508649.39999985695,508649.39999985695,,508649.2999999523,,508582.563,8,400,,,
sequence,flow.Sequence,4_17,2023-09-08T17:52:22.089Z,,0,,,5677.735999856959,completion,,,,,false,,,,508649.5,508649.39999985695,502955.004,503029.89999985695,502971.664,508582.563,8,400,,,
trial,html.Screen,4_18_0,2023-09-08T17:52:31.883Z,,0,1,,9860.336999856925,response,ISIC_3159924.JPG,4,ISIC_0065766.JPG,ISIC_3159924.JPG,false,1,keypress(m),500,518443.09999990463,518442.89999985695,508566.031,508649.5,508582.563,518401.756,8,400,19,,ISIC_0065766.JPG
break,html.Screen,4_18_1,2023-09-08T17:52:31.884Z,,0,,,NaN,,,,,,false,,,,518443.69999980927,518443.5,,518443.2999999523,,518401.756,8,400,,,
break_continue,html.Screen,4_18_2,2023-09-08T17:52:31.884Z,,0,,,NaN,,,,,,false,,,,518444.09999990463,518444,,518443.89999985695,,518401.756,8,400,,,
sequence,flow.Sequence,4_18,2023-09-08T17:52:31.884Z,,0,,,9861.436999999976,completion,,,,,false,,,,518444.19999980927,518444,508566.031,508649.5,508582.563,518401.756,8,400,,,
trial,html.Screen,4_19_0,2023-09-08T17:52:40.816Z,,0,1,,8974.443999809271,response,ISIC_0027981.JPG,4,ISIC_1885174.JPG,ISIC_0027981.JPG,false,1,keypress(m),500,527376.2999999523,527376.1999998093,518385.056,518445.19999980927,518401.756,527319.117,8,400,20,,ISIC_1885174.JPG
break,html.Screen,4_19_1,2023-09-08T17:52:40.817Z,,0,,,NaN,,,,,,false,,,,527376.899999857,527376.6999998093,,527376.5,,527319.117,8,400,,,
break_continue,html.Screen,4_19_2,2023-09-08T17:52:40.817Z,,0,,,NaN,,,,,,false,,,,527377.2999999523,527377.0999999046,,527377.0999999046,,527319.117,8,400,,,
sequence,flow.Sequence,4_19,2023-09-08T17:52:40.817Z,,0,,,8975.343999904639,completion,,,,,false,,,,527377.399999857,527377.0999999046,518385.056,518445,518401.756,527319.117,8,400,,,
trial,html.Screen,4_20_0,2023-09-08T17:52:50.774Z,,0,1,,10014.38300000003,response,ISIC_7629589.JPG,6,ISIC_0032140.JPG,ISIC_7629589.JPG,false,1,keypress(m),500,537333.6999998093,537333.5,527302.572,527377.5,527319.117,537288.474,8,400,21,,ISIC_0032140.JPG
break,html.Screen,4_20_1,2023-09-08T17:52:50.774Z,,0,,,NaN,,,,,,false,,,,537334.2999999523,537334.0999999046,,537333.899999857,,537288.474,8,400,,,
break_continue,html.Screen,4_20_2,2023-09-08T17:52:50.775Z,,0,,,NaN,,,,,,false,,,,537334.5999999046,537334.5,,537334.399999857,,537288.474,8,400,,,
sequence,flow.Sequence,4_20,2023-09-08T17:52:50.775Z,,0,,,10015.38300000003,completion,,,,,false,,,,537334.6999998093,537334.5,527302.572,527377.399999857,527319.117,537288.474,8,400,,,
trial,html.Screen,4_21_0,2023-09-08T17:52:57.257Z,,0,1,,6527.625999904587,response,ISIC_5039895.JPG,7,ISIC_7672106.JPG,ISIC_5039895.JPG,false,1,keypress(m),500,543816.2999999523,543816.0999999046,537271.733,537334.899999857,537288.474,543751.074,8,400,22,,ISIC_7672106.JPG
break,html.Screen,4_21_1,2023-09-08T17:52:57.257Z,,0,,,NaN,,,,,,false,,,,543816.899999857,543816.6999998093,,543816.399999857,,543751.074,8,400,,,
break_continue,html.Screen,4_21_2,2023-09-08T17:52:57.258Z,,0,,,NaN,,,,,,false,,,,543817.1999998093,543817.0999999046,,543817,,543751.074,8,400,,,
sequence,flow.Sequence,4_21,2023-09-08T17:52:57.258Z,,0,,,6528.625999904587,completion,,,,,false,,,,543817.2999999523,543817.0999999046,537271.733,537334.7999999523,537288.474,543751.074,8,400,,,
trial,html.Screen,4_22_0,2023-09-08T17:53:06.077Z,,0,1,,8885.52599990461,response,ISIC_7295035.JPG,5,ISIC_0013530.JPG,ISIC_0013530.JPG,false,0,keypress(z),500,552636.899999857,552636.5999999046,543734.498,543817.5,543751.074,552585.004,8,400,23,,ISIC_7295035.JPG
break,html.Screen,4_22_1,2023-09-08T17:53:06.079Z,,0,,,NaN,,,,,,false,,,,552638,552637.7999999523,,552637.2999999523,,552585.004,8,400,,,
break_continue,html.Screen,4_22_2,2023-09-08T17:53:06.079Z,,0,,,NaN,,,,,,false,,,,552638.7999999523,552638.5,,552638.399999857,,552585.004,8,400,,,
sequence,flow.Sequence,4_22,2023-09-08T17:53:06.080Z,,0,,,8887.425999999978,completion,,,,,false,,,,552639,552638.5,543734.498,543817.5,543751.074,552585.004,8,400,,,
trial,html.Screen,4_23_0,2023-09-08T17:53:14.715Z,,0,1,,8689.29599995236,response,ISIC_5238649.JPG,5,ISIC_9801917.JPG,ISIC_9801917.JPG,false,0,keypress(z),500,561274.5,561274.2999999523,552568.359,552639.2999999523,552585.004,561218.457,8,400,24,,ISIC_5238649.JPG
break,html.Screen,4_23_1,2023-09-08T17:53:14.715Z,,0,,,NaN,,,,,,false,,,,561274.7999999523,561274.6999998093,,561274.5999999046,,561218.457,8,400,,,
break_continue,html.Screen,4_23_2,2023-09-08T17:53:14.716Z,,0,,,NaN,,,,,,false,,,,561275.1999998093,561275.0999999046,,561274.899999857,,561218.457,8,400,,,
sequence,flow.Sequence,4_23,2023-09-08T17:53:14.716Z,,0,,,8690.095999904675,completion,,,,,false,,,,561275.2999999523,561275.0999999046,552568.359,552639.1999998093,552585.004,561218.457,8,400,,,
trial,html.Screen,4_24_0,2023-09-08T17:53:22.973Z,,0,1,,8313.742999809212,response,ISIC_0000040.JPG,6,ISIC_5247383.JPG,ISIC_5247383.JPG,false,0,keypress(z),500,569532.399999857,569532.1999998093,561201.654,561275.2999999523,561218.457,569467.787,8,400,25,,ISIC_0000040.JPG
break,html.Screen,4_24_1,2023-09-08T17:53:22.973Z,,0,,,NaN,,,,,,false,,,,569532.899999857,569532.6999998093,,569532.5,,569467.787,8,400,,,
break_continue,html.Screen,4_24_2,2023-09-08T17:53:22.974Z,,0,,,NaN,,,,,,false,,,,569533.2999999523,569533.1999998093,,569533.0999999046,,569467.787,8,400,,,
sequence,flow.Sequence,4_24,2023-09-08T17:53:22.974Z,,0,,,8314.742999809212,completion,,,,,false,,,,569533.5,569533.1999998093,561201.654,561275.2999999523,561218.457,569467.787,8,400,,,
trial,html.Screen,4_25_0,2023-09-08T17:53:34.240Z,,0,1,,11331.712999999989,response,ISIC_0024718.JPG,5,ISIC_0597218.JPG,ISIC_0024718.JPG,false,1,keypress(m),500,580799.5999999046,580799.5,569451.221,569533.5999999046,569467.787,580739.661,8,400,26,,ISIC_0597218.JPG
break,html.Screen,4_25_1,2023-09-08T17:53:34.240Z,,0,,,NaN,,,,,,false,,,,580799.899999857,580799.899999857,,580799.6999998093,,580739.661,8,400,,,
break_continue,html.Screen,4_25_2,2023-09-08T17:53:34.241Z,,0,,,NaN,,,,,,false,,,,580800.0999999046,580800.0999999046,,580800,,580739.661,8,400,,,
sequence,flow.Sequence,4_25,2023-09-08T17:53:34.241Z,,0,,,11332.312999904621,completion,,,,,false,,,,580800.1999998093,580800.0999999046,569451.221,569533.5999999046,569467.787,580739.661,8,400,,,
trial,html.Screen,4_26_0,2023-09-08T17:53:42.370Z,,0,1,,8189.339000000036,response,ISIC_0813423.JPG,5,ISIC_5994286.JPG,ISIC_0813423.JPG,false,1,keypress(m),500,588929.1999998093,588929,580722.98,580800.1999998093,580739.661,588872.174,8,400,27,,ISIC_5994286.JPG
break,html.Screen,4_26_1,2023-09-08T17:53:42.370Z,,0,,,NaN,,,,,,false,,,,588929.7999999523,588929.5,,588929.399999857,,588872.174,8,400,,,
break_continue,html.Screen,4_26_2,2023-09-08T17:53:42.371Z,,0,,,NaN,,,,,,false,,,,588930.0999999046,588930,,588930,,588872.174,8,400,,,
sequence,flow.Sequence,4_26,2023-09-08T17:53:42.371Z,,0,,,8190.339000000036,completion,,,,,false,,,,588930.1999998093,588930,580722.98,580800.1999998093,580739.661,588872.174,8,400,,,
trial,html.Screen,4_27_0,2023-09-08T17:53:51.573Z,,0,1,,9259.326000000001,response,ISIC_0064943.JPG,5,ISIC_0046526.JPG,ISIC_0046526.JPG,false,0,keypress(z),500,598131.5999999046,598131.5,588855.635,588930.2999999523,588872.174,598073.446,8,400,28,,ISIC_0064943.JPG
break,html.Screen,4_27_1,2023-09-08T17:53:51.573Z,,0,,,NaN,,,,,,false,,,,598132.0999999046,598132,,598131.6999998093,,598073.446,8,400,,,
break_continue,html.Screen,4_27_2,2023-09-08T17:53:51.573Z,,0,,,NaN,,,,,,false,,,,598132.1999998093,598132.1999998093,,598132.1999998093,,598073.446,8,400,,,
sequence,flow.Sequence,4_27,2023-09-08T17:53:51.573Z,,0,,,9260.025999809266,completion,,,,,false,,,,598132.399999857,598132.1999998093,588855.635,588930.2999999523,588872.174,598073.446,8,400,,,
trial,html.Screen,4_28_0,2023-09-08T17:54:01.063Z,,0,1,,9548.753999809269,response,ISIC_9059311.JPG,5,ISIC_9390107.JPG,ISIC_9390107.JPG,false,0,keypress(z),500,607622.5,607622.1999998093,598056.735,598132.5,598073.446,607558.592,8,400,29,,ISIC_9059311.JPG
break,html.Screen,4_28_1,2023-09-08T17:54:01.064Z,,0,,,NaN,,,,,,false,,,,607623.1999998093,607623,,607622.6999998093,,607558.592,8,400,,,
break_continue,html.Screen,4_28_2,2023-09-08T17:54:01.065Z,,0,,,NaN,,,,,,false,,,,607623.6999998093,607623.5,,607623.399999857,,607558.592,8,400,,,
sequence,flow.Sequence,4_28,2023-09-08T17:54:01.065Z,,0,,,9550.054000000004,completion,,,,,false,,,,607623.7999999523,607623.5,598056.735,598132.5,598073.446,607558.592,8,400,,,
trial,html.Screen,4_29_0,2023-09-08T17:54:09.563Z,,0,1,,8563.307999857003,response,ISIC_0010809.JPG,5,ISIC_0066105.JPG,ISIC_0066105.JPG,false,0,keypress(z),500,616122.0999999046,616121.899999857,607541.925,607624,607558.592,616058.412,8,400,30,,ISIC_0010809.JPG
break,html.Screen,4_29_1,2023-09-08T17:54:09.564Z,,0,,,NaN,,,,,,false,,,,616122.5,616122.399999857,,616122.1999998093,,616058.412,8,400,,,
break_continue,html.Screen,4_29_2,2023-09-08T17:54:09.564Z,,0,,,NaN,,,,,,false,,,,616122.899999857,616122.7999999523,,616122.5999999046,,616058.412,8,400,,,
sequence,flow.Sequence,4_29,2023-09-08T17:54:09.564Z,,0,,,8564.20799995237,completion,,,,,false,,,,616123,616122.7999999523,607541.925,607623.899999857,607558.592,616058.412,8,400,,,
trial,html.Screen,4_30_0,2023-09-08T17:54:18.532Z,,0,1,,9032.187999904621,response,ISIC_0055191.JPG,6,ISIC_7642591.JPG,ISIC_7642591.JPG,false,0,keypress(z),500,625090.7999999523,625090.5999999046,616041.823,616123.0999999046,616058.412,625025.861,8,400,31,,ISIC_0055191.JPG
break,html.Screen,4_30_1,2023-09-08T17:54:18.532Z,,0,,,NaN,,,,,,false,,,,625091.1999998093,625091.0999999046,,625090.899999857,,625025.861,8,400,,,
break_continue,html.Screen,4_30_2,2023-09-08T17:54:18.533Z,,0,,,NaN,,,,,,false,,,,625091.5,625091.399999857,,625091.2999999523,,625025.861,8,400,,,
sequence,flow.Sequence,4_30,2023-09-08T17:54:18.533Z,,0,,,9032.987999856938,completion,,,,,false,,,,625091.6999998093,625091.399999857,616041.823,616123,616058.412,625025.861,8,400,,,
trial,html.Screen,4_31_0,2023-09-08T17:54:27.735Z,,0,1,,9267.938999952283,response,ISIC_0031553.JPG,6,ISIC_3065032.JPG,ISIC_3065032.JPG,false,0,keypress(z),500,634294.0999999046,634293.7999999523,625009.244,625091.7999999523,625025.861,634243.817,8,400,32,,ISIC_0031553.JPG
break,html.Screen,4_31_1,2023-09-08T17:54:27.736Z,,0,,,NaN,,,,,,false,,,,634294.5999999046,634294.5,,634294.1999998093,,634243.817,8,400,,,
break_continue,html.Screen,4_31_2,2023-09-08T17:54:27.736Z,,0,,,NaN,,,,,,false,,,,634295,634294.899999857,,634294.7999999523,,634243.817,8,400,,,
sequence,flow.Sequence,4_31,2023-09-08T17:54:27.736Z,,0,,,9269.038999856915,completion,,,,,false,,,,634295.1999998093,634294.899999857,625009.244,625091.7999999523,625025.861,634243.817,8,400,,,
trial,html.Screen,4_32_0,2023-09-08T17:54:35.885Z,,0,1,,8199.782999904593,response,ISIC_6785680.JPG,5,ISIC_0028847.JPG,ISIC_0028847.JPG,false,0,keypress(z),500,642443.7999999523,642443.5999999046,634227.373,634295.2999999523,634243.817,642393.019,8,400,33,,ISIC_6785680.JPG
break,html.Screen,4_32_1,2023-09-08T17:54:35.885Z,,0,,,NaN,,,,,,false,,,,642444.1999998093,642444,,642443.7999999523,,642393.019,8,400,,,
break_continue,html.Screen,4_32_2,2023-09-08T17:54:35.885Z,,0,,,NaN,,,,,,false,,,,642444.399999857,642444.2999999523,,642444.1999998093,,642393.019,8,400,,,
sequence,flow.Sequence,4_32,2023-09-08T17:54:35.885Z,,0,,,8200.482999952277,completion,,,,,false,,,,642444.5,642444.2999999523,634227.373,634295.1999998093,634243.817,642393.019,8,400,,,
trial,html.Screen,4_33_0,2023-09-08T17:54:44.402Z,,0,1,,8567.580999904661,response,ISIC_7535412.JPG,5,ISIC_0059368.JPG,ISIC_7535412.JPG,false,1,keypress(m),500,650960.6999998093,650960.5999999046,642376.337,642444.5,642393.019,650909.544,8,400,34,,ISIC_0059368.JPG
break,html.Screen,4_33_1,2023-09-08T17:54:44.402Z,,0,,,NaN,,,,,,false,,,,650961,650960.899999857,,650960.7999999523,,650909.544,8,400,,,
break_continue,html.Screen,4_33_2,2023-09-08T17:54:44.402Z,,0,,,NaN,,,,,,false,,,,650961.1999998093,650961,,650961,,650909.544,8,400,,,
sequence,flow.Sequence,4_33,2023-09-08T17:54:44.402Z,,0,,,8567.981000000029,completion,,,,,false,,,,650961.1999998093,650961,642376.337,642444.5,642393.019,650909.544,8,400,,,
trial,html.Screen,4_34_0,2023-09-08T17:54:52.244Z,,0,1,,7892.855999856954,response,ISIC_0071754.JPG,5,ISIC_0034216.JPG,ISIC_0071754.JPG,false,1,keypress(m),500,658802.5999999046,658802.399999857,650893.156,650961.1999998093,650909.544,658741.486,8,400,35,,ISIC_0034216.JPG
break,html.Screen,4_34_1,2023-09-08T17:54:52.245Z,,0,,,NaN,,,,,,false,,,,658803.2999999523,658803.0999999046,,658802.7999999523,,658741.486,8,400,,,
break_continue,html.Screen,4_34_2,2023-09-08T17:54:52.245Z,,0,,,NaN,,,,,,false,,,,658803.7999999523,658803.6999998093,,658803.5,,658741.486,8,400,,,
sequence,flow.Sequence,4_34,2023-09-08T17:54:52.246Z,,0,,,7894.155999809271,completion,,,,,false,,,,658804,658803.6999998093,650893.156,650961.1999998093,650909.544,658741.486,8,400,,,
trial,html.Screen,4_35_0,2023-09-08T17:55:03.303Z,,0,1,,11120.013999999966,response,ISIC_0026394.JPG,6,ISIC_0063268.JPG,ISIC_0026394.JPG,false,1,keypress(m),500,669861.5999999046,669861.5,658724.875,658804.1999998093,658741.486,669796.359,8,400,36,,ISIC_0063268.JPG
break,html.Screen,4_35_1,2023-09-08T17:55:03.304Z,,0,,,NaN,,,,,,false,,,,669862.399999857,669862.1999998093,,669862,,669796.359,8,400,,,
break_continue,html.Screen,4_35_2,2023-09-08T17:55:03.304Z,,0,,,NaN,,,,,,false,,,,669862.6999998093,669862.6999998093,,669862.5,,669796.359,8,400,,,
sequence,flow.Sequence,4_35,2023-09-08T17:55:03.304Z,,0,,,11121.213999809232,completion,,,,,false,,,,669862.899999857,669862.6999998093,658724.875,658804.0999999046,658741.486,669796.359,8,400,,,
trial,html.Screen,4_36_0,2023-09-08T17:55:10.654Z,,0,1,,7415.34099980921,response,ISIC_0028916.JPG,5,ISIC_0065882.JPG,ISIC_0065882.JPG,false,0,keypress(z),500,677212.0999999046,677211.6999998093,669779.579,669863.0999999046,669796.359,677160.825,8,400,37,,ISIC_0028916.JPG
break,html.Screen,4_36_1,2023-09-08T17:55:10.654Z,,0,,,NaN,,,,,,false,,,,677212.7999999523,677212.5999999046,,677212.2999999523,,677160.825,8,400,,,
break_continue,html.Screen,4_36_2,2023-09-08T17:55:10.655Z,,0,,,NaN,,,,,,false,,,,677213.1999998093,677213.0999999046,,677213,,677160.825,8,400,,,
sequence,flow.Sequence,4_36,2023-09-08T17:55:10.655Z,,0,,,7416.740999904578,completion,,,,,false,,,,677213.399999857,677213.0999999046,669779.579,669863,669796.359,677160.825,8,400,,,
trial,html.Screen,4_37_0,2023-09-08T17:55:18.097Z,,0,1,,7494.574999856995,response,ISIC_0060326.JPG,5,ISIC_0032094.JPG,ISIC_0032094.JPG,false,0,keypress(z),500,684655.5,684655.399999857,677144.011,677213.5,677160.825,684591.757,8,400,38,,ISIC_0060326.JPG
break,html.Screen,4_37_1,2023-09-08T17:55:18.097Z,,0,,,NaN,,,,,,false,,,,684655.899999857,684655.6999998093,,684655.5999999046,,684591.757,8,400,,,
break_continue,html.Screen,4_37_2,2023-09-08T17:55:18.098Z,,0,,,NaN,,,,,,false,,,,684656.2999999523,684656.0999999046,,684656,,684591.757,8,400,,,
sequence,flow.Sequence,4_37,2023-09-08T17:55:18.098Z,,0,,,7495.274999904679,completion,,,,,false,,,,684656.399999857,684656.0999999046,677144.011,677213.5,677160.825,684591.757,8,400,,,
trial,html.Screen,4_38_0,2023-09-08T17:55:25.507Z,,0,1,,7473.442999809282,response,ISIC_6260086.JPG,6,ISIC_0030492.JPG,ISIC_6260086.JPG,false,1,keypress(m),500,692065.399999857,692065.1999998093,684575.101,684656.5,684591.757,692006.265,8,400,39,,ISIC_0030492.JPG
break,html.Screen,4_38_1,2023-09-08T17:55:25.507Z,,0,,,NaN,,,,,,false,,,,692065.899999857,692065.6999998093,,692065.5999999046,,692006.265,8,400,,,
break_continue,html.Screen,4_38_2,2023-09-08T17:55:25.508Z,,0,,,NaN,,,,,,false,,,,692066,692066,,692065.899999857,,692006.265,8,400,,,
sequence,flow.Sequence,4_38,2023-09-08T17:55:25.508Z,,0,,,7474.243000000017,completion,,,,,false,,,,692066.0999999046,692066,684575.101,684656.5,684591.757,692006.265,8,400,,,
trial,html.Screen,4_39_0,2023-09-08T17:55:35.229Z,,0,1,,9780.834999904619,response,ISIC_0013572.JPG,6,ISIC_0029609.JPG,ISIC_0013572.JPG,false,1,keypress(m),500,701787.1999998093,701787.0999999046,691989.569,692066.1999998093,692006.265,701725.13,8,400,40,,ISIC_0029609.JPG
break,html.Screen,4_39_1,2023-09-08T17:55:35.229Z,,0,,,NaN,,,,,,false,,,,701787.5999999046,701787.5,,701787.2999999523,,701725.13,8,400,,,
break_continue,html.Screen,4_39_2,2023-09-08T17:55:35.229Z,,0,,,NaN,,,,,,false,,,,701787.899999857,701787.7999999523,,701787.6999998093,,701725.13,8,400,,,
sequence,flow.Sequence,4_39,2023-09-08T17:55:35.230Z,,0,,,9781.534999952302,completion,,,,,false,,,,701788,701787.7999999523,691989.569,692066.1999998093,692006.265,701725.13,8,400,,,
trial,html.Screen,4_40_0,2023-09-08T17:55:44.198Z,,0,1,,9031.369999999995,response,ISIC_8052769.JPG,4,ISIC_4548632.JPG,ISIC_4548632.JPG,false,0,keypress(z),500,710756.5999999046,710756.5,701708.506,701788,701725.13,710692.576,8,400,41,,ISIC_8052769.JPG
break,html.Screen,4_40_1,2023-09-08T17:55:44.199Z,,0,,,NaN,,,,,,false,,,,710757.1999998093,710757,,710756.7999999523,,710692.576,8,400,,,
break_continue,html.Screen,4_40_2,2023-09-08T17:55:44.199Z,,0,,,NaN,,,,,,false,,,,710757.399999857,710757.399999857,,710757.1999998093,,710692.576,8,400,,,
sequence,flow.Sequence,4_40,2023-09-08T17:55:44.199Z,,0,,,9032.269999856944,completion,,,,,false,,,,710757.6999998093,710757.399999857,701708.506,701788,701725.13,710692.576,8,400,,,
trial,html.Screen,4_41_0,2023-09-08T17:55:50.206Z,,0,1,,6071.823999856948,response,ISIC_0033696.JPG,5,ISIC_0024261.JPG,ISIC_0024261.JPG,false,0,keypress(z),500,716764.5,716764.399999857,710675.907,710757.7999999523,710692.576,716704.252,8,400,42,,ISIC_0033696.JPG
break,html.Screen,4_41_1,2023-09-08T17:55:50.207Z,,0,,,NaN,,,,,,false,,,,716765,716764.7999999523,,716764.6999998093,,716704.252,8,400,,,
break_continue,html.Screen,4_41_2,2023-09-08T17:55:50.207Z,,0,,,NaN,,,,,,false,,,,716765.1999998093,716765.1999998093,,716765,,716704.252,8,400,,,
sequence,flow.Sequence,4_41,2023-09-08T17:55:50.207Z,,0,,,6072.623999809264,completion,,,,,false,,,,716765.2999999523,716765.1999998093,710675.907,710757.6999998093,710692.576,716704.252,8,400,,,
trial,html.Screen,4_42_0,2023-09-08T17:55:57.448Z,,0,1,,7301.847999904654,response,ISIC_4220010.JPG,6,ISIC_0033193.JPG,ISIC_4220010.JPG,false,1,keypress(m),500,724006.1999998093,724006.0999999046,716687.745,716765.2999999523,716704.252,723951.721,8,400,43,,ISIC_0033193.JPG
break,html.Screen,4_42_1,2023-09-08T17:55:57.449Z,,0,,,NaN,,,,,,false,,,,724006.5,724006.399999857,,724006.2999999523,,723951.721,8,400,,,
break_continue,html.Screen,4_42_2,2023-09-08T17:55:57.449Z,,0,,,NaN,,,,,,false,,,,724006.6999998093,724006.6999998093,,724006.5999999046,,723951.721,8,400,,,
sequence,flow.Sequence,4_42,2023-09-08T17:55:57.449Z,,0,,,7302.447999809287,completion,,,,,false,,,,724006.7999999523,724006.6999998093,716687.745,716765.2999999523,716704.252,723951.721,8,400,,,
trial,html.Screen,4_43_0,2023-09-08T17:56:04.027Z,,0,1,,6632.578999952297,response,ISIC_0033555.JPG,5,ISIC_7104307.JPG,ISIC_7104307.JPG,false,0,keypress(z),500,730584.5,730584.2999999523,723935.048,724006.7999999523,723951.721,730531.399,8,400,44,,ISIC_0033555.JPG
break,html.Screen,4_43_1,2023-09-08T17:56:04.027Z,,0,,,NaN,,,,,,false,,,,730584.7999999523,730584.7999999523,,730584.5,,730531.399,8,400,,,
break_continue,html.Screen,4_43_2,2023-09-08T17:56:04.027Z,,0,,,NaN,,,,,,false,,,,730585.0999999046,730585,,730584.899999857,,730531.399,8,400,,,
sequence,flow.Sequence,4_43,2023-09-08T17:56:04.027Z,,0,,,6633.27899999998,completion,,,,,false,,,,730585.2999999523,730585,723935.048,724006.7999999523,723951.721,730531.399,8,400,,,
trial,html.Screen,4_44_0,2023-09-08T17:56:13.197Z,,0,1,,9223.500999856973,response,ISIC_0363130.JPG,5,ISIC_0055079.JPG,ISIC_0363130.JPG,false,1,keypress(m),500,739755.0999999046,739754.899999857,730514.555,730585.2999999523,730531.399,739699.112,8,400,45,,ISIC_0055079.JPG
break,html.Screen,4_44_1,2023-09-08T17:56:13.198Z,,0,,,NaN,,,,,,false,,,,739755.6999998093,739755.5,,739755.1999998093,,739699.112,8,400,,,
break_continue,html.Screen,4_44_2,2023-09-08T17:56:13.198Z,,0,,,NaN,,,,,,false,,,,739756.0999999046,739756,,739755.899999857,,739699.112,8,400,,,
sequence,flow.Sequence,4_44,2023-09-08T17:56:13.198Z,,0,,,9224.601000000024,completion,,,,,false,,,,739756.1999998093,739756,730514.555,730585.2999999523,730531.399,739699.112,8,400,,,
trial,html.Screen,4_45_0,2023-09-08T17:56:24.698Z,,0,1,,11522.310000000056,timeout,ISIC_6618851.JPG,5,ISIC_0000466.JPG,,false,,,500,751256.1999998093,751255.899999857,739682.363,739756.399999857,739699.112,751221.422,8,400,46,,
break,html.Screen,4_45_1,2023-09-08T17:56:24.700Z,,0,,,NaN,,,,,,false,,,,751257.399999857,751257.0999999046,,751256.6999998093,,751221.422,8,400,,,
break_continue,html.Screen,4_45_2,2023-09-08T17:56:24.700Z,,0,,,NaN,,,,,,false,,,,751257.7999999523,751257.5999999046,,751257.5999999046,,751221.422,8,400,,,
sequence,flow.Sequence,4_45,2023-09-08T17:56:24.701Z,,0,,,11558.487999904668,completion,,,,,false,,,,751259,751257.5999999046,739682.363,739756.2999999523,739699.112,751221.422,8,400,,,
trial,html.Screen,4_46_0,2023-09-08T17:56:31.825Z,,0,1,,7161.477999856928,response,ISIC_0014883.JPG,5,ISIC_9301346.JPG,ISIC_9301346.JPG,false,0,keypress(z),500,758383.0999999046,758382.899999857,751204.793,751259.1999998093,751221.422,758318.604,8,400,47,,ISIC_0014883.JPG
break,html.Screen,4_46_1,2023-09-08T17:56:31.826Z,,0,,,NaN,,,,,,false,,,,758383.5999999046,758383.5,,758383.2999999523,,758318.604,8,400,,,
break_continue,html.Screen,4_46_2,2023-09-08T17:56:31.826Z,,0,,,NaN,,,,,,false,,,,758383.7999999523,758383.6999998093,,758383.5999999046,,758318.604,8,400,,,
sequence,flow.Sequence,4_46,2023-09-08T17:56:31.826Z,,0,,,7162.277999809245,completion,,,,,false,,,,758383.7999999523,758383.6999998093,751204.793,751259.0999999046,751221.422,758318.604,8,400,,,
trial,html.Screen,4_47_0,2023-09-08T17:56:38.939Z,,0,1,,7178.39599999995,response,ISIC_1470250.JPG,4,ISIC_4161113.JPG,ISIC_4161113.JPG,false,0,keypress(z),500,765497.0999999046,765497,758302.042,758384,758318.604,765432.424,8,400,48,,ISIC_1470250.JPG
break,html.Screen,4_47_1,2023-09-08T17:56:38.940Z,,0,,,NaN,,,,,,false,,,,765497.399999857,765497.399999857,,765497.1999998093,,765432.424,8,400,,,
break_continue,html.Screen,4_47_2,2023-09-08T17:56:38.940Z,,0,,,NaN,,,,,,false,,,,765497.5999999046,765497.5,,765497.399999857,,765432.424,8,400,,,
sequence,flow.Sequence,4_47,2023-09-08T17:56:38.940Z,,0,,,7178.89599999995,completion,,,,,false,,,,765497.5999999046,765497.5,758302.042,758383.899999857,758318.604,765432.424,8,400,,,
trial,html.Screen,4_48_0,2023-09-08T17:56:49.246Z,,0,1,,10370.875999952317,response,ISIC_4701063.JPG,6,ISIC_3448546.JPG,ISIC_3448546.JPG,false,0,keypress(z),500,775803.7999999523,775803.2999999523,765415.781,765497.6999998093,765432.424,775752.534,8,400,49,,ISIC_4701063.JPG
break,html.Screen,4_48_1,2023-09-08T17:56:49.247Z,,0,,,NaN,,,,,,false,,,,775804.5,775804.399999857,,775804.0999999046,,775752.534,8,400,,,
break_continue,html.Screen,4_48_2,2023-09-08T17:56:49.247Z,,0,,,NaN,,,,,,false,,,,775804.6999998093,775804.5999999046,,775804.5999999046,,775752.534,8,400,,,
sequence,flow.Sequence,4_48,2023-09-08T17:56:49.247Z,,0,,,10372.175999904633,completion,,,,,false,,,,775804.7999999523,775804.5999999046,765415.781,765497.5999999046,765432.424,775752.534,8,400,,,
trial,html.Screen,4_49_0,2023-09-08T17:56:54.642Z,,0,1,,5446.5659999046475,response,ISIC_0053493.JPG,5,ISIC_0029000.JPG,ISIC_0053493.JPG,false,1,keypress(m),500,781199.1999998093,781199.0999999046,775735.844,775804.899999857,775752.534,781146.528,8,400,50,,ISIC_0029000.JPG
break,html.Screen,4_49_1,2023-09-08T17:57:04.643Z,,0,,,10002.745999999926,timeout,,,,,false,,,,791200.1999998093,791132.581,781129.952,781199.2999999523,781146.528,791149.274,8,400,,,
break_continue,html.Screen,4_49_2,2023-09-08T17:57:16.650Z,,0,,,12046.125999856973,response,,,,,false,continue,keypress(Space),,803207.6999998093,803195.399999857,791132.581,791200.2999999523,791149.274,803155.856,8,400,,,
sequence,flow.Sequence,4_49,2023-09-08T17:57:16.651Z,,0,,,27442.865999856964,completion,,,,,false,,,,803207.899999857,803195.399999857,775735.844,775804.7999999523,775752.534,803155.856,8,400,,,
trial,html.Screen,4_50_0,2023-09-08T17:57:24.400Z,,0,2,,7801.443999952287,response,ISIC_6917681.JPG,5,ISIC_5520533.JPG,ISIC_5520533.JPG,false,0,keypress(z),500,810957.5,810957.2999999523,803139.092,803207.899999857,803155.856,810904.325,8,400,1,,ISIC_6917681.JPG
break,html.Screen,4_50_1,2023-09-08T17:57:24.401Z,,0,,,NaN,,,,,,false,,,,810958,810957.899999857,,810957.6999998093,,810904.325,8,400,,,
break_continue,html.Screen,4_50_2,2023-09-08T17:57:24.401Z,,0,,,NaN,,,,,,false,,,,810958.1999998093,810958.1999998093,,810958.0999999046,,810904.325,8,400,,,
sequence,flow.Sequence,4_50,2023-09-08T17:57:24.401Z,,0,,,7802.343999809236,completion,,,,,false,,,,810958.2999999523,810958.1999998093,803139.092,803207.899999857,803155.856,810904.325,8,400,,,
trial,html.Screen,4_51_0,2023-09-08T17:57:30.586Z,,0,2,,6239.274999904679,response,ISIC_4842269.JPG,4,ISIC_9918523.JPG,ISIC_9918523.JPG,false,0,keypress(z),500,817143.7999999523,817143.5999999046,810887.597,810958.399999857,810904.325,817083.013,8,400,2,,ISIC_4842269.JPG
break,html.Screen,4_51_1,2023-09-08T17:57:30.587Z,,0,,,NaN,,,,,,false,,,,817144.0999999046,817144,,817143.7999999523,,817083.013,8,400,,,
break_continue,html.Screen,4_51_2,2023-09-08T17:57:30.587Z,,0,,,NaN,,,,,,false,,,,817144.399999857,817144.399999857,,817144.2999999523,,817083.013,8,400,,,
sequence,flow.Sequence,4_51,2023-09-08T17:57:30.587Z,,0,,,6240.074999856995,completion,,,,,false,,,,817144.5,817144.399999857,810887.597,810958.399999857,810904.325,817083.013,8,400,,,
trial,html.Screen,4_52_0,2023-09-08T17:57:36.781Z,,0,2,,6254.68699980923,response,ISIC_0740449.JPG,5,ISIC_0031118.JPG,ISIC_0740449.JPG,false,1,keypress(m),500,823337.899999857,823337.6999998093,817066.324,817144.5999999046,817083.013,823278.528,8,400,3,,ISIC_0031118.JPG
break,html.Screen,4_52_1,2023-09-08T17:57:36.782Z,,0,,,NaN,,,,,,false,,,,823338.899999857,823338.0999999046,,823337.899999857,,823278.528,8,400,,,
break_continue,html.Screen,4_52_2,2023-09-08T17:57:36.782Z,,0,,,NaN,,,,,,false,,,,823339.0999999046,823339,,823338.899999857,,823278.528,8,400,,,
sequence,flow.Sequence,4_52,2023-09-08T17:57:36.782Z,,0,,,6255.986999999965,completion,,,,,false,,,,823339.1999998093,823339,817066.324,817144.5,817083.013,823278.528,8,400,,,
trial,html.Screen,4_53_0,2023-09-08T17:57:44.080Z,,0,2,,7358.671999809216,response,ISIC_1264725.JPG,5,ISIC_0029561.JPG,ISIC_1264725.JPG,false,1,keypress(m),500,830637.5999999046,830637.1999998093,823261.668,823339.1999998093,823278.528,830575.888,8,400,4,,ISIC_0029561.JPG
break,html.Screen,4_53_1,2023-09-08T17:57:44.081Z,,0,,,NaN,,,,,,false,,,,830638.5999999046,830638.2999999523,,830637.899999857,,830575.888,8,400,,,
break_continue,html.Screen,4_53_2,2023-09-08T17:57:44.081Z,,0,,,NaN,,,,,,false,,,,830638.7999999523,830638.6999998093,,830638.5999999046,,830575.888,8,400,,,
sequence,flow.Sequence,4_53,2023-09-08T17:57:44.082Z,,0,,,7360.171999809216,completion,,,,,false,,,,830638.7999999523,830638.6999998093,823261.668,823339.1999998093,823278.528,830575.888,8,400,,,
trial,html.Screen,4_54_0,2023-09-08T17:57:51.594Z,,0,2,,7574.5119998569135,response,ISIC_0070679.JPG,4,ISIC_0032079.JPG,ISIC_0070679.JPG,false,1,keypress(m),500,838150.5999999046,838150.399999857,830559.317,830639,830575.888,838090.562,8,400,5,,ISIC_0032079.JPG
break,html.Screen,4_54_1,2023-09-08T17:57:51.594Z,,0,,,NaN,,,,,,false,,,,838151,838150.7999999523,,838150.6999998093,,838090.562,8,400,,,
break_continue,html.Screen,4_54_2,2023-09-08T17:57:51.595Z,,0,,,NaN,,,,,,false,,,,838151.2999999523,838151.1999998093,,838151.1999998093,,838090.562,8,400,,,
sequence,flow.Sequence,4_54,2023-09-08T17:57:51.595Z,,0,,,7575.31199980923,completion,,,,,false,,,,838151.399999857,838151.1999998093,830559.317,830639,830575.888,838090.562,8,400,,,
trial,html.Screen,4_55_0,2023-09-08T17:57:58.731Z,,0,2,,7197.237999952282,response,ISIC_0056444.JPG,5,ISIC_1696845.JPG,ISIC_1696845.JPG,false,0,keypress(z),500,845288,845287.7999999523,838073.793,838151.5,838090.562,845237.699,8,400,6,,ISIC_0056444.JPG
break,html.Screen,4_55_1,2023-09-08T17:57:58.732Z,,0,,,NaN,,,,,,false,,,,845288.399999857,845288.1999998093,,845288,,845237.699,8,400,,,
break_continue,html.Screen,4_55_2,2023-09-08T17:57:58.732Z,,0,,,NaN,,,,,,false,,,,845288.6999998093,845288.5999999046,,845288.5,,845237.699,8,400,,,
sequence,flow.Sequence,4_55,2023-09-08T17:57:58.732Z,,0,,,7198.037999904598,completion,,,,,false,,,,845288.6999998093,845288.5999999046,838073.793,838151.5,838090.562,845237.699,8,400,,,
trial,html.Screen,4_56_0,2023-09-08T17:58:03.950Z,,0,2,,5268.500999809243,response,ISIC_2690597.JPG,5,ISIC_0238824.JPG,ISIC_2690597.JPG,false,1,keypress(m),500,850506.2999999523,850506.1999998093,845221.101,845288.899999857,845237.699,850447.889,8,400,7,,ISIC_0238824.JPG
break,html.Screen,4_56_1,2023-09-08T17:58:03.950Z,,0,,,NaN,,,,,,false,,,,850506.7999999523,850506.5999999046,,850506.399999857,,850447.889,8,400,,,
break_continue,html.Screen,4_56_2,2023-09-08T17:58:03.950Z,,0,,,NaN,,,,,,false,,,,850507.0999999046,850507.0999999046,,850506.899999857,,850447.889,8,400,,,
sequence,flow.Sequence,4_56,2023-09-08T17:58:03.950Z,,0,,,5269.40099990461,completion,,,,,false,,,,850507.1999998093,850507.0999999046,845221.101,845288.7999999523,845237.699,850447.889,8,400,,,
trial,html.Screen,4_57_0,2023-09-08T17:58:10.113Z,,0,2,,6221.41099995235,response,ISIC_7605678.JPG,5,ISIC_9765760.JPG,ISIC_7605678.JPG,false,1,keypress(m),500,856669.2999999523,856669.2999999523,850431.225,850507.1999998093,850447.889,856609.959,8,400,8,,ISIC_9765760.JPG
break,html.Screen,4_57_1,2023-09-08T17:58:10.113Z,,0,,,NaN,,,,,,false,,,,856669.6999998093,856669.5999999046,,856669.399999857,,856609.959,8,400,,,
break_continue,html.Screen,4_57_2,2023-09-08T17:58:10.113Z,,0,,,NaN,,,,,,false,,,,856669.899999857,856669.7999999523,,856669.6999998093,,856609.959,8,400,,,
sequence,flow.Sequence,4_57,2023-09-08T17:58:10.113Z,,0,,,6221.91099995235,completion,,,,,false,,,,856669.899999857,856669.7999999523,850431.225,850507.1999998093,850447.889,856609.959,8,400,,,
trial,html.Screen,4_58_0,2023-09-08T17:58:18.290Z,,0,2,,8237.1409999046,response,ISIC_5490257.JPG,5,ISIC_0030623.JPG,ISIC_0030623.JPG,false,0,keypress(z),500,864847.1999998093,864847.0999999046,856593.173,856669.899999857,856609.959,864792.467,8,400,9,,ISIC_5490257.JPG
break,html.Screen,4_58_1,2023-09-08T17:58:18.291Z,,0,,,NaN,,,,,,false,,,,864847.399999857,864847.399999857,,864847.2999999523,,864792.467,8,400,,,
break_continue,html.Screen,4_58_2,2023-09-08T17:58:18.291Z,,0,,,NaN,,,,,,false,,,,864847.5999999046,864847.5,,864847.5,,864792.467,8,400,,,
sequence,flow.Sequence,4_58,2023-09-08T17:58:18.291Z,,0,,,8237.540999999968,completion,,,,,false,,,,864847.6999998093,864847.5,856593.173,856669.899999857,856609.959,864792.467,8,400,,,
trial,html.Screen,4_59_0,2023-09-08T17:58:24.075Z,,0,2,,5839.432999857003,response,ISIC_0015226.JPG,6,ISIC_5611010.JPG,ISIC_0015226.JPG,false,1,keypress(m),500,870632.0999999046,870631.899999857,864775.708,864847.7999999523,864792.467,870570.379,8,400,10,,ISIC_5611010.JPG
break,html.Screen,4_59_1,2023-09-08T17:58:24.076Z,,0,,,NaN,,,,,,false,,,,870632.399999857,870632.2999999523,,870632.1999998093,,870570.379,8,400,,,
break_continue,html.Screen,4_59_2,2023-09-08T17:58:24.076Z,,0,,,NaN,,,,,,false,,,,870632.5999999046,870632.5,,870632.399999857,,870570.379,8,400,,,
sequence,flow.Sequence,4_59,2023-09-08T17:58:24.076Z,,0,,,5840.033000000054,completion,,,,,false,,,,870632.6999998093,870632.5,864775.708,864847.7999999523,864792.467,870570.379,8,400,,,
trial,html.Screen,4_60_0,2023-09-08T17:58:30.576Z,,0,2,,6562.020999856992,response,ISIC_3837132.JPG,6,ISIC_8755163.JPG,ISIC_8755163.JPG,false,0,keypress(z),500,877132.6999998093,877132.399999857,870553.809,870632.7999999523,870570.379,877083.213,8,400,11,,ISIC_3837132.JPG
break,html.Screen,4_60_1,2023-09-08T17:58:30.577Z,,0,,,NaN,,,,,,false,,,,877133.5,877133.1999998093,,877132.899999857,,877083.213,8,400,,,
break_continue,html.Screen,4_60_2,2023-09-08T17:58:30.577Z,,0,,,NaN,,,,,,false,,,,877134.0999999046,877134,,877133.7999999523,,877083.213,8,400,,,
sequence,flow.Sequence,4_60,2023-09-08T17:58:30.577Z,,0,,,6563.621000000043,completion,,,,,false,,,,877134.1999998093,877134,870553.809,870632.7999999523,870570.379,877083.213,8,400,,,
trial,html.Screen,4_61_0,2023-09-08T17:58:36.755Z,,0,2,,6228.386999904644,response,ISIC_8907232.JPG,6,ISIC_9045601.JPG,ISIC_9045601.JPG,false,0,keypress(z),500,883311.6999998093,883311.5999999046,877066.306,877134.2999999523,877083.213,883261.761,8,400,12,,ISIC_8907232.JPG
break,html.Screen,4_61_1,2023-09-08T17:58:36.755Z,,0,,,NaN,,,,,,false,,,,883312.0999999046,883311.899999857,,883311.7999999523,,883261.761,8,400,,,
break_continue,html.Screen,4_61_2,2023-09-08T17:58:36.756Z,,0,,,NaN,,,,,,false,,,,883312.399999857,883312.2999999523,,883312.1999998093,,883261.761,8,400,,,
sequence,flow.Sequence,4_61,2023-09-08T17:58:36.756Z,,0,,,6229.0869999523275,completion,,,,,false,,,,883312.5,883312.2999999523,877066.306,877134.2999999523,877083.213,883261.761,8,400,,,
trial,html.Screen,4_62_0,2023-09-08T17:58:44.029Z,,0,2,,7323.338999904576,response,ISIC_0030769.JPG,5,ISIC_0065121.JPG,ISIC_0030769.JPG,false,1,keypress(m),500,890585.2999999523,890585.0999999046,883245.028,883312.5999999046,883261.761,890525.85,8,400,13,,ISIC_0065121.JPG
break,html.Screen,4_62_1,2023-09-08T17:58:44.029Z,,0,,,NaN,,,,,,false,,,,890586.1999998093,890586,,890585.5999999046,,890525.85,8,400,,,
break_continue,html.Screen,4_62_2,2023-09-08T17:58:44.030Z,,0,,,NaN,,,,,,false,,,,890586.6999998093,890586.5,,890586.399999857,,890525.85,8,400,,,
sequence,flow.Sequence,4_62,2023-09-08T17:58:44.030Z,,0,,,7324.738999999943,completion,,,,,false,,,,890586.7999999523,890586.5,883245.028,883312.5999999046,883261.761,890525.85,8,400,,,
trial,html.Screen,4_63_0,2023-09-08T17:58:51.617Z,,0,2,,7646.849999809288,response,ISIC_1720856.JPG,5,ISIC_0060446.JPG,ISIC_1720856.JPG,false,1,keypress(m),500,898172.899999857,898172.6999998093,890509.129,890587,890525.85,898107.307,8,400,14,,ISIC_0060446.JPG
break,html.Screen,4_63_1,2023-09-08T17:58:51.617Z,,0,,,NaN,,,,,,false,,,,898173.399999857,898173.2999999523,,898173.0999999046,,898107.307,8,400,,,
break_continue,html.Screen,4_63_2,2023-09-08T17:58:51.618Z,,0,,,NaN,,,,,,false,,,,898173.7999999523,898173.6999998093,,898173.5,,898107.307,8,400,,,
sequence,flow.Sequence,4_63,2023-09-08T17:58:51.618Z,,0,,,7647.849999809288,completion,,,,,false,,,,898173.899999857,898173.6999998093,890509.129,890587,890525.85,898107.307,8,400,,,
trial,html.Screen,4_64_0,2023-09-08T17:58:59.705Z,,0,2,,8153.4929999522865,response,ISIC_7699223.JPG,5,ISIC_9775430.JPG,ISIC_7699223.JPG,false,1,keypress(m),500,906261,906260.7999999523,898090.671,898174,898107.307,906206.471,8,400,15,,ISIC_9775430.JPG
break,html.Screen,4_64_1,2023-09-08T17:58:59.705Z,,0,,,NaN,,,,,,false,,,,906261.2999999523,906261.1999998093,,906261.0999999046,,906206.471,8,400,,,
break_continue,html.Screen,4_64_2,2023-09-08T17:58:59.705Z,,0,,,NaN,,,,,,false,,,,906261.399999857,906261.399999857,,906261.399999857,,906206.471,8,400,,,
sequence,flow.Sequence,4_64,2023-09-08T17:58:59.705Z,,0,,,8154.092999856919,completion,,,,,false,,,,906261.5,906261.399999857,898090.671,898174,898107.307,906206.471,8,400,,,
trial,html.Screen,4_65_0,2023-09-08T17:59:05.339Z,,0,2,,5688.928999856929,response,ISIC_0028945.JPG,4,ISIC_5832901.JPG,ISIC_5832901.JPG,false,0,keypress(z),500,911895.5999999046,911895.399999857,906189.841,906261.5,906206.471,911834.052,8,400,16,,ISIC_0028945.JPG
break,html.Screen,4_65_1,2023-09-08T17:59:05.340Z,,0,,,NaN,,,,,,false,,,,911896,911895.899999857,,911895.6999998093,,911834.052,8,400,,,
break_continue,html.Screen,4_65_2,2023-09-08T17:59:05.340Z,,0,,,NaN,,,,,,false,,,,911896.399999857,911896.1999998093,,911896.1999998093,,911834.052,8,400,,,
sequence,flow.Sequence,4_65,2023-09-08T17:59:05.340Z,,0,,,5689.728999809246,completion,,,,,false,,,,911896.399999857,911896.1999998093,906189.841,906261.5,906206.471,911834.052,8,400,,,
trial,html.Screen,4_66_0,2023-09-08T17:59:11.054Z,,0,2,,5776.347999856924,response,ISIC_8636706.JPG,5,ISIC_7550510.JPG,ISIC_8636706.JPG,false,1,keypress(m),500,917610.6999998093,917610.399999857,911817.281,911896.5,911834.052,917545.176,8,400,17,,ISIC_7550510.JPG
break,html.Screen,4_66_1,2023-09-08T17:59:11.055Z,,0,,,NaN,,,,,,false,,,,917611.6999998093,917611.399999857,,917610.899999857,,917545.176,8,400,,,
break_continue,html.Screen,4_66_2,2023-09-08T17:59:11.056Z,,0,,,NaN,,,,,,false,,,,917612.0999999046,917612,,917611.7999999523,,917545.176,8,400,,,
sequence,flow.Sequence,4_66,2023-09-08T17:59:11.056Z,,0,,,5777.947999999975,completion,,,,,false,,,,917612.5,917612,911817.281,911896.5,911834.052,917545.176,8,400,,,
trial,html.Screen,4_67_0,2023-09-08T17:59:18.613Z,,0,2,,7623.5239998092875,response,ISIC_6647306.JPG,6,ISIC_0046932.JPG,ISIC_0046932.JPG,false,0,keypress(z),500,925168.899999857,925168.6999998093,917528.436,917612.7999999523,917545.176,925109.931,8,400,18,,ISIC_6647306.JPG
break,html.Screen,4_67_1,2023-09-08T17:59:18.613Z,,0,,,NaN,,,,,,false,,,,925169.399999857,925169.2999999523,,925169.0999999046,,925109.931,8,400,,,
break_continue,html.Screen,4_67_2,2023-09-08T17:59:18.613Z,,0,,,NaN,,,,,,false,,,,925169.5999999046,925169.5,,925169.5,,925109.931,8,400,,,
sequence,flow.Sequence,4_67,2023-09-08T17:59:18.614Z,,0,,,7624.324000000022,completion,,,,,false,,,,925169.6999998093,925169.5,917528.436,917612.6999998093,917545.176,925109.931,8,400,,,
trial,html.Screen,4_68_0,2023-09-08T17:59:26.042Z,,0,2,,7488.569000000018,response,ISIC_0034117.JPG,5,ISIC_1054090.JPG,ISIC_1054090.JPG,false,0,keypress(z),500,932598.7999999523,932598.5,925093.13,925169.899999857,925109.931,932541.159,8,400,19,,ISIC_0034117.JPG
break,html.Screen,4_68_1,2023-09-08T17:59:26.043Z,,0,,,NaN,,,,,,false,,,,932599.399999857,932599.1999998093,,932598.899999857,,932541.159,8,400,,,
break_continue,html.Screen,4_68_2,2023-09-08T17:59:26.044Z,,0,,,NaN,,,,,,false,,,,932599.7999999523,932599.5999999046,,932599.5999999046,,932541.159,8,400,,,
sequence,flow.Sequence,4_68,2023-09-08T17:59:26.044Z,,0,,,7489.66899990465,completion,,,,,false,,,,932599.899999857,932599.5999999046,925093.13,925169.899999857,925109.931,932541.159,8,400,,,
trial,html.Screen,4_69_0,2023-09-08T17:59:32.286Z,,0,2,,6300.841000000015,response,ISIC_2355513.JPG,4,ISIC_3666219.JPG,ISIC_2355513.JPG,false,1,keypress(m),500,938842.0999999046,938842,932524.242,932600,932541.159,938786.609,8,400,20,,ISIC_3666219.JPG
break,html.Screen,4_69_1,2023-09-08T17:59:32.286Z,,0,,,NaN,,,,,,false,,,,938842.6999998093,938842.5999999046,,938842.2999999523,,938786.609,8,400,,,
break_continue,html.Screen,4_69_2,2023-09-08T17:59:32.287Z,,0,,,NaN,,,,,,false,,,,938843.0999999046,938843,,938842.7999999523,,938786.609,8,400,,,
sequence,flow.Sequence,4_69,2023-09-08T17:59:32.287Z,,0,,,6301.841000000015,completion,,,,,false,,,,938843.1999998093,938843,932524.242,932600,932541.159,938786.609,8,400,,,
trial,html.Screen,4_70_0,2023-09-08T17:59:39.361Z,,0,2,,7130.690999952261,response,ISIC_2946577.JPG,5,ISIC_0032372.JPG,ISIC_2946577.JPG,false,1,keypress(m),500,945917.399999857,945917.2999999523,938769.827,938843.2999999523,938786.609,945866.928,8,400,21,,ISIC_0032372.JPG
break,html.Screen,4_70_1,2023-09-08T17:59:39.362Z,,0,,,NaN,,,,,,false,,,,945918.399999857,945918.1999998093,,945917.7999999523,,945866.928,8,400,,,
break_continue,html.Screen,4_70_2,2023-09-08T17:59:39.362Z,,0,,,NaN,,,,,,false,,,,945918.6999998093,945918.5999999046,,945918.5,,945866.928,8,400,,,
sequence,flow.Sequence,4_70,2023-09-08T17:59:39.363Z,,0,,,7131.990999904578,completion,,,,,false,,,,945918.7999999523,945918.5999999046,938769.827,938843.2999999523,938786.609,945866.928,8,400,,,
trial,html.Screen,4_71_0,2023-09-08T17:59:46.644Z,,0,2,,7332.971999856993,response,ISIC_0032996.JPG,5,ISIC_6208107.JPG,ISIC_6208107.JPG,false,0,keypress(z),500,953200.0999999046,953199.899999857,945850.273,945918.899999857,945866.928,953147.785,8,400,22,,ISIC_0032996.JPG
break,html.Screen,4_71_1,2023-09-08T17:59:46.644Z,,0,,,NaN,,,,,,false,,,,953200.2999999523,953200.2999999523,,953200.1999998093,,953147.785,8,400,,,
break_continue,html.Screen,4_71_2,2023-09-08T17:59:46.644Z,,0,,,NaN,,,,,,false,,,,953200.5,953200.399999857,,953200.2999999523,,953147.785,8,400,,,
sequence,flow.Sequence,4_71,2023-09-08T17:59:46.644Z,,0,,,7333.471999856993,completion,,,,,false,,,,953200.5999999046,953200.399999857,945850.273,945918.899999857,945866.928,953147.785,8,400,,,
trial,html.Screen,4_72_0,2023-09-08T17:59:54.972Z,,0,2,,8380.114999856916,response,ISIC_9822801.JPG,4,ISIC_2879267.JPG,ISIC_2879267.JPG,false,0,keypress(z),500,961528,961527.899999857,953131.113,953200.5999999046,953147.785,961480.598,8,400,23,,ISIC_9822801.JPG
break,html.Screen,4_72_1,2023-09-08T17:59:54.973Z,,0,,,NaN,,,,,,false,,,,961528.399999857,961528.2999999523,,961528.0999999046,,961480.598,8,400,,,
break_continue,html.Screen,4_72_2,2023-09-08T17:59:54.973Z,,0,,,NaN,,,,,,false,,,,961528.5999999046,961528.5,,961528.399999857,,961480.598,8,400,,,
sequence,flow.Sequence,4_72,2023-09-08T17:59:54.973Z,,0,,,8380.714999999967,completion,,,,,false,,,,961528.5999999046,961528.5,953131.113,953200.5999999046,953147.785,961480.598,8,400,,,
trial,html.Screen,4_73_0,2023-09-08T18:00:00.339Z,,0,2,,5414.201999952318,response,ISIC_9751601.JPG,4,ISIC_0862350.JPG,ISIC_9751601.JPG,false,1,keypress(m),500,966894.899999857,966894.7999999523,961447.201,961528.6999998093,961480.598,966841.029,8,400,24,,ISIC_0862350.JPG
break,html.Screen,4_73_1,2023-09-08T18:00:00.339Z,,0,,,NaN,,,,,,false,,,,966895.1999998093,966895.0999999046,,966895,,966841.029,8,400,,,
break_continue,html.Screen,4_73_2,2023-09-08T18:00:00.340Z,,0,,,NaN,,,,,,false,,,,966895.2999999523,966895.2999999523,,966895.2999999523,,966841.029,8,400,,,
sequence,flow.Sequence,4_73,2023-09-08T18:00:00.340Z,,0,,,5414.701999952318,completion,,,,,false,,,,966895.399999857,966895.2999999523,961447.201,961528.6999998093,961480.598,966841.029,8,400,,,
trial,html.Screen,4_74_0,2023-09-08T18:00:06.901Z,,0,2,,6615.370999856968,response,ISIC_0034006.JPG,5,ISIC_0830806.JPG,ISIC_0830806.JPG,false,0,keypress(z),500,973456.5,973456.399999857,966824.461,966895.399999857,966841.029,973403.979,8,400,25,,ISIC_0034006.JPG
break,html.Screen,4_74_1,2023-09-08T18:00:06.901Z,,0,,,NaN,,,,,,false,,,,973456.7999999523,973456.6999998093,,973456.5999999046,,973403.979,8,400,,,
break_continue,html.Screen,4_74_2,2023-09-08T18:00:06.901Z,,0,,,NaN,,,,,,false,,,,973457.1999998093,973457.0999999046,,973456.899999857,,973403.979,8,400,,,
sequence,flow.Sequence,4_74,2023-09-08T18:00:06.902Z,,0,,,6616.070999904652,completion,,,,,false,,,,973457.2999999523,973457.0999999046,966824.461,966895.399999857,966841.029,973403.979,8,400,,,
trial,html.Screen,4_75_0,2023-09-08T18:00:13.626Z,,0,2,,6777.820999952266,response,ISIC_2740756.JPG,4,ISIC_0315631.JPG,ISIC_2740756.JPG,false,1,keypress(m),500,980182,980181.7999999523,973387.302,973457.2999999523,973403.979,980116.914,8,400,26,,ISIC_0315631.JPG
break,html.Screen,4_75_1,2023-09-08T18:00:13.627Z,,0,,,NaN,,,,,,false,,,,980182.5,980182.2999999523,,980182.1999998093,,980116.914,8,400,,,
break_continue,html.Screen,4_75_2,2023-09-08T18:00:13.627Z,,0,,,NaN,,,,,,false,,,,980182.899999857,980182.7999999523,,980182.6999998093,,980116.914,8,400,,,
sequence,flow.Sequence,4_75,2023-09-08T18:00:13.627Z,,0,,,6778.820999952266,completion,,,,,false,,,,980183,980182.7999999523,973387.302,973457.2999999523,973403.979,980116.914,8,400,,,
trial,html.Screen,4_76_0,2023-09-08T18:00:21.069Z,,0,2,,7507.685999904643,response,ISIC_4023381.JPG,4,ISIC_0034170.JPG,ISIC_4023381.JPG,false,1,keypress(m),500,987624.5999999046,987624.5999999046,980100.199,980183,980116.914,987564.696,8,400,27,,ISIC_0034170.JPG
break,html.Screen,4_76_1,2023-09-08T18:00:21.069Z,,0,,,NaN,,,,,,false,,,,987624.899999857,987624.899999857,,987624.6999998093,,987564.696,8,400,,,
break_continue,html.Screen,4_76_2,2023-09-08T18:00:21.069Z,,0,,,NaN,,,,,,false,,,,987625.0999999046,987625,,987625,,987564.696,8,400,,,
sequence,flow.Sequence,4_76,2023-09-08T18:00:21.069Z,,0,,,7508.08600000001,completion,,,,,false,,,,987625.0999999046,987625,980100.199,980183,980116.914,987564.696,8,400,,,
trial,html.Screen,4_77_0,2023-09-08T18:00:28.607Z,,0,2,,7597.503999809269,response,ISIC_0014525.JPG,6,ISIC_8650516.JPG,ISIC_8650516.JPG,false,0,keypress(z),500,995162.399999857,995162.1999998093,987548.057,987625.1999998093,987564.696,995096.035,8,400,28,,ISIC_0014525.JPG
break,html.Screen,4_77_1,2023-09-08T18:00:28.607Z,,0,,,NaN,,,,,,false,,,,995162.7999999523,995162.6999998093,,995162.5,,995096.035,8,400,,,
break_continue,html.Screen,4_77_2,2023-09-08T18:00:28.607Z,,0,,,NaN,,,,,,false,,,,995163.1999998093,995163.0999999046,,995163,,995096.035,8,400,,,
sequence,flow.Sequence,4_77,2023-09-08T18:00:28.608Z,,0,,,7598.403999904636,completion,,,,,false,,,,995163.399999857,995163.0999999046,987548.057,987625.1999998093,987564.696,995096.035,8,400,,,
trial,html.Screen,4_78_0,2023-09-08T18:00:35.106Z,,0,2,,6565.364999856916,response,ISIC_6278273.JPG,5,ISIC_6860222.JPG,ISIC_6860222.JPG,false,0,keypress(z),500,1001661.5,1001661.399999857,995079.338,995163.5999999046,995096.035,1001608.679,8,400,29,,ISIC_6278273.JPG
break,html.Screen,4_78_1,2023-09-08T18:00:35.106Z,,0,,,NaN,,,,,,false,,,,1001662,1001661.7999999523,,1001661.5999999046,,1001608.679,8,400,,,
break_continue,html.Screen,4_78_2,2023-09-08T18:00:35.107Z,,0,,,NaN,,,,,,false,,,,1001662.2999999523,1001662.1999998093,,1001662.0999999046,,1001608.679,8,400,,,
sequence,flow.Sequence,4_78,2023-09-08T18:00:35.107Z,,0,,,6566.1649998092325,completion,,,,,false,,,,1001662.399999857,1001662.1999998093,995079.338,995163.5,995096.035,1001608.679,8,400,,,
trial,html.Screen,4_79_0,2023-09-08T18:00:41.668Z,,0,2,,6615.220999856945,response,ISIC_0033104.JPG,5,ISIC_0025683.JPG,ISIC_0033104.JPG,false,1,keypress(m),500,1008224.0999999046,1008223.899999857,1001592.023,1001662.5,1001608.679,1008171.454,8,400,30,,ISIC_0025683.JPG
break,html.Screen,4_79_1,2023-09-08T18:00:41.669Z,,0,,,NaN,,,,,,false,,,,1008224.2999999523,1008224.2999999523,,1008224.0999999046,,1008171.454,8,400,,,
break_continue,html.Screen,4_79_2,2023-09-08T18:00:41.669Z,,0,,,NaN,,,,,,false,,,,1008224.5,1008224.399999857,,1008224.399999857,,1008171.454,8,400,,,
sequence,flow.Sequence,4_79,2023-09-08T18:00:41.669Z,,0,,,6615.720999856945,completion,,,,,false,,,,1008224.5,1008224.399999857,1001592.023,1001662.5,1001608.679,1008171.454,8,400,,,
trial,html.Screen,4_80_0,2023-09-08T18:00:46.637Z,,0,2,,5021.245999809238,response,ISIC_0007148.JPG,6,ISIC_1763577.JPG,ISIC_0007148.JPG,false,1,keypress(m),500,1013192.7999999523,1013192.6999998093,1008154.985,1008224.5999999046,1008171.454,1013131.196,8,400,31,,ISIC_1763577.JPG
break,html.Screen,4_80_1,2023-09-08T18:00:46.637Z,,0,,,NaN,,,,,,false,,,,1013193.0999999046,1013193,,1013193,,1013131.196,8,400,,,
break_continue,html.Screen,4_80_2,2023-09-08T18:00:46.638Z,,0,,,NaN,,,,,,false,,,,1013193.2999999523,1013193.1999998093,,1013193.0999999046,,1013131.196,8,400,,,
sequence,flow.Sequence,4_80,2023-09-08T18:00:46.638Z,,0,,,5021.745999809238,completion,,,,,false,,,,1013193.2999999523,1013193.1999998093,1008154.985,1008224.5999999046,1008171.454,1013131.196,8,400,,,
trial,html.Screen,4_81_0,2023-09-08T18:00:52.256Z,,0,2,,5679.503999809269,response,ISIC_0055240.JPG,5,ISIC_0749263.JPG,ISIC_0749263.JPG,false,0,keypress(z),500,1018810.7999999523,1018810.6999998093,1013114.387,1013193.399999857,1013131.196,1018758.812,8,400,32,,ISIC_0055240.JPG
break,html.Screen,4_81_1,2023-09-08T18:00:52.256Z,,0,,,NaN,,,,,,false,,,,1018811.0999999046,1018811.0999999046,,1018811,,1018758.812,8,400,,,
break_continue,html.Screen,4_81_2,2023-09-08T18:00:52.256Z,,0,,,NaN,,,,,,false,,,,1018811.2999999523,1018811.2999999523,,1018811.1999998093,,1018758.812,8,400,,,
sequence,flow.Sequence,4_81,2023-09-08T18:00:52.256Z,,0,,,5680.10399995232,completion,,,,,false,,,,1018811.2999999523,1018811.2999999523,1013114.387,1013193.399999857,1013131.196,1018758.812,8,400,,,
trial,html.Screen,4_82_0,2023-09-08T18:00:58.274Z,,0,2,,6070.087999856914,response,ISIC_0068314.JPG,6,ISIC_0001134.JPG,ISIC_0001134.JPG,false,0,keypress(z),500,1024829.0999999046,1024828.899999857,1018742.012,1018811.399999857,1018758.812,1024787.156,8,400,33,,ISIC_0068314.JPG
break,html.Screen,4_82_1,2023-09-08T18:00:58.274Z,,0,,,NaN,,,,,,false,,,,1024829.5,1024829.399999857,,1024829.1999998093,,1024787.156,8,400,,,
break_continue,html.Screen,4_82_2,2023-09-08T18:00:58.275Z,,0,,,NaN,,,,,,false,,,,1024829.6999998093,1024829.5999999046,,1024829.5999999046,,1024787.156,8,400,,,
sequence,flow.Sequence,4_82,2023-09-08T18:00:58.275Z,,0,,,6070.787999904598,completion,,,,,false,,,,1024829.7999999523,1024829.5999999046,1018742.012,1018811.399999857,1018758.812,1024787.156,8,400,,,
trial,html.Screen,4_83_0,2023-09-08T18:01:04.117Z,,0,2,,5885.143999952357,response,ISIC_0063070.JPG,4,ISIC_0026671.JPG,ISIC_0026671.JPG,false,0,keypress(z),500,1030672.399999857,1030672.2999999523,1024770.463,1024829.899999857,1024787.156,1030615.186,8,400,34,,ISIC_0063070.JPG
break,html.Screen,4_83_1,2023-09-08T18:01:04.118Z,,0,,,NaN,,,,,,false,,,,1030673.0999999046,1030672.899999857,,1030672.6999998093,,1030615.186,8,400,,,
break_continue,html.Screen,4_83_2,2023-09-08T18:01:04.118Z,,0,,,NaN,,,,,,false,,,,1030673.399999857,1030673.2999999523,,1030673.1999998093,,1030615.186,8,400,,,
sequence,flow.Sequence,4_83,2023-09-08T18:01:04.118Z,,0,,,5886.143999952357,completion,,,,,false,,,,1030673.5999999046,1030673.2999999523,1024770.463,1024829.899999857,1024787.156,1030615.186,8,400,,,
trial,html.Screen,4_84_0,2023-09-08T18:01:10.889Z,,0,2,,6828.814000000013,response,ISIC_0024219.JPG,5,ISIC_1977265.JPG,ISIC_0024219.JPG,false,1,keypress(m),500,1037444.0999999046,1037444,1030598.466,1030673.5999999046,1030615.186,1037378.305,8,400,35,,ISIC_1977265.JPG
break,html.Screen,4_84_1,2023-09-08T18:01:10.889Z,,0,,,NaN,,,,,,false,,,,1037444.399999857,1037444.2999999523,,1037444.0999999046,,1037378.305,8,400,,,
break_continue,html.Screen,4_84_2,2023-09-08T18:01:10.890Z,,0,,,NaN,,,,,,false,,,,1037444.6999998093,1037444.5,,1037444.5,,1037378.305,8,400,,,
sequence,flow.Sequence,4_84,2023-09-08T18:01:10.890Z,,0,,,6829.314000000013,completion,,,,,false,,,,1037444.7999999523,1037444.5,1030598.466,1030673.5999999046,1030615.186,1037378.305,8,400,,,
trial,html.Screen,4_85_0,2023-09-08T18:01:16.283Z,,0,2,,5460.094999856898,response,ISIC_3380212.JPG,4,ISIC_0066935.JPG,ISIC_3380212.JPG,false,1,keypress(m),500,1042838.5999999046,1042838.399999857,1037361.612,1037444.899999857,1037378.305,1042772.126,8,400,36,,ISIC_0066935.JPG
break,html.Screen,4_85_1,2023-09-08T18:01:16.284Z,,0,,,NaN,,,,,,false,,,,1042839.2999999523,1042839,,1042838.7999999523,,1042772.126,8,400,,,
break_continue,html.Screen,4_85_2,2023-09-08T18:01:16.285Z,,0,,,NaN,,,,,,false,,,,1042839.7999999523,1042839.6999998093,,1042839.5999999046,,1042772.126,8,400,,,
sequence,flow.Sequence,4_85,2023-09-08T18:01:16.285Z,,0,,,5461.394999809214,completion,,,,,false,,,,1042840,1042839.6999998093,1037361.612,1037444.899999857,1037378.305,1042772.126,8,400,,,
trial,html.Screen,4_86_0,2023-09-08T18:01:24.751Z,,0,2,,8533.473999904585,response,ISIC_0046422.JPG,6,ISIC_1035480.JPG,ISIC_0046422.JPG,false,1,keypress(m),500,1051306,1051305.5999999046,1042755.49,1042840.0999999046,1042772.126,1051255.388,8,400,37,,ISIC_1035480.JPG
break,html.Screen,4_86_1,2023-09-08T18:01:24.753Z,,0,,,NaN,,,,,,false,,,,1051307.6999998093,1051307.0999999046,,1051306.5999999046,,1051255.388,8,400,,,
break_continue,html.Screen,4_86_2,2023-09-08T18:01:24.753Z,,0,,,NaN,,,,,,false,,,,1051308.5999999046,1051308.2999999523,,1051308,,1051255.388,8,400,,,
sequence,flow.Sequence,4_86,2023-09-08T18:01:24.754Z,,0,,,8536.173999952269,completion,,,,,false,,,,1051309,1051308.2999999523,1042755.49,1042840.0999999046,1042772.126,1051255.388,8,400,,,
trial,html.Screen,4_87_0,2023-09-08T18:01:32.388Z,,0,2,,7687.911999952281,response,ISIC_1949126.JPG,5,ISIC_9163466.JPG,ISIC_9163466.JPG,false,0,keypress(z),500,1058943.2999999523,1058943.2999999523,1051238.611,1051309.2999999523,1051255.388,1058886.846,8,400,38,,ISIC_1949126.JPG
break,html.Screen,4_87_1,2023-09-08T18:01:32.388Z,,0,,,NaN,,,,,,false,,,,1058943.6999998093,1058943.5999999046,,1058943.399999857,,1058886.846,8,400,,,
break_continue,html.Screen,4_87_2,2023-09-08T18:01:32.389Z,,0,,,NaN,,,,,,false,,,,1058943.7999999523,1058943.7999999523,,1058943.6999998093,,1058886.846,8,400,,,
sequence,flow.Sequence,4_87,2023-09-08T18:01:32.389Z,,0,,,7688.411999952281,completion,,,,,false,,,,1058943.899999857,1058943.7999999523,1051238.611,1051309.1999998093,1051255.388,1058886.846,8,400,,,
trial,html.Screen,4_88_0,2023-09-08T18:01:39.913Z,,0,2,,7581.353999809362,response,ISIC_0026586.JPG,5,ISIC_0000546.JPG,ISIC_0000546.JPG,false,0,keypress(z),500,1066468.2999999523,1066468.1999998093,1058870.137,1058943.899999857,1058886.846,1066418.175,8,400,39,,ISIC_0026586.JPG
break,html.Screen,4_88_1,2023-09-08T18:01:39.914Z,,0,,,NaN,,,,,,false,,,,1066468.7999999523,1066468.5999999046,,1066468.399999857,,1066418.175,8,400,,,
break_continue,html.Screen,4_88_2,2023-09-08T18:01:39.914Z,,0,,,NaN,,,,,,false,,,,1066468.899999857,1066468.899999857,,1066468.7999999523,,1066418.175,8,400,,,
sequence,flow.Sequence,4_88,2023-09-08T18:01:39.914Z,,0,,,7582.053999857046,completion,,,,,false,,,,1066469,1066468.899999857,1058870.137,1058943.899999857,1058886.846,1066418.175,8,400,,,
trial,html.Screen,4_89_0,2023-09-08T18:01:45.116Z,,0,2,,5252.424999904586,response,ISIC_3981101.JPG,5,ISIC_6323420.JPG,ISIC_3981101.JPG,false,1,keypress(m),500,1071670.6999998093,1071670.5999999046,1066401.499,1066469.0999999046,1066418.175,1071611.624,8,400,40,,ISIC_6323420.JPG
break,html.Screen,4_89_1,2023-09-08T18:01:45.116Z,,0,,,NaN,,,,,,false,,,,1071671.1999998093,1071671,,1071670.899999857,,1071611.624,8,400,,,
break_continue,html.Screen,4_89_2,2023-09-08T18:01:45.116Z,,0,,,NaN,,,,,,false,,,,1071671.399999857,1071671.399999857,,1071671.1999998093,,1071611.624,8,400,,,
sequence,flow.Sequence,4_89,2023-09-08T18:01:45.116Z,,0,,,5253.224999856902,completion,,,,,false,,,,1071671.5999999046,1071671.399999857,1066401.499,1066469,1066418.175,1071611.624,8,400,,,
trial,html.Screen,4_90_0,2023-09-08T18:01:50.257Z,,0,2,,5199.975999904564,response,ISIC_4642190.JPG,4,ISIC_0071944.JPG,ISIC_4642190.JPG,false,1,keypress(m),500,1076811.7999999523,1076811.5999999046,1071594.881,1071671.5999999046,1071611.624,1076755.028,8,400,41,,ISIC_0071944.JPG
break,html.Screen,4_90_1,2023-09-08T18:01:50.257Z,,0,,,NaN,,,,,,false,,,,1076812.1999998093,1076812.0999999046,,1076811.899999857,,1076755.028,8,400,,,
break_continue,html.Screen,4_90_2,2023-09-08T18:01:50.257Z,,0,,,NaN,,,,,,false,,,,1076812.2999999523,1076812.1999998093,,1076812.1999998093,,1076755.028,8,400,,,
sequence,flow.Sequence,4_90,2023-09-08T18:01:50.257Z,,0,,,5200.575999809196,completion,,,,,false,,,,1076812.399999857,1076812.1999998093,1071594.881,1071671.5999999046,1071611.624,1076755.028,8,400,,,
trial,html.Screen,4_91_0,2023-09-08T18:01:55.812Z,,0,2,,5611.171999809332,response,ISIC_5486460.JPG,5,ISIC_9934037.JPG,ISIC_5486460.JPG,false,1,keypress(m),500,1082366.5,1082366.1999998093,1076738.198,1076812.5,1076755.028,1082315.918,8,400,42,,ISIC_9934037.JPG
break,html.Screen,4_91_1,2023-09-08T18:01:55.813Z,,0,,,NaN,,,,,,false,,,,1082367.1999998093,1082367.0999999046,,1082366.6999998093,,1082315.918,8,400,,,
break_continue,html.Screen,4_91_2,2023-09-08T18:01:55.813Z,,0,,,NaN,,,,,,false,,,,1082367.5999999046,1082367.5,,1082367.2999999523,,1082315.918,8,400,,,
sequence,flow.Sequence,4_91,2023-09-08T18:01:55.813Z,,0,,,5612.472000000067,completion,,,,,false,,,,1082367.6999998093,1082367.5,1076738.198,1076812.5,1076755.028,1082315.918,8,400,,,
trial,html.Screen,4_92_0,2023-09-08T18:02:03.975Z,,0,2,,8213.881999952253,response,ISIC_0056127.JPG,5,ISIC_0060972.JPG,ISIC_0056127.JPG,false,1,keypress(m),500,1090529.899999857,1090529.7999999523,1082299.153,1082367.6999998093,1082315.918,1090464.965,8,400,43,,ISIC_0060972.JPG
break,html.Screen,4_92_1,2023-09-08T18:02:03.976Z,,0,,,NaN,,,,,,false,,,,1090530.399999857,1090530.1999998093,,1090530.0999999046,,1090464.965,8,400,,,
break_continue,html.Screen,4_92_2,2023-09-08T18:02:03.976Z,,0,,,NaN,,,,,,false,,,,1090530.5999999046,1090530.5999999046,,1090530.399999857,,1090464.965,8,400,,,
sequence,flow.Sequence,4_92,2023-09-08T18:02:03.976Z,,0,,,8214.68199990457,completion,,,,,false,,,,1090530.5999999046,1090530.5999999046,1082299.153,1082367.6999998093,1082315.918,1090464.965,8,400,,,
trial,html.Screen,4_93_0,2023-09-08T18:02:10.384Z,,0,2,,6473.234999809181,response,ISIC_6487809.JPG,5,ISIC_0059943.JPG,ISIC_6487809.JPG,false,1,keypress(m),500,1096938.2999999523,1096938.1999998093,1090448.214,1090530.7999999523,1090464.965,1096877.434,8,400,44,,ISIC_0059943.JPG
break,html.Screen,4_93_1,2023-09-08T18:02:10.384Z,,0,,,NaN,,,,,,false,,,,1096938.6999998093,1096938.5999999046,,1096938.399999857,,1096877.434,8,400,,,
break_continue,html.Screen,4_93_2,2023-09-08T18:02:10.384Z,,0,,,NaN,,,,,,false,,,,1096939.0999999046,1096938.899999857,,1096938.7999999523,,1096877.434,8,400,,,
sequence,flow.Sequence,4_93,2023-09-08T18:02:10.385Z,,0,,,6473.934999856865,completion,,,,,false,,,,1096939.2999999523,1096938.899999857,1090448.214,1090530.6999998093,1090464.965,1096877.434,8,400,,,
trial,html.Screen,4_94_0,2023-09-08T18:02:19.155Z,,0,2,,8831.765999809373,response,ISIC_0069617.JPG,5,ISIC_8344196.JPG,ISIC_8344196.JPG,false,0,keypress(z),500,1105709.2999999523,1105709.1999998093,1096860.749,1096939.2999999523,1096877.434,1105644.531,8,400,45,,ISIC_0069617.JPG
break,html.Screen,4_94_1,2023-09-08T18:02:19.155Z,,0,,,NaN,,,,,,false,,,,1105709.7999999523,1105709.6999998093,,1105709.5,,1105644.531,8,400,,,
break_continue,html.Screen,4_94_2,2023-09-08T18:02:19.155Z,,0,,,NaN,,,,,,false,,,,1105710,1105709.899999857,,1105709.7999999523,,1105644.531,8,400,,,
sequence,flow.Sequence,4_94,2023-09-08T18:02:19.155Z,,0,,,8832.465999857057,completion,,,,,false,,,,1105710.0999999046,1105709.899999857,1096860.749,1096939.2999999523,1096877.434,1105644.531,8,400,,,
trial,html.Screen,4_95_0,2023-09-08T18:02:24.939Z,,0,2,,5849.068999904674,response,ISIC_0010834.JPG,4,ISIC_3520750.JPG,ISIC_3520750.JPG,false,0,keypress(z),500,1111494,1111493.5999999046,1105627.791,1105710.1999998093,1105644.531,1111439.146,8,400,46,,ISIC_0010834.JPG
break,html.Screen,4_95_1,2023-09-08T18:02:24.940Z,,0,,,NaN,,,,,,false,,,,1111495,1111494.7999999523,,1111494.399999857,,1111439.146,8,400,,,
break_continue,html.Screen,4_95_2,2023-09-08T18:02:24.941Z,,0,,,NaN,,,,,,false,,,,1111495.5999999046,1111495.5,,1111495.2999999523,,1111439.146,8,400,,,
sequence,flow.Sequence,4_95,2023-09-08T18:02:24.941Z,,0,,,5850.969000000041,completion,,,,,false,,,,1111496.0999999046,1111495.5,1105627.791,1105710.0999999046,1105644.531,1111439.146,8,400,,,
trial,html.Screen,4_96_0,2023-09-08T18:02:31.279Z,,0,2,,6394.553999809315,response,ISIC_1560272.JPG,4,ISIC_8691327.JPG,ISIC_1560272.JPG,false,1,keypress(m),500,1117833.899999857,1117833.6999998093,1111422.397,1111496.2999999523,1111439.146,1117768.127,8,400,47,,ISIC_8691327.JPG
break,html.Screen,4_96_1,2023-09-08T18:02:31.280Z,,0,,,NaN,,,,,,false,,,,1117834.5,1117834.399999857,,1117834.0999999046,,1117768.127,8,400,,,
break_continue,html.Screen,4_96_2,2023-09-08T18:02:31.280Z,,0,,,NaN,,,,,,false,,,,1117834.899999857,1117834.7999999523,,1117834.6999998093,,1117768.127,8,400,,,
sequence,flow.Sequence,4_96,2023-09-08T18:02:31.280Z,,0,,,6395.653999952367,completion,,,,,false,,,,1117835,1117834.7999999523,1111422.397,1111496.2999999523,1111439.146,1117768.127,8,400,,,
trial,html.Screen,4_97_0,2023-09-08T18:02:36.850Z,,0,2,,5636.972999904538,response,ISIC_0026115.JPG,6,ISIC_1899683.JPG,ISIC_1899683.JPG,false,0,keypress(z),500,1123405.1999998093,1123405.0999999046,1117751.457,1117835.0999999046,1117768.127,1123345.678,8,400,48,,ISIC_0026115.JPG
break,html.Screen,4_97_1,2023-09-08T18:02:36.851Z,,0,,,NaN,,,,,,false,,,,1123405.5,1123405.399999857,,1123405.2999999523,,1123345.678,8,400,,,
break_continue,html.Screen,4_97_2,2023-09-08T18:02:36.851Z,,0,,,NaN,,,,,,false,,,,1123405.6999998093,1123405.5999999046,,1123405.5999999046,,1123345.678,8,400,,,
sequence,flow.Sequence,4_97,2023-09-08T18:02:36.851Z,,0,,,5637.472999904538,completion,,,,,false,,,,1123405.6999998093,1123405.5999999046,1117751.457,1117835.0999999046,1117768.127,1123345.678,8,400,,,
trial,html.Screen,4_98_0,2023-09-08T18:02:43.096Z,,0,2,,6305.121999952244,response,ISIC_0525687.JPG,6,ISIC_3934537.JPG,ISIC_0525687.JPG,false,1,keypress(m),500,1129651,1129650.7999999523,1123328.909,1123405.7999999523,1123345.678,1129591.178,8,400,49,,ISIC_3934537.JPG
break,html.Screen,4_98_1,2023-09-08T18:02:43.097Z,,0,,,NaN,,,,,,false,,,,1129651.2999999523,1129651.1999998093,,1129651.0999999046,,1129591.178,8,400,,,
break_continue,html.Screen,4_98_2,2023-09-08T18:02:43.097Z,,0,,,NaN,,,,,,false,,,,1129651.5,1129651.399999857,,1129651.399999857,,1129591.178,8,400,,,
sequence,flow.Sequence,4_98,2023-09-08T18:02:43.097Z,,0,,,6305.721999856876,completion,,,,,false,,,,1129651.5,1129651.399999857,1123328.909,1123405.7999999523,1123345.678,1129591.178,8,400,,,
trial,html.Screen,4_99_0,2023-09-08T18:02:52.315Z,,0,2,,9278.221999856876,response,ISIC_1350519.JPG,6,ISIC_0063544.JPG,ISIC_1350519.JPG,false,1,keypress(m),500,1138869.5999999046,1138869.399999857,1129574.558,1129651.5,1129591.178,1138809.087,8,400,50,,ISIC_0063544.JPG
break,html.Screen,4_99_1,2023-09-08T18:03:02.309Z,,0,,,10002.783000000054,timeout,,,,,false,,,,1148863.1999998093,1148795.185,1138792.479,1138869.7999999523,1138809.087,1148811.87,8,400,,,
break_continue,html.Screen,4_99_2,2023-09-08T18:03:06.093Z,,0,,,3821.229999904521,response,,,,,false,continue,keypress(Space),,1152646.899999857,1152633.0999999046,1148795.185,1148863.5999999046,1148811.87,1152585.867,8,400,,,
sequence,flow.Sequence,4_99,2023-09-08T18:03:06.093Z,,0,,,23041.92199990456,completion,,,,,false,,,,1152647.0999999046,1152633.0999999046,1129574.558,1129651.5,1129591.178,1152585.867,8,400,,,
trial,html.Screen,4_100_0,2023-09-08T18:03:11.922Z,,0,3,,5889.732999904547,response,ISIC_0032922.JPG,5,ISIC_8979275.JPG,ISIC_8979275.JPG,false,0,keypress(z),500,1158475.7999999523,1158475.5999999046,1152569.157,1152647.0999999046,1152585.867,1158413.83,8,400,1,,ISIC_0032922.JPG
break,html.Screen,4_100_1,2023-09-08T18:03:11.922Z,,0,,,NaN,,,,,,false,,,,1158476.0999999046,1158476,,1158475.899999857,,1158413.83,8,400,,,
break_continue,html.Screen,4_100_2,2023-09-08T18:03:11.922Z,,0,,,NaN,,,,,,false,,,,1158476.1999998093,1158476.1999998093,,1158476.0999999046,,1158413.83,8,400,,,
sequence,flow.Sequence,4_100,2023-09-08T18:03:11.922Z,,0,,,5890.3329998091795,completion,,,,,false,,,,1158476.2999999523,1158476.1999998093,1152569.157,1152647.0999999046,1152585.867,1158413.83,8,400,,,
trial,html.Screen,4_101_0,2023-09-08T18:03:16.931Z,,0,3,,5071.6699999999255,response,ISIC_5359416.JPG,5,ISIC_0070313.JPG,ISIC_5359416.JPG,false,1,keypress(m),500,1163485.6999998093,1163485.5,1158397.238,1158476.2999999523,1158413.83,1163423.59,8,400,2,,ISIC_0070313.JPG
break,html.Screen,4_101_1,2023-09-08T18:03:16.932Z,,0,,,NaN,,,,,,false,,,,1163485.899999857,1163485.899999857,,1163485.7999999523,,1163423.59,8,400,,,
break_continue,html.Screen,4_101_2,2023-09-08T18:03:16.932Z,,0,,,NaN,,,,,,false,,,,1163486.1999998093,1163486.0999999046,,1163486.0999999046,,1163423.59,8,400,,,
sequence,flow.Sequence,4_101,2023-09-08T18:03:16.932Z,,0,,,5072.269999904558,completion,,,,,false,,,,1163486.2999999523,1163486.0999999046,1158397.238,1158476.2999999523,1158413.83,1163423.59,8,400,,,
trial,html.Screen,4_102_0,2023-09-08T18:03:22.918Z,,0,3,,6048.109999809181,response,ISIC_0005572.JPG,5,ISIC_5396394.JPG,ISIC_0005572.JPG,false,1,keypress(m),500,1169471.7999999523,1169471.6999998093,1163407.081,1163486.399999857,1163423.59,1169418.61,8,400,3,,ISIC_5396394.JPG
break,html.Screen,4_102_1,2023-09-08T18:03:22.918Z,,0,,,NaN,,,,,,false,,,,1169472.0999999046,1169472,,1169471.899999857,,1169418.61,8,400,,,
break_continue,html.Screen,4_102_2,2023-09-08T18:03:22.918Z,,0,,,NaN,,,,,,false,,,,1169472.5,1169472.399999857,,1169472.2999999523,,1169418.61,8,400,,,
sequence,flow.Sequence,4_102,2023-09-08T18:03:22.918Z,,0,,,6048.809999856865,completion,,,,,false,,,,1169472.5999999046,1169472.399999857,1163407.081,1163486.2999999523,1163423.59,1169418.61,8,400,,,
trial,html.Screen,4_103_0,2023-09-08T18:03:30.621Z,,0,3,,7756.189999952214,response,ISIC_0015258.JPG,5,ISIC_0030760.JPG,ISIC_0015258.JPG,false,1,keypress(m),500,1177174.899999857,1177174.7999999523,1169401.92,1169472.5999999046,1169418.61,1177116.932,8,400,4,,ISIC_0030760.JPG
break,html.Screen,4_103_1,2023-09-08T18:03:30.621Z,,0,,,NaN,,,,,,false,,,,1177175.399999857,1177175.1999998093,,1177175.0999999046,,1177116.932,8,400,,,
break_continue,html.Screen,4_103_2,2023-09-08T18:03:30.621Z,,0,,,NaN,,,,,,false,,,,1177175.5,1177175.5,,1177175.399999857,,1177116.932,8,400,,,
sequence,flow.Sequence,4_103,2023-09-08T18:03:30.621Z,,0,,,7756.889999999898,completion,,,,,false,,,,1177175.5999999046,1177175.5,1169401.92,1169472.5999999046,1169418.61,1177116.932,8,400,,,
trial,html.Screen,4_104_0,2023-09-08T18:03:36.863Z,,0,3,,6299.8679999522865,response,ISIC_0056788.JPG,5,ISIC_4071825.JPG,ISIC_4071825.JPG,false,0,keypress(z),500,1183417,1183416.7999999523,1177100.398,1177175.6999998093,1177116.932,1183362.443,8,400,5,,ISIC_0056788.JPG
break,html.Screen,4_104_1,2023-09-08T18:03:36.863Z,,0,,,NaN,,,,,,false,,,,1183417.2999999523,1183417.1999998093,,1183417,,1183362.443,8,400,,,
break_continue,html.Screen,4_104_2,2023-09-08T18:03:36.863Z,,0,,,NaN,,,,,,false,,,,1183417.5999999046,1183417.5,,1183417.5,,1183362.443,8,400,,,
sequence,flow.Sequence,4_104,2023-09-08T18:03:36.863Z,,0,,,6300.56799999997,completion,,,,,false,,,,1183417.7999999523,1183417.5,1177100.398,1177175.6999998093,1177116.932,1183362.443,8,400,,,
trial,html.Screen,4_105_0,2023-09-08T18:03:44.546Z,,0,3,,7737.756999809295,response,ISIC_2259190.JPG,4,ISIC_0031621.JPG,ISIC_2259190.JPG,false,1,keypress(m),500,1191100.399999857,1191100.1999998093,1183345.782,1183417.7999999523,1183362.443,1191044.112,8,400,6,,ISIC_0031621.JPG
break,html.Screen,4_105_1,2023-09-08T18:03:44.547Z,,0,,,NaN,,,,,,false,,,,1191101,1191100.7999999523,,1191100.5999999046,,1191044.112,8,400,,,
break_continue,html.Screen,4_105_2,2023-09-08T18:03:44.547Z,,0,,,NaN,,,,,,false,,,,1191101.1999998093,1191101.1999998093,,1191101,,1191044.112,8,400,,,
sequence,flow.Sequence,4_105,2023-09-08T18:03:44.547Z,,0,,,7738.756999809295,completion,,,,,false,,,,1191101.2999999523,1191101.1999998093,1183345.782,1183417.7999999523,1183362.443,1191044.112,8,400,,,
trial,html.Screen,4_106_0,2023-09-08T18:03:51.220Z,,0,3,,6729.987999904668,response,ISIC_0010724.JPG,4,ISIC_0169604.JPG,ISIC_0169604.JPG,false,0,keypress(z),500,1197774.399999857,1197774.0999999046,1191027.315,1191101.399999857,1191044.112,1197740.415,8,400,7,,ISIC_0010724.JPG
break,html.Screen,4_106_1,2023-09-08T18:03:51.221Z,,0,,,NaN,,,,,,false,,,,1197775.0999999046,1197774.899999857,,1197774.6999998093,,1197740.415,8,400,,,
break_continue,html.Screen,4_106_2,2023-09-08T18:03:51.221Z,,0,,,NaN,,,,,,false,,,,1197775.2999999523,1197775.1999998093,,1197775.0999999046,,1197740.415,8,400,,,
sequence,flow.Sequence,4_106,2023-09-08T18:03:51.221Z,,0,,,6731.0879998093005,completion,,,,,false,,,,1197775.399999857,1197775.1999998093,1191027.315,1191101.399999857,1191044.112,1197740.415,8,400,,,
trial,html.Screen,4_107_0,2023-09-08T18:03:56.250Z,,0,3,,5063.484999856912,response,ISIC_0029809.JPG,6,ISIC_0014219.JPG,ISIC_0014219.JPG,false,0,keypress(z),500,1202803.899999857,1202803.899999857,1197723.691,1197775.5,1197740.415,1202750.11,8,400,8,,ISIC_0029809.JPG
break,html.Screen,4_107_1,2023-09-08T18:03:56.251Z,,0,,,NaN,,,,,,false,,,,1202804.1999998093,1202804.1999998093,,1202804,,1202750.11,8,400,,,
break_continue,html.Screen,4_107_2,2023-09-08T18:03:56.251Z,,0,,,NaN,,,,,,false,,,,1202804.2999999523,1202804.2999999523,,1202804.1999998093,,1202750.11,8,400,,,
sequence,flow.Sequence,4_107,2023-09-08T18:03:56.251Z,,0,,,5063.884999952279,completion,,,,,false,,,,1202804.5,1202804.2999999523,1197723.691,1197775.399999857,1197740.415,1202750.11,8,400,,,
trial,html.Screen,4_108_0,2023-09-08T18:04:03.010Z,,0,3,,6813.189999952214,response,ISIC_0014428.JPG,5,ISIC_0014931.JPG,ISIC_0014428.JPG,false,1,keypress(m),500,1209563.2999999523,1209563.2999999523,1202733.456,1202804.5,1202750.11,1209513.449,8,400,9,,ISIC_0014931.JPG
break,html.Screen,4_108_1,2023-09-08T18:04:03.010Z,,0,,,NaN,,,,,,false,,,,1209563.6999998093,1209563.5999999046,,1209563.5,,1209513.449,8,400,,,
break_continue,html.Screen,4_108_2,2023-09-08T18:04:03.010Z,,0,,,NaN,,,,,,false,,,,1209563.899999857,1209563.7999999523,,1209563.6999998093,,1209513.449,8,400,,,
sequence,flow.Sequence,4_108,2023-09-08T18:04:03.010Z,,0,,,6813.689999952214,completion,,,,,false,,,,1209564,1209563.7999999523,1202733.456,1202804.5,1202750.11,1209513.449,8,400,,,
trial,html.Screen,4_109_0,2023-09-08T18:04:11.733Z,,0,3,,8772.950999856927,response,ISIC_2974214.JPG,6,ISIC_4564163.JPG,ISIC_2974214.JPG,false,1,keypress(m),500,1218286.5,1218286.399999857,1209496.624,1209564.0999999046,1209513.449,1218246.967,8,400,10,,ISIC_4564163.JPG
break,html.Screen,4_109_1,2023-09-08T18:04:11.734Z,,0,,,NaN,,,,,,false,,,,1218287.2999999523,1218286.899999857,,1218286.6999998093,,1218246.967,8,400,,,
break_continue,html.Screen,4_109_2,2023-09-08T18:04:11.734Z,,0,,,NaN,,,,,,false,,,,1218287.6999998093,1218287.5,,1218287.399999857,,1218246.967,8,400,,,
sequence,flow.Sequence,4_109,2023-09-08T18:04:11.734Z,,0,,,8774.050999999978,completion,,,,,false,,,,1218287.6999998093,1218287.5,1209496.624,1209564.0999999046,1209513.449,1218246.967,8,400,,,
trial,html.Screen,4_110_0,2023-09-08T18:04:17.719Z,,0,3,,6025.632999904687,response,ISIC_0026595.JPG,5,ISIC_0009908.JPG,ISIC_0026595.JPG,false,1,keypress(m),500,1224272.6999998093,1224272.5999999046,1218230.347,1218287.7999999523,1218246.967,1224208.548,8,400,11,,ISIC_0009908.JPG
break,html.Screen,4_110_1,2023-09-08T18:04:17.719Z,,0,,,NaN,,,,,,false,,,,1224273,1224272.899999857,,1224272.6999998093,,1224208.548,8,400,,,
break_continue,html.Screen,4_110_2,2023-09-08T18:04:17.720Z,,0,,,NaN,,,,,,false,,,,1224273.2999999523,1224273.1999998093,,1224273.0999999046,,1224208.548,8,400,,,
sequence,flow.Sequence,4_110,2023-09-08T18:04:17.720Z,,0,,,6026.232999809319,completion,,,,,false,,,,1224273.2999999523,1224273.1999998093,1218230.347,1218287.7999999523,1218246.967,1224208.548,8,400,,,
trial,html.Screen,4_111_0,2023-09-08T18:04:24.511Z,,0,3,,6856.452000000048,response,ISIC_1154109.JPG,5,ISIC_5868291.JPG,ISIC_1154109.JPG,false,1,keypress(m),500,1231065.0999999046,1231065,1224191.991,1224273.399999857,1224208.548,1231005.095,8,400,12,,ISIC_5868291.JPG
break,html.Screen,4_111_1,2023-09-08T18:04:24.512Z,,0,,,NaN,,,,,,false,,,,1231065.399999857,1231065.399999857,,1231065.1999998093,,1231005.095,8,400,,,
break_continue,html.Screen,4_111_2,2023-09-08T18:04:24.512Z,,0,,,NaN,,,,,,false,,,,1231065.5,1231065.5,,1231065.5,,1231005.095,8,400,,,
sequence,flow.Sequence,4_111,2023-09-08T18:04:24.512Z,,0,,,6856.952000000048,completion,,,,,false,,,,1231065.5999999046,1231065.5,1224191.991,1224273.399999857,1224208.548,1231005.095,8,400,,,
trial,html.Screen,4_112_0,2023-09-08T18:04:29.688Z,,0,3,,5236.704999952344,response,ISIC_2159510.JPG,6,ISIC_5881453.JPG,ISIC_5881453.JPG,false,0,keypress(z),500,1236241.899999857,1236241.7999999523,1230988.443,1231065.6999998093,1231005.095,1236181.843,8,400,13,,ISIC_2159510.JPG
break,html.Screen,4_112_1,2023-09-08T18:04:29.689Z,,0,,,NaN,,,,,,false,,,,1236242.5,1236242.399999857,,1236242.0999999046,,1236181.843,8,400,,,
break_continue,html.Screen,4_112_2,2023-09-08T18:04:29.689Z,,0,,,NaN,,,,,,false,,,,1236242.7999999523,1236242.6999998093,,1236242.5999999046,,1236181.843,8,400,,,
sequence,flow.Sequence,4_112,2023-09-08T18:04:29.689Z,,0,,,5237.604999809293,completion,,,,,false,,,,1236243,1236242.6999998093,1230988.443,1231065.6999998093,1231005.095,1236181.843,8,400,,,
trial,html.Screen,4_113_0,2023-09-08T18:04:35.023Z,,0,3,,5394.15699999989,response,ISIC_0056915.JPG,5,ISIC_0061092.JPG,ISIC_0056915.JPG,false,1,keypress(m),500,1241576.1999998093,1241576,1236165.218,1236243.0999999046,1236181.843,1241525.604,8,400,14,,ISIC_0061092.JPG
break,html.Screen,4_113_1,2023-09-08T18:04:35.023Z,,0,,,NaN,,,,,,false,,,,1241576.5,1241576.5,,1241576.2999999523,,1241525.604,8,400,,,
break_continue,html.Screen,4_113_2,2023-09-08T18:04:35.023Z,,0,,,NaN,,,,,,false,,,,1241576.6999998093,1241576.5999999046,,1241576.5999999046,,1241525.604,8,400,,,
sequence,flow.Sequence,4_113,2023-09-08T18:04:35.023Z,,0,,,5394.756999904523,completion,,,,,false,,,,1241576.7999999523,1241576.5999999046,1236165.218,1236243,1236181.843,1241525.604,8,400,,,
trial,html.Screen,4_114_0,2023-09-08T18:04:40.038Z,,0,3,,5065.89599999995,response,ISIC_3372067.JPG,6,ISIC_0032095.JPG,ISIC_3372067.JPG,false,1,keypress(m),500,1246591.5999999046,1246591.5,1241508.914,1241576.7999999523,1241525.604,1246535.402,8,400,15,,ISIC_0032095.JPG
break,html.Screen,4_114_1,2023-09-08T18:04:40.038Z,,0,,,NaN,,,,,,false,,,,1246591.899999857,1246591.899999857,,1246591.6999998093,,1246535.402,8,400,,,
break_continue,html.Screen,4_114_2,2023-09-08T18:04:40.038Z,,0,,,NaN,,,,,,false,,,,1246592.0999999046,1246592,,1246591.899999857,,1246535.402,8,400,,,
sequence,flow.Sequence,4_114,2023-09-08T18:04:40.038Z,,0,,,5066.39599999995,completion,,,,,false,,,,1246592.0999999046,1246592,1241508.914,1241576.7999999523,1241525.604,1246535.402,8,400,,,
trial,html.Screen,4_115_0,2023-09-08T18:04:46.951Z,,0,3,,6969.297999809263,response,ISIC_0029495.JPG,4,ISIC_5203791.JPG,ISIC_5203791.JPG,false,0,keypress(z),500,1253504.7999999523,1253504.6999998093,1246518.615,1246592.1999998093,1246535.402,1253448.824,8,400,16,,ISIC_0029495.JPG
break,html.Screen,4_115_1,2023-09-08T18:04:46.952Z,,0,,,NaN,,,,,,false,,,,1253505.1999998093,1253505.0999999046,,1253505,,1253448.824,8,400,,,
break_continue,html.Screen,4_115_2,2023-09-08T18:04:46.952Z,,0,,,NaN,,,,,,false,,,,1253505.399999857,1253505.2999999523,,1253505.1999998093,,1253448.824,8,400,,,
sequence,flow.Sequence,4_115,2023-09-08T18:04:46.952Z,,0,,,6969.897999952314,completion,,,,,false,,,,1253505.399999857,1253505.2999999523,1246518.615,1246592.0999999046,1246535.402,1253448.824,8,400,,,
trial,html.Screen,4_116_0,2023-09-08T18:04:53.705Z,,0,3,,6809.5759998569265,response,ISIC_0033881.JPG,5,ISIC_0056110.JPG,ISIC_0056110.JPG,false,0,keypress(z),500,1260258.399999857,1260258.399999857,1253432.1,1253505.5,1253448.824,1260211.955,8,400,17,,ISIC_0033881.JPG
break,html.Screen,4_116_1,2023-09-08T18:04:53.706Z,,0,,,NaN,,,,,,false,,,,1260258.899999857,1260258.6999998093,,1260258.5999999046,,1260211.955,8,400,,,
break_continue,html.Screen,4_116_2,2023-09-08T18:04:53.706Z,,0,,,NaN,,,,,,false,,,,1260259.399999857,1260259.1999998093,,1260259.0999999046,,1260211.955,8,400,,,
sequence,flow.Sequence,4_116,2023-09-08T18:04:53.706Z,,0,,,6810.375999809243,completion,,,,,false,,,,1260259.5,1260259.1999998093,1253432.1,1253505.5,1253448.824,1260211.955,8,400,,,
trial,html.Screen,4_117_0,2023-09-08T18:04:59.788Z,,0,3,,6129.244999809191,response,ISIC_0067789.JPG,5,ISIC_8389839.JPG,ISIC_8389839.JPG,false,0,keypress(z),500,1266341.2999999523,1266341.1999998093,1260195.333,1260259.5999999046,1260211.955,1266290.576,8,400,18,,ISIC_0067789.JPG
break,html.Screen,4_117_1,2023-09-08T18:04:59.789Z,,0,,,NaN,,,,,,false,,,,1266342,1266341.7999999523,,1266341.5,,1266290.576,8,400,,,
break_continue,html.Screen,4_117_2,2023-09-08T18:04:59.789Z,,0,,,NaN,,,,,,false,,,,1266342.1999998093,1266342.1999998093,,1266342,,1266290.576,8,400,,,
sequence,flow.Sequence,4_117,2023-09-08T18:04:59.789Z,,0,,,6130.244999809191,completion,,,,,false,,,,1266342.2999999523,1266342.1999998093,1260195.333,1260259.5,1260211.955,1266290.576,8,400,,,
trial,html.Screen,4_118_0,2023-09-08T18:05:06.206Z,,0,3,,6468.4240000001155,response,ISIC_2746860.JPG,4,ISIC_0413154.JPG,ISIC_0413154.JPG,false,0,keypress(z),500,1272759.1999998093,1272759,1266273.826,1266342.399999857,1266290.576,1272702.901,8,400,19,,ISIC_2746860.JPG
break,html.Screen,4_118_1,2023-09-08T18:05:06.207Z,,0,,,NaN,,,,,,false,,,,1272759.6999998093,1272759.5999999046,,1272759.399999857,,1272702.901,8,400,,,
break_continue,html.Screen,4_118_2,2023-09-08T18:05:06.207Z,,0,,,NaN,,,,,,false,,,,1272760,1272759.899999857,,1272759.7999999523,,1272702.901,8,400,,,
sequence,flow.Sequence,4_118,2023-09-08T18:05:06.207Z,,0,,,6469.323999857064,completion,,,,,false,,,,1272760.1999998093,1272759.899999857,1266273.826,1266342.399999857,1266290.576,1272702.901,8,400,,,
trial,html.Screen,4_119_0,2023-09-08T18:05:14.913Z,,0,3,,8763.398999952246,response,ISIC_0000213.JPG,5,ISIC_0030985.JPG,ISIC_0030985.JPG,false,0,keypress(z),500,1281466.5,1281466.2999999523,1272686.17,1272760.2999999523,1272702.901,1281403.178,8,400,20,,ISIC_0000213.JPG
break,html.Screen,4_119_1,2023-09-08T18:05:14.914Z,,0,,,NaN,,,,,,false,,,,1281466.899999857,1281466.7999999523,,1281466.5999999046,,1281403.178,8,400,,,
break_continue,html.Screen,4_119_2,2023-09-08T18:05:14.914Z,,0,,,NaN,,,,,,false,,,,1281467,1281467,,1281466.899999857,,1281403.178,8,400,,,
sequence,flow.Sequence,4_119,2023-09-08T18:05:14.914Z,,0,,,8764.09899999993,completion,,,,,false,,,,1281467,1281467,1272686.17,1272760.2999999523,1272702.901,1281403.178,8,400,,,
trial,html.Screen,4_120_0,2023-09-08T18:05:22.776Z,,0,3,,7925.621999952244,response,ISIC_7342636.JPG,5,ISIC_4634128.JPG,ISIC_4634128.JPG,false,0,keypress(z),500,1289329.0999999046,1289328.7999999523,1281386.432,1281467.0999999046,1281403.178,1289268.436,8,400,21,,ISIC_7342636.JPG
break,html.Screen,4_120_1,2023-09-08T18:05:22.776Z,,0,,,NaN,,,,,,false,,,,1289329.5,1289329.399999857,,1289329.1999998093,,1289268.436,8,400,,,
break_continue,html.Screen,4_120_2,2023-09-08T18:05:22.777Z,,0,,,NaN,,,,,,false,,,,1289329.6999998093,1289329.5999999046,,1289329.5999999046,,1289268.436,8,400,,,
sequence,flow.Sequence,4_120,2023-09-08T18:05:22.777Z,,0,,,7926.42199990456,completion,,,,,false,,,,1289329.7999999523,1289329.5999999046,1281386.432,1281467.0999999046,1281403.178,1289268.436,8,400,,,
trial,html.Screen,4_121_0,2023-09-08T18:05:28.266Z,,0,3,,5550.863999952329,response,ISIC_3289098.JPG,4,ISIC_0010050.JPG,ISIC_3289098.JPG,false,1,keypress(m),500,1294819.5,1294819.2999999523,1289251.759,1289329.7999999523,1289268.436,1294762.579,8,400,22,,ISIC_0010050.JPG
break,html.Screen,4_121_1,2023-09-08T18:05:28.267Z,,0,,,NaN,,,,,,false,,,,1294820,1294819.7999999523,,1294819.5999999046,,1294762.579,8,400,,,
break_continue,html.Screen,4_121_2,2023-09-08T18:05:28.267Z,,0,,,NaN,,,,,,false,,,,1294820.2999999523,1294820.1999998093,,1294820.0999999046,,1294762.579,8,400,,,
sequence,flow.Sequence,4_121,2023-09-08T18:05:28.267Z,,0,,,5551.763999809278,completion,,,,,false,,,,1294820.399999857,1294820.1999998093,1289251.759,1289329.7999999523,1289268.436,1294762.579,8,400,,,
trial,html.Screen,4_122_0,2023-09-08T18:05:34.269Z,,0,3,,6059.421000000089,response,ISIC_0028379.JPG,5,ISIC_0026272.JPG,ISIC_0028379.JPG,false,1,keypress(m),500,1300822.1999998093,1300822,1294745.808,1294820.5,1294762.579,1300757.508,8,400,23,,ISIC_0026272.JPG
break,html.Screen,4_122_1,2023-09-08T18:05:34.269Z,,0,,,NaN,,,,,,false,,,,1300822.5999999046,1300822.5,,1300822.2999999523,,1300757.508,8,400,,,
break_continue,html.Screen,4_122_2,2023-09-08T18:05:34.270Z,,0,,,NaN,,,,,,false,,,,1300822.899999857,1300822.7999999523,,1300822.5999999046,,1300757.508,8,400,,,
sequence,flow.Sequence,4_122,2023-09-08T18:05:34.270Z,,0,,,6060.220999952406,completion,,,,,false,,,,1300823,1300822.7999999523,1294745.808,1294820.5,1294762.579,1300757.508,8,400,,,
trial,html.Screen,4_123_0,2023-09-08T18:05:40.511Z,,0,3,,6306.992000000086,response,ISIC_0015219.JPG,5,ISIC_5529924.JPG,ISIC_5529924.JPG,false,0,keypress(z),500,1307064.5999999046,1307064.5,1300740.903,1300823.0999999046,1300757.508,1307002.98,8,400,24,,ISIC_0015219.JPG
break,html.Screen,4_123_1,2023-09-08T18:05:40.512Z,,0,,,NaN,,,,,,false,,,,1307065,1307064.899999857,,1307064.7999999523,,1307002.98,8,400,,,
break_continue,html.Screen,4_123_2,2023-09-08T18:05:40.512Z,,0,,,NaN,,,,,,false,,,,1307065.2999999523,1307065.1999998093,,1307065.0999999046,,1307002.98,8,400,,,
sequence,flow.Sequence,4_123,2023-09-08T18:05:40.512Z,,0,,,6307.691999809351,completion,,,,,false,,,,1307065.399999857,1307065.1999998093,1300740.903,1300823,1300757.508,1307002.98,8,400,,,
trial,html.Screen,4_124_0,2023-09-08T18:05:48.133Z,,0,3,,7683.319999952335,response,ISIC_8265105.JPG,5,ISIC_8837880.JPG,ISIC_8837880.JPG,false,0,keypress(z),500,1314686.5999999046,1314686.2999999523,1306986.288,1307065.5,1307002.98,1314634.673,8,400,25,,ISIC_8265105.JPG
break,html.Screen,4_124_1,2023-09-08T18:05:48.135Z,,0,,,NaN,,,,,,false,,,,1314687.899999857,1314687.6999998093,,1314687.2999999523,,1314634.673,8,400,,,
break_continue,html.Screen,4_124_2,2023-09-08T18:05:48.135Z,,0,,,NaN,,,,,,false,,,,1314688.5999999046,1314688.399999857,,1314688.0999999046,,1314634.673,8,400,,,
sequence,flow.Sequence,4_124,2023-09-08T18:05:48.136Z,,0,,,7685.4199998569675,completion,,,,,false,,,,1314688.7999999523,1314688.399999857,1306986.288,1307065.5,1307002.98,1314634.673,8,400,,,
trial,html.Screen,4_125_0,2023-09-08T18:05:55.916Z,,0,3,,7833.726999856997,response,ISIC_0053574.JPG,6,ISIC_0027282.JPG,ISIC_0053574.JPG,false,1,keypress(m),500,1322468.6999998093,1322468.399999857,1314617.886,1314689.0999999046,1314634.673,1322433.061,8,400,26,,ISIC_0027282.JPG
break,html.Screen,4_125_1,2023-09-08T18:05:55.917Z,,0,,,NaN,,,,,,false,,,,1322469.5,1322469.2999999523,,1322468.899999857,,1322433.061,8,400,,,
break_continue,html.Screen,4_125_2,2023-09-08T18:05:55.917Z,,0,,,NaN,,,,,,false,,,,1322469.899999857,1322469.6999998093,,1322469.5999999046,,1322433.061,8,400,,,
sequence,flow.Sequence,4_125,2023-09-08T18:05:55.918Z,,0,,,7835.026999809314,completion,,,,,false,,,,1322470.1999998093,1322469.6999998093,1314617.886,1314689,1314634.673,1322433.061,8,400,,,
