sender,sender_type,sender_id,timestamp,meta,,blockNo,condition,duration,ended_on,img_left,img_reveal,img_right,loser,practice,response,response_action,selection_duration,time_commit,time_end,time_render,time_run,time_show,time_switch,total_blocks,total_trials,trialNo,url,winner
informed_consent,html.Screen,0,2023-09-02T00:58:46.227Z,"{""labjs_version"":""20.2.4"",""labjs_build"":{""flavor"":""development"",""commit"":""f5b4a49f956347addd546a832a3327688c2c0fef""},""location"":""https://labjs.felixhenninger.com/api/labjs_preview/index.html"",""userAgent"":""Mozilla/5.0 (Windows NT 10.0; Win64; x64) AppleWebKit/537.36 (KHTML, like Gecko) Chrome/116.0.0.0 Safari/537.36"",""platform"":""Win32"",""language"":""en-AU"",""locale"":""en-US"",""timeZone"":""America/Chicago"",""timezoneOffset"":300,""screen_width"":1536,""screen_height"":864,""scroll_width"":1056,""scroll_height"":626,""window_innerWidth"":1056,""window_innerHeight"":674,""devicePixelRatio"":1.25}",,,,35056.28899999991,response,,,,,,consent,click button,,35933.10000000009,35925.89999999991,852.806,944.6000000000931,869.611,35850.608,,,,{},
Welcome,html.Screen,1,2023-09-02T01:00:27.673Z,,,,colourful,101528.59199999971,response,,,,,,continue,click button,,137380.5,137379.19999999972,35834.068,35933.299999999814,35850.608,137297.743,,,,,
trial,html.Screen,2_0_0,2023-09-02T01:00:30.288Z,,0,0,,2696.656999999919,response,ISIC_0025593.JPG,,ISIC_0063388.JPG,ISIC_0063388.JPG,true,0,keypress(z),500,139994.6000000001,139994.3999999999,137281.107,137380.69999999972,137297.743,139904.39,1,6,1,,ISIC_0025593.JPG
sequence,flow.Sequence,2_0,2023-09-02T01:00:30.288Z,,0,,,2696.656999999919,completion,,,,,true,,,,139994.69999999972,139994.3999999999,137281.107,137380.69999999972,137297.743,139904.39,1,6,,,
trial,html.Screen,2_1_0,2023-09-02T01:00:33.509Z,,0,0,,3311.609999999986,response,ISIC_1309015.JPG,,ISIC_0028178.JPG,ISIC_1309015.JPG,true,1,keypress(m),500,143216.19999999972,143216,139889.869,139994.7999999998,139904.39,143131.543,1,6,2,,ISIC_0028178.JPG
sequence,flow.Sequence,2_1,2023-09-02T01:00:33.510Z,,0,,,3311.609999999986,completion,,,,,true,,,,143216.6000000001,143216,139889.869,139994.7999999998,139904.39,143131.543,1,6,,,
trial,html.Screen,2_2_0,2023-09-02T01:00:36.414Z,,0,0,,2989.8569999999017,response,ISIC_3314853.JPG,,ISIC_0031128.JPG,ISIC_3314853.JPG,true,1,keypress(m),500,146121.6000000001,146121.3999999999,143112.923,143216.7999999998,143131.543,146033.332,1,6,3,,ISIC_0031128.JPG
sequence,flow.Sequence,2_2,2023-09-02T01:00:36.415Z,,0,,,2989.8569999999017,completion,,,,,true,,,,146121.69999999972,146121.3999999999,143112.923,143216.69999999972,143131.543,146033.332,1,6,,,
trial,html.Screen,2_3_0,2023-09-02T01:00:40.944Z,,0,0,,4617.668000000005,response,ISIC_8980141.JPG,,ISIC_0031612.JPG,ISIC_8980141.JPG,true,1,keypress(m),500,150651.19999999972,150651,146018.166,146121.69999999972,146033.332,150549.922,1,6,4,,ISIC_0031612.JPG
sequence,flow.Sequence,2_3,2023-09-02T01:00:40.945Z,,0,,,4617.668000000005,completion,,,,,true,,,,150651.69999999972,150651,146018.166,146121.69999999972,146033.332,150549.922,1,6,,,
trial,html.Screen,2_4_0,2023-09-02T01:00:45.610Z,,0,0,,4766.4779999999155,response,ISIC_9721604.JPG,,ISIC_1197737.JPG,ISIC_9721604.JPG,true,1,keypress(m),500,155316.7999999998,155316.3999999999,150547.106,150651.8999999999,150549.922,155216.541,1,6,5,,ISIC_1197737.JPG
sequence,flow.Sequence,2_4,2023-09-02T01:00:45.610Z,,0,,,4766.4779999999155,completion,,,,,true,,,,155316.8999999999,155316.3999999999,150547.106,150651.8999999999,150549.922,155216.541,1,6,,,
trial,html.Screen,2_5_0,2023-09-02T01:00:48.801Z,,0,0,,3290.8589999999094,response,ISIC_0010681.JPG,,ISIC_0025346.JPG,ISIC_0010681.JPG,true,1,keypress(m),500,158507.69999999972,158507.3999999999,155213.031,155317.1000000001,155216.541,158406.93,1,6,6,,ISIC_0025346.JPG
sequence,flow.Sequence,2_5,2023-09-02T01:00:48.801Z,,0,,,3290.8589999999094,completion,,,,,true,,,,158508.19999999972,158507.3999999999,155213.031,155317,155216.541,158406.93,1,6,,,
loop,flow.Loop,2,2023-09-02T01:00:48.801Z,,,,,21209.65699999992,completion,,,,,true,,,,158508.5,158507.3999999999,137281.107,137380.69999999972,137297.743,158406.93,1,6,,,
exp_instructions,html.Screen,3,2023-09-02T01:00:53.385Z,,,,,4684.570000000007,response,,,,,,continue,keypress(Space),,163092.1000000001,163091.5,158403.272,158508.69999999972,158406.93,162990.445,,,,,
trial,html.Screen,4_0_0,2023-09-02T01:00:56.431Z,,0,1,,3147.655000000086,response,ISIC_0032447.JPG,5,ISIC_9008095.JPG,ISIC_9008095.JPG,false,0,keypress(z),500,166138.3999999999,166138.1000000001,162986.285,163092.3999999999,162990.445,166036.754,8,400,1,,ISIC_0032447.JPG
break,html.Screen,4_0_1,2023-09-02T01:00:56.433Z,,0,,,NaN,,,,,,false,,,,166139.69999999972,166139.2999999998,,166138.6000000001,,166036.754,8,400,,,
break_continue,html.Screen,4_0_2,2023-09-02T01:00:56.433Z,,0,,,NaN,,,,,,false,,,,166140.2999999998,166140.1000000001,,166139.8999999999,,166036.754,8,400,,,
sequence,flow.Sequence,4_0,2023-09-02T01:00:56.433Z,,0,,,3149.655000000086,completion,,,,,false,,,,166140.3999999999,166140.1000000001,162986.285,163092.3999999999,162990.445,166036.754,8,400,,,
trial,html.Screen,4_1_0,2023-09-02T01:01:00.712Z,,0,1,,4382.346000000107,response,ISIC_0057762.JPG,5,ISIC_7053271.JPG,ISIC_7053271.JPG,false,0,keypress(z),500,170419.2999999998,170419.1000000001,166034.831,166140.6000000001,166036.754,170322.45,8,400,2,,ISIC_0057762.JPG
break,html.Screen,4_1_1,2023-09-02T01:01:00.713Z,,0,,,NaN,,,,,,false,,,,170419.69999999972,170419.6000000001,,170419.3999999999,,170322.45,8,400,,,
break_continue,html.Screen,4_1_2,2023-09-02T01:01:00.713Z,,0,,,NaN,,,,,,false,,,,170420,170420,,170419.7999999998,,170322.45,8,400,,,
sequence,flow.Sequence,4_1,2023-09-02T01:01:00.713Z,,0,,,4383.246000000014,completion,,,,,false,,,,170420.1000000001,170420,166034.831,166140.5,166036.754,170322.45,8,400,,,
trial,html.Screen,4_2_0,2023-09-02T01:01:08.864Z,,0,1,,8248.249999999709,response,ISIC_0015079.JPG,5,ISIC_0033530.JPG,ISIC_0015079.JPG,false,1,keypress(m),500,178570.8999999999,178570.69999999972,170314.293,170420.1000000001,170322.45,178469.607,8,400,3,,ISIC_0033530.JPG
break,html.Screen,4_2_1,2023-09-02T01:01:08.865Z,,0,,,NaN,,,,,,false,,,,178572.2999999998,178572.1000000001,,178571.8999999999,,178469.607,8,400,,,
break_continue,html.Screen,4_2_2,2023-09-02T01:01:08.865Z,,0,,,NaN,,,,,,false,,,,178572.5,178572.5,,178572.2999999998,,178469.607,8,400,,,
sequence,flow.Sequence,4_2,2023-09-02T01:01:08.865Z,,0,,,8250.049999999988,completion,,,,,false,,,,178572.5,178572.5,170314.293,170420.1000000001,170322.45,178469.607,8,400,,,
trial,html.Screen,4_3_0,2023-09-02T01:01:16.074Z,,0,1,,7310.993000000104,response,ISIC_0054744.JPG,4,ISIC_0046597.JPG,ISIC_0046597.JPG,false,0,keypress(z),500,185780.7999999998,185780.6000000001,178467.633,178572.6000000001,178469.607,185695.666,8,400,4,,ISIC_0054744.JPG
break,html.Screen,4_3_1,2023-09-02T01:01:16.075Z,,0,,,NaN,,,,,,false,,,,185781.7999999998,185781.5,,185781.1000000001,,185695.666,8,400,,,
break_continue,html.Screen,4_3_2,2023-09-02T01:01:16.076Z,,0,,,NaN,,,,,,false,,,,185782.2999999998,185782.19999999972,,185782,,185695.666,8,400,,,
sequence,flow.Sequence,4_3,2023-09-02T01:01:16.076Z,,0,,,7312.592999999732,completion,,,,,false,,,,185782.3999999999,185782.19999999972,178467.633,178572.6000000001,178469.607,185695.666,8,400,,,
trial,html.Screen,4_4_0,2023-09-02T01:01:19.278Z,,0,1,,3288.3340000000026,response,ISIC_0033612.JPG,4,ISIC_0026655.JPG,ISIC_0026655.JPG,false,0,keypress(z),500,188984.2999999998,188984,185676.841,185782.6000000001,185695.666,188882.536,8,400,5,,ISIC_0033612.JPG
break,html.Screen,4_4_1,2023-09-02T01:01:19.279Z,,0,,,NaN,,,,,,false,,,,188985.2999999998,188985,,188984.5,,188882.536,8,400,,,
break_continue,html.Screen,4_4_2,2023-09-02T01:01:19.279Z,,0,,,NaN,,,,,,false,,,,188985.69999999972,188985.6000000001,,188985.3999999999,,188882.536,8,400,,,
sequence,flow.Sequence,4_4,2023-09-02T01:01:19.279Z,,0,,,3289.9340000000957,completion,,,,,false,,,,188985.8999999999,188985.6000000001,185676.841,185782.5,185695.666,188882.536,8,400,,,
trial,html.Screen,4_5_0,2023-09-02T01:01:26.982Z,,0,1,,7805.464000000007,response,ISIC_0561634.JPG,4,ISIC_0033954.JPG,ISIC_0561634.JPG,false,1,keypress(m),500,196688.2999999998,196688,188878.275,188986.1000000001,188882.536,196586.765,8,400,6,,ISIC_0033954.JPG
break,html.Screen,4_5_1,2023-09-02T01:01:26.983Z,,0,,,NaN,,,,,,false,,,,196689.3999999999,196689.1000000001,,196688.6000000001,,196586.765,8,400,,,
break_continue,html.Screen,4_5_2,2023-09-02T01:01:26.983Z,,0,,,NaN,,,,,,false,,,,196689.8999999999,196689.69999999972,,196689.5,,196586.765,8,400,,,
sequence,flow.Sequence,4_5,2023-09-02T01:01:26.984Z,,0,,,7807.163999999728,completion,,,,,false,,,,196690.1000000001,196689.69999999972,188878.275,188986,188882.536,196586.765,8,400,,,
trial,html.Screen,4_6_0,2023-09-02T01:01:33.018Z,,0,1,,6137.634999999893,response,ISIC_9509757.JPG,5,ISIC_2856521.JPG,ISIC_9509757.JPG,false,1,keypress(m),500,202724.5,202724.3999999999,196584.804,196690.19999999972,196586.765,202639.368,8,400,7,,ISIC_2856521.JPG
break,html.Screen,4_6_1,2023-09-02T01:01:33.019Z,,0,,,NaN,,,,,,false,,,,202725,202724.8999999999,,202724.6000000001,,202639.368,8,400,,,
break_continue,html.Screen,4_6_2,2023-09-02T01:01:33.019Z,,0,,,NaN,,,,,,false,,,,202725.6000000001,202725.1000000001,,202725,,202639.368,8,400,,,
sequence,flow.Sequence,4_6,2023-09-02T01:01:33.019Z,,0,,,6138.335000000079,completion,,,,,false,,,,202725.69999999972,202725.1000000001,196584.804,196690.1000000001,196586.765,202639.368,8,400,,,
trial,html.Screen,4_7_0,2023-09-02T01:01:36.605Z,,0,1,,3672.031999999919,response,ISIC_0064863.JPG,6,ISIC_0031074.JPG,ISIC_0031074.JPG,false,0,keypress(z),500,206311.69999999972,206311.3999999999,202619.618,202726.19999999972,202639.368,206226.66,8,400,8,,ISIC_0064863.JPG
break,html.Screen,4_7_1,2023-09-02T01:01:36.606Z,,0,,,NaN,,,,,,false,,,,206312.69999999972,206312.3999999999,,206312,,206226.66,8,400,,,
break_continue,html.Screen,4_7_2,2023-09-02T01:01:36.607Z,,0,,,NaN,,,,,,false,,,,206313,206313,,206312.7999999998,,206226.66,8,400,,,
sequence,flow.Sequence,4_7,2023-09-02T01:01:36.607Z,,0,,,3673.6320000000123,completion,,,,,false,,,,206313.2999999998,206313,202619.618,202726.19999999972,202639.368,206226.66,8,400,,,
trial,html.Screen,4_8_0,2023-09-02T01:01:45.632Z,,0,1,,9111.339999999997,response,ISIC_0024380.JPG,5,ISIC_7839741.JPG,ISIC_7839741.JPG,false,0,keypress(z),500,215338.19999999972,215338,206205.388,206313.2999999998,206226.66,215242.552,8,400,9,,ISIC_0024380.JPG
break,html.Screen,4_8_1,2023-09-02T01:01:45.632Z,,0,,,NaN,,,,,,false,,,,215338.8999999999,215338.69999999972,,215338.5,,215242.552,8,400,,,
break_continue,html.Screen,4_8_2,2023-09-02T01:01:45.633Z,,0,,,NaN,,,,,,false,,,,215339.3999999999,215339.2999999998,,215339.1000000001,,215242.552,8,400,,,
sequence,flow.Sequence,4_8,2023-09-02T01:01:45.633Z,,0,,,9112.63999999981,completion,,,,,false,,,,215339.3999999999,215339.2999999998,206205.388,206313.2999999998,206226.66,215242.552,8,400,,,
trial,html.Screen,4_9_0,2023-09-02T01:01:51.459Z,,0,1,,5922.647999999725,response,ISIC_0070679.JPG,5,ISIC_0070585.JPG,ISIC_0070679.JPG,false,1,keypress(m),500,221165.3999999999,221165.19999999972,215229.978,215339.5,215242.552,221063.687,8,400,10,,ISIC_0070585.JPG
break,html.Screen,4_9_1,2023-09-02T01:01:51.460Z,,0,,,NaN,,,,,,false,,,,221166.6000000001,221166.2999999998,,221165.7999999998,,221063.687,8,400,,,
break_continue,html.Screen,4_9_2,2023-09-02T01:01:51.461Z,,0,,,NaN,,,,,,false,,,,221167.1000000001,221167,,221166.7999999998,,221063.687,8,400,,,
sequence,flow.Sequence,4_9,2023-09-02T01:01:51.461Z,,0,,,5924.448000000004,completion,,,,,false,,,,221167.19999999972,221167,215229.978,215339.5,215242.552,221063.687,8,400,,,
trial,html.Screen,4_10_0,2023-09-02T01:01:54.651Z,,0,1,,3293.913000000088,response,ISIC_8024841.JPG,5,ISIC_9449365.JPG,ISIC_9449365.JPG,false,0,keypress(z),500,224357.7999999998,224357.6000000001,221057.376,221167.2999999998,221063.687,224256.193,8,400,11,,ISIC_8024841.JPG
break,html.Screen,4_10_1,2023-09-02T01:01:54.652Z,,0,,,NaN,,,,,,false,,,,224358.7999999998,224358.6000000001,,224358,,224256.193,8,400,,,
break_continue,html.Screen,4_10_2,2023-09-02T01:01:54.653Z,,0,,,NaN,,,,,,false,,,,224359.19999999972,224359.1000000001,,224358.8999999999,,224256.193,8,400,,,
sequence,flow.Sequence,4_10,2023-09-02T01:01:54.653Z,,0,,,3295.413000000088,completion,,,,,false,,,,224359.3999999999,224359.1000000001,221057.376,221167.2999999998,221063.687,224256.193,8,400,,,
trial,html.Screen,4_11_0,2023-09-02T01:01:58.831Z,,0,1,,4281.506999999721,response,ISIC_0056017.JPG,5,ISIC_0062762.JPG,ISIC_0056017.JPG,false,1,keypress(m),500,228537.7999999998,228537.69999999972,224254.228,224359.5,224256.193,228435.867,8,400,12,,ISIC_0062762.JPG
break,html.Screen,4_11_1,2023-09-02T01:01:58.832Z,,0,,,NaN,,,,,,false,,,,228538.19999999972,228538.1000000001,,228537.8999999999,,228435.867,8,400,,,
break_continue,html.Screen,4_11_2,2023-09-02T01:01:58.832Z,,0,,,NaN,,,,,,false,,,,228538.5,228538.2999999998,,228538.2999999998,,228435.867,8,400,,,
sequence,flow.Sequence,4_11,2023-09-02T01:01:58.832Z,,0,,,4282.106999999814,completion,,,,,false,,,,228538.5,228538.2999999998,224254.228,224359.5,224256.193,228435.867,8,400,,,
trial,html.Screen,4_12_0,2023-09-02T01:02:05.542Z,,0,1,,6811.932999999815,response,ISIC_3039880.JPG,5,ISIC_3509838.JPG,ISIC_3039880.JPG,false,1,keypress(m),500,235248.1000000001,235247.7999999998,228432.205,228538.6000000001,228435.867,235146.483,8,400,13,,ISIC_3509838.JPG
break,html.Screen,4_12_1,2023-09-02T01:02:05.543Z,,0,,,NaN,,,,,,false,,,,235249.1000000001,235248.7999999998,,235248.2999999998,,235146.483,8,400,,,
break_continue,html.Screen,4_12_2,2023-09-02T01:02:05.543Z,,0,,,NaN,,,,,,false,,,,235249.5,235249.3999999999,,235249.2999999998,,235146.483,8,400,,,
sequence,flow.Sequence,4_12,2023-09-02T01:02:05.543Z,,0,,,6813.5329999999085,completion,,,,,false,,,,235249.69999999972,235249.3999999999,228432.205,228538.5,228435.867,235146.483,8,400,,,
trial,html.Screen,4_13_0,2023-09-02T01:02:09.225Z,,0,1,,3784.716999999713,response,ISIC_0073156.JPG,5,ISIC_0450295.JPG,ISIC_0450295.JPG,false,0,keypress(z),500,238931.3999999999,238931.19999999972,235137.77,235249.8999999999,235146.483,238834.626,8,400,14,,ISIC_0073156.JPG
break,html.Screen,4_13_1,2023-09-02T01:02:09.226Z,,0,,,NaN,,,,,,false,,,,238932.3999999999,238932.19999999972,,238931.6000000001,,238834.626,8,400,,,
break_continue,html.Screen,4_13_2,2023-09-02T01:02:09.226Z,,0,,,NaN,,,,,,false,,,,238932.7999999998,238932.7999999998,,238932.6000000001,,238834.626,8,400,,,
sequence,flow.Sequence,4_13,2023-09-02T01:02:09.227Z,,0,,,3786.3169999998063,completion,,,,,false,,,,238933,238932.7999999998,235137.77,235249.7999999998,235146.483,238834.626,8,400,,,
trial,html.Screen,4_14_0,2023-09-02T01:02:13.517Z,,0,1,,4388.273999999918,response,ISIC_2141003.JPG,5,ISIC_0034232.JPG,ISIC_2141003.JPG,false,1,keypress(m),500,243223.19999999972,243222.8999999999,238825.36,238933.19999999972,238834.626,243121.523,8,400,15,,ISIC_0034232.JPG
break,html.Screen,4_14_1,2023-09-02T01:02:13.518Z,,0,,,NaN,,,,,,false,,,,243224.2999999998,243224,,243223.5,,243121.523,8,400,,,
break_continue,html.Screen,4_14_2,2023-09-02T01:02:13.518Z,,0,,,NaN,,,,,,false,,,,243224.69999999972,243224.6000000001,,243224.3999999999,,243121.523,8,400,,,
sequence,flow.Sequence,4_14,2023-09-02T01:02:13.518Z,,0,,,4389.974000000104,completion,,,,,false,,,,243224.7999999998,243224.6000000001,238825.36,238933.1000000001,238834.626,243121.523,8,400,,,
trial,html.Screen,4_15_0,2023-09-02T01:02:17.733Z,,0,1,,4317.37699999992,response,ISIC_7312977.JPG,5,ISIC_4708642.JPG,ISIC_4708642.JPG,false,0,keypress(z),500,247439.1000000001,247438.8999999999,243120.136,243224.8999999999,243121.523,247337.48,8,400,16,,ISIC_7312977.JPG
break,html.Screen,4_15_1,2023-09-02T01:02:17.734Z,,0,,,NaN,,,,,,false,,,,247440,247439.8999999999,,247439.3999999999,,247337.48,8,400,,,
break_continue,html.Screen,4_15_2,2023-09-02T01:02:17.734Z,,0,,,NaN,,,,,,false,,,,247440.6000000001,247440.5,,247440.2999999998,,247337.48,8,400,,,
sequence,flow.Sequence,4_15,2023-09-02T01:02:17.734Z,,0,,,4318.9770000000135,completion,,,,,false,,,,247440.7999999998,247440.5,243120.136,243224.8999999999,243121.523,247337.48,8,400,,,
trial,html.Screen,4_16_0,2023-09-02T01:02:20.937Z,,0,1,,3305.3199999998033,response,ISIC_0009713.JPG,5,ISIC_0068950.JPG,ISIC_0009713.JPG,false,1,keypress(m),500,250643.1000000001,250642.7999999998,247335.7,247440.8999999999,247337.48,250541.532,8,400,17,,ISIC_0068950.JPG
break,html.Screen,4_16_1,2023-09-02T01:02:20.938Z,,0,,,NaN,,,,,,false,,,,250644.1000000001,250643.7999999998,,250643.2999999998,,250541.532,8,400,,,
break_continue,html.Screen,4_16_2,2023-09-02T01:02:20.938Z,,0,,,NaN,,,,,,false,,,,250644.6000000001,250644.3999999999,,250644.19999999972,,250541.532,8,400,,,
sequence,flow.Sequence,4_16,2023-09-02T01:02:20.938Z,,0,,,3306.9199999998964,completion,,,,,false,,,,250644.69999999972,250644.3999999999,247335.7,247440.8999999999,247337.48,250541.532,8,400,,,
trial,html.Screen,4_17_0,2023-09-02T01:02:25.308Z,,0,1,,4472.767999999807,response,ISIC_6381852.JPG,6,ISIC_5910595.JPG,ISIC_5910595.JPG,false,0,keypress(z),500,255014.6000000001,255014.2999999998,250538.061,250644.7999999998,250541.532,254912.966,8,400,18,,ISIC_6381852.JPG
break,html.Screen,4_17_1,2023-09-02T01:02:25.309Z,,0,,,NaN,,,,,,false,,,,255015.5,255015.2999999998,,255014.7999999998,,254912.966,8,400,,,
break_continue,html.Screen,4_17_2,2023-09-02T01:02:25.310Z,,0,,,NaN,,,,,,false,,,,255016,255015.7999999998,,255015.6000000001,,254912.966,8,400,,,
sequence,flow.Sequence,4_17,2023-09-02T01:02:25.310Z,,0,,,4474.267999999807,completion,,,,,false,,,,255016.19999999972,255015.7999999998,250538.061,250644.7999999998,250541.532,254912.966,8,400,,,
trial,html.Screen,4_18_0,2023-09-02T01:02:28.033Z,,0,1,,2826.6340000001073,response,ISIC_0011215.JPG,4,ISIC_6995731.JPG,ISIC_0011215.JPG,false,1,keypress(m),500,257739.7999999998,257739.6000000001,254903.432,255016.19999999972,254912.966,257637.939,8,400,19,,ISIC_6995731.JPG
break,html.Screen,4_18_1,2023-09-02T01:02:28.035Z,,0,,,NaN,,,,,,false,,,,257741.3999999999,257740.5,,257740.1000000001,,257637.939,8,400,,,
break_continue,html.Screen,4_18_2,2023-09-02T01:02:28.035Z,,0,,,NaN,,,,,,false,,,,257741.69999999972,257741.69999999972,,257741.5,,257637.939,8,400,,,
sequence,flow.Sequence,4_18,2023-09-02T01:02:28.036Z,,0,,,2828.733999999735,completion,,,,,false,,,,257741.8999999999,257741.69999999972,254903.432,255016.19999999972,254912.966,257637.939,8,400,,,
trial,html.Screen,4_19_0,2023-09-02T01:02:31.053Z,,0,1,,3121.2609999997076,response,ISIC_0005062.JPG,5,ISIC_3568218.JPG,ISIC_0005062.JPG,false,1,keypress(m),500,260759.5,260759.19999999972,257627.747,257742,257637.939,260663.005,8,400,20,,ISIC_3568218.JPG
break,html.Screen,4_19_1,2023-09-02T01:02:31.054Z,,0,,,NaN,,,,,,false,,,,260760.6000000001,260760.2999999998,,260759.69999999972,,260663.005,8,400,,,
break_continue,html.Screen,4_19_2,2023-09-02T01:02:31.055Z,,0,,,NaN,,,,,,false,,,,260761,260760.8999999999,,260760.6000000001,,260663.005,8,400,,,
sequence,flow.Sequence,4_19,2023-09-02T01:02:31.055Z,,0,,,3122.960999999894,completion,,,,,false,,,,260761.19999999972,260760.8999999999,257627.747,257742,257637.939,260663.005,8,400,,,
trial,html.Screen,4_20_0,2023-09-02T01:02:34.246Z,,0,1,,3289.4949999999953,response,ISIC_0911264.JPG,5,ISIC_0066733.JPG,ISIC_0911264.JPG,false,1,keypress(m),500,263952.7999999998,263952.5,260646.458,260761.2999999998,260663.005,263851.26,8,400,21,,ISIC_0066733.JPG
break,html.Screen,4_20_1,2023-09-02T01:02:34.247Z,,0,,,NaN,,,,,,false,,,,263953.6999999997,263953.5,,263953,,263851.26,8,400,,,
break_continue,html.Screen,4_20_2,2023-09-02T01:02:34.248Z,,0,,,NaN,,,,,,false,,,,263954.1999999997,263954.1000000001,,263953.8999999999,,263851.26,8,400,,,
sequence,flow.Sequence,4_20,2023-09-02T01:02:34.248Z,,0,,,3291.0950000000885,completion,,,,,false,,,,263954.3999999999,263954.1000000001,260646.458,260761.2999999998,260663.005,263851.26,8,400,,,
trial,html.Screen,4_21_0,2023-09-02T01:02:37.105Z,,0,1,,2960.340000000084,response,ISIC_2241388.JPG,4,ISIC_3305055.JPG,ISIC_2241388.JPG,false,1,keypress(m),500,266811.8999999999,266811.6000000001,263847.726,263954.5,263851.26,266726.975,8,400,22,,ISIC_3305055.JPG
break,html.Screen,4_21_1,2023-09-02T01:02:37.106Z,,0,,,NaN,,,,,,false,,,,266812.7999999998,266812.6000000001,,266812.1000000001,,266726.975,8,400,,,
break_continue,html.Screen,4_21_2,2023-09-02T01:02:37.107Z,,0,,,NaN,,,,,,false,,,,266813.1999999997,266813.1000000001,,266812.8999999999,,266726.975,8,400,,,
sequence,flow.Sequence,4_21,2023-09-02T01:02:37.107Z,,0,,,2961.840000000084,completion,,,,,false,,,,266813.3999999999,266813.1000000001,263847.726,263954.5,263851.26,266726.975,8,400,,,
trial,html.Screen,4_22_0,2023-09-02T01:02:39.957Z,,0,1,,2935.724999999744,response,ISIC_0034265.JPG,5,ISIC_0033538.JPG,ISIC_0033538.JPG,false,0,keypress(z),500,269662.8999999999,269662.6999999997,266707.977,266813.5,266726.975,269561.389,8,400,23,,ISIC_0034265.JPG
break,html.Screen,4_22_1,2023-09-02T01:02:39.958Z,,0,,,NaN,,,,,,false,,,,269664,269663.7999999998,,269663.1000000001,,269561.389,8,400,,,
break_continue,html.Screen,4_22_2,2023-09-02T01:02:39.958Z,,0,,,NaN,,,,,,false,,,,269664.3999999999,269664.2999999998,,269664.1000000001,,269561.389,8,400,,,
sequence,flow.Sequence,4_22,2023-09-02T01:02:39.958Z,,0,,,2937.324999999837,completion,,,,,false,,,,269664.6000000001,269664.2999999998,266707.977,266813.5,266726.975,269561.389,8,400,,,
trial,html.Screen,4_23_0,2023-09-02T01:02:42.969Z,,0,1,,3113.2110000000685,response,ISIC_8496052.JPG,5,ISIC_5049165.JPG,ISIC_5049165.JPG,false,0,keypress(z),500,272675,272674.6000000001,269556.006,269664.7999999998,269561.389,272573.335,8,400,24,,ISIC_8496052.JPG
break,html.Screen,4_23_1,2023-09-02T01:02:42.970Z,,0,,,NaN,,,,,,false,,,,272676.1000000001,272675.8999999999,,272675.2999999998,,272573.335,8,400,,,
break_continue,html.Screen,4_23_2,2023-09-02T01:02:42.970Z,,0,,,NaN,,,,,,false,,,,272676.8999999999,272676.8999999999,,272676.7999999998,,272573.335,8,400,,,
sequence,flow.Sequence,4_23,2023-09-02T01:02:42.971Z,,0,,,3115.510999999882,completion,,,,,false,,,,272676.8999999999,272676.8999999999,269556.006,269664.6999999997,269561.389,272573.335,8,400,,,
trial,html.Screen,4_24_0,2023-09-02T01:02:46.353Z,,0,1,,3485.3649999996996,response,ISIC_2379379.JPG,5,ISIC_0033412.JPG,ISIC_2379379.JPG,false,1,keypress(m),500,276059,276058.6999999997,272570.548,272676.8999999999,272573.335,275957.36,8,400,25,,ISIC_0033412.JPG
break,html.Screen,4_24_1,2023-09-02T01:02:46.354Z,,0,,,NaN,,,,,,false,,,,276060,276059.6999999997,,276059.1999999997,,275957.36,8,400,,,
break_continue,html.Screen,4_24_2,2023-09-02T01:02:46.354Z,,0,,,NaN,,,,,,false,,,,276060.3999999999,276060.1999999997,,276060.1000000001,,275957.36,8,400,,,
sequence,flow.Sequence,4_24,2023-09-02T01:02:46.354Z,,0,,,3486.8649999996996,completion,,,,,false,,,,276060.5,276060.1999999997,272570.548,272676.8999999999,272573.335,275957.36,8,400,,,
trial,html.Screen,4_25_0,2023-09-02T01:02:48.933Z,,0,1,,2681.640000000014,response,ISIC_0034133.JPG,5,ISIC_7630831.JPG,ISIC_7630831.JPG,false,0,keypress(z),500,278639.1999999997,278639,275942.121,276060.6000000001,275957.36,278549.877,8,400,26,,ISIC_0034133.JPG
break,html.Screen,4_25_1,2023-09-02T01:02:48.934Z,,0,,,NaN,,,,,,false,,,,278640.1000000001,278639.8999999999,,278639.3999999999,,278549.877,8,400,,,
break_continue,html.Screen,4_25_2,2023-09-02T01:02:48.934Z,,0,,,NaN,,,,,,false,,,,278640.5,278640.5,,278640.1999999997,,278549.877,8,400,,,
sequence,flow.Sequence,4_25,2023-09-02T01:02:48.934Z,,0,,,2683.140000000014,completion,,,,,false,,,,278640.6999999997,278640.5,275942.121,276060.6000000001,275957.36,278549.877,8,400,,,
trial,html.Screen,4_26_0,2023-09-02T01:02:52.891Z,,0,1,,4047.2230000001146,response,ISIC_4846741.JPG,5,ISIC_0014291.JPG,ISIC_4846741.JPG,false,1,keypress(m),500,282597.2999999998,282597.1000000001,278524.705,278640.7999999998,278549.877,282516.348,8,400,27,,ISIC_0014291.JPG
break,html.Screen,4_26_1,2023-09-02T01:02:52.892Z,,0,,,NaN,,,,,,false,,,,282598.1999999997,282598,,282597.6000000001,,282516.348,8,400,,,
break_continue,html.Screen,4_26_2,2023-09-02T01:02:52.892Z,,0,,,NaN,,,,,,false,,,,282598.6999999997,282598.6000000001,,282598.3999999999,,282516.348,8,400,,,
sequence,flow.Sequence,4_26,2023-09-02T01:02:52.892Z,,0,,,4048.7230000001146,completion,,,,,false,,,,282598.7999999998,282598.6000000001,278524.705,278640.7999999998,278549.877,282516.348,8,400,,,
trial,html.Screen,4_27_0,2023-09-02T01:03:00.773Z,,0,1,,7962.752000000095,response,ISIC_0006624.JPG,4,ISIC_2768787.JPG,ISIC_0006624.JPG,false,1,keypress(m),500,290479.1999999997,290479.1000000001,282499.772,282598.8999999999,282516.348,290385.778,8,400,28,,ISIC_2768787.JPG
break,html.Screen,4_27_1,2023-09-02T01:03:00.773Z,,0,,,NaN,,,,,,false,,,,290479.6999999997,290479.6000000001,,290479.3999999999,,290385.778,8,400,,,
break_continue,html.Screen,4_27_2,2023-09-02T01:03:00.773Z,,0,,,NaN,,,,,,false,,,,290479.8999999999,290479.8999999999,,290479.7999999998,,290385.778,8,400,,,
sequence,flow.Sequence,4_27,2023-09-02T01:03:00.774Z,,0,,,7963.551999999909,completion,,,,,false,,,,290479.8999999999,290479.8999999999,282499.772,282598.8999999999,282516.348,290385.778,8,400,,,
trial,html.Screen,4_28_0,2023-09-02T01:03:06.410Z,,0,1,,5730.822000000102,response,ISIC_0025169.JPG,4,ISIC_3043475.JPG,ISIC_3043475.JPG,false,0,keypress(z),500,296116.7999999998,296116.6000000001,290364.571,290479.8999999999,290385.778,296015.065,8,400,29,,ISIC_0025169.JPG
break,html.Screen,4_28_1,2023-09-02T01:03:06.412Z,,0,,,NaN,,,,,,false,,,,296118,296117.6999999997,,296117,,296015.065,8,400,,,
break_continue,html.Screen,4_28_2,2023-09-02T01:03:06.412Z,,0,,,NaN,,,,,,false,,,,296118.3999999999,296118.2999999998,,296118.1000000001,,296015.065,8,400,,,
sequence,flow.Sequence,4_28,2023-09-02T01:03:06.412Z,,0,,,5732.521999999823,completion,,,,,false,,,,296118.6999999997,296118.2999999998,290364.571,290479.8999999999,290385.778,296015.065,8,400,,,
trial,html.Screen,4_29_0,2023-09-02T01:03:10.703Z,,0,1,,4393.734999999811,response,ISIC_0032248.JPG,5,ISIC_0010416.JPG,ISIC_0010416.JPG,false,0,keypress(z),500,300409,300408.7999999998,296013.159,296118.6999999997,296015.065,300331.483,8,400,30,,ISIC_0032248.JPG
break,html.Screen,4_29_1,2023-09-02T01:03:10.703Z,,0,,,NaN,,,,,,false,,,,300409.7999999998,300409.3999999999,,300409.2999999998,,300331.483,8,400,,,
break_continue,html.Screen,4_29_2,2023-09-02T01:03:10.704Z,,0,,,NaN,,,,,,false,,,,300410.1000000001,300410,,300409.7999999998,,300331.483,8,400,,,
sequence,flow.Sequence,4_29,2023-09-02T01:03:10.704Z,,0,,,4394.934999999998,completion,,,,,false,,,,300410.2999999998,300410,296013.159,296118.6999999997,296015.065,300331.483,8,400,,,
trial,html.Screen,4_30_0,2023-09-02T01:03:14.503Z,,0,1,,3878.216999999713,response,ISIC_7043369.JPG,5,ISIC_0013141.JPG,ISIC_7043369.JPG,false,1,keypress(m),500,304209.8999999999,304209.6999999997,300314.93,300410.2999999998,300331.483,304110.681,8,400,31,,ISIC_0013141.JPG
break,html.Screen,4_30_1,2023-09-02T01:03:14.505Z,,0,,,NaN,,,,,,false,,,,304211,304210.7999999998,,304210.1999999997,,304110.681,8,400,,,
break_continue,html.Screen,4_30_2,2023-09-02T01:03:14.505Z,,0,,,NaN,,,,,,false,,,,304211.5,304211.3999999999,,304211.1999999997,,304110.681,8,400,,,
sequence,flow.Sequence,4_30,2023-09-02T01:03:14.505Z,,0,,,3879.9169999998994,completion,,,,,false,,,,304211.6999999997,304211.3999999999,300314.93,300410.2999999998,300331.483,304110.681,8,400,,,
trial,html.Screen,4_31_0,2023-09-02T01:03:24.555Z,,0,1,,10150.718999999925,response,ISIC_0059423.JPG,5,ISIC_7587513.JPG,ISIC_7587513.JPG,false,0,keypress(z),500,314261.6000000001,314261.3999999999,304106.624,304211.7999999998,304110.681,314172.938,8,400,32,,ISIC_0059423.JPG
break,html.Screen,4_31_1,2023-09-02T01:03:24.556Z,,0,,,NaN,,,,,,false,,,,314262.6000000001,314262.3999999999,,314261.8999999999,,314172.938,8,400,,,
break_continue,html.Screen,4_31_2,2023-09-02T01:03:24.557Z,,0,,,NaN,,,,,,false,,,,314263.1000000001,314263,,314262.7999999998,,314172.938,8,400,,,
sequence,flow.Sequence,4_31,2023-09-02T01:03:24.557Z,,0,,,10152.319000000018,completion,,,,,false,,,,314263.2999999998,314263,304106.624,304211.7999999998,304110.681,314172.938,8,400,,,
trial,html.Screen,4_32_0,2023-09-02T01:03:27.263Z,,0,1,,2796.261999999697,response,ISIC_0031611.JPG,4,ISIC_0033708.JPG,ISIC_0031611.JPG,false,1,keypress(m),500,316969.2999999998,316969.1999999997,314156.185,314263.3999999999,314172.938,316867.385,8,400,33,,ISIC_0033708.JPG
break,html.Screen,4_32_1,2023-09-02T01:03:27.264Z,,0,,,NaN,,,,,,false,,,,316970,316969.8999999999,,316969.5,,316867.385,8,400,,,
break_continue,html.Screen,4_32_2,2023-09-02T01:03:27.264Z,,0,,,NaN,,,,,,false,,,,316970.3999999999,316970.2999999998,,316970.1999999997,,316867.385,8,400,,,
sequence,flow.Sequence,4_32,2023-09-02T01:03:27.264Z,,0,,,2797.36199999979,completion,,,,,false,,,,316970.6000000001,316970.2999999998,314156.185,314263.3999999999,314172.938,316867.385,8,400,,,
trial,html.Screen,4_33_0,2023-09-02T01:03:30.211Z,,0,1,,3049.4149999998044,response,ISIC_0028415.JPG,5,ISIC_4699989.JPG,ISIC_4699989.JPG,false,0,keypress(z),500,319917.1999999997,319916.7999999998,316852.827,316970.6000000001,316867.385,319815.712,8,400,34,,ISIC_0028415.JPG
break,html.Screen,4_33_1,2023-09-02T01:03:30.212Z,,0,,,NaN,,,,,,false,,,,319918.1999999997,319918,,319917.3999999999,,319815.712,8,400,,,
break_continue,html.Screen,4_33_2,2023-09-02T01:03:30.212Z,,0,,,NaN,,,,,,false,,,,319918.6000000001,319918.5,,319918.2999999998,,319815.712,8,400,,,
sequence,flow.Sequence,4_33,2023-09-02T01:03:30.212Z,,0,,,3051.1149999999907,completion,,,,,false,,,,319918.7999999998,319918.5,316852.827,316970.6000000001,316867.385,319815.712,8,400,,,
trial,html.Screen,4_34_0,2023-09-02T01:03:36.542Z,,0,1,,6432.388000000094,response,ISIC_4899386.JPG,5,ISIC_7253401.JPG,ISIC_4899386.JPG,false,1,keypress(m),500,326248.3999999999,326248.1000000001,319805.016,319918.8999999999,319815.712,326146.879,8,400,35,,ISIC_7253401.JPG
break,html.Screen,4_34_1,2023-09-02T01:03:36.543Z,,0,,,NaN,,,,,,false,,,,326249.5,326249.1999999997,,326248.6000000001,,326146.879,8,400,,,
break_continue,html.Screen,4_34_2,2023-09-02T01:03:36.544Z,,0,,,NaN,,,,,,false,,,,326250.6000000001,326250.3999999999,,326250.1999999997,,326146.879,8,400,,,
sequence,flow.Sequence,4_34,2023-09-02T01:03:36.544Z,,0,,,6434.687999999907,completion,,,,,false,,,,326250.6999999997,326250.3999999999,319805.016,319918.8999999999,319815.712,326146.879,8,400,,,
trial,html.Screen,4_35_0,2023-09-02T01:03:40.994Z,,0,1,,4553.721000000078,response,ISIC_0026115.JPG,5,ISIC_0064936.JPG,ISIC_0026115.JPG,false,1,keypress(m),500,330700.7999999998,330700.6000000001,326144.663,326250.8999999999,326146.879,330616.522,8,400,36,,ISIC_0064936.JPG
break,html.Screen,4_35_1,2023-09-02T01:03:40.995Z,,0,,,NaN,,,,,,false,,,,330701.8999999999,330701.6999999997,,330701.1000000001,,330616.522,8,400,,,
break_continue,html.Screen,4_35_2,2023-09-02T01:03:40.996Z,,0,,,NaN,,,,,,false,,,,330702.3999999999,330702.1999999997,,330702.1000000001,,330616.522,8,400,,,
sequence,flow.Sequence,4_35,2023-09-02T01:03:40.996Z,,0,,,4555.320999999705,completion,,,,,false,,,,330702.5,330702.1999999997,326144.663,326250.7999999998,326146.879,330616.522,8,400,,,
trial,html.Screen,4_36_0,2023-09-02T01:03:43.959Z,,0,1,,3048.3779999999097,response,ISIC_3632419.JPG,5,ISIC_3401631.JPG,ISIC_3632419.JPG,false,1,keypress(m),500,333665.1999999997,333664.8999999999,330596.841,330702.6999999997,330616.522,333563.407,8,400,37,,ISIC_3401631.JPG
break,html.Screen,4_36_1,2023-09-02T01:03:43.960Z,,0,,,NaN,,,,,,false,,,,333666.1000000001,333666,,333665.3999999999,,333563.407,8,400,,,
break_continue,html.Screen,4_36_2,2023-09-02T01:03:43.961Z,,0,,,NaN,,,,,,false,,,,333667.1000000001,333667.1000000001,,333666.8999999999,,333563.407,8,400,,,
sequence,flow.Sequence,4_36,2023-09-02T01:03:43.961Z,,0,,,3050.578000000096,completion,,,,,false,,,,333667.2999999998,333667.1000000001,330596.841,330702.6999999997,330616.522,333563.407,8,400,,,
trial,html.Screen,4_37_0,2023-09-02T01:03:47.010Z,,0,1,,3152.292999999714,response,ISIC_0032420.JPG,4,ISIC_4708642.JPG,ISIC_4708642.JPG,false,0,keypress(z),500,336716,336715.6999999997,333558.342,333667.3999999999,333563.407,336631.023,8,400,38,,ISIC_0032420.JPG
break,html.Screen,4_37_1,2023-09-02T01:03:47.010Z,,0,,,NaN,,,,,,false,,,,336717,336716.6999999997,,336716.1999999997,,336631.023,8,400,,,
break_continue,html.Screen,4_37_2,2023-09-02T01:03:47.011Z,,0,,,NaN,,,,,,false,,,,336717.3999999999,336717.2999999998,,336717.1000000001,,336631.023,8,400,,,
sequence,flow.Sequence,4_37,2023-09-02T01:03:47.011Z,,0,,,3153.892999999807,completion,,,,,false,,,,336717.6000000001,336717.2999999998,333558.342,333667.3999999999,333563.407,336631.023,8,400,,,
trial,html.Screen,4_38_0,2023-09-02T01:03:50.949Z,,0,1,,4024.3769999999204,response,ISIC_5929687.JPG,4,ISIC_0030404.JPG,ISIC_5929687.JPG,false,1,keypress(m),500,340655.6000000001,340655.3999999999,336604.123,336717.6999999997,336631.023,340577.914,8,400,39,,ISIC_0030404.JPG
break,html.Screen,4_38_1,2023-09-02T01:03:50.950Z,,0,,,NaN,,,,,,false,,,,340656.6999999997,340656.3999999999,,340655.7999999998,,340577.914,8,400,,,
break_continue,html.Screen,4_38_2,2023-09-02T01:03:50.951Z,,0,,,NaN,,,,,,false,,,,340657.1000000001,340657,,340656.7999999998,,340577.914,8,400,,,
sequence,flow.Sequence,4_38,2023-09-02T01:03:50.951Z,,0,,,4025.9770000000135,completion,,,,,false,,,,340657.2999999998,340657,336604.123,336717.6999999997,336631.023,340577.914,8,400,,,
trial,html.Screen,4_39_0,2023-09-02T01:03:53.993Z,,0,1,,3120.985999999917,response,ISIC_0009236.JPG,4,ISIC_0069257.JPG,ISIC_0009236.JPG,false,1,keypress(m),500,343699.1000000001,343698.8999999999,340561.095,340657.3999999999,340577.914,343610.115,8,400,40,,ISIC_0069257.JPG
break,html.Screen,4_39_1,2023-09-02T01:03:53.994Z,,0,,,NaN,,,,,,false,,,,343700.1999999997,343699.8999999999,,343699.2999999998,,343610.115,8,400,,,
break_continue,html.Screen,4_39_2,2023-09-02T01:03:53.994Z,,0,,,NaN,,,,,,false,,,,343700.5,343700.3999999999,,343700.2999999998,,343610.115,8,400,,,
sequence,flow.Sequence,4_39,2023-09-02T01:03:53.995Z,,0,,,3122.485999999917,completion,,,,,false,,,,343701.6999999997,343700.3999999999,340561.095,340657.2999999998,340577.914,343610.115,8,400,,,
trial,html.Screen,4_40_0,2023-09-02T01:04:00.451Z,,0,1,,6546.684999999823,response,ISIC_0070601.JPG,6,ISIC_1638436.JPG,ISIC_1638436.JPG,false,0,keypress(z),500,350157.1000000001,350156.7999999998,343593.715,343702,343610.115,350057.015,8,400,41,,ISIC_0070601.JPG
break,html.Screen,4_40_1,2023-09-02T01:04:00.452Z,,0,,,NaN,,,,,,false,,,,350158.1000000001,350157.7999999998,,350157.2999999998,,350057.015,8,400,,,
break_continue,html.Screen,4_40_2,2023-09-02T01:04:00.452Z,,0,,,NaN,,,,,,false,,,,350158.5,350158.3999999999,,350158.1999999997,,350057.015,8,400,,,
sequence,flow.Sequence,4_40,2023-09-02T01:04:00.452Z,,0,,,6548.284999999916,completion,,,,,false,,,,350158.6999999997,350158.3999999999,343593.715,343701.8999999999,343610.115,350057.015,8,400,,,
trial,html.Screen,4_41_0,2023-09-02T01:04:03.226Z,,0,1,,2874.984999999986,response,ISIC_0029944.JPG,6,ISIC_5961333.JPG,ISIC_5961333.JPG,false,0,keypress(z),500,352932.1999999997,352932,350052.679,350158.7999999998,350057.015,352830.626,8,400,42,,ISIC_0029944.JPG
break,html.Screen,4_41_1,2023-09-02T01:04:03.227Z,,0,,,NaN,,,,,,false,,,,352933.1000000001,352933,,352932.3999999999,,352830.626,8,400,,,
break_continue,html.Screen,4_41_2,2023-09-02T01:04:03.227Z,,0,,,NaN,,,,,,false,,,,352933.8999999999,352933.6999999997,,352933.5,,352830.626,8,400,,,
sequence,flow.Sequence,4_41,2023-09-02T01:04:03.228Z,,0,,,2876.6849999997066,completion,,,,,false,,,,352934.1000000001,352933.6999999997,350052.679,350158.7999999998,350057.015,352830.626,8,400,,,
trial,html.Screen,4_42_0,2023-09-02T01:04:06.739Z,,0,1,,3614.7739999999176,response,ISIC_0000550.JPG,6,ISIC_0059349.JPG,ISIC_0059349.JPG,false,0,keypress(z),500,356445.6999999997,356445.3999999999,352827.534,352934.1999999997,352830.626,356343.958,8,400,43,,ISIC_0000550.JPG
break,html.Screen,4_42_1,2023-09-02T01:04:06.740Z,,0,,,NaN,,,,,,false,,,,356446.6000000001,356446.3999999999,,356445.8999999999,,356343.958,8,400,,,
break_continue,html.Screen,4_42_2,2023-09-02T01:04:06.741Z,,0,,,NaN,,,,,,false,,,,356447,356446.8999999999,,356446.6999999997,,356343.958,8,400,,,
sequence,flow.Sequence,4_42,2023-09-02T01:04:06.741Z,,0,,,3616.2739999999176,completion,,,,,false,,,,356447.1999999997,356446.8999999999,352827.534,352934.1999999997,352830.626,356343.958,8,400,,,
trial,html.Screen,4_43_0,2023-09-02T01:04:09.559Z,,0,1,,2921.542000000016,response,ISIC_0057495.JPG,6,ISIC_0054528.JPG,ISIC_0057495.JPG,false,1,keypress(m),500,359265.7999999998,359265.5,356341.654,356447.2999999998,356343.958,359169.627,8,400,44,,ISIC_0054528.JPG
break,html.Screen,4_43_1,2023-09-02T01:04:09.560Z,,0,,,NaN,,,,,,false,,,,359266.8999999999,359266.6000000001,,359266.1000000001,,359169.627,8,400,,,
break_continue,html.Screen,4_43_2,2023-09-02T01:04:09.561Z,,0,,,NaN,,,,,,false,,,,359267.2999999998,359267.1999999997,,359267,,359169.627,8,400,,,
sequence,flow.Sequence,4_43,2023-09-02T01:04:09.561Z,,0,,,2923.2419999997364,completion,,,,,false,,,,359267.5,359267.1999999997,356341.654,356447.2999999998,356343.958,359169.627,8,400,,,
trial,html.Screen,4_44_0,2023-09-02T01:04:12.539Z,,0,1,,3075.672999999835,response,ISIC_7024807.JPG,4,ISIC_4433832.JPG,ISIC_7024807.JPG,false,1,keypress(m),500,362245.6000000001,362245.2999999998,359162.407,359267.6000000001,359169.627,362150.736,8,400,45,,ISIC_4433832.JPG
break,html.Screen,4_44_1,2023-09-02T01:04:12.540Z,,0,,,NaN,,,,,,false,,,,362246.6000000001,362246.3999999999,,362245.8999999999,,362150.736,8,400,,,
break_continue,html.Screen,4_44_2,2023-09-02T01:04:12.541Z,,0,,,NaN,,,,,,false,,,,362247.1000000001,362246.8999999999,,362246.7999999998,,362150.736,8,400,,,
sequence,flow.Sequence,4_44,2023-09-02T01:04:12.541Z,,0,,,3077.2729999999283,completion,,,,,false,,,,362247.1999999997,362246.8999999999,359162.407,359267.6000000001,359169.627,362150.736,8,400,,,
trial,html.Screen,4_45_0,2023-09-02T01:04:19.423Z,,0,1,,6978.663999999932,response,ISIC_4548995.JPG,5,ISIC_9572761.JPG,ISIC_9572761.JPG,false,0,keypress(z),500,369129.6999999997,369129.3999999999,362140.559,362247.3999999999,362150.736,369048.673,8,400,46,,ISIC_4548995.JPG
break,html.Screen,4_45_1,2023-09-02T01:04:19.425Z,,0,,,NaN,,,,,,false,,,,369131,369130.5,,369129.8999999999,,369048.673,8,400,,,
break_continue,html.Screen,4_45_2,2023-09-02T01:04:19.426Z,,0,,,NaN,,,,,,false,,,,369132,369131.8999999999,,369131.5,,369048.673,8,400,,,
sequence,flow.Sequence,4_45,2023-09-02T01:04:19.426Z,,0,,,6981.163999999932,completion,,,,,false,,,,369132.2999999998,369131.8999999999,362140.559,362247.2999999998,362150.736,369048.673,8,400,,,
trial,html.Screen,4_46_0,2023-09-02T01:04:22.588Z,,0,1,,3245.4270000000834,response,ISIC_3392451.JPG,5,ISIC_0011779.JPG,ISIC_3392451.JPG,false,1,keypress(m),500,372294.2999999998,372294.1000000001,369032.1,369132.6999999997,369048.673,372196.538,8,400,47,,ISIC_0011779.JPG
break,html.Screen,4_46_1,2023-09-02T01:04:22.589Z,,0,,,NaN,,,,,,false,,,,372295.2999999998,372295.1000000001,,372294.5,,372196.538,8,400,,,
break_continue,html.Screen,4_46_2,2023-09-02T01:04:22.589Z,,0,,,NaN,,,,,,false,,,,372295.6999999997,372295.6000000001,,372295.3999999999,,372196.538,8,400,,,
sequence,flow.Sequence,4_46,2023-09-02T01:04:22.589Z,,0,,,3246.9270000000834,completion,,,,,false,,,,372295.8999999999,372295.6000000001,369032.1,369132.6000000001,369048.673,372196.538,8,400,,,
trial,html.Screen,4_47_0,2023-09-02T01:04:25.664Z,,0,1,,3173.5620000000927,response,ISIC_9014786.JPG,6,ISIC_0010231.JPG,ISIC_9014786.JPG,false,1,keypress(m),500,375370.2999999998,375370.1000000001,372179.984,372296,372196.538,375268.711,8,400,48,,ISIC_0010231.JPG
break,html.Screen,4_47_1,2023-09-02T01:04:25.665Z,,0,,,NaN,,,,,,false,,,,375371.1999999997,375371,,375370.5,,375268.711,8,400,,,
break_continue,html.Screen,4_47_2,2023-09-02T01:04:25.665Z,,0,,,NaN,,,,,,false,,,,375371.6999999997,375371.6000000001,,375371.3999999999,,375268.711,8,400,,,
sequence,flow.Sequence,4_47,2023-09-02T01:04:25.665Z,,0,,,3175.0620000000927,completion,,,,,false,,,,375371.8999999999,375371.6000000001,372179.984,372296,372196.538,375268.711,8,400,,,
trial,html.Screen,4_48_0,2023-09-02T01:04:31.991Z,,0,1,,6428.98899999971,response,ISIC_0002162.JPG,5,ISIC_0068798.JPG,ISIC_0002162.JPG,false,1,keypress(m),500,381697.8999999999,381697.6999999997,375260.964,375372,375268.711,381602.012,8,400,49,,ISIC_0068798.JPG
break,html.Screen,4_48_1,2023-09-02T01:04:31.992Z,,0,,,NaN,,,,,,false,,,,381698.8999999999,381698.6999999997,,381698.1999999997,,381602.012,8,400,,,
break_continue,html.Screen,4_48_2,2023-09-02T01:04:31.993Z,,0,,,NaN,,,,,,false,,,,381699.3999999999,381699.2999999998,,381699,,381602.012,8,400,,,
sequence,flow.Sequence,4_48,2023-09-02T01:04:31.993Z,,0,,,6430.5889999998035,completion,,,,,false,,,,381699.5,381699.2999999998,375260.964,375372,375268.711,381602.012,8,400,,,
trial,html.Screen,4_49_0,2023-09-02T01:04:35.036Z,,0,1,,3140.1879999997327,response,ISIC_0071733.JPG,5,ISIC_0063544.JPG,ISIC_0071733.JPG,false,1,keypress(m),500,384742.3999999999,384742.1999999997,381578.818,381700.3999999999,381602.012,384647.023,8,400,50,,ISIC_0063544.JPG
break,html.Screen,4_49_1,2023-09-02T01:04:45.289Z,,0,,,19302.222999999998,timeout,,,,,false,,,,394995.3999999999,394995,384631.339,384742.6999999997,384647.023,403949.246,8,400,,,
break_continue,html.Screen,4_49_2,2023-09-02T01:04:56.092Z,,0,,,1841.8540000001085,response,,,,,false,continue,keypress(Space),,405798.1000000001,405791.1000000001,394995,394995.6000000001,403949.246,405695.955,8,400,,,
sequence,flow.Sequence,4_49,2023-09-02T01:04:56.092Z,,0,,,24189.088000000105,completion,,,,,false,,,,405798.1999999997,405791.1000000001,381578.818,381700.2999999998,381602.012,405695.955,8,400,,,
trial,html.Screen,4_50_0,2023-09-02T01:04:58.853Z,,0,2,,2862.8449999997974,response,ISIC_0004691.JPG,5,ISIC_0000161.JPG,ISIC_0004691.JPG,false,1,keypress(m),500,408559.1000000001,408558.7999999998,405680.886,405798.1999999997,405695.955,408473.928,8,400,1,,ISIC_0000161.JPG
break,html.Screen,4_50_1,2023-09-02T01:04:58.854Z,,0,,,NaN,,,,,,false,,,,408560.1000000001,408559.8999999999,,408559.2999999998,,408473.928,8,400,,,
break_continue,html.Screen,4_50_2,2023-09-02T01:04:58.854Z,,0,,,NaN,,,,,,false,,,,408560.5,408560.3999999999,,408560.2999999998,,408473.928,8,400,,,
sequence,flow.Sequence,4_50,2023-09-02T01:04:58.854Z,,0,,,2864.4449999998906,completion,,,,,false,,,,408560.6999999997,408560.3999999999,405680.886,405798.1999999997,405695.955,408473.928,8,400,,,
trial,html.Screen,4_51_0,2023-09-02T01:05:02.138Z,,0,2,,3370.4719999998924,response,ISIC_8440070.JPG,5,ISIC_0065582.JPG,ISIC_8440070.JPG,false,1,keypress(m),500,411844.6000000001,411844.3999999999,408454.857,408560.7999999998,408473.928,411743.123,8,400,2,,ISIC_0065582.JPG
break,html.Screen,4_51_1,2023-09-02T01:05:02.139Z,,0,,,NaN,,,,,,false,,,,411845.6000000001,411845.3999999999,,411844.8999999999,,411743.123,8,400,,,
break_continue,html.Screen,4_51_2,2023-09-02T01:05:02.140Z,,0,,,NaN,,,,,,false,,,,411846.1000000001,411846,,411845.7999999998,,411743.123,8,400,,,
sequence,flow.Sequence,4_51,2023-09-02T01:05:02.140Z,,0,,,3372.0719999999856,completion,,,,,false,,,,411846.1999999997,411846,408454.857,408560.7999999998,408473.928,411743.123,8,400,,,
trial,html.Screen,4_52_0,2023-09-02T01:05:05.118Z,,0,2,,3081.1769999997923,response,ISIC_0028467.JPG,5,ISIC_6710082.JPG,ISIC_6710082.JPG,false,0,keypress(z),500,414824.5,414824.2999999998,411741.452,411846.2999999998,411743.123,414722.868,8,400,3,,ISIC_0028467.JPG
break,html.Screen,4_52_1,2023-09-02T01:05:05.119Z,,0,,,NaN,,,,,,false,,,,414825.3999999999,414825.1999999997,,414824.6999999997,,414722.868,8,400,,,
break_continue,html.Screen,4_52_2,2023-09-02T01:05:05.120Z,,0,,,NaN,,,,,,false,,,,414826,414825.8999999999,,414825.6999999997,,414722.868,8,400,,,
sequence,flow.Sequence,4_52,2023-09-02T01:05:05.120Z,,0,,,3082.7769999998854,completion,,,,,false,,,,414826.2999999998,414825.8999999999,411741.452,411846.2999999998,411743.123,414722.868,8,400,,,
trial,html.Screen,4_53_0,2023-09-02T01:05:09.186Z,,0,2,,4169.431999999797,response,ISIC_0070046.JPG,4,ISIC_0025231.JPG,ISIC_0070046.JPG,false,1,keypress(m),500,418892.5,418892.2999999998,414711.669,414826.3999999999,414722.868,418807.729,8,400,4,,ISIC_0025231.JPG
break,html.Screen,4_53_1,2023-09-02T01:05:09.187Z,,0,,,NaN,,,,,,false,,,,418893.5,418893.2999999998,,418892.6999999997,,418807.729,8,400,,,
break_continue,html.Screen,4_53_2,2023-09-02T01:05:09.187Z,,0,,,NaN,,,,,,false,,,,418893.8999999999,418893.7999999998,,418893.6999999997,,418807.729,8,400,,,
sequence,flow.Sequence,4_53,2023-09-02T01:05:09.188Z,,0,,,4170.931999999797,completion,,,,,false,,,,418894.1000000001,418893.7999999998,414711.669,414826.3999999999,414722.868,418807.729,8,400,,,
trial,html.Screen,4_54_0,2023-09-02T01:05:12.253Z,,0,2,,3151.371000000101,response,ISIC_3653492.JPG,6,ISIC_0027304.JPG,ISIC_0027304.JPG,false,0,keypress(z),500,421959.3999999999,421959.1000000001,418780.384,418894.1999999997,418807.729,421861.403,8,400,5,,ISIC_3653492.JPG
break,html.Screen,4_54_1,2023-09-02T01:05:12.256Z,,0,,,NaN,,,,,,false,,,,421962.3999999999,421962.1000000001,,421961.5,,421861.403,8,400,,,
break_continue,html.Screen,4_54_2,2023-09-02T01:05:12.256Z,,0,,,NaN,,,,,,false,,,,421962.7999999998,421962.6999999997,,421962.6000000001,,421861.403,8,400,,,
sequence,flow.Sequence,4_54,2023-09-02T01:05:12.257Z,,0,,,3154.9709999997285,completion,,,,,false,,,,421962.8999999999,421962.6999999997,418780.384,418894.1000000001,418807.729,421861.403,8,400,,,
trial,html.Screen,4_55_0,2023-09-02T01:05:15.062Z,,0,2,,2906.4969999999157,response,ISIC_4329176.JPG,5,ISIC_0068837.JPG,ISIC_4329176.JPG,false,1,keypress(m),500,424768.1999999997,424767.8999999999,421844.959,421963,421861.403,424687.038,8,400,6,,ISIC_0068837.JPG
break,html.Screen,4_55_1,2023-09-02T01:05:15.063Z,,0,,,NaN,,,,,,false,,,,424769,424768.8999999999,,424768.3999999999,,424687.038,8,400,,,
break_continue,html.Screen,4_55_2,2023-09-02T01:05:15.063Z,,0,,,NaN,,,,,,false,,,,424769.3999999999,424769.3999999999,,424769.1999999997,,424687.038,8,400,,,
sequence,flow.Sequence,4_55,2023-09-02T01:05:15.063Z,,0,,,2907.9969999999157,completion,,,,,false,,,,424769.6000000001,424769.3999999999,421844.959,421962.8999999999,421861.403,424687.038,8,400,,,
trial,html.Screen,4_56_0,2023-09-02T01:05:19.449Z,,0,2,,4468.261999999813,response,ISIC_0958701.JPG,5,ISIC_5510604.JPG,ISIC_5510604.JPG,false,0,keypress(z),500,429155.5,429155.2999999998,424670.427,424769.6999999997,424687.038,429053.875,8,400,7,,ISIC_0958701.JPG
break,html.Screen,4_56_1,2023-09-02T01:05:19.450Z,,0,,,NaN,,,,,,false,,,,429156.5,429156.2999999998,,429155.6999999997,,429053.875,8,400,,,
break_continue,html.Screen,4_56_2,2023-09-02T01:05:19.451Z,,0,,,NaN,,,,,,false,,,,429156.8999999999,429156.7999999998,,429156.6000000001,,429053.875,8,400,,,
sequence,flow.Sequence,4_56,2023-09-02T01:05:19.451Z,,0,,,4469.761999999813,completion,,,,,false,,,,429157.1000000001,429156.7999999998,424670.427,424769.6999999997,424687.038,429053.875,8,400,,,
trial,html.Screen,4_57_0,2023-09-02T01:05:24.068Z,,0,2,,4720.125,response,ISIC_4329176.JPG,6,ISIC_0074311.JPG,ISIC_4329176.JPG,false,1,keypress(m),500,433774.1999999997,433774,429041.414,429157.1999999997,429053.875,433672.673,8,400,8,,ISIC_0074311.JPG
break,html.Screen,4_57_1,2023-09-02T01:05:24.069Z,,0,,,NaN,,,,,,false,,,,433775.1999999997,433774.8999999999,,433774.5,,433672.673,8,400,,,
break_continue,html.Screen,4_57_2,2023-09-02T01:05:24.069Z,,0,,,NaN,,,,,,false,,,,433775.6000000001,433775.5,,433775.2999999998,,433672.673,8,400,,,
sequence,flow.Sequence,4_57,2023-09-02T01:05:24.069Z,,0,,,4721.625,completion,,,,,false,,,,433775.7999999998,433775.5,429041.414,429157.1999999997,429053.875,433672.673,8,400,,,
trial,html.Screen,4_58_0,2023-09-02T01:05:31.128Z,,0,2,,7161.626999999804,response,ISIC_0000483.JPG,5,ISIC_9134453.JPG,ISIC_9134453.JPG,false,0,keypress(z),500,440834.6000000001,440834.2999999998,433669.668,433775.8999999999,433672.673,440736.797,8,400,9,,ISIC_0000483.JPG
break,html.Screen,4_58_1,2023-09-02T01:05:31.129Z,,0,,,NaN,,,,,,false,,,,440835.5,440835.2999999998,,440834.7999999998,,440736.797,8,400,,,
break_continue,html.Screen,4_58_2,2023-09-02T01:05:31.130Z,,0,,,NaN,,,,,,false,,,,440835.8999999999,440835.7999999998,,440835.6999999997,,440736.797,8,400,,,
sequence,flow.Sequence,4_58,2023-09-02T01:05:31.130Z,,0,,,7163.126999999804,completion,,,,,false,,,,440836.1000000001,440835.7999999998,433669.668,433775.8999999999,433672.673,440736.797,8,400,,,
trial,html.Screen,4_59_0,2023-09-02T01:05:34.380Z,,0,2,,3349.1029999998864,response,ISIC_0030898.JPG,5,ISIC_0056228.JPG,ISIC_0056228.JPG,false,0,keypress(z),500,444086.1999999997,444085.8999999999,440725.283,440836.1999999997,440736.797,443984.593,8,400,10,,ISIC_0030898.JPG
break,html.Screen,4_59_1,2023-09-02T01:05:34.381Z,,0,,,NaN,,,,,,false,,,,444087.1000000001,444086.8999999999,,444086.3999999999,,443984.593,8,400,,,
break_continue,html.Screen,4_59_2,2023-09-02T01:05:34.381Z,,0,,,NaN,,,,,,false,,,,444087.6000000001,444087.5,,444087.1999999997,,443984.593,8,400,,,
sequence,flow.Sequence,4_59,2023-09-02T01:05:34.381Z,,0,,,3350.7029999999795,completion,,,,,false,,,,444087.8999999999,444087.5,440725.283,440836.1999999997,440736.797,443984.593,8,400,,,
trial,html.Screen,4_60_0,2023-09-02T01:05:42.548Z,,0,2,,8269.306999999913,response,ISIC_0000358.JPG,5,ISIC_8282404.JPG,ISIC_0000358.JPG,false,1,keypress(m),500,452254.1000000001,452253.8999999999,443982.654,444087.8999999999,443984.593,452152.698,8,400,11,,ISIC_8282404.JPG
break,html.Screen,4_60_1,2023-09-02T01:05:42.549Z,,0,,,NaN,,,,,,false,,,,452255.1000000001,452254.8999999999,,452254.3999999999,,452152.698,8,400,,,
break_continue,html.Screen,4_60_2,2023-09-02T01:05:42.549Z,,0,,,NaN,,,,,,false,,,,452255.5,452255.3999999999,,452255.1999999997,,452152.698,8,400,,,
sequence,flow.Sequence,4_60,2023-09-02T01:05:42.549Z,,0,,,8270.806999999913,completion,,,,,false,,,,452255.6999999997,452255.3999999999,443982.654,444087.8999999999,443984.593,452152.698,8,400,,,
trial,html.Screen,4_61_0,2023-09-02T01:05:49.901Z,,0,2,,7454.402000000118,response,ISIC_4623351.JPG,5,ISIC_7693611.JPG,ISIC_7693611.JPG,false,0,keypress(z),500,459607.2999999998,459607.1000000001,452150.999,452255.7999999998,452152.698,459505.595,8,400,12,,ISIC_4623351.JPG
break,html.Screen,4_61_1,2023-09-02T01:05:49.902Z,,0,,,NaN,,,,,,false,,,,459608.1999999997,459608,,459607.5,,459505.595,8,400,,,
break_continue,html.Screen,4_61_2,2023-09-02T01:05:49.902Z,,0,,,NaN,,,,,,false,,,,459608.6000000001,459608.6000000001,,459608.3999999999,,459505.595,8,400,,,
sequence,flow.Sequence,4_61,2023-09-02T01:05:49.902Z,,0,,,7455.902000000118,completion,,,,,false,,,,459608.7999999998,459608.6000000001,452150.999,452255.7999999998,452152.698,459505.595,8,400,,,
trial,html.Screen,4_62_0,2023-09-02T01:05:55.815Z,,0,2,,6016.005000000121,response,ISIC_0553565.JPG,5,ISIC_0030981.JPG,ISIC_0553565.JPG,false,1,keypress(m),500,465521.7999999998,465521.6000000001,459501.351,459608.7999999998,459505.595,465420.183,8,400,13,,ISIC_0030981.JPG
break,html.Screen,4_62_1,2023-09-02T01:05:55.816Z,,0,,,NaN,,,,,,false,,,,465522.6999999997,465522.6000000001,,465522,,465420.183,8,400,,,
break_continue,html.Screen,4_62_2,2023-09-02T01:05:55.817Z,,0,,,NaN,,,,,,false,,,,465523.1999999997,465523.1000000001,,465522.8999999999,,465420.183,8,400,,,
sequence,flow.Sequence,4_62,2023-09-02T01:05:55.818Z,,0,,,6017.505000000121,completion,,,,,false,,,,465524.3999999999,465523.1000000001,459501.351,459608.7999999998,459505.595,465420.183,8,400,,,
trial,html.Screen,4_63_0,2023-09-02T01:05:59.102Z,,0,2,,3388.0169999997015,response,ISIC_2332127.JPG,5,ISIC_0029363.JPG,ISIC_2332127.JPG,false,1,keypress(m),500,468808.3999999999,468808.1999999997,465418.692,465524.6000000001,465420.183,468723.601,8,400,14,,ISIC_0029363.JPG
break,html.Screen,4_63_1,2023-09-02T01:05:59.103Z,,0,,,NaN,,,,,,false,,,,468809.5,468809.1999999997,,468808.6999999997,,468723.601,8,400,,,
break_continue,html.Screen,4_63_2,2023-09-02T01:05:59.103Z,,0,,,NaN,,,,,,false,,,,468809.8999999999,468809.7999999998,,468809.5,,468723.601,8,400,,,
sequence,flow.Sequence,4_63,2023-09-02T01:05:59.104Z,,0,,,3389.6169999997946,completion,,,,,false,,,,468810.1000000001,468809.7999999998,465418.692,465524.5,465420.183,468723.601,8,400,,,
trial,html.Screen,4_64_0,2023-09-02T01:06:07.986Z,,0,2,,8968.098999999696,response,ISIC_0016161.JPG,6,ISIC_0047022.JPG,ISIC_0016161.JPG,false,1,keypress(m),500,477692,477691.6999999997,468693.593,468810.1000000001,468723.601,477590.299,8,400,15,,ISIC_0047022.JPG
break,html.Screen,4_64_1,2023-09-02T01:06:07.987Z,,0,,,NaN,,,,,,false,,,,477692.8999999999,477692.6999999997,,477692.1000000001,,477590.299,8,400,,,
break_continue,html.Screen,4_64_2,2023-09-02T01:06:07.987Z,,0,,,NaN,,,,,,false,,,,477693.3999999999,477693.1999999997,,477693,,477590.299,8,400,,,
sequence,flow.Sequence,4_64,2023-09-02T01:06:07.987Z,,0,,,8969.598999999696,completion,,,,,false,,,,477693.5,477693.1999999997,468693.593,468810.1000000001,468723.601,477590.299,8,400,,,
trial,html.Screen,4_65_0,2023-09-02T01:06:11.766Z,,0,2,,3881.5009999998147,response,ISIC_3277722.JPG,4,ISIC_0057881.JPG,ISIC_0057881.JPG,false,0,keypress(z),500,481472,481471.7999999998,477581.617,477693.6999999997,477590.299,481384.33,8,400,16,,ISIC_3277722.JPG
break,html.Screen,4_65_1,2023-09-02T01:06:11.767Z,,0,,,NaN,,,,,,false,,,,481473,481472.7999999998,,481472.2999999998,,481384.33,8,400,,,
break_continue,html.Screen,4_65_2,2023-09-02T01:06:11.767Z,,0,,,NaN,,,,,,false,,,,481473.3999999999,481473.2999999998,,481473.1999999997,,481384.33,8,400,,,
sequence,flow.Sequence,4_65,2023-09-02T01:06:11.767Z,,0,,,3883.0009999998147,completion,,,,,false,,,,481473.6000000001,481473.2999999998,477581.617,477693.6000000001,477590.299,481384.33,8,400,,,
trial,html.Screen,4_66_0,2023-09-02T01:06:14.986Z,,0,2,,3307.3699999997043,response,ISIC_0952221.JPG,5,ISIC_0062530.JPG,ISIC_0952221.JPG,false,1,keypress(m),500,484691.8999999999,484691.6999999997,481368.147,481473.7999999998,481384.33,484590.328,8,400,17,,ISIC_0062530.JPG
break,html.Screen,4_66_1,2023-09-02T01:06:14.986Z,,0,,,NaN,,,,,,false,,,,484692.8999999999,484692.6000000001,,484692.1999999997,,484590.328,8,400,,,
break_continue,html.Screen,4_66_2,2023-09-02T01:06:14.987Z,,0,,,NaN,,,,,,false,,,,484693.2999999998,484693.1999999997,,484693,,484590.328,8,400,,,
sequence,flow.Sequence,4_66,2023-09-02T01:06:14.987Z,,0,,,3308.8699999997043,completion,,,,,false,,,,484693.5,484693.1999999997,481368.147,481473.6999999997,481384.33,484590.328,8,400,,,
trial,html.Screen,4_67_0,2023-09-02T01:06:19.824Z,,0,2,,4939.571999999927,response,ISIC_0013972.JPG,5,ISIC_7835257.JPG,ISIC_0013972.JPG,false,1,keypress(m),500,489530.1999999997,489529.8999999999,484575.532,484693.6000000001,484590.328,489428.557,8,400,18,,ISIC_7835257.JPG
break,html.Screen,4_67_1,2023-09-02T01:06:19.825Z,,0,,,NaN,,,,,,false,,,,489531.1999999997,489530.8999999999,,489530.3999999999,,489428.557,8,400,,,
break_continue,html.Screen,4_67_2,2023-09-02T01:06:19.825Z,,0,,,NaN,,,,,,false,,,,489531.5,489531.5,,489531.2999999998,,489428.557,8,400,,,
sequence,flow.Sequence,4_67,2023-09-02T01:06:19.825Z,,0,,,4941.1720000000205,completion,,,,,false,,,,489531.6999999997,489531.5,484575.532,484693.6000000001,484590.328,489428.557,8,400,,,
trial,html.Screen,4_68_0,2023-09-02T01:06:22.968Z,,0,2,,3246.0430000001215,response,ISIC_0072136.JPG,6,ISIC_0068299.JPG,ISIC_0068299.JPG,false,0,keypress(z),500,492674.6999999997,492674.6000000001,489426.87,489531.8999999999,489428.557,492586.475,8,400,19,,ISIC_0072136.JPG
break,html.Screen,4_68_1,2023-09-02T01:06:22.969Z,,0,,,NaN,,,,,,false,,,,492675.2999999998,492675.1999999997,,492674.8999999999,,492586.475,8,400,,,
break_continue,html.Screen,4_68_2,2023-09-02T01:06:22.969Z,,0,,,NaN,,,,,,false,,,,492675.5,492675.5,,492675.3999999999,,492586.475,8,400,,,
sequence,flow.Sequence,4_68,2023-09-02T01:06:22.969Z,,0,,,3246.9430000000284,completion,,,,,false,,,,492675.6000000001,492675.5,489426.87,489531.7999999998,489428.557,492586.475,8,400,,,
trial,html.Screen,4_69_0,2023-09-02T01:06:26.076Z,,0,2,,3195.6250000001164,response,ISIC_3225754.JPG,5,ISIC_0033300.JPG,ISIC_0033300.JPG,false,0,keypress(z),500,495782.2999999998,495782.1000000001,492555.166,492675.6999999997,492586.475,495685.541,8,400,20,,ISIC_3225754.JPG
break,html.Screen,4_69_1,2023-09-02T01:06:26.077Z,,0,,,NaN,,,,,,false,,,,495783.2999999998,495783,,495782.5,,495685.541,8,400,,,
break_continue,html.Screen,4_69_2,2023-09-02T01:06:26.077Z,,0,,,NaN,,,,,,false,,,,495783.6000000001,495783.6000000001,,495783.3999999999,,495685.541,8,400,,,
sequence,flow.Sequence,4_69,2023-09-02T01:06:26.077Z,,0,,,3197.1250000001164,completion,,,,,false,,,,495783.7999999998,495783.6000000001,492555.166,492675.6000000001,492586.475,495685.541,8,400,,,
trial,html.Screen,4_70_0,2023-09-02T01:06:29.520Z,,0,2,,3540.758999999787,response,ISIC_0001103.JPG,6,ISIC_0064877.JPG,ISIC_0064877.JPG,false,0,keypress(z),500,499226.6000000001,499226.2999999998,495677.41,495783.8999999999,495685.541,499125.062,8,400,21,,ISIC_0001103.JPG
break,html.Screen,4_70_1,2023-09-02T01:06:29.521Z,,0,,,NaN,,,,,,false,,,,499227.5,499227.2999999998,,499226.7999999998,,499125.062,8,400,,,
break_continue,html.Screen,4_70_2,2023-09-02T01:06:29.521Z,,0,,,NaN,,,,,,false,,,,499227.8999999999,499227.6999999997,,499227.5,,499125.062,8,400,,,
sequence,flow.Sequence,4_70,2023-09-02T01:06:29.522Z,,0,,,3542.158999999694,completion,,,,,false,,,,499228,499227.6999999997,495677.41,495783.8999999999,495685.541,499125.062,8,400,,,
trial,html.Screen,4_71_0,2023-09-02T01:06:33.411Z,,0,2,,3992.1379999997444,response,ISIC_4631711.JPG,5,ISIC_2506200.JPG,ISIC_4631711.JPG,false,1,keypress(m),500,503117.5,503117.1999999997,499113.482,499228.1999999997,499125.062,503032.769,8,400,22,,ISIC_2506200.JPG
break,html.Screen,4_71_1,2023-09-02T01:06:33.412Z,,0,,,NaN,,,,,,false,,,,503118.5,503118.2999999998,,503117.7999999998,,503032.769,8,400,,,
break_continue,html.Screen,4_71_2,2023-09-02T01:06:33.413Z,,0,,,NaN,,,,,,false,,,,503119,503118.8999999999,,503118.6999999997,,503032.769,8,400,,,
sequence,flow.Sequence,4_71,2023-09-02T01:06:33.413Z,,0,,,3993.8379999999306,completion,,,,,false,,,,503119.1999999997,503118.8999999999,499113.482,499228,499125.062,503032.769,8,400,,,
trial,html.Screen,4_72_0,2023-09-02T01:06:36.951Z,,0,2,,3624.231000000029,response,ISIC_0034260.JPG,5,ISIC_1175170.JPG,ISIC_1175170.JPG,false,0,keypress(z),500,506657.1999999997,506657,503010.872,503119.3999999999,503032.769,506555.529,8,400,23,,ISIC_0034260.JPG
break,html.Screen,4_72_1,2023-09-02T01:06:36.952Z,,0,,,NaN,,,,,,false,,,,506658.2999999998,506658,,506657.6000000001,,506555.529,8,400,,,
break_continue,html.Screen,4_72_2,2023-09-02T01:06:36.952Z,,0,,,NaN,,,,,,false,,,,506658.6999999997,506658.6000000001,,506658.3999999999,,506555.529,8,400,,,
sequence,flow.Sequence,4_72,2023-09-02T01:06:36.952Z,,0,,,3625.831000000122,completion,,,,,false,,,,506658.7999999998,506658.6000000001,503010.872,503119.3999999999,503032.769,506555.529,8,400,,,
trial,html.Screen,4_73_0,2023-09-02T01:06:42.026Z,,0,2,,5176.770999999833,response,ISIC_0016103.JPG,6,ISIC_4024062.JPG,ISIC_4024062.JPG,false,0,keypress(z),500,511732.6000000001,511732.2999999998,506552.092,506659,506555.529,511630.956,8,400,24,,ISIC_0016103.JPG
break,html.Screen,4_73_1,2023-09-02T01:06:42.027Z,,0,,,NaN,,,,,,false,,,,511733.5,511733.2999999998,,511732.7999999998,,511630.956,8,400,,,
break_continue,html.Screen,4_73_2,2023-09-02T01:06:42.028Z,,0,,,NaN,,,,,,false,,,,511733.8999999999,511733.7999999998,,511733.6999999997,,511630.956,8,400,,,
sequence,flow.Sequence,4_73,2023-09-02T01:06:42.028Z,,0,,,5178.270999999833,completion,,,,,false,,,,511734.1000000001,511733.7999999998,506552.092,506658.8999999999,506555.529,511630.956,8,400,,,
trial,html.Screen,4_74_0,2023-09-02T01:06:44.781Z,,0,2,,2856.5439999999944,response,ISIC_0054673.JPG,6,ISIC_4348579.JPG,ISIC_4348579.JPG,false,0,keypress(z),500,514487.6999999997,514487.5,511621.219,511734.1999999997,511630.956,514386.238,8,400,25,,ISIC_0054673.JPG
break,html.Screen,4_74_1,2023-09-02T01:06:44.782Z,,0,,,NaN,,,,,,false,,,,514488.6000000001,514488.5,,514488,,514386.238,8,400,,,
break_continue,html.Screen,4_74_2,2023-09-02T01:06:44.783Z,,0,,,NaN,,,,,,false,,,,514489,514489,,514488.6999999997,,514386.238,8,400,,,
sequence,flow.Sequence,4_74,2023-09-02T01:06:44.783Z,,0,,,2858.0439999999944,completion,,,,,false,,,,514489.1999999997,514489,511621.219,511734.1999999997,511630.956,514386.238,8,400,,,
trial,html.Screen,4_75_0,2023-09-02T01:06:52.577Z,,0,2,,7896.862000000081,response,ISIC_7172145.JPG,5,ISIC_5198780.JPG,ISIC_7172145.JPG,false,1,keypress(m),500,522283.1999999997,522283.1000000001,514378.825,514489.3999999999,514386.238,522181.349,8,400,26,,ISIC_5198780.JPG
break,html.Screen,4_75_1,2023-09-02T01:06:52.577Z,,0,,,NaN,,,,,,false,,,,522283.6000000001,522283.6000000001,,522283.2999999998,,522181.349,8,400,,,
break_continue,html.Screen,4_75_2,2023-09-02T01:06:52.577Z,,0,,,NaN,,,,,,false,,,,522283.6999999997,522283.6999999997,,522283.6999999997,,522181.349,8,400,,,
sequence,flow.Sequence,4_75,2023-09-02T01:06:52.577Z,,0,,,7897.4619999997085,completion,,,,,false,,,,522283.8999999999,522283.6999999997,514378.825,514489.2999999998,514386.238,522181.349,8,400,,,
trial,html.Screen,4_76_0,2023-09-02T01:06:59.299Z,,0,2,,6823.950999999826,response,ISIC_0010241.JPG,4,ISIC_5110505.JPG,ISIC_5110505.JPG,false,0,keypress(z),500,529005.6000000001,529005.2999999998,522164.523,522283.8999999999,522181.349,528903.89,8,400,27,,ISIC_0010241.JPG
break,html.Screen,4_76_1,2023-09-02T01:06:59.300Z,,0,,,NaN,,,,,,false,,,,529006.5,529006.2999999998,,529005.8999999999,,528903.89,8,400,,,
break_continue,html.Screen,4_76_2,2023-09-02T01:06:59.301Z,,0,,,NaN,,,,,,false,,,,529006.8999999999,529006.8999999999,,529006.6999999997,,528903.89,8,400,,,
sequence,flow.Sequence,4_76,2023-09-02T01:06:59.301Z,,0,,,6825.550999999919,completion,,,,,false,,,,529007.1000000001,529006.8999999999,522164.523,522283.8999999999,522181.349,528903.89,8,400,,,
trial,html.Screen,4_77_0,2023-09-02T01:07:04.986Z,,0,2,,5787.9099999998,response,ISIC_1568268.JPG,6,ISIC_2341100.JPG,ISIC_2341100.JPG,false,0,keypress(z),500,534692,534691.7999999998,528886.312,529007.2999999998,528903.89,534593.996,8,400,28,,ISIC_1568268.JPG
break,html.Screen,4_77_1,2023-09-02T01:07:04.987Z,,0,,,NaN,,,,,,false,,,,534693.1999999997,534692.8999999999,,534692.3999999999,,534593.996,8,400,,,
break_continue,html.Screen,4_77_2,2023-09-02T01:07:04.987Z,,0,,,NaN,,,,,,false,,,,534693.6999999997,534693.6000000001,,534693.3999999999,,534593.996,8,400,,,
sequence,flow.Sequence,4_77,2023-09-02T01:07:04.987Z,,0,,,5789.710000000079,completion,,,,,false,,,,534693.8999999999,534693.6000000001,528886.312,529007.1999999997,528903.89,534593.996,8,400,,,
trial,html.Screen,4_78_0,2023-09-02T01:07:09.045Z,,0,2,,4157.203999999678,response,ISIC_0063745.JPG,5,ISIC_6557642.JPG,ISIC_0063745.JPG,false,1,keypress(m),500,538751.5,538751.1999999997,534588.601,534694,534593.996,538651.386,8,400,29,,ISIC_6557642.JPG
break,html.Screen,4_78_1,2023-09-02T01:07:09.046Z,,0,,,NaN,,,,,,false,,,,538752.1999999997,538752.1000000001,,538751.6000000001,,538651.386,8,400,,,
break_continue,html.Screen,4_78_2,2023-09-02T01:07:09.046Z,,0,,,NaN,,,,,,false,,,,538752.6000000001,538752.5,,538752.2999999998,,538651.386,8,400,,,
sequence,flow.Sequence,4_78,2023-09-02T01:07:09.046Z,,0,,,4158.503999999957,completion,,,,,false,,,,538752.6999999997,538752.5,534588.601,534694,534593.996,538651.386,8,400,,,
trial,html.Screen,4_79_0,2023-09-02T01:07:14.808Z,,0,2,,5862.413999999757,response,ISIC_9409255.JPG,5,ISIC_0030072.JPG,ISIC_9409255.JPG,false,1,keypress(m),500,544514.1000000001,544513.7999999998,538634.765,538752.7999999998,538651.386,544417.287,8,400,30,,ISIC_0030072.JPG
break,html.Screen,4_79_1,2023-09-02T01:07:14.809Z,,0,,,NaN,,,,,,false,,,,544515,544514.7999999998,,544514.2999999998,,544417.287,8,400,,,
break_continue,html.Screen,4_79_2,2023-09-02T01:07:14.809Z,,0,,,NaN,,,,,,false,,,,544515.3999999999,544515.3999999999,,544515.1000000001,,544417.287,8,400,,,
sequence,flow.Sequence,4_79,2023-09-02T01:07:14.809Z,,0,,,5864.01399999985,completion,,,,,false,,,,544515.6999999997,544515.3999999999,538634.765,538752.7999999998,538651.386,544417.287,8,400,,,
trial,html.Screen,4_80_0,2023-09-02T01:07:20.556Z,,0,2,,5844.712999999989,response,ISIC_0016033.JPG,5,ISIC_0025155.JPG,ISIC_0016033.JPG,false,1,keypress(m),500,550262.1999999997,550262,544400.66,544515.7999999998,544417.287,550160.683,8,400,31,,ISIC_0025155.JPG
break,html.Screen,4_80_1,2023-09-02T01:07:20.557Z,,0,,,NaN,,,,,,false,,,,550263.1999999997,550262.8999999999,,550262.3999999999,,550160.683,8,400,,,
break_continue,html.Screen,4_80_2,2023-09-02T01:07:20.557Z,,0,,,NaN,,,,,,false,,,,550263.6000000001,550263.5,,550263.3999999999,,550160.683,8,400,,,
sequence,flow.Sequence,4_80,2023-09-02T01:07:20.557Z,,0,,,5846.212999999989,completion,,,,,false,,,,550263.7999999998,550263.5,544400.66,544515.6999999997,544417.287,550160.683,8,400,,,
trial,html.Screen,4_81_0,2023-09-02T01:07:23.475Z,,0,2,,3020.317000000039,response,ISIC_0010895.JPG,5,ISIC_0071957.JPG,ISIC_0071957.JPG,false,0,keypress(z),500,553181.2999999998,553181,550150.694,550263.8999999999,550160.683,553079.73,8,400,32,,ISIC_0010895.JPG
break,html.Screen,4_81_1,2023-09-02T01:07:23.476Z,,0,,,NaN,,,,,,false,,,,553182.2999999998,553182,,553181.5,,553079.73,8,400,,,
break_continue,html.Screen,4_81_2,2023-09-02T01:07:23.476Z,,0,,,NaN,,,,,,false,,,,553182.7999999998,553182.6000000001,,553182.5,,553079.73,8,400,,,
sequence,flow.Sequence,4_81,2023-09-02T01:07:23.476Z,,0,,,3021.9170000001322,completion,,,,,false,,,,553182.8999999999,553182.6000000001,550150.694,550263.8999999999,550160.683,553079.73,8,400,,,
trial,html.Screen,4_82_0,2023-09-02T01:07:26.647Z,,0,2,,3273.8700000001118,response,ISIC_5116614.JPG,5,ISIC_8851038.JPG,ISIC_5116614.JPG,false,1,keypress(m),500,556353.8999999999,556353.6000000001,553077.999,553183,553079.73,556252.284,8,400,33,,ISIC_8851038.JPG
break,html.Screen,4_82_1,2023-09-02T01:07:26.648Z,,0,,,NaN,,,,,,false,,,,556354.7999999998,556354.5,,556354.1000000001,,556252.284,8,400,,,
break_continue,html.Screen,4_82_2,2023-09-02T01:07:26.649Z,,0,,,NaN,,,,,,false,,,,556355.1999999997,556355.1000000001,,556355,,556252.284,8,400,,,
sequence,flow.Sequence,4_82,2023-09-02T01:07:26.649Z,,0,,,3275.3700000001118,completion,,,,,false,,,,556355.2999999998,556355.1000000001,553077.999,553183,553079.73,556252.284,8,400,,,
trial,html.Screen,4_83_0,2023-09-02T01:07:29.324Z,,0,2,,2777.6159999999218,response,ISIC_0013472.JPG,5,ISIC_0009975.JPG,ISIC_0013472.JPG,false,1,keypress(m),500,559030.1000000001,559029.8999999999,556250.291,556355.5,556252.284,558939.856,8,400,34,,ISIC_0009975.JPG
break,html.Screen,4_83_1,2023-09-02T01:07:29.324Z,,0,,,NaN,,,,,,false,,,,559030.7999999998,559030.6000000001,,559030.1999999997,,558939.856,8,400,,,
break_continue,html.Screen,4_83_2,2023-09-02T01:07:29.325Z,,0,,,NaN,,,,,,false,,,,559031,559030.8999999999,,559030.8999999999,,558939.856,8,400,,,
sequence,flow.Sequence,4_83,2023-09-02T01:07:29.325Z,,0,,,2778.6159999999218,completion,,,,,false,,,,559031.1000000001,559030.8999999999,556250.291,556355.3999999999,556252.284,558939.856,8,400,,,
trial,html.Screen,4_84_0,2023-09-02T01:07:32.005Z,,0,2,,2770.943999999785,response,ISIC_0030194.JPG,5,ISIC_1739667.JPG,ISIC_1739667.JPG,false,0,keypress(z),500,561711,561710.7999999998,558925.245,559031.2999999998,558939.856,561610.626,8,400,35,,ISIC_0030194.JPG
break,html.Screen,4_84_1,2023-09-02T01:07:32.006Z,,0,,,NaN,,,,,,false,,,,561712.3999999999,561712.2999999998,,561711.1999999997,,561610.626,8,400,,,
break_continue,html.Screen,4_84_2,2023-09-02T01:07:32.007Z,,0,,,NaN,,,,,,false,,,,561713.3999999999,561712.6000000001,,561712.5,,561610.626,8,400,,,
sequence,flow.Sequence,4_84,2023-09-02T01:07:32.007Z,,0,,,2772.7440000000643,completion,,,,,false,,,,561713.5,561712.6000000001,558925.245,559031.1999999997,558939.856,561610.626,8,400,,,
trial,html.Screen,4_85_0,2023-09-02T01:07:35.183Z,,0,2,,3278.4740000000456,response,ISIC_7292983.JPG,5,ISIC_0014788.JPG,ISIC_0014788.JPG,false,0,keypress(z),500,564889.3999999999,564889.1000000001,561606.766,561713.6000000001,561610.626,564787.668,8,400,36,,ISIC_7292983.JPG
break,html.Screen,4_85_1,2023-09-02T01:07:35.184Z,,0,,,NaN,,,,,,false,,,,564890.2999999998,564890,,564889.6000000001,,564787.668,8,400,,,
break_continue,html.Screen,4_85_2,2023-09-02T01:07:35.184Z,,0,,,NaN,,,,,,false,,,,564890.6999999997,564890.6000000001,,564890.5,,564787.668,8,400,,,
sequence,flow.Sequence,4_85,2023-09-02T01:07:35.184Z,,0,,,3279.9740000000456,completion,,,,,false,,,,564890.8999999999,564890.6000000001,561606.766,561713.5,561610.626,564787.668,8,400,,,
trial,html.Screen,4_86_0,2023-09-02T01:07:38.050Z,,0,2,,2968.332000000053,response,ISIC_7203184.JPG,5,ISIC_9445196.JPG,ISIC_9445196.JPG,false,0,keypress(z),500,567756.1999999997,567756,564769.908,564891,564787.668,567654.458,8,400,37,,ISIC_7203184.JPG
break,html.Screen,4_86_1,2023-09-02T01:07:38.051Z,,0,,,NaN,,,,,,false,,,,567757,567756.7999999998,,567756.3999999999,,567654.458,8,400,,,
break_continue,html.Screen,4_86_2,2023-09-02T01:07:38.051Z,,0,,,NaN,,,,,,false,,,,567757.3999999999,567757.1999999997,,567757.1000000001,,567654.458,8,400,,,
sequence,flow.Sequence,4_86,2023-09-02T01:07:38.051Z,,0,,,2969.5319999997737,completion,,,,,false,,,,567757.5,567757.1999999997,564769.908,564891,564787.668,567654.458,8,400,,,
trial,html.Screen,4_87_0,2023-09-02T01:07:40.822Z,,0,2,,2874.042000000016,response,ISIC_0004961.JPG,5,ISIC_0067808.JPG,ISIC_0004961.JPG,false,1,keypress(m),500,570528.7999999998,570528.5,567649.227,567757.6000000001,567654.458,570427.576,8,400,38,,ISIC_0067808.JPG
break,html.Screen,4_87_1,2023-09-02T01:07:40.823Z,,0,,,NaN,,,,,,false,,,,570529.8999999999,570529.6999999997,,570529.1000000001,,570427.576,8,400,,,
break_continue,html.Screen,4_87_2,2023-09-02T01:07:40.824Z,,0,,,NaN,,,,,,false,,,,570530.5,570530.2999999998,,570530,,570427.576,8,400,,,
sequence,flow.Sequence,4_87,2023-09-02T01:07:40.824Z,,0,,,2875.8419999998296,completion,,,,,false,,,,570530.6000000001,570530.2999999998,567649.227,567757.6000000001,567654.458,570427.576,8,400,,,
trial,html.Screen,4_88_0,2023-09-02T01:07:43.564Z,,0,2,,2842.923999999999,response,ISIC_4834687.JPG,4,ISIC_0027238.JPG,ISIC_4834687.JPG,false,1,keypress(m),500,573270.6999999997,573270.5,570425.535,570530.6999999997,570427.576,573185.774,8,400,39,,ISIC_0027238.JPG
break,html.Screen,4_88_1,2023-09-02T01:07:43.565Z,,0,,,NaN,,,,,,false,,,,573271.6000000001,573271.3999999999,,573271,,573185.774,8,400,,,
break_continue,html.Screen,4_88_2,2023-09-02T01:07:43.566Z,,0,,,NaN,,,,,,false,,,,573272,573271.8999999999,,573271.7999999998,,573185.774,8,400,,,
sequence,flow.Sequence,4_88,2023-09-02T01:07:43.566Z,,0,,,2844.323999999906,completion,,,,,false,,,,573272.1000000001,573271.8999999999,570425.535,570530.6999999997,570427.576,573185.774,8,400,,,
trial,html.Screen,4_89_0,2023-09-02T01:07:46.565Z,,0,2,,3085.226000000024,response,ISIC_9351418.JPG,5,ISIC_1752943.JPG,ISIC_9351418.JPG,false,1,keypress(m),500,576271.2999999998,576271,573167.573,573272.1999999997,573185.774,576169.63,8,400,40,,ISIC_1752943.JPG
break,html.Screen,4_89_1,2023-09-02T01:07:46.566Z,,0,,,NaN,,,,,,false,,,,576272.5,576272.1999999997,,576271.6000000001,,576169.63,8,400,,,
break_continue,html.Screen,4_89_2,2023-09-02T01:07:46.566Z,,0,,,NaN,,,,,,false,,,,576272.8999999999,576272.7999999998,,576272.6000000001,,576169.63,8,400,,,
sequence,flow.Sequence,4_89,2023-09-02T01:07:46.567Z,,0,,,3087.025999999838,completion,,,,,false,,,,576273,576272.7999999998,573167.573,573272.1999999997,573185.774,576169.63,8,400,,,
trial,html.Screen,4_90_0,2023-09-02T01:07:54.683Z,,0,2,,8219.970000000088,response,ISIC_0062712.JPG,5,ISIC_0033562.JPG,ISIC_0033562.JPG,false,0,keypress(z),500,584389.8999999999,584389.6000000001,576168.184,576273.1999999997,576169.63,584288.487,8,400,41,,ISIC_0062712.JPG
break,html.Screen,4_90_1,2023-09-02T01:07:54.684Z,,0,,,NaN,,,,,,false,,,,584390.8999999999,584390.6999999997,,584390.1999999997,,584288.487,8,400,,,
break_continue,html.Screen,4_90_2,2023-09-02T01:07:54.685Z,,0,,,NaN,,,,,,false,,,,584391.2999999998,584391.1999999997,,584391,,584288.487,8,400,,,
sequence,flow.Sequence,4_90,2023-09-02T01:07:54.685Z,,0,,,8221.569999999716,completion,,,,,false,,,,584391.3999999999,584391.1999999997,576168.184,576273.1000000001,576169.63,584288.487,8,400,,,
trial,html.Screen,4_91_0,2023-09-02T01:08:00.991Z,,0,2,,6408.812999999849,response,ISIC_0029905.JPG,4,ISIC_0029453.JPG,ISIC_0029905.JPG,false,1,keypress(m),500,590697.5,590697.2999999998,584285.81,584391.5,584288.487,590603.863,8,400,42,,ISIC_0029453.JPG
break,html.Screen,4_91_1,2023-09-02T01:08:00.992Z,,0,,,NaN,,,,,,false,,,,590698,590697.8999999999,,590697.6000000001,,590603.863,8,400,,,
break_continue,html.Screen,4_91_2,2023-09-02T01:08:00.992Z,,0,,,NaN,,,,,,false,,,,590698.1000000001,590698.1000000001,,590698,,590603.863,8,400,,,
sequence,flow.Sequence,4_91,2023-09-02T01:08:00.992Z,,0,,,6409.6130000001285,completion,,,,,false,,,,590698.1999999997,590698.1000000001,584285.81,584391.5,584288.487,590603.863,8,400,,,
trial,html.Screen,4_92_0,2023-09-02T01:08:04.961Z,,0,2,,4063.636999999988,response,ISIC_4723378.JPG,6,ISIC_0071783.JPG,ISIC_4723378.JPG,false,1,keypress(m),500,594667.6999999997,594667.5,590592.281,590698.2999999998,590603.863,594566.065,8,400,43,,ISIC_0071783.JPG
break,html.Screen,4_92_1,2023-09-02T01:08:04.962Z,,0,,,NaN,,,,,,false,,,,594668.6000000001,594668.5,,594668,,594566.065,8,400,,,
break_continue,html.Screen,4_92_2,2023-09-02T01:08:04.963Z,,0,,,NaN,,,,,,false,,,,594669.1000000001,594668.8999999999,,594668.7999999998,,594566.065,8,400,,,
sequence,flow.Sequence,4_92,2023-09-02T01:08:04.963Z,,0,,,4065.0369999998948,completion,,,,,false,,,,594669.2999999998,594668.8999999999,590592.281,590698.1999999997,590603.863,594566.065,8,400,,,
trial,html.Screen,4_93_0,2023-09-02T01:08:07.577Z,,0,2,,2717.1349999997765,response,ISIC_0062525.JPG,4,ISIC_5569091.JPG,ISIC_5569091.JPG,false,0,keypress(z),500,597283.3999999999,597283.1999999997,594554.915,594669.2999999998,594566.065,597181.195,8,400,44,,ISIC_0062525.JPG
break,html.Screen,4_93_1,2023-09-02T01:08:07.577Z,,0,,,NaN,,,,,,false,,,,597283.6999999997,597283.6000000001,,597283.3999999999,,597181.195,8,400,,,
break_continue,html.Screen,4_93_2,2023-09-02T01:08:07.577Z,,0,,,NaN,,,,,,false,,,,597283.8999999999,597283.7999999998,,597283.7999999998,,597181.195,8,400,,,
sequence,flow.Sequence,4_93,2023-09-02T01:08:07.578Z,,0,,,2717.7349999998696,completion,,,,,false,,,,597284,597283.7999999998,594554.915,594669.2999999998,594566.065,597181.195,8,400,,,
trial,html.Screen,4_94_0,2023-09-02T01:08:10.939Z,,0,2,,3463.9050000001444,response,ISIC_6766153.JPG,5,ISIC_0031477.JPG,ISIC_0031477.JPG,false,0,keypress(z),500,600645.1999999997,600645.1000000001,597169.935,597284,597181.195,600568.105,8,400,45,,ISIC_6766153.JPG
break,html.Screen,4_94_1,2023-09-02T01:08:10.940Z,,0,,,NaN,,,,,,false,,,,600646.2999999998,600646.1000000001,,600645.8999999999,,600568.105,8,400,,,
break_continue,html.Screen,4_94_2,2023-09-02T01:08:10.940Z,,0,,,NaN,,,,,,false,,,,600646.3999999999,600646.3999999999,,600646.2999999998,,600568.105,8,400,,,
sequence,flow.Sequence,4_94,2023-09-02T01:08:10.940Z,,0,,,3465.204999999958,completion,,,,,false,,,,600646.3999999999,600646.3999999999,597169.935,597284,597181.195,600568.105,8,400,,,
trial,html.Screen,4_95_0,2023-09-02T01:08:13.630Z,,0,2,,2768.2949999999255,response,ISIC_0033636.JPG,6,ISIC_7738955.JPG,ISIC_7738955.JPG,false,0,keypress(z),500,603336.6999999997,603336.3999999999,600551.457,600646.5,600568.105,603235.18,8,400,46,,ISIC_0033636.JPG
break,html.Screen,4_95_1,2023-09-02T01:08:13.631Z,,0,,,NaN,,,,,,false,,,,603337.6000000001,603337.3999999999,,603336.8999999999,,603235.18,8,400,,,
break_continue,html.Screen,4_95_2,2023-09-02T01:08:13.631Z,,0,,,NaN,,,,,,false,,,,603338,603337.7999999998,,603337.6999999997,,603235.18,8,400,,,
sequence,flow.Sequence,4_95,2023-09-02T01:08:13.632Z,,0,,,2769.6949999998324,completion,,,,,false,,,,603338.1000000001,603337.7999999998,600551.457,600646.5,600568.105,603235.18,8,400,,,
trial,html.Screen,4_96_0,2023-09-02T01:08:17.065Z,,0,2,,3536.0199999996694,response,ISIC_0057988.JPG,5,ISIC_7623407.JPG,ISIC_0057988.JPG,false,1,keypress(m),500,606771.3999999999,606771.1999999997,603231.43,603338.2999999998,603235.18,606669.822,8,400,47,,ISIC_7623407.JPG
break,html.Screen,4_96_1,2023-09-02T01:08:17.066Z,,0,,,NaN,,,,,,false,,,,606772.2999999998,606772.1999999997,,606771.6999999997,,606669.822,8,400,,,
break_continue,html.Screen,4_96_2,2023-09-02T01:08:17.066Z,,0,,,NaN,,,,,,false,,,,606772.8999999999,606772.7999999998,,606772.5,,606669.822,8,400,,,
sequence,flow.Sequence,4_96,2023-09-02T01:08:17.067Z,,0,,,3537.6199999997625,completion,,,,,false,,,,606773.1000000001,606772.7999999998,603231.43,603338.1999999997,603235.18,606669.822,8,400,,,
trial,html.Screen,4_97_0,2023-09-02T01:08:19.725Z,,0,2,,2760.97799999977,response,ISIC_0060341.JPG,6,ISIC_0027964.JPG,ISIC_0060341.JPG,false,1,keypress(m),500,609431.1000000001,609430.7999999998,606667.833,606773.1000000001,606669.822,609329.504,8,400,48,,ISIC_0027964.JPG
break,html.Screen,4_97_1,2023-09-02T01:08:19.726Z,,0,,,NaN,,,,,,false,,,,609432.1000000001,609431.8999999999,,609431.3999999999,,609329.504,8,400,,,
break_continue,html.Screen,4_97_2,2023-09-02T01:08:19.727Z,,0,,,NaN,,,,,,false,,,,609433.2999999998,609433.1000000001,,609432.8999999999,,609329.504,8,400,,,
sequence,flow.Sequence,4_97,2023-09-02T01:08:19.727Z,,0,,,2763.2780000000494,completion,,,,,false,,,,609433.3999999999,609433.1000000001,606667.833,606773.1000000001,606669.822,609329.504,8,400,,,
trial,html.Screen,4_98_0,2023-09-02T01:08:22.449Z,,0,2,,2826.1959999997634,response,ISIC_2687641.JPG,4,ISIC_0000146.JPG,ISIC_2687641.JPG,false,1,keypress(m),500,612155.8999999999,612155.6999999997,609325.873,609433.5,609329.504,612056.523,8,400,49,,ISIC_0000146.JPG
break,html.Screen,4_98_1,2023-09-02T01:08:22.450Z,,0,,,NaN,,,,,,false,,,,612156.8999999999,612156.6999999997,,612156.1999999997,,612056.523,8,400,,,
break_continue,html.Screen,4_98_2,2023-09-02T01:08:22.451Z,,0,,,NaN,,,,,,false,,,,612157.2999999998,612157.1999999997,,612157,,612056.523,8,400,,,
sequence,flow.Sequence,4_98,2023-09-02T01:08:22.451Z,,0,,,2827.6959999997634,completion,,,,,false,,,,612157.3999999999,612157.1999999997,609325.873,609433.5,609329.504,612056.523,8,400,,,
trial,html.Screen,4_99_0,2023-09-02T01:08:28.935Z,,0,2,,6584.976999999955,response,ISIC_7764987.JPG,5,ISIC_0028405.JPG,ISIC_7764987.JPG,false,1,keypress(m),500,618641.6999999997,618641.5,612048.333,612157.6000000001,612056.523,618542.441,8,400,50,,ISIC_0028405.JPG
break,html.Screen,4_99_1,2023-09-02T01:08:38.916Z,,0,,,9992.342000000062,timeout,,,,,false,,,,628622.7999999998,628518.008,618538.075,618641.6999999997,618542.441,628534.783,8,400,,,
break_continue,html.Screen,4_99_2,2023-09-02T01:09:04.637Z,,0,,,25796.116999999853,response,,,,,false,continue,keypress(Space),,654343.8999999999,654330.8999999999,628518.008,628622.7999999998,628534.783,654264.948,8,400,,,
sequence,flow.Sequence,4_99,2023-09-02T01:09:04.638Z,,0,,,42274.37699999986,completion,,,,,false,,,,654344,654330.8999999999,612048.333,612157.5,612056.523,654264.948,8,400,,,
trial,html.Screen,4_100_0,2023-09-02T01:09:07.471Z,,0,3,,2912.1520000001183,response,ISIC_0028041.JPG,4,ISIC_4069836.JPG,ISIC_4069836.JPG,false,0,keypress(z),500,657177.3999999999,657177.1000000001,654248.391,654344,654264.948,657075.895,8,400,1,,ISIC_0028041.JPG
break,html.Screen,4_100_1,2023-09-02T01:09:07.472Z,,0,,,NaN,,,,,,false,,,,657178.3999999999,657178.1999999997,,657177.6999999997,,657075.895,8,400,,,
break_continue,html.Screen,4_100_2,2023-09-02T01:09:07.472Z,,0,,,NaN,,,,,,false,,,,657178.8999999999,657178.7999999998,,657178.6000000001,,657075.895,8,400,,,
sequence,flow.Sequence,4_100,2023-09-02T01:09:07.473Z,,0,,,2913.851999999839,completion,,,,,false,,,,657179.1000000001,657178.7999999998,654248.391,654344,654264.948,657075.895,8,400,,,
trial,html.Screen,4_101_0,2023-09-02T01:09:16.867Z,,0,3,,9497.304999999702,response,ISIC_5370803.JPG,5,ISIC_0027797.JPG,ISIC_5370803.JPG,false,1,keypress(m),500,666573.3999999999,666573.1999999997,657072.876,657179.1999999997,657075.895,666473.738,8,400,2,,ISIC_0027797.JPG
break,html.Screen,4_101_1,2023-09-02T01:09:16.867Z,,0,,,NaN,,,,,,false,,,,666573.8999999999,666573.6999999997,,666573.5,,666473.738,8,400,,,
break_continue,html.Screen,4_101_2,2023-09-02T01:09:16.868Z,,0,,,NaN,,,,,,false,,,,666574,666574,,666573.8999999999,,666473.738,8,400,,,
sequence,flow.Sequence,4_101,2023-09-02T01:09:16.868Z,,0,,,9498.104999999981,completion,,,,,false,,,,666574,666574,657072.876,657179.1000000001,657075.895,666473.738,8,400,,,
trial,html.Screen,4_102_0,2023-09-02T01:09:21.877Z,,0,3,,5109.161999999895,response,ISIC_0294399.JPG,5,ISIC_0010837.JPG,ISIC_0294399.JPG,false,1,keypress(m),500,671583.1000000001,671582.8999999999,666454.784,666574.1000000001,666473.738,671481.618,8,400,3,,ISIC_0010837.JPG
break,html.Screen,4_102_1,2023-09-02T01:09:21.878Z,,0,,,NaN,,,,,,false,,,,671584.1000000001,671583.7999999998,,671583.2999999998,,671481.618,8,400,,,
break_continue,html.Screen,4_102_2,2023-09-02T01:09:21.878Z,,0,,,NaN,,,,,,false,,,,671584.5,671584.3999999999,,671584.1999999997,,671481.618,8,400,,,
sequence,flow.Sequence,4_102,2023-09-02T01:09:21.878Z,,0,,,5110.661999999895,completion,,,,,false,,,,671584.6000000001,671584.3999999999,666454.784,666574.1000000001,666473.738,671481.618,8,400,,,
trial,html.Screen,4_103_0,2023-09-02T01:09:24.473Z,,0,3,,2697.78199999989,response,ISIC_0027881.JPG,5,ISIC_0027306.JPG,ISIC_0027881.JPG,false,1,keypress(m),500,674179.6000000001,674179.3999999999,671475.598,671584.6999999997,671481.618,674077.909,8,400,4,,ISIC_0027306.JPG
break,html.Screen,4_103_1,2023-09-02T01:09:24.474Z,,0,,,NaN,,,,,,false,,,,674180.5,674180.3999999999,,674179.7999999998,,674077.909,8,400,,,
break_continue,html.Screen,4_103_2,2023-09-02T01:09:24.475Z,,0,,,NaN,,,,,,false,,,,674181,674180.8999999999,,674180.6999999997,,674077.909,8,400,,,
sequence,flow.Sequence,4_103,2023-09-02T01:09:24.475Z,,0,,,2699.28199999989,completion,,,,,false,,,,674181.1000000001,674180.8999999999,671475.598,671584.6999999997,671481.618,674077.909,8,400,,,
trial,html.Screen,4_104_0,2023-09-02T01:09:31.825Z,,0,3,,7453.390999999829,response,ISIC_1264576.JPG,4,ISIC_6546903.JPG,ISIC_1264576.JPG,false,1,keypress(m),500,681531.5,681531.2999999998,674074.278,674181.1999999997,674077.909,681453.091,8,400,5,,ISIC_6546903.JPG
break,html.Screen,4_104_1,2023-09-02T01:09:31.826Z,,0,,,NaN,,,,,,false,,,,681532.3999999999,681532.1000000001,,681531.6999999997,,681453.091,8,400,,,
break_continue,html.Screen,4_104_2,2023-09-02T01:09:31.826Z,,0,,,NaN,,,,,,false,,,,681532.7999999998,681532.6999999997,,681532.5,,681453.091,8,400,,,
sequence,flow.Sequence,4_104,2023-09-02T01:09:31.827Z,,0,,,7454.7909999997355,completion,,,,,false,,,,681532.8999999999,681532.6999999997,674074.278,674181.1999999997,674077.909,681453.091,8,400,,,
trial,html.Screen,4_105_0,2023-09-02T01:09:34.809Z,,0,3,,3062.0090000000782,response,ISIC_5580000.JPG,6,ISIC_0029089.JPG,ISIC_5580000.JPG,false,1,keypress(m),500,684515.3999999999,684515.1000000001,681436.504,681533,681453.091,684423.826,8,400,6,,ISIC_0029089.JPG
break,html.Screen,4_105_1,2023-09-02T01:09:34.810Z,,0,,,NaN,,,,,,false,,,,684516.3999999999,684516.1999999997,,684515.6000000001,,684423.826,8,400,,,
break_continue,html.Screen,4_105_2,2023-09-02T01:09:34.811Z,,0,,,NaN,,,,,,false,,,,684516.8999999999,684516.7999999998,,684516.6000000001,,684423.826,8,400,,,
sequence,flow.Sequence,4_105,2023-09-02T01:09:34.811Z,,0,,,3063.708999999799,completion,,,,,false,,,,684517.1000000001,684516.7999999998,681436.504,681533,681453.091,684423.826,8,400,,,
trial,html.Screen,4_106_0,2023-09-02T01:09:41.503Z,,0,3,,6785.274000000092,response,ISIC_5703909.JPG,5,ISIC_0015258.JPG,ISIC_5703909.JPG,false,1,keypress(m),500,691209.2999999998,691209.1000000001,684401.155,684517.1000000001,684423.826,691107.841,8,400,7,,ISIC_0015258.JPG
break,html.Screen,4_106_1,2023-09-02T01:09:41.504Z,,0,,,NaN,,,,,,false,,,,691210.2999999998,691210.1000000001,,691209.6000000001,,691107.841,8,400,,,
break_continue,html.Screen,4_106_2,2023-09-02T01:09:41.504Z,,0,,,NaN,,,,,,false,,,,691210.6999999997,691210.6000000001,,691210.3999999999,,691107.841,8,400,,,
sequence,flow.Sequence,4_106,2023-09-02T01:09:41.505Z,,0,,,6786.774000000092,completion,,,,,false,,,,691210.8999999999,691210.6000000001,684401.155,684517.1000000001,684423.826,691107.841,8,400,,,
trial,html.Screen,4_107_0,2023-09-02T01:09:46.802Z,,0,3,,5400.658999999985,response,ISIC_9470876.JPG,5,ISIC_1858237.JPG,ISIC_1858237.JPG,false,0,keypress(z),500,696508.6999999997,696508.5,691105.942,691211,691107.841,696407.092,8,400,8,,ISIC_9470876.JPG
break,html.Screen,4_107_1,2023-09-02T01:09:46.803Z,,0,,,NaN,,,,,,false,,,,696509.6999999997,696509.3999999999,,696509,,696407.092,8,400,,,
break_continue,html.Screen,4_107_2,2023-09-02T01:09:46.804Z,,0,,,NaN,,,,,,false,,,,696510.1000000001,696510,,696509.7999999998,,696407.092,8,400,,,
sequence,flow.Sequence,4_107,2023-09-02T01:09:46.804Z,,0,,,5402.158999999985,completion,,,,,false,,,,696510.2999999998,696510,691105.942,691210.8999999999,691107.841,696407.092,8,400,,,
trial,html.Screen,4_108_0,2023-09-02T01:09:49.485Z,,0,3,,2784.508000000147,response,ISIC_0057669.JPG,5,ISIC_7062293.JPG,ISIC_7062293.JPG,false,0,keypress(z),500,699191.8999999999,699191.6000000001,696400.694,696510.3999999999,696407.092,699090.211,8,400,9,,ISIC_0057669.JPG
break,html.Screen,4_108_1,2023-09-02T01:09:49.486Z,,0,,,NaN,,,,,,false,,,,699192.7999999998,699192.5,,699192.1000000001,,699090.211,8,400,,,
break_continue,html.Screen,4_108_2,2023-09-02T01:09:49.487Z,,0,,,NaN,,,,,,false,,,,699193.1999999997,699193.1000000001,,699192.8999999999,,699090.211,8,400,,,
sequence,flow.Sequence,4_108,2023-09-02T01:09:49.487Z,,0,,,2786.008000000147,completion,,,,,false,,,,699193.5,699193.1000000001,696400.694,696510.3999999999,696407.092,699090.211,8,400,,,
trial,html.Screen,4_109_0,2023-09-02T01:09:53.505Z,,0,3,,4121.0889999998035,response,ISIC_7340926.JPG,5,ISIC_2023592.JPG,ISIC_2023592.JPG,false,0,keypress(z),500,703211.6000000001,703211.2999999998,699076.006,699193.6000000001,699090.211,703109.959,8,400,10,,ISIC_7340926.JPG
break,html.Screen,4_109_1,2023-09-02T01:09:53.506Z,,0,,,NaN,,,,,,false,,,,703212.6000000001,703212.3999999999,,703211.8999999999,,703109.959,8,400,,,
break_continue,html.Screen,4_109_2,2023-09-02T01:09:53.507Z,,0,,,NaN,,,,,,false,,,,703213,703213,,703212.6999999997,,703109.959,8,400,,,
sequence,flow.Sequence,4_109,2023-09-02T01:09:53.507Z,,0,,,4122.78899999999,completion,,,,,false,,,,703213.2999999998,703213,699076.006,699193.5,699090.211,703109.959,8,400,,,
trial,html.Screen,4_110_0,2023-09-02T01:09:56.948Z,,0,3,,3544.340999999782,response,ISIC_0011564.JPG,5,ISIC_4044751.JPG,ISIC_4044751.JPG,false,0,keypress(z),500,706654.5,706654.2999999998,703107.97,703213.3999999999,703109.959,706552.538,8,400,11,,ISIC_0011564.JPG
break,html.Screen,4_110_1,2023-09-02T01:09:56.949Z,,0,,,NaN,,,,,,false,,,,706655.2999999998,706655.1999999997,,706654.6999999997,,706552.538,8,400,,,
break_continue,html.Screen,4_110_2,2023-09-02T01:09:56.950Z,,0,,,NaN,,,,,,false,,,,706656,706656,,706655.3999999999,,706552.538,8,400,,,
sequence,flow.Sequence,4_110,2023-09-02T01:09:56.950Z,,0,,,3546.0409999999683,completion,,,,,false,,,,706656.1000000001,706656,703107.97,703213.2999999998,703109.959,706552.538,8,400,,,
trial,html.Screen,4_111_0,2023-09-02T01:10:00.430Z,,0,3,,3583.7619999998715,response,ISIC_8679617.JPG,6,ISIC_0010750.JPG,ISIC_8679617.JPG,false,1,keypress(m),500,710136.5,710136.2999999998,706548.756,706656.1999999997,706552.538,710038.485,8,400,12,,ISIC_0010750.JPG
break,html.Screen,4_111_1,2023-09-02T01:10:00.431Z,,0,,,NaN,,,,,,false,,,,710136.8999999999,710136.7999999998,,710136.5,,710038.485,8,400,,,
break_continue,html.Screen,4_111_2,2023-09-02T01:10:00.431Z,,0,,,NaN,,,,,,false,,,,710137.1000000001,710137.1000000001,,710137,,710038.485,8,400,,,
sequence,flow.Sequence,4_111,2023-09-02T01:10:00.431Z,,0,,,3584.562000000151,completion,,,,,false,,,,710137.1999999997,710137.1000000001,706548.756,706656.1000000001,706552.538,710038.485,8,400,,,
trial,html.Screen,4_112_0,2023-09-02T01:10:03.616Z,,0,3,,3283.914999999921,response,ISIC_4619789.JPG,5,ISIC_0010171.JPG,ISIC_4619789.JPG,false,1,keypress(m),500,713322.6000000001,713322.3999999999,710032.997,710137.1999999997,710038.485,713233.442,8,400,13,,ISIC_0010171.JPG
break,html.Screen,4_112_1,2023-09-02T01:10:03.617Z,,0,,,NaN,,,,,,false,,,,713323.6999999997,713323.2999999998,,713322.8999999999,,713233.442,8,400,,,
break_continue,html.Screen,4_112_2,2023-09-02T01:10:03.618Z,,0,,,NaN,,,,,,false,,,,713324,713323.8999999999,,713323.7999999998,,713233.442,8,400,,,
sequence,flow.Sequence,4_112,2023-09-02T01:10:03.618Z,,0,,,3285.414999999921,completion,,,,,false,,,,713324.1000000001,713323.8999999999,710032.997,710137.1999999997,710038.485,713233.442,8,400,,,
trial,html.Screen,4_113_0,2023-09-02T01:10:06.201Z,,0,3,,2673.3579999997746,response,ISIC_0062997.JPG,5,ISIC_0059216.JPG,ISIC_0062997.JPG,false,1,keypress(m),500,715906.8999999999,715906.7999999998,713216.807,713324.1999999997,713233.442,715804.999,8,400,14,,ISIC_0059216.JPG
break,html.Screen,4_113_1,2023-09-02T01:10:06.201Z,,0,,,NaN,,,,,,false,,,,715907.6999999997,715907.5,,715907.1999999997,,715804.999,8,400,,,
break_continue,html.Screen,4_113_2,2023-09-02T01:10:06.202Z,,0,,,NaN,,,,,,false,,,,715908.5,715908.5,,715907.8999999999,,715804.999,8,400,,,
sequence,flow.Sequence,4_113,2023-09-02T01:10:06.203Z,,0,,,2675.057999999961,completion,,,,,false,,,,715909.6999999997,715908.5,713216.807,713324.1999999997,713233.442,715804.999,8,400,,,
trial,html.Screen,4_114_0,2023-09-02T01:10:09.230Z,,0,3,,3131.3009999998612,response,ISIC_0097500.JPG,5,ISIC_0054671.JPG,ISIC_0097500.JPG,false,1,keypress(m),500,718936.3999999999,718936.2999999998,715802.132,715909.8999999999,715804.999,718834.536,8,400,15,,ISIC_0054671.JPG
break,html.Screen,4_114_1,2023-09-02T01:10:09.231Z,,0,,,NaN,,,,,,false,,,,718937.2999999998,718937.1000000001,,718936.6999999997,,718834.536,8,400,,,
break_continue,html.Screen,4_114_2,2023-09-02T01:10:09.232Z,,0,,,NaN,,,,,,false,,,,718937.8999999999,718937.5,,718937.3999999999,,718834.536,8,400,,,
sequence,flow.Sequence,4_114,2023-09-02T01:10:09.232Z,,0,,,3132.5010000000475,completion,,,,,false,,,,718938,718937.5,715802.132,715909.8999999999,715804.999,718834.536,8,400,,,
trial,html.Screen,4_115_0,2023-09-02T01:10:12.722Z,,0,3,,3593.26399999985,response,ISIC_6358752.JPG,4,ISIC_0033492.JPG,ISIC_6358752.JPG,false,1,keypress(m),500,722428,722427.7999999998,718830.921,718938.1000000001,718834.536,722342.691,8,400,16,,ISIC_0033492.JPG
break,html.Screen,4_115_1,2023-09-02T01:10:12.722Z,,0,,,NaN,,,,,,false,,,,722428.8999999999,722428.6999999997,,722428.1999999997,,722342.691,8,400,,,
break_continue,html.Screen,4_115_2,2023-09-02T01:10:12.723Z,,0,,,NaN,,,,,,false,,,,722429.6000000001,722429.5,,722429.5,,722342.691,8,400,,,
sequence,flow.Sequence,4_115,2023-09-02T01:10:12.723Z,,0,,,3594.9640000000363,completion,,,,,false,,,,722429.6000000001,722429.5,718830.921,718938,718834.536,722342.691,8,400,,,
trial,html.Screen,4_116_0,2023-09-02T01:10:15.412Z,,0,3,,2775.8090000000084,response,ISIC_3836576.JPG,4,ISIC_0031545.JPG,ISIC_3836576.JPG,false,1,keypress(m),500,725118.6000000001,725118.5,722317.824,722429.6999999997,722342.691,725028.323,8,400,17,,ISIC_0031545.JPG
break,html.Screen,4_116_1,2023-09-02T01:10:15.413Z,,0,,,NaN,,,,,,false,,,,725119.1000000001,725119.1000000001,,725118.7999999998,,725028.323,8,400,,,
break_continue,html.Screen,4_116_2,2023-09-02T01:10:15.413Z,,0,,,NaN,,,,,,false,,,,725119.5,725119.3999999999,,725119.2999999998,,725028.323,8,400,,,
sequence,flow.Sequence,4_116,2023-09-02T01:10:15.413Z,,0,,,2776.7089999999152,completion,,,,,false,,,,725119.6000000001,725119.3999999999,722317.824,722429.6000000001,722342.691,725028.323,8,400,,,
trial,html.Screen,4_117_0,2023-09-02T01:10:19.814Z,,0,3,,4492.076999999932,response,ISIC_0030360.JPG,5,ISIC_0011227.JPG,ISIC_0011227.JPG,false,0,keypress(z),500,729520.6000000001,729520.3999999999,725012.737,725119.6000000001,725028.323,729418.903,8,400,18,,ISIC_0030360.JPG
break,html.Screen,4_117_1,2023-09-02T01:10:19.815Z,,0,,,NaN,,,,,,false,,,,729521.5,729521.2999999998,,729520.7999999998,,729418.903,8,400,,,
break_continue,html.Screen,4_117_2,2023-09-02T01:10:19.815Z,,0,,,NaN,,,,,,false,,,,729521.7999999998,729521.6999999997,,729521.6000000001,,729418.903,8,400,,,
sequence,flow.Sequence,4_117,2023-09-02T01:10:19.815Z,,0,,,4493.376999999746,completion,,,,,false,,,,729522,729521.6999999997,725012.737,725119.6000000001,725028.323,729418.903,8,400,,,
trial,html.Screen,4_118_0,2023-09-02T01:10:24.640Z,,0,3,,4926.9969999998575,response,ISIC_0010514.JPG,5,ISIC_0011779.JPG,ISIC_0011779.JPG,false,0,keypress(z),500,734346.1000000001,734345.8999999999,729406.713,729522.1000000001,729418.903,734260.885,8,400,19,,ISIC_0010514.JPG
break,html.Screen,4_118_1,2023-09-02T01:10:24.640Z,,0,,,NaN,,,,,,false,,,,734346.5,734346.3999999999,,734346.1000000001,,734260.885,8,400,,,
break_continue,html.Screen,4_118_2,2023-09-02T01:10:24.640Z,,0,,,NaN,,,,,,false,,,,734346.6999999997,734346.6999999997,,734346.6000000001,,734260.885,8,400,,,
sequence,flow.Sequence,4_118,2023-09-02T01:10:24.640Z,,0,,,4927.796999999671,completion,,,,,false,,,,734346.7999999998,734346.6999999997,729406.713,729522,729418.903,734260.885,8,400,,,
trial,html.Screen,4_119_0,2023-09-02T01:10:27.459Z,,0,3,,2904.1149999999907,response,ISIC_0579047.JPG,5,ISIC_0027126.JPG,ISIC_0579047.JPG,false,1,keypress(m),500,737165.1999999997,737165,734242.401,734346.7999999998,734260.885,737063.905,8,400,20,,ISIC_0027126.JPG
break,html.Screen,4_119_1,2023-09-02T01:10:27.460Z,,0,,,NaN,,,,,,false,,,,737166.2999999998,737166.1000000001,,737165.5,,737063.905,8,400,,,
break_continue,html.Screen,4_119_2,2023-09-02T01:10:27.460Z,,0,,,NaN,,,,,,false,,,,737166.6999999997,737166.6999999997,,737166.3999999999,,737063.905,8,400,,,
sequence,flow.Sequence,4_119,2023-09-02T01:10:27.460Z,,0,,,2905.8149999997113,completion,,,,,false,,,,737167,737166.6999999997,734242.401,734346.7999999998,734260.885,737063.905,8,400,,,
trial,html.Screen,4_120_0,2023-09-02T01:10:30.247Z,,0,3,,2889.094999999972,response,ISIC_6888402.JPG,6,ISIC_0015189.JPG,ISIC_6888402.JPG,false,1,keypress(m),500,739953.2999999998,739953,737053.568,737167.1000000001,737063.905,739850.949,8,400,21,,ISIC_0015189.JPG
break,html.Screen,4_120_1,2023-09-02T01:10:30.247Z,,0,,,NaN,,,,,,false,,,,739953.7999999998,739953.6999999997,,739953.3999999999,,739850.949,8,400,,,
break_continue,html.Screen,4_120_2,2023-09-02T01:10:30.247Z,,0,,,NaN,,,,,,false,,,,739953.8999999999,739953.8999999999,,739953.8999999999,,739850.949,8,400,,,
sequence,flow.Sequence,4_120,2023-09-02T01:10:30.248Z,,0,,,2889.994999999879,completion,,,,,false,,,,739954.3999999999,739953.8999999999,737053.568,737167,737063.905,739850.949,8,400,,,
trial,html.Screen,4_121_0,2023-09-02T01:10:32.969Z,,0,3,,2824.0509999999776,response,ISIC_0055747.JPG,6,ISIC_0055086.JPG,ISIC_0055086.JPG,false,0,keypress(z),500,742675.1999999997,742675,739845.782,739954.3999999999,739850.949,742573.064,8,400,22,,ISIC_0055747.JPG
break,html.Screen,4_121_1,2023-09-02T01:10:32.969Z,,0,,,NaN,,,,,,false,,,,742675.6999999997,742675.5,,742675.1999999997,,742573.064,8,400,,,
break_continue,html.Screen,4_121_2,2023-09-02T01:10:32.970Z,,0,,,NaN,,,,,,false,,,,742676.3999999999,742675.7999999998,,742675.6999999997,,742573.064,8,400,,,
sequence,flow.Sequence,4_121,2023-09-02T01:10:32.970Z,,0,,,2824.8509999997914,completion,,,,,false,,,,742676.3999999999,742675.7999999998,739845.782,739954.3999999999,739850.949,742573.064,8,400,,,
trial,html.Screen,4_122_0,2023-09-02T01:10:36.147Z,,0,3,,3279.7359999998007,response,ISIC_0009048.JPG,6,ISIC_0069093.JPG,ISIC_0009048.JPG,false,1,keypress(m),500,745853,745852.7999999998,742569.788,742676.6000000001,742573.064,745750.923,8,400,23,,ISIC_0069093.JPG
break,html.Screen,4_122_1,2023-09-02T01:10:36.147Z,,0,,,NaN,,,,,,false,,,,745853.7999999998,745853.6000000001,,745853.1999999997,,745750.923,8,400,,,
break_continue,html.Screen,4_122_2,2023-09-02T01:10:36.148Z,,0,,,NaN,,,,,,false,,,,745854.2999999998,745854.2999999998,,745854,,745750.923,8,400,,,
sequence,flow.Sequence,4_122,2023-09-02T01:10:36.148Z,,0,,,3281.2359999998007,completion,,,,,false,,,,745854.3999999999,745854.2999999998,742569.788,742676.5,742573.064,745750.923,8,400,,,
trial,html.Screen,4_123_0,2023-09-02T01:10:41.269Z,,0,3,,5224.677000000142,response,ISIC_0024516.JPG,5,ISIC_0033392.JPG,ISIC_0024516.JPG,false,1,keypress(m),500,750975.7999999998,750975.6000000001,745749.424,745854.3999999999,745750.923,750873.761,8,400,24,,ISIC_0033392.JPG
break,html.Screen,4_123_1,2023-09-02T01:10:41.271Z,,0,,,NaN,,,,,,false,,,,750977.1999999997,750976.3999999999,,750976.1000000001,,750873.761,8,400,,,
break_continue,html.Screen,4_123_2,2023-09-02T01:10:41.271Z,,0,,,NaN,,,,,,false,,,,750977.5,750977.3999999999,,750977.2999999998,,750873.761,8,400,,,
sequence,flow.Sequence,4_123,2023-09-02T01:10:41.271Z,,0,,,5226.476999999955,completion,,,,,false,,,,750977.5,750977.3999999999,745749.424,745854.3999999999,745750.923,750873.761,8,400,,,
trial,html.Screen,4_124_0,2023-09-02T01:10:44.137Z,,0,3,,2969.538999999757,response,ISIC_7507286.JPG,5,ISIC_4529092.JPG,ISIC_7507286.JPG,false,1,keypress(m),500,753843.5,753843.2999999998,750866.256,750977.6999999997,750873.761,753747.105,8,400,25,,ISIC_4529092.JPG
break,html.Screen,4_124_1,2023-09-02T01:10:44.137Z,,0,,,NaN,,,,,,false,,,,753843.8999999999,753843.8999999999,,753843.6000000001,,753747.105,8,400,,,
break_continue,html.Screen,4_124_2,2023-09-02T01:10:44.138Z,,0,,,NaN,,,,,,false,,,,753844.1000000001,753844.1000000001,,753844,,753747.105,8,400,,,
sequence,flow.Sequence,4_124,2023-09-02T01:10:44.138Z,,0,,,2970.3390000000363,completion,,,,,false,,,,753844.1000000001,753844.1000000001,750866.256,750977.6000000001,750873.761,753747.105,8,400,,,
trial,html.Screen,4_125_0,2023-09-02T01:10:47.325Z,,0,3,,3283.7949999999255,response,ISIC_0008162.JPG,4,ISIC_0011512.JPG,ISIC_0008162.JPG,false,1,keypress(m),500,757031.1999999997,757030.8999999999,753737.375,753844.1999999997,753747.105,756946.131,8,400,26,,ISIC_0011512.JPG
break,html.Screen,4_125_1,2023-09-02T01:10:47.325Z,,0,,,NaN,,,,,,false,,,,757032,757031.7999999998,,757031.2999999998,,756946.131,8,400,,,
break_continue,html.Screen,4_125_2,2023-09-02T01:10:47.326Z,,0,,,NaN,,,,,,false,,,,757032.5,757032.5,,757032.3999999999,,756946.131,8,400,,,
sequence,flow.Sequence,4_125,2023-09-02T01:10:47.326Z,,0,,,3285.3950000000186,completion,,,,,false,,,,757032.6000000001,757032.5,753737.375,753844.1000000001,753747.105,756946.131,8,400,,,
trial,html.Screen,4_126_0,2023-09-02T01:10:50.687Z,,0,3,,3447.368999999948,response,ISIC_0002622.JPG,4,ISIC_6099476.JPG,ISIC_0002622.JPG,false,1,keypress(m),500,760393.6999999997,760393.5,756926.236,757032.6999999997,756946.131,760309.213,8,400,27,,ISIC_6099476.JPG
break,html.Screen,4_126_1,2023-09-02T01:10:50.689Z,,0,,,NaN,,,,,,false,,,,760395.1000000001,760394.3999999999,,760393.8999999999,,760309.213,8,400,,,
