sender,sender_type,sender_id,timestamp,meta,,blockNo,condition,duration,ended_on,img_left,img_reveal,img_right,loser,practice,response,response_action,selection_duration,time_commit,time_end,time_render,time_run,time_show,time_switch,total_blocks,total_trials,trialNo,url,winner
informed_consent,html.Screen,0,2023-09-07T23:18:32.544Z,"{""labjs_version"":""20.2.4"",""labjs_build"":{""flavor"":""development"",""commit"":""f5b4a49f956347addd546a832a3327688c2c0fef""},""location"":""https://labjs.felixhenninger.com/api/labjs_preview/index.html"",""userAgent"":""Mozilla/5.0 (Windows NT 10.0; Win64; x64) AppleWebKit/537.36 (KHTML, like Gecko) Chrome/116.0.0.0 Safari/537.36"",""platform"":""Win32"",""language"":""en-AU"",""locale"":""en-US"",""timeZone"":""America/Chicago"",""timezoneOffset"":300,""screen_width"":2560,""screen_height"":1440,""scroll_width"":1294,""scroll_height"":1278,""window_innerWidth"":1294,""window_innerHeight"":1326,""devicePixelRatio"":1}",,,,8342.284999904632,response,,,,,,consent,click button,,9183.399999856949,9182.599999904633,823.553,872.0999999046326,840.315,9139.771,,,,{},
Welcome,html.Screen,1,2023-09-07T23:18:36.591Z,,,,colourful,4088.929000047683,response,,,,,,continue,click button,,13229.599999904633,13228.700000047684,9123.095,9183.700000047684,9139.771,13180.985,,,,,
trial,html.Screen,2_0_0,2023-09-07T23:18:38.936Z,,0,0,,2393.614999904632,response,ISIC_0063388.JPG,,ISIC_0025593.JPG,ISIC_0063388.JPG,true,1,keypress(m),500,15574.799999952316,15574.599999904633,13164.425,13229.700000047684,13180.985,15535.634,1,6,1,,ISIC_0025593.JPG
sequence,flow.Sequence,2_0,2023-09-07T23:18:38.936Z,,0,,,2393.614999904632,completion,,,,,true,,,,15575,15574.599999904633,13164.425,13229.700000047684,13180.985,15535.634,1,6,,,
trial,html.Screen,2_1_0,2023-09-07T23:18:46.992Z,,0,0,,8094.965999904633,response,ISIC_1309015.JPG,,ISIC_0028178.JPG,ISIC_1309015.JPG,true,1,keypress(m),500,23630.799999952316,23630.599999904633,15518.87,15575.099999904633,15535.634,23584.63,1,6,2,,ISIC_0028178.JPG
sequence,flow.Sequence,2_1,2023-09-07T23:18:46.992Z,,0,,,8094.965999904633,completion,,,,,true,,,,23631,23630.599999904633,15518.87,15575,15535.634,23584.63,1,6,,,
trial,html.Screen,2_2_0,2023-09-07T23:18:49.633Z,,0,0,,2687.0700000476827,response,ISIC_0031128.JPG,,ISIC_3314853.JPG,ISIC_3314853.JPG,true,0,keypress(z),500,26272,26271.700000047684,23567.867,23631.099999904633,23584.63,26223.021,1,6,3,,ISIC_0031128.JPG
sequence,flow.Sequence,2_2,2023-09-07T23:18:49.633Z,,0,,,2687.0700000476827,completion,,,,,true,,,,26272.200000047684,26271.700000047684,23567.867,23631,23584.63,26223.021,1,6,,,
trial,html.Screen,2_3_0,2023-09-07T23:18:53.795Z,,0,0,,4210.578999904632,response,ISIC_0031612.JPG,,ISIC_8980141.JPG,ISIC_8980141.JPG,true,0,keypress(z),500,30433.799999952316,30433.599999904633,26206.379,26272.39999985695,26223.021,30397.869,1,6,4,,ISIC_0031612.JPG
sequence,flow.Sequence,2_3,2023-09-07T23:18:53.795Z,,0,,,4210.578999904632,completion,,,,,true,,,,30434,30433.599999904633,26206.379,26272.39999985695,26223.021,30397.869,1,6,,,
trial,html.Screen,2_4_0,2023-09-07T23:18:56.533Z,,0,0,,2773.831000047685,response,ISIC_9721604.JPG,,ISIC_1197737.JPG,ISIC_9721604.JPG,true,1,keypress(m),500,33171.89999985695,33171.700000047684,30381.134,30434.099999904633,30397.869,33136.559,1,6,5,,ISIC_1197737.JPG
sequence,flow.Sequence,2_4,2023-09-07T23:18:56.533Z,,0,,,2773.831000047685,completion,,,,,true,,,,33172.09999990463,33171.700000047684,30381.134,30434.099999904633,30397.869,33136.559,1,6,,,
trial,html.Screen,2_5_0,2023-09-07T23:18:59.254Z,,0,0,,2756.440999999999,response,ISIC_0025346.JPG,,ISIC_0010681.JPG,ISIC_0010681.JPG,true,0,keypress(z),500,35893.200000047684,35893,33119.783,33172.200000047684,33136.559,35858.517,1,6,6,,ISIC_0025346.JPG
sequence,flow.Sequence,2_5,2023-09-07T23:18:59.255Z,,0,,,2756.440999999999,completion,,,,,true,,,,35893.5,35893,33119.783,33172.200000047684,33136.559,35858.517,1,6,,,
loop,flow.Loop,2,2023-09-07T23:18:59.255Z,,,,,22712.015,completion,,,,,true,,,,35893.700000047684,35893,13164.425,13229.599999904633,13180.985,35858.517,1,6,,,
exp_instructions,html.Screen,3,2023-09-07T23:19:36.931Z,,,,,37711.08299990463,response,,,,,,continue,keypress(Space),,73570,73569.59999990463,35841.696,35893.700000047684,35858.517,73531.832,,,,,
trial,html.Screen,4_0_0,2023-09-07T23:19:40.554Z,,0,1,,3661.368000047689,response,ISIC_2569851.JPG,5,ISIC_0081584.JPG,ISIC_2569851.JPG,false,1,keypress(m),500,77193.39999985695,77193.20000004768,73515.054,73570.09999990463,73531.832,77155.605,8,400,1,,ISIC_0081584.JPG
break,html.Screen,4_0_1,2023-09-07T23:19:40.555Z,,0,,,NaN,,,,,,false,,,,77193.79999995232,77193.70000004768,,77193.5,,77155.605,8,400,,,
break_continue,html.Screen,4_0_2,2023-09-07T23:19:40.555Z,,0,,,NaN,,,,,,false,,,,77194,77194,,77194,,77155.605,8,400,,,
sequence,flow.Sequence,4_0,2023-09-07T23:19:40.555Z,,0,,,3662.168000000005,completion,,,,,false,,,,77194.20000004768,77194,73515.054,73570.09999990463,73531.832,77155.605,8,400,,,
trial,html.Screen,4_1_0,2023-09-07T23:19:43.868Z,,0,1,,3351.595000047688,response,ISIC_0060893.JPG,5,ISIC_9498448.JPG,ISIC_9498448.JPG,false,0,keypress(z),500,80507.29999995232,80507.20000004768,77138.764,77194.20000004768,77155.605,80478.614,8,400,2,,ISIC_0060893.JPG
break,html.Screen,4_1_1,2023-09-07T23:19:43.869Z,,0,,,NaN,,,,,,false,,,,80507.70000004768,80507.59999990463,,80507.39999985695,,80478.614,8,400,,,
break_continue,html.Screen,4_1_2,2023-09-07T23:19:43.869Z,,0,,,NaN,,,,,,false,,,,80508,80507.89999985695,,80507.89999985695,,80478.614,8,400,,,
sequence,flow.Sequence,4_1,2023-09-07T23:19:43.869Z,,0,,,3352.294999856953,completion,,,,,false,,,,80508.09999990463,80507.89999985695,77138.764,77194.20000004768,77155.605,80478.614,8,400,,,
trial,html.Screen,4_2_0,2023-09-07T23:19:47.359Z,,0,1,,3518.8859999999986,response,ISIC_0026727.JPG,4,ISIC_0011509.JPG,ISIC_0026727.JPG,false,1,keypress(m),500,83997.59999990463,83997.5,80461.929,80508.20000004768,80478.614,83952.005,8,400,3,,ISIC_0011509.JPG
break,html.Screen,4_2_1,2023-09-07T23:19:47.359Z,,0,,,NaN,,,,,,false,,,,83998.29999995232,83998.09999990463,,83997.79999995232,,83952.005,8,400,,,
break_continue,html.Screen,4_2_2,2023-09-07T23:19:47.360Z,,0,,,NaN,,,,,,false,,,,83998.70000004768,83998.59999990463,,83998.39999985695,,83952.005,8,400,,,
sequence,flow.Sequence,4_2,2023-09-07T23:19:47.360Z,,0,,,3519.985999904631,completion,,,,,false,,,,83998.89999985695,83998.59999990463,80461.929,80508.09999990463,80478.614,83952.005,8,400,,,
trial,html.Screen,4_3_0,2023-09-07T23:19:51.060Z,,0,1,,3746.594999904628,response,ISIC_0033966.JPG,6,ISIC_0006302.JPG,ISIC_0006302.JPG,false,0,keypress(z),500,87698.59999990463,87698.59999990463,83935.301,83999,83952.005,87659.272,8,400,4,,ISIC_0033966.JPG
break,html.Screen,4_3_1,2023-09-07T23:19:51.060Z,,0,,,NaN,,,,,,false,,,,87699,87698.89999985695,,87698.70000004768,,87659.272,8,400,,,
break_continue,html.Screen,4_3_2,2023-09-07T23:19:51.060Z,,0,,,NaN,,,,,,false,,,,87699.20000004768,87699.09999990463,,87699,,87659.272,8,400,,,
sequence,flow.Sequence,4_3,2023-09-07T23:19:51.060Z,,0,,,3747.094999904628,completion,,,,,false,,,,87699.29999995232,87699.09999990463,83935.301,83999,83952.005,87659.272,8,400,,,
trial,html.Screen,4_4_0,2023-09-07T23:19:55.754Z,,0,1,,4733.527999952319,response,ISIC_8325569.JPG,4,ISIC_0030729.JPG,ISIC_8325569.JPG,false,1,keypress(m),500,92393,92392.79999995232,87642.559,87699.29999995232,87659.272,92351.737,8,400,5,,ISIC_0030729.JPG
break,html.Screen,4_4_1,2023-09-07T23:19:55.754Z,,0,,,NaN,,,,,,false,,,,92393.29999995232,92393.20000004768,,92393,,92351.737,8,400,,,
break_continue,html.Screen,4_4_2,2023-09-07T23:19:55.754Z,,0,,,NaN,,,,,,false,,,,92393.39999985695,92393.39999985695,,92393.29999995232,,92351.737,8,400,,,
sequence,flow.Sequence,4_4,2023-09-07T23:19:55.754Z,,0,,,4734.127999856952,completion,,,,,false,,,,92393.5,92393.39999985695,87642.559,87699.29999995232,87659.272,92351.737,8,400,,,
trial,html.Screen,4_5_0,2023-09-07T23:19:59.588Z,,0,1,,3875.46300004769,response,ISIC_4026540.JPG,5,ISIC_0064874.JPG,ISIC_4026540.JPG,false,1,keypress(m),500,96227.5,96227.20000004768,92334.995,92393.59999990463,92351.737,96192.664,8,400,6,,ISIC_0064874.JPG
break,html.Screen,4_5_1,2023-09-07T23:19:59.589Z,,0,,,NaN,,,,,,false,,,,96228.09999990463,96227.89999985695,,96227.59999990463,,96192.664,8,400,,,
break_continue,html.Screen,4_5_2,2023-09-07T23:19:59.589Z,,0,,,NaN,,,,,,false,,,,96228.29999995232,96228.20000004768,,96228.20000004768,,96192.664,8,400,,,
sequence,flow.Sequence,4_5,2023-09-07T23:19:59.589Z,,0,,,3876.46300004769,completion,,,,,false,,,,96228.39999985695,96228.20000004768,92334.995,92393.59999990463,92351.737,96192.664,8,400,,,
trial,html.Screen,4_6_0,2023-09-07T23:20:03.740Z,,0,1,,4186.135999952312,response,ISIC_7667157.JPG,4,ISIC_0010049.JPG,ISIC_7667157.JPG,false,1,keypress(m),500,100379,100378.79999995232,96175.87,96228.39999985695,96192.664,100333.874,8,400,7,,ISIC_0010049.JPG
break,html.Screen,4_6_1,2023-09-07T23:20:03.740Z,,0,,,NaN,,,,,,false,,,,100379.29999995232,100379.20000004768,,100379,,100333.874,8,400,,,
break_continue,html.Screen,4_6_2,2023-09-07T23:20:03.740Z,,0,,,NaN,,,,,,false,,,,100379.39999985695,100379.39999985695,,100379.29999995232,,100333.874,8,400,,,
sequence,flow.Sequence,4_6,2023-09-07T23:20:03.740Z,,0,,,4186.7359998569445,completion,,,,,false,,,,100379.39999985695,100379.39999985695,96175.87,96228.39999985695,96192.664,100333.874,8,400,,,
trial,html.Screen,4_7_0,2023-09-07T23:20:08.351Z,,0,1,,4655.725999904636,response,ISIC_0000533.JPG,5,ISIC_0068993.JPG,ISIC_0000533.JPG,false,1,keypress(m),500,104989.70000004768,104989.59999990463,100317.176,100379.5,100333.874,104942.914,8,400,8,,ISIC_0068993.JPG
break,html.Screen,4_7_1,2023-09-07T23:20:08.351Z,,0,,,NaN,,,,,,false,,,,104990,104989.89999985695,,104989.79999995232,,104942.914,8,400,,,
break_continue,html.Screen,4_7_2,2023-09-07T23:20:08.351Z,,0,,,NaN,,,,,,false,,,,104990.20000004768,104990.09999990463,,104990,,104942.914,8,400,,,
sequence,flow.Sequence,4_7,2023-09-07T23:20:08.351Z,,0,,,4656.225999904636,completion,,,,,false,,,,104990.20000004768,104990.09999990463,100317.176,100379.5,100333.874,104942.914,8,400,,,
trial,html.Screen,4_8_0,2023-09-07T23:20:13.568Z,,0,1,,5264.4859998569445,response,ISIC_4448959.JPG,6,ISIC_0261253.JPG,ISIC_0261253.JPG,false,0,keypress(z),500,110207.5,110207.39999985695,104926.213,104990.29999995232,104942.914,110169.706,8,400,9,,ISIC_4448959.JPG
break,html.Screen,4_8_1,2023-09-07T23:20:13.569Z,,0,,,NaN,,,,,,false,,,,110207.89999985695,110207.79999995232,,110207.59999990463,,110169.706,8,400,,,
break_continue,html.Screen,4_8_2,2023-09-07T23:20:13.569Z,,0,,,NaN,,,,,,false,,,,110208.09999990463,110208,,110208,,110169.706,8,400,,,
sequence,flow.Sequence,4_8,2023-09-07T23:20:13.569Z,,0,,,5265.085999999996,completion,,,,,false,,,,110208.09999990463,110208,104926.213,104990.20000004768,104942.914,110169.706,8,400,,,
trial,html.Screen,4_9_0,2023-09-07T23:20:16.851Z,,0,1,,3319.494000047678,response,ISIC_5170766.JPG,6,ISIC_9947624.JPG,ISIC_9947624.JPG,false,0,keypress(z),500,113489.29999995232,113489.20000004768,110153.038,110208.20000004768,110169.706,113442.828,8,400,10,,ISIC_5170766.JPG
break,html.Screen,4_9_1,2023-09-07T23:20:16.852Z,,0,,,NaN,,,,,,false,,,,113489.59999990463,113489.59999990463,,113489.39999985695,,113442.828,8,400,,,
break_continue,html.Screen,4_9_2,2023-09-07T23:20:16.852Z,,0,,,NaN,,,,,,false,,,,113489.79999995232,113489.70000004768,,113489.70000004768,,113442.828,8,400,,,
sequence,flow.Sequence,4_9,2023-09-07T23:20:16.852Z,,0,,,3319.994000047678,completion,,,,,false,,,,113489.79999995232,113489.70000004768,110153.038,110208.20000004768,110169.706,113442.828,8,400,,,
trial,html.Screen,4_10_0,2023-09-07T23:20:21.717Z,,0,1,,4911.7719999046385,response,ISIC_8622365.JPG,4,ISIC_5239856.JPG,ISIC_8622365.JPG,false,1,keypress(m),500,118354.79999995232,118354.59999990463,113426.146,113489.89999985695,113442.828,118319.013,8,400,11,,ISIC_5239856.JPG
break,html.Screen,4_10_1,2023-09-07T23:20:21.717Z,,0,,,NaN,,,,,,false,,,,118355.29999995232,118355.20000004768,,118355,,118319.013,8,400,,,
break_continue,html.Screen,4_10_2,2023-09-07T23:20:21.717Z,,0,,,NaN,,,,,,false,,,,118355.5,118355.39999985695,,118355.29999995232,,118319.013,8,400,,,
sequence,flow.Sequence,4_10,2023-09-07T23:20:21.718Z,,0,,,4912.571999856955,completion,,,,,false,,,,118355.70000004768,118355.39999985695,113426.146,113489.79999995232,113442.828,118319.013,8,400,,,
trial,html.Screen,4_11_0,2023-09-07T23:20:25.641Z,,0,1,,3959.6870000476774,response,ISIC_0030845.JPG,5,ISIC_7587869.JPG,ISIC_0030845.JPG,false,1,keypress(m),500,122278.89999985695,122278.70000004768,118302.32,118355.70000004768,118319.013,122243.362,8,400,12,,ISIC_7587869.JPG
break,html.Screen,4_11_1,2023-09-07T23:20:25.641Z,,0,,,NaN,,,,,,false,,,,122279.29999995232,122279.20000004768,,122279,,122243.362,8,400,,,
break_continue,html.Screen,4_11_2,2023-09-07T23:20:25.641Z,,0,,,NaN,,,,,,false,,,,122279.5,122279.5,,122279.39999985695,,122243.362,8,400,,,
sequence,flow.Sequence,4_11,2023-09-07T23:20:25.642Z,,0,,,3960.4869999999937,completion,,,,,false,,,,122279.70000004768,122279.5,118302.32,118355.70000004768,118319.013,122243.362,8,400,,,
trial,html.Screen,4_12_0,2023-09-07T23:20:32.123Z,,0,1,,6517.937999952323,response,ISIC_8671702.JPG,5,ISIC_9453737.JPG,ISIC_9453737.JPG,false,0,keypress(z),500,128761.39999985695,128761.29999995232,122226.613,122279.70000004768,122243.362,128722.624,8,400,13,,ISIC_8671702.JPG
break,html.Screen,4_12_1,2023-09-07T23:20:32.124Z,,0,,,NaN,,,,,,false,,,,128761.79999995232,128761.70000004768,,128761.5,,128722.624,8,400,,,
break_continue,html.Screen,4_12_2,2023-09-07T23:20:32.124Z,,0,,,NaN,,,,,,false,,,,128762.09999990463,128762,,128761.89999985695,,128722.624,8,400,,,
sequence,flow.Sequence,4_12,2023-09-07T23:20:32.124Z,,0,,,6518.638000000006,completion,,,,,false,,,,128762.20000004768,128762,122226.613,122279.70000004768,122243.362,128722.624,8,400,,,
trial,html.Screen,4_13_0,2023-09-07T23:20:35.405Z,,0,1,,3320.5760000476876,response,ISIC_0013719.JPG,5,ISIC_0067338.JPG,ISIC_0013719.JPG,false,1,keypress(m),500,132043.29999995232,132043.20000004768,128705.767,128762.29999995232,128722.624,131995.499,8,400,14,,ISIC_0067338.JPG
break,html.Screen,4_13_1,2023-09-07T23:20:35.406Z,,0,,,NaN,,,,,,false,,,,132043.70000004768,132043.59999990463,,132043.39999985695,,131995.499,8,400,,,
break_continue,html.Screen,4_13_2,2023-09-07T23:20:35.406Z,,0,,,NaN,,,,,,false,,,,132043.89999985695,132043.79999995232,,132043.79999995232,,131995.499,8,400,,,
sequence,flow.Sequence,4_13,2023-09-07T23:20:35.406Z,,0,,,3321.17599995232,completion,,,,,false,,,,132044.09999990463,132043.79999995232,128705.767,128762.29999995232,128722.624,131995.499,8,400,,,
trial,html.Screen,4_14_0,2023-09-07T23:20:40.147Z,,0,1,,4789.201000047673,response,ISIC_6678508.JPG,5,ISIC_8207162.JPG,ISIC_6678508.JPG,false,1,keypress(m),500,136784.89999985695,136784.70000004768,131978.902,132044.09999990463,131995.499,136738.09,8,400,15,,ISIC_8207162.JPG
break,html.Screen,4_14_1,2023-09-07T23:20:40.147Z,,0,,,NaN,,,,,,false,,,,136785.20000004768,136785.20000004768,,136785,,136738.09,8,400,,,
break_continue,html.Screen,4_14_2,2023-09-07T23:20:40.147Z,,0,,,NaN,,,,,,false,,,,136785.39999985695,136785.39999985695,,136785.29999995232,,136738.09,8,400,,,
sequence,flow.Sequence,4_14,2023-09-07T23:20:40.147Z,,0,,,4789.900999856938,completion,,,,,false,,,,136785.39999985695,136785.39999985695,131978.902,132044.09999990463,131995.499,136738.09,8,400,,,
trial,html.Screen,4_15_0,2023-09-07T23:20:44.107Z,,0,1,,4007.110000047687,response,ISIC_0033779.JPG,5,ISIC_2380341.JPG,ISIC_2380341.JPG,false,0,keypress(z),500,140745.29999995232,140745.20000004768,136721.537,136785.5,136738.09,140695.803,8,400,16,,ISIC_0033779.JPG
break,html.Screen,4_15_1,2023-09-07T23:20:44.107Z,,0,,,NaN,,,,,,false,,,,140745.59999990463,140745.5,,140745.39999985695,,140695.803,8,400,,,
break_continue,html.Screen,4_15_2,2023-09-07T23:20:44.108Z,,0,,,NaN,,,,,,false,,,,140745.70000004768,140745.70000004768,,140745.70000004768,,140695.803,8,400,,,
sequence,flow.Sequence,4_15,2023-09-07T23:20:44.108Z,,0,,,4007.610000047687,completion,,,,,false,,,,140745.79999995232,140745.70000004768,136721.537,136785.5,136738.09,140695.803,8,400,,,
trial,html.Screen,4_16_0,2023-09-07T23:20:46.739Z,,0,1,,2680.6969999999856,response,ISIC_0003168.JPG,6,ISIC_4589609.JPG,ISIC_0003168.JPG,false,1,keypress(m),500,143376.59999990463,143376.5,140679.096,140745.89999985695,140695.803,143334.33,8,400,17,,ISIC_4589609.JPG
break,html.Screen,4_16_1,2023-09-07T23:20:46.739Z,,0,,,NaN,,,,,,false,,,,143376.89999985695,143376.89999985695,,143376.70000004768,,143334.33,8,400,,,
break_continue,html.Screen,4_16_2,2023-09-07T23:20:46.739Z,,0,,,NaN,,,,,,false,,,,143377.09999990463,143377.09999990463,,143377.09999990463,,143334.33,8,400,,,
sequence,flow.Sequence,4_16,2023-09-07T23:20:46.739Z,,0,,,2681.296999904618,completion,,,,,false,,,,143377.20000004768,143377.09999990463,140679.096,140745.79999995232,140695.803,143334.33,8,400,,,
trial,html.Screen,4_17_0,2023-09-07T23:20:50.980Z,,0,1,,4283.769999904645,response,ISIC_0034094.JPG,5,ISIC_1519891.JPG,ISIC_1519891.JPG,false,0,keypress(z),500,147618.20000004768,147618.09999990463,143317.571,143377.20000004768,143334.33,147575.796,8,400,18,,ISIC_0034094.JPG
break,html.Screen,4_17_1,2023-09-07T23:20:50.981Z,,0,,,NaN,,,,,,false,,,,147618.70000004768,147618.59999990463,,147618.39999985695,,147575.796,8,400,,,
break_continue,html.Screen,4_17_2,2023-09-07T23:20:50.981Z,,0,,,NaN,,,,,,false,,,,147618.89999985695,147618.89999985695,,147618.79999995232,,147575.796,8,400,,,
sequence,flow.Sequence,4_17,2023-09-07T23:20:50.981Z,,0,,,4284.569999856962,completion,,,,,false,,,,147619,147618.89999985695,143317.571,143377.20000004768,143334.33,147575.796,8,400,,,
trial,html.Screen,4_18_0,2023-09-07T23:20:53.798Z,,0,1,,2859.703999999998,response,ISIC_0005304.JPG,5,ISIC_0033570.JPG,ISIC_0005304.JPG,false,1,keypress(m),500,150435.70000004768,150435.5,147559.207,147619.09999990463,147575.796,150398.054,8,400,19,,ISIC_0033570.JPG
break,html.Screen,4_18_1,2023-09-07T23:20:53.798Z,,0,,,NaN,,,,,,false,,,,150436.09999990463,150436,,150435.79999995232,,150398.054,8,400,,,
break_continue,html.Screen,4_18_2,2023-09-07T23:20:53.798Z,,0,,,NaN,,,,,,false,,,,150436.29999995232,150436.29999995232,,150436.09999990463,,150398.054,8,400,,,
sequence,flow.Sequence,4_18,2023-09-07T23:20:53.798Z,,0,,,2860.503999952314,completion,,,,,false,,,,150436.39999985695,150436.29999995232,147559.207,147619,147575.796,150398.054,8,400,,,
trial,html.Screen,4_19_0,2023-09-07T23:20:58.041Z,,0,1,,4281.345999856945,response,ISIC_7484618.JPG,4,ISIC_2456538.JPG,ISIC_2456538.JPG,false,0,keypress(z),500,154679.59999990463,154679.39999985695,150381.315,150436.5,150398.054,154639.591,8,400,20,,ISIC_7484618.JPG
break,html.Screen,4_19_1,2023-09-07T23:20:58.042Z,,0,,,NaN,,,,,,false,,,,154679.89999985695,154679.89999985695,,154679.70000004768,,154639.591,8,400,,,
break_continue,html.Screen,4_19_2,2023-09-07T23:20:58.042Z,,0,,,NaN,,,,,,false,,,,154680.29999995232,154680.20000004768,,154680.09999990463,,154639.591,8,400,,,
sequence,flow.Sequence,4_19,2023-09-07T23:20:58.042Z,,0,,,4282.14600004768,completion,,,,,false,,,,154680.39999985695,154680.20000004768,150381.315,150436.39999985695,150398.054,154639.591,8,400,,,
trial,html.Screen,4_20_0,2023-09-07T23:21:02.764Z,,0,1,,4762.7089999523305,response,ISIC_7254389.JPG,5,ISIC_7976724.JPG,ISIC_7254389.JPG,false,1,keypress(m),500,159402.39999985695,159402.29999995232,154622.941,154680.5,154639.591,159365.531,8,400,21,,ISIC_7976724.JPG
break,html.Screen,4_20_1,2023-09-07T23:21:02.765Z,,0,,,NaN,,,,,,false,,,,159403.29999995232,159403,,159402.70000004768,,159365.531,8,400,,,
break_continue,html.Screen,4_20_2,2023-09-07T23:21:02.765Z,,0,,,NaN,,,,,,false,,,,159403.5,159403.5,,159403.29999995232,,159365.531,8,400,,,
sequence,flow.Sequence,4_20,2023-09-07T23:21:02.765Z,,0,,,4763.909000000014,completion,,,,,false,,,,159403.5,159403.5,154622.941,154680.5,154639.591,159365.531,8,400,,,
trial,html.Screen,4_21_0,2023-09-07T23:21:05.823Z,,0,1,,3094.8689998569607,response,ISIC_0003925.JPG,5,ISIC_0028874.JPG,ISIC_0003925.JPG,false,1,keypress(m),500,162460.59999990463,162460.39999985695,159348.798,159403.59999990463,159365.531,162421.404,8,400,22,,ISIC_0028874.JPG
break,html.Screen,4_21_1,2023-09-07T23:21:05.823Z,,0,,,NaN,,,,,,false,,,,162461.29999995232,162461.20000004768,,162460.79999995232,,162421.404,8,400,,,
break_continue,html.Screen,4_21_2,2023-09-07T23:21:05.824Z,,0,,,NaN,,,,,,false,,,,162461.59999990463,162461.5,,162461.39999985695,,162421.404,8,400,,,
sequence,flow.Sequence,4_21,2023-09-07T23:21:05.824Z,,0,,,3095.969000000012,completion,,,,,false,,,,162461.70000004768,162461.5,159348.798,159403.59999990463,159365.531,162421.404,8,400,,,
trial,html.Screen,4_22_0,2023-09-07T23:21:11.297Z,,0,1,,5513.495999856939,response,ISIC_5501183.JPG,5,ISIC_8569205.JPG,ISIC_8569205.JPG,false,0,keypress(z),500,167934.89999985695,167934.89999985695,162404.658,162461.79999995232,162421.404,167898.817,8,400,23,,ISIC_5501183.JPG
break,html.Screen,4_22_1,2023-09-07T23:21:11.297Z,,0,,,NaN,,,,,,false,,,,167935.29999995232,167935.20000004768,,167935.09999990463,,167898.817,8,400,,,
break_continue,html.Screen,4_22_2,2023-09-07T23:21:11.297Z,,0,,,NaN,,,,,,false,,,,167935.39999985695,167935.29999995232,,167935.29999995232,,167898.817,8,400,,,
sequence,flow.Sequence,4_22,2023-09-07T23:21:11.297Z,,0,,,5513.895999952307,completion,,,,,false,,,,167935.5,167935.29999995232,162404.658,162461.79999995232,162421.404,167898.817,8,400,,,
trial,html.Screen,4_23_0,2023-09-07T23:21:14.226Z,,0,1,,2965.7829999046226,response,ISIC_0032626.JPG,5,ISIC_8990907.JPG,ISIC_8990907.JPG,false,0,keypress(z),500,170864.79999995232,170864.59999990463,167882.044,167935.5,167898.817,170821.081,8,400,24,,ISIC_0032626.JPG
break,html.Screen,4_23_1,2023-09-07T23:21:14.227Z,,0,,,NaN,,,,,,false,,,,170865.09999990463,170865,,170864.89999985695,,170821.081,8,400,,,
break_continue,html.Screen,4_23_2,2023-09-07T23:21:14.227Z,,0,,,NaN,,,,,,false,,,,170865.29999995232,170865.20000004768,,170865.09999990463,,170821.081,8,400,,,
sequence,flow.Sequence,4_23,2023-09-07T23:21:14.227Z,,0,,,2966.3830000476737,completion,,,,,false,,,,170865.39999985695,170865.20000004768,167882.044,167935.5,167898.817,170821.081,8,400,,,
trial,html.Screen,4_24_0,2023-09-07T23:21:17.572Z,,0,1,,3389.4189999999944,response,ISIC_5202231.JPG,5,ISIC_1576437.JPG,ISIC_5202231.JPG,false,1,keypress(m),500,174210.59999990463,174210.5,170804.39,170865.5,170821.081,174160.945,8,400,25,,ISIC_1576437.JPG
break,html.Screen,4_24_1,2023-09-07T23:21:17.573Z,,0,,,NaN,,,,,,false,,,,174211.09999990463,174210.89999985695,,174210.79999995232,,174160.945,8,400,,,
break_continue,html.Screen,4_24_2,2023-09-07T23:21:17.573Z,,0,,,NaN,,,,,,false,,,,174211.29999995232,174211.29999995232,,174211.09999990463,,174160.945,8,400,,,
sequence,flow.Sequence,4_24,2023-09-07T23:21:17.573Z,,0,,,3390.2189999523107,completion,,,,,false,,,,174211.39999985695,174211.29999995232,170804.39,170865.39999985695,170821.081,174160.945,8,400,,,
trial,html.Screen,4_25_0,2023-09-07T23:21:20.476Z,,0,1,,2953.554999999993,response,ISIC_0034101.JPG,5,ISIC_0758797.JPG,ISIC_0758797.JPG,false,0,keypress(z),500,177114.59999990463,177114.5,174144.363,174211.5,174160.945,177066.583,8,400,26,,ISIC_0034101.JPG
break,html.Screen,4_25_1,2023-09-07T23:21:20.477Z,,0,,,NaN,,,,,,false,,,,177114.89999985695,177114.89999985695,,177114.70000004768,,177066.583,8,400,,,
break_continue,html.Screen,4_25_2,2023-09-07T23:21:20.477Z,,0,,,NaN,,,,,,false,,,,177115.09999990463,177115.09999990463,,177115,,177066.583,8,400,,,
sequence,flow.Sequence,4_25,2023-09-07T23:21:20.477Z,,0,,,2954.1549999046256,completion,,,,,false,,,,177115.29999995232,177115.09999990463,174144.363,174211.5,174160.945,177066.583,8,400,,,
trial,html.Screen,4_26_0,2023-09-07T23:21:23.598Z,,0,1,,3170.216999952303,response,ISIC_0058625.JPG,6,ISIC_6188469.JPG,ISIC_6188469.JPG,false,0,keypress(z),500,180236.89999985695,180236.79999995232,177049.853,177115.29999995232,177066.583,180189.296,8,400,27,,ISIC_0058625.JPG
break,html.Screen,4_26_1,2023-09-07T23:21:23.599Z,,0,,,NaN,,,,,,false,,,,180237.29999995232,180237.20000004768,,180237,,180189.296,8,400,,,
break_continue,html.Screen,4_26_2,2023-09-07T23:21:23.599Z,,0,,,NaN,,,,,,false,,,,180237.70000004768,180237.5,,180237.39999985695,,180189.296,8,400,,,
sequence,flow.Sequence,4_26,2023-09-07T23:21:23.599Z,,0,,,3170.9169999999867,completion,,,,,false,,,,180237.70000004768,180237.5,177049.853,177115.29999995232,177066.583,180189.296,8,400,,,
trial,html.Screen,4_27_0,2023-09-07T23:21:27.329Z,,0,1,,3778.3039999046305,response,ISIC_2287083.JPG,5,ISIC_7306131.JPG,ISIC_2287083.JPG,false,1,keypress(m),500,183967.59999990463,183967.59999990463,180172.589,180237.79999995232,180189.296,183930.094,8,400,28,,ISIC_7306131.JPG
break,html.Screen,4_27_1,2023-09-07T23:21:27.330Z,,0,,,NaN,,,,,,false,,,,183968.09999990463,183967.89999985695,,183967.79999995232,,183930.094,8,400,,,
break_continue,html.Screen,4_27_2,2023-09-07T23:21:27.330Z,,0,,,NaN,,,,,,false,,,,183968.39999985695,183968.29999995232,,183968.09999990463,,183930.094,8,400,,,
sequence,flow.Sequence,4_27,2023-09-07T23:21:27.330Z,,0,,,3779.003999952314,completion,,,,,false,,,,183968.5,183968.29999995232,180172.589,180237.79999995232,180189.296,183930.094,8,400,,,
trial,html.Screen,4_28_0,2023-09-07T23:21:31.813Z,,0,1,,4521.205999952304,response,ISIC_0239949.JPG,6,ISIC_0006321.JPG,ISIC_0006321.JPG,false,0,keypress(z),500,188451.5,188451.29999995232,183913.234,183968.5,183930.094,188405.333,8,400,29,,ISIC_0239949.JPG
break,html.Screen,4_28_1,2023-09-07T23:21:31.814Z,,0,,,NaN,,,,,,false,,,,188452.20000004768,188451.89999985695,,188451.70000004768,,188405.333,8,400,,,
break_continue,html.Screen,4_28_2,2023-09-07T23:21:31.814Z,,0,,,NaN,,,,,,false,,,,188452.59999990463,188452.59999990463,,188452.39999985695,,188405.333,8,400,,,
sequence,flow.Sequence,4_28,2023-09-07T23:21:31.814Z,,0,,,4522.505999904621,completion,,,,,false,,,,188452.89999985695,188452.59999990463,183913.234,183968.5,183930.094,188405.333,8,400,,,
trial,html.Screen,4_29_0,2023-09-07T23:21:35.432Z,,0,1,,3665.2669999046193,response,ISIC_0032656.JPG,5,ISIC_8708106.JPG,ISIC_8708106.JPG,false,0,keypress(z),500,192070.70000004768,192070.59999990463,188388.619,188452.89999985695,188405.333,192029.186,8,400,30,,ISIC_0032656.JPG
break,html.Screen,4_29_1,2023-09-07T23:21:35.433Z,,0,,,NaN,,,,,,false,,,,192071.09999990463,192071,,192070.89999985695,,192029.186,8,400,,,
break_continue,html.Screen,4_29_2,2023-09-07T23:21:35.433Z,,0,,,NaN,,,,,,false,,,,192071.20000004768,192071.20000004768,,192071.09999990463,,192029.186,8,400,,,
sequence,flow.Sequence,4_29,2023-09-07T23:21:35.433Z,,0,,,3665.8670000476704,completion,,,,,false,,,,192071.29999995232,192071.20000004768,188388.619,188452.89999985695,188405.333,192029.186,8,400,,,
trial,html.Screen,4_30_0,2023-09-07T23:21:38.483Z,,0,1,,3091.6139999523293,response,ISIC_0010644.JPG,6,ISIC_4236274.JPG,ISIC_4236274.JPG,false,0,keypress(z),500,195120.89999985695,195120.79999995232,192012.307,192071.29999995232,192029.186,195084.954,8,400,31,,ISIC_0010644.JPG
break,html.Screen,4_30_1,2023-09-07T23:21:38.483Z,,0,,,NaN,,,,,,false,,,,195121.20000004768,195121.20000004768,,195121,,195084.954,8,400,,,
break_continue,html.Screen,4_30_2,2023-09-07T23:21:38.483Z,,0,,,NaN,,,,,,false,,,,195121.39999985695,195121.39999985695,,195121.29999995232,,195084.954,8,400,,,
sequence,flow.Sequence,4_30,2023-09-07T23:21:38.483Z,,0,,,3092.213999856962,completion,,,,,false,,,,195121.5,195121.39999985695,192012.307,192071.29999995232,192029.186,195084.954,8,400,,,
trial,html.Screen,4_31_0,2023-09-07T23:21:42.376Z,,0,1,,3929.445999856951,response,ISIC_0057655.JPG,5,ISIC_1149693.JPG,ISIC_1149693.JPG,false,0,keypress(z),500,199014.5,199014.39999985695,195068.422,195121.5,195084.954,198976.009,8,400,32,,ISIC_0057655.JPG
break,html.Screen,4_31_1,2023-09-07T23:21:42.377Z,,0,,,NaN,,,,,,false,,,,199015.20000004768,199015,,199014.79999995232,,198976.009,8,400,,,
break_continue,html.Screen,4_31_2,2023-09-07T23:21:42.377Z,,0,,,NaN,,,,,,false,,,,199015.59999990463,199015.5,,199015.39999985695,,198976.009,8,400,,,
sequence,flow.Sequence,4_31,2023-09-07T23:21:42.377Z,,0,,,3930.546000000002,completion,,,,,false,,,,199015.70000004768,199015.5,195068.422,195121.5,195084.954,198976.009,8,400,,,
trial,html.Screen,4_32_0,2023-09-07T23:21:45.163Z,,0,1,,2825.491000000009,response,ISIC_0000042.JPG,5,ISIC_2438917.JPG,ISIC_2438917.JPG,false,0,keypress(z),500,201801.70000004768,201801.5,198959.247,199015.79999995232,198976.009,201764.703,8,400,33,,ISIC_0000042.JPG
break,html.Screen,4_32_1,2023-09-07T23:21:45.164Z,,0,,,NaN,,,,,,false,,,,201802.20000004768,201802.09999990463,,201801.79999995232,,201764.703,8,400,,,
break_continue,html.Screen,4_32_2,2023-09-07T23:21:45.164Z,,0,,,NaN,,,,,,false,,,,201802.5,201802.39999985695,,201802.29999995232,,201764.703,8,400,,,
sequence,flow.Sequence,4_32,2023-09-07T23:21:45.164Z,,0,,,2826.390999856958,completion,,,,,false,,,,201802.5,201802.39999985695,198959.247,199015.79999995232,198976.009,201764.703,8,400,,,
trial,html.Screen,4_33_0,2023-09-07T23:21:48.845Z,,0,1,,3718.5969999523077,response,ISIC_3663705.JPG,5,ISIC_0025546.JPG,ISIC_3663705.JPG,false,1,keypress(m),500,205483.5,205483.29999995232,201747.95,201802.59999990463,201764.703,205438.442,8,400,34,,ISIC_0025546.JPG
break,html.Screen,4_33_1,2023-09-07T23:21:48.845Z,,0,,,NaN,,,,,,false,,,,205483.70000004768,205483.70000004768,,205483.5,,205438.442,8,400,,,
break_continue,html.Screen,4_33_2,2023-09-07T23:21:48.846Z,,0,,,NaN,,,,,,false,,,,205483.89999985695,205483.79999995232,,205483.79999995232,,205438.442,8,400,,,
sequence,flow.Sequence,4_33,2023-09-07T23:21:48.846Z,,0,,,3719.0969999523077,completion,,,,,false,,,,205483.89999985695,205483.79999995232,201747.95,201802.59999990463,201764.703,205438.442,8,400,,,
trial,html.Screen,4_34_0,2023-09-07T23:21:53.924Z,,0,1,,5123.457999856939,response,ISIC_0025305.JPG,5,ISIC_9395707.JPG,ISIC_9395707.JPG,false,0,keypress(z),500,210562,210561.89999985695,205421.75,205484.09999990463,205438.442,210514.967,8,400,35,,ISIC_0025305.JPG
break,html.Screen,4_34_1,2023-09-07T23:21:53.924Z,,0,,,NaN,,,,,,false,,,,210562.39999985695,210562.39999985695,,210562.20000004768,,210514.967,8,400,,,
break_continue,html.Screen,4_34_2,2023-09-07T23:21:53.924Z,,0,,,NaN,,,,,,false,,,,210562.70000004768,210562.59999990463,,210562.59999990463,,210514.967,8,400,,,
sequence,flow.Sequence,4_34,2023-09-07T23:21:53.924Z,,0,,,5124.157999904623,completion,,,,,false,,,,210562.79999995232,210562.59999990463,205421.75,205484.09999990463,205438.442,210514.967,8,400,,,
trial,html.Screen,4_35_0,2023-09-07T23:21:57.767Z,,0,1,,3889.6329999046284,response,ISIC_6384927.JPG,5,ISIC_0034107.JPG,ISIC_6384927.JPG,false,1,keypress(m),500,214405,214404.59999990463,210498.303,210562.89999985695,210514.967,214355.921,8,400,36,,ISIC_0034107.JPG
break,html.Screen,4_35_1,2023-09-07T23:21:57.768Z,,0,,,NaN,,,,,,false,,,,214406.59999990463,214406.20000004768,,214405.59999990463,,214355.921,8,400,,,
break_continue,html.Screen,4_35_2,2023-09-07T23:21:57.769Z,,0,,,NaN,,,,,,false,,,,214407.39999985695,214407.20000004768,,214406.89999985695,,214355.921,8,400,,,
sequence,flow.Sequence,4_35,2023-09-07T23:21:57.769Z,,0,,,3892.2330000476795,completion,,,,,false,,,,214407.79999995232,214407.20000004768,210498.303,210562.79999995232,210514.967,214355.921,8,400,,,
trial,html.Screen,4_36_0,2023-09-07T23:22:01.955Z,,0,1,,4237.078999999998,response,ISIC_5732201.JPG,6,ISIC_4436342.JPG,ISIC_4436342.JPG,false,0,keypress(z),500,218593.09999990463,218593,214339.073,214408,214355.921,218547.429,8,400,37,,ISIC_5732201.JPG
break,html.Screen,4_36_1,2023-09-07T23:22:01.955Z,,0,,,NaN,,,,,,false,,,,218593.39999985695,218593.39999985695,,218593.20000004768,,218547.429,8,400,,,
break_continue,html.Screen,4_36_2,2023-09-07T23:22:01.955Z,,0,,,NaN,,,,,,false,,,,218593.70000004768,218593.59999990463,,218593.5,,218547.429,8,400,,,
sequence,flow.Sequence,4_36,2023-09-07T23:22:01.955Z,,0,,,4237.6789999046305,completion,,,,,false,,,,218593.79999995232,218593.59999990463,214339.073,214408,214355.921,218547.429,8,400,,,
trial,html.Screen,4_37_0,2023-09-07T23:22:05.382Z,,0,1,,3472.8709999523126,response,ISIC_0465476.JPG,5,ISIC_3428523.JPG,ISIC_0465476.JPG,false,1,keypress(m),500,222020.39999985695,222020.29999995232,218530.599,218593.89999985695,218547.429,221970.572,8,400,38,,ISIC_3428523.JPG
break,html.Screen,4_37_1,2023-09-07T23:22:05.382Z,,0,,,NaN,,,,,,false,,,,222020.70000004768,222020.70000004768,,222020.5,,221970.572,8,400,,,
break_continue,html.Screen,4_37_2,2023-09-07T23:22:05.382Z,,0,,,NaN,,,,,,false,,,,222020.79999995232,222020.79999995232,,222020.70000004768,,221970.572,8,400,,,
sequence,flow.Sequence,4_37,2023-09-07T23:22:05.383Z,,0,,,3473.3709999523126,completion,,,,,false,,,,222020.89999985695,222020.79999995232,218530.599,218593.89999985695,218547.429,221970.572,8,400,,,
trial,html.Screen,4_38_0,2023-09-07T23:22:09.464Z,,0,1,,4131.128000047698,response,ISIC_4164882.JPG,4,ISIC_0027654.JPG,ISIC_4164882.JPG,false,1,keypress(m),500,226101.89999985695,226101.70000004768,221954.002,222021,221970.572,226061.987,8,400,39,,ISIC_0027654.JPG
break,html.Screen,4_38_1,2023-09-07T23:22:09.464Z,,0,,,NaN,,,,,,false,,,,226102.59999990463,226102.39999985695,,226102.09999990463,,226061.987,8,400,,,
break_continue,html.Screen,4_38_2,2023-09-07T23:22:09.465Z,,0,,,NaN,,,,,,false,,,,226103,226103,,226102.79999995232,,226061.987,8,400,,,
sequence,flow.Sequence,4_38,2023-09-07T23:22:09.465Z,,0,,,4132.428000000014,completion,,,,,false,,,,226103.20000004768,226103,221954.002,222021,221970.572,226061.987,8,400,,,
trial,html.Screen,4_39_0,2023-09-07T23:22:12.221Z,,0,1,,2797.21300004769,response,ISIC_0541345.JPG,4,ISIC_0011700.JPG,ISIC_0541345.JPG,false,1,keypress(m),500,228859.29999995232,228859.20000004768,226045.263,226104.39999985695,226061.987,228817.362,8,400,40,,ISIC_0011700.JPG
break,html.Screen,4_39_1,2023-09-07T23:22:12.221Z,,0,,,NaN,,,,,,false,,,,228859.70000004768,228859.5,,228859.39999985695,,228817.362,8,400,,,
break_continue,html.Screen,4_39_2,2023-09-07T23:22:12.222Z,,0,,,NaN,,,,,,false,,,,228860,228859.79999995232,,228859.79999995232,,228817.362,8,400,,,
sequence,flow.Sequence,4_39,2023-09-07T23:22:12.222Z,,0,,,2797.8129999523226,completion,,,,,false,,,,228860.09999990463,228859.79999995232,226045.263,226104.20000004768,226061.987,228817.362,8,400,,,
trial,html.Screen,4_40_0,2023-09-07T23:22:15.027Z,,0,1,,2847.4379999523226,response,ISIC_0015950.JPG,4,ISIC_0024265.JPG,ISIC_0015950.JPG,false,1,keypress(m),500,231665,231664.79999995232,228800.55,228860.09999990463,228817.362,231622.774,8,400,41,,ISIC_0024265.JPG
break,html.Screen,4_40_1,2023-09-07T23:22:15.028Z,,0,,,NaN,,,,,,false,,,,231665.70000004768,231665.39999985695,,231665.20000004768,,231622.774,8,400,,,
break_continue,html.Screen,4_40_2,2023-09-07T23:22:15.028Z,,0,,,NaN,,,,,,false,,,,231666,231665.89999985695,,231665.79999995232,,231622.774,8,400,,,
sequence,flow.Sequence,4_40,2023-09-07T23:22:15.028Z,,0,,,2848.537999856955,completion,,,,,false,,,,231666.09999990463,231665.89999985695,228800.55,228860.09999990463,228817.362,231622.774,8,400,,,
trial,html.Screen,4_41_0,2023-09-07T23:22:18.076Z,,0,1,,3090.5259999523114,response,ISIC_0012988.JPG,5,ISIC_6531118.JPG,ISIC_0012988.JPG,false,1,keypress(m),500,234713.5,234713.29999995232,231606.204,231666.29999995232,231622.774,234678.807,8,400,42,,ISIC_6531118.JPG
break,html.Screen,4_41_1,2023-09-07T23:22:18.076Z,,0,,,NaN,,,,,,false,,,,234713.89999985695,234713.89999985695,,234713.70000004768,,234678.807,8,400,,,
break_continue,html.Screen,4_41_2,2023-09-07T23:22:18.076Z,,0,,,NaN,,,,,,false,,,,234714.09999990463,234714,,234714,,234678.807,8,400,,,
sequence,flow.Sequence,4_41,2023-09-07T23:22:18.076Z,,0,,,3091.225999999995,completion,,,,,false,,,,234714.20000004768,234714,231606.204,231666.20000004768,231622.774,234678.807,8,400,,,
trial,html.Screen,4_42_0,2023-09-07T23:22:22.398Z,,0,1,,4356.792999904632,response,ISIC_0027408.JPG,6,ISIC_0072182.JPG,ISIC_0027408.JPG,false,1,keypress(m),500,239035.70000004768,239035.59999990463,234662.03,234714.29999995232,234678.807,238987.066,8,400,43,,ISIC_0072182.JPG
break,html.Screen,4_42_1,2023-09-07T23:22:22.398Z,,0,,,NaN,,,,,,false,,,,239036,239036,,239035.79999995232,,238987.066,8,400,,,
break_continue,html.Screen,4_42_2,2023-09-07T23:22:22.398Z,,0,,,NaN,,,,,,false,,,,239036.20000004768,239036.09999990463,,239036,,238987.066,8,400,,,
sequence,flow.Sequence,4_42,2023-09-07T23:22:22.398Z,,0,,,4357.292999904632,completion,,,,,false,,,,239036.29999995232,239036.09999990463,234662.03,234714.20000004768,234678.807,238987.066,8,400,,,
trial,html.Screen,4_43_0,2023-09-07T23:22:28.161Z,,0,1,,5811.434000000008,response,ISIC_0032656.JPG,5,ISIC_0054941.JPG,ISIC_0054941.JPG,false,0,keypress(z),500,244798.70000004768,244798.5,238970.353,239036.29999995232,238987.066,244764.987,8,400,44,,ISIC_0032656.JPG
break,html.Screen,4_43_1,2023-09-07T23:22:28.161Z,,0,,,NaN,,,,,,false,,,,244799.20000004768,244799.09999990463,,244798.89999985695,,244764.987,8,400,,,
break_continue,html.Screen,4_43_2,2023-09-07T23:22:28.162Z,,0,,,NaN,,,,,,false,,,,244799.29999995232,244799.20000004768,,244799.20000004768,,244764.987,8,400,,,
sequence,flow.Sequence,4_43,2023-09-07T23:22:28.162Z,,0,,,5812.134000047692,completion,,,,,false,,,,244799.39999985695,244799.20000004768,238970.353,239036.29999995232,238987.066,244764.987,8,400,,,
trial,html.Screen,4_44_0,2023-09-07T23:22:31.543Z,,0,1,,3416.0130000000063,response,ISIC_5648111.JPG,6,ISIC_0062286.JPG,ISIC_5648111.JPG,false,1,keypress(m),500,248181.09999990463,248181,244748.237,244799.5,244764.987,248138.373,8,400,45,,ISIC_0062286.JPG
break,html.Screen,4_44_1,2023-09-07T23:22:31.544Z,,0,,,NaN,,,,,,false,,,,248181.70000004768,248181.5,,248181.29999995232,,248138.373,8,400,,,
break_continue,html.Screen,4_44_2,2023-09-07T23:22:31.544Z,,0,,,NaN,,,,,,false,,,,248182,248182,,248181.89999985695,,248138.373,8,400,,,
sequence,flow.Sequence,4_44,2023-09-07T23:22:31.544Z,,0,,,3417.0130000000063,completion,,,,,false,,,,248182.09999990463,248182,244748.237,244799.5,244764.987,248138.373,8,400,,,
trial,html.Screen,4_45_0,2023-09-07T23:22:36.987Z,,0,1,,5486.0269998569565,response,ISIC_0010808.JPG,5,ISIC_0032233.JPG,ISIC_0032233.JPG,false,0,keypress(z),500,253624.70000004768,253624.39999985695,248121.567,248182.20000004768,248138.373,253582.142,8,400,46,,ISIC_0010808.JPG
break,html.Screen,4_45_1,2023-09-07T23:22:36.988Z,,0,,,NaN,,,,,,false,,,,253625.5,253625.29999995232,,253625,,253582.142,8,400,,,
break_continue,html.Screen,4_45_2,2023-09-07T23:22:36.988Z,,0,,,NaN,,,,,,false,,,,253626,253625.79999995232,,253625.70000004768,,253582.142,8,400,,,
sequence,flow.Sequence,4_45,2023-09-07T23:22:36.988Z,,0,,,5487.426999952324,completion,,,,,false,,,,253626.20000004768,253625.79999995232,248121.567,248182.20000004768,248138.373,253582.142,8,400,,,
trial,html.Screen,4_46_0,2023-09-07T23:22:42.096Z,,0,1,,5151.757999856956,response,ISIC_0013136.JPG,5,ISIC_0026982.JPG,ISIC_0013136.JPG,false,1,keypress(m),500,258734,258733.89999985695,253565.516,253626.39999985695,253582.142,258692.145,8,400,47,,ISIC_0026982.JPG
break,html.Screen,4_46_1,2023-09-07T23:22:42.097Z,,0,,,NaN,,,,,,false,,,,258734.39999985695,258734.39999985695,,258734.20000004768,,258692.145,8,400,,,
break_continue,html.Screen,4_46_2,2023-09-07T23:22:42.097Z,,0,,,NaN,,,,,,false,,,,258734.70000004768,258734.59999990463,,258734.5,,258692.145,8,400,,,
sequence,flow.Sequence,4_46,2023-09-07T23:22:42.097Z,,0,,,5152.45799990464,completion,,,,,false,,,,258734.79999995232,258734.59999990463,253565.516,253626.29999995232,253582.142,258692.145,8,400,,,
trial,html.Screen,4_47_0,2023-09-07T23:22:45.411Z,,0,1,,3356.2549998569593,response,ISIC_0011126.JPG,5,ISIC_5194705.JPG,ISIC_5194705.JPG,false,0,keypress(z),500,262048.59999990463,262048.39999985695,258675.458,258734.89999985695,258692.145,262015.232,8,400,48,,ISIC_0011126.JPG
break,html.Screen,4_47_1,2023-09-07T23:22:45.411Z,,0,,,NaN,,,,,,false,,,,262048.79999995232,262048.79999995232,,262048.70000004768,,262015.232,8,400,,,
break_continue,html.Screen,4_47_2,2023-09-07T23:22:45.411Z,,0,,,NaN,,,,,,false,,,,262049,262049,,262048.89999985695,,262015.232,8,400,,,
sequence,flow.Sequence,4_47,2023-09-07T23:22:45.411Z,,0,,,3356.8550000000105,completion,,,,,false,,,,262049,262049,258675.458,258734.89999985695,258692.145,262015.232,8,400,,,
trial,html.Screen,4_48_0,2023-09-07T23:22:49.351Z,,0,1,,3973.8679999046435,response,ISIC_0029914.JPG,5,ISIC_1023354.JPG,ISIC_1023354.JPG,false,0,keypress(z),500,265989.2000000477,265989.09999990463,261998.6,262049,262015.232,265956.18,8,400,49,,ISIC_0029914.JPG
break,html.Screen,4_48_1,2023-09-07T23:22:49.352Z,,0,,,NaN,,,,,,false,,,,265989.5,265989.39999985695,,265989.2999999523,,265956.18,8,400,,,
break_continue,html.Screen,4_48_2,2023-09-07T23:22:49.352Z,,0,,,NaN,,,,,,false,,,,265989.5,265989.5,,265989.5,,265956.18,8,400,,,
sequence,flow.Sequence,4_48,2023-09-07T23:22:49.352Z,,0,,,3974.268000000011,completion,,,,,false,,,,265989.7000000477,265989.5,261998.6,262049,262015.232,265956.18,8,400,,,
trial,html.Screen,4_49_0,2023-09-07T23:22:53.650Z,,0,1,,4331.219999856956,response,ISIC_0063241.JPG,6,ISIC_9384835.JPG,ISIC_9384835.JPG,false,0,keypress(z),500,270287.5,270287.39999985695,265939.5,265989.7999999523,265956.18,270248.074,8,400,50,,ISIC_0063241.JPG
break,html.Screen,4_49_1,2023-09-07T23:23:03.648Z,,0,,,10002.755999999994,timeout,,,,,false,,,,280285.7999999523,280234.012,270231.254,270287.59999990463,270248.074,280250.83,8,400,,,
break_continue,html.Screen,4_49_2,2023-09-07T23:23:05.166Z,,0,,,1548.6699999999837,response,,,,,false,continue,keypress(Space),,281804.09999990463,281799.5,280234.012,280285.7999999523,280250.83,281770.411,8,400,,,
sequence,flow.Sequence,4_49,2023-09-07T23:23:05.166Z,,0,,,15843.320000000007,completion,,,,,false,,,,281804.2000000477,281799.5,265939.5,265989.7000000477,265956.18,281770.411,8,400,,,
trial,html.Screen,4_50_0,2023-09-07T23:23:10.433Z,,0,2,,5299.688999904611,response,ISIC_5434055.JPG,4,ISIC_3074949.JPG,ISIC_3074949.JPG,false,0,keypress(z),500,287070.2999999523,287070.09999990463,281753.584,281804.2999999523,281770.411,287047.25,8,400,1,,ISIC_5434055.JPG
break,html.Screen,4_50_1,2023-09-07T23:23:10.433Z,,0,,,NaN,,,,,,false,,,,287071,287070.7999999523,,287070.5,,287047.25,8,400,,,
break_continue,html.Screen,4_50_2,2023-09-07T23:23:10.433Z,,0,,,NaN,,,,,,false,,,,287071.09999990463,287071.09999990463,,287071,,287047.25,8,400,,,
sequence,flow.Sequence,4_50,2023-09-07T23:23:10.433Z,,0,,,5300.688999904611,completion,,,,,false,,,,287071.2000000477,287071.09999990463,281753.584,281804.2999999523,281770.411,287047.25,8,400,,,
trial,html.Screen,4_51_0,2023-09-07T23:23:14.755Z,,0,2,,4345.450000047684,response,ISIC_3295750.JPG,4,ISIC_0055440.JPG,ISIC_3295750.JPG,false,1,keypress(m),500,291392.7999999523,291392.7000000477,287030.578,287071.2999999523,287047.25,291355.857,8,400,2,,ISIC_0055440.JPG
break,html.Screen,4_51_1,2023-09-07T23:23:14.755Z,,0,,,NaN,,,,,,false,,,,291393.09999990463,291393.09999990463,,291392.89999985695,,291355.857,8,400,,,
break_continue,html.Screen,4_51_2,2023-09-07T23:23:14.756Z,,0,,,NaN,,,,,,false,,,,291393.2000000477,291393.2000000477,,291393.2000000477,,291355.857,8,400,,,
sequence,flow.Sequence,4_51,2023-09-07T23:23:14.756Z,,0,,,4345.950000047684,completion,,,,,false,,,,291393.2999999523,291393.2000000477,287030.578,287071.2000000477,287047.25,291355.857,8,400,,,
trial,html.Screen,4_52_0,2023-09-07T23:23:22.006Z,,0,2,,7287.942999952298,response,ISIC_6101007.JPG,4,ISIC_0031877.JPG,ISIC_0031877.JPG,false,0,keypress(z),500,298643.89999985695,298643.7999999523,291339.091,291393.39999985695,291355.857,298603.237,8,400,3,,ISIC_6101007.JPG
break,html.Screen,4_52_1,2023-09-07T23:23:22.007Z,,0,,,NaN,,,,,,false,,,,298644.2999999523,298644.09999990463,,298643.89999985695,,298603.237,8,400,,,
break_continue,html.Screen,4_52_2,2023-09-07T23:23:22.007Z,,0,,,NaN,,,,,,false,,,,298644.59999990463,298644.39999985695,,298644.39999985695,,298603.237,8,400,,,
sequence,flow.Sequence,4_52,2023-09-07T23:23:22.007Z,,0,,,7288.542999856931,completion,,,,,false,,,,298644.7000000477,298644.39999985695,291339.091,291393.39999985695,291355.857,298603.237,8,400,,,
trial,html.Screen,4_53_0,2023-09-07T23:23:25.055Z,,0,2,,3089.162999856926,response,ISIC_0693902.JPG,5,ISIC_0030828.JPG,ISIC_0693902.JPG,false,1,keypress(m),500,301692.59999990463,301692.39999985695,298586.53,298644.7999999523,298603.237,301660.039,8,400,4,,ISIC_0030828.JPG
break,html.Screen,4_53_1,2023-09-07T23:23:25.055Z,,0,,,NaN,,,,,,false,,,,301692.89999985695,301692.7999999523,,301692.7000000477,,301660.039,8,400,,,
break_continue,html.Screen,4_53_2,2023-09-07T23:23:25.055Z,,0,,,NaN,,,,,,false,,,,301693,301693,,301692.89999985695,,301660.039,8,400,,,
sequence,flow.Sequence,4_53,2023-09-07T23:23:25.055Z,,0,,,3089.762999999977,completion,,,,,false,,,,301693.09999990463,301693,298586.53,298644.7999999523,298603.237,301660.039,8,400,,,
trial,html.Screen,4_54_0,2023-09-07T23:23:28.225Z,,0,2,,3202.360999856959,response,ISIC_5859812.JPG,5,ISIC_2232442.JPG,ISIC_5859812.JPG,false,1,keypress(m),500,304863,304862.39999985695,301625.796,301693.09999990463,301660.039,304831.861,8,400,5,,ISIC_2232442.JPG
break,html.Screen,4_54_1,2023-09-07T23:23:28.226Z,,0,,,NaN,,,,,,false,,,,304863.59999990463,304863.59999990463,,304863.2999999523,,304831.861,8,400,,,
break_continue,html.Screen,4_54_2,2023-09-07T23:23:28.226Z,,0,,,NaN,,,,,,false,,,,304863.7999999523,304863.7999999523,,304863.7000000477,,304831.861,8,400,,,
sequence,flow.Sequence,4_54,2023-09-07T23:23:28.227Z,,0,,,3203.7609999523265,completion,,,,,false,,,,304864.7000000477,304863.7999999523,301625.796,301693.09999990463,301660.039,304831.861,8,400,,,
trial,html.Screen,4_55_0,2023-09-07T23:23:32.165Z,,0,2,,3970.1390000000247,response,ISIC_4043580.JPG,5,ISIC_0011863.JPG,ISIC_4043580.JPG,false,1,keypress(m),500,308802.2999999523,308802,304815.19,304864.7999999523,304831.861,308772.859,8,400,6,,ISIC_0011863.JPG
break,html.Screen,4_55_1,2023-09-07T23:23:32.165Z,,0,,,NaN,,,,,,false,,,,308802.59999990463,308802.5,,308802.39999985695,,308772.859,8,400,,,
break_continue,html.Screen,4_55_2,2023-09-07T23:23:32.165Z,,0,,,NaN,,,,,,false,,,,308802.7000000477,308802.7000000477,,308802.59999990463,,308772.859,8,400,,,
sequence,flow.Sequence,4_55,2023-09-07T23:23:32.165Z,,0,,,3970.8390000477084,completion,,,,,false,,,,308802.7999999523,308802.7000000477,304815.19,304864.7999999523,304831.861,308772.859,8,400,,,
trial,html.Screen,4_56_0,2023-09-07T23:23:35.753Z,,0,2,,3617.540999856952,response,ISIC_0062536.JPG,5,ISIC_5808758.JPG,ISIC_5808758.JPG,false,0,keypress(z),500,312390.59999990463,312390.39999985695,308756.124,308802.7999999523,308772.859,312346.449,8,400,7,,ISIC_0062536.JPG
break,html.Screen,4_56_1,2023-09-07T23:23:35.753Z,,0,,,NaN,,,,,,false,,,,312391.09999990463,312390.89999985695,,312390.7000000477,,312346.449,8,400,,,
break_continue,html.Screen,4_56_2,2023-09-07T23:23:35.754Z,,0,,,NaN,,,,,,false,,,,312391.2999999523,312391.2999999523,,312391.2000000477,,312346.449,8,400,,,
sequence,flow.Sequence,4_56,2023-09-07T23:23:35.754Z,,0,,,3618.4409999523195,completion,,,,,false,,,,312391.5,312391.2999999523,308756.124,308802.7999999523,308772.859,312346.449,8,400,,,
trial,html.Screen,4_57_0,2023-09-07T23:23:39.164Z,,0,2,,3455.2510000476614,response,ISIC_0066564.JPG,5,ISIC_6088194.JPG,ISIC_6088194.JPG,false,0,keypress(z),500,315802,315801.7000000477,312329.782,312391.5,312346.449,315753.137,8,400,8,,ISIC_0066564.JPG
break,html.Screen,4_57_1,2023-09-07T23:23:39.165Z,,0,,,NaN,,,,,,false,,,,315802.5,315802.5,,315802.09999990463,,315753.137,8,400,,,
break_continue,html.Screen,4_57_2,2023-09-07T23:23:39.165Z,,0,,,NaN,,,,,,false,,,,315803,315802.89999985695,,315802.7000000477,,315753.137,8,400,,,
sequence,flow.Sequence,4_57,2023-09-07T23:23:39.165Z,,0,,,3456.4509998569265,completion,,,,,false,,,,315803.09999990463,315802.89999985695,312329.782,312391.5,312346.449,315753.137,8,400,,,
trial,html.Screen,4_58_0,2023-09-07T23:23:43.842Z,,0,2,,4726.162999952328,response,ISIC_0072569.JPG,5,ISIC_7959386.JPG,ISIC_7959386.JPG,false,0,keypress(z),500,320479.39999985695,320479.2999999523,315736.438,315803.2999999523,315753.137,320446.877,8,400,9,,ISIC_0072569.JPG
break,html.Screen,4_58_1,2023-09-07T23:23:43.842Z,,0,,,NaN,,,,,,false,,,,320480,320479.7999999523,,320479.59999990463,,320446.877,8,400,,,
break_continue,html.Screen,4_58_2,2023-09-07T23:23:43.843Z,,0,,,NaN,,,,,,false,,,,320480.2999999523,320480.2000000477,,320480,,320446.877,8,400,,,
sequence,flow.Sequence,4_58,2023-09-07T23:23:43.843Z,,0,,,4727.063000047696,completion,,,,,false,,,,320480.39999985695,320480.2000000477,315736.438,315803.2000000477,315753.137,320446.877,8,400,,,
trial,html.Screen,4_59_0,2023-09-07T23:23:46.616Z,,0,2,,2806.6230000000214,response,ISIC_2175855.JPG,6,ISIC_3654454.JPG,ISIC_2175855.JPG,false,1,keypress(m),500,323253.7000000477,323253.5,320412.41,320480.5,320446.877,323217.778,8,400,10,,ISIC_3654454.JPG
break,html.Screen,4_59_1,2023-09-07T23:23:46.616Z,,0,,,NaN,,,,,,false,,,,323254,323253.89999985695,,323253.7999999523,,323217.778,8,400,,,
break_continue,html.Screen,4_59_2,2023-09-07T23:23:46.616Z,,0,,,NaN,,,,,,false,,,,323254.2000000477,323254.09999990463,,323254.09999990463,,323217.778,8,400,,,
sequence,flow.Sequence,4_59,2023-09-07T23:23:46.617Z,,0,,,2807.222999904654,completion,,,,,false,,,,323254.2999999523,323254.09999990463,320412.41,320480.5,320446.877,323217.778,8,400,,,
trial,html.Screen,4_60_0,2023-09-07T23:23:52.207Z,,0,2,,5626.422000047693,response,ISIC_1146341.JPG,5,ISIC_0012904.JPG,ISIC_1146341.JPG,false,1,keypress(m),500,328844.2999999523,328844.2000000477,323201.122,323254.39999985695,323217.778,328795.182,8,400,11,,ISIC_0012904.JPG
break,html.Screen,4_60_1,2023-09-07T23:23:52.207Z,,0,,,NaN,,,,,,false,,,,328844.7000000477,328844.59999990463,,328844.39999985695,,328795.182,8,400,,,
break_continue,html.Screen,4_60_2,2023-09-07T23:23:52.207Z,,0,,,NaN,,,,,,false,,,,328845.09999990463,328844.89999985695,,328844.89999985695,,328795.182,8,400,,,
sequence,flow.Sequence,4_60,2023-09-07T23:23:52.207Z,,0,,,5627.121999856958,completion,,,,,false,,,,328845.09999990463,328844.89999985695,323201.122,323254.39999985695,323217.778,328795.182,8,400,,,
trial,html.Screen,4_61_0,2023-09-07T23:23:55.413Z,,0,2,,3255.8180000000284,response,ISIC_0059264.JPG,4,ISIC_6577767.JPG,ISIC_6577767.JPG,false,0,keypress(z),500,332051.2000000477,332051,328778.641,328845.2999999523,328795.182,332001.387,8,400,12,,ISIC_0059264.JPG
break,html.Screen,4_61_1,2023-09-07T23:23:55.414Z,,0,,,NaN,,,,,,false,,,,332051.59999990463,332051.39999985695,,332051.2999999523,,332001.387,8,400,,,
break_continue,html.Screen,4_61_2,2023-09-07T23:23:55.414Z,,0,,,NaN,,,,,,false,,,,332052.09999990463,332052,,332051.7999999523,,332001.387,8,400,,,
sequence,flow.Sequence,4_61,2023-09-07T23:23:55.414Z,,0,,,3256.8180000000284,completion,,,,,false,,,,332052.2000000477,332052,328778.641,328845.2000000477,328795.182,332001.387,8,400,,,
trial,html.Screen,4_62_0,2023-09-07T23:24:00.551Z,,0,2,,5187.412999952328,response,ISIC_0588855.JPG,5,ISIC_0375034.JPG,ISIC_0588855.JPG,false,1,keypress(m),500,337189,337188.7999999523,331984.699,332052.2999999523,332001.387,337161.514,8,400,13,,ISIC_0375034.JPG
break,html.Screen,4_62_1,2023-09-07T23:24:00.552Z,,0,,,NaN,,,,,,false,,,,337189.5,337189.39999985695,,337189.2000000477,,337161.514,8,400,,,
break_continue,html.Screen,4_62_2,2023-09-07T23:24:00.552Z,,0,,,NaN,,,,,,false,,,,337189.7999999523,337189.7000000477,,337189.7000000477,,337161.514,8,400,,,
sequence,flow.Sequence,4_62,2023-09-07T23:24:00.552Z,,0,,,5188.313000047696,completion,,,,,false,,,,337190,337189.7000000477,331984.699,332052.2000000477,332001.387,337161.514,8,400,,,
trial,html.Screen,4_63_0,2023-09-07T23:24:03.472Z,,0,2,,2947.885999856924,response,ISIC_2797576.JPG,5,ISIC_0668772.JPG,ISIC_2797576.JPG,false,1,keypress(m),500,340109.39999985695,340109.39999985695,337144.76,337190,337161.514,340067.077,8,400,14,,ISIC_0668772.JPG
break,html.Screen,4_63_1,2023-09-07T23:24:03.472Z,,0,,,NaN,,,,,,false,,,,340109.7999999523,340109.59999990463,,340109.59999990463,,340067.077,8,400,,,
break_continue,html.Screen,4_63_2,2023-09-07T23:24:03.472Z,,0,,,NaN,,,,,,false,,,,340110,340109.89999985695,,340109.89999985695,,340067.077,8,400,,,
sequence,flow.Sequence,4_63,2023-09-07T23:24:03.472Z,,0,,,2948.385999856924,completion,,,,,false,,,,340110.09999990463,340109.89999985695,337144.76,337190,337161.514,340067.077,8,400,,,
trial,html.Screen,4_64_0,2023-09-07T23:24:06.406Z,,0,2,,2976.222999952326,response,ISIC_0011126.JPG,4,ISIC_0026407.JPG,ISIC_0026407.JPG,false,0,keypress(z),500,343043.5,343043.2999999523,340050.364,340110.09999990463,340067.077,343006.194,8,400,15,,ISIC_0011126.JPG
break,html.Screen,4_64_1,2023-09-07T23:24:06.406Z,,0,,,NaN,,,,,,false,,,,343043.89999985695,343043.7999999523,,343043.59999990463,,343006.194,8,400,,,
break_continue,html.Screen,4_64_2,2023-09-07T23:24:06.406Z,,0,,,NaN,,,,,,false,,,,343044.09999990463,343044.09999990463,,343043.89999985695,,343006.194,8,400,,,
sequence,flow.Sequence,4_64,2023-09-07T23:24:06.407Z,,0,,,2977.0229999046423,completion,,,,,false,,,,343044.2000000477,343044.09999990463,340050.364,340110.09999990463,340067.077,343006.194,8,400,,,
trial,html.Screen,4_65_0,2023-09-07T23:24:09.271Z,,0,2,,2902.705999856931,response,ISIC_4884394.JPG,5,ISIC_0033885.JPG,ISIC_4884394.JPG,false,1,keypress(m),500,345909,345908.89999985695,342989.671,343044.2999999523,343006.194,345861.75,8,400,16,,ISIC_0033885.JPG
break,html.Screen,4_65_1,2023-09-07T23:24:09.272Z,,0,,,NaN,,,,,,false,,,,345909.7000000477,345909.5,,345909.2000000477,,345861.75,8,400,,,
break_continue,html.Screen,4_65_2,2023-09-07T23:24:09.272Z,,0,,,NaN,,,,,,false,,,,345910.09999990463,345910,,345909.7999999523,,345861.75,8,400,,,
sequence,flow.Sequence,4_65,2023-09-07T23:24:09.273Z,,0,,,2903.8059999999823,completion,,,,,false,,,,345910.2000000477,345910,342989.671,343044.2999999523,343006.194,345861.75,8,400,,,
trial,html.Screen,4_66_0,2023-09-07T23:24:13.962Z,,0,2,,4737.75,response,ISIC_0032629.JPG,6,ISIC_2847555.JPG,ISIC_2847555.JPG,false,0,keypress(z),500,350599.7999999523,350599.5,345845.006,345910.2999999523,345861.75,350554.27,8,400,17,,ISIC_0032629.JPG
break,html.Screen,4_66_1,2023-09-07T23:24:13.963Z,,0,,,NaN,,,,,,false,,,,350600.39999985695,350600.2000000477,,350600,,350554.27,8,400,,,
break_continue,html.Screen,4_66_2,2023-09-07T23:24:13.963Z,,0,,,NaN,,,,,,false,,,,350600.7999999523,350600.7000000477,,350600.59999990463,,350554.27,8,400,,,
sequence,flow.Sequence,4_66,2023-09-07T23:24:13.963Z,,0,,,4738.950000047684,completion,,,,,false,,,,350601,350600.7000000477,345845.006,345910.2999999523,345861.75,350554.27,8,400,,,
trial,html.Screen,4_67_0,2023-09-07T23:24:17.586Z,,0,2,,3668.7299999999814,response,ISIC_4271108.JPG,5,ISIC_6416533.JPG,ISIC_4271108.JPG,false,1,keypress(m),500,354223.2000000477,354223,350537.469,350601,350554.27,354177.986,8,400,18,,ISIC_6416533.JPG
break,html.Screen,4_67_1,2023-09-07T23:24:17.586Z,,0,,,NaN,,,,,,false,,,,354223.5,354223.39999985695,,354223.2999999523,,354177.986,8,400,,,
break_continue,html.Screen,4_67_2,2023-09-07T23:24:17.586Z,,0,,,NaN,,,,,,false,,,,354223.59999990463,354223.5,,354223.5,,354177.986,8,400,,,
sequence,flow.Sequence,4_67,2023-09-07T23:24:17.586Z,,0,,,3669.2299999999814,completion,,,,,false,,,,354223.59999990463,354223.5,350537.469,350601,350554.27,354177.986,8,400,,,
trial,html.Screen,4_68_0,2023-09-07T23:24:20.435Z,,0,2,,2894.313999952341,response,ISIC_6661691.JPG,5,ISIC_0028225.JPG,ISIC_6661691.JPG,false,1,keypress(m),500,357072.5,357072.2999999523,354161.357,354223.7000000477,354177.986,357033.507,8,400,19,,ISIC_0028225.JPG
break,html.Screen,4_68_1,2023-09-07T23:24:20.435Z,,0,,,NaN,,,,,,false,,,,357073,357072.89999985695,,357072.59999990463,,357033.507,8,400,,,
break_continue,html.Screen,4_68_2,2023-09-07T23:24:20.436Z,,0,,,NaN,,,,,,false,,,,357073.2000000477,357073.09999990463,,357073,,357033.507,8,400,,,
sequence,flow.Sequence,4_68,2023-09-07T23:24:20.436Z,,0,,,2895.1139999046572,completion,,,,,false,,,,357073.2999999523,357073.09999990463,354161.357,354223.7000000477,354177.986,357033.507,8,400,,,
trial,html.Screen,4_69_0,2023-09-07T23:24:23.417Z,,0,2,,3021.0929999046493,response,ISIC_0001831.JPG,5,ISIC_7621389.JPG,ISIC_0001831.JPG,false,1,keypress(m),500,360054.7000000477,360054.59999990463,357016.834,357073.5,357033.507,360005.917,8,400,20,,ISIC_7621389.JPG
break,html.Screen,4_69_1,2023-09-07T23:24:23.418Z,,0,,,NaN,,,,,,false,,,,360055.09999990463,360055,,360054.7999999523,,360005.917,8,400,,,
break_continue,html.Screen,4_69_2,2023-09-07T23:24:23.418Z,,0,,,NaN,,,,,,false,,,,360055.39999985695,360055.2999999523,,360055.2000000477,,360005.917,8,400,,,
sequence,flow.Sequence,4_69,2023-09-07T23:24:23.418Z,,0,,,3021.792999952333,completion,,,,,false,,,,360055.5,360055.2999999523,357016.834,357073.39999985695,357033.507,360005.917,8,400,,,
trial,html.Screen,4_70_0,2023-09-07T23:24:27.105Z,,0,2,,3736.482999856933,response,ISIC_1226882.JPG,5,ISIC_7765349.JPG,ISIC_1226882.JPG,false,1,keypress(m),500,363742.59999990463,363742.39999985695,359989.295,360055.59999990463,360005.917,363696.483,8,400,21,,ISIC_7765349.JPG
break,html.Screen,4_70_1,2023-09-07T23:24:27.105Z,,0,,,NaN,,,,,,false,,,,363743,363742.89999985695,,363742.7000000477,,363696.483,8,400,,,
break_continue,html.Screen,4_70_2,2023-09-07T23:24:27.106Z,,0,,,NaN,,,,,,false,,,,363743.39999985695,363743.2999999523,,363743.2000000477,,363696.483,8,400,,,
sequence,flow.Sequence,4_70,2023-09-07T23:24:27.106Z,,0,,,3737.3829999523005,completion,,,,,false,,,,363743.5,363743.2999999523,359989.295,360055.59999990463,360005.917,363696.483,8,400,,,
trial,html.Screen,4_71_0,2023-09-07T23:24:31.864Z,,0,2,,4805.416999856941,response,ISIC_7528996.JPG,5,ISIC_8969855.JPG,ISIC_7528996.JPG,false,1,keypress(m),500,368502,368501.89999985695,363679.795,363743.59999990463,363696.483,368455.65,8,400,22,,ISIC_8969855.JPG
break,html.Screen,4_71_1,2023-09-07T23:24:31.865Z,,0,,,NaN,,,,,,false,,,,368502.2999999523,368502.2000000477,,368502.09999990463,,368455.65,8,400,,,
break_continue,html.Screen,4_71_2,2023-09-07T23:24:31.865Z,,0,,,NaN,,,,,,false,,,,368502.5,368502.5,,368502.39999985695,,368455.65,8,400,,,
sequence,flow.Sequence,4_71,2023-09-07T23:24:31.865Z,,0,,,4806.016999999993,completion,,,,,false,,,,368502.59999990463,368502.5,363679.795,363743.5,363696.483,368455.65,8,400,,,
trial,html.Screen,4_72_0,2023-09-07T23:24:35.754Z,,0,2,,3936.0500000476604,response,ISIC_5903193.JPG,5,ISIC_1831600.JPG,ISIC_5903193.JPG,false,1,keypress(m),500,372391.7999999523,372391.7000000477,368438.964,368502.59999990463,368455.65,372346.666,8,400,23,,ISIC_1831600.JPG
break,html.Screen,4_72_1,2023-09-07T23:24:35.754Z,,0,,,NaN,,,,,,false,,,,372392,372392,,372391.7999999523,,372346.666,8,400,,,
break_continue,html.Screen,4_72_2,2023-09-07T23:24:35.755Z,,0,,,NaN,,,,,,false,,,,372392.2000000477,372392.2000000477,,372392.09999990463,,372346.666,8,400,,,
sequence,flow.Sequence,4_72,2023-09-07T23:24:35.755Z,,0,,,3936.5500000476604,completion,,,,,false,,,,372392.2000000477,372392.2000000477,368438.964,368502.59999990463,368455.65,372346.666,8,400,,,
trial,html.Screen,4_73_0,2023-09-07T23:24:39.377Z,,0,2,,3668.034000047657,response,ISIC_9860895.JPG,5,ISIC_0063692.JPG,ISIC_9860895.JPG,false,1,keypress(m),500,376014.89999985695,376014.7000000477,372329.918,372392.2999999523,372346.666,375970.322,8,400,24,,ISIC_0063692.JPG
break,html.Screen,4_73_1,2023-09-07T23:24:39.378Z,,0,,,NaN,,,,,,false,,,,376015.5,376015.2999999523,,376015.09999990463,,375970.322,8,400,,,
break_continue,html.Screen,4_73_2,2023-09-07T23:24:39.378Z,,0,,,NaN,,,,,,false,,,,376015.7999999523,376015.7000000477,,376015.59999990463,,375970.322,8,400,,,
sequence,flow.Sequence,4_73,2023-09-07T23:24:39.378Z,,0,,,3669.034000047657,completion,,,,,false,,,,376015.89999985695,376015.7000000477,372329.918,372392.2999999523,372346.666,375970.322,8,400,,,
trial,html.Screen,4_74_0,2023-09-07T23:24:42.058Z,,0,2,,2724.6780000000144,response,ISIC_0061418.JPG,5,ISIC_6260086.JPG,ISIC_0061418.JPG,false,1,keypress(m),500,378695.2000000477,378695,375953.566,376016.09999990463,375970.322,378658.98,8,400,25,,ISIC_6260086.JPG
break,html.Screen,4_74_1,2023-09-07T23:24:42.058Z,,0,,,NaN,,,,,,false,,,,378695.59999990463,378695.5,,378695.2999999523,,378658.98,8,400,,,
break_continue,html.Screen,4_74_2,2023-09-07T23:24:42.058Z,,0,,,NaN,,,,,,false,,,,378695.89999985695,378695.7000000477,,378695.59999990463,,378658.98,8,400,,,
sequence,flow.Sequence,4_74,2023-09-07T23:24:42.058Z,,0,,,2725.378000047698,completion,,,,,false,,,,378696,378695.7000000477,375953.566,376016,375970.322,378658.98,8,400,,,
trial,html.Screen,4_75_0,2023-09-07T23:24:48.396Z,,0,2,,6374.020000000019,response,ISIC_2560463.JPG,4,ISIC_3560519.JPG,ISIC_2560463.JPG,false,1,keypress(m),500,385033.39999985695,385033,378642.191,378696,378658.98,384987.971,8,400,26,,ISIC_3560519.JPG
break,html.Screen,4_75_1,2023-09-07T23:24:48.397Z,,0,,,NaN,,,,,,false,,,,385034.5,385034.2000000477,,385033.7000000477,,384987.971,8,400,,,
break_continue,html.Screen,4_75_2,2023-09-07T23:24:48.398Z,,0,,,NaN,,,,,,false,,,,385035.2000000477,385035,,385034.7999999523,,384987.971,8,400,,,
sequence,flow.Sequence,4_75,2023-09-07T23:24:48.398Z,,0,,,6376.020000000019,completion,,,,,false,,,,385035.39999985695,385035,378642.191,378696,378658.98,384987.971,8,400,,,
trial,html.Screen,4_76_0,2023-09-07T23:24:51.591Z,,0,2,,3240.128999904613,response,ISIC_0000167.JPG,5,ISIC_0032526.JPG,ISIC_0032526.JPG,false,0,keypress(z),500,388228.2999999523,388228.09999990463,384971.302,385035.7000000477,384987.971,388194.245,8,400,27,,ISIC_0000167.JPG
break,html.Screen,4_76_1,2023-09-07T23:24:51.591Z,,0,,,NaN,,,,,,false,,,,388228.59999990463,388228.59999990463,,388228.39999985695,,388194.245,8,400,,,
break_continue,html.Screen,4_76_2,2023-09-07T23:24:51.591Z,,0,,,NaN,,,,,,false,,,,388228.7999999523,388228.7999999523,,388228.59999990463,,388194.245,8,400,,,
sequence,flow.Sequence,4_76,2023-09-07T23:24:51.591Z,,0,,,3240.8289999522967,completion,,,,,false,,,,388228.89999985695,388228.7999999523,384971.302,385035.59999990463,384987.971,388194.245,8,400,,,
trial,html.Screen,4_77_0,2023-09-07T23:24:54.392Z,,0,2,,2835.6549998569535,response,ISIC_0033265.JPG,5,ISIC_6824842.JPG,ISIC_6824842.JPG,false,0,keypress(z),500,391030.09999990463,391029.89999985695,388177.382,388229,388194.245,390982.844,8,400,28,,ISIC_0033265.JPG
break,html.Screen,4_77_1,2023-09-07T23:24:54.393Z,,0,,,NaN,,,,,,false,,,,391030.5,391030.39999985695,,391030.2000000477,,390982.844,8,400,,,
break_continue,html.Screen,4_77_2,2023-09-07T23:24:54.393Z,,0,,,NaN,,,,,,false,,,,391030.7999999523,391030.7000000477,,391030.59999990463,,390982.844,8,400,,,
sequence,flow.Sequence,4_77,2023-09-07T23:24:54.393Z,,0,,,2836.4550000476884,completion,,,,,false,,,,391031,391030.7000000477,388177.382,388228.89999985695,388194.245,390982.844,8,400,,,
trial,html.Screen,4_78_0,2023-09-07T23:25:02.091Z,,0,2,,7745.656000000017,response,ISIC_0027356.JPG,4,ISIC_0897248.JPG,ISIC_0897248.JPG,false,0,keypress(z),500,398728.7999999523,398728.5,390966.235,391031,390982.844,398681.151,8,400,29,,ISIC_0027356.JPG
break,html.Screen,4_78_1,2023-09-07T23:25:02.092Z,,0,,,NaN,,,,,,false,,,,398729.89999985695,398729.7000000477,,398729.2000000477,,398681.151,8,400,,,
break_continue,html.Screen,4_78_2,2023-09-07T23:25:02.093Z,,0,,,NaN,,,,,,false,,,,398730.7000000477,398730.5,,398730.2000000477,,398681.151,8,400,,,
sequence,flow.Sequence,4_78,2023-09-07T23:25:02.093Z,,0,,,7747.656000000017,completion,,,,,false,,,,398731,398730.5,390966.235,391031,390982.844,398681.151,8,400,,,
trial,html.Screen,4_79_0,2023-09-07T23:25:06.992Z,,0,2,,4948.549000047671,response,ISIC_3012778.JPG,5,ISIC_0028275.JPG,ISIC_3012778.JPG,false,1,keypress(m),500,403629.7999999523,403629.7000000477,398664.523,398731.09999990463,398681.151,403607.489,8,400,30,,ISIC_0028275.JPG
break,html.Screen,4_79_1,2023-09-07T23:25:06.993Z,,0,,,NaN,,,,,,false,,,,403630.2000000477,403630,,403630,,403607.489,8,400,,,
break_continue,html.Screen,4_79_2,2023-09-07T23:25:06.993Z,,0,,,NaN,,,,,,false,,,,403630.2999999523,403630.2000000477,,403630.2000000477,,403607.489,8,400,,,
sequence,flow.Sequence,4_79,2023-09-07T23:25:06.993Z,,0,,,4949.049000047671,completion,,,,,false,,,,403630.39999985695,403630.2000000477,398664.523,398731.09999990463,398681.151,403607.489,8,400,,,
trial,html.Screen,4_80_0,2023-09-07T23:25:11.570Z,,0,2,,4599.810999952315,response,ISIC_7518524.JPG,5,ISIC_6899527.JPG,ISIC_6899527.JPG,false,0,keypress(z),500,408207.5,408207.2999999523,403590.722,403630.39999985695,403607.489,408183.073,8,400,31,,ISIC_7518524.JPG
break,html.Screen,4_80_1,2023-09-07T23:25:11.570Z,,0,,,NaN,,,,,,false,,,,408207.7999999523,408207.7000000477,,408207.59999990463,,408183.073,8,400,,,
break_continue,html.Screen,4_80_2,2023-09-07T23:25:11.570Z,,0,,,NaN,,,,,,false,,,,408208,408207.89999985695,,408207.7999999523,,408183.073,8,400,,,
sequence,flow.Sequence,4_80,2023-09-07T23:25:11.570Z,,0,,,4600.4109998569475,completion,,,,,false,,,,408208,408207.89999985695,403590.722,403630.39999985695,403607.489,408183.073,8,400,,,
trial,html.Screen,4_81_0,2023-09-07T23:25:15.300Z,,0,2,,3755.127000047709,response,ISIC_7070020.JPG,5,ISIC_9566964.JPG,ISIC_9566964.JPG,false,0,keypress(z),500,411938.39999985695,411938.2000000477,408166.515,408208.09999990463,408183.073,411890.182,8,400,32,,ISIC_7070020.JPG
break,html.Screen,4_81_1,2023-09-07T23:25:15.300Z,,0,,,NaN,,,,,,false,,,,411938.7000000477,411938.59999990463,,411938.39999985695,,411890.182,8,400,,,
break_continue,html.Screen,4_81_2,2023-09-07T23:25:15.301Z,,0,,,NaN,,,,,,false,,,,411939,411938.89999985695,,411938.7999999523,,411890.182,8,400,,,
sequence,flow.Sequence,4_81,2023-09-07T23:25:15.301Z,,0,,,3755.826999856974,completion,,,,,false,,,,411939.09999990463,411938.89999985695,408166.515,408208.09999990463,408183.073,411890.182,8,400,,,
trial,html.Screen,4_82_0,2023-09-07T23:25:20.251Z,,0,2,,4999.117999952345,response,ISIC_0025589.JPG,5,ISIC_0028883.JPG,ISIC_0028883.JPG,false,0,keypress(z),500,416889.59999990463,416889.2999999523,411873.493,411939.2000000477,411890.182,416849.894,8,400,33,,ISIC_0025589.JPG
break,html.Screen,4_82_1,2023-09-07T23:25:20.252Z,,0,,,NaN,,,,,,false,,,,416890.7000000477,416890.5,,416890,,416849.894,8,400,,,
break_continue,html.Screen,4_82_2,2023-09-07T23:25:20.253Z,,0,,,NaN,,,,,,false,,,,416891.39999985695,416891.2000000477,,416890.89999985695,,416849.894,8,400,,,
sequence,flow.Sequence,4_82,2023-09-07T23:25:20.253Z,,0,,,5001.018000047712,completion,,,,,false,,,,416891.7000000477,416891.2000000477,411873.493,411939.09999990463,411890.182,416849.894,8,400,,,
trial,html.Screen,4_83_0,2023-09-07T23:25:26.368Z,,0,2,,6155.905999952345,response,ISIC_9566964.JPG,5,ISIC_0024285.JPG,ISIC_9566964.JPG,false,1,keypress(m),500,423005.89999985695,423005.7999999523,416833.212,416891.89999985695,416849.894,422961.727,8,400,34,,ISIC_0024285.JPG
break,html.Screen,4_83_1,2023-09-07T23:25:26.368Z,,0,,,NaN,,,,,,false,,,,423006.2999999523,423006.2000000477,,423006.09999990463,,422961.727,8,400,,,
break_continue,html.Screen,4_83_2,2023-09-07T23:25:26.368Z,,0,,,NaN,,,,,,false,,,,423006.5,423006.39999985695,,423006.2999999523,,422961.727,8,400,,,
sequence,flow.Sequence,4_83,2023-09-07T23:25:26.368Z,,0,,,6156.505999856978,completion,,,,,false,,,,423006.5,423006.39999985695,416833.212,416891.7999999523,416849.894,422961.727,8,400,,,
trial,html.Screen,4_84_0,2023-09-07T23:25:29.540Z,,0,2,,3216.572999952303,response,ISIC_5625747.JPG,5,ISIC_5123817.JPG,ISIC_5123817.JPG,false,0,keypress(z),500,426178.39999985695,426178.2999999523,422945.174,423006.59999990463,422961.727,426151.443,8,400,35,,ISIC_5625747.JPG
break,html.Screen,4_84_1,2023-09-07T23:25:29.540Z,,0,,,NaN,,,,,,false,,,,426178.7000000477,426178.7000000477,,426178.5,,426151.443,8,400,,,
break_continue,html.Screen,4_84_2,2023-09-07T23:25:29.541Z,,0,,,NaN,,,,,,false,,,,426178.7999999523,426178.7999999523,,426178.7999999523,,426151.443,8,400,,,
sequence,flow.Sequence,4_84,2023-09-07T23:25:29.541Z,,0,,,3217.072999952303,completion,,,,,false,,,,426178.89999985695,426178.7999999523,422945.174,423006.59999990463,422961.727,426151.443,8,400,,,
trial,html.Screen,4_85_0,2023-09-07T23:25:32.727Z,,0,2,,3213.4569998569204,response,ISIC_0014629.JPG,4,ISIC_0070032.JPG,ISIC_0014629.JPG,false,1,keypress(m),500,429365,429364.89999985695,426134.579,426178.89999985695,426151.443,429324.283,8,400,36,,ISIC_0070032.JPG
break,html.Screen,4_85_1,2023-09-07T23:25:32.727Z,,0,,,NaN,,,,,,false,,,,429365.39999985695,429365.2999999523,,429365.2000000477,,429324.283,8,400,,,
break_continue,html.Screen,4_85_2,2023-09-07T23:25:32.727Z,,0,,,NaN,,,,,,false,,,,429365.59999990463,429365.39999985695,,429365.39999985695,,429324.283,8,400,,,
sequence,flow.Sequence,4_85,2023-09-07T23:25:32.727Z,,0,,,3213.9569998569204,completion,,,,,false,,,,429365.59999990463,429365.39999985695,426134.579,426178.89999985695,426151.443,429324.283,8,400,,,
trial,html.Screen,4_86_0,2023-09-07T23:25:36.616Z,,0,2,,3930.217000000004,response,ISIC_0032901.JPG,4,ISIC_0034246.JPG,ISIC_0034246.JPG,false,0,keypress(z),500,433254.59999990463,433254.5,429307.406,429365.7000000477,429324.283,433215.11,8,400,37,,ISIC_0032901.JPG
break,html.Screen,4_86_1,2023-09-07T23:25:36.617Z,,0,,,NaN,,,,,,false,,,,433254.89999985695,433254.89999985695,,433254.7000000477,,433215.11,8,400,,,
break_continue,html.Screen,4_86_2,2023-09-07T23:25:36.617Z,,0,,,NaN,,,,,,false,,,,433255.09999990463,433255.09999990463,,433255,,433215.11,8,400,,,
sequence,flow.Sequence,4_86,2023-09-07T23:25:36.617Z,,0,,,3930.8169999046368,completion,,,,,false,,,,433255.09999990463,433255.09999990463,429307.406,429365.7000000477,429324.283,433215.11,8,400,,,
trial,html.Screen,4_87_0,2023-09-07T23:25:39.755Z,,0,2,,3177.789999856963,response,ISIC_8951909.JPG,5,ISIC_0030860.JPG,ISIC_8951909.JPG,false,1,keypress(m),500,436393,436392.89999985695,433198.508,433255.2000000477,433215.11,436354.503,8,400,38,,ISIC_0030860.JPG
break,html.Screen,4_87_1,2023-09-07T23:25:39.755Z,,0,,,NaN,,,,,,false,,,,436393.2000000477,436393.2000000477,,436393.09999990463,,436354.503,8,400,,,
break_continue,html.Screen,4_87_2,2023-09-07T23:25:39.755Z,,0,,,NaN,,,,,,false,,,,436393.39999985695,436393.39999985695,,436393.2999999523,,436354.503,8,400,,,
sequence,flow.Sequence,4_87,2023-09-07T23:25:39.755Z,,0,,,3178.289999856963,completion,,,,,false,,,,436393.5,436393.39999985695,433198.508,433255.2000000477,433215.11,436354.503,8,400,,,
trial,html.Screen,4_88_0,2023-09-07T23:25:43.932Z,,0,2,,4215.996999999974,response,ISIC_0033546.JPG,5,ISIC_0072375.JPG,ISIC_0072375.JPG,false,0,keypress(z),500,440570.7999999523,440570.5,436337.757,436393.5,436354.503,440529.351,8,400,39,,ISIC_0033546.JPG
break,html.Screen,4_88_1,2023-09-07T23:25:43.933Z,,0,,,NaN,,,,,,false,,,,440571.7000000477,440571.5,,440571.09999990463,,440529.351,8,400,,,
break_continue,html.Screen,4_88_2,2023-09-07T23:25:43.934Z,,0,,,NaN,,,,,,false,,,,440572.2000000477,440572.09999990463,,440571.89999985695,,440529.351,8,400,,,
sequence,flow.Sequence,4_88,2023-09-07T23:25:43.934Z,,0,,,4217.5969999046065,completion,,,,,false,,,,440572.5,440572.09999990463,436337.757,436393.5,436354.503,440529.351,8,400,,,
trial,html.Screen,4_89_0,2023-09-07T23:25:50.516Z,,0,2,,6624.248999904608,response,ISIC_0025929.JPG,4,ISIC_0011987.JPG,ISIC_0025929.JPG,false,1,keypress(m),500,447154,447153.59999990463,440512.555,440572.59999990463,440529.351,447108.741,8,400,40,,ISIC_0011987.JPG
break,html.Screen,4_89_1,2023-09-07T23:25:50.517Z,,0,,,NaN,,,,,,false,,,,447155.2000000477,447154.89999985695,,447154.39999985695,,447108.741,8,400,,,
break_continue,html.Screen,4_89_2,2023-09-07T23:25:50.517Z,,0,,,NaN,,,,,,false,,,,447155.5,447155.2999999523,,447155.2999999523,,447108.741,8,400,,,
sequence,flow.Sequence,4_89,2023-09-07T23:25:50.517Z,,0,,,6625.948999952292,completion,,,,,false,,,,447155.59999990463,447155.2999999523,440512.555,440572.59999990463,440529.351,447108.741,8,400,,,
trial,html.Screen,4_90_0,2023-09-07T23:25:54.377Z,,0,2,,3906.658999856969,response,ISIC_4378189.JPG,5,ISIC_0367225.JPG,ISIC_4378189.JPG,false,1,keypress(m),500,451015.5,451015.39999985695,447092.002,447155.7000000477,447108.741,450966.272,8,400,41,,ISIC_0367225.JPG
break,html.Screen,4_90_1,2023-09-07T23:25:54.377Z,,0,,,NaN,,,,,,false,,,,451015.7999999523,451015.7000000477,,451015.5,,450966.272,8,400,,,
break_continue,html.Screen,4_90_2,2023-09-07T23:25:54.378Z,,0,,,NaN,,,,,,false,,,,451015.89999985695,451015.89999985695,,451015.7999999523,,450966.272,8,400,,,
sequence,flow.Sequence,4_90,2023-09-07T23:25:54.378Z,,0,,,3907.158999856969,completion,,,,,false,,,,451016.09999990463,451015.89999985695,447092.002,447155.59999990463,447108.741,450966.272,8,400,,,
trial,html.Screen,4_91_0,2023-09-07T23:25:57.388Z,,0,2,,3059.8279999046354,response,ISIC_0064247.JPG,5,ISIC_8484660.JPG,ISIC_8484660.JPG,false,0,keypress(z),500,454026.2000000477,454026.09999990463,450949.544,451016.09999990463,450966.272,453988.749,8,400,42,,ISIC_0064247.JPG
break,html.Screen,4_91_1,2023-09-07T23:25:57.388Z,,0,,,NaN,,,,,,false,,,,454026.5,454026.5,,454026.2999999523,,453988.749,8,400,,,
break_continue,html.Screen,4_91_2,2023-09-07T23:25:57.388Z,,0,,,NaN,,,,,,false,,,,454026.59999990463,454026.59999990463,,454026.59999990463,,453988.749,8,400,,,
sequence,flow.Sequence,4_91,2023-09-07T23:25:57.388Z,,0,,,3060.3279999046354,completion,,,,,false,,,,454026.7000000477,454026.59999990463,450949.544,451016.09999990463,450966.272,453988.749,8,400,,,
trial,html.Screen,4_92_0,2023-09-07T23:26:02.366Z,,0,2,,5015.850999904622,response,ISIC_7670304.JPG,5,ISIC_0066399.JPG,ISIC_7670304.JPG,false,1,keypress(m),500,459004.7000000477,459004.59999990463,453972.166,454026.7999999523,453988.749,458965.279,8,400,43,,ISIC_0066399.JPG
break,html.Screen,4_92_1,2023-09-07T23:26:02.367Z,,0,,,NaN,,,,,,false,,,,459005.39999985695,459005.2000000477,,459004.89999985695,,458965.279,8,400,,,
break_continue,html.Screen,4_92_2,2023-09-07T23:26:02.367Z,,0,,,NaN,,,,,,false,,,,459005.7000000477,459005.59999990463,,459005.39999985695,,458965.279,8,400,,,
sequence,flow.Sequence,4_92,2023-09-07T23:26:02.367Z,,0,,,5016.850999904622,completion,,,,,false,,,,459005.7999999523,459005.59999990463,453972.166,454026.7999999523,453988.749,458965.279,8,400,,,
trial,html.Screen,4_93_0,2023-09-07T23:26:06.610Z,,0,2,,4282.72100000002,response,ISIC_0244240.JPG,5,ISIC_3981425.JPG,ISIC_0244240.JPG,false,1,keypress(m),500,463248.2000000477,463248,458948.536,459005.89999985695,458965.279,463206.808,8,400,44,,ISIC_3981425.JPG
break,html.Screen,4_93_1,2023-09-07T23:26:06.610Z,,0,,,NaN,,,,,,false,,,,463248.5,463248.5,,463248.39999985695,,463206.808,8,400,,,
break_continue,html.Screen,4_93_2,2023-09-07T23:26:06.610Z,,0,,,NaN,,,,,,false,,,,463248.7000000477,463248.7000000477,,463248.59999990463,,463206.808,8,400,,,
sequence,flow.Sequence,4_93,2023-09-07T23:26:06.611Z,,0,,,4283.421000047703,completion,,,,,false,,,,463248.89999985695,463248.7000000477,458948.536,459005.7999999523,458965.279,463206.808,8,400,,,
trial,html.Screen,4_94_0,2023-09-07T23:26:11.164Z,,0,2,,4595.892000047665,response,ISIC_1258763.JPG,5,ISIC_0007351.JPG,ISIC_0007351.JPG,false,0,keypress(z),500,467802.7999999523,467802.7000000477,463190.042,463249,463206.808,467765.739,8,400,45,,ISIC_1258763.JPG
break,html.Screen,4_94_1,2023-09-07T23:26:11.165Z,,0,,,NaN,,,,,,false,,,,467803.2000000477,467803.09999990463,,467802.89999985695,,467765.739,8,400,,,
break_continue,html.Screen,4_94_2,2023-09-07T23:26:11.165Z,,0,,,NaN,,,,,,false,,,,467803.5,467803.39999985695,,467803.2999999523,,467765.739,8,400,,,
sequence,flow.Sequence,4_94,2023-09-07T23:26:11.165Z,,0,,,4596.59199985693,completion,,,,,false,,,,467803.59999990463,467803.39999985695,463190.042,463249,463206.808,467765.739,8,400,,,
trial,html.Screen,4_95_0,2023-09-07T23:26:15.632Z,,0,2,,4503.461000047682,response,ISIC_0010636.JPG,4,ISIC_6806545.JPG,ISIC_6806545.JPG,false,0,keypress(z),500,472269.39999985695,472269.2000000477,467748.998,467803.7000000477,467765.739,472224.351,8,400,46,,ISIC_0010636.JPG
break,html.Screen,4_95_1,2023-09-07T23:26:15.632Z,,0,,,NaN,,,,,,false,,,,472269.7000000477,472269.59999990463,,472269.5,,472224.351,8,400,,,
break_continue,html.Screen,4_95_2,2023-09-07T23:26:15.633Z,,0,,,NaN,,,,,,false,,,,472269.7999999523,472269.7000000477,,472269.7000000477,,472224.351,8,400,,,
sequence,flow.Sequence,4_95,2023-09-07T23:26:15.633Z,,0,,,4503.961000047682,completion,,,,,false,,,,472269.89999985695,472269.7000000477,467748.998,467803.7000000477,467765.739,472224.351,8,400,,,
trial,html.Screen,4_96_0,2023-09-07T23:26:18.569Z,,0,2,,2981.3490000476595,response,ISIC_3492490.JPG,5,ISIC_0072030.JPG,ISIC_3492490.JPG,false,1,keypress(m),500,475206.09999990463,475205.7000000477,472207.611,472269.89999985695,472224.351,475180.029,8,400,47,,ISIC_0072030.JPG
break,html.Screen,4_96_1,2023-09-07T23:26:18.570Z,,0,,,NaN,,,,,,false,,,,475206.89999985695,475206.7000000477,,475206.39999985695,,475180.029,8,400,,,
break_continue,html.Screen,4_96_2,2023-09-07T23:26:18.570Z,,0,,,NaN,,,,,,false,,,,475207.39999985695,475207.2999999523,,475207.09999990463,,475180.029,8,400,,,
sequence,flow.Sequence,4_96,2023-09-07T23:26:18.570Z,,0,,,2982.948999952292,completion,,,,,false,,,,475207.59999990463,475207.2999999523,472207.611,472269.89999985695,472224.351,475180.029,8,400,,,
trial,html.Screen,4_97_0,2023-09-07T23:26:22.066Z,,0,2,,3522.8709998569684,response,ISIC_0011641.JPG,5,ISIC_0004455.JPG,ISIC_0004455.JPG,false,0,keypress(z),500,478703.09999990463,478702.89999985695,475163.424,475207.7999999523,475180.029,478653.473,8,400,48,,ISIC_0011641.JPG
break,html.Screen,4_97_1,2023-09-07T23:26:22.067Z,,0,,,NaN,,,,,,false,,,,478704.5,478704.2999999523,,478704.09999990463,,478653.473,8,400,,,
break_continue,html.Screen,4_97_2,2023-09-07T23:26:22.068Z,,0,,,NaN,,,,,,false,,,,478705,478704.7000000477,,478704.7000000477,,478653.473,8,400,,,
sequence,flow.Sequence,4_97,2023-09-07T23:26:22.068Z,,0,,,3524.6710000477033,completion,,,,,false,,,,478705.09999990463,478704.7000000477,475163.424,475207.7000000477,475180.029,478653.473,8,400,,,
trial,html.Screen,4_98_0,2023-09-07T23:26:27.430Z,,0,2,,5414.027000000002,response,ISIC_4903988.JPG,4,ISIC_0062864.JPG,ISIC_4903988.JPG,false,1,keypress(m),500,484067.59999990463,484067.5,478636.734,478705.2999999523,478653.473,484030.552,8,400,49,,ISIC_0062864.JPG
break,html.Screen,4_98_1,2023-09-07T23:26:27.431Z,,0,,,NaN,,,,,,false,,,,484068,484067.89999985695,,484067.7000000477,,484030.552,8,400,,,
break_continue,html.Screen,4_98_2,2023-09-07T23:26:27.431Z,,0,,,NaN,,,,,,false,,,,484068.09999990463,484068.09999990463,,484068,,484030.552,8,400,,,
sequence,flow.Sequence,4_98,2023-09-07T23:26:27.431Z,,0,,,5414.626999904634,completion,,,,,false,,,,484068.2000000477,484068.09999990463,478636.734,478705.2999999523,478653.473,484030.552,8,400,,,
trial,html.Screen,4_99_0,2023-09-07T23:26:33.016Z,,0,2,,5623.047999904607,response,ISIC_0014108.JPG,4,ISIC_0682543.JPG,ISIC_0682543.JPG,false,0,keypress(z),500,489653.7000000477,489653.59999990463,484013.916,484068.2000000477,484030.552,489608.272,8,400,50,,ISIC_0014108.JPG
break,html.Screen,4_99_1,2023-09-07T23:26:43.009Z,,0,,,10002.718999999983,timeout,,,,,false,,,,499646.2000000477,499594.386,489591.542,489653.89999985695,489608.272,499610.991,8,400,,,
break_continue,html.Screen,4_99_2,2023-09-07T23:26:52.568Z,,0,,,9575.00900000002,response,,,,,false,continue,keypress(Space),,509205.5,509186,499594.386,499646.39999985695,499610.991,509163.02,8,400,,,
sequence,flow.Sequence,4_99,2023-09-07T23:26:52.568Z,,0,,,25155.447999999975,completion,,,,,false,,,,509205.5,509186,484013.916,484068.2000000477,484030.552,509163.02,8,400,,,
trial,html.Screen,4_100_0,2023-09-07T23:26:58.081Z,,0,3,,5555.479999999981,response,ISIC_0003703.JPG,4,ISIC_2160913.JPG,ISIC_0003703.JPG,false,1,keypress(m),500,514718.7000000477,514718.5,509146.11,509205.5,509163.02,514673.564,8,400,1,,ISIC_2160913.JPG
break,html.Screen,4_100_1,2023-09-07T23:26:58.082Z,,0,,,NaN,,,,,,false,,,,514719,514718.89999985695,,514718.7000000477,,514673.564,8,400,,,
break_continue,html.Screen,4_100_2,2023-09-07T23:26:58.082Z,,0,,,NaN,,,,,,false,,,,514719.2999999523,514719.2000000477,,514719.09999990463,,514673.564,8,400,,,
sequence,flow.Sequence,4_100,2023-09-07T23:26:58.082Z,,0,,,5556.180000047665,completion,,,,,false,,,,514719.39999985695,514719.2000000477,509146.11,509205.5,509163.02,514673.564,8,400,,,
trial,html.Screen,4_101_0,2023-09-07T23:27:01.061Z,,0,3,,3024.1360000476707,response,ISIC_0060266.JPG,5,ISIC_0002349.JPG,ISIC_0002349.JPG,false,0,keypress(z),500,517697.89999985695,517697.7000000477,514657.024,514719.5,514673.564,517662.724,8,400,2,,ISIC_0060266.JPG
break,html.Screen,4_101_1,2023-09-07T23:27:01.062Z,,0,,,NaN,,,,,,false,,,,517698.7999999523,517698.7000000477,,517698.2999999523,,517662.724,8,400,,,
break_continue,html.Screen,4_101_2,2023-09-07T23:27:01.062Z,,0,,,NaN,,,,,,false,,,,517699.09999990463,517699.09999990463,,517698.89999985695,,517662.724,8,400,,,
sequence,flow.Sequence,4_101,2023-09-07T23:27:01.062Z,,0,,,3025.5359999046195,completion,,,,,false,,,,517699.2999999523,517699.09999990463,514657.024,514719.39999985695,514673.564,517662.724,8,400,,,
trial,html.Screen,4_102_0,2023-09-07T23:27:05.066Z,,0,3,,4040.575999952329,response,ISIC_7172145.JPG,5,ISIC_2238901.JPG,ISIC_2238901.JPG,false,0,keypress(z),500,521703.39999985695,521703.2999999523,517646.059,517699.39999985695,517662.724,521653.767,8,400,3,,ISIC_7172145.JPG
break,html.Screen,4_102_1,2023-09-07T23:27:05.066Z,,0,,,NaN,,,,,,false,,,,521703.7999999523,521703.59999990463,,521703.5,,521653.767,8,400,,,
break_continue,html.Screen,4_102_2,2023-09-07T23:27:05.067Z,,0,,,NaN,,,,,,false,,,,521704,521703.89999985695,,521703.7999999523,,521653.767,8,400,,,
sequence,flow.Sequence,4_102,2023-09-07T23:27:05.067Z,,0,,,4041.1759998569614,completion,,,,,false,,,,521704,521703.89999985695,517646.059,517699.39999985695,517662.724,521653.767,8,400,,,
trial,html.Screen,4_103_0,2023-09-07T23:27:07.762Z,,0,3,,2744.83299990464,response,ISIC_8241457.JPG,5,ISIC_9743052.JPG,ISIC_9743052.JPG,false,0,keypress(z),500,524399.0999999046,524398.5999999046,521637.075,521704.09999990463,521653.767,524359.03,8,400,4,,ISIC_8241457.JPG
break,html.Screen,4_103_1,2023-09-07T23:27:07.763Z,,0,,,NaN,,,,,,false,,,,524400.399999857,524399.899999857,,524399.399999857,,524359.03,8,400,,,
break_continue,html.Screen,4_103_2,2023-09-07T23:27:07.764Z,,0,,,NaN,,,,,,false,,,,524401,524400.899999857,,524400.5999999046,,524359.03,8,400,,,
sequence,flow.Sequence,4_103,2023-09-07T23:27:07.764Z,,0,,,2747.1329998569563,completion,,,,,false,,,,524401.2000000477,524400.899999857,521637.075,521704.09999990463,521653.767,524359.03,8,400,,,
trial,html.Screen,4_104_0,2023-09-07T23:27:10.582Z,,0,3,,2860.170000047656,response,ISIC_2885086.JPG,5,ISIC_0030122.JPG,ISIC_2885086.JPG,false,1,keypress(m),500,527219.399999857,527219.2000000477,524342.349,524401.2999999523,524359.03,527181.304,8,400,5,,ISIC_0030122.JPG
break,html.Screen,4_104_1,2023-09-07T23:27:10.582Z,,0,,,NaN,,,,,,false,,,,527219.7000000477,527219.5999999046,,527219.399999857,,527181.304,8,400,,,
break_continue,html.Screen,4_104_2,2023-09-07T23:27:10.583Z,,0,,,NaN,,,,,,false,,,,527219.7999999523,527219.7999999523,,527219.7000000477,,527181.304,8,400,,,
sequence,flow.Sequence,4_104,2023-09-07T23:27:10.583Z,,0,,,2860.7699999522883,completion,,,,,false,,,,527220,527219.7999999523,524342.349,524401.2999999523,524359.03,527181.304,8,400,,,
trial,html.Screen,4_105_0,2023-09-07T23:27:15.483Z,,0,3,,4938.695999999996,response,ISIC_9943579.JPG,6,ISIC_8425541.JPG,ISIC_9943579.JPG,false,1,keypress(m),500,532120.0999999046,532120,527164.5,527220,527181.304,532074.081,8,400,6,,ISIC_8425541.JPG
break,html.Screen,4_105_1,2023-09-07T23:27:15.483Z,,0,,,NaN,,,,,,false,,,,532120.5,532120.5,,532120.2000000477,,532074.081,8,400,,,
break_continue,html.Screen,4_105_2,2023-09-07T23:27:15.484Z,,0,,,NaN,,,,,,false,,,,532120.7000000477,532120.7000000477,,532120.5999999046,,532074.081,8,400,,,
sequence,flow.Sequence,4_105,2023-09-07T23:27:15.484Z,,0,,,4939.39600004768,completion,,,,,false,,,,532120.7999999523,532120.7000000477,527164.5,527220,527181.304,532074.081,8,400,,,
trial,html.Screen,4_106_0,2023-09-07T23:27:18.356Z,,0,3,,2918.3189998569433,response,ISIC_0030818.JPG,5,ISIC_4296456.JPG,ISIC_4296456.JPG,false,0,keypress(z),500,534993,534992.399999857,532057.423,532120.899999857,532074.081,534946.41,8,400,7,,ISIC_0030818.JPG
break,html.Screen,4_106_1,2023-09-07T23:27:18.358Z,,0,,,NaN,,,,,,false,,,,534994.899999857,534994.5,,534993.7999999523,,534946.41,8,400,,,
break_continue,html.Screen,4_106_2,2023-09-07T23:27:18.358Z,,0,,,NaN,,,,,,false,,,,534995.0999999046,534995.0999999046,,534995,,534946.41,8,400,,,
sequence,flow.Sequence,4_106,2023-09-07T23:27:18.358Z,,0,,,2921.018999904627,completion,,,,,false,,,,534995.2000000477,534995.0999999046,532057.423,532120.899999857,532074.081,534946.41,8,400,,,
trial,html.Screen,4_107_0,2023-09-07T23:27:21.932Z,,0,3,,3622.5899999999674,response,ISIC_0055526.JPG,5,ISIC_0054377.JPG,ISIC_0054377.JPG,false,0,keypress(z),500,538569,538569,534929.64,534995.2999999523,534946.41,538519.949,8,400,8,,ISIC_0055526.JPG
break,html.Screen,4_107_1,2023-09-07T23:27:21.932Z,,0,,,NaN,,,,,,false,,,,538569.2999999523,538569.2999999523,,538569.0999999046,,538519.949,8,400,,,
break_continue,html.Screen,4_107_2,2023-09-07T23:27:21.932Z,,0,,,NaN,,,,,,false,,,,538569.5,538569.399999857,,538569.399999857,,538519.949,8,400,,,
sequence,flow.Sequence,4_107,2023-09-07T23:27:21.932Z,,0,,,3622.9899998569163,completion,,,,,false,,,,538569.5999999046,538569.399999857,534929.64,534995.2000000477,534946.41,538519.949,8,400,,,
trial,html.Screen,4_108_0,2023-09-07T23:27:24.861Z,,0,3,,2978.350999952294,response,ISIC_0011802.JPG,5,ISIC_2596574.JPG,ISIC_2596574.JPG,false,0,keypress(z),500,541498.5,541498.2999999523,538503.364,538569.5999999046,538519.949,541475.779,8,400,9,,ISIC_0011802.JPG
break,html.Screen,4_108_1,2023-09-07T23:27:24.862Z,,0,,,NaN,,,,,,false,,,,541498.7999999523,541498.7000000477,,541498.5999999046,,541475.779,8,400,,,
break_continue,html.Screen,4_108_2,2023-09-07T23:27:24.862Z,,0,,,NaN,,,,,,false,,,,541498.899999857,541498.899999857,,541498.7999999523,,541475.779,8,400,,,
sequence,flow.Sequence,4_108,2023-09-07T23:27:24.862Z,,0,,,2978.9509998569265,completion,,,,,false,,,,541499,541498.899999857,538503.364,538569.5999999046,538519.949,541475.779,8,400,,,
trial,html.Screen,4_109_0,2023-09-07T23:27:28.912Z,,0,3,,4073.4210000477033,response,ISIC_0012245.JPG,5,ISIC_0011126.JPG,ISIC_0012245.JPG,false,1,keypress(m),500,545549.2999999523,545549.2000000477,541459.03,541499.0999999046,541475.779,545516.893,8,400,10,,ISIC_0011126.JPG
break,html.Screen,4_109_1,2023-09-07T23:27:28.912Z,,0,,,NaN,,,,,,false,,,,545549.5999999046,545549.5,,545549.399999857,,545516.893,8,400,,,
break_continue,html.Screen,4_109_2,2023-09-07T23:27:28.913Z,,0,,,NaN,,,,,,false,,,,545549.7999999523,545549.7000000477,,545549.7000000477,,545516.893,8,400,,,
sequence,flow.Sequence,4_109,2023-09-07T23:27:28.913Z,,0,,,4073.9210000477033,completion,,,,,false,,,,545549.7999999523,545549.7000000477,541459.03,541499.0999999046,541475.779,545516.893,8,400,,,
trial,html.Screen,4_110_0,2023-09-07T23:27:33.991Z,,0,3,,5111.60699999996,response,ISIC_0028898.JPG,6,ISIC_7809510.JPG,ISIC_7809510.JPG,false,0,keypress(z),500,550628.5999999046,550628.5,545500.205,545549.7999999523,545516.893,550593.453,8,400,11,,ISIC_0028898.JPG
break,html.Screen,4_110_1,2023-09-07T23:27:33.992Z,,0,,,NaN,,,,,,false,,,,550629,550628.899999857,,550628.7000000477,,550593.453,8,400,,,
break_continue,html.Screen,4_110_2,2023-09-07T23:27:33.992Z,,0,,,NaN,,,,,,false,,,,550629.0999999046,550629,,550629,,550593.453,8,400,,,
sequence,flow.Sequence,4_110,2023-09-07T23:27:33.992Z,,0,,,5112.10699999996,completion,,,,,false,,,,550629.0999999046,550629,545500.205,545549.7999999523,545516.893,550593.453,8,400,,,
trial,html.Screen,4_111_0,2023-09-07T23:27:36.736Z,,0,3,,2779.9469998569693,response,ISIC_0033274.JPG,5,ISIC_0030254.JPG,ISIC_0030254.JPG,false,0,keypress(z),500,553373.5999999046,553373.399999857,550576.844,550629.2000000477,550593.453,553332.128,8,400,12,,ISIC_0033274.JPG
break,html.Screen,4_111_1,2023-09-07T23:27:36.737Z,,0,,,NaN,,,,,,false,,,,553373.899999857,553373.7000000477,,553373.5999999046,,553332.128,8,400,,,
break_continue,html.Screen,4_111_2,2023-09-07T23:27:36.737Z,,0,,,NaN,,,,,,false,,,,553374.2000000477,553374.0999999046,,553374,,553332.128,8,400,,,
sequence,flow.Sequence,4_111,2023-09-07T23:27:36.737Z,,0,,,2780.646999904653,completion,,,,,false,,,,553374.2999999523,553374.0999999046,550576.844,550629.2000000477,550593.453,553332.128,8,400,,,
trial,html.Screen,4_112_0,2023-09-07T23:27:40.008Z,,0,3,,3312.4719999046065,response,ISIC_0025927.JPG,6,ISIC_0010067.JPG,ISIC_0010067.JPG,false,0,keypress(z),500,556644.899999857,556644.5999999046,553315.414,553374.2999999523,553332.128,556605.307,8,400,13,,ISIC_0025927.JPG
break,html.Screen,4_112_1,2023-09-07T23:27:40.008Z,,0,,,NaN,,,,,,false,,,,556645.399999857,556645.2000000477,,556645,,556605.307,8,400,,,
break_continue,html.Screen,4_112_2,2023-09-07T23:27:40.009Z,,0,,,NaN,,,,,,false,,,,556645.7000000477,556645.5999999046,,556645.5,,556605.307,8,400,,,
sequence,flow.Sequence,4_112,2023-09-07T23:27:40.009Z,,0,,,3313.4719999046065,completion,,,,,false,,,,556645.7999999523,556645.5999999046,553315.414,553374.2999999523,553332.128,556605.307,8,400,,,
trial,html.Screen,4_113_0,2023-09-07T23:27:44.050Z,,0,3,,4081.2929999046028,response,ISIC_3096949.JPG,5,ISIC_9268487.JPG,ISIC_9268487.JPG,false,0,keypress(z),500,560686.7000000477,560686.5999999046,556588.549,556645.899999857,556605.307,560646.308,8,400,14,,ISIC_3096949.JPG
break,html.Screen,4_113_1,2023-09-07T23:27:44.050Z,,0,,,NaN,,,,,,false,,,,560687.2999999523,560687.0999999046,,560686.899999857,,560646.308,8,400,,,
break_continue,html.Screen,4_113_2,2023-09-07T23:27:44.050Z,,0,,,NaN,,,,,,false,,,,560687.5999999046,560687.5,,560687.399999857,,560646.308,8,400,,,
sequence,flow.Sequence,4_113,2023-09-07T23:27:44.051Z,,0,,,4082.19299999997,completion,,,,,false,,,,560687.899999857,560687.5,556588.549,556645.899999857,556605.307,560646.308,8,400,,,
trial,html.Screen,4_114_0,2023-09-07T23:27:51.156Z,,0,3,,7146.692000000039,response,ISIC_6723937.JPG,5,ISIC_4796100.JPG,ISIC_4796100.JPG,false,0,keypress(z),500,567793,567793,560629.705,560687.899999857,560646.308,567743.511,8,400,15,,ISIC_6723937.JPG
break,html.Screen,4_114_1,2023-09-07T23:27:51.156Z,,0,,,NaN,,,,,,false,,,,567793.5,567793.399999857,,567793.2000000477,,567743.511,8,400,,,
break_continue,html.Screen,4_114_2,2023-09-07T23:27:51.157Z,,0,,,NaN,,,,,,false,,,,567793.7999999523,567793.5999999046,,567793.5,,567743.511,8,400,,,
sequence,flow.Sequence,4_114,2023-09-07T23:27:51.157Z,,0,,,7147.291999904672,completion,,,,,false,,,,567793.7999999523,567793.5999999046,560629.705,560687.899999857,560646.308,567743.511,8,400,,,
trial,html.Screen,4_115_0,2023-09-07T23:27:57.997Z,,0,3,,6890.689000047627,response,ISIC_4701063.JPG,4,ISIC_7853136.JPG,ISIC_7853136.JPG,false,0,keypress(z),500,574634.5,574634.2000000477,567726.947,567793.899999857,567743.511,574590.18,8,400,16,,ISIC_4701063.JPG
break,html.Screen,4_115_1,2023-09-07T23:27:57.998Z,,0,,,NaN,,,,,,false,,,,574635,574634.899999857,,574634.5,,574590.18,8,400,,,
break_continue,html.Screen,4_115_2,2023-09-07T23:27:57.998Z,,0,,,NaN,,,,,,false,,,,574635.2999999523,574635.2000000477,,574635,,574590.18,8,400,,,
sequence,flow.Sequence,4_115,2023-09-07T23:27:57.998Z,,0,,,6891.689000047627,completion,,,,,false,,,,574635.399999857,574635.2000000477,567726.947,567793.899999857,567743.511,574590.18,8,400,,,
trial,html.Screen,4_116_0,2023-09-07T23:28:00.801Z,,0,3,,2847.619999952265,response,ISIC_2087913.JPG,5,ISIC_0058906.JPG,ISIC_2087913.JPG,false,1,keypress(m),500,577437.899999857,577437.7999999523,574573.619,574635.5999999046,574590.18,577395.676,8,400,17,,ISIC_0058906.JPG
break,html.Screen,4_116_1,2023-09-07T23:28:00.801Z,,0,,,NaN,,,,,,false,,,,577438.2000000477,577438.0999999046,,577437.899999857,,577395.676,8,400,,,
break_continue,html.Screen,4_116_2,2023-09-07T23:28:00.801Z,,0,,,NaN,,,,,,false,,,,577438.5999999046,577438.5,,577438.399999857,,577395.676,8,400,,,
sequence,flow.Sequence,4_116,2023-09-07T23:28:00.802Z,,0,,,2848.319999999949,completion,,,,,false,,,,577438.7000000477,577438.5,574573.619,574635.5999999046,574590.18,577395.676,8,400,,,
trial,html.Screen,4_117_0,2023-09-07T23:28:04.853Z,,0,3,,4094.723999856971,response,ISIC_2864893.JPG,5,ISIC_9181399.JPG,ISIC_9181399.JPG,false,0,keypress(z),500,581490.5,581490.399999857,577379.04,577438.7999999523,577395.676,581453.48,8,400,18,,ISIC_2864893.JPG
break,html.Screen,4_117_1,2023-09-07T23:28:04.854Z,,0,,,NaN,,,,,,false,,,,581491.2000000477,581491,,581490.7000000477,,581453.48,8,400,,,
break_continue,html.Screen,4_117_2,2023-09-07T23:28:04.854Z,,0,,,NaN,,,,,,false,,,,581491.5,581491.399999857,,581491.399999857,,581453.48,8,400,,,
sequence,flow.Sequence,4_117,2023-09-07T23:28:04.854Z,,0,,,4095.723999856971,completion,,,,,false,,,,581491.7000000477,581491.399999857,577379.04,577438.7999999523,577395.676,581453.48,8,400,,,
trial,html.Screen,4_118_0,2023-09-07T23:28:13.565Z,,0,3,,8748.819999952335,response,ISIC_3578186.JPG,4,ISIC_0786233.JPG,ISIC_3578186.JPG,false,1,keypress(m),500,590202.399999857,590202.2999999523,581436.87,581491.7999999523,581453.48,590153.787,8,400,19,,ISIC_0786233.JPG
break,html.Screen,4_118_1,2023-09-07T23:28:13.566Z,,0,,,NaN,,,,,,false,,,,590202.7000000477,590202.5999999046,,590202.5,,590153.787,8,400,,,
break_continue,html.Screen,4_118_2,2023-09-07T23:28:13.566Z,,0,,,NaN,,,,,,false,,,,590202.7999999523,590202.7999999523,,590202.7999999523,,590153.787,8,400,,,
sequence,flow.Sequence,4_118,2023-09-07T23:28:13.566Z,,0,,,8749.319999952335,completion,,,,,false,,,,590202.899999857,590202.7999999523,581436.87,581491.7000000477,581453.48,590153.787,8,400,,,
trial,html.Screen,4_119_0,2023-09-07T23:28:16.800Z,,0,3,,3283.1129998569377,response,ISIC_0014558.JPG,6,ISIC_0028025.JPG,ISIC_0028025.JPG,false,0,keypress(z),500,593437.0999999046,593436.899999857,590137.144,590203,590153.787,593393.448,8,400,20,,ISIC_0014558.JPG
break,html.Screen,4_119_1,2023-09-07T23:28:16.800Z,,0,,,NaN,,,,,,false,,,,593437.2999999523,593437.2999999523,,593437.0999999046,,593393.448,8,400,,,
break_continue,html.Screen,4_119_2,2023-09-07T23:28:16.800Z,,0,,,NaN,,,,,,false,,,,593437.399999857,593437.399999857,,593437.399999857,,593393.448,8,400,,,
sequence,flow.Sequence,4_119,2023-09-07T23:28:16.800Z,,0,,,3283.6129998569377,completion,,,,,false,,,,593437.5,593437.399999857,590137.144,590203,590153.787,593393.448,8,400,,,
trial,html.Screen,4_120_0,2023-09-07T23:28:20.178Z,,0,3,,3421.752000047709,response,ISIC_7100813.JPG,5,ISIC_0082704.JPG,ISIC_0082704.JPG,false,0,keypress(z),500,596815.399999857,596815.2000000477,593376.735,593437.5,593393.448,596766.624,8,400,21,,ISIC_7100813.JPG
break,html.Screen,4_120_1,2023-09-07T23:28:20.179Z,,0,,,NaN,,,,,,false,,,,596815.5999999046,596815.5999999046,,596815.5,,596766.624,8,400,,,
break_continue,html.Screen,4_120_2,2023-09-07T23:28:20.179Z,,0,,,NaN,,,,,,false,,,,596815.7000000477,596815.7000000477,,596815.7000000477,,596766.624,8,400,,,
sequence,flow.Sequence,4_120,2023-09-07T23:28:20.179Z,,0,,,3422.252000047709,completion,,,,,false,,,,596815.899999857,596815.7000000477,593376.735,593437.5,593393.448,596766.624,8,400,,,
trial,html.Screen,4_121_0,2023-09-07T23:28:25.270Z,,0,3,,5140.675999952364,response,ISIC_1177505.JPG,5,ISIC_2309744.JPG,ISIC_2309744.JPG,false,0,keypress(z),500,601907.2999999523,601907.2999999523,596749.978,596815.899999857,596766.624,601859.955,8,400,22,,ISIC_1177505.JPG
break,html.Screen,4_121_1,2023-09-07T23:28:25.271Z,,0,,,NaN,,,,,,false,,,,601907.5999999046,601907.5999999046,,601907.5,,601859.955,8,400,,,
break_continue,html.Screen,4_121_2,2023-09-07T23:28:25.271Z,,0,,,NaN,,,,,,false,,,,601907.7999999523,601907.7000000477,,601907.7000000477,,601859.955,8,400,,,
sequence,flow.Sequence,4_121,2023-09-07T23:28:25.271Z,,0,,,5141.076000047731,completion,,,,,false,,,,601907.899999857,601907.7000000477,596749.978,596815.899999857,596766.624,601859.955,8,400,,,
trial,html.Screen,4_122_0,2023-09-07T23:28:29.320Z,,0,3,,4097.344999952358,response,ISIC_6985859.JPG,5,ISIC_0024735.JPG,ISIC_6985859.JPG,false,1,keypress(m),500,605957.399999857,605957.2999999523,601843.167,601907.899999857,601859.955,605917.846,8,400,23,,ISIC_0024735.JPG
break,html.Screen,4_122_1,2023-09-07T23:28:29.321Z,,0,,,NaN,,,,,,false,,,,605957.7000000477,605957.5,,605957.399999857,,605917.846,8,400,,,
break_continue,html.Screen,4_122_2,2023-09-07T23:28:29.321Z,,0,,,NaN,,,,,,false,,,,605958,605957.7999999523,,605957.7000000477,,605917.846,8,400,,,
sequence,flow.Sequence,4_122,2023-09-07T23:28:29.321Z,,0,,,4097.844999952358,completion,,,,,false,,,,605958.5,605957.7999999523,601843.167,601907.899999857,601859.955,605917.846,8,400,,,
trial,html.Screen,4_123_0,2023-09-07T23:28:33.835Z,,0,3,,4553.854000047664,response,ISIC_2783450.JPG,5,ISIC_0064763.JPG,ISIC_0064763.JPG,false,0,keypress(z),500,610471.7999999523,610471.7000000477,605901.138,605958.5,605917.846,610426.556,8,400,24,,ISIC_2783450.JPG
break,html.Screen,4_123_1,2023-09-07T23:28:33.835Z,,0,,,NaN,,,,,,false,,,,610472.2000000477,610472.0999999046,,610471.899999857,,610426.556,8,400,,,
break_continue,html.Screen,4_123_2,2023-09-07T23:28:33.835Z,,0,,,NaN,,,,,,false,,,,610472.2999999523,610472.2999999523,,610472.2000000477,,610426.556,8,400,,,
sequence,flow.Sequence,4_123,2023-09-07T23:28:33.835Z,,0,,,4554.453999952297,completion,,,,,false,,,,610472.2999999523,610472.2999999523,605901.138,605958.5,605917.846,610426.556,8,400,,,
trial,html.Screen,4_124_0,2023-09-07T23:28:41.283Z,,0,3,,7493.644000047701,response,ISIC_0026497.JPG,4,ISIC_8064866.JPG,ISIC_0026497.JPG,false,1,keypress(m),500,617920.2999999523,617920.2000000477,610410.037,610472.399999857,610426.556,617874.387,8,400,25,,ISIC_8064866.JPG
break,html.Screen,4_124_1,2023-09-07T23:28:41.284Z,,0,,,NaN,,,,,,false,,,,617920.7000000477,617920.5999999046,,617920.5,,617874.387,8,400,,,
break_continue,html.Screen,4_124_2,2023-09-07T23:28:41.284Z,,0,,,NaN,,,,,,false,,,,617921,617920.899999857,,617920.7999999523,,617874.387,8,400,,,
sequence,flow.Sequence,4_124,2023-09-07T23:28:41.284Z,,0,,,7494.343999856967,completion,,,,,false,,,,617921,617920.899999857,610410.037,610472.399999857,610426.556,617874.387,8,400,,,
trial,html.Screen,4_125_0,2023-09-07T23:28:43.915Z,,0,3,,2677.613000000012,response,ISIC_0032638.JPG,5,ISIC_1722909.JPG,ISIC_1722909.JPG,false,0,keypress(z),500,620552.0999999046,620552,617857.641,617921,617874.387,620512.827,8,400,26,,ISIC_0032638.JPG
break,html.Screen,4_125_1,2023-09-07T23:28:43.915Z,,0,,,NaN,,,,,,false,,,,620552.5,620552.399999857,,620552.2999999523,,620512.827,8,400,,,
break_continue,html.Screen,4_125_2,2023-09-07T23:28:43.916Z,,0,,,NaN,,,,,,false,,,,620552.7000000477,620552.5999999046,,620552.5,,620512.827,8,400,,,
sequence,flow.Sequence,4_125,2023-09-07T23:28:43.916Z,,0,,,2678.2129999046447,completion,,,,,false,,,,620552.7000000477,620552.5999999046,617857.641,617921,617874.387,620512.827,8,400,,,
trial,html.Screen,4_126_0,2023-09-07T23:28:48.914Z,,0,3,,5038.172999999952,response,ISIC_0032029.JPG,5,ISIC_0070046.JPG,ISIC_0070046.JPG,false,0,keypress(z),500,625551.2999999523,625551,620496.137,620552.7999999523,620512.827,625505.929,8,400,27,,ISIC_0032029.JPG
