sender,sender_type,sender_id,timestamp,meta,,blockNo,condition,duration,ended_on,img_left,img_reveal,img_right,loser,practice,response,response_action,selection_duration,time_commit,time_end,time_render,time_run,time_show,time_switch,total_blocks,total_trials,trialNo,url,winner
informed_consent,html.Screen,0,2023-09-11T20:04:12.360Z,"{""labjs_version"":""20.2.4"",""labjs_build"":{""flavor"":""development"",""commit"":""f5b4a49f956347addd546a832a3327688c2c0fef""},""location"":""https://labjs.felixhenninger.com/api/labjs_preview/index.html"",""userAgent"":""Mozilla/5.0 (Windows NT 10.0; Win64; x64) AppleWebKit/537.36 (KHTML, like Gecko) Chrome/116.0.0.0 Safari/537.36"",""platform"":""Win32"",""language"":""en-AU"",""locale"":""en-US"",""timeZone"":""America/Chicago"",""timezoneOffset"":300,""screen_width"":1680,""screen_height"":1050,""scroll_width"":1296,""scroll_height"":688,""window_innerWidth"":1296,""window_innerHeight"":736,""devicePixelRatio"":1}",,,,5558.986999809265,response,,,,,,consent,click button,,6109.199999809265,6108.199999809265,532.547,548.6999998092651,549.213,6110.033,,,,{},
Welcome,html.Screen,1,2023-09-11T20:04:14.906Z,,,,uniform,2544.36699961853,response,,,,,,continue,click button,,8655.199999809265,8654.39999961853,6093.426,6109.5,6110.033,8664.986,,,,,
trial,html.Screen,2_0_0,2023-09-11T20:04:26.406Z,,0,0,,11522.409,timeout,ISIC_0063388.JPG,,ISIC_0025593.JPG,,true,,,500,20155,20154.699999809265,8648.454,8655.39999961853,8664.986,20187.395,1,6,1,,
sequence,flow.Sequence,2_0,2023-09-11T20:04:26.406Z,,0,,,11489.713999809264,completion,,,,,true,,,,20155.299999713898,20154.699999809265,8648.454,8655.39999961853,8664.986,20187.395,1,6,,,
trial,html.Screen,2_1_0,2023-09-11T20:04:37.928Z,,0,0,,11522.613999999998,timeout,ISIC_0028178.JPG,,ISIC_1309015.JPG,,true,,,500,31677.099999904633,31676.89999961853,20170.712,20155.39999961853,20187.395,31710.009,1,6,2,,
sequence,flow.Sequence,2_1,2023-09-11T20:04:37.928Z,,0,,,11489.50499961853,completion,,,,,true,,,,31677.299999713898,31676.89999961853,20170.712,20155.39999961853,20187.395,31710.009,1,6,,,
trial,html.Screen,2_2_0,2023-09-11T20:04:49.450Z,,0,0,,11522.382000000005,timeout,ISIC_3314853.JPG,,ISIC_0031128.JPG,,true,,,500,43199.2999997139,43199.199999809265,31693.227,31677.5,31710.009,43232.391,1,6,3,,
sequence,flow.Sequence,2_2,2023-09-11T20:04:49.451Z,,0,,,11489.190999809267,completion,,,,,true,,,,43199.59999990463,43199.199999809265,31693.227,31677.5,31710.009,43232.391,1,6,,,
trial,html.Screen,2_3_0,2023-09-11T20:05:00.973Z,,0,0,,11522.396999999997,timeout,ISIC_0031612.JPG,,ISIC_8980141.JPG,,true,,,500,54721.7999997139,54721.699999809265,43215.584,43199.699999809265,43232.391,54754.788,1,6,4,,
sequence,flow.Sequence,2_3,2023-09-11T20:05:00.973Z,,0,,,11489.308999809262,completion,,,,,true,,,,54722,54721.699999809265,43215.584,43199.699999809265,43232.391,54754.788,1,6,,,
trial,html.Screen,2_4_0,2023-09-11T20:05:09.872Z,,0,0,,8864.61199961853,response,ISIC_1197737.JPG,,ISIC_9721604.JPG,ISIC_1197737.JPG,true,1,keypress(m),500,63619.59999990463,63619.39999961853,54738.083,54722.199999809265,54754.788,63621.92,1,6,5,,ISIC_9721604.JPG
sequence,flow.Sequence,2_4,2023-09-11T20:05:09.872Z,,0,,,8864.61199961853,completion,,,,,true,,,,63619.699999809265,63619.39999961853,54738.083,54722.199999809265,54754.788,63621.92,1,6,,,
trial,html.Screen,2_5_0,2023-09-11T20:05:15.912Z,,0,0,,6037.379999713899,response,ISIC_0025346.JPG,,ISIC_0010681.JPG,ISIC_0010681.JPG,true,0,keypress(z),500,69659.39999961853,69659.2999997139,63605.244,63619.89999961853,63621.92,69667.12,1,6,6,,ISIC_0025346.JPG
sequence,flow.Sequence,2_5,2023-09-11T20:05:15.912Z,,0,,,6037.379999713899,completion,,,,,true,,,,69659.69999980927,69659.2999997139,63605.244,63619.89999961853,63621.92,69667.12,1,6,,,
loop,flow.Loop,2,2023-09-11T20:05:15.912Z,,,,,60994.31399971389,completion,,,,,true,,,,69659.7999997139,69659.2999997139,8648.454,8655.299999713898,8664.986,69667.12,1,6,,,
exp_instructions,html.Screen,3,2023-09-11T20:33:27.393Z,,,,,1691450.6799997138,response,,,,,,continue,keypress(Space),,1761119.3999996185,1761117.799999714,69650.456,69659.7999997139,69667.12,1761142.001,,,,,
trial,html.Screen,4_0_0,2023-09-11T20:33:35.962Z,,0,1,,8546.198999809334,response,ISIC_7025487.JPG,5,ISIC_0033713.JPG,ISIC_0033713.JPG,false,0,keypress(z),500,1769688.3999996185,1769688.1999998093,1761125.321,1761120,1761142.001,1769691.993,8,400,1,,ISIC_7025487.JPG
break,html.Screen,4_0_1,2023-09-11T20:33:35.962Z,,0,,,NaN,,,,,,false,,,,1769689.0999999046,1769688.8999996185,,1769688.5,,1769691.993,8,400,,,
break_continue,html.Screen,4_0_2,2023-09-11T20:33:35.963Z,,0,,,NaN,,,,,,false,,,,1769689.3999996185,1769689.299999714,,1769689.0999999046,,1769691.993,8,400,,,
sequence,flow.Sequence,4_0,2023-09-11T20:33:35.963Z,,0,,,8547.298999713967,completion,,,,,false,,,,1769689.3999996185,1769689.299999714,1761125.321,1761120,1761142.001,1769691.993,8,400,,,
trial,html.Screen,4_1_0,2023-09-11T20:33:45.372Z,,0,1,,9406.406999618514,response,ISIC_0067235.JPG,5,ISIC_0000118.JPG,ISIC_0067235.JPG,false,1,keypress(m),500,1779098.799999714,1779098.3999996185,1769675.311,1769689.5,1769691.993,1779110.352,8,400,2,,ISIC_0000118.JPG
break,html.Screen,4_1_1,2023-09-11T20:33:45.374Z,,0,,,NaN,,,,,,false,,,,1779100.5,1779100,,1779099.1999998093,,1779110.352,8,400,,,
break_continue,html.Screen,4_1_2,2023-09-11T20:33:45.375Z,,0,,,NaN,,,,,,false,,,,1779101.3999996185,1779101.0999999046,,1779100.799999714,,1779110.352,8,400,,,
sequence,flow.Sequence,4_1,2023-09-11T20:33:45.375Z,,0,,,9409.106999904616,completion,,,,,false,,,,1779101.5999999046,1779101.0999999046,1769675.311,1769689.5,1769691.993,1779110.352,8,400,,,
trial,html.Screen,4_2_0,2023-09-11T20:33:52.706Z,,0,1,,7322.148000000045,response,ISIC_5388485.JPG,6,ISIC_4393521.JPG,ISIC_5388485.JPG,false,1,keypress(m),500,1786432.5999999046,1786432.5,1779093.578,1779101.8999996185,1779110.352,1786457.943,8,400,3,,ISIC_4393521.JPG
break,html.Screen,4_2_1,2023-09-11T20:33:52.706Z,,0,,,NaN,,,,,,false,,,,1786433.0999999046,1786433,,1786432.6999998093,,1786457.943,8,400,,,
break_continue,html.Screen,4_2_2,2023-09-11T20:33:52.707Z,,0,,,NaN,,,,,,false,,,,1786433.299999714,1786433.1999998093,,1786433.1999998093,,1786457.943,8,400,,,
sequence,flow.Sequence,4_2,2023-09-11T20:33:52.707Z,,0,,,7322.84799980931,completion,,,,,false,,,,1786433.299999714,1786433.1999998093,1779093.578,1779101.799999714,1779110.352,1786457.943,8,400,,,
trial,html.Screen,4_3_0,2023-09-11T20:34:01.511Z,,0,1,,8779.256999809295,response,ISIC_0064284.JPG,5,ISIC_0056406.JPG,ISIC_0056406.JPG,false,0,keypress(z),500,1795237.5,1795237.1999998093,1786441.249,1786433.3999996185,1786457.943,1795241.69,8,400,4,,ISIC_0064284.JPG
break,html.Screen,4_3_1,2023-09-11T20:34:01.511Z,,0,,,NaN,,,,,,false,,,,1795238,1795237.8999996185,,1795237.5999999046,,1795241.69,8,400,,,
break_continue,html.Screen,4_3_2,2023-09-11T20:34:01.511Z,,0,,,NaN,,,,,,false,,,,1795238.1999998093,1795238.0999999046,,1795238,,1795241.69,8,400,,,
sequence,flow.Sequence,4_3,2023-09-11T20:34:01.512Z,,0,,,8780.156999904662,completion,,,,,false,,,,1795238.3999996185,1795238.0999999046,1786441.249,1786433.3999996185,1786457.943,1795241.69,8,400,,,
trial,html.Screen,4_4_0,2023-09-11T20:34:09.505Z,,0,1,,7990.310000000056,response,ISIC_0027363.JPG,5,ISIC_4978697.JPG,ISIC_0027363.JPG,false,1,keypress(m),500,1803232.1999998093,1803232,1795225.09,1795238.3999996185,1795241.69,1803240.623,8,400,5,,ISIC_4978697.JPG
break,html.Screen,4_4_1,2023-09-11T20:34:09.506Z,,0,,,NaN,,,,,,false,,,,1803232.799999714,1803232.5999999046,,1803232.3999996185,,1803240.623,8,400,,,
break_continue,html.Screen,4_4_2,2023-09-11T20:34:09.506Z,,0,,,NaN,,,,,,false,,,,1803233,1803233,,1803232.799999714,,1803240.623,8,400,,,
sequence,flow.Sequence,4_4,2023-09-11T20:34:09.506Z,,0,,,7991.310000000056,completion,,,,,false,,,,1803233.0999999046,1803233,1795225.09,1795238.3999996185,1795241.69,1803240.623,8,400,,,
trial,html.Screen,4_5_0,2023-09-11T20:34:17.771Z,,0,1,,8256.676999713993,response,ISIC_0061581.JPG,4,ISIC_2241388.JPG,ISIC_0061581.JPG,false,1,keypress(m),500,1811497.5,1811497.299999714,1803223.882,1803233.1999998093,1803240.623,1811506.707,8,400,6,,ISIC_2241388.JPG
break,html.Screen,4_5_1,2023-09-11T20:34:17.771Z,,0,,,NaN,,,,,,false,,,,1811498.0999999046,1811497.8999996185,,1811497.5999999046,,1811506.707,8,400,,,
break_continue,html.Screen,4_5_2,2023-09-11T20:34:17.772Z,,0,,,NaN,,,,,,false,,,,1811498.299999714,1811498.299999714,,1811498.0999999046,,1811506.707,8,400,,,
sequence,flow.Sequence,4_5,2023-09-11T20:34:17.772Z,,0,,,8257.676999713993,completion,,,,,false,,,,1811498.5,1811498.299999714,1803223.882,1803233.1999998093,1803240.623,1811506.707,8,400,,,
trial,html.Screen,4_6_0,2023-09-11T20:34:24.079Z,,0,1,,6297.192999618594,response,ISIC_0069918.JPG,6,ISIC_0918078.JPG,ISIC_0069918.JPG,false,1,keypress(m),500,1817804,1817803.8999996185,1811489.987,1811498.5999999046,1811506.707,1817818.958,8,400,7,,ISIC_0918078.JPG
break,html.Screen,4_6_1,2023-09-11T20:34:24.079Z,,0,,,NaN,,,,,,false,,,,1817804.3999996185,1817804.3999996185,,1817804.0999999046,,1817818.958,8,400,,,
break_continue,html.Screen,4_6_2,2023-09-11T20:34:24.079Z,,0,,,NaN,,,,,,false,,,,1817804.6999998093,1817804.6999998093,,1817804.5,,1817818.958,8,400,,,
sequence,flow.Sequence,4_6,2023-09-11T20:34:24.079Z,,0,,,6297.9929998093285,completion,,,,,false,,,,1817804.799999714,1817804.6999998093,1811489.987,1811498.5999999046,1811506.707,1817818.958,8,400,,,
trial,html.Screen,4_7_0,2023-09-11T20:34:33.557Z,,0,1,,9463.341999713797,response,ISIC_3093026.JPG,5,ISIC_3389704.JPG,ISIC_3389704.JPG,false,0,keypress(z),500,1827282.3999996185,1827282.299999714,1817802.277,1817804.8999996185,1817818.958,1827287.352,8,400,8,,ISIC_3093026.JPG
break,html.Screen,4_7_1,2023-09-11T20:34:33.557Z,,0,,,NaN,,,,,,false,,,,1827282.799999714,1827282.6999998093,,1827282.5,,1827287.352,8,400,,,
break_continue,html.Screen,4_7_2,2023-09-11T20:34:33.558Z,,0,,,NaN,,,,,,false,,,,1827283.0999999046,1827283,,1827282.8999996185,,1827287.352,8,400,,,
sequence,flow.Sequence,4_7,2023-09-11T20:34:33.558Z,,0,,,9464.0419999999,completion,,,,,false,,,,1827283.0999999046,1827283,1817802.277,1817804.8999996185,1817818.958,1827287.352,8,400,,,
trial,html.Screen,4_8_0,2023-09-11T20:34:39.101Z,,0,1,,5538.447999713942,response,ISIC_8145348.JPG,5,ISIC_1819071.JPG,ISIC_8145348.JPG,false,1,keypress(m),500,1832825.8999996185,1832825.799999714,1827270.673,1827283.0999999046,1827287.352,1832831.55,8,400,9,,ISIC_1819071.JPG
break,html.Screen,4_8_1,2023-09-11T20:34:39.102Z,,0,,,NaN,,,,,,false,,,,1832826.799999714,1832826.5,,1832826.0999999046,,1832831.55,8,400,,,
break_continue,html.Screen,4_8_2,2023-09-11T20:34:39.102Z,,0,,,NaN,,,,,,false,,,,1832827.299999714,1832827.1999998093,,1832827,,1832831.55,8,400,,,
sequence,flow.Sequence,4_8,2023-09-11T20:34:39.102Z,,0,,,5539.84799980931,completion,,,,,false,,,,1832827.299999714,1832827.1999998093,1827270.673,1827283.0999999046,1827287.352,1832831.55,8,400,,,
trial,html.Screen,4_9_0,2023-09-11T20:34:43.637Z,,0,1,,4530.149999809219,response,ISIC_5607452.JPG,4,ISIC_5647554.JPG,ISIC_5647554.JPG,false,0,keypress(z),500,1837362,1837361.6999998093,1832814.843,1832827.3999996185,1832831.55,1837373.725,8,400,10,,ISIC_5607452.JPG
break,html.Screen,4_9_1,2023-09-11T20:34:43.638Z,,0,,,NaN,,,,,,false,,,,1837363,1837362.6999998093,,1837362.1999998093,,1837373.725,8,400,,,
break_continue,html.Screen,4_9_2,2023-09-11T20:34:43.638Z,,0,,,NaN,,,,,,false,,,,1837363.3999996185,1837363.299999714,,1837363.1999998093,,1837373.725,8,400,,,
sequence,flow.Sequence,4_9,2023-09-11T20:34:43.638Z,,0,,,4531.749999713851,completion,,,,,false,,,,1837363.5999999046,1837363.299999714,1832814.843,1832827.3999996185,1832831.55,1837373.725,8,400,,,
trial,html.Screen,4_10_0,2023-09-11T20:34:50.824Z,,0,1,,7175.574999713805,response,ISIC_0030725.JPG,6,ISIC_0013778.JPG,ISIC_0030725.JPG,false,1,keypress(m),500,1844549.3999996185,1844549.299999714,1837357.048,1837363.799999714,1837373.725,1844554.335,8,400,11,,ISIC_0013778.JPG
break,html.Screen,4_10_1,2023-09-11T20:34:50.824Z,,0,,,NaN,,,,,,false,,,,1844549.6999998093,1844549.6999998093,,1844549.3999996185,,1844554.335,8,400,,,
break_continue,html.Screen,4_10_2,2023-09-11T20:34:50.825Z,,0,,,NaN,,,,,,false,,,,1844550,1844549.8999996185,,1844549.799999714,,1844554.335,8,400,,,
sequence,flow.Sequence,4_10,2023-09-11T20:34:50.825Z,,0,,,7176.174999618437,completion,,,,,false,,,,1844550,1844549.8999996185,1837357.048,1837363.799999714,1837373.725,1844554.335,8,400,,,
trial,html.Screen,4_11_0,2023-09-11T20:34:57.995Z,,0,1,,7165.5649996185675,response,ISIC_1783062.JPG,5,ISIC_2136533.JPG,ISIC_1783062.JPG,false,1,keypress(m),500,1851720.1999998093,1851719.8999996185,1844537.645,1844550.0999999046,1844554.335,1851734.992,8,400,12,,ISIC_2136533.JPG
break,html.Screen,4_11_1,2023-09-11T20:34:57.996Z,,0,,,NaN,,,,,,false,,,,1851721.5,1851721.1999998093,,1851720.5,,1851734.992,8,400,,,
break_continue,html.Screen,4_11_2,2023-09-11T20:34:57.997Z,,0,,,NaN,,,,,,false,,,,1851722,1851721.799999714,,1851721.5999999046,,1851734.992,8,400,,,
sequence,flow.Sequence,4_11,2023-09-11T20:34:57.997Z,,0,,,7167.464999713935,completion,,,,,false,,,,1851722.0999999046,1851721.799999714,1844537.645,1844550,1844554.335,1851734.992,8,400,,,
trial,html.Screen,4_12_0,2023-09-11T20:35:04.117Z,,0,1,,6107.107999904547,response,ISIC_4810142.JPG,4,ISIC_2212473.JPG,ISIC_2212473.JPG,false,0,keypress(z),500,1857842.3999996185,1857842.0999999046,1851718.426,1851722.299999714,1851734.992,1857846.831,8,400,13,,ISIC_4810142.JPG
break,html.Screen,4_12_1,2023-09-11T20:35:04.118Z,,0,,,NaN,,,,,,false,,,,1857843.5,1857843.1999998093,,1857842.5999999046,,1857846.831,8,400,,,
break_continue,html.Screen,4_12_2,2023-09-11T20:35:04.119Z,,0,,,NaN,,,,,,false,,,,1857843.799999714,1857843.799999714,,1857843.5999999046,,1857846.831,8,400,,,
sequence,flow.Sequence,4_12,2023-09-11T20:35:04.119Z,,0,,,6108.807999713812,completion,,,,,false,,,,1857844,1857843.799999714,1851718.426,1851722.1999998093,1851734.992,1857846.831,8,400,,,
trial,html.Screen,4_13_0,2023-09-11T20:35:07.438Z,,0,1,,3316.3689998092595,response,ISIC_0061734.JPG,4,ISIC_3805025.JPG,ISIC_0061734.JPG,false,1,keypress(m),500,1861163.299999714,1861163.1999998093,1857830.333,1857844.1999998093,1857846.831,1861170.18,8,400,14,,ISIC_3805025.JPG
break,html.Screen,4_13_1,2023-09-11T20:35:07.439Z,,0,,,NaN,,,,,,false,,,,1861163.8999996185,1861163.6999998093,,1861163.3999996185,,1861170.18,8,400,,,
break_continue,html.Screen,4_13_2,2023-09-11T20:35:07.439Z,,0,,,NaN,,,,,,false,,,,1861164,1861164,,1861163.8999996185,,1861170.18,8,400,,,
sequence,flow.Sequence,4_13,2023-09-11T20:35:07.439Z,,0,,,3317.1689999999944,completion,,,,,false,,,,1861164.0999999046,1861164,1857830.333,1857844.1999998093,1857846.831,1861170.18,8,400,,,
trial,html.Screen,4_14_0,2023-09-11T20:35:10.481Z,,0,1,,3036.0199998093303,response,ISIC_0645454.JPG,4,ISIC_0033729.JPG,ISIC_0033729.JPG,false,0,keypress(z),500,1864206.5,1864206.1999998093,1861153.407,1861164.1999998093,1861170.18,1864209.233,8,400,15,,ISIC_0645454.JPG
break,html.Screen,4_14_1,2023-09-11T20:35:10.482Z,,0,,,NaN,,,,,,false,,,,1864207.0999999046,1864206.8999996185,,1864206.5999999046,,1864209.233,8,400,,,
break_continue,html.Screen,4_14_2,2023-09-11T20:35:10.482Z,,0,,,NaN,,,,,,false,,,,1864207.5,1864207.3999996185,,1864207.1999998093,,1864209.233,8,400,,,
sequence,flow.Sequence,4_14,2023-09-11T20:35:10.482Z,,0,,,3037.2199996185955,completion,,,,,false,,,,1864207.5999999046,1864207.3999996185,1861153.407,1861164.1999998093,1861170.18,1864209.233,8,400,,,
trial,html.Screen,4_15_0,2023-09-11T20:35:13.896Z,,0,1,,3412.0669997138903,response,ISIC_5751956.JPG,4,ISIC_9288923.JPG,ISIC_5751956.JPG,false,1,keypress(m),500,1867621.3999996185,1867621.299999714,1864192.564,1864207.6999998093,1864209.233,1867632.562,8,400,16,,ISIC_9288923.JPG
break,html.Screen,4_15_1,2023-09-11T20:35:13.897Z,,0,,,NaN,,,,,,false,,,,1867621.8999996185,1867621.799999714,,1867621.5,,1867632.562,8,400,,,
break_continue,html.Screen,4_15_2,2023-09-11T20:35:13.897Z,,0,,,NaN,,,,,,false,,,,1867622.0999999046,1867622.0999999046,,1867621.8999996185,,1867632.562,8,400,,,
sequence,flow.Sequence,4_15,2023-09-11T20:35:13.897Z,,0,,,3412.866999904625,completion,,,,,false,,,,1867622.1999998093,1867622.0999999046,1864192.564,1864207.6999998093,1864209.233,1867632.562,8,400,,,
trial,html.Screen,4_16_0,2023-09-11T20:35:16.986Z,,0,1,,3078.438000000082,response,ISIC_4864523.JPG,6,ISIC_0062161.JPG,ISIC_0062161.JPG,false,0,keypress(z),500,1870711.0999999046,1870711,1867615.86,1867622.1999998093,1867632.562,1870721.896,8,400,17,,ISIC_4864523.JPG
break,html.Screen,4_16_1,2023-09-11T20:35:16.986Z,,0,,,NaN,,,,,,false,,,,1870711.5999999046,1870711.5,,1870711.299999714,,1870721.896,8,400,,,
break_continue,html.Screen,4_16_2,2023-09-11T20:35:16.986Z,,0,,,NaN,,,,,,false,,,,1870711.6999998093,1870711.6999998093,,1870711.5999999046,,1870721.896,8,400,,,
sequence,flow.Sequence,4_16,2023-09-11T20:35:16.986Z,,0,,,3079.137999809347,completion,,,,,false,,,,1870711.8999996185,1870711.6999998093,1867615.86,1867622.1999998093,1867632.562,1870721.896,8,400,,,
trial,html.Screen,4_17_0,2023-09-11T20:35:22.668Z,,0,1,,5670.803999809315,response,ISIC_4554863.JPG,4,ISIC_0025550.JPG,ISIC_4554863.JPG,false,1,keypress(m),500,1876392.8999996185,1876392.6999998093,1870705.179,1870711.8999996185,1870721.896,1876399.58,8,400,18,,ISIC_0025550.JPG
break,html.Screen,4_17_1,2023-09-11T20:35:22.668Z,,0,,,NaN,,,,,,false,,,,1876393.3999996185,1876393.1999998093,,1876393,,1876399.58,8,400,,,
break_continue,html.Screen,4_17_2,2023-09-11T20:35:22.668Z,,0,,,NaN,,,,,,false,,,,1876393.5999999046,1876393.5,,1876393.3999996185,,1876399.58,8,400,,,
sequence,flow.Sequence,4_17,2023-09-11T20:35:22.668Z,,0,,,5671.60400000005,completion,,,,,false,,,,1876393.6999998093,1876393.5,1870705.179,1870711.8999996185,1870721.896,1876399.58,8,400,,,
trial,html.Screen,4_18_0,2023-09-11T20:35:26.211Z,,0,1,,3535.719999713823,response,ISIC_0033272.JPG,7,ISIC_9045601.JPG,ISIC_0033272.JPG,false,1,keypress(m),500,1879935.5,1879935.299999714,1876382.913,1876393.6999998093,1876399.58,1879939.863,8,400,19,,ISIC_9045601.JPG
break,html.Screen,4_18_1,2023-09-11T20:35:26.212Z,,0,,,NaN,,,,,,false,,,,1879936.1999998093,1879935.8999996185,,1879935.5999999046,,1879939.863,8,400,,,
break_continue,html.Screen,4_18_2,2023-09-11T20:35:26.212Z,,0,,,NaN,,,,,,false,,,,1879936.5,1879936.5,,1879936.299999714,,1879939.863,8,400,,,
sequence,flow.Sequence,4_18,2023-09-11T20:35:26.212Z,,0,,,3536.9199999999255,completion,,,,,false,,,,1879936.5999999046,1879936.5,1876382.913,1876393.6999998093,1876399.58,1879939.863,8,400,,,
trial,html.Screen,4_19_0,2023-09-11T20:35:29.733Z,,0,1,,3518.0369996186346,response,ISIC_0010723.JPG,5,ISIC_7928137.JPG,ISIC_0010723.JPG,false,1,keypress(m),500,1883458,1883457.8999996185,1879923.27,1879936.5999999046,1879939.863,1883463.437,8,400,20,,ISIC_7928137.JPG
break,html.Screen,4_19_1,2023-09-11T20:35:29.734Z,,0,,,NaN,,,,,,false,,,,1883458.6999998093,1883458.3999996185,,1883458.1999998093,,1883463.437,8,400,,,
break_continue,html.Screen,4_19_2,2023-09-11T20:35:29.734Z,,0,,,NaN,,,,,,false,,,,1883459,1883458.8999996185,,1883458.6999998093,,1883463.437,8,400,,,
sequence,flow.Sequence,4_19,2023-09-11T20:35:29.734Z,,0,,,3519.0369996186346,completion,,,,,false,,,,1883459,1883458.8999996185,1879923.27,1879936.5999999046,1879939.863,1883463.437,8,400,,,
trial,html.Screen,4_20_0,2023-09-11T20:35:39.319Z,,0,1,,9580.36299971398,response,ISIC_0001505.JPG,6,ISIC_0030610.JPG,ISIC_0030610.JPG,false,0,keypress(z),500,1893044,1893043.799999714,1883446.771,1883459.0999999046,1883463.437,1893048.731,8,400,21,,ISIC_0001505.JPG
break,html.Screen,4_20_1,2023-09-11T20:35:39.320Z,,0,,,NaN,,,,,,false,,,,1893044.6999998093,1893044.3999996185,,1893044.0999999046,,1893048.731,8,400,,,
break_continue,html.Screen,4_20_2,2023-09-11T20:35:39.320Z,,0,,,NaN,,,,,,false,,,,1893045,1893044.8999996185,,1893044.799999714,,1893048.731,8,400,,,
sequence,flow.Sequence,4_20,2023-09-11T20:35:39.320Z,,0,,,9581.462999618612,completion,,,,,false,,,,1893045.0999999046,1893044.8999996185,1883446.771,1883459.0999999046,1883463.437,1893048.731,8,400,,,
trial,html.Screen,4_21_0,2023-09-11T20:35:45.711Z,,0,1,,6387.2690000000875,response,ISIC_0059884.JPG,5,ISIC_0026516.JPG,ISIC_0059884.JPG,false,1,keypress(m),500,1899436.0999999046,1899436,1893032.186,1893045.1999998093,1893048.731,1899444.588,8,400,22,,ISIC_0026516.JPG
break,html.Screen,4_21_1,2023-09-11T20:35:45.712Z,,0,,,NaN,,,,,,false,,,,1899436.8999996185,1899436.5,,1899436.1999998093,,1899444.588,8,400,,,
break_continue,html.Screen,4_21_2,2023-09-11T20:35:45.713Z,,0,,,NaN,,,,,,false,,,,1899437.1999998093,1899437.1999998093,,1899436.8999996185,,1899444.588,8,400,,,
sequence,flow.Sequence,4_21,2023-09-11T20:35:45.713Z,,0,,,6388.468999809353,completion,,,,,false,,,,1899437.299999714,1899437.1999998093,1893032.186,1893045.1999998093,1893048.731,1899444.588,8,400,,,
trial,html.Screen,4_22_0,2023-09-11T20:35:49.817Z,,0,1,,4097.011999904644,response,ISIC_0072977.JPG,6,ISIC_6004197.JPG,ISIC_0072977.JPG,false,1,keypress(m),500,1903541.799999714,1903541.5999999046,1899427.893,1899437.299999714,1899444.588,1903552.51,8,400,23,,ISIC_6004197.JPG
break,html.Screen,4_22_1,2023-09-11T20:35:49.818Z,,0,,,NaN,,,,,,false,,,,1903542.3999996185,1903542.299999714,,1903542,,1903552.51,8,400,,,
break_continue,html.Screen,4_22_2,2023-09-11T20:35:49.818Z,,0,,,NaN,,,,,,false,,,,1903542.799999714,1903542.6999998093,,1903542.5999999046,,1903552.51,8,400,,,
sequence,flow.Sequence,4_22,2023-09-11T20:35:49.818Z,,0,,,4098.111999809276,completion,,,,,false,,,,1903542.799999714,1903542.6999998093,1899427.893,1899437.299999714,1899444.588,1903552.51,8,400,,,
trial,html.Screen,4_23_0,2023-09-11T20:35:54.508Z,,0,1,,4679.989999999991,response,ISIC_6023518.JPG,4,ISIC_7482149.JPG,ISIC_7482149.JPG,false,0,keypress(z),500,1908232.6999998093,1908232.5,1903535.785,1903543,1903552.51,1908245.134,8,400,24,,ISIC_6023518.JPG
break,html.Screen,4_23_1,2023-09-11T20:35:54.509Z,,0,,,NaN,,,,,,false,,,,1908233.299999714,1908233.0999999046,,1908232.799999714,,1908245.134,8,400,,,
break_continue,html.Screen,4_23_2,2023-09-11T20:35:54.509Z,,0,,,NaN,,,,,,false,,,,1908233.5,1908233.5,,1908233.299999714,,1908245.134,8,400,,,
sequence,flow.Sequence,4_23,2023-09-11T20:35:54.509Z,,0,,,4680.989999999991,completion,,,,,false,,,,1908233.5999999046,1908233.5,1903535.785,1903543,1903552.51,1908245.134,8,400,,,
trial,html.Screen,4_24_0,2023-09-11T20:35:59.119Z,,0,1,,4598.565999809187,response,ISIC_0064821.JPG,6,ISIC_6581765.JPG,ISIC_0064821.JPG,false,1,keypress(m),500,1912843.799999714,1912843.6999998093,1908228.335,1908233.6999998093,1908245.134,1912853.912,8,400,25,,ISIC_6581765.JPG
break,html.Screen,4_24_1,2023-09-11T20:35:59.120Z,,0,,,NaN,,,,,,false,,,,1912844.299999714,1912844.1999998093,,1912843.8999996185,,1912853.912,8,400,,,
break_continue,html.Screen,4_24_2,2023-09-11T20:35:59.120Z,,0,,,NaN,,,,,,false,,,,1912844.5,1912844.5,,1912844.299999714,,1912853.912,8,400,,,
sequence,flow.Sequence,4_24,2023-09-11T20:35:59.120Z,,0,,,4599.365999999922,completion,,,,,false,,,,1912844.5999999046,1912844.5,1908228.335,1908233.6999998093,1908245.134,1912853.912,8,400,,,
trial,html.Screen,4_25_0,2023-09-11T20:36:04.658Z,,0,1,,5528.187999904621,response,ISIC_0003150.JPG,5,ISIC_8615491.JPG,ISIC_8615491.JPG,false,0,keypress(z),500,1918382.1999998093,1918382.0999999046,1912837.21,1912844.5999999046,1912853.912,1918398.115,8,400,26,,ISIC_0003150.JPG
break,html.Screen,4_25_1,2023-09-11T20:36:04.658Z,,0,,,NaN,,,,,,false,,,,1918382.6999998093,1918382.5999999046,,1918382.1999998093,,1918398.115,8,400,,,
break_continue,html.Screen,4_25_2,2023-09-11T20:36:04.658Z,,0,,,NaN,,,,,,false,,,,1918382.8999996185,1918382.8999996185,,1918382.799999714,,1918398.115,8,400,,,
sequence,flow.Sequence,4_25,2023-09-11T20:36:04.658Z,,0,,,5528.987999618519,completion,,,,,false,,,,1918383,1918382.8999996185,1912837.21,1912844.5999999046,1912853.912,1918398.115,8,400,,,
trial,html.Screen,4_26_0,2023-09-11T20:36:09.141Z,,0,1,,4467.28499961854,response,ISIC_5647697.JPG,5,ISIC_0065469.JPG,ISIC_0065469.JPG,false,0,keypress(z),500,1922865.799999714,1922865.3999996185,1918381.465,1918383.0999999046,1918398.115,1922873.428,8,400,27,,ISIC_5647697.JPG
break,html.Screen,4_26_1,2023-09-11T20:36:09.143Z,,0,,,NaN,,,,,,false,,,,1922867.299999714,1922866.799999714,,1922866.1999998093,,1922873.428,8,400,,,
break_continue,html.Screen,4_26_2,2023-09-11T20:36:09.144Z,,0,,,NaN,,,,,,false,,,,1922868.5,1922868.0999999046,,1922867.5999999046,,1922873.428,8,400,,,
sequence,flow.Sequence,4_26,2023-09-11T20:36:09.144Z,,0,,,4469.984999904642,completion,,,,,false,,,,1922869,1922868.0999999046,1918381.465,1918383.0999999046,1918398.115,1922873.428,8,400,,,
trial,html.Screen,4_27_0,2023-09-11T20:36:17.101Z,,0,1,,7951.571999999927,response,ISIC_0032287.JPG,5,ISIC_8278912.JPG,ISIC_8278912.JPG,false,0,keypress(z),500,1930825.0999999046,1930825,1922856.82,1922869.5,1922873.428,1930838.925,8,400,28,,ISIC_0032287.JPG
break,html.Screen,4_27_1,2023-09-11T20:36:17.101Z,,0,,,NaN,,,,,,false,,,,1930825.5999999046,1930825.5,,1930825.299999714,,1930838.925,8,400,,,
break_continue,html.Screen,4_27_2,2023-09-11T20:36:17.101Z,,0,,,NaN,,,,,,false,,,,1930825.799999714,1930825.6999998093,,1930825.5999999046,,1930838.925,8,400,,,
sequence,flow.Sequence,4_27,2023-09-11T20:36:17.101Z,,0,,,7952.2719998091925,completion,,,,,false,,,,1930825.8999996185,1930825.6999998093,1922856.82,1922869.3999996185,1922873.428,1930838.925,8,400,,,
trial,html.Screen,4_28_0,2023-09-11T20:36:22.096Z,,0,1,,4981.474999618484,response,ISIC_1453671.JPG,5,ISIC_0064393.JPG,ISIC_0064393.JPG,false,0,keypress(z),500,1935820.5999999046,1935820.3999996185,1930822.299,1930826,1930838.925,1935831.951,8,400,29,,ISIC_1453671.JPG
break,html.Screen,4_28_1,2023-09-11T20:36:22.096Z,,0,,,NaN,,,,,,false,,,,1935821.0999999046,1935820.8999996185,,1935820.6999998093,,1935831.951,8,400,,,
break_continue,html.Screen,4_28_2,2023-09-11T20:36:22.097Z,,0,,,NaN,,,,,,false,,,,1935821.299999714,1935821.1999998093,,1935821.0999999046,,1935831.951,8,400,,,
sequence,flow.Sequence,4_28,2023-09-11T20:36:22.097Z,,0,,,4982.274999809219,completion,,,,,false,,,,1935821.299999714,1935821.1999998093,1930822.299,1930825.8999996185,1930838.925,1935831.951,8,400,,,
trial,html.Screen,4_29_0,2023-09-11T20:36:27.795Z,,0,1,,5686.748999809381,response,ISIC_3300710.JPG,6,ISIC_0057487.JPG,ISIC_0057487.JPG,false,0,keypress(z),500,1941518.8999996185,1941518.6999998093,1935815.229,1935821.299999714,1935831.951,1941526.337,8,400,30,,ISIC_3300710.JPG
break,html.Screen,4_29_1,2023-09-11T20:36:27.795Z,,0,,,NaN,,,,,,false,,,,1941519.299999714,1941519.1999998093,,1941519,,1941526.337,8,400,,,
break_continue,html.Screen,4_29_2,2023-09-11T20:36:27.796Z,,0,,,NaN,,,,,,false,,,,1941519.5,1941519.3999996185,,1941519.3999996185,,1941526.337,8,400,,,
sequence,flow.Sequence,4_29,2023-09-11T20:36:27.796Z,,0,,,5687.448999618646,completion,,,,,false,,,,1941519.6999998093,1941519.3999996185,1935815.229,1935821.299999714,1935831.951,1941526.337,8,400,,,
trial,html.Screen,4_30_0,2023-09-11T20:36:32.550Z,,0,1,,4746.96299971384,response,ISIC_1681964.JPG,5,ISIC_0030238.JPG,ISIC_0030238.JPG,false,0,keypress(z),500,1946273.5,1946273.299999714,1941509.635,1941519.799999714,1941526.337,1946285.611,8,400,31,,ISIC_1681964.JPG
break,html.Screen,4_30_1,2023-09-11T20:36:32.551Z,,0,,,NaN,,,,,,false,,,,1946274.5999999046,1946274,,1946273.5999999046,,1946285.611,8,400,,,
break_continue,html.Screen,4_30_2,2023-09-11T20:36:32.551Z,,0,,,NaN,,,,,,false,,,,1946275,1946274.8999996185,,1946274.6999998093,,1946285.611,8,400,,,
sequence,flow.Sequence,4_30,2023-09-11T20:36:32.551Z,,0,,,4748.5629996184725,completion,,,,,false,,,,1946275.1999998093,1946274.8999996185,1941509.635,1941519.799999714,1941526.337,1946285.611,8,400,,,
trial,html.Screen,4_31_0,2023-09-11T20:36:38.554Z,,0,1,,5991.788999618497,response,ISIC_7682938.JPG,5,ISIC_0054334.JPG,ISIC_0054334.JPG,false,0,keypress(z),500,1952277.3999996185,1952277.3999996185,1946268.938,1946275.3999996185,1946285.611,1952280.606,8,400,32,,ISIC_7682938.JPG
break,html.Screen,4_31_1,2023-09-11T20:36:38.554Z,,0,,,NaN,,,,,,false,,,,1952277.799999714,1952277.799999714,,1952277.5,,1952280.606,8,400,,,
break_continue,html.Screen,4_31_2,2023-09-11T20:36:38.554Z,,0,,,NaN,,,,,,false,,,,1952278,1952278,,1952277.8999996185,,1952280.606,8,400,,,
sequence,flow.Sequence,4_31,2023-09-11T20:36:38.554Z,,0,,,5992.3889999999665,completion,,,,,false,,,,1952278.0999999046,1952278,1946268.938,1946275.299999714,1946285.611,1952280.606,8,400,,,
trial,html.Screen,4_32_0,2023-09-11T20:36:44.013Z,,0,1,,5455.793999618618,response,ISIC_0485529.JPG,5,ISIC_0014013.JPG,ISIC_0014013.JPG,false,0,keypress(z),500,1957736.5999999046,1957736.3999996185,1952264.134,1952278.1999998093,1952280.606,1957741.279,8,400,33,,ISIC_0485529.JPG
break,html.Screen,4_32_1,2023-09-11T20:36:44.013Z,,0,,,NaN,,,,,,false,,,,1957737.3999996185,1957737.1999998093,,1957736.8999996185,,1957741.279,8,400,,,
break_continue,html.Screen,4_32_2,2023-09-11T20:36:44.014Z,,0,,,NaN,,,,,,false,,,,1957737.6999998093,1957737.5,,1957737.3999996185,,1957741.279,8,400,,,
sequence,flow.Sequence,4_32,2023-09-11T20:36:44.014Z,,0,,,5456.8940000000875,completion,,,,,false,,,,1957737.6999998093,1957737.5,1952264.134,1952278.1999998093,1952280.606,1957741.279,8,400,,,
trial,html.Screen,4_33_0,2023-09-11T20:36:49.171Z,,0,1,,5154.020999713801,response,ISIC_1216139.JPG,5,ISIC_0033806.JPG,ISIC_0033806.JPG,false,0,keypress(z),500,1962895.3999996185,1962895.299999714,1957724.645,1957737.8999996185,1957741.279,1962901.325,8,400,34,,ISIC_1216139.JPG
break,html.Screen,4_33_1,2023-09-11T20:36:49.172Z,,0,,,NaN,,,,,,false,,,,1962895.8999996185,1962895.6999998093,,1962895.5,,1962901.325,8,400,,,
break_continue,html.Screen,4_33_2,2023-09-11T20:36:49.172Z,,0,,,NaN,,,,,,false,,,,1962896.0999999046,1962896,,1962895.8999996185,,1962901.325,8,400,,,
sequence,flow.Sequence,4_33,2023-09-11T20:36:49.172Z,,0,,,5154.720999999903,completion,,,,,false,,,,1962896.0999999046,1962896,1957724.645,1957737.799999714,1957741.279,1962901.325,8,400,,,
trial,html.Screen,4_34_0,2023-09-11T20:36:53.461Z,,0,1,,4283.774999904679,response,ISIC_6657600.JPG,5,ISIC_1165548.JPG,ISIC_6657600.JPG,false,1,keypress(m),500,1967185.299999714,1967185.0999999046,1962884.692,1962896.1999998093,1962901.325,1967193.013,8,400,35,,ISIC_1165548.JPG
break,html.Screen,4_34_1,2023-09-11T20:36:53.462Z,,0,,,NaN,,,,,,false,,,,1967186.1999998093,1967185.8999996185,,1967185.5999999046,,1967193.013,8,400,,,
break_continue,html.Screen,4_34_2,2023-09-11T20:36:53.463Z,,0,,,NaN,,,,,,false,,,,1967186.5,1967186.3999996185,,1967186.299999714,,1967193.013,8,400,,,
sequence,flow.Sequence,4_34,2023-09-11T20:36:53.463Z,,0,,,4285.074999618577,completion,,,,,false,,,,1967186.6999998093,1967186.3999996185,1962884.692,1962896.1999998093,1962901.325,1967193.013,8,400,,,
trial,html.Screen,4_35_0,2023-09-11T20:36:58.828Z,,0,1,,5359.086999904597,response,ISIC_0065121.JPG,5,ISIC_0011488.JPG,ISIC_0065121.JPG,false,1,keypress(m),500,1972552.1999998093,1972552.0999999046,1967176.37,1967186.799999714,1967193.013,1972553.383,8,400,36,,ISIC_0011488.JPG
break,html.Screen,4_35_1,2023-09-11T20:36:58.829Z,,0,,,NaN,,,,,,false,,,,1972552.5999999046,1972552.5,,1972552.1999998093,,1972553.383,8,400,,,
break_continue,html.Screen,4_35_2,2023-09-11T20:36:58.829Z,,0,,,NaN,,,,,,false,,,,1972552.799999714,1972552.799999714,,1972552.6999998093,,1972553.383,8,400,,,
sequence,flow.Sequence,4_35,2023-09-11T20:36:58.829Z,,0,,,5359.786999713862,completion,,,,,false,,,,1972552.799999714,1972552.799999714,1967176.37,1967186.799999714,1967193.013,1972553.383,8,400,,,
trial,html.Screen,4_36_0,2023-09-11T20:37:03.056Z,,0,1,,4226.516999618616,response,ISIC_0014666.JPG,5,ISIC_0302804.JPG,ISIC_0014666.JPG,false,1,keypress(m),500,1976780.1999998093,1976779.8999996185,1972536.741,1972552.8999996185,1972553.383,1976795.041,8,400,37,,ISIC_0302804.JPG
break,html.Screen,4_36_1,2023-09-11T20:37:03.057Z,,0,,,NaN,,,,,,false,,,,1976780.8999996185,1976780.6999998093,,1976780.299999714,,1976795.041,8,400,,,
break_continue,html.Screen,4_36_2,2023-09-11T20:37:03.057Z,,0,,,NaN,,,,,,false,,,,1976781.299999714,1976781.299999714,,1976781,,1976795.041,8,400,,,
sequence,flow.Sequence,4_36,2023-09-11T20:37:03.058Z,,0,,,4227.916999713983,completion,,,,,false,,,,1976781.5,1976781.299999714,1972536.741,1972552.8999996185,1972553.383,1976795.041,8,400,,,
trial,html.Screen,4_37_0,2023-09-11T20:37:07.752Z,,0,1,,4680.959000000032,response,ISIC_1292607.JPG,5,ISIC_3757004.JPG,ISIC_1292607.JPG,false,1,keypress(m),500,1981476.0999999046,1981476,1976778.386,1976781.5999999046,1976795.041,1981487.472,8,400,38,,ISIC_3757004.JPG
break,html.Screen,4_37_1,2023-09-11T20:37:07.753Z,,0,,,NaN,,,,,,false,,,,1981476.5,1981476.3999996185,,1981476.1999998093,,1981487.472,8,400,,,
break_continue,html.Screen,4_37_2,2023-09-11T20:37:07.753Z,,0,,,NaN,,,,,,false,,,,1981476.6999998093,1981476.6999998093,,1981476.5,,1981487.472,8,400,,,
sequence,flow.Sequence,4_37,2023-09-11T20:37:07.753Z,,0,,,4681.658999809297,completion,,,,,false,,,,1981476.6999998093,1981476.6999998093,1976778.386,1976781.5999999046,1976795.041,1981487.472,8,400,,,
trial,html.Screen,4_38_0,2023-09-11T20:37:11.520Z,,0,1,,3756.3279997138306,response,ISIC_0029343.JPG,6,ISIC_1508215.JPG,ISIC_0029343.JPG,false,1,keypress(m),500,1985243.8999996185,1985243.799999714,1981470.763,1981476.8999996185,1981487.472,1985261.571,8,400,39,,ISIC_1508215.JPG
break,html.Screen,4_38_1,2023-09-11T20:37:11.520Z,,0,,,NaN,,,,,,false,,,,1985244.3999996185,1985244.299999714,,1985244,,1985261.571,8,400,,,
break_continue,html.Screen,4_38_2,2023-09-11T20:37:11.521Z,,0,,,NaN,,,,,,false,,,,1985244.5,1985244.5,,1985244.5,,1985261.571,8,400,,,
sequence,flow.Sequence,4_38,2023-09-11T20:37:11.521Z,,0,,,3757.027999999933,completion,,,,,false,,,,1985244.5999999046,1985244.5,1981470.763,1981476.799999714,1981487.472,1985261.571,8,400,,,
trial,html.Screen,4_39_0,2023-09-11T20:37:18.194Z,,0,1,,6656.728999713901,response,ISIC_3444719.JPG,5,ISIC_0033154.JPG,ISIC_3444719.JPG,false,1,keypress(m),500,1991918.3999996185,1991918.299999714,1985244.766,1985244.5999999046,1985261.571,1991924.537,8,400,40,,ISIC_0033154.JPG
break,html.Screen,4_39_1,2023-09-11T20:37:18.195Z,,0,,,NaN,,,,,,false,,,,1991918.799999714,1991918.6999998093,,1991918.5,,1991924.537,8,400,,,
break_continue,html.Screen,4_39_2,2023-09-11T20:37:18.195Z,,0,,,NaN,,,,,,false,,,,1991918.8999996185,1991918.8999996185,,1991918.799999714,,1991924.537,8,400,,,
sequence,flow.Sequence,4_39,2023-09-11T20:37:18.195Z,,0,,,6657.328999618534,completion,,,,,false,,,,1991919,1991918.8999996185,1985244.766,1985244.5999999046,1985261.571,1991924.537,8,400,,,
trial,html.Screen,4_40_0,2023-09-11T20:37:22.005Z,,0,1,,3803.962999999989,response,ISIC_6670242.JPG,6,ISIC_0027109.JPG,ISIC_0027109.JPG,false,0,keypress(z),500,1995728.5999999046,1995728.5,1991907.752,1991919.0999999046,1991924.537,1995731.822,8,400,41,,ISIC_6670242.JPG
break,html.Screen,4_40_1,2023-09-11T20:37:22.005Z,,0,,,NaN,,,,,,false,,,,1995729.0999999046,1995729,,1995728.6999998093,,1995731.822,8,400,,,
break_continue,html.Screen,4_40_2,2023-09-11T20:37:22.005Z,,0,,,NaN,,,,,,false,,,,1995729.299999714,1995729.299999714,,1995729.1999998093,,1995731.822,8,400,,,
sequence,flow.Sequence,4_40,2023-09-11T20:37:22.006Z,,0,,,3804.7629997138865,completion,,,,,false,,,,1995729.5,1995729.299999714,1991907.752,1991919.0999999046,1991924.537,1995731.822,8,400,,,
trial,html.Screen,4_41_0,2023-09-11T20:37:27.672Z,,0,1,,5663.377999809338,response,ISIC_0031545.JPG,6,ISIC_0055996.JPG,ISIC_0031545.JPG,false,1,keypress(m),500,2001395.3999996185,2001395.1999998093,1995715.14,1995729.5999999046,1995731.822,2001409.657,8,400,42,,ISIC_0055996.JPG
break,html.Screen,4_41_1,2023-09-11T20:37:27.673Z,,0,,,NaN,,,,,,false,,,,2001396.299999714,2001396,,2001395.5999999046,,2001409.657,8,400,,,
break_continue,html.Screen,4_41_2,2023-09-11T20:37:27.673Z,,0,,,NaN,,,,,,false,,,,2001396.5999999046,2001396.5999999046,,2001396.3999996185,,2001409.657,8,400,,,
sequence,flow.Sequence,4_41,2023-09-11T20:37:27.674Z,,0,,,5664.777999904705,completion,,,,,false,,,,2001396.799999714,2001396.5999999046,1995715.14,1995729.5999999046,1995731.822,2001409.657,8,400,,,
trial,html.Screen,4_42_0,2023-09-11T20:37:33.803Z,,0,1,,6116.74299961864,response,ISIC_7892362.JPG,6,ISIC_7183212.JPG,ISIC_7183212.JPG,false,0,keypress(z),500,2007526.5,2007526.3999996185,2001392.861,2001396.8999996185,2001409.657,2007538.226,8,400,43,,ISIC_7892362.JPG
break,html.Screen,4_42_1,2023-09-11T20:37:33.804Z,,0,,,NaN,,,,,,false,,,,2007527.0999999046,2007527,,2007526.6999998093,,2007538.226,8,400,,,
break_continue,html.Screen,4_42_2,2023-09-11T20:37:33.804Z,,0,,,NaN,,,,,,false,,,,2007527.3999996185,2007527.299999714,,2007527.299999714,,2007538.226,8,400,,,
sequence,flow.Sequence,4_42,2023-09-11T20:37:33.804Z,,0,,,6117.642999714008,completion,,,,,false,,,,2007527.5999999046,2007527.299999714,2001392.861,2001396.8999996185,2001409.657,2007538.226,8,400,,,
trial,html.Screen,4_43_0,2023-09-11T20:37:39.312Z,,0,1,,5497.0739997138735,response,ISIC_0027076.JPG,5,ISIC_6970607.JPG,ISIC_0027076.JPG,false,1,keypress(m),500,2013035.5,2013035.299999714,2007521.522,2007527.5999999046,2007538.226,2013048.869,8,400,44,,ISIC_6970607.JPG
break,html.Screen,4_43_1,2023-09-11T20:37:39.313Z,,0,,,NaN,,,,,,false,,,,2013035.8999996185,2013035.799999714,,2013035.5,,2013048.869,8,400,,,
break_continue,html.Screen,4_43_2,2023-09-11T20:37:39.313Z,,0,,,NaN,,,,,,false,,,,2013036.1999998093,2013036.1999998093,,2013036.0999999046,,2013048.869,8,400,,,
sequence,flow.Sequence,4_43,2023-09-11T20:37:39.313Z,,0,,,5497.973999809241,completion,,,,,false,,,,2013036.299999714,2013036.1999998093,2007521.522,2007527.5999999046,2007538.226,2013048.869,8,400,,,
trial,html.Screen,4_44_0,2023-09-11T20:37:44.953Z,,0,1,,5627.43099971395,response,ISIC_1352841.JPG,5,ISIC_9544059.JPG,ISIC_1352841.JPG,false,1,keypress(m),500,2018676.3999996185,2018676.299999714,2013032.302,2013036.3999996185,2013048.869,2018693.27,8,400,45,,ISIC_9544059.JPG
break,html.Screen,4_44_1,2023-09-11T20:37:44.954Z,,0,,,NaN,,,,,,false,,,,2018676.8999996185,2018676.799999714,,2018676.5,,2018693.27,8,400,,,
break_continue,html.Screen,4_44_2,2023-09-11T20:37:44.954Z,,0,,,NaN,,,,,,false,,,,2018677.1999998093,2018677.0999999046,,2018677,,2018693.27,8,400,,,
sequence,flow.Sequence,4_44,2023-09-11T20:37:44.954Z,,0,,,5628.230999904685,completion,,,,,false,,,,2018677.1999998093,2018677.0999999046,2013032.302,2013036.3999996185,2013048.869,2018693.27,8,400,,,
trial,html.Screen,4_45_0,2023-09-11T20:37:50.144Z,,0,1,,5173.829999904614,response,ISIC_1308649.JPG,5,ISIC_1784255.JPG,ISIC_1784255.JPG,false,0,keypress(z),500,2023867.1999998093,2023867.0999999046,2018676.504,2018677.299999714,2018693.27,2023869.916,8,400,46,,ISIC_1308649.JPG
break,html.Screen,4_45_1,2023-09-11T20:37:50.144Z,,0,,,NaN,,,,,,false,,,,2023867.6999998093,2023867.5999999046,,2023867.299999714,,2023869.916,8,400,,,
break_continue,html.Screen,4_45_2,2023-09-11T20:37:50.145Z,,0,,,NaN,,,,,,false,,,,2023867.799999714,2023867.799999714,,2023867.6999998093,,2023869.916,8,400,,,
sequence,flow.Sequence,4_45,2023-09-11T20:37:50.145Z,,0,,,5174.529999713879,completion,,,,,false,,,,2023868,2023867.799999714,2018676.504,2018677.299999714,2018693.27,2023869.916,8,400,,,
trial,html.Screen,4_46_0,2023-09-11T20:37:57.715Z,,0,1,,7567.783999809297,response,ISIC_0006158.JPG,5,ISIC_7185913.JPG,ISIC_7185913.JPG,false,0,keypress(z),500,2031438,2031437.6999998093,2023853.326,2023868,2023869.916,2031451.47,8,400,47,,ISIC_0006158.JPG
break,html.Screen,4_46_1,2023-09-11T20:37:57.716Z,,0,,,NaN,,,,,,false,,,,2031439.1999998093,2031438.8999996185,,2031438.3999996185,,2031451.47,8,400,,,
break_continue,html.Screen,4_46_2,2023-09-11T20:37:57.717Z,,0,,,NaN,,,,,,false,,,,2031439.799999714,2031439.5999999046,,2031439.3999996185,,2031451.47,8,400,,,
sequence,flow.Sequence,4_46,2023-09-11T20:37:57.717Z,,0,,,7569.683999904664,completion,,,,,false,,,,2031440,2031439.5999999046,2023853.326,2023868,2023869.916,2031451.47,8,400,,,
trial,html.Screen,4_47_0,2023-09-11T20:38:02.317Z,,0,1,,4588.530000000028,response,ISIC_0010714.JPG,5,ISIC_0033149.JPG,ISIC_0010714.JPG,false,1,keypress(m),500,2036040.0999999046,2036040,2031434.755,2031440.1999998093,2031451.47,2036043.607,8,400,48,,ISIC_0033149.JPG
break,html.Screen,4_47_1,2023-09-11T20:38:02.317Z,,0,,,NaN,,,,,,false,,,,2036040.6999998093,2036040.5999999046,,2036040.299999714,,2036043.607,8,400,,,
break_continue,html.Screen,4_47_2,2023-09-11T20:38:02.318Z,,0,,,NaN,,,,,,false,,,,2036040.8999996185,2036040.799999714,,2036040.6999998093,,2036043.607,8,400,,,
sequence,flow.Sequence,4_47,2023-09-11T20:38:02.318Z,,0,,,4589.329999713926,completion,,,,,false,,,,2036040.8999996185,2036040.799999714,2031434.755,2031440.0999999046,2031451.47,2036043.607,8,400,,,
trial,html.Screen,4_48_0,2023-09-11T20:38:08.063Z,,0,1,,5742.392999999924,response,ISIC_6339509.JPG,6,ISIC_8127323.JPG,ISIC_6339509.JPG,false,1,keypress(m),500,2041786.299999714,2041786,2036026.931,2036041.0999999046,2036043.607,2041788.204,8,400,49,,ISIC_8127323.JPG
break,html.Screen,4_48_1,2023-09-11T20:38:08.064Z,,0,,,NaN,,,,,,false,,,,2041787.5,2041787.299999714,,2041786.5999999046,,2041788.204,8,400,,,
break_continue,html.Screen,4_48_2,2023-09-11T20:38:08.065Z,,0,,,NaN,,,,,,false,,,,2041788.0999999046,2041788,,2041787.6999998093,,2041788.204,8,400,,,
sequence,flow.Sequence,4_48,2023-09-11T20:38:08.065Z,,0,,,5744.392999999924,completion,,,,,false,,,,2041788.3999996185,2041788,2036026.931,2036041,2036043.607,2041788.204,8,400,,,
trial,html.Screen,4_49_0,2023-09-11T20:38:13.732Z,,0,1,,5666.4959998093545,response,ISIC_0033226.JPG,6,ISIC_9785077.JPG,ISIC_9785077.JPG,false,0,keypress(z),500,2047454.799999714,2047454.6999998093,2041771.456,2041788.5999999046,2041788.204,2047465.877,8,400,50,,ISIC_0033226.JPG
break,html.Screen,4_49_1,2023-09-11T20:38:23.730Z,,0,,,10002.887999999803,timeout,,,,,false,,,,2057452.6999998093,2057452.128,2047449.174,2047454.8999996185,2047465.877,2057468.765,8,400,,,
break_continue,html.Screen,4_49_2,2023-09-11T20:38:27.102Z,,0,,,3352.4349998093676,response,,,,,false,continue,keypress(Space),,2060824.8999996185,2060821.1999998093,2057452.128,2057452.8999996185,2057468.765,2060842.15,8,400,,,
sequence,flow.Sequence,4_49,2023-09-11T20:38:27.102Z,,0,,,19032.995999809355,completion,,,,,false,,,,2060825,2060821.1999998093,2041771.456,2041788.5,2041788.204,2060842.15,8,400,,,
trial,html.Screen,4_50_0,2023-09-11T20:38:31.255Z,,0,2,,4135.850000000093,response,ISIC_0004794.JPG,5,ISIC_6487809.JPG,ISIC_0004794.JPG,false,1,keypress(m),500,2064978.1999998093,2064978,2060825.165,2060825,2060842.15,2064983.309,8,400,1,,ISIC_6487809.JPG
break,html.Screen,4_50_1,2023-09-11T20:38:31.256Z,,0,,,NaN,,,,,,false,,,,2064978.799999714,2064978.6999998093,,2064978.3999996185,,2064983.309,8,400,,,
break_continue,html.Screen,4_50_2,2023-09-11T20:38:31.256Z,,0,,,NaN,,,,,,false,,,,2064979.1999998093,2064979.0999999046,,2064978.8999996185,,2064983.309,8,400,,,
sequence,flow.Sequence,4_50,2023-09-11T20:38:31.256Z,,0,,,4136.949999904726,completion,,,,,false,,,,2064979.1999998093,2064979.0999999046,2060825.165,2060825,2060842.15,2064983.309,8,400,,,
trial,html.Screen,4_51_0,2023-09-11T20:38:35.691Z,,0,2,,4430.390999809373,response,ISIC_0059065.JPG,5,ISIC_3448630.JPG,ISIC_0059065.JPG,false,1,keypress(m),500,2069413.799999714,2069413.6999998093,2064966.603,2064979.299999714,2064983.309,2069425.285,8,400,2,,ISIC_3448630.JPG
break,html.Screen,4_51_1,2023-09-11T20:38:35.691Z,,0,,,NaN,,,,,,false,,,,2069414.1999998093,2069414.0999999046,,2069413.8999996185,,2069425.285,8,400,,,
break_continue,html.Screen,4_51_2,2023-09-11T20:38:35.692Z,,0,,,NaN,,,,,,false,,,,2069414.299999714,2069414.299999714,,2069414.299999714,,2069425.285,8,400,,,
sequence,flow.Sequence,4_51,2023-09-11T20:38:35.692Z,,0,,,4430.990999714006,completion,,,,,false,,,,2069414.3999996185,2069414.299999714,2064966.603,2064979.1999998093,2064983.309,2069425.285,8,400,,,
trial,html.Screen,4_52_0,2023-09-11T20:38:38.621Z,,0,2,,2918.114999618614,response,ISIC_0032331.JPG,6,ISIC_9685480.JPG,ISIC_0032331.JPG,false,1,keypress(m),500,2072343.5,2072343.3999996185,2069408.752,2069414.5,2069425.285,2072347.616,8,400,3,,ISIC_9685480.JPG
break,html.Screen,4_52_1,2023-09-11T20:38:38.621Z,,0,,,NaN,,,,,,false,,,,2072344,2072343.8999996185,,2072343.6999998093,,2072347.616,8,400,,,
break_continue,html.Screen,4_52_2,2023-09-11T20:38:38.621Z,,0,,,NaN,,,,,,false,,,,2072344.1999998093,2072344.1999998093,,2072344.0999999046,,2072347.616,8,400,,,
sequence,flow.Sequence,4_52,2023-09-11T20:38:38.621Z,,0,,,2918.914999809349,completion,,,,,false,,,,2072344.3999996185,2072344.1999998093,2069408.752,2069414.5,2069425.285,2072347.616,8,400,,,
trial,html.Screen,4_53_0,2023-09-11T20:38:42.484Z,,0,2,,3858.983999904711,response,ISIC_0028565.JPG,5,ISIC_0012450.JPG,ISIC_0028565.JPG,false,1,keypress(m),500,2076206.6999998093,2076206.5999999046,2072330.929,2072344.3999996185,2072347.616,2076221.917,8,400,4,,ISIC_0012450.JPG
break,html.Screen,4_53_1,2023-09-11T20:38:42.484Z,,0,,,NaN,,,,,,false,,,,2076207.1999998093,2076207,,2076206.8999996185,,2076221.917,8,400,,,
break_continue,html.Screen,4_53_2,2023-09-11T20:38:42.485Z,,0,,,NaN,,,,,,false,,,,2076207.299999714,2076207.299999714,,2076207.1999998093,,2076221.917,8,400,,,
sequence,flow.Sequence,4_53,2023-09-11T20:38:42.485Z,,0,,,3859.683999713976,completion,,,,,false,,,,2076207.3999996185,2076207.299999714,2072330.929,2072344.3999996185,2072347.616,2076221.917,8,400,,,
trial,html.Screen,4_54_0,2023-09-11T20:38:46.392Z,,0,2,,3892.3829997139983,response,ISIC_0025324.JPG,5,ISIC_0059769.JPG,ISIC_0025324.JPG,false,1,keypress(m),500,2080114.3999996185,2080114.299999714,2076205.232,2076207.5,2076221.917,2080129.404,8,400,5,,ISIC_0059769.JPG
break,html.Screen,4_54_1,2023-09-11T20:38:46.392Z,,0,,,NaN,,,,,,false,,,,2080114.8999996185,2080114.799999714,,2080114.5,,2080129.404,8,400,,,
break_continue,html.Screen,4_54_2,2023-09-11T20:38:46.392Z,,0,,,NaN,,,,,,false,,,,2080115.0999999046,2080115.0999999046,,2080115,,2080129.404,8,400,,,
sequence,flow.Sequence,4_54,2023-09-11T20:38:46.392Z,,0,,,3893.182999904733,completion,,,,,false,,,,2080115.299999714,2080115.0999999046,2076205.232,2076207.3999996185,2076221.917,2080129.404,8,400,,,
trial,html.Screen,4_55_0,2023-09-11T20:38:50.459Z,,0,2,,4052.2959998091683,response,ISIC_4229473.JPG,5,ISIC_2021321.JPG,ISIC_2021321.JPG,false,0,keypress(z),500,2084181.799999714,2084181.6999998093,2080112.728,2080115.299999714,2080129.404,2084187.346,8,400,6,,ISIC_4229473.JPG
break,html.Screen,4_55_1,2023-09-11T20:38:50.459Z,,0,,,NaN,,,,,,false,,,,2084182.299999714,2084182.0999999046,,2084181.8999996185,,2084187.346,8,400,,,
break_continue,html.Screen,4_55_2,2023-09-11T20:38:50.460Z,,0,,,NaN,,,,,,false,,,,2084182.3999996185,2084182.3999996185,,2084182.3999996185,,2084187.346,8,400,,,
sequence,flow.Sequence,4_55,2023-09-11T20:38:50.460Z,,0,,,4052.9959996184334,completion,,,,,false,,,,2084182.5999999046,2084182.3999996185,2080112.728,2080115.299999714,2080129.404,2084187.346,8,400,,,
trial,html.Screen,4_56_0,2023-09-11T20:38:55.381Z,,0,2,,4916.654000000097,response,ISIC_0028207.JPG,6,ISIC_4311777.JPG,ISIC_0028207.JPG,false,1,keypress(m),500,2089104.1999998093,2089104,2084170.622,2084182.5999999046,2084187.346,2089113.733,8,400,7,,ISIC_4311777.JPG
break,html.Screen,4_56_1,2023-09-11T20:38:55.382Z,,0,,,NaN,,,,,,false,,,,2089104.799999714,2089104.5,,2089104.1999998093,,2089113.733,8,400,,,
break_continue,html.Screen,4_56_2,2023-09-11T20:38:55.382Z,,0,,,NaN,,,,,,false,,,,2089105.1999998093,2089105,,2089104.8999996185,,2089113.733,8,400,,,
sequence,flow.Sequence,4_56,2023-09-11T20:38:55.382Z,,0,,,4917.654000000097,completion,,,,,false,,,,2089105.1999998093,2089105,2084170.622,2084182.5999999046,2084187.346,2089113.733,8,400,,,
trial,html.Screen,4_57_0,2023-09-11T20:38:59.544Z,,0,2,,4153.366999904625,response,ISIC_0026020.JPG,5,ISIC_0061870.JPG,ISIC_0026020.JPG,false,1,keypress(m),500,2093267.299999714,2093267.0999999046,2089096.885,2089105.1999998093,2089113.733,2093271.653,8,400,8,,ISIC_0061870.JPG
break,html.Screen,4_57_1,2023-09-11T20:38:59.545Z,,0,,,NaN,,,,,,false,,,,2093267.6999998093,2093267.5999999046,,2093267.3999996185,,2093271.653,8,400,,,
break_continue,html.Screen,4_57_2,2023-09-11T20:38:59.545Z,,0,,,NaN,,,,,,false,,,,2093267.799999714,2093267.799999714,,2093267.799999714,,2093271.653,8,400,,,
sequence,flow.Sequence,4_57,2023-09-11T20:38:59.545Z,,0,,,4154.06699971389,completion,,,,,false,,,,2093267.8999996185,2093267.799999714,2089096.885,2089105.1999998093,2089113.733,2093271.653,8,400,,,
trial,html.Screen,4_58_0,2023-09-11T20:39:03.674Z,,0,2,,4125.046999809332,response,ISIC_0013059.JPG,5,ISIC_0033708.JPG,ISIC_0033708.JPG,false,0,keypress(z),500,2097397,2097396.6999998093,2093255.056,2093268.0999999046,2093271.653,2097413.045,8,400,9,,ISIC_0013059.JPG
break,html.Screen,4_58_1,2023-09-11T20:39:03.675Z,,0,,,NaN,,,,,,false,,,,2097397.3999996185,2097397.1999998093,,2097397,,2097413.045,8,400,,,
break_continue,html.Screen,4_58_2,2023-09-11T20:39:03.675Z,,0,,,NaN,,,,,,false,,,,2097397.5,2097397.5,,2097397.3999996185,,2097413.045,8,400,,,
sequence,flow.Sequence,4_58,2023-09-11T20:39:03.675Z,,0,,,4125.847000000067,completion,,,,,false,,,,2097397.5999999046,2097397.5,2093255.056,2093268,2093271.653,2097413.045,8,400,,,
trial,html.Screen,4_59_0,2023-09-11T20:39:07.266Z,,0,2,,3575.354999618605,response,ISIC_2784965.JPG,5,ISIC_1884256.JPG,ISIC_1884256.JPG,false,0,keypress(z),500,2100988.5999999046,2100988.3999996185,2097396.423,2097397.6999998093,2097413.045,2101003.456,8,400,10,,ISIC_2784965.JPG
break,html.Screen,4_59_1,2023-09-11T20:39:07.266Z,,0,,,NaN,,,,,,false,,,,2100989,2100988.8999996185,,2100988.6999998093,,2101003.456,8,400,,,
break_continue,html.Screen,4_59_2,2023-09-11T20:39:07.266Z,,0,,,NaN,,,,,,false,,,,2100989.1999998093,2100989.0999999046,,2100989.0999999046,,2101003.456,8,400,,,
sequence,flow.Sequence,4_59,2023-09-11T20:39:07.266Z,,0,,,3576.054999904707,completion,,,,,false,,,,2100989.299999714,2100989.0999999046,2097396.423,2097397.5999999046,2097413.045,2101003.456,8,400,,,
trial,html.Screen,4_60_0,2023-09-11T20:39:10.692Z,,0,2,,3411.2439998094924,response,ISIC_0068239.JPG,5,ISIC_0031233.JPG,ISIC_0031233.JPG,false,0,keypress(z),500,2104414.8999996185,2104414.6999998093,2100986.671,2100989.299999714,2101003.456,2104426.771,8,400,11,,ISIC_0068239.JPG
break,html.Screen,4_60_1,2023-09-11T20:39:10.693Z,,0,,,NaN,,,,,,false,,,,2104415.5,2104415.299999714,,2104415.0999999046,,2104426.771,8,400,,,
break_continue,html.Screen,4_60_2,2023-09-11T20:39:10.693Z,,0,,,NaN,,,,,,false,,,,2104415.799999714,2104415.6999998093,,2104415.5,,2104426.771,8,400,,,
sequence,flow.Sequence,4_60,2023-09-11T20:39:10.693Z,,0,,,3412.2439998094924,completion,,,,,false,,,,2104415.8999996185,2104415.6999998093,2100986.671,2100989.299999714,2101003.456,2104426.771,8,400,,,
trial,html.Screen,4_61_0,2023-09-11T20:39:16.059Z,,0,2,,5354.528999713715,response,ISIC_0069260.JPG,5,ISIC_0005139.JPG,ISIC_0069260.JPG,false,1,keypress(m),500,2109781.3999996185,2109781.299999714,2104410.133,2104416,2104426.771,2109787.115,8,400,12,,ISIC_0005139.JPG
break,html.Screen,4_61_1,2023-09-11T20:39:16.059Z,,0,,,NaN,,,,,,false,,,,2109781.8999996185,2109781.799999714,,2109781.5,,2109787.115,8,400,,,
break_continue,html.Screen,4_61_2,2023-09-11T20:39:16.059Z,,0,,,NaN,,,,,,false,,,,2109782.1999998093,2109782,,2109782,,2109787.115,8,400,,,
sequence,flow.Sequence,4_61,2023-09-11T20:39:16.059Z,,0,,,5355.2289999998175,completion,,,,,false,,,,2109782.299999714,2109782,2104410.133,2104416,2104426.771,2109787.115,8,400,,,
trial,html.Screen,4_62_0,2023-09-11T20:39:20.881Z,,0,2,,4817.084999809042,response,ISIC_0000552.JPG,5,ISIC_6377613.JPG,ISIC_0000552.JPG,false,1,keypress(m),500,2114604.299999714,2114604.1999998093,2109770.459,2109782.299999714,2109787.115,2114613.283,8,400,13,,ISIC_6377613.JPG
break,html.Screen,4_62_1,2023-09-11T20:39:20.882Z,,0,,,NaN,,,,,,false,,,,2114604.8999996185,2114604.799999714,,2114604.3999996185,,2114613.283,8,400,,,
break_continue,html.Screen,4_62_2,2023-09-11T20:39:20.883Z,,0,,,NaN,,,,,,false,,,,2114605.3999996185,2114605.1999998093,,2114605.0999999046,,2114613.283,8,400,,,
sequence,flow.Sequence,4_62,2023-09-11T20:39:20.883Z,,0,,,4818.084999809042,completion,,,,,false,,,,2114605.5,2114605.1999998093,2109770.459,2109782.299999714,2109787.115,2114613.283,8,400,,,
trial,html.Screen,4_63_0,2023-09-11T20:39:25.670Z,,0,2,,4778.316999904811,response,ISIC_0031844.JPG,5,ISIC_0028859.JPG,ISIC_0028859.JPG,false,0,keypress(z),500,2119391.5999999046,2119391.5999999046,2114596.521,2114605.5,2114613.283,2119405.851,8,400,14,,ISIC_0031844.JPG
break,html.Screen,4_63_1,2023-09-11T20:39:25.670Z,,0,,,NaN,,,,,,false,,,,2119392.0999999046,2119391.8999996185,,2119391.6999998093,,2119405.851,8,400,,,
break_continue,html.Screen,4_63_2,2023-09-11T20:39:25.670Z,,0,,,NaN,,,,,,false,,,,2119392.299999714,2119392.299999714,,2119392.1999998093,,2119405.851,8,400,,,
sequence,flow.Sequence,4_63,2023-09-11T20:39:25.671Z,,0,,,4779.0169997140765,completion,,,,,false,,,,2119392.3999996185,2119392.299999714,2114596.521,2114605.5,2114613.283,2119405.851,8,400,,,
trial,html.Screen,4_64_0,2023-09-11T20:39:28.765Z,,0,2,,3080.3489998094738,response,ISIC_2620357.JPG,5,ISIC_0025603.JPG,ISIC_0025603.JPG,false,0,keypress(z),500,2122486.3999996185,2122486.1999998093,2119389.171,2119392.5,2119405.851,2122495.207,8,400,15,,ISIC_2620357.JPG
break,html.Screen,4_64_1,2023-09-11T20:39:28.765Z,,0,,,NaN,,,,,,false,,,,2122487.3999996185,2122487.0999999046,,2122486.6999998093,,2122495.207,8,400,,,
break_continue,html.Screen,4_64_2,2023-09-11T20:39:28.766Z,,0,,,NaN,,,,,,false,,,,2122487.5999999046,2122487.5,,2122487.5,,2122495.207,8,400,,,
sequence,flow.Sequence,4_64,2023-09-11T20:39:28.766Z,,0,,,3081.6490000002086,completion,,,,,false,,,,2122487.6999998093,2122487.5,2119389.171,2119392.5,2119405.851,2122495.207,8,400,,,
trial,html.Screen,4_65_0,2023-09-11T20:39:32.130Z,,0,2,,3356.2930000000633,response,ISIC_2494956.JPG,5,ISIC_0058149.JPG,ISIC_0058149.JPG,false,0,keypress(z),500,2125851.799999714,2125851.5,2122478.55,2122487.8999996185,2122495.207,2125868.473,8,400,16,,ISIC_2494956.JPG
break,html.Screen,4_65_1,2023-09-11T20:39:32.131Z,,0,,,NaN,,,,,,false,,,,2125853,2125852.6999998093,,2125852.0999999046,,2125868.473,8,400,,,
break_continue,html.Screen,4_65_2,2023-09-11T20:39:32.132Z,,0,,,NaN,,,,,,false,,,,2125853.5999999046,2125853.299999714,,2125853.0999999046,,2125868.473,8,400,,,
sequence,flow.Sequence,4_65,2023-09-11T20:39:32.132Z,,0,,,3358.092999713961,completion,,,,,false,,,,2125853.799999714,2125853.299999714,2122478.55,2122487.8999996185,2122495.207,2125868.473,8,400,,,
trial,html.Screen,4_66_0,2023-09-11T20:39:35.863Z,,0,2,,3715.8269997136667,response,ISIC_3642043.JPG,5,ISIC_0012298.JPG,ISIC_0012298.JPG,false,0,keypress(z),500,2129584.5,2129584.299999714,2125851.799,2125854,2125868.473,2129592.425,8,400,17,,ISIC_3642043.JPG
break,html.Screen,4_66_1,2023-09-11T20:39:35.863Z,,0,,,NaN,,,,,,false,,,,2129585,2129585,,2129584.5999999046,,2129592.425,8,400,,,
break_continue,html.Screen,4_66_2,2023-09-11T20:39:35.864Z,,0,,,NaN,,,,,,false,,,,2129585.3999996185,2129585.299999714,,2129585.1999998093,,2129592.425,8,400,,,
sequence,flow.Sequence,4_66,2023-09-11T20:39:35.864Z,,0,,,3716.8269997136667,completion,,,,,false,,,,2129585.5,2129585.299999714,2125851.799,2125854,2125868.473,2129592.425,8,400,,,
trial,html.Screen,4_67_0,2023-09-11T20:39:39.962Z,,0,2,,4090.874999714084,response,ISIC_0011869.JPG,4,ISIC_9529971.JPG,ISIC_0011869.JPG,false,1,keypress(m),500,2133683.3999996185,2133683.299999714,2129575.807,2129585.5999999046,2129592.425,2133700.332,8,400,18,,ISIC_9529971.JPG
break,html.Screen,4_67_1,2023-09-11T20:39:39.962Z,,0,,,NaN,,,,,,false,,,,2133684.0999999046,2133683.799999714,,2133683.5,,2133700.332,8,400,,,
break_continue,html.Screen,4_67_2,2023-09-11T20:39:39.963Z,,0,,,NaN,,,,,,false,,,,2133684.5,2133684.3999996185,,2133684.299999714,,2133700.332,8,400,,,
sequence,flow.Sequence,4_67,2023-09-11T20:39:39.963Z,,0,,,4091.9749996187165,completion,,,,,false,,,,2133684.5999999046,2133684.3999996185,2129575.807,2129585.5999999046,2129592.425,2133700.332,8,400,,,
trial,html.Screen,4_68_0,2023-09-11T20:39:47.916Z,,0,2,,7937.267999904696,response,ISIC_0071367.JPG,5,ISIC_6701139.JPG,ISIC_0071367.JPG,false,1,keypress(m),500,2141637.799999714,2141637.5999999046,2133683.663,2133684.6999998093,2133700.332,2141649.158,8,400,19,,ISIC_6701139.JPG
break,html.Screen,4_68_1,2023-09-11T20:39:47.916Z,,0,,,NaN,,,,,,false,,,,2141638.1999998093,2141638.0999999046,,2141637.8999996185,,2141649.158,8,400,,,
break_continue,html.Screen,4_68_2,2023-09-11T20:39:47.917Z,,0,,,NaN,,,,,,false,,,,2141638.5,2141638.3999996185,,2141638.3999996185,,2141649.158,8,400,,,
sequence,flow.Sequence,4_68,2023-09-11T20:39:47.917Z,,0,,,7938.067999618594,completion,,,,,false,,,,2141638.5999999046,2141638.3999996185,2133683.663,2133684.5999999046,2133700.332,2141649.158,8,400,,,
trial,html.Screen,4_69_0,2023-09-11T20:39:52.864Z,,0,2,,4936.441999904811,response,ISIC_0061825.JPG,6,ISIC_0071430.JPG,ISIC_0061825.JPG,false,1,keypress(m),500,2146585.799999714,2146585.5999999046,2141632.457,2141638.5999999046,2141649.158,2146592.086,8,400,20,,ISIC_0071430.JPG
break,html.Screen,4_69_1,2023-09-11T20:39:52.865Z,,0,,,NaN,,,,,,false,,,,2146586.5,2146586.1999998093,,2146585.8999996185,,2146592.086,8,400,,,
break_continue,html.Screen,4_69_2,2023-09-11T20:39:52.865Z,,0,,,NaN,,,,,,false,,,,2146587.0999999046,2146586.8999996185,,2146586.5999999046,,2146592.086,8,400,,,
sequence,flow.Sequence,4_69,2023-09-11T20:39:52.865Z,,0,,,4937.741999618709,completion,,,,,false,,,,2146587.0999999046,2146586.8999996185,2141632.457,2141638.5999999046,2141649.158,2146592.086,8,400,,,
trial,html.Screen,4_70_0,2023-09-11T20:39:58.889Z,,0,2,,6018.713999713771,response,ISIC_7380353.JPG,5,ISIC_0000429.JPG,ISIC_0000429.JPG,false,0,keypress(z),500,2152610.799999714,2152610.799999714,2146575.486,2146587.299999714,2146592.086,2152620.515,8,400,21,,ISIC_7380353.JPG
break,html.Screen,4_70_1,2023-09-11T20:39:58.890Z,,0,,,NaN,,,,,,false,,,,2152611.3999996185,2152611.299999714,,2152611,,2152620.515,8,400,,,
break_continue,html.Screen,4_70_2,2023-09-11T20:39:58.890Z,,0,,,NaN,,,,,,false,,,,2152611.6999998093,2152611.6999998093,,2152611.5,,2152620.515,8,400,,,
sequence,flow.Sequence,4_70,2023-09-11T20:39:58.890Z,,0,,,6019.6139998091385,completion,,,,,false,,,,2152611.6999998093,2152611.6999998093,2146575.486,2146587.299999714,2146592.086,2152620.515,8,400,,,
trial,html.Screen,4_71_0,2023-09-11T20:40:02.364Z,,0,2,,3464.9849999998696,response,ISIC_8503961.JPG,6,ISIC_2253931.JPG,ISIC_8503961.JPG,false,1,keypress(m),500,2156085.6999998093,2156085.5,2152603.827,2152611.799999714,2152620.515,2156093.996,8,400,22,,ISIC_2253931.JPG
break,html.Screen,4_71_1,2023-09-11T20:40:02.364Z,,0,,,NaN,,,,,,false,,,,2156086.0999999046,2156085.8999996185,,2156085.6999998093,,2156093.996,8,400,,,
break_continue,html.Screen,4_71_2,2023-09-11T20:40:02.365Z,,0,,,NaN,,,,,,false,,,,2156086.5,2156086.3999996185,,2156086.299999714,,2156093.996,8,400,,,
sequence,flow.Sequence,4_71,2023-09-11T20:40:02.365Z,,0,,,3465.8849996184,completion,,,,,false,,,,2156086.5,2156086.3999996185,2152603.827,2152611.799999714,2152620.515,2156093.996,8,400,,,
trial,html.Screen,4_72_0,2023-09-11T20:40:07.966Z,,0,2,,5593.703999809455,response,ISIC_0033025.JPG,5,ISIC_0067577.JPG,ISIC_0067577.JPG,false,0,keypress(z),500,2161687.8999996185,2161687.6999998093,2156077.223,2156086.5999999046,2156093.996,2161704.948,8,400,23,,ISIC_0033025.JPG
break,html.Screen,4_72_1,2023-09-11T20:40:07.967Z,,0,,,NaN,,,,,,false,,,,2161688.5999999046,2161688.299999714,,2161688,,2161704.948,8,400,,,
break_continue,html.Screen,4_72_2,2023-09-11T20:40:07.967Z,,0,,,NaN,,,,,,false,,,,2161689,2161689,,2161688.799999714,,2161704.948,8,400,,,
sequence,flow.Sequence,4_72,2023-09-11T20:40:07.967Z,,0,,,5595.00400000019,completion,,,,,false,,,,2161689.0999999046,2161689,2156077.223,2156086.5999999046,2156093.996,2161704.948,8,400,,,
trial,html.Screen,4_73_0,2023-09-11T20:40:12.377Z,,0,2,,4393.351999714039,response,ISIC_0057344.JPG,5,ISIC_0000569.JPG,ISIC_0057344.JPG,false,1,keypress(m),500,2166098.5999999046,2166098.299999714,2161671.631,2161689.1999998093,2161704.948,2166113.522,8,400,24,,ISIC_0000569.JPG
break,html.Screen,4_73_1,2023-09-11T20:40:12.377Z,,0,,,NaN,,,,,,false,,,,2166099.0999999046,2166099,,2166098.5999999046,,2166113.522,8,400,,,
break_continue,html.Screen,4_73_2,2023-09-11T20:40:12.377Z,,0,,,NaN,,,,,,false,,,,2166099.299999714,2166099.299999714,,2166099.1999998093,,2166113.522,8,400,,,
sequence,flow.Sequence,4_73,2023-09-11T20:40:12.378Z,,0,,,4394.351999714039,completion,,,,,false,,,,2166099.3999996185,2166099.299999714,2161671.631,2161689.1999998093,2161704.948,2166113.522,8,400,,,
trial,html.Screen,4_74_0,2023-09-11T20:40:17.822Z,,0,2,,5430.478000000119,response,ISIC_0011215.JPG,4,ISIC_8773685.JPG,ISIC_0011215.JPG,false,1,keypress(m),500,2171544.1999998093,2171544,2166096.754,2166099.3999996185,2166113.522,2171574.067,8,400,25,,ISIC_8773685.JPG
break,html.Screen,4_74_1,2023-09-11T20:40:17.823Z,,0,,,NaN,,,,,,false,,,,2171544.6999998093,2171544.5,,2171544.299999714,,2171574.067,8,400,,,
break_continue,html.Screen,4_74_2,2023-09-11T20:40:17.823Z,,0,,,NaN,,,,,,false,,,,2171544.8999996185,2171544.799999714,,2171544.799999714,,2171574.067,8,400,,,
sequence,flow.Sequence,4_74,2023-09-11T20:40:17.823Z,,0,,,5431.277999714017,completion,,,,,false,,,,2171545,2171544.799999714,2166096.754,2166099.3999996185,2166113.522,2171574.067,8,400,,,
trial,html.Screen,4_75_0,2023-09-11T20:40:23.522Z,,0,2,,5669.933000000194,response,ISIC_0001118.JPG,5,ISIC_1306790.JPG,ISIC_0001118.JPG,false,1,keypress(m),500,2177244.0999999046,2177244,2171557.34,2171545,2171574.067,2177251.768,8,400,26,,ISIC_1306790.JPG
break,html.Screen,4_75_1,2023-09-11T20:40:23.523Z,,0,,,NaN,,,,,,false,,,,2177244.799999714,2177244.5999999046,,2177244.299999714,,2177251.768,8,400,,,
break_continue,html.Screen,4_75_2,2023-09-11T20:40:23.523Z,,0,,,NaN,,,,,,false,,,,2177245.0999999046,2177245.0999999046,,2177245,,2177251.768,8,400,,,
sequence,flow.Sequence,4_75,2023-09-11T20:40:23.523Z,,0,,,5671.032999904826,completion,,,,,false,,,,2177245.1999998093,2177245.0999999046,2171557.34,2171545,2171574.067,2177251.768,8,400,,,
trial,html.Screen,4_76_0,2023-09-11T20:40:27.046Z,,0,2,,3515.4319998091087,response,ISIC_0014883.JPG,6,ISIC_0063369.JPG,ISIC_0063369.JPG,false,0,keypress(z),500,2180767.299999714,2180767.1999998093,2177235.308,2177245.299999714,2177251.768,2180775.315,8,400,27,,ISIC_0014883.JPG
break,html.Screen,4_76_1,2023-09-11T20:40:27.047Z,,0,,,NaN,,,,,,false,,,,2180767.799999714,2180767.5999999046,,2180767.5,,2180775.315,8,400,,,
break_continue,html.Screen,4_76_2,2023-09-11T20:40:27.047Z,,0,,,NaN,,,,,,false,,,,2180768,2180767.8999996185,,2180767.8999996185,,2180775.315,8,400,,,
sequence,flow.Sequence,4_76,2023-09-11T20:40:27.047Z,,0,,,3516.131999618374,completion,,,,,false,,,,2180768.0999999046,2180767.8999996185,2177235.308,2177245.1999998093,2177251.768,2180775.315,8,400,,,
trial,html.Screen,4_77_0,2023-09-11T20:40:32.013Z,,0,2,,4958.384999809321,response,ISIC_1479949.JPG,5,ISIC_0014088.JPG,ISIC_1479949.JPG,false,1,keypress(m),500,2185733.799999714,2185733.6999998093,2180758.594,2180768.1999998093,2180775.315,2185734.937,8,400,28,,ISIC_0014088.JPG
break,html.Screen,4_77_1,2023-09-11T20:40:32.013Z,,0,,,NaN,,,,,,false,,,,2185734.1999998093,2185734.0999999046,,2185733.8999996185,,2185734.937,8,400,,,
break_continue,html.Screen,4_77_2,2023-09-11T20:40:32.013Z,,0,,,NaN,,,,,,false,,,,2185734.299999714,2185734.299999714,,2185734.1999998093,,2185734.937,8,400,,,
sequence,flow.Sequence,4_77,2023-09-11T20:40:32.013Z,,0,,,4958.984999713954,completion,,,,,false,,,,2185734.5,2185734.299999714,2180758.594,2180768.0999999046,2180775.315,2185734.937,8,400,,,
trial,html.Screen,4_78_0,2023-09-11T20:40:35.919Z,,0,2,,3905.063000000082,response,ISIC_0011163.JPG,4,ISIC_0014946.JPG,ISIC_0014946.JPG,false,0,keypress(z),500,2189640.0999999046,2189640,2185718.321,2185734.5,2185734.937,2189642.493,8,400,29,,ISIC_0011163.JPG
break,html.Screen,4_78_1,2023-09-11T20:40:35.919Z,,0,,,NaN,,,,,,false,,,,2189640.5,2189640.3999996185,,2189640.1999998093,,2189642.493,8,400,,,
break_continue,html.Screen,4_78_2,2023-09-11T20:40:35.920Z,,0,,,NaN,,,,,,false,,,,2189640.6999998093,2189640.6999998093,,2189640.5999999046,,2189642.493,8,400,,,
sequence,flow.Sequence,4_78,2023-09-11T20:40:35.920Z,,0,,,3905.762999809347,completion,,,,,false,,,,2189640.799999714,2189640.6999998093,2185718.321,2185734.5,2185734.937,2189642.493,8,400,,,
trial,html.Screen,4_79_0,2023-09-11T20:40:40.376Z,,0,2,,4454.106999904849,response,ISIC_0024720.JPG,6,ISIC_9571842.JPG,ISIC_0024720.JPG,false,1,keypress(m),500,2194096.8999996185,2194096.5999999046,2189626.016,2189640.799999714,2189642.493,2194101.268,8,400,30,,ISIC_9571842.JPG
break,html.Screen,4_79_1,2023-09-11T20:40:40.377Z,,0,,,NaN,,,,,,false,,,,2194098.5,2194098.0999999046,,2194097.299999714,,2194101.268,8,400,,,
break_continue,html.Screen,4_79_2,2023-09-11T20:40:40.378Z,,0,,,NaN,,,,,,false,,,,2194099.3999996185,2194099.1999998093,,2194098.799999714,,2194101.268,8,400,,,
sequence,flow.Sequence,4_79,2023-09-11T20:40:40.379Z,,0,,,4456.706999809481,completion,,,,,false,,,,2194099.799999714,2194099.1999998093,2189626.016,2189640.799999714,2189642.493,2194101.268,8,400,,,
trial,html.Screen,4_80_0,2023-09-11T20:40:45.040Z,,0,2,,4659.631999618374,response,ISIC_0029353.JPG,5,ISIC_2021175.JPG,ISIC_0029353.JPG,false,1,keypress(m),500,2198761.0999999046,2198760.8999996185,2194084.59,2194100,2194101.268,2198777.003,8,400,31,,ISIC_2021175.JPG
break,html.Screen,4_80_1,2023-09-11T20:40:45.040Z,,0,,,NaN,,,,,,false,,,,2198761.5,2198761.3999996185,,2198761.1999998093,,2198777.003,8,400,,,
break_continue,html.Screen,4_80_2,2023-09-11T20:40:45.041Z,,0,,,NaN,,,,,,false,,,,2198761.6999998093,2198761.5999999046,,2198761.5999999046,,2198777.003,8,400,,,
sequence,flow.Sequence,4_80,2023-09-11T20:40:45.041Z,,0,,,4660.331999904476,completion,,,,,false,,,,2198761.799999714,2198761.5999999046,2194084.59,2194100,2194101.268,2198777.003,8,400,,,
trial,html.Screen,4_81_0,2023-09-11T20:40:50.930Z,,0,2,,5873.896999618504,response,ISIC_0013232.JPG,5,ISIC_7888517.JPG,ISIC_7888517.JPG,false,0,keypress(z),500,2204651,2204650.8999996185,2198760.409,2198761.799999714,2198777.003,2204655.169,8,400,32,,ISIC_0013232.JPG
break,html.Screen,4_81_1,2023-09-11T20:40:50.930Z,,0,,,NaN,,,,,,false,,,,2204651.3999996185,2204651.299999714,,2204651.0999999046,,2204655.169,8,400,,,
break_continue,html.Screen,4_81_2,2023-09-11T20:40:50.931Z,,0,,,NaN,,,,,,false,,,,2204651.799999714,2204651.6999998093,,2204651.5999999046,,2204655.169,8,400,,,
sequence,flow.Sequence,4_81,2023-09-11T20:40:50.931Z,,0,,,5874.696999809239,completion,,,,,false,,,,2204651.799999714,2204651.6999998093,2198760.409,2198761.799999714,2198777.003,2204655.169,8,400,,,
trial,html.Screen,4_82_0,2023-09-11T20:40:56.221Z,,0,2,,5286.6309997136705,response,ISIC_1137915.JPG,5,ISIC_0624498.JPG,ISIC_0624498.JPG,false,0,keypress(z),500,2209942,2209941.799999714,2204638.552,2204651.8999996185,2204655.169,2209948.813,8,400,33,,ISIC_1137915.JPG
break,html.Screen,4_82_1,2023-09-11T20:40:56.221Z,,0,,,NaN,,,,,,false,,,,2209942.5,2209942.299999714,,2209942.0999999046,,2209948.813,8,400,,,
break_continue,html.Screen,4_82_2,2023-09-11T20:40:56.222Z,,0,,,NaN,,,,,,false,,,,2209942.6999998093,2209942.6999998093,,2209942.5,,2209948.813,8,400,,,
sequence,flow.Sequence,4_82,2023-09-11T20:40:56.222Z,,0,,,5287.530999809038,completion,,,,,false,,,,2209942.799999714,2209942.6999998093,2204638.552,2204651.8999996185,2204655.169,2209948.813,8,400,,,
trial,html.Screen,4_83_0,2023-09-11T20:41:01.892Z,,0,2,,5664.486999713816,response,ISIC_0028626.JPG,5,ISIC_0033664.JPG,ISIC_0033664.JPG,false,0,keypress(z),500,2215613.3999996185,2215613.299999714,2209932.212,2209942.799999714,2209948.813,2215626.485,8,400,34,,ISIC_0028626.JPG
break,html.Screen,4_83_1,2023-09-11T20:41:01.893Z,,0,,,NaN,,,,,,false,,,,2215614,2215613.8999996185,,2215613.5,,2215626.485,8,400,,,
break_continue,html.Screen,4_83_2,2023-09-11T20:41:01.893Z,,0,,,NaN,,,,,,false,,,,2215614.299999714,2215614.299999714,,2215614.0999999046,,2215626.485,8,400,,,
sequence,flow.Sequence,4_83,2023-09-11T20:41:01.893Z,,0,,,5665.486999713816,completion,,,,,false,,,,2215614.3999996185,2215614.299999714,2209932.212,2209942.799999714,2209948.813,2215626.485,8,400,,,
trial,html.Screen,4_84_0,2023-09-11T20:41:06.984Z,,0,2,,5077.914999618661,response,ISIC_5409902.JPG,4,ISIC_0033530.JPG,ISIC_0033530.JPG,false,0,keypress(z),500,2220704.6999998093,2220704.3999996185,2215609.742,2215614.5,2215626.485,2220719.677,8,400,35,,ISIC_5409902.JPG
break,html.Screen,4_84_1,2023-09-11T20:41:06.985Z,,0,,,NaN,,,,,,false,,,,2220706.299999714,2220705.799999714,,2220705.0999999046,,2220719.677,8,400,,,
break_continue,html.Screen,4_84_2,2023-09-11T20:41:06.986Z,,0,,,NaN,,,,,,false,,,,2220707,2220706.799999714,,2220706.5,,2220719.677,8,400,,,
sequence,flow.Sequence,4_84,2023-09-11T20:41:06.986Z,,0,,,5080.314999714028,completion,,,,,false,,,,2220707.3999996185,2220706.799999714,2215609.742,2215614.3999996185,2215626.485,2220719.677,8,400,,,
trial,html.Screen,4_85_0,2023-09-11T20:41:11.133Z,,0,2,,4134.622999713756,response,ISIC_8978290.JPG,4,ISIC_0013652.JPG,ISIC_0013652.JPG,false,0,keypress(z),500,2224854.299999714,2224854.299999714,2220702.963,2220708,2220719.677,2224861.178,8,400,36,,ISIC_8978290.JPG
break,html.Screen,4_85_1,2023-09-11T20:41:11.134Z,,0,,,NaN,,,,,,false,,,,2224854.799999714,2224854.6999998093,,2224854.5,,2224861.178,8,400,,,
break_continue,html.Screen,4_85_2,2023-09-11T20:41:11.134Z,,0,,,NaN,,,,,,false,,,,2224855,2224855,,2224854.8999996185,,2224861.178,8,400,,,
sequence,flow.Sequence,4_85,2023-09-11T20:41:11.134Z,,0,,,4135.322999999858,completion,,,,,false,,,,2224855.0999999046,2224855,2220702.963,2220707.8999996185,2220719.677,2224861.178,8,400,,,
trial,html.Screen,4_86_0,2023-09-11T20:41:15.207Z,,0,2,,4067.0219998094253,response,ISIC_7380353.JPG,5,ISIC_0000042.JPG,ISIC_0000042.JPG,false,0,keypress(z),500,2228928.299999714,2228928.1999998093,2224844.36,2224855.0999999046,2224861.178,2228935.81,8,400,37,,ISIC_7380353.JPG
break,html.Screen,4_86_1,2023-09-11T20:41:15.208Z,,0,,,NaN,,,,,,false,,,,2228928.6999998093,2228928.6999998093,,2228928.5,,2228935.81,8,400,,,
break_continue,html.Screen,4_86_2,2023-09-11T20:41:15.208Z,,0,,,NaN,,,,,,false,,,,2228928.8999996185,2228928.8999996185,,2228928.799999714,,2228935.81,8,400,,,
sequence,flow.Sequence,4_86,2023-09-11T20:41:15.208Z,,0,,,4067.7219996186905,completion,,,,,false,,,,2228929.0999999046,2228928.8999996185,2224844.36,2224855.0999999046,2224861.178,2228935.81,8,400,,,
trial,html.Screen,4_87_0,2023-09-11T20:41:23.055Z,,0,2,,7840.089999618474,response,ISIC_0497390.JPG,5,ISIC_0032938.JPG,ISIC_0032938.JPG,false,0,keypress(z),500,2236776.0999999046,2236775.8999996185,2228918.977,2228929.0999999046,2228935.81,2236784.233,8,400,38,,ISIC_0497390.JPG
break,html.Screen,4_87_1,2023-09-11T20:41:23.056Z,,0,,,NaN,,,,,,false,,,,2236776.799999714,2236776.5,,2236776.1999998093,,2236784.233,8,400,,,
break_continue,html.Screen,4_87_2,2023-09-11T20:41:23.056Z,,0,,,NaN,,,,,,false,,,,2236777.0999999046,2236777,,2236776.8999996185,,2236784.233,8,400,,,
sequence,flow.Sequence,4_87,2023-09-11T20:41:23.056Z,,0,,,7841.189999999944,completion,,,,,false,,,,2236777.299999714,2236777,2228918.977,2228929.0999999046,2228935.81,2236784.233,8,400,,,
trial,html.Screen,4_88_0,2023-09-11T20:41:28.324Z,,0,2,,5259.766999999993,response,ISIC_0054652.JPG,5,ISIC_9801917.JPG,ISIC_0054652.JPG,false,1,keypress(m),500,2242044.1999998093,2242044,2236767.599,2236777.3999996185,2236784.233,2242061.189,8,400,39,,ISIC_9801917.JPG
break,html.Screen,4_88_1,2023-09-11T20:41:28.324Z,,0,,,NaN,,,,,,false,,,,2242044.6999998093,2242044.5999999046,,2242044.299999714,,2242061.189,8,400,,,
break_continue,html.Screen,4_88_2,2023-09-11T20:41:28.325Z,,0,,,NaN,,,,,,false,,,,2242045,2242044.8999996185,,2242044.799999714,,2242061.189,8,400,,,
sequence,flow.Sequence,4_88,2023-09-11T20:41:28.325Z,,0,,,5260.666999618523,completion,,,,,false,,,,2242045.0999999046,2242044.8999996185,2236767.599,2236777.3999996185,2236784.233,2242061.189,8,400,,,
trial,html.Screen,4_89_0,2023-09-11T20:41:33.607Z,,0,2,,5265.910999904852,response,ISIC_2732573.JPG,6,ISIC_0010767.JPG,ISIC_0010767.JPG,false,0,keypress(z),500,2247327.299999714,2247327.0999999046,2242044.557,2242045.1999998093,2242061.189,2247338.132,8,400,40,,ISIC_2732573.JPG
break,html.Screen,4_89_1,2023-09-11T20:41:33.607Z,,0,,,NaN,,,,,,false,,,,2247327.799999714,2247327.5999999046,,2247327.3999996185,,2247338.132,8,400,,,
break_continue,html.Screen,4_89_2,2023-09-11T20:41:33.608Z,,0,,,NaN,,,,,,false,,,,2247328,2247328,,2247327.799999714,,2247338.132,8,400,,,
sequence,flow.Sequence,4_89,2023-09-11T20:41:33.608Z,,0,,,5266.81100000022,completion,,,,,false,,,,2247328.0999999046,2247328,2242044.557,2242045.0999999046,2242061.189,2247338.132,8,400,,,
trial,html.Screen,4_90_0,2023-09-11T20:41:38.120Z,,0,2,,4502.567999809049,response,ISIC_1343302.JPG,5,ISIC_1131588.JPG,ISIC_1343302.JPG,false,1,keypress(m),500,2251840.8999996185,2251840.6999998093,2247321.504,2247328.1999998093,2247338.132,2251846.995,8,400,41,,ISIC_1131588.JPG
break,html.Screen,4_90_1,2023-09-11T20:41:38.121Z,,0,,,NaN,,,,,,false,,,,2251841.299999714,2251841.299999714,,2251841,,2251846.995,8,400,,,
break_continue,html.Screen,4_90_2,2023-09-11T20:41:38.121Z,,0,,,NaN,,,,,,false,,,,2251841.5999999046,2251841.5,,2251841.3999996185,,2251846.995,8,400,,,
sequence,flow.Sequence,4_90,2023-09-11T20:41:38.121Z,,0,,,4503.367999999784,completion,,,,,false,,,,2251841.5999999046,2251841.5,2247321.504,2247328.1999998093,2247338.132,2251846.995,8,400,,,
trial,html.Screen,4_91_0,2023-09-11T20:41:42.666Z,,0,2,,4539.604999904521,response,ISIC_2470795.JPG,4,ISIC_6899527.JPG,ISIC_6899527.JPG,false,0,keypress(z),500,2256386.6999998093,2256386.5999999046,2251830.248,2251841.799999714,2251846.995,2256389.075,8,400,42,,ISIC_2470795.JPG
break,html.Screen,4_91_1,2023-09-11T20:41:42.667Z,,0,,,NaN,,,,,,false,,,,2256387,2256387,,2256386.799999714,,2256389.075,8,400,,,
break_continue,html.Screen,4_91_2,2023-09-11T20:41:42.667Z,,0,,,NaN,,,,,,false,,,,2256387.1999998093,2256387.1999998093,,2256387.0999999046,,2256389.075,8,400,,,
sequence,flow.Sequence,4_91,2023-09-11T20:41:42.667Z,,0,,,4540.204999809153,completion,,,,,false,,,,2256387.1999998093,2256387.1999998093,2251830.248,2251841.6999998093,2251846.995,2256389.075,8,400,,,
trial,html.Screen,4_92_0,2023-09-11T20:41:47.821Z,,0,2,,5151.824999618344,response,ISIC_0033063.JPG,5,ISIC_1306790.JPG,ISIC_0033063.JPG,false,1,keypress(m),500,2261541,2261540.8999996185,2256372.542,2256387.299999714,2256389.075,2261549.14,8,400,43,,ISIC_1306790.JPG
break,html.Screen,4_92_1,2023-09-11T20:41:47.821Z,,0,,,NaN,,,,,,false,,,,2261541.3999996185,2261541.299999714,,2261541.0999999046,,2261549.14,8,400,,,
break_continue,html.Screen,4_92_2,2023-09-11T20:41:47.821Z,,0,,,NaN,,,,,,false,,,,2261541.5999999046,2261541.5999999046,,2261541.5,,2261549.14,8,400,,,
sequence,flow.Sequence,4_92,2023-09-11T20:41:47.821Z,,0,,,5152.524999904446,completion,,,,,false,,,,2261541.6999998093,2261541.5999999046,2256372.542,2256387.299999714,2256389.075,2261549.14,8,400,,,
trial,html.Screen,4_93_0,2023-09-11T20:41:52.865Z,,0,2,,5036.35999999987,response,ISIC_0056991.JPG,5,ISIC_0068627.JPG,ISIC_0068627.JPG,false,0,keypress(z),500,2266585.5999999046,2266585.5,2261532.548,2261541.6999998093,2261549.14,2266592.272,8,400,44,,ISIC_0056991.JPG
break,html.Screen,4_93_1,2023-09-11T20:41:52.866Z,,0,,,NaN,,,,,,false,,,,2266586.5,2266586.0999999046,,2266585.6999998093,,2266592.272,8,400,,,
break_continue,html.Screen,4_93_2,2023-09-11T20:41:52.866Z,,0,,,NaN,,,,,,false,,,,2266586.8999996185,2266586.6999998093,,2266586.5999999046,,2266592.272,8,400,,,
sequence,flow.Sequence,4_93,2023-09-11T20:41:52.867Z,,0,,,5037.559999809135,completion,,,,,false,,,,2266586.8999996185,2266586.6999998093,2261532.548,2261541.6999998093,2261549.14,2266592.272,8,400,,,
trial,html.Screen,4_94_0,2023-09-11T20:41:56.805Z,,0,2,,3933.228000000119,response,ISIC_4541530.JPG,6,ISIC_3433060.JPG,ISIC_3433060.JPG,false,0,keypress(z),500,2270525.6999998093,2270525.5,2266575.554,2266587,2266592.272,2270533.288,8,400,45,,ISIC_4541530.JPG
break,html.Screen,4_94_1,2023-09-11T20:41:56.807Z,,0,,,NaN,,,,,,false,,,,2270527.0999999046,2270526.5999999046,,2270526,,2270533.288,8,400,,,
break_continue,html.Screen,4_94_2,2023-09-11T20:41:56.807Z,,0,,,NaN,,,,,,false,,,,2270527.6999998093,2270527.5,,2270527.1999998093,,2270533.288,8,400,,,
sequence,flow.Sequence,4_94,2023-09-11T20:41:56.807Z,,0,,,3935.228000000119,completion,,,,,false,,,,2270528,2270527.5,2266575.554,2266587,2266592.272,2270533.288,8,400,,,
trial,html.Screen,4_95_0,2023-09-11T20:42:02.432Z,,0,2,,5618.511999713723,response,ISIC_0010171.JPG,4,ISIC_4474170.JPG,ISIC_0010171.JPG,false,1,keypress(m),500,2276152,2276151.799999714,2270516.69,2270528.0999999046,2270533.288,2276160.908,8,400,46,,ISIC_4474170.JPG
break,html.Screen,4_95_1,2023-09-11T20:42:02.432Z,,0,,,NaN,,,,,,false,,,,2276152.799999714,2276152.3999996185,,2276152.0999999046,,2276160.908,8,400,,,
break_continue,html.Screen,4_95_2,2023-09-11T20:42:02.433Z,,0,,,NaN,,,,,,false,,,,2276153.0999999046,2276153,,2276152.799999714,,2276160.908,8,400,,,
sequence,flow.Sequence,4_95,2023-09-11T20:42:02.433Z,,0,,,5619.711999999825,completion,,,,,false,,,,2276153.1999998093,2276153,2270516.69,2270528.0999999046,2270533.288,2276160.908,8,400,,,
trial,html.Screen,4_96_0,2023-09-11T20:42:06.952Z,,0,2,,4511.291999809444,response,ISIC_3043219.JPG,5,ISIC_0030029.JPG,ISIC_3043219.JPG,false,1,keypress(m),500,2280672.3999996185,2280672.1999998093,2276144.268,2276153.1999998093,2276160.908,2280686.403,8,400,47,,ISIC_0030029.JPG
break,html.Screen,4_96_1,2023-09-11T20:42:06.954Z,,0,,,NaN,,,,,,false,,,,2280674,2280673.5999999046,,2280672.6999998093,,2280686.403,8,400,,,
break_continue,html.Screen,4_96_2,2023-09-11T20:42:06.954Z,,0,,,NaN,,,,,,false,,,,2280674.5,2280674.299999714,,2280674.0999999046,,2280686.403,8,400,,,
sequence,flow.Sequence,4_96,2023-09-11T20:42:06.954Z,,0,,,4513.3919997140765,completion,,,,,false,,,,2280674.6999998093,2280674.299999714,2276144.268,2276153.1999998093,2276160.908,2280686.403,8,400,,,
trial,html.Screen,4_97_0,2023-09-11T20:42:11.340Z,,0,2,,4374.296999809332,response,ISIC_3067885.JPG,6,ISIC_0056413.JPG,ISIC_0056413.JPG,false,0,keypress(z),500,2285060.799999714,2285060.6999998093,2280669.767,2280674.8999996185,2280686.403,2285078.647,8,400,48,,ISIC_3067885.JPG
break,html.Screen,4_97_1,2023-09-11T20:42:11.341Z,,0,,,NaN,,,,,,false,,,,2285061.299999714,2285061.1999998093,,2285060.8999996185,,2285078.647,8,400,,,
break_continue,html.Screen,4_97_2,2023-09-11T20:42:11.341Z,,0,,,NaN,,,,,,false,,,,2285061.5,2285061.5,,2285061.3999996185,,2285078.647,8,400,,,
sequence,flow.Sequence,4_97,2023-09-11T20:42:11.341Z,,0,,,4375.097000000067,completion,,,,,false,,,,2285061.5,2285061.5,2280669.767,2280674.799999714,2280686.403,2285078.647,8,400,,,
trial,html.Screen,4_98_0,2023-09-11T20:42:17.407Z,,0,2,,6048.552999809384,response,ISIC_2470795.JPG,4,ISIC_0011693.JPG,ISIC_0011693.JPG,false,0,keypress(z),500,2291127.5,2291127.1999998093,2285044.912,2285061.6999998093,2285078.647,2291140.029,8,400,49,,ISIC_2470795.JPG
break,html.Screen,4_98_1,2023-09-11T20:42:17.408Z,,0,,,NaN,,,,,,false,,,,2291128.799999714,2291128.5,,2291127.6999998093,,2291140.029,8,400,,,
break_continue,html.Screen,4_98_2,2023-09-11T20:42:17.409Z,,0,,,NaN,,,,,,false,,,,2291129.299999714,2291129.1999998093,,2291128.8999996185,,2291140.029,8,400,,,
sequence,flow.Sequence,4_98,2023-09-11T20:42:17.409Z,,0,,,6050.552999809384,completion,,,,,false,,,,2291129.5,2291129.1999998093,2285044.912,2285061.6999998093,2285078.647,2291140.029,8,400,,,
trial,html.Screen,4_99_0,2023-09-11T20:42:23.380Z,,0,2,,5960.270999713801,response,ISIC_0057496.JPG,5,ISIC_0028705.JPG,ISIC_0057496.JPG,false,1,keypress(m),500,2297100.3999996185,2297100.299999714,2291123.374,2291129.5999999046,2291140.029,2297101.657,8,400,50,,ISIC_0028705.JPG
break,html.Screen,4_99_1,2023-09-11T20:42:33.368Z,,0,,,10002.810999999754,timeout,,,,,false,,,,2307088.5999999046,2307087.787,2297085.094,2297100.5,2297101.657,2307104.468,8,400,,,
break_continue,html.Screen,4_99_2,2023-09-11T20:45:45.583Z,,0,,,192171.53200000012,response,,,,,false,continue,keypress(Space),,2499300.799999714,2499276,2307087.787,2307088.799999714,2307104.468,2499295.087,8,400,,,
sequence,flow.Sequence,4_99,2023-09-11T20:45:45.583Z,,0,,,208135.9709999999,completion,,,,,false,,,,2499300.8999996185,2499276,2291123.374,2291129.5999999046,2291140.029,2499295.087,8,400,,,
trial,html.Screen,4_100_0,2023-09-11T20:45:52.849Z,,0,3,,7271.812999618705,response,ISIC_0065622.JPG,6,ISIC_0068215.JPG,ISIC_0065622.JPG,false,1,keypress(m),500,2506567,2506566.8999996185,2499278.453,2499300.8999996185,2499295.087,2506576.021,8,400,1,,ISIC_0068215.JPG
break,html.Screen,4_100_1,2023-09-11T20:45:52.850Z,,0,,,NaN,,,,,,false,,,,2506567.5,2506567.3999996185,,2506567.1999998093,,2506576.021,8,400,,,
break_continue,html.Screen,4_100_2,2023-09-11T20:45:52.850Z,,0,,,NaN,,,,,,false,,,,2506567.6999998093,2506567.5999999046,,2506567.5999999046,,2506576.021,8,400,,,
sequence,flow.Sequence,4_100,2023-09-11T20:45:52.850Z,,0,,,7272.512999904808,completion,,,,,false,,,,2506567.799999714,2506567.5999999046,2499278.453,2499300.8999996185,2499295.087,2506576.021,8,400,,,
trial,html.Screen,4_101_0,2023-09-11T20:45:58.500Z,,0,3,,5641.4789999998175,response,ISIC_0065872.JPG,5,ISIC_0015206.JPG,ISIC_0065872.JPG,false,1,keypress(m),500,2512217.8999996185,2512217.5,2506559.351,2506567.8999996185,2506576.021,2512220.384,8,400,2,,ISIC_0015206.JPG
break,html.Screen,4_101_1,2023-09-11T20:45:58.502Z,,0,,,NaN,,,,,,false,,,,2512219.5,2512219,,2512218.299999714,,2512220.384,8,400,,,
break_continue,html.Screen,4_101_2,2023-09-11T20:45:58.503Z,,0,,,NaN,,,,,,false,,,,2512220.299999714,2512220.0999999046,,2512219.6999998093,,2512220.384,8,400,,,
sequence,flow.Sequence,4_101,2023-09-11T20:45:58.503Z,,0,,,5644.07899990445,completion,,,,,false,,,,2512220.5,2512220.0999999046,2506559.351,2506567.8999996185,2506576.021,2512220.384,8,400,,,
trial,html.Screen,4_102_0,2023-09-11T20:46:02.927Z,,0,3,,4424.515999618452,response,ISIC_3585381.JPG,6,ISIC_0033122.JPG,ISIC_0033122.JPG,false,0,keypress(z),500,2516645,2516644.8999996185,2512203.686,2512220.799999714,2512220.384,2516645.512,8,400,3,,ISIC_3585381.JPG
break,html.Screen,4_102_1,2023-09-11T20:46:02.928Z,,0,,,NaN,,,,,,false,,,,2516645.5,2516645.3999996185,,2516645.0999999046,,2516645.512,8,400,,,
break_continue,html.Screen,4_102_2,2023-09-11T20:46:02.928Z,,0,,,NaN,,,,,,false,,,,2516645.799999714,2516645.799999714,,2516645.5,,2516645.512,8,400,,,
sequence,flow.Sequence,4_102,2023-09-11T20:46:02.928Z,,0,,,4425.4159997138195,completion,,,,,false,,,,2516645.8999996185,2516645.799999714,2512203.686,2512220.6999998093,2512220.384,2516645.512,8,400,,,
trial,html.Screen,4_103_0,2023-09-11T20:46:08.809Z,,0,3,,5881.287999713793,response,ISIC_0033059.JPG,4,ISIC_0008447.JPG,ISIC_0033059.JPG,false,1,keypress(m),500,2522526.8999996185,2522526.799999714,2516628.865,2516646,2516645.512,2522540.464,8,400,4,,ISIC_0008447.JPG
break,html.Screen,4_103_1,2023-09-11T20:46:08.810Z,,0,,,NaN,,,,,,false,,,,2522527.3999996185,2522527.299999714,,2522527.0999999046,,2522540.464,8,400,,,
break_continue,html.Screen,4_103_2,2023-09-11T20:46:08.810Z,,0,,,NaN,,,,,,false,,,,2522527.5,2522527.5,,2522527.5,,2522540.464,8,400,,,
sequence,flow.Sequence,4_103,2023-09-11T20:46:08.810Z,,0,,,5881.987999999896,completion,,,,,false,,,,2522527.6999998093,2522527.5,2516628.865,2516646,2516645.512,2522540.464,8,400,,,
trial,html.Screen,4_104_0,2023-09-11T20:46:13.396Z,,0,3,,4573.035999999847,response,ISIC_0057661.JPG,5,ISIC_0641480.JPG,ISIC_0057661.JPG,false,1,keypress(m),500,2527113.5999999046,2527113.5,2522523.674,2522527.6999998093,2522540.464,2527115.917,8,400,5,,ISIC_0641480.JPG
break,html.Screen,4_104_1,2023-09-11T20:46:13.396Z,,0,,,NaN,,,,,,false,,,,2527114.1999998093,2527114,,2527113.6999998093,,2527115.917,8,400,,,
break_continue,html.Screen,4_104_2,2023-09-11T20:46:13.397Z,,0,,,NaN,,,,,,false,,,,2527114.5999999046,2527114.3999996185,,2527114.3999996185,,2527115.917,8,400,,,
sequence,flow.Sequence,4_104,2023-09-11T20:46:13.397Z,,0,,,4573.9359996183775,completion,,,,,false,,,,2527114.5999999046,2527114.3999996185,2522523.674,2522527.6999998093,2522540.464,2527115.917,8,400,,,
trial,html.Screen,4_105_0,2023-09-11T20:46:17.467Z,,0,3,,4068.2829998093657,response,ISIC_2565206.JPG,6,ISIC_2030997.JPG,ISIC_2565206.JPG,false,1,keypress(m),500,2531184.3999996185,2531184.1999998093,2527099.322,2527114.799999714,2527115.917,2531190.552,8,400,6,,ISIC_2030997.JPG
break,html.Screen,4_105_1,2023-09-11T20:46:17.468Z,,0,,,NaN,,,,,,false,,,,2531185.5,2531185.0999999046,,2531184.5999999046,,2531190.552,8,400,,,
break_continue,html.Screen,4_105_2,2023-09-11T20:46:17.468Z,,0,,,NaN,,,,,,false,,,,2531185.8999996185,2531185.6999998093,,2531185.5999999046,,2531190.552,8,400,,,
sequence,flow.Sequence,4_105,2023-09-11T20:46:17.468Z,,0,,,4069.7829998093657,completion,,,,,false,,,,2531186.0999999046,2531185.6999998093,2527099.322,2527114.6999998093,2527115.917,2531190.552,8,400,,,
trial,html.Screen,4_106_0,2023-09-11T20:46:22.768Z,,0,3,,5294.947999999858,response,ISIC_8066660.JPG,5,ISIC_0000012.JPG,ISIC_0000012.JPG,false,0,keypress(z),500,2536485.6999998093,2536485.5,2531173.813,2531186.5,2531190.552,2536500.86,8,400,7,,ISIC_8066660.JPG
break,html.Screen,4_106_1,2023-09-11T20:46:22.769Z,,0,,,NaN,,,,,,false,,,,2536486.5,2536486.3999996185,,2536485.8999996185,,2536500.86,8,400,,,
break_continue,html.Screen,4_106_2,2023-09-11T20:46:22.769Z,,0,,,NaN,,,,,,false,,,,2536487,2536486.8999996185,,2536486.6999998093,,2536500.86,8,400,,,
sequence,flow.Sequence,4_106,2023-09-11T20:46:22.769Z,,0,,,5296.347999618389,completion,,,,,false,,,,2536487.1999998093,2536486.8999996185,2531173.813,2531186.1999998093,2531190.552,2536500.86,8,400,,,
trial,html.Screen,4_107_0,2023-09-11T20:46:27.606Z,,0,3,,4823.039999618661,response,ISIC_5961619.JPG,4,ISIC_5510604.JPG,ISIC_5961619.JPG,false,1,keypress(m),500,2541324.0999999046,2541323.8999996185,2536484.18,2536487.1999998093,2536500.86,2541326.879,8,400,8,,ISIC_5510604.JPG
break,html.Screen,4_107_1,2023-09-11T20:46:27.607Z,,0,,,NaN,,,,,,false,,,,2541324.8999996185,2541324.5999999046,,2541324.1999998093,,2541326.879,8,400,,,
break_continue,html.Screen,4_107_2,2023-09-11T20:46:27.607Z,,0,,,NaN,,,,,,false,,,,2541325.1999998093,2541325.0999999046,,2541325,,2541326.879,8,400,,,
sequence,flow.Sequence,4_107,2023-09-11T20:46:27.608Z,,0,,,4824.239999904763,completion,,,,,false,,,,2541325.299999714,2541325.0999999046,2536484.18,2536487.1999998093,2536500.86,2541326.879,8,400,,,
trial,html.Screen,4_108_0,2023-09-11T20:46:31.818Z,,0,3,,4208.220999904443,response,ISIC_4798962.JPG,5,ISIC_5327271.JPG,ISIC_4798962.JPG,false,1,keypress(m),500,2545535.1999998093,2545535.0999999046,2541310.212,2541325.299999714,2541326.879,2545551.847,8,400,9,,ISIC_5327271.JPG
break,html.Screen,4_108_1,2023-09-11T20:46:31.818Z,,0,,,NaN,,,,,,false,,,,2545536.0999999046,2545536,,2545535.3999996185,,2545551.847,8,400,,,
break_continue,html.Screen,4_108_2,2023-09-11T20:46:31.819Z,,0,,,NaN,,,,,,false,,,,2545536.299999714,2545536.1999998093,,2545536.1999998093,,2545551.847,8,400,,,
sequence,flow.Sequence,4_108,2023-09-11T20:46:31.819Z,,0,,,4209.320999809075,completion,,,,,false,,,,2545536.3999996185,2545536.1999998093,2541310.212,2541325.299999714,2541326.879,2545551.847,8,400,,,
trial,html.Screen,4_109_0,2023-09-11T20:46:38.892Z,,0,3,,7057.452999713831,response,ISIC_0214186.JPG,5,ISIC_0000473.JPG,ISIC_0000473.JPG,false,0,keypress(z),500,2552609.5,2552609.299999714,2545535.286,2545536.5,2545551.847,2552615.582,8,400,10,,ISIC_0214186.JPG
break,html.Screen,4_109_1,2023-09-11T20:46:38.892Z,,0,,,NaN,,,,,,false,,,,2552610.0999999046,2552610,,2552609.6999998093,,2552615.582,8,400,,,
break_continue,html.Screen,4_109_2,2023-09-11T20:46:38.893Z,,0,,,NaN,,,,,,false,,,,2552610.5,2552610.3999996185,,2552610.299999714,,2552615.582,8,400,,,
sequence,flow.Sequence,4_109,2023-09-11T20:46:38.893Z,,0,,,7058.552999618463,completion,,,,,false,,,,2552610.5999999046,2552610.3999996185,2545535.286,2545536.5,2545551.847,2552615.582,8,400,,,
trial,html.Screen,4_110_0,2023-09-11T20:46:46.005Z,,0,3,,7106.317999618594,response,ISIC_0027022.JPG,6,ISIC_0068413.JPG,ISIC_0027022.JPG,false,1,keypress(m),500,2559722.0999999046,2559721.8999996185,2552598.941,2552610.6999998093,2552615.582,2559729.371,8,400,11,,ISIC_0068413.JPG
break,html.Screen,4_110_1,2023-09-11T20:46:46.007Z,,0,,,NaN,,,,,,false,,,,2559723.3999996185,2559723.1999998093,,2559722.3999996185,,2559729.371,8,400,,,
break_continue,html.Screen,4_110_2,2023-09-11T20:46:46.007Z,,0,,,NaN,,,,,,false,,,,2559723.799999714,2559723.6999998093,,2559723.5,,2559729.371,8,400,,,
sequence,flow.Sequence,4_110,2023-09-11T20:46:46.007Z,,0,,,7108.1179998093285,completion,,,,,false,,,,2559724,2559723.6999998093,2552598.941,2552610.5999999046,2552615.582,2559729.371,8,400,,,
trial,html.Screen,4_111_0,2023-09-11T20:46:50.686Z,,0,3,,4673.52899961872,response,ISIC_0028764.JPG,6,ISIC_0056260.JPG,ISIC_0056260.JPG,false,0,keypress(z),500,2564403,2564402.8999996185,2559712.746,2559724.1999998093,2559729.371,2564405.142,8,400,12,,ISIC_0028764.JPG
break,html.Screen,4_111_1,2023-09-11T20:46:50.687Z,,0,,,NaN,,,,,,false,,,,2564403.3999996185,2564403.3999996185,,2564403.0999999046,,2564405.142,8,400,,,
break_continue,html.Screen,4_111_2,2023-09-11T20:46:50.687Z,,0,,,NaN,,,,,,false,,,,2564403.6999998093,2564403.5999999046,,2564403.5,,2564405.142,8,400,,,
sequence,flow.Sequence,4_111,2023-09-11T20:46:50.687Z,,0,,,4674.228999904823,completion,,,,,false,,,,2564403.799999714,2564403.5999999046,2559712.746,2559724.0999999046,2559729.371,2564405.142,8,400,,,
trial,html.Screen,4_112_0,2023-09-11T20:46:57.777Z,,0,3,,7088.757999618538,response,ISIC_0033998.JPG,5,ISIC_0062864.JPG,ISIC_0062864.JPG,false,0,keypress(z),500,2571494.0999999046,2571493.8999996185,2564388.482,2564403.8999996185,2564405.142,2571502.387,8,400,13,,ISIC_0033998.JPG
break,html.Screen,4_112_1,2023-09-11T20:46:57.778Z,,0,,,NaN,,,,,,false,,,,2571494.3999996185,2571494.299999714,,2571494.1999998093,,2571502.387,8,400,,,
break_continue,html.Screen,4_112_2,2023-09-11T20:46:57.778Z,,0,,,NaN,,,,,,false,,,,2571494.5999999046,2571494.5999999046,,2571494.3999996185,,2571502.387,8,400,,,
sequence,flow.Sequence,4_112,2023-09-11T20:46:57.778Z,,0,,,7089.45799990464,completion,,,,,false,,,,2571494.6999998093,2571494.5999999046,2564388.482,2564403.799999714,2564405.142,2571502.387,8,400,,,
trial,html.Screen,4_113_0,2023-09-11T20:47:01.303Z,,0,3,,3517.312999809161,response,ISIC_0702876.JPG,5,ISIC_0067653.JPG,ISIC_0067653.JPG,false,0,keypress(z),500,2575019.799999714,2575019.6999998093,2571485.587,2571494.6999998093,2571502.387,2575025.848,8,400,14,,ISIC_0702876.JPG
break,html.Screen,4_113_1,2023-09-11T20:47:01.304Z,,0,,,NaN,,,,,,false,,,,2575020.3999996185,2575020.1999998093,,2575019.8999996185,,2575025.848,8,400,,,
break_continue,html.Screen,4_113_2,2023-09-11T20:47:01.304Z,,0,,,NaN,,,,,,false,,,,2575020.5999999046,2575020.5,,2575020.3999996185,,2575025.848,8,400,,,
sequence,flow.Sequence,4_113,2023-09-11T20:47:01.304Z,,0,,,3518.1129999998957,completion,,,,,false,,,,2575020.5999999046,2575020.5,2571485.587,2571494.6999998093,2571502.387,2575025.848,8,400,,,
trial,html.Screen,4_114_0,2023-09-11T20:47:06.507Z,,0,3,,5197.951999713667,response,ISIC_5458933.JPG,5,ISIC_0012887.JPG,ISIC_0012887.JPG,false,0,keypress(z),500,2580224,2580223.799999714,2575009.141,2575020.6999998093,2575025.848,2580236.023,8,400,15,,ISIC_5458933.JPG
break,html.Screen,4_114_1,2023-09-11T20:47:06.508Z,,0,,,NaN,,,,,,false,,,,2580225,2580224.6999998093,,2580224.1999998093,,2580236.023,8,400,,,
break_continue,html.Screen,4_114_2,2023-09-11T20:47:06.508Z,,0,,,NaN,,,,,,false,,,,2580225.1999998093,2580225.1999998093,,2580225,,2580236.023,8,400,,,
sequence,flow.Sequence,4_114,2023-09-11T20:47:06.509Z,,0,,,5199.351999809034,completion,,,,,false,,,,2580225.3999996185,2580225.1999998093,2575009.141,2575020.6999998093,2575025.848,2580236.023,8,400,,,
trial,html.Screen,4_115_0,2023-09-11T20:47:11.759Z,,0,3,,5239.476999999955,response,ISIC_0028655.JPG,5,ISIC_3449290.JPG,ISIC_0028655.JPG,false,1,keypress(m),500,2585475.5999999046,2585475.5,2580219.307,2580225.3999996185,2580236.023,2585479.498,8,400,16,,ISIC_3449290.JPG
break,html.Screen,4_115_1,2023-09-11T20:47:11.759Z,,0,,,NaN,,,,,,false,,,,2585476.299999714,2585476,,2585475.799999714,,2585479.498,8,400,,,
break_continue,html.Screen,4_115_2,2023-09-11T20:47:11.760Z,,0,,,NaN,,,,,,false,,,,2585476.5999999046,2585476.5,,2585476.299999714,,2585479.498,8,400,,,
sequence,flow.Sequence,4_115,2023-09-11T20:47:11.760Z,,0,,,5240.476999999955,completion,,,,,false,,,,2585476.6999998093,2585476.5,2580219.307,2580225.3999996185,2580236.023,2585479.498,8,400,,,
trial,html.Screen,4_116_0,2023-09-11T20:47:18.596Z,,0,3,,6832.901999618392,response,ISIC_3613012.JPG,5,ISIC_0025546.JPG,ISIC_0025546.JPG,false,0,keypress(z),500,2592312.6999998093,2592312.3999996185,2585462.883,2585476.6999998093,2585479.498,2592326.173,8,400,17,,ISIC_3613012.JPG
break,html.Screen,4_116_1,2023-09-11T20:47:18.597Z,,0,,,NaN,,,,,,false,,,,2592313.3999996185,2592313.1999998093,,2592312.799999714,,2592326.173,8,400,,,
break_continue,html.Screen,4_116_2,2023-09-11T20:47:18.597Z,,0,,,NaN,,,,,,false,,,,2592313.8999996185,2592313.799999714,,2592313.5999999046,,2592326.173,8,400,,,
sequence,flow.Sequence,4_116,2023-09-11T20:47:18.597Z,,0,,,6834.30199971376,completion,,,,,false,,,,2592314.1999998093,2592313.799999714,2585462.883,2585476.6999998093,2585479.498,2592326.173,8,400,,,
trial,html.Screen,4_117_0,2023-09-11T20:47:24.012Z,,0,3,,5402.726999618579,response,ISIC_2682861.JPG,5,ISIC_5099569.JPG,ISIC_2682861.JPG,false,1,keypress(m),500,2597729.0999999046,2597728.8999996185,2592309.538,2592314.299999714,2592326.173,2597736.763,8,400,18,,ISIC_5099569.JPG
break,html.Screen,4_117_1,2023-09-11T20:47:24.013Z,,0,,,NaN,,,,,,false,,,,2597729.8999996185,2597729.6999998093,,2597729.299999714,,2597736.763,8,400,,,
break_continue,html.Screen,4_117_2,2023-09-11T20:47:24.014Z,,0,,,NaN,,,,,,false,,,,2597730.3999996185,2597730.1999998093,,2597730.0999999046,,2597736.763,8,400,,,
sequence,flow.Sequence,4_117,2023-09-11T20:47:24.014Z,,0,,,5404.026999809314,completion,,,,,false,,,,2597730.5,2597730.1999998093,2592309.538,2592314.299999714,2592326.173,2597736.763,8,400,,,
trial,html.Screen,4_118_0,2023-09-11T20:47:30.113Z,,0,3,,6092.436999809463,response,ISIC_7024807.JPG,5,ISIC_0000507.JPG,ISIC_0000507.JPG,false,0,keypress(z),500,2603829.299999714,2603829.1999998093,2597720.003,2597730.5999999046,2597736.763,2603831.893,8,400,19,,ISIC_7024807.JPG
break,html.Screen,4_118_1,2023-09-11T20:47:30.113Z,,0,,,NaN,,,,,,false,,,,2603829.8999996185,2603829.6999998093,,2603829.5,,2603831.893,8,400,,,
break_continue,html.Screen,4_118_2,2023-09-11T20:47:30.113Z,,0,,,NaN,,,,,,false,,,,2603830,2603830,,2603829.8999996185,,2603831.893,8,400,,,
sequence,flow.Sequence,4_118,2023-09-11T20:47:30.113Z,,0,,,6093.237000000197,completion,,,,,false,,,,2603830.0999999046,2603830,2597720.003,2597730.5,2597736.763,2603831.893,8,400,,,
trial,html.Screen,4_119_0,2023-09-11T20:47:35.610Z,,0,3,,5494.6069999998435,response,ISIC_2526170.JPG,4,ISIC_6559840.JPG,ISIC_2526170.JPG,false,1,keypress(m),500,2609326.5999999046,2609326.5,2603815.201,2603830.299999714,2603831.893,2609342.568,8,400,20,,ISIC_6559840.JPG
break,html.Screen,4_119_1,2023-09-11T20:47:35.610Z,,0,,,NaN,,,,,,false,,,,2609327,2609326.8999996185,,2609326.6999998093,,2609342.568,8,400,,,
break_continue,html.Screen,4_119_2,2023-09-11T20:47:35.610Z,,0,,,NaN,,,,,,false,,,,2609327.1999998093,2609327.1999998093,,2609327,,2609342.568,8,400,,,
sequence,flow.Sequence,4_119,2023-09-11T20:47:35.610Z,,0,,,5495.306999809109,completion,,,,,false,,,,2609327.1999998093,2609327.1999998093,2603815.201,2603830.1999998093,2603831.893,2609342.568,8,400,,,
trial,html.Screen,4_120_0,2023-09-11T20:47:39.004Z,,0,3,,3378.2319997139275,response,ISIC_4248013.JPG,5,ISIC_0032181.JPG,ISIC_0032181.JPG,false,0,keypress(z),500,2612720.8999996185,2612720.799999714,2609326.014,2609327.299999714,2609342.568,2612732.562,8,400,21,,ISIC_4248013.JPG
break,html.Screen,4_120_1,2023-09-11T20:47:39.005Z,,0,,,NaN,,,,,,false,,,,2612721.3999996185,2612721.299999714,,2612721,,2612732.562,8,400,,,
break_continue,html.Screen,4_120_2,2023-09-11T20:47:39.005Z,,0,,,NaN,,,,,,false,,,,2612721.5999999046,2612721.5,,2612721.5,,2612732.562,8,400,,,
sequence,flow.Sequence,4_120,2023-09-11T20:47:39.005Z,,0,,,3378.93200000003,completion,,,,,false,,,,2612721.6999998093,2612721.5,2609326.014,2609327.299999714,2609342.568,2612732.562,8,400,,,
trial,html.Screen,4_121_0,2023-09-11T20:47:42.655Z,,0,3,,3638.7379997139797,response,ISIC_9353514.JPG,5,ISIC_0033206.JPG,ISIC_0033206.JPG,false,0,keypress(z),500,2616371.5,2616371.299999714,2612716.018,2612721.6999998093,2612732.562,2616372.959,8,400,22,,ISIC_9353514.JPG
break,html.Screen,4_121_1,2023-09-11T20:47:42.655Z,,0,,,NaN,,,,,,false,,,,2616372.0999999046,2616371.8999996185,,2616371.5999999046,,2616372.959,8,400,,,
break_continue,html.Screen,4_121_2,2023-09-11T20:47:42.656Z,,0,,,NaN,,,,,,false,,,,2616372.3999996185,2616372.299999714,,2616372.1999998093,,2616372.959,8,400,,,
sequence,flow.Sequence,4_121,2023-09-11T20:47:42.656Z,,0,,,3639.7379997139797,completion,,,,,false,,,,2616372.3999996185,2616372.299999714,2612716.018,2612721.6999998093,2612732.562,2616372.959,8,400,,,
trial,html.Screen,4_122_0,2023-09-11T20:47:47.834Z,,0,3,,5176.740999809466,response,ISIC_0056055.JPG,5,ISIC_0010664.JPG,ISIC_0010664.JPG,false,0,keypress(z),500,2621550,2621549.6999998093,2616356.435,2616372.5,2616372.959,2621566.477,8,400,23,,ISIC_0056055.JPG
break,html.Screen,4_122_1,2023-09-11T20:47:47.835Z,,0,,,NaN,,,,,,false,,,,2621550.6999998093,2621550.5,,2621550.1999998093,,2621566.477,8,400,,,
break_continue,html.Screen,4_122_2,2023-09-11T20:47:47.835Z,,0,,,NaN,,,,,,false,,,,2621551.0999999046,2621551,,2621550.799999714,,2621566.477,8,400,,,
sequence,flow.Sequence,4_122,2023-09-11T20:47:47.835Z,,0,,,5178.041000000201,completion,,,,,false,,,,2621551.1999998093,2621551,2616356.435,2616372.3999996185,2616372.959,2621566.477,8,400,,,
trial,html.Screen,4_123_0,2023-09-11T20:47:51.373Z,,0,3,,3522.422999618575,response,ISIC_0055776.JPG,5,ISIC_7759913.JPG,ISIC_0055776.JPG,false,1,keypress(m),500,2625089.0999999046,2625088.8999996185,2621549.716,2621551.299999714,2621566.477,2625089.957,8,400,24,,ISIC_7759913.JPG
break,html.Screen,4_123_1,2023-09-11T20:47:51.373Z,,0,,,NaN,,,,,,false,,,,2625089.5999999046,2625089.3999996185,,2625089.1999998093,,2625089.957,8,400,,,
break_continue,html.Screen,4_123_2,2023-09-11T20:47:51.374Z,,0,,,NaN,,,,,,false,,,,2625089.799999714,2625089.799999714,,2625089.6999998093,,2625089.957,8,400,,,
sequence,flow.Sequence,4_123,2023-09-11T20:47:51.374Z,,0,,,3523.3229997139424,completion,,,,,false,,,,2625089.8999996185,2625089.799999714,2621549.716,2621551.299999714,2621566.477,2625089.957,8,400,,,
trial,html.Screen,4_124_0,2023-09-11T20:47:55.360Z,,0,3,,3986.0430000000633,response,ISIC_9210086.JPG,5,ISIC_0053960.JPG,ISIC_0053960.JPG,false,0,keypress(z),500,2629076.1999998093,2629076,2625073.252,2625090,2625089.957,2629081.07,8,400,25,,ISIC_9210086.JPG
