sender,sender_type,sender_id,timestamp,meta,,blockNo,condition,duration,ended_on,img_left,img_reveal,img_right,loser,practice,response,response_action,selection_duration,time_commit,time_end,time_render,time_run,time_show,time_switch,total_blocks,total_trials,trialNo,url,winner
informed_consent,html.Screen,0,2023-08-30T14:46:32.924Z,"{""labjs_version"":""20.2.4"",""labjs_build"":{""flavor"":""development"",""commit"":""f5b4a49f956347addd546a832a3327688c2c0fef""},""location"":""https://labjs.felixhenninger.com/api/labjs_preview/index.html"",""userAgent"":""Mozilla/5.0 (X11; Linux x86_64) AppleWebKit/537.36 (KHTML, like Gecko) Chrome/113.0.0.0 Safari/537.36 "",""platform"":""Linux x86_64"",""language"":""en-US"",""locale"":""en-US"",""timeZone"":""America/Chicago"",""timezoneOffset"":300,""screen_width"":1544,""screen_height"":812,""scroll_width"":1536,""scroll_height"":758,""window_innerWidth"":1536,""window_innerHeight"":806,""devicePixelRatio"":1.25}",,,,96755,response,,,,,,consent,click button,,97297,97294,522,653,539,97202,,,,{},
Welcome,html.Screen,1,2023-08-30T14:46:48.077Z,,,,irregular,15245,response,,,,,,continue,click button,,112450,112447,97169,97297,97202,112351,,,,,
trial,html.Screen,2_0_0,2023-08-30T14:46:51.091Z,,0,0,,3113,response,ISIC_0061792.JPG,,ISIC_4679428.JPG,ISIC_0061792.JPG,true,1,keypress(m),500,115464,115464,112335,112450,112351,115368,1,6,1,,ISIC_4679428.JPG
sequence,flow.Sequence,2_0,2023-08-30T14:46:51.091Z,,0,,,3113,completion,,,,,true,,,,115465,115464,112335,112450,112351,115368,1,6,,,
trial,html.Screen,2_1_0,2023-08-30T14:46:56.371Z,,0,0,,5375,response,ISIC_0776486.JPG,,ISIC_5199497.JPG,ISIC_5199497.JPG,true,0,keypress(z),500,120743,120743,115351,115465,115368,120634,1,6,2,,ISIC_0776486.JPG
sequence,flow.Sequence,2_1,2023-08-30T14:46:56.371Z,,0,,,5375,completion,,,,,true,,,,120745,120743,115351,115465,115368,120634,1,6,,,
trial,html.Screen,2_2_0,2023-08-30T14:46:59.722Z,,0,0,,3461,response,ISIC_2556187.JPG,,ISIC_8575776.JPG,ISIC_2556187.JPG,true,1,keypress(m),500,124096,124095,120618,120745,120634,123984,1,6,3,,ISIC_8575776.JPG
sequence,flow.Sequence,2_2,2023-08-30T14:46:59.723Z,,0,,,3461,completion,,,,,true,,,,124096,124095,120618,120745,120634,123984,1,6,,,
trial,html.Screen,2_3_0,2023-08-30T14:47:02.643Z,,0,0,,3031,response,ISIC_8141769.JPG,,ISIC_9238366.JPG,ISIC_9238366.JPG,true,0,keypress(z),500,127016,127015,123967,124096,123984,126917,1,6,4,,ISIC_8141769.JPG
sequence,flow.Sequence,2_3,2023-08-30T14:47:02.643Z,,0,,,3031,completion,,,,,true,,,,127017,127015,123967,124096,123984,126917,1,6,,,
trial,html.Screen,2_4_0,2023-08-30T14:47:04.827Z,,0,0,,2283,response,ISIC_8949026.JPG,,ISIC_9959593.JPG,ISIC_8949026.JPG,true,1,keypress(m),500,129200,129200,126901,127017,126917,129101,1,6,5,,ISIC_9959593.JPG
sequence,flow.Sequence,2_4,2023-08-30T14:47:04.827Z,,0,,,2283,completion,,,,,true,,,,129200,129200,126901,127017,126917,129101,1,6,,,
trial,html.Screen,2_5_0,2023-08-30T14:47:07.115Z,,0,0,,2386,response,ISIC_0010479.JPG,,ISIC_0460240.JPG,ISIC_0010479.JPG,true,1,keypress(m),500,131488,131487,129084,129200,129101,131384,1,6,6,,ISIC_0460240.JPG
sequence,flow.Sequence,2_5,2023-08-30T14:47:07.115Z,,0,,,2386,completion,,,,,true,,,,131489,131487,129084,129200,129101,131384,1,6,,,
loop,flow.Loop,2,2023-08-30T14:47:07.116Z,,,,,19136,completion,,,,,true,,,,131489,131487,112335,112450,112351,131384,1,6,,,
exp_instructions,html.Screen,3,2023-08-30T14:47:57.490Z,,,,,50477,response,,,,,,continue,keypress(Space),,181863,181861,131367,131489,131384,181765,,,,,
trial,html.Screen,4_0_0,2023-08-30T14:48:02.171Z,,0,1,,4778,response,ISIC_2935987.JPG,8,ISIC_0059864.JPG,ISIC_2935987.JPG,false,1,keypress(m),500,186544,186543,181748,181864,181765,186432,8,400,1,,ISIC_0059864.JPG
break,html.Screen,4_0_1,2023-08-30T14:48:02.172Z,,0,,,NaN,,,,,,false,,,,186546,186546,,186544,,186432,8,400,,,
break_continue,html.Screen,4_0_2,2023-08-30T14:48:02.173Z,,0,,,NaN,,,,,,false,,,,186546,186546,,186546,,186432,8,400,,,
sequence,flow.Sequence,4_0,2023-08-30T14:48:02.173Z,,0,,,4781,completion,,,,,false,,,,186546,186546,181748,181864,181765,186432,8,400,,,
trial,html.Screen,4_1_0,2023-08-30T14:48:05.467Z,,0,1,,3407,response,ISIC_0010886.JPG,8,ISIC_5204408.JPG,ISIC_5204408.JPG,false,0,keypress(z),500,189840,189839,186415,186546,186432,189731,8,400,2,,ISIC_0010886.JPG
break,html.Screen,4_1_1,2023-08-30T14:48:05.468Z,,0,,,NaN,,,,,,false,,,,189841,189841,,189840,,189731,8,400,,,
break_continue,html.Screen,4_1_2,2023-08-30T14:48:05.469Z,,0,,,NaN,,,,,,false,,,,189842,189842,,189841,,189731,8,400,,,
sequence,flow.Sequence,4_1,2023-08-30T14:48:05.469Z,,0,,,3410,completion,,,,,false,,,,189842,189842,186415,186546,186432,189731,8,400,,,
trial,html.Screen,4_2_0,2023-08-30T14:48:10.714Z,,0,1,,5357,response,ISIC_4026569.JPG,8,ISIC_3787504.JPG,ISIC_3787504.JPG,false,0,keypress(z),500,195088,195088,189715,189843,189731,194981,8,400,3,,ISIC_4026569.JPG
break,html.Screen,4_2_1,2023-08-30T14:48:10.716Z,,0,,,NaN,,,,,,false,,,,195089,195089,,195088,,194981,8,400,,,
break_continue,html.Screen,4_2_2,2023-08-30T14:48:10.717Z,,0,,,NaN,,,,,,false,,,,195090,195090,,195089,,194981,8,400,,,
sequence,flow.Sequence,4_2,2023-08-30T14:48:10.717Z,,0,,,5359,completion,,,,,false,,,,195091,195090,189715,189842,189731,194981,8,400,,,
trial,html.Screen,4_3_0,2023-08-30T14:48:14.626Z,,0,1,,4018,response,ISIC_0026103.JPG,8,ISIC_8712559.JPG,ISIC_8712559.JPG,false,0,keypress(z),500,199000,198999,194965,195091,194981,198898,8,400,4,,ISIC_0026103.JPG
break,html.Screen,4_3_1,2023-08-30T14:48:14.628Z,,0,,,NaN,,,,,,false,,,,199001,199000,,199000,,198898,8,400,,,
break_continue,html.Screen,4_3_2,2023-08-30T14:48:14.628Z,,0,,,NaN,,,,,,false,,,,199001,199001,,199001,,198898,8,400,,,
sequence,flow.Sequence,4_3,2023-08-30T14:48:14.628Z,,0,,,4020,completion,,,,,false,,,,199002,199001,194965,195091,194981,198898,8,400,,,
trial,html.Screen,4_4_0,2023-08-30T14:48:21.146Z,,0,1,,6621,response,ISIC_0030951.JPG,9,ISIC_5787517.JPG,ISIC_5787517.JPG,false,0,keypress(z),500,205520,205519,198881,199002,198898,205414,8,400,5,,ISIC_0030951.JPG
break,html.Screen,4_4_1,2023-08-30T14:48:21.148Z,,0,,,NaN,,,,,,false,,,,205521,205521,,205520,,205414,8,400,,,
break_continue,html.Screen,4_4_2,2023-08-30T14:48:21.148Z,,0,,,NaN,,,,,,false,,,,205521,205521,,205521,,205414,8,400,,,
sequence,flow.Sequence,4_4,2023-08-30T14:48:21.148Z,,0,,,6623,completion,,,,,false,,,,205521,205521,198881,199002,198898,205414,8,400,,,
trial,html.Screen,4_5_0,2023-08-30T14:48:25.546Z,,0,1,,4506,response,ISIC_0069175.JPG,9,ISIC_5355302.JPG,ISIC_5355302.JPG,false,0,keypress(z),500,209920,209920,205398,205522,205414,209814,8,400,6,,ISIC_0069175.JPG
break,html.Screen,4_5_1,2023-08-30T14:48:25.547Z,,0,,,NaN,,,,,,false,,,,209921,209920,,209920,,209814,8,400,,,
break_continue,html.Screen,4_5_2,2023-08-30T14:48:25.548Z,,0,,,NaN,,,,,,false,,,,209921,209921,,209921,,209814,8,400,,,
sequence,flow.Sequence,4_5,2023-08-30T14:48:25.548Z,,0,,,4507,completion,,,,,false,,,,209921,209921,205398,205521,205414,209814,8,400,,,
trial,html.Screen,4_6_0,2023-08-30T14:48:29.170Z,,0,1,,3729,response,ISIC_7462746.JPG,9,ISIC_3673080.JPG,ISIC_7462746.JPG,false,1,keypress(m),500,213544,213543,209797,209922,209814,213447,8,400,7,,ISIC_3673080.JPG
break,html.Screen,4_6_1,2023-08-30T14:48:29.172Z,,0,,,NaN,,,,,,false,,,,213545,213545,,213544,,213447,8,400,,,
break_continue,html.Screen,4_6_2,2023-08-30T14:48:29.172Z,,0,,,NaN,,,,,,false,,,,213546,213546,,213545,,213447,8,400,,,
sequence,flow.Sequence,4_6,2023-08-30T14:48:29.173Z,,0,,,3732,completion,,,,,false,,,,213546,213546,209797,209921,209814,213447,8,400,,,
trial,html.Screen,4_7_0,2023-08-30T14:48:32.370Z,,0,1,,3297,response,ISIC_0010068.JPG,8,ISIC_0033508.JPG,ISIC_0010068.JPG,false,1,keypress(m),500,216744,216744,213431,213546,213447,216647,8,400,8,,ISIC_0033508.JPG
break,html.Screen,4_7_1,2023-08-30T14:48:32.372Z,,0,,,NaN,,,,,,false,,,,216745,216745,,216744,,216647,8,400,,,
break_continue,html.Screen,4_7_2,2023-08-30T14:48:32.372Z,,0,,,NaN,,,,,,false,,,,216746,216745,,216745,,216647,8,400,,,
sequence,flow.Sequence,4_7,2023-08-30T14:48:32.373Z,,0,,,3298,completion,,,,,false,,,,216746,216745,213431,213546,213447,216647,8,400,,,
trial,html.Screen,4_8_0,2023-08-30T14:48:38.899Z,,0,1,,6625,response,ISIC_6358752.JPG,6,ISIC_0033775.JPG,ISIC_0033775.JPG,false,0,keypress(z),500,223272,223272,216630,216748,216647,223163,8,400,9,,ISIC_6358752.JPG
break,html.Screen,4_8_1,2023-08-30T14:48:38.900Z,,0,,,NaN,,,,,,false,,,,223273,223273,,223272,,223163,8,400,,,
break_continue,html.Screen,4_8_2,2023-08-30T14:48:38.900Z,,0,,,NaN,,,,,,false,,,,223274,223274,,223273,,223163,8,400,,,
sequence,flow.Sequence,4_8,2023-08-30T14:48:38.901Z,,0,,,6627,completion,,,,,false,,,,223274,223274,216630,216748,216647,223163,8,400,,,
trial,html.Screen,4_9_0,2023-08-30T14:48:43.154Z,,0,1,,4364,response,ISIC_8086526.JPG,9,ISIC_3926019.JPG,ISIC_3926019.JPG,false,0,keypress(z),500,227527,227527,223147,223275,223163,227430,8,400,10,,ISIC_8086526.JPG
break,html.Screen,4_9_1,2023-08-30T14:48:43.155Z,,0,,,NaN,,,,,,false,,,,227528,227528,,227527,,227430,8,400,,,
break_continue,html.Screen,4_9_2,2023-08-30T14:48:43.155Z,,0,,,NaN,,,,,,false,,,,227528,227528,,227528,,227430,8,400,,,
sequence,flow.Sequence,4_9,2023-08-30T14:48:43.155Z,,0,,,4365,completion,,,,,false,,,,227528,227528,223147,223274,223163,227430,8,400,,,
trial,html.Screen,4_10_0,2023-08-30T14:48:47.938Z,,0,1,,4881,response,ISIC_9436034.JPG,10,ISIC_0061972.JPG,ISIC_0061972.JPG,false,0,keypress(z),500,232311,232311,227413,227528,227430,232213,8,400,11,,ISIC_9436034.JPG
break,html.Screen,4_10_1,2023-08-30T14:48:47.940Z,,0,,,NaN,,,,,,false,,,,232313,232313,,232312,,232213,8,400,,,
break_continue,html.Screen,4_10_2,2023-08-30T14:48:47.941Z,,0,,,NaN,,,,,,false,,,,232314,232314,,232313,,232213,8,400,,,
sequence,flow.Sequence,4_10,2023-08-30T14:48:47.941Z,,0,,,4884,completion,,,,,false,,,,232314,232314,227413,227528,227430,232213,8,400,,,
trial,html.Screen,4_11_0,2023-08-30T14:48:51.610Z,,0,1,,3770,response,ISIC_0001102.JPG,8,ISIC_0059485.JPG,ISIC_0059485.JPG,false,0,keypress(z),500,235984,235983,232196,232314,232213,235880,8,400,12,,ISIC_0001102.JPG
break,html.Screen,4_11_1,2023-08-30T14:48:51.612Z,,0,,,NaN,,,,,,false,,,,235986,235985,,235984,,235880,8,400,,,
break_continue,html.Screen,4_11_2,2023-08-30T14:48:51.612Z,,0,,,NaN,,,,,,false,,,,235986,235986,,235986,,235880,8,400,,,
sequence,flow.Sequence,4_11,2023-08-30T14:48:51.613Z,,0,,,3773,completion,,,,,false,,,,235986,235986,232196,232314,232213,235880,8,400,,,
trial,html.Screen,4_12_0,2023-08-30T14:48:56.314Z,,0,1,,4807,response,ISIC_0647224.JPG,8,ISIC_0002622.JPG,ISIC_0002622.JPG,false,0,keypress(z),500,240687,240687,235863,235986,235880,240579,8,400,13,,ISIC_0647224.JPG
break,html.Screen,4_12_1,2023-08-30T14:48:56.315Z,,0,,,NaN,,,,,,false,,,,240689,240688,,240687,,240579,8,400,,,
break_continue,html.Screen,4_12_2,2023-08-30T14:48:56.315Z,,0,,,NaN,,,,,,false,,,,240689,240689,,240689,,240579,8,400,,,
sequence,flow.Sequence,4_12,2023-08-30T14:48:56.315Z,,0,,,4809,completion,,,,,false,,,,240689,240689,235863,235986,235880,240579,8,400,,,
trial,html.Screen,4_13_0,2023-08-30T14:49:00.738Z,,0,1,,4532,response,ISIC_0069986.JPG,10,ISIC_0069210.JPG,ISIC_0069986.JPG,false,1,keypress(m),500,245111,245111,240563,240689,240579,245013,8,400,14,,ISIC_0069210.JPG
break,html.Screen,4_13_1,2023-08-30T14:49:00.739Z,,0,,,NaN,,,,,,false,,,,245112,245112,,245112,,245013,8,400,,,
break_continue,html.Screen,4_13_2,2023-08-30T14:49:00.739Z,,0,,,NaN,,,,,,false,,,,245112,245112,,245112,,245013,8,400,,,
sequence,flow.Sequence,4_13,2023-08-30T14:49:00.739Z,,0,,,4533,completion,,,,,false,,,,245112,245112,240563,240689,240579,245013,8,400,,,
trial,html.Screen,4_14_0,2023-08-30T14:49:03.890Z,,0,1,,3251,response,ISIC_0011305.JPG,11,ISIC_7210296.JPG,ISIC_7210296.JPG,false,0,keypress(z),500,248264,248264,244996,245112,245013,248162,8,400,15,,ISIC_0011305.JPG
break,html.Screen,4_14_1,2023-08-30T14:49:03.891Z,,0,,,NaN,,,,,,false,,,,248264,248264,,248264,,248162,8,400,,,
break_continue,html.Screen,4_14_2,2023-08-30T14:49:03.891Z,,0,,,NaN,,,,,,false,,,,248264,248264,,248264,,248162,8,400,,,
sequence,flow.Sequence,4_14,2023-08-30T14:49:03.891Z,,0,,,3251,completion,,,,,false,,,,248264,248264,244996,245112,245013,248162,8,400,,,
trial,html.Screen,4_15_0,2023-08-30T14:49:08.186Z,,0,1,,4398,response,ISIC_5525765.JPG,11,ISIC_0053493.JPG,ISIC_5525765.JPG,false,1,keypress(m),500,252560,252560,248146,248264,248162,252462,8,400,16,,ISIC_0053493.JPG
break,html.Screen,4_15_1,2023-08-30T14:49:08.187Z,,0,,,NaN,,,,,,false,,,,252560,252560,,252560,,252462,8,400,,,
break_continue,html.Screen,4_15_2,2023-08-30T14:49:08.187Z,,0,,,NaN,,,,,,false,,,,252561,252561,,252561,,252462,8,400,,,
sequence,flow.Sequence,4_15,2023-08-30T14:49:08.187Z,,0,,,4399,completion,,,,,false,,,,252561,252561,248146,248264,248162,252462,8,400,,,
trial,html.Screen,4_16_0,2023-08-30T14:49:13.818Z,,0,1,,5730,response,ISIC_1194944.JPG,10,ISIC_0054206.JPG,ISIC_1194944.JPG,false,1,keypress(m),500,258192,258192,252446,252561,252462,258079,8,400,17,,ISIC_0054206.JPG
break,html.Screen,4_16_1,2023-08-30T14:49:13.819Z,,0,,,NaN,,,,,,false,,,,258192,258192,,258192,,258079,8,400,,,
break_continue,html.Screen,4_16_2,2023-08-30T14:49:13.819Z,,0,,,NaN,,,,,,false,,,,258192,258192,,258192,,258079,8,400,,,
sequence,flow.Sequence,4_16,2023-08-30T14:49:13.819Z,,0,,,5730,completion,,,,,false,,,,258192,258192,252446,252561,252462,258079,8,400,,,
trial,html.Screen,4_17_0,2023-08-30T14:49:17.682Z,,0,1,,3977,response,ISIC_2256461.JPG,11,ISIC_0981639.JPG,ISIC_2256461.JPG,false,1,keypress(m),500,262056,262056,258062,258192,258079,261945,8,400,18,,ISIC_0981639.JPG
break,html.Screen,4_17_1,2023-08-30T14:49:17.683Z,,0,,,NaN,,,,,,false,,,,262056,262056,,262056,,261945,8,400,,,
break_continue,html.Screen,4_17_2,2023-08-30T14:49:17.683Z,,0,,,NaN,,,,,,false,,,,262057,262056,,262056,,261945,8,400,,,
sequence,flow.Sequence,4_17,2023-08-30T14:49:17.683Z,,0,,,3977,completion,,,,,false,,,,262057,262056,258062,258192,258079,261945,8,400,,,
trial,html.Screen,4_18_0,2023-08-30T14:49:20.498Z,,0,1,,2926,response,ISIC_0027238.JPG,11,ISIC_0024259.JPG,ISIC_0024259.JPG,false,0,keypress(z),500,264871,264871,261929,262057,261945,264762,8,400,19,,ISIC_0027238.JPG
break,html.Screen,4_18_1,2023-08-30T14:49:20.499Z,,0,,,NaN,,,,,,false,,,,264873,264873,,264872,,264762,8,400,,,
break_continue,html.Screen,4_18_2,2023-08-30T14:49:20.500Z,,0,,,NaN,,,,,,false,,,,264873,264873,,264873,,264762,8,400,,,
sequence,flow.Sequence,4_18,2023-08-30T14:49:20.500Z,,0,,,2928,completion,,,,,false,,,,264873,264873,261929,262057,261945,264762,8,400,,,
trial,html.Screen,4_19_0,2023-08-30T14:49:23.674Z,,0,1,,3285,response,ISIC_0033104.JPG,10,ISIC_1216698.JPG,ISIC_1216698.JPG,false,0,keypress(z),500,268048,268047,264745,264873,264762,267945,8,400,20,,ISIC_0033104.JPG
break,html.Screen,4_19_1,2023-08-30T14:49:23.675Z,,0,,,NaN,,,,,,false,,,,268049,268048,,268048,,267945,8,400,,,
break_continue,html.Screen,4_19_2,2023-08-30T14:49:23.676Z,,0,,,NaN,,,,,,false,,,,268049,268049,,268049,,267945,8,400,,,
sequence,flow.Sequence,4_19,2023-08-30T14:49:23.676Z,,0,,,3287,completion,,,,,false,,,,268049,268049,264745,264873,264762,267945,8,400,,,
trial,html.Screen,4_20_0,2023-08-30T14:49:30.722Z,,0,1,,7150,response,ISIC_3509838.JPG,10,ISIC_6124481.JPG,ISIC_3509838.JPG,false,1,keypress(m),500,275096,275095,267928,268049,267945,274995,8,400,21,,ISIC_6124481.JPG
break,html.Screen,4_20_1,2023-08-30T14:49:30.724Z,,0,,,NaN,,,,,,false,,,,275097,275097,,275096,,274995,8,400,,,
break_continue,html.Screen,4_20_2,2023-08-30T14:49:30.724Z,,0,,,NaN,,,,,,false,,,,275097,275097,,275097,,274995,8,400,,,
sequence,flow.Sequence,4_20,2023-08-30T14:49:30.725Z,,0,,,7152,completion,,,,,false,,,,275098,275097,267928,268049,267945,274995,8,400,,,
trial,html.Screen,4_21_0,2023-08-30T14:49:34.010Z,,0,1,,3389,response,ISIC_2638895.JPG,8,ISIC_0033427.JPG,ISIC_2638895.JPG,false,1,keypress(m),500,278384,278384,274978,275098,274995,278278,8,400,22,,ISIC_0033427.JPG
break,html.Screen,4_21_1,2023-08-30T14:49:34.011Z,,0,,,NaN,,,,,,false,,,,278384,278384,,278384,,278278,8,400,,,
break_continue,html.Screen,4_21_2,2023-08-30T14:49:34.011Z,,0,,,NaN,,,,,,false,,,,278384,278384,,278384,,278278,8,400,,,
sequence,flow.Sequence,4_21,2023-08-30T14:49:34.011Z,,0,,,3389,completion,,,,,false,,,,278384,278384,274978,275098,274995,278278,8,400,,,
trial,html.Screen,4_22_0,2023-08-30T14:49:39.706Z,,0,1,,5801,response,ISIC_0002953.JPG,11,ISIC_9209245.JPG,ISIC_0002953.JPG,false,1,keypress(m),500,284079,284079,278261,278384,278278,283978,8,400,23,,ISIC_9209245.JPG
break,html.Screen,4_22_1,2023-08-30T14:49:39.707Z,,0,,,NaN,,,,,,false,,,,284081,284080,,284080,,283978,8,400,,,
break_continue,html.Screen,4_22_2,2023-08-30T14:49:39.707Z,,0,,,NaN,,,,,,false,,,,284081,284081,,284081,,283978,8,400,,,
sequence,flow.Sequence,4_22,2023-08-30T14:49:39.707Z,,0,,,5803,completion,,,,,false,,,,284081,284081,278261,278384,278278,283978,8,400,,,
trial,html.Screen,4_23_0,2023-08-30T14:49:46.066Z,,0,1,,6461,response,ISIC_6019374.JPG,10,ISIC_0027620.JPG,ISIC_6019374.JPG,false,1,keypress(m),500,290439,290439,283961,284081,283978,290327,8,400,24,,ISIC_0027620.JPG
break,html.Screen,4_23_1,2023-08-30T14:49:46.068Z,,0,,,NaN,,,,,,false,,,,290441,290441,,290440,,290327,8,400,,,
break_continue,html.Screen,4_23_2,2023-08-30T14:49:46.068Z,,0,,,NaN,,,,,,false,,,,290442,290442,,290442,,290327,8,400,,,
sequence,flow.Sequence,4_23,2023-08-30T14:49:46.068Z,,0,,,6464,completion,,,,,false,,,,290442,290442,283961,284081,283978,290327,8,400,,,
trial,html.Screen,4_24_0,2023-08-30T14:49:49.403Z,,0,1,,3449,response,ISIC_0030106.JPG,9,ISIC_6532137.JPG,ISIC_6532137.JPG,false,0,keypress(z),500,293776,293776,290311,290442,290327,293677,8,400,25,,ISIC_0030106.JPG
break,html.Screen,4_24_1,2023-08-30T14:49:49.404Z,,0,,,NaN,,,,,,false,,,,293777,293777,,293776,,293677,8,400,,,
break_continue,html.Screen,4_24_2,2023-08-30T14:49:49.405Z,,0,,,NaN,,,,,,false,,,,293779,293778,,293777,,293677,8,400,,,
sequence,flow.Sequence,4_24,2023-08-30T14:49:49.405Z,,0,,,3451,completion,,,,,false,,,,293779,293778,290311,290442,290327,293677,8,400,,,
trial,html.Screen,4_25_0,2023-08-30T14:49:52.523Z,,0,1,,3219,response,ISIC_0033518.JPG,8,ISIC_2173158.JPG,ISIC_2173158.JPG,false,0,keypress(z),500,296897,296896,293661,293779,293677,296794,8,400,26,,ISIC_0033518.JPG
break,html.Screen,4_25_1,2023-08-30T14:49:52.524Z,,0,,,NaN,,,,,,false,,,,296898,296898,,296897,,296794,8,400,,,
break_continue,html.Screen,4_25_2,2023-08-30T14:49:52.525Z,,0,,,NaN,,,,,,false,,,,296898,296898,,296898,,296794,8,400,,,
sequence,flow.Sequence,4_25,2023-08-30T14:49:52.525Z,,0,,,3221,completion,,,,,false,,,,296899,296898,293661,293779,293677,296794,8,400,,,
trial,html.Screen,4_26_0,2023-08-30T14:49:55.642Z,,0,1,,3221,response,ISIC_0071586.JPG,8,ISIC_5110505.JPG,ISIC_5110505.JPG,false,0,keypress(z),500,300015,300015,296777,296899,296794,299910,8,400,27,,ISIC_0071586.JPG
break,html.Screen,4_26_1,2023-08-30T14:49:55.644Z,,0,,,NaN,,,,,,false,,,,300017,300017,,300016,,299910,8,400,,,
break_continue,html.Screen,4_26_2,2023-08-30T14:49:55.645Z,,0,,,NaN,,,,,,false,,,,300018,300018,,300017,,299910,8,400,,,
sequence,flow.Sequence,4_26,2023-08-30T14:49:55.645Z,,0,,,3224,completion,,,,,false,,,,300018,300018,296777,296899,296794,299910,8,400,,,
trial,html.Screen,4_27_0,2023-08-30T14:49:59.098Z,,0,1,,3562,response,ISIC_0067127.JPG,8,ISIC_4163686.JPG,ISIC_4163686.JPG,false,0,keypress(z),500,303472,303472,299894,300018,299910,303360,8,400,28,,ISIC_0067127.JPG
break,html.Screen,4_27_1,2023-08-30T14:49:59.099Z,,0,,,NaN,,,,,,false,,,,303472,303472,,303472,,303360,8,400,,,
break_continue,html.Screen,4_27_2,2023-08-30T14:49:59.099Z,,0,,,NaN,,,,,,false,,,,303472,303472,,303472,,303360,8,400,,,
sequence,flow.Sequence,4_27,2023-08-30T14:49:59.099Z,,0,,,3562,completion,,,,,false,,,,303472,303472,299894,300018,299910,303360,8,400,,,
trial,html.Screen,4_28_0,2023-08-30T14:50:04.106Z,,0,1,,5120,response,ISIC_4026569.JPG,10,ISIC_0070860.JPG,ISIC_4026569.JPG,false,1,keypress(m),500,308480,308480,303344,303472,303360,308377,8,400,29,,ISIC_0070860.JPG
break,html.Screen,4_28_1,2023-08-30T14:50:04.107Z,,0,,,NaN,,,,,,false,,,,308481,308480,,308480,,308377,8,400,,,
break_continue,html.Screen,4_28_2,2023-08-30T14:50:04.107Z,,0,,,NaN,,,,,,false,,,,308481,308481,,308481,,308377,8,400,,,
sequence,flow.Sequence,4_28,2023-08-30T14:50:04.107Z,,0,,,5121,completion,,,,,false,,,,308481,308481,303344,303472,303360,308377,8,400,,,
trial,html.Screen,4_29_0,2023-08-30T14:50:06.979Z,,0,1,,2974,response,ISIC_0011564.JPG,10,ISIC_0028181.JPG,ISIC_0011564.JPG,false,1,keypress(m),500,311352,311351,308360,308481,308377,311243,8,400,30,,ISIC_0028181.JPG
break,html.Screen,4_29_1,2023-08-30T14:50:06.980Z,,0,,,NaN,,,,,,false,,,,311354,311353,,311352,,311243,8,400,,,
break_continue,html.Screen,4_29_2,2023-08-30T14:50:06.981Z,,0,,,NaN,,,,,,false,,,,311354,311354,,311354,,311243,8,400,,,
sequence,flow.Sequence,4_29,2023-08-30T14:50:06.981Z,,0,,,2977,completion,,,,,false,,,,311354,311354,308360,308481,308377,311243,8,400,,,
trial,html.Screen,4_30_0,2023-08-30T14:50:11.506Z,,0,1,,4636,response,ISIC_0067564.JPG,8,ISIC_1370142.JPG,ISIC_1370142.JPG,false,0,keypress(z),500,315879,315879,311227,311354,311243,315776,8,400,31,,ISIC_0067564.JPG
break,html.Screen,4_30_1,2023-08-30T14:50:11.508Z,,0,,,NaN,,,,,,false,,,,315881,315880,,315880,,315776,8,400,,,
break_continue,html.Screen,4_30_2,2023-08-30T14:50:11.508Z,,0,,,NaN,,,,,,false,,,,315882,315882,,315882,,315776,8,400,,,
sequence,flow.Sequence,4_30,2023-08-30T14:50:11.508Z,,0,,,4639,completion,,,,,false,,,,315882,315882,311227,311354,311243,315776,8,400,,,
trial,html.Screen,4_31_0,2023-08-30T14:50:15.771Z,,0,1,,4368,response,ISIC_8095877.JPG,9,ISIC_0016127.JPG,ISIC_8095877.JPG,false,1,keypress(m),500,320144,320144,315760,315882,315776,320043,8,400,32,,ISIC_0016127.JPG
break,html.Screen,4_31_1,2023-08-30T14:50:15.772Z,,0,,,NaN,,,,,,false,,,,320145,320145,,320144,,320043,8,400,,,
break_continue,html.Screen,4_31_2,2023-08-30T14:50:15.772Z,,0,,,NaN,,,,,,false,,,,320145,320145,,320145,,320043,8,400,,,
sequence,flow.Sequence,4_31,2023-08-30T14:50:15.772Z,,0,,,4369,completion,,,,,false,,,,320146,320145,315760,315882,315776,320043,8,400,,,
trial,html.Screen,4_32_0,2023-08-30T14:50:19.595Z,,0,1,,3924,response,ISIC_0799535.JPG,9,ISIC_0033759.JPG,ISIC_0799535.JPG,false,1,keypress(m),500,323968,323967,320026,320146,320043,323859,8,400,33,,ISIC_0033759.JPG
break,html.Screen,4_32_1,2023-08-30T14:50:19.596Z,,0,,,NaN,,,,,,false,,,,323970,323970,,323969,,323859,8,400,,,
break_continue,html.Screen,4_32_2,2023-08-30T14:50:19.597Z,,0,,,NaN,,,,,,false,,,,323970,323970,,323970,,323859,8,400,,,
sequence,flow.Sequence,4_32,2023-08-30T14:50:19.597Z,,0,,,3927,completion,,,,,false,,,,323970,323970,320026,320146,320043,323859,8,400,,,
trial,html.Screen,4_33_0,2023-08-30T14:50:24.211Z,,0,1,,4724,response,ISIC_9564379.JPG,8,ISIC_0061509.JPG,ISIC_9564379.JPG,false,1,keypress(m),500,328584,328583,323843,323970,323859,328476,8,400,34,,ISIC_0061509.JPG
break,html.Screen,4_33_1,2023-08-30T14:50:24.212Z,,0,,,NaN,,,,,,false,,,,328586,328585,,328584,,328476,8,400,,,
break_continue,html.Screen,4_33_2,2023-08-30T14:50:24.212Z,,0,,,NaN,,,,,,false,,,,328586,328586,,328586,,328476,8,400,,,
sequence,flow.Sequence,4_33,2023-08-30T14:50:24.213Z,,0,,,4727,completion,,,,,false,,,,328586,328586,323843,323970,323859,328476,8,400,,,
trial,html.Screen,4_34_0,2023-08-30T14:50:27.698Z,,0,1,,3596,response,ISIC_9260499.JPG,7,ISIC_7865214.JPG,ISIC_7865214.JPG,false,0,keypress(z),500,332072,332072,328459,328586,328476,331976,8,400,35,,ISIC_9260499.JPG
break,html.Screen,4_34_1,2023-08-30T14:50:27.700Z,,0,,,NaN,,,,,,false,,,,332073,332073,,332072,,331976,8,400,,,
break_continue,html.Screen,4_34_2,2023-08-30T14:50:27.700Z,,0,,,NaN,,,,,,false,,,,332074,332074,,332073,,331976,8,400,,,
sequence,flow.Sequence,4_34,2023-08-30T14:50:27.700Z,,0,,,3598,completion,,,,,false,,,,332074,332074,328459,328586,328476,331976,8,400,,,
trial,html.Screen,4_35_0,2023-08-30T14:50:30.330Z,,0,1,,2727,response,ISIC_5191344.JPG,9,ISIC_6380209.JPG,ISIC_6380209.JPG,false,0,keypress(z),500,334703,334703,331959,332074,331976,334592,8,400,36,,ISIC_5191344.JPG
break,html.Screen,4_35_1,2023-08-30T14:50:30.332Z,,0,,,NaN,,,,,,false,,,,334705,334705,,334705,,334592,8,400,,,
break_continue,html.Screen,4_35_2,2023-08-30T14:50:30.332Z,,0,,,NaN,,,,,,false,,,,334705,334705,,334705,,334592,8,400,,,
sequence,flow.Sequence,4_35,2023-08-30T14:50:30.332Z,,0,,,2729,completion,,,,,false,,,,334705,334705,331959,332074,331976,334592,8,400,,,
trial,html.Screen,4_36_0,2023-08-30T14:50:33.299Z,,0,1,,3080,response,ISIC_0014867.JPG,9,ISIC_0064427.JPG,ISIC_0014867.JPG,false,1,keypress(m),500,337672,337672,334576,334705,334592,337576,8,400,37,,ISIC_0064427.JPG
break,html.Screen,4_36_1,2023-08-30T14:50:33.300Z,,0,,,NaN,,,,,,false,,,,337673,337673,,337672,,337576,8,400,,,
break_continue,html.Screen,4_36_2,2023-08-30T14:50:33.300Z,,0,,,NaN,,,,,,false,,,,337673,337673,,337673,,337576,8,400,,,
sequence,flow.Sequence,4_36,2023-08-30T14:50:33.300Z,,0,,,3081,completion,,,,,false,,,,337673,337673,334576,334705,334592,337576,8,400,,,
trial,html.Screen,4_37_0,2023-08-30T14:50:35.970Z,,0,1,,2767,response,ISIC_0011099.JPG,9,ISIC_8066110.JPG,ISIC_8066110.JPG,false,0,keypress(z),500,340343,340343,337559,337673,337576,340242,8,400,38,,ISIC_0011099.JPG
break,html.Screen,4_37_1,2023-08-30T14:50:35.972Z,,0,,,NaN,,,,,,false,,,,340345,340344,,340344,,340242,8,400,,,
break_continue,html.Screen,4_37_2,2023-08-30T14:50:35.972Z,,0,,,NaN,,,,,,false,,,,340346,340345,,340345,,340242,8,400,,,
sequence,flow.Sequence,4_37,2023-08-30T14:50:35.972Z,,0,,,2769,completion,,,,,false,,,,340346,340345,337559,337673,337576,340242,8,400,,,
trial,html.Screen,4_38_0,2023-08-30T14:50:39.282Z,,0,1,,3413,response,ISIC_6541615.JPG,9,ISIC_0067159.JPG,ISIC_0067159.JPG,false,0,keypress(z),500,343656,343655,340225,340346,340242,343559,8,400,39,,ISIC_6541615.JPG
break,html.Screen,4_38_1,2023-08-30T14:50:39.284Z,,0,,,NaN,,,,,,false,,,,343657,343657,,343656,,343559,8,400,,,
break_continue,html.Screen,4_38_2,2023-08-30T14:50:39.284Z,,0,,,NaN,,,,,,false,,,,343658,343657,,343657,,343559,8,400,,,
sequence,flow.Sequence,4_38,2023-08-30T14:50:39.284Z,,0,,,3415,completion,,,,,false,,,,343658,343657,340225,340346,340242,343559,8,400,,,
trial,html.Screen,4_39_0,2023-08-30T14:50:42.138Z,,0,1,,2952,response,ISIC_0032797.JPG,9,ISIC_0032569.JPG,ISIC_0032797.JPG,false,1,keypress(m),500,346511,346511,343542,343658,343559,346409,8,400,40,,ISIC_0032569.JPG
break,html.Screen,4_39_1,2023-08-30T14:50:42.139Z,,0,,,NaN,,,,,,false,,,,346512,346512,,346512,,346409,8,400,,,
break_continue,html.Screen,4_39_2,2023-08-30T14:50:42.139Z,,0,,,NaN,,,,,,false,,,,346513,346513,,346512,,346409,8,400,,,
sequence,flow.Sequence,4_39,2023-08-30T14:50:42.139Z,,0,,,2954,completion,,,,,false,,,,346513,346513,343542,343658,343559,346409,8,400,,,
trial,html.Screen,4_40_0,2023-08-30T14:50:45.235Z,,0,1,,3198,response,ISIC_0010757.JPG,11,ISIC_0031310.JPG,ISIC_0010757.JPG,false,1,keypress(m),500,349608,349607,346392,346513,346409,349508,8,400,41,,ISIC_0031310.JPG
break,html.Screen,4_40_1,2023-08-30T14:50:45.236Z,,0,,,NaN,,,,,,false,,,,349610,349609,,349608,,349508,8,400,,,
break_continue,html.Screen,4_40_2,2023-08-30T14:50:45.236Z,,0,,,NaN,,,,,,false,,,,349610,349610,,349610,,349508,8,400,,,
sequence,flow.Sequence,4_40,2023-08-30T14:50:45.237Z,,0,,,3201,completion,,,,,false,,,,349610,349610,346392,346513,346409,349508,8,400,,,
trial,html.Screen,4_41_0,2023-08-30T14:50:48.146Z,,0,1,,3012,response,ISIC_0032269.JPG,9,ISIC_0028944.JPG,ISIC_0028944.JPG,false,0,keypress(z),500,352520,352520,349492,349610,349508,352408,8,400,42,,ISIC_0032269.JPG
break,html.Screen,4_41_1,2023-08-30T14:50:48.148Z,,0,,,NaN,,,,,,false,,,,352521,352520,,352520,,352408,8,400,,,
break_continue,html.Screen,4_41_2,2023-08-30T14:50:48.148Z,,0,,,NaN,,,,,,false,,,,352521,352521,,352521,,352408,8,400,,,
sequence,flow.Sequence,4_41,2023-08-30T14:50:48.148Z,,0,,,3013,completion,,,,,false,,,,352522,352521,349492,349610,349508,352408,8,400,,,
trial,html.Screen,4_42_0,2023-08-30T14:50:51.771Z,,0,1,,3736,response,ISIC_4066726.JPG,9,ISIC_8502869.JPG,ISIC_4066726.JPG,false,1,keypress(m),500,356144,356144,352392,352522,352408,356042,8,400,43,,ISIC_8502869.JPG
break,html.Screen,4_42_1,2023-08-30T14:50:51.772Z,,0,,,NaN,,,,,,false,,,,356146,356145,,356144,,356042,8,400,,,
break_continue,html.Screen,4_42_2,2023-08-30T14:50:51.773Z,,0,,,NaN,,,,,,false,,,,356146,356146,,356146,,356042,8,400,,,
sequence,flow.Sequence,4_42,2023-08-30T14:50:51.773Z,,0,,,3738,completion,,,,,false,,,,356146,356146,352392,352522,352408,356042,8,400,,,
trial,html.Screen,4_43_0,2023-08-30T14:50:54.554Z,,0,1,,2886,response,ISIC_1413120.JPG,9,ISIC_2784965.JPG,ISIC_2784965.JPG,false,0,keypress(z),500,358928,358928,356025,356147,356042,358825,8,400,44,,ISIC_1413120.JPG
break,html.Screen,4_43_1,2023-08-30T14:50:54.556Z,,0,,,NaN,,,,,,false,,,,358929,358929,,358928,,358825,8,400,,,
break_continue,html.Screen,4_43_2,2023-08-30T14:50:54.556Z,,0,,,NaN,,,,,,false,,,,358929,358929,,358929,,358825,8,400,,,
sequence,flow.Sequence,4_43,2023-08-30T14:50:54.557Z,,0,,,2887,completion,,,,,false,,,,358929,358929,356025,356147,356042,358825,8,400,,,
trial,html.Screen,4_44_0,2023-08-30T14:51:00.842Z,,0,1,,6390,response,ISIC_1470245.JPG,9,ISIC_0029182.JPG,ISIC_0029182.JPG,false,0,keypress(z),500,365215,365215,358808,358930,358825,365108,8,400,45,,ISIC_1470245.JPG
break,html.Screen,4_44_1,2023-08-30T14:51:00.843Z,,0,,,NaN,,,,,,false,,,,365216,365216,,365215,,365108,8,400,,,
break_continue,html.Screen,4_44_2,2023-08-30T14:51:00.843Z,,0,,,NaN,,,,,,false,,,,365216,365216,,365216,,365108,8,400,,,
sequence,flow.Sequence,4_44,2023-08-30T14:51:00.843Z,,0,,,6391,completion,,,,,false,,,,365216,365216,358808,358930,358825,365108,8,400,,,
trial,html.Screen,4_45_0,2023-08-30T14:51:03.578Z,,0,1,,2843,response,ISIC_8901784.JPG,11,ISIC_7349772.JPG,ISIC_8901784.JPG,false,1,keypress(m),500,367951,367951,365091,365216,365108,367841,8,400,46,,ISIC_7349772.JPG
break,html.Screen,4_45_1,2023-08-30T14:51:03.580Z,,0,,,NaN,,,,,,false,,,,367952,367952,,367952,,367841,8,400,,,
break_continue,html.Screen,4_45_2,2023-08-30T14:51:03.580Z,,0,,,NaN,,,,,,false,,,,367953,367953,,367953,,367841,8,400,,,
sequence,flow.Sequence,4_45,2023-08-30T14:51:03.580Z,,0,,,2845,completion,,,,,false,,,,367953,367953,365091,365216,365108,367841,8,400,,,
trial,html.Screen,4_46_0,2023-08-30T14:51:06.827Z,,0,1,,3359,response,ISIC_9555580.JPG,10,ISIC_3448546.JPG,ISIC_3448546.JPG,false,0,keypress(z),500,371200,371200,367824,367953,367841,371091,8,400,47,,ISIC_9555580.JPG
break,html.Screen,4_46_1,2023-08-30T14:51:06.828Z,,0,,,NaN,,,,,,false,,,,371202,371202,,371201,,371091,8,400,,,
break_continue,html.Screen,4_46_2,2023-08-30T14:51:06.829Z,,0,,,NaN,,,,,,false,,,,371202,371202,,371202,,371091,8,400,,,
sequence,flow.Sequence,4_46,2023-08-30T14:51:06.829Z,,0,,,3361,completion,,,,,false,,,,371203,371202,367824,367953,367841,371091,8,400,,,
trial,html.Screen,4_47_0,2023-08-30T14:51:09.522Z,,0,1,,2804,response,ISIC_4978039.JPG,8,ISIC_6913272.JPG,ISIC_4978039.JPG,false,1,keypress(m),500,373895,373895,371074,371203,371091,373791,8,400,48,,ISIC_6913272.JPG
break,html.Screen,4_47_1,2023-08-30T14:51:09.524Z,,0,,,NaN,,,,,,false,,,,373898,373897,,373896,,373791,8,400,,,
break_continue,html.Screen,4_47_2,2023-08-30T14:51:09.525Z,,0,,,NaN,,,,,,false,,,,373898,373898,,373898,,373791,8,400,,,
sequence,flow.Sequence,4_47,2023-08-30T14:51:09.525Z,,0,,,2807,completion,,,,,false,,,,373898,373898,371074,371203,371091,373791,8,400,,,
trial,html.Screen,4_48_0,2023-08-30T14:51:13.162Z,,0,1,,3745,response,ISIC_0032094.JPG,8,ISIC_7296201.JPG,ISIC_0032094.JPG,false,1,keypress(m),500,377536,377536,373774,373898,373791,377424,8,400,49,,ISIC_7296201.JPG
break,html.Screen,4_48_1,2023-08-30T14:51:13.164Z,,0,,,NaN,,,,,,false,,,,377537,377537,,377536,,377424,8,400,,,
break_continue,html.Screen,4_48_2,2023-08-30T14:51:13.164Z,,0,,,NaN,,,,,,false,,,,377538,377538,,377538,,377424,8,400,,,
sequence,flow.Sequence,4_48,2023-08-30T14:51:13.165Z,,0,,,3747,completion,,,,,false,,,,377538,377538,373774,373898,373791,377424,8,400,,,
trial,html.Screen,4_49_0,2023-08-30T14:51:15.890Z,,0,1,,2840,response,ISIC_6174156.JPG,8,ISIC_7801289.JPG,ISIC_6174156.JPG,false,1,keypress(m),500,380264,380264,377407,377538,377424,380157,8,400,50,,ISIC_7801289.JPG
break,html.Screen,4_49_1,2023-08-30T14:51:20.883Z,,0,,,5000,timeout,,,,,false,,,,385257,385140,380141,380264,380157,385157,8,400,,,
break_continue,html.Screen,4_49_2,2023-08-30T14:52:13.853Z,,0,,,53052,response,,,,,false,continue,keypress(Space),,438227,438209,385140,385257,385157,438122,8,400,,,
sequence,flow.Sequence,4_49,2023-08-30T14:52:13.853Z,,0,,,60785,completion,,,,,false,,,,438227,438209,377407,377538,377424,438122,8,400,,,
trial,html.Screen,4_50_0,2023-08-30T14:52:21.323Z,,0,2,,7573,response,ISIC_0054167.JPG,6,ISIC_0069056.JPG,ISIC_0069056.JPG,false,0,keypress(z),500,445696,445695,438105,438227,438122,445588,8,400,1,,ISIC_0054167.JPG
break,html.Screen,4_50_1,2023-08-30T14:52:21.324Z,,0,,,NaN,,,,,,false,,,,445698,445697,,445696,,445588,8,400,,,
break_continue,html.Screen,4_50_2,2023-08-30T14:52:21.325Z,,0,,,NaN,,,,,,false,,,,445699,445698,,445698,,445588,8,400,,,
sequence,flow.Sequence,4_50,2023-08-30T14:52:21.325Z,,0,,,7576,completion,,,,,false,,,,445699,445698,438105,438227,438122,445588,8,400,,,
trial,html.Screen,4_51_0,2023-08-30T14:52:25.219Z,,0,2,,4004,response,ISIC_0874261.JPG,8,ISIC_4686317.JPG,ISIC_4686317.JPG,false,0,keypress(z),500,449592,449592,445571,445699,445588,449488,8,400,2,,ISIC_0874261.JPG
break,html.Screen,4_51_1,2023-08-30T14:52:25.220Z,,0,,,NaN,,,,,,false,,,,449594,449594,,449592,,449488,8,400,,,
break_continue,html.Screen,4_51_2,2023-08-30T14:52:25.221Z,,0,,,NaN,,,,,,false,,,,449595,449594,,449594,,449488,8,400,,,
sequence,flow.Sequence,4_51,2023-08-30T14:52:25.221Z,,0,,,4006,completion,,,,,false,,,,449595,449594,445571,445699,445588,449488,8,400,,,
trial,html.Screen,4_52_0,2023-08-30T14:52:28.234Z,,0,2,,3119,response,ISIC_0065513.JPG,8,ISIC_4882389.JPG,ISIC_4882389.JPG,false,0,keypress(z),500,452607,452607,449471,449595,449488,452504,8,400,3,,ISIC_0065513.JPG
break,html.Screen,4_52_1,2023-08-30T14:52:28.235Z,,0,,,NaN,,,,,,false,,,,452608,452608,,452607,,452504,8,400,,,
break_continue,html.Screen,4_52_2,2023-08-30T14:52:28.235Z,,0,,,NaN,,,,,,false,,,,452608,452608,,452608,,452504,8,400,,,
sequence,flow.Sequence,4_52,2023-08-30T14:52:28.235Z,,0,,,3120,completion,,,,,false,,,,452608,452608,449471,449595,449488,452504,8,400,,,
trial,html.Screen,4_53_0,2023-08-30T14:52:32.274Z,,0,2,,4143,response,ISIC_3300710.JPG,11,ISIC_0033538.JPG,ISIC_3300710.JPG,false,1,keypress(m),500,456648,456647,452488,452608,452504,456537,8,400,4,,ISIC_0033538.JPG
break,html.Screen,4_53_1,2023-08-30T14:52:32.275Z,,0,,,NaN,,,,,,false,,,,456649,456649,,456648,,456537,8,400,,,
break_continue,html.Screen,4_53_2,2023-08-30T14:52:32.275Z,,0,,,NaN,,,,,,false,,,,456649,456649,,456649,,456537,8,400,,,
sequence,flow.Sequence,4_53,2023-08-30T14:52:32.275Z,,0,,,4145,completion,,,,,false,,,,456649,456649,452488,452608,452504,456537,8,400,,,
trial,html.Screen,4_54_0,2023-08-30T14:52:36.186Z,,0,2,,4022,response,ISIC_3805025.JPG,10,ISIC_0013311.JPG,ISIC_0013311.JPG,false,0,keypress(z),500,460559,460559,456521,456649,456537,460454,8,400,5,,ISIC_3805025.JPG
break,html.Screen,4_54_1,2023-08-30T14:52:36.188Z,,0,,,NaN,,,,,,false,,,,460560,460560,,460560,,460454,8,400,,,
break_continue,html.Screen,4_54_2,2023-08-30T14:52:36.188Z,,0,,,NaN,,,,,,false,,,,460561,460561,,460561,,460454,8,400,,,
sequence,flow.Sequence,4_54,2023-08-30T14:52:36.188Z,,0,,,4024,completion,,,,,false,,,,460561,460561,456521,456649,456537,460454,8,400,,,
trial,html.Screen,4_55_0,2023-08-30T14:52:39.010Z,,0,2,,2930,response,ISIC_9335652.JPG,9,ISIC_0010651.JPG,ISIC_0010651.JPG,false,0,keypress(z),500,463384,463384,460437,460562,460454,463287,8,400,6,,ISIC_9335652.JPG
break,html.Screen,4_55_1,2023-08-30T14:52:39.012Z,,0,,,NaN,,,,,,false,,,,463385,463385,,463384,,463287,8,400,,,
break_continue,html.Screen,4_55_2,2023-08-30T14:52:39.012Z,,0,,,NaN,,,,,,false,,,,463386,463386,,463386,,463287,8,400,,,
sequence,flow.Sequence,4_55,2023-08-30T14:52:39.012Z,,0,,,2932,completion,,,,,false,,,,463386,463386,460437,460562,460454,463287,8,400,,,
trial,html.Screen,4_56_0,2023-08-30T14:52:43.475Z,,0,2,,4560,response,ISIC_0062162.JPG,9,ISIC_0046331.JPG,ISIC_0046331.JPG,false,0,keypress(z),500,467848,467847,463271,463386,463287,467737,8,400,7,,ISIC_0062162.JPG
break,html.Screen,4_56_1,2023-08-30T14:52:43.476Z,,0,,,NaN,,,,,,false,,,,467850,467849,,467849,,467737,8,400,,,
break_continue,html.Screen,4_56_2,2023-08-30T14:52:43.477Z,,0,,,NaN,,,,,,false,,,,467850,467850,,467850,,467737,8,400,,,
sequence,flow.Sequence,4_56,2023-08-30T14:52:43.477Z,,0,,,4563,completion,,,,,false,,,,467850,467850,463271,463386,463287,467737,8,400,,,
trial,html.Screen,4_57_0,2023-08-30T14:52:50.018Z,,0,2,,6655,response,ISIC_7071944.JPG,8,ISIC_8502341.JPG,ISIC_8502341.JPG,false,0,keypress(z),500,474392,474392,467720,467850,467737,474287,8,400,8,,ISIC_7071944.JPG
break,html.Screen,4_57_1,2023-08-30T14:52:50.020Z,,0,,,NaN,,,,,,false,,,,474394,474393,,474392,,474287,8,400,,,
break_continue,html.Screen,4_57_2,2023-08-30T14:52:50.020Z,,0,,,NaN,,,,,,false,,,,474394,474394,,474394,,474287,8,400,,,
sequence,flow.Sequence,4_57,2023-08-30T14:52:50.021Z,,0,,,6657,completion,,,,,false,,,,474394,474394,467720,467850,467737,474287,8,400,,,
trial,html.Screen,4_58_0,2023-08-30T14:52:55.106Z,,0,2,,5193,response,ISIC_1018265.JPG,9,ISIC_0062546.JPG,ISIC_0062546.JPG,false,0,keypress(z),500,479480,479480,474270,474394,474287,479370,8,400,9,,ISIC_1018265.JPG
break,html.Screen,4_58_1,2023-08-30T14:52:55.108Z,,0,,,NaN,,,,,,false,,,,479481,479481,,479480,,479370,8,400,,,
break_continue,html.Screen,4_58_2,2023-08-30T14:52:55.108Z,,0,,,NaN,,,,,,false,,,,479482,479481,,479481,,479370,8,400,,,
sequence,flow.Sequence,4_58,2023-08-30T14:52:55.109Z,,0,,,5194,completion,,,,,false,,,,479482,479481,474270,474394,474287,479370,8,400,,,
trial,html.Screen,4_59_0,2023-08-30T14:52:59.138Z,,0,2,,4142,response,ISIC_0067395.JPG,9,ISIC_0029571.JPG,ISIC_0029571.JPG,false,0,keypress(z),500,483512,483512,479353,479482,479370,483403,8,400,10,,ISIC_0067395.JPG
break,html.Screen,4_59_1,2023-08-30T14:52:59.140Z,,0,,,NaN,,,,,,false,,,,483514,483513,,483512,,483403,8,400,,,
break_continue,html.Screen,4_59_2,2023-08-30T14:52:59.140Z,,0,,,NaN,,,,,,false,,,,483514,483514,,483514,,483403,8,400,,,
sequence,flow.Sequence,4_59,2023-08-30T14:52:59.141Z,,0,,,4144,completion,,,,,false,,,,483514,483514,479353,479482,479370,483403,8,400,,,
trial,html.Screen,4_60_0,2023-08-30T14:53:05.946Z,,0,2,,6916,response,ISIC_0026909.JPG,8,ISIC_6463417.JPG,ISIC_0026909.JPG,false,1,keypress(m),500,490320,490319,483386,483514,483403,490219,8,400,11,,ISIC_6463417.JPG
break,html.Screen,4_60_1,2023-08-30T14:53:05.948Z,,0,,,NaN,,,,,,false,,,,490321,490321,,490320,,490219,8,400,,,
break_continue,html.Screen,4_60_2,2023-08-30T14:53:05.949Z,,0,,,NaN,,,,,,false,,,,490322,490322,,490322,,490219,8,400,,,
sequence,flow.Sequence,4_60,2023-08-30T14:53:05.949Z,,0,,,6919,completion,,,,,false,,,,490322,490322,483386,483514,483403,490219,8,400,,,
trial,html.Screen,4_61_0,2023-08-30T14:53:09.042Z,,0,2,,3196,response,ISIC_0413154.JPG,7,ISIC_5910595.JPG,ISIC_0413154.JPG,false,1,keypress(m),500,493416,493415,490203,490323,490219,493319,8,400,12,,ISIC_5910595.JPG
break,html.Screen,4_61_1,2023-08-30T14:53:09.044Z,,0,,,NaN,,,,,,false,,,,493417,493417,,493416,,493319,8,400,,,
break_continue,html.Screen,4_61_2,2023-08-30T14:53:09.045Z,,0,,,NaN,,,,,,false,,,,493418,493417,,493417,,493319,8,400,,,
sequence,flow.Sequence,4_61,2023-08-30T14:53:09.045Z,,0,,,3198,completion,,,,,false,,,,493418,493417,490203,490323,490219,493319,8,400,,,
trial,html.Screen,4_62_0,2023-08-30T14:53:12.123Z,,0,2,,3177,response,ISIC_0046340.JPG,8,ISIC_0011099.JPG,ISIC_0046340.JPG,false,1,keypress(m),500,496496,496496,493303,493419,493319,496386,8,400,13,,ISIC_0011099.JPG
break,html.Screen,4_62_1,2023-08-30T14:53:12.124Z,,0,,,NaN,,,,,,false,,,,496497,496497,,496496,,496386,8,400,,,
break_continue,html.Screen,4_62_2,2023-08-30T14:53:12.125Z,,0,,,NaN,,,,,,false,,,,496498,496498,,496497,,496386,8,400,,,
sequence,flow.Sequence,4_62,2023-08-30T14:53:12.125Z,,0,,,3179,completion,,,,,false,,,,496498,496498,493303,493419,493319,496386,8,400,,,
trial,html.Screen,4_63_0,2023-08-30T14:53:14.867Z,,0,2,,2853,response,ISIC_0620587.JPG,8,ISIC_0000295.JPG,ISIC_0620587.JPG,false,1,keypress(m),500,499240,499239,496369,496498,496386,499136,8,400,14,,ISIC_0000295.JPG
break,html.Screen,4_63_1,2023-08-30T14:53:14.868Z,,0,,,NaN,,,,,,false,,,,499241,499241,,499240,,499136,8,400,,,
break_continue,html.Screen,4_63_2,2023-08-30T14:53:14.869Z,,0,,,NaN,,,,,,false,,,,499242,499242,,499242,,499136,8,400,,,
sequence,flow.Sequence,4_63,2023-08-30T14:53:14.869Z,,0,,,2856,completion,,,,,false,,,,499242,499242,496369,496498,496386,499136,8,400,,,
trial,html.Screen,4_64_0,2023-08-30T14:53:18.418Z,,0,2,,3656,response,ISIC_9482251.JPG,8,ISIC_5132214.JPG,ISIC_5132214.JPG,false,0,keypress(z),500,502792,502792,499119,499243,499136,502686,8,400,15,,ISIC_9482251.JPG
break,html.Screen,4_64_1,2023-08-30T14:53:18.420Z,,0,,,NaN,,,,,,false,,,,502793,502792,,502792,,502686,8,400,,,
break_continue,html.Screen,4_64_2,2023-08-30T14:53:18.421Z,,0,,,NaN,,,,,,false,,,,502794,502794,,502793,,502686,8,400,,,
sequence,flow.Sequence,4_64,2023-08-30T14:53:18.421Z,,0,,,3658,completion,,,,,false,,,,502794,502794,499119,499242,499136,502686,8,400,,,
trial,html.Screen,4_65_0,2023-08-30T14:53:21.108Z,,0,2,,2793,response,ISIC_0034039.JPG,9,ISIC_0027798.JPG,ISIC_0034039.JPG,false,1,keypress(m),500,505481,505479,502669,502794,502686,505386,8,400,16,,ISIC_0027798.JPG
break,html.Screen,4_65_1,2023-08-30T14:53:21.110Z,,0,,,NaN,,,,,,false,,,,505483,505483,,505482,,505386,8,400,,,
break_continue,html.Screen,4_65_2,2023-08-30T14:53:21.110Z,,0,,,NaN,,,,,,false,,,,505484,505484,,505484,,505386,8,400,,,
sequence,flow.Sequence,4_65,2023-08-30T14:53:21.111Z,,0,,,2798,completion,,,,,false,,,,505484,505484,502669,502794,502686,505386,8,400,,,
trial,html.Screen,4_66_0,2023-08-30T14:53:25.530Z,,0,2,,4517,response,ISIC_4708642.JPG,7,ISIC_0014110.JPG,ISIC_4708642.JPG,false,1,keypress(m),500,509903,509903,505369,505484,505386,509802,8,400,17,,ISIC_0014110.JPG
break,html.Screen,4_66_1,2023-08-30T14:53:25.531Z,,0,,,NaN,,,,,,false,,,,509904,509904,,509903,,509802,8,400,,,
break_continue,html.Screen,4_66_2,2023-08-30T14:53:25.532Z,,0,,,NaN,,,,,,false,,,,509905,509905,,509905,,509802,8,400,,,
sequence,flow.Sequence,4_66,2023-08-30T14:53:25.532Z,,0,,,4519,completion,,,,,false,,,,509905,509905,505369,505484,505386,509802,8,400,,,
trial,html.Screen,4_67_0,2023-08-30T14:53:28.307Z,,0,2,,2878,response,ISIC_6381852.JPG,10,ISIC_0066506.JPG,ISIC_6381852.JPG,false,1,keypress(m),500,512680,512680,509785,509905,509802,512569,8,400,18,,ISIC_0066506.JPG
break,html.Screen,4_67_1,2023-08-30T14:53:28.308Z,,0,,,NaN,,,,,,false,,,,512682,512681,,512680,,512569,8,400,,,
break_continue,html.Screen,4_67_2,2023-08-30T14:53:28.309Z,,0,,,NaN,,,,,,false,,,,512682,512682,,512682,,512569,8,400,,,
sequence,flow.Sequence,4_67,2023-08-30T14:53:28.309Z,,0,,,2880,completion,,,,,false,,,,512683,512682,509785,509905,509802,512569,8,400,,,
trial,html.Screen,4_68_0,2023-08-30T14:53:31.394Z,,0,2,,3198,response,ISIC_8764464.JPG,8,ISIC_0000175.JPG,ISIC_8764464.JPG,false,1,keypress(m),500,515767,515767,512552,512683,512569,515668,8,400,19,,ISIC_0000175.JPG
break,html.Screen,4_68_1,2023-08-30T14:53:31.396Z,,0,,,NaN,,,,,,false,,,,515769,515769,,515768,,515668,8,400,,,
break_continue,html.Screen,4_68_2,2023-08-30T14:53:31.396Z,,0,,,NaN,,,,,,false,,,,515769,515769,,515769,,515668,8,400,,,
sequence,flow.Sequence,4_68,2023-08-30T14:53:31.396Z,,0,,,3200,completion,,,,,false,,,,515770,515769,512552,512683,512569,515668,8,400,,,
trial,html.Screen,4_69_0,2023-08-30T14:53:34.098Z,,0,2,,2804,response,ISIC_2798803.JPG,9,ISIC_0033204.JPG,ISIC_2798803.JPG,false,1,keypress(m),500,518472,518472,515652,515770,515668,518368,8,400,20,,ISIC_0033204.JPG
break,html.Screen,4_69_1,2023-08-30T14:53:34.100Z,,0,,,NaN,,,,,,false,,,,518473,518473,,518472,,518368,8,400,,,
break_continue,html.Screen,4_69_2,2023-08-30T14:53:34.100Z,,0,,,NaN,,,,,,false,,,,518473,518473,,518473,,518368,8,400,,,
sequence,flow.Sequence,4_69,2023-08-30T14:53:34.100Z,,0,,,2805,completion,,,,,false,,,,518473,518473,515652,515770,515668,518368,8,400,,,
trial,html.Screen,4_70_0,2023-08-30T14:53:37.722Z,,0,2,,3727,response,ISIC_6917681.JPG,9,ISIC_0054982.JPG,ISIC_6917681.JPG,false,1,keypress(m),500,522096,522095,518352,518474,518368,521985,8,400,21,,ISIC_0054982.JPG
break,html.Screen,4_70_1,2023-08-30T14:53:37.724Z,,0,,,NaN,,,,,,false,,,,522097,522097,,522097,,521985,8,400,,,
break_continue,html.Screen,4_70_2,2023-08-30T14:53:37.724Z,,0,,,NaN,,,,,,false,,,,522097,522097,,522097,,521985,8,400,,,
sequence,flow.Sequence,4_70,2023-08-30T14:53:37.724Z,,0,,,3729,completion,,,,,false,,,,522097,522097,518352,518473,518368,521985,8,400,,,
trial,html.Screen,4_71_0,2023-08-30T14:53:41.651Z,,0,2,,4039,response,ISIC_0069250.JPG,9,ISIC_0238570.JPG,ISIC_0238570.JPG,false,0,keypress(z),500,526024,526024,521968,522097,521985,525918,8,400,22,,ISIC_0069250.JPG
break,html.Screen,4_71_1,2023-08-30T14:53:41.652Z,,0,,,NaN,,,,,,false,,,,526026,526025,,526024,,525918,8,400,,,
break_continue,html.Screen,4_71_2,2023-08-30T14:53:41.652Z,,0,,,NaN,,,,,,false,,,,526026,526026,,526026,,525918,8,400,,,
sequence,flow.Sequence,4_71,2023-08-30T14:53:41.653Z,,0,,,4041,completion,,,,,false,,,,526026,526026,521968,522097,521985,525918,8,400,,,
trial,html.Screen,4_72_0,2023-08-30T14:53:44.386Z,,0,2,,2841,response,ISIC_0028508.JPG,8,ISIC_3093026.JPG,ISIC_3093026.JPG,false,0,keypress(z),500,528759,528759,525901,526026,525918,528651,8,400,23,,ISIC_0028508.JPG
break,html.Screen,4_72_1,2023-08-30T14:53:44.387Z,,0,,,NaN,,,,,,false,,,,528760,528759,,528759,,528651,8,400,,,
break_continue,html.Screen,4_72_2,2023-08-30T14:53:44.387Z,,0,,,NaN,,,,,,false,,,,528760,528760,,528760,,528651,8,400,,,
sequence,flow.Sequence,4_72,2023-08-30T14:53:44.387Z,,0,,,2842,completion,,,,,false,,,,528760,528760,525901,526026,525918,528651,8,400,,,
trial,html.Screen,4_73_0,2023-08-30T14:53:47.682Z,,0,2,,3405,response,ISIC_0021442.JPG,11,ISIC_0069398.JPG,ISIC_0069398.JPG,false,0,keypress(z),500,532056,532056,528635,528760,528651,531951,8,400,24,,ISIC_0021442.JPG
break,html.Screen,4_73_1,2023-08-30T14:53:47.684Z,,0,,,NaN,,,,,,false,,,,532057,532057,,532056,,531951,8,400,,,
break_continue,html.Screen,4_73_2,2023-08-30T14:53:47.684Z,,0,,,NaN,,,,,,false,,,,532058,532057,,532057,,531951,8,400,,,
sequence,flow.Sequence,4_73,2023-08-30T14:53:47.684Z,,0,,,3406,completion,,,,,false,,,,532058,532057,528635,528760,528651,531951,8,400,,,
trial,html.Screen,4_74_0,2023-08-30T14:53:52.939Z,,0,2,,5361,response,ISIC_7140778.JPG,9,ISIC_7619234.JPG,ISIC_7619234.JPG,false,0,keypress(z),500,537312,537312,531934,532058,531951,537201,8,400,25,,ISIC_7140778.JPG
break,html.Screen,4_74_1,2023-08-30T14:53:52.940Z,,0,,,NaN,,,,,,false,,,,537313,537313,,537313,,537201,8,400,,,
break_continue,html.Screen,4_74_2,2023-08-30T14:53:52.940Z,,0,,,NaN,,,,,,false,,,,537314,537314,,537314,,537201,8,400,,,
sequence,flow.Sequence,4_74,2023-08-30T14:53:52.941Z,,0,,,5363,completion,,,,,false,,,,537314,537314,531934,532058,531951,537201,8,400,,,
trial,html.Screen,4_75_0,2023-08-30T14:53:56.547Z,,0,2,,3719,response,ISIC_0033233.JPG,7,ISIC_0032622.JPG,ISIC_0033233.JPG,false,1,keypress(m),500,540920,540920,537184,537314,537201,540817,8,400,26,,ISIC_0032622.JPG
break,html.Screen,4_75_1,2023-08-30T14:53:56.548Z,,0,,,NaN,,,,,,false,,,,540921,540921,,540920,,540817,8,400,,,
break_continue,html.Screen,4_75_2,2023-08-30T14:53:56.549Z,,0,,,NaN,,,,,,false,,,,540922,540922,,540921,,540817,8,400,,,
sequence,flow.Sequence,4_75,2023-08-30T14:53:56.549Z,,0,,,3721,completion,,,,,false,,,,540923,540922,537184,537314,537201,540817,8,400,,,
trial,html.Screen,4_76_0,2023-08-30T14:54:01.786Z,,0,2,,5343,response,ISIC_0011507.JPG,8,ISIC_0025724.JPG,ISIC_0025724.JPG,false,0,keypress(z),500,546160,546160,540801,540923,540817,546051,8,400,27,,ISIC_0011507.JPG
break,html.Screen,4_76_1,2023-08-30T14:54:01.788Z,,0,,,NaN,,,,,,false,,,,546161,546160,,546160,,546051,8,400,,,
break_continue,html.Screen,4_76_2,2023-08-30T14:54:01.788Z,,0,,,NaN,,,,,,false,,,,546161,546161,,546161,,546051,8,400,,,
sequence,flow.Sequence,4_76,2023-08-30T14:54:01.788Z,,0,,,5344,completion,,,,,false,,,,546161,546161,540801,540923,540817,546051,8,400,,,
trial,html.Screen,4_77_0,2023-08-30T14:54:06.890Z,,0,2,,5213,response,ISIC_0028225.JPG,9,ISIC_0032160.JPG,ISIC_0028225.JPG,false,1,keypress(m),500,551264,551264,546034,546162,546051,551167,8,400,28,,ISIC_0032160.JPG
break,html.Screen,4_77_1,2023-08-30T14:54:06.892Z,,0,,,NaN,,,,,,false,,,,551265,551265,,551264,,551167,8,400,,,
break_continue,html.Screen,4_77_2,2023-08-30T14:54:06.892Z,,0,,,NaN,,,,,,false,,,,551265,551265,,551265,,551167,8,400,,,
sequence,flow.Sequence,4_77,2023-08-30T14:54:06.892Z,,0,,,5214,completion,,,,,false,,,,551265,551265,546034,546162,546051,551167,8,400,,,
trial,html.Screen,4_78_0,2023-08-30T14:54:10.578Z,,0,2,,3784,response,ISIC_0055314.JPG,9,ISIC_2728024.JPG,ISIC_2728024.JPG,false,0,keypress(z),500,554951,554951,551150,551265,551167,554850,8,400,29,,ISIC_0055314.JPG
break,html.Screen,4_78_1,2023-08-30T14:54:10.580Z,,0,,,NaN,,,,,,false,,,,554954,554953,,554952,,554850,8,400,,,
break_continue,html.Screen,4_78_2,2023-08-30T14:54:10.580Z,,0,,,NaN,,,,,,false,,,,554954,554954,,554954,,554850,8,400,,,
sequence,flow.Sequence,4_78,2023-08-30T14:54:10.581Z,,0,,,3787,completion,,,,,false,,,,554954,554954,551150,551265,551167,554850,8,400,,,
trial,html.Screen,4_79_0,2023-08-30T14:54:14.082Z,,0,2,,3605,response,ISIC_6766153.JPG,9,ISIC_7268123.JPG,ISIC_6766153.JPG,false,1,keypress(m),500,558455,558455,554834,554954,554850,558350,8,400,30,,ISIC_7268123.JPG
break,html.Screen,4_79_1,2023-08-30T14:54:14.084Z,,0,,,NaN,,,,,,false,,,,558457,558457,,558456,,558350,8,400,,,
break_continue,html.Screen,4_79_2,2023-08-30T14:54:14.084Z,,0,,,NaN,,,,,,false,,,,558457,558457,,558457,,558350,8,400,,,
sequence,flow.Sequence,4_79,2023-08-30T14:54:14.085Z,,0,,,3607,completion,,,,,false,,,,558458,558457,554834,554954,554850,558350,8,400,,,
trial,html.Screen,4_80_0,2023-08-30T14:54:20.586Z,,0,2,,6610,response,ISIC_0063258.JPG,8,ISIC_0001578.JPG,ISIC_0001578.JPG,false,0,keypress(z),500,564960,564960,558333,558458,558350,564850,8,400,31,,ISIC_0063258.JPG
break,html.Screen,4_80_1,2023-08-30T14:54:20.588Z,,0,,,NaN,,,,,,false,,,,564961,564961,,564960,,564850,8,400,,,
break_continue,html.Screen,4_80_2,2023-08-30T14:54:20.588Z,,0,,,NaN,,,,,,false,,,,564961,564961,,564961,,564850,8,400,,,
sequence,flow.Sequence,4_80,2023-08-30T14:54:20.589Z,,0,,,6611,completion,,,,,false,,,,564962,564961,558333,558458,558350,564850,8,400,,,
trial,html.Screen,4_81_0,2023-08-30T14:54:23.626Z,,0,2,,3149,response,ISIC_7131689.JPG,9,ISIC_0024427.JPG,ISIC_7131689.JPG,false,1,keypress(m),500,567999,567999,564833,564962,564850,567900,8,400,32,,ISIC_0024427.JPG
break,html.Screen,4_81_1,2023-08-30T14:54:23.628Z,,0,,,NaN,,,,,,false,,,,568001,568001,,568000,,567900,8,400,,,
break_continue,html.Screen,4_81_2,2023-08-30T14:54:23.628Z,,0,,,NaN,,,,,,false,,,,568001,568001,,568001,,567900,8,400,,,
sequence,flow.Sequence,4_81,2023-08-30T14:54:23.629Z,,0,,,3151,completion,,,,,false,,,,568002,568001,564833,564962,564850,567900,8,400,,,
trial,html.Screen,4_82_0,2023-08-30T14:54:26.875Z,,0,2,,3348,response,ISIC_0011150.JPG,9,ISIC_7421214.JPG,ISIC_0011150.JPG,false,1,keypress(m),500,571248,571248,567883,568002,567900,571150,8,400,33,,ISIC_7421214.JPG
break,html.Screen,4_82_1,2023-08-30T14:54:26.876Z,,0,,,NaN,,,,,,false,,,,571249,571249,,571248,,571150,8,400,,,
break_continue,html.Screen,4_82_2,2023-08-30T14:54:26.877Z,,0,,,NaN,,,,,,false,,,,571250,571250,,571249,,571150,8,400,,,
sequence,flow.Sequence,4_82,2023-08-30T14:54:26.877Z,,0,,,3350,completion,,,,,false,,,,571250,571250,567883,568002,567900,571150,8,400,,,
trial,html.Screen,4_83_0,2023-08-30T14:54:29.810Z,,0,2,,3033,response,ISIC_0000310.JPG,9,ISIC_7277310.JPG,ISIC_7277310.JPG,false,0,keypress(z),500,574183,574183,571133,571250,571150,574083,8,400,34,,ISIC_0000310.JPG
break,html.Screen,4_83_1,2023-08-30T14:54:29.812Z,,0,,,NaN,,,,,,false,,,,574185,574185,,574184,,574083,8,400,,,
break_continue,html.Screen,4_83_2,2023-08-30T14:54:29.812Z,,0,,,NaN,,,,,,false,,,,574185,574185,,574185,,574083,8,400,,,
sequence,flow.Sequence,4_83,2023-08-30T14:54:29.812Z,,0,,,3035,completion,,,,,false,,,,574185,574185,571133,571250,571150,574083,8,400,,,
trial,html.Screen,4_84_0,2023-08-30T14:54:37.026Z,,0,2,,7316,response,ISIC_0032526.JPG,9,ISIC_0024292.JPG,ISIC_0024292.JPG,false,0,keypress(z),500,581399,581399,574066,574186,574083,581299,8,400,35,,ISIC_0032526.JPG
break,html.Screen,4_84_1,2023-08-30T14:54:37.027Z,,0,,,NaN,,,,,,false,,,,581400,581400,,581399,,581299,8,400,,,
break_continue,html.Screen,4_84_2,2023-08-30T14:54:37.028Z,,0,,,NaN,,,,,,false,,,,581401,581401,,581401,,581299,8,400,,,
sequence,flow.Sequence,4_84,2023-08-30T14:54:37.028Z,,0,,,7318,completion,,,,,false,,,,581401,581401,574066,574186,574083,581299,8,400,,,
trial,html.Screen,4_85_0,2023-08-30T14:54:40.011Z,,0,2,,3085,response,ISIC_0053469.JPG,9,ISIC_3123377.JPG,ISIC_3123377.JPG,false,0,keypress(z),500,584384,584384,581282,581402,581299,584282,8,400,36,,ISIC_0053469.JPG
break,html.Screen,4_85_1,2023-08-30T14:54:40.012Z,,0,,,NaN,,,,,,false,,,,584385,584385,,584385,,584282,8,400,,,
break_continue,html.Screen,4_85_2,2023-08-30T14:54:40.012Z,,0,,,NaN,,,,,,false,,,,584386,584386,,584385,,584282,8,400,,,
sequence,flow.Sequence,4_85,2023-08-30T14:54:40.012Z,,0,,,3087,completion,,,,,false,,,,584386,584386,581282,581401,581299,584282,8,400,,,
trial,html.Screen,4_86_0,2023-08-30T14:54:43.154Z,,0,2,,3246,response,ISIC_0397464.JPG,9,ISIC_4298624.JPG,ISIC_4298624.JPG,false,0,keypress(z),500,587528,587528,584266,584386,584282,587416,8,400,37,,ISIC_0397464.JPG
break,html.Screen,4_86_1,2023-08-30T14:54:43.156Z,,0,,,NaN,,,,,,false,,,,587529,587529,,587528,,587416,8,400,,,
break_continue,html.Screen,4_86_2,2023-08-30T14:54:43.156Z,,0,,,NaN,,,,,,false,,,,587529,587529,,587529,,587416,8,400,,,
sequence,flow.Sequence,4_86,2023-08-30T14:54:43.156Z,,0,,,3247,completion,,,,,false,,,,587530,587529,584266,584386,584282,587416,8,400,,,
trial,html.Screen,4_87_0,2023-08-30T14:54:46.066Z,,0,2,,3023,response,ISIC_0000473.JPG,9,ISIC_0884550.JPG,ISIC_0884550.JPG,false,0,keypress(z),500,590439,590439,587399,587530,587416,590332,8,400,38,,ISIC_0000473.JPG
break,html.Screen,4_87_1,2023-08-30T14:54:46.067Z,,0,,,NaN,,,,,,false,,,,590441,590440,,590440,,590332,8,400,,,
break_continue,html.Screen,4_87_2,2023-08-30T14:54:46.067Z,,0,,,NaN,,,,,,false,,,,590441,590441,,590441,,590332,8,400,,,
sequence,flow.Sequence,4_87,2023-08-30T14:54:46.067Z,,0,,,3025,completion,,,,,false,,,,590441,590441,587399,587530,587416,590332,8,400,,,
trial,html.Screen,4_88_0,2023-08-30T14:54:50.123Z,,0,2,,4164,response,ISIC_3653492.JPG,10,ISIC_6128108.JPG,ISIC_6128108.JPG,false,0,keypress(z),500,594496,594496,590315,590441,590332,594399,8,400,39,,ISIC_3653492.JPG
break,html.Screen,4_88_1,2023-08-30T14:54:50.124Z,,0,,,NaN,,,,,,false,,,,594497,594497,,594496,,594399,8,400,,,
break_continue,html.Screen,4_88_2,2023-08-30T14:54:50.125Z,,0,,,NaN,,,,,,false,,,,594498,594498,,594498,,594399,8,400,,,
sequence,flow.Sequence,4_88,2023-08-30T14:54:50.125Z,,0,,,4166,completion,,,,,false,,,,594498,594498,590315,590441,590332,594399,8,400,,,
trial,html.Screen,4_89_0,2023-08-30T14:54:54.546Z,,0,2,,4520,response,ISIC_0002899.JPG,8,ISIC_0010916.JPG,ISIC_0002899.JPG,false,1,keypress(m),500,598920,598919,594382,594498,594399,598815,8,400,40,,ISIC_0010916.JPG
break,html.Screen,4_89_1,2023-08-30T14:54:54.548Z,,0,,,NaN,,,,,,false,,,,598921,598921,,598920,,598815,8,400,,,
break_continue,html.Screen,4_89_2,2023-08-30T14:54:54.548Z,,0,,,NaN,,,,,,false,,,,598921,598921,,598921,,598815,8,400,,,
sequence,flow.Sequence,4_89,2023-08-30T14:54:54.549Z,,0,,,4522,completion,,,,,false,,,,598921,598921,594382,594498,594399,598815,8,400,,,
trial,html.Screen,4_90_0,2023-08-30T14:54:59.906Z,,0,2,,5464,response,ISIC_2661598.JPG,9,ISIC_0034048.JPG,ISIC_2661598.JPG,false,1,keypress(m),500,604280,604279,598798,598922,598815,604182,8,400,41,,ISIC_0034048.JPG
break,html.Screen,4_90_1,2023-08-30T14:54:59.908Z,,0,,,NaN,,,,,,false,,,,604281,604280,,604280,,604182,8,400,,,
break_continue,html.Screen,4_90_2,2023-08-30T14:54:59.909Z,,0,,,NaN,,,,,,false,,,,604282,604281,,604281,,604182,8,400,,,
sequence,flow.Sequence,4_90,2023-08-30T14:54:59.909Z,,0,,,5466,completion,,,,,false,,,,604282,604281,598798,598922,598815,604182,8,400,,,
trial,html.Screen,4_91_0,2023-08-30T14:55:05.594Z,,0,2,,5786,response,ISIC_0014222.JPG,8,ISIC_0069486.JPG,ISIC_0014222.JPG,false,1,keypress(m),500,609968,609968,604165,604282,604182,609865,8,400,42,,ISIC_0069486.JPG
break,html.Screen,4_91_1,2023-08-30T14:55:05.598Z,,0,,,NaN,,,,,,false,,,,609971,609971,,609970,,609865,8,400,,,
break_continue,html.Screen,4_91_2,2023-08-30T14:55:05.598Z,,0,,,NaN,,,,,,false,,,,609971,609971,,609971,,609865,8,400,,,
sequence,flow.Sequence,4_91,2023-08-30T14:55:05.598Z,,0,,,5789,completion,,,,,false,,,,609971,609971,604165,604282,604182,609865,8,400,,,
trial,html.Screen,4_92_0,2023-08-30T14:55:08.659Z,,0,2,,3166,response,ISIC_6562871.JPG,8,ISIC_2486088.JPG,ISIC_2486088.JPG,false,0,keypress(z),500,613032,613031,609848,609971,609865,612931,8,400,43,,ISIC_6562871.JPG
break,html.Screen,4_92_1,2023-08-30T14:55:08.660Z,,0,,,NaN,,,,,,false,,,,613034,613033,,613032,,612931,8,400,,,
break_continue,html.Screen,4_92_2,2023-08-30T14:55:08.660Z,,0,,,NaN,,,,,,false,,,,613034,613034,,613034,,612931,8,400,,,
sequence,flow.Sequence,4_92,2023-08-30T14:55:08.660Z,,0,,,3169,completion,,,,,false,,,,613034,613034,609848,609971,609865,612931,8,400,,,
trial,html.Screen,4_93_0,2023-08-30T14:55:11.418Z,,0,2,,2860,response,ISIC_7312551.JPG,9,ISIC_0063493.JPG,ISIC_7312551.JPG,false,1,keypress(m),500,615792,615791,612915,613034,612931,615681,8,400,44,,ISIC_0063493.JPG
break,html.Screen,4_93_1,2023-08-30T14:55:11.420Z,,0,,,NaN,,,,,,false,,,,615794,615793,,615792,,615681,8,400,,,
break_continue,html.Screen,4_93_2,2023-08-30T14:55:11.420Z,,0,,,NaN,,,,,,false,,,,615794,615794,,615794,,615681,8,400,,,
sequence,flow.Sequence,4_93,2023-08-30T14:55:11.421Z,,0,,,2863,completion,,,,,false,,,,615794,615794,612915,613034,612931,615681,8,400,,,
trial,html.Screen,4_94_0,2023-08-30T14:55:14.154Z,,0,2,,2847,response,ISIC_8127323.JPG,9,ISIC_0055820.JPG,ISIC_8127323.JPG,false,1,keypress(m),500,618528,618528,615664,615794,615681,618431,8,400,45,,ISIC_0055820.JPG
break,html.Screen,4_94_1,2023-08-30T14:55:14.156Z,,0,,,NaN,,,,,,false,,,,618529,618529,,618529,,618431,8,400,,,
break_continue,html.Screen,4_94_2,2023-08-30T14:55:14.156Z,,0,,,NaN,,,,,,false,,,,618530,618530,,618529,,618431,8,400,,,
sequence,flow.Sequence,4_94,2023-08-30T14:55:14.156Z,,0,,,2849,completion,,,,,false,,,,618530,618530,615664,615794,615681,618431,8,400,,,
trial,html.Screen,4_95_0,2023-08-30T14:55:16.962Z,,0,2,,2904,response,ISIC_0063425.JPG,9,ISIC_0011035.JPG,ISIC_0063425.JPG,false,1,keypress(m),500,621336,621335,618414,618530,618431,621231,8,400,46,,ISIC_0011035.JPG
break,html.Screen,4_95_1,2023-08-30T14:55:16.964Z,,0,,,NaN,,,,,,false,,,,621337,621337,,621337,,621231,8,400,,,
break_continue,html.Screen,4_95_2,2023-08-30T14:55:16.964Z,,0,,,NaN,,,,,,false,,,,621337,621337,,621337,,621231,8,400,,,
sequence,flow.Sequence,4_95,2023-08-30T14:55:16.965Z,,0,,,2906,completion,,,,,false,,,,621338,621337,618414,618530,618431,621231,8,400,,,
trial,html.Screen,4_96_0,2023-08-30T14:55:21.547Z,,0,2,,4689,response,ISIC_0029071.JPG,9,ISIC_6654619.JPG,ISIC_6654619.JPG,false,0,keypress(z),500,625920,625920,621214,621338,621231,625814,8,400,47,,ISIC_0029071.JPG
break,html.Screen,4_96_1,2023-08-30T14:55:21.548Z,,0,,,NaN,,,,,,false,,,,625922,625921,,625920,,625814,8,400,,,
break_continue,html.Screen,4_96_2,2023-08-30T14:55:21.549Z,,0,,,NaN,,,,,,false,,,,625922,625922,,625922,,625814,8,400,,,
sequence,flow.Sequence,4_96,2023-08-30T14:55:21.549Z,,0,,,4691,completion,,,,,false,,,,625922,625922,621214,621338,621231,625814,8,400,,,
trial,html.Screen,4_97_0,2023-08-30T14:55:24.682Z,,0,2,,3241,response,ISIC_5305288.JPG,8,ISIC_6385074.JPG,ISIC_5305288.JPG,false,1,keypress(m),500,629055,629055,625797,625922,625814,628947,8,400,48,,ISIC_6385074.JPG
break,html.Screen,4_97_1,2023-08-30T14:55:24.683Z,,0,,,NaN,,,,,,false,,,,629056,629056,,629055,,628947,8,400,,,
break_continue,html.Screen,4_97_2,2023-08-30T14:55:24.683Z,,0,,,NaN,,,,,,false,,,,629057,629057,,629056,,628947,8,400,,,
sequence,flow.Sequence,4_97,2023-08-30T14:55:24.683Z,,0,,,3243,completion,,,,,false,,,,629057,629057,625797,625922,625814,628947,8,400,,,
trial,html.Screen,4_98_0,2023-08-30T14:55:27.322Z,,0,2,,2748,response,ISIC_0708542.JPG,10,ISIC_0011694.JPG,ISIC_0708542.JPG,false,1,keypress(m),500,631695,631695,628931,629057,628947,631597,8,400,49,,ISIC_0011694.JPG
break,html.Screen,4_98_1,2023-08-30T14:55:27.323Z,,0,,,NaN,,,,,,false,,,,631697,631697,,631695,,631597,8,400,,,
break_continue,html.Screen,4_98_2,2023-08-30T14:55:27.324Z,,0,,,NaN,,,,,,false,,,,631697,631697,,631697,,631597,8,400,,,
sequence,flow.Sequence,4_98,2023-08-30T14:55:27.324Z,,0,,,2750,completion,,,,,false,,,,631698,631697,628931,629057,628947,631597,8,400,,,
trial,html.Screen,4_99_0,2023-08-30T14:55:30.978Z,,0,2,,3754,response,ISIC_0026300.JPG,10,ISIC_0027056.JPG,ISIC_0027056.JPG,false,0,keypress(z),500,635351,635351,631580,631698,631597,635247,8,400,50,,ISIC_0026300.JPG
break,html.Screen,4_99_1,2023-08-30T14:55:35.972Z,,0,,,5000,timeout,,,,,false,,,,640345,640230,635230,635352,635247,640247,8,400,,,
break_continue,html.Screen,4_99_2,2023-08-30T14:56:42.980Z,,0,,,67081,response,,,,,false,continue,keypress(Space),,707353,707328,640230,640345,640247,707244,8,400,,,
sequence,flow.Sequence,4_99,2023-08-30T14:56:42.980Z,,0,,,75731,completion,,,,,false,,,,707353,707328,631580,631698,631597,707244,8,400,,,
trial,html.Screen,4_100_0,2023-08-30T14:56:49.234Z,,0,3,,6364,response,ISIC_6721869.JPG,10,ISIC_4362713.JPG,ISIC_4362713.JPG,false,0,keypress(z),500,713608,713608,707227,707353,707244,713511,8,400,1,,ISIC_6721869.JPG
break,html.Screen,4_100_1,2023-08-30T14:56:49.236Z,,0,,,NaN,,,,,,false,,,,713609,713609,,713608,,713511,8,400,,,
break_continue,html.Screen,4_100_2,2023-08-30T14:56:49.236Z,,0,,,NaN,,,,,,false,,,,713610,713609,,713609,,713511,8,400,,,
sequence,flow.Sequence,4_100,2023-08-30T14:56:49.236Z,,0,,,6365,completion,,,,,false,,,,713610,713609,707227,707353,707244,713511,8,400,,,
trial,html.Screen,4_101_0,2023-08-30T14:56:55.218Z,,0,3,,6080,response,ISIC_8689112.JPG,9,ISIC_0031649.JPG,ISIC_0031649.JPG,false,0,keypress(z),500,719591,719591,713494,713610,713511,719494,8,400,2,,ISIC_8689112.JPG
break,html.Screen,4_101_1,2023-08-30T14:56:55.220Z,,0,,,NaN,,,,,,false,,,,719593,719593,,719592,,719494,8,400,,,
break_continue,html.Screen,4_101_2,2023-08-30T14:56:55.220Z,,0,,,NaN,,,,,,false,,,,719593,719593,,719593,,719494,8,400,,,
sequence,flow.Sequence,4_101,2023-08-30T14:56:55.220Z,,0,,,6082,completion,,,,,false,,,,719594,719593,713494,713610,713511,719494,8,400,,,
trial,html.Screen,4_102_0,2023-08-30T14:56:58.866Z,,0,3,,3745,response,ISIC_0071586.JPG,9,ISIC_0059905.JPG,ISIC_0071586.JPG,false,1,keypress(m),500,723239,723239,719477,719594,719494,723143,8,400,3,,ISIC_0059905.JPG
break,html.Screen,4_102_1,2023-08-30T14:56:58.867Z,,0,,,NaN,,,,,,false,,,,723241,723241,,723240,,723143,8,400,,,
break_continue,html.Screen,4_102_2,2023-08-30T14:56:58.868Z,,0,,,NaN,,,,,,false,,,,723241,723241,,723241,,723143,8,400,,,
sequence,flow.Sequence,4_102,2023-08-30T14:56:58.868Z,,0,,,3747,completion,,,,,false,,,,723241,723241,719477,719594,719494,723143,8,400,,,
trial,html.Screen,4_103_0,2023-08-30T14:57:01.802Z,,0,3,,3032,response,ISIC_0033073.JPG,9,ISIC_8023705.JPG,ISIC_0033073.JPG,false,1,keypress(m),500,726176,726175,723127,723241,723143,726077,8,400,4,,ISIC_8023705.JPG
break,html.Screen,4_103_1,2023-08-30T14:57:01.803Z,,0,,,NaN,,,,,,false,,,,726176,726176,,726176,,726077,8,400,,,
break_continue,html.Screen,4_103_2,2023-08-30T14:57:01.803Z,,0,,,NaN,,,,,,false,,,,726176,726176,,726176,,726077,8,400,,,
sequence,flow.Sequence,4_103,2023-08-30T14:57:01.803Z,,0,,,3033,completion,,,,,false,,,,726177,726176,723127,723241,723143,726077,8,400,,,
trial,html.Screen,4_104_0,2023-08-30T14:57:05.426Z,,0,3,,3722,response,ISIC_0937261.JPG,10,ISIC_0030657.JPG,ISIC_0030657.JPG,false,0,keypress(z),500,729800,729799,726060,726177,726077,729693,8,400,5,,ISIC_0937261.JPG
break,html.Screen,4_104_1,2023-08-30T14:57:05.427Z,,0,,,NaN,,,,,,false,,,,729801,729801,,729800,,729693,8,400,,,
break_continue,html.Screen,4_104_2,2023-08-30T14:57:05.428Z,,0,,,NaN,,,,,,false,,,,729801,729801,,729801,,729693,8,400,,,
sequence,flow.Sequence,4_104,2023-08-30T14:57:05.428Z,,0,,,3724,completion,,,,,false,,,,729801,729801,726060,726177,726077,729693,8,400,,,
trial,html.Screen,4_105_0,2023-08-30T14:57:09.442Z,,0,3,,4122,response,ISIC_2124148.JPG,10,ISIC_4900077.JPG,ISIC_4900077.JPG,false,0,keypress(z),500,733816,733815,729677,729801,729693,733710,8,400,6,,ISIC_2124148.JPG
break,html.Screen,4_105_1,2023-08-30T14:57:09.444Z,,0,,,NaN,,,,,,false,,,,733817,733817,,733816,,733710,8,400,,,
break_continue,html.Screen,4_105_2,2023-08-30T14:57:09.444Z,,0,,,NaN,,,,,,false,,,,733818,733818,,733817,,733710,8,400,,,
sequence,flow.Sequence,4_105,2023-08-30T14:57:09.444Z,,0,,,4125,completion,,,,,false,,,,733818,733818,729677,729801,729693,733710,8,400,,,
trial,html.Screen,4_106_0,2023-08-30T14:57:14.714Z,,0,3,,5378,response,ISIC_3106058.JPG,9,ISIC_0595080.JPG,ISIC_3106058.JPG,false,1,keypress(m),500,739088,739088,733693,733818,733710,738976,8,400,7,,ISIC_0595080.JPG
break,html.Screen,4_106_1,2023-08-30T14:57:14.716Z,,0,,,NaN,,,,,,false,,,,739089,739089,,739088,,738976,8,400,,,
break_continue,html.Screen,4_106_2,2023-08-30T14:57:14.716Z,,0,,,NaN,,,,,,false,,,,739089,739089,,739089,,738976,8,400,,,
sequence,flow.Sequence,4_106,2023-08-30T14:57:14.716Z,,0,,,5379,completion,,,,,false,,,,739090,739089,733693,733818,733710,738976,8,400,,,
trial,html.Screen,4_107_0,2023-08-30T14:57:18.131Z,,0,3,,3527,response,ISIC_0032903.JPG,9,ISIC_9631669.JPG,ISIC_9631669.JPG,false,0,keypress(z),500,742504,742503,738960,739090,738976,742393,8,400,8,,ISIC_0032903.JPG
break,html.Screen,4_107_1,2023-08-30T14:57:18.132Z,,0,,,NaN,,,,,,false,,,,742506,742505,,742504,,742393,8,400,,,
break_continue,html.Screen,4_107_2,2023-08-30T14:57:18.133Z,,0,,,NaN,,,,,,false,,,,742506,742506,,742506,,742393,8,400,,,
sequence,flow.Sequence,4_107,2023-08-30T14:57:18.133Z,,0,,,3530,completion,,,,,false,,,,742507,742506,738960,739090,738976,742393,8,400,,,
trial,html.Screen,4_108_0,2023-08-30T14:57:26.714Z,,0,3,,8695,response,ISIC_6793603.JPG,8,ISIC_0072576.JPG,ISIC_0072576.JPG,false,0,keypress(z),500,751088,751088,742376,742507,742393,750976,8,400,9,,ISIC_6793603.JPG
break,html.Screen,4_108_1,2023-08-30T14:57:26.716Z,,0,,,NaN,,,,,,false,,,,751089,751089,,751088,,750976,8,400,,,
break_continue,html.Screen,4_108_2,2023-08-30T14:57:26.716Z,,0,,,NaN,,,,,,false,,,,751090,751090,,751089,,750976,8,400,,,
sequence,flow.Sequence,4_108,2023-08-30T14:57:26.716Z,,0,,,8697,completion,,,,,false,,,,751090,751090,742376,742507,742393,750976,8,400,,,
trial,html.Screen,4_109_0,2023-08-30T14:57:30.778Z,,0,3,,4175,response,ISIC_0025755.JPG,9,ISIC_0070447.JPG,ISIC_0070447.JPG,false,0,keypress(z),500,755152,755151,750959,751090,750976,755042,8,400,10,,ISIC_0025755.JPG
break,html.Screen,4_109_1,2023-08-30T14:57:30.780Z,,0,,,NaN,,,,,,false,,,,755153,755153,,755152,,755042,8,400,,,
break_continue,html.Screen,4_109_2,2023-08-30T14:57:30.780Z,,0,,,NaN,,,,,,false,,,,755153,755153,,755153,,755042,8,400,,,
sequence,flow.Sequence,4_109,2023-08-30T14:57:30.780Z,,0,,,4177,completion,,,,,false,,,,755154,755153,750959,751090,750976,755042,8,400,,,
trial,html.Screen,4_110_0,2023-08-30T14:57:34.091Z,,0,3,,3422,response,ISIC_0030281.JPG,9,ISIC_8897947.JPG,ISIC_8897947.JPG,false,0,keypress(z),500,758464,758464,755026,755154,755042,758359,8,400,11,,ISIC_0030281.JPG
break,html.Screen,4_110_1,2023-08-30T14:57:34.092Z,,0,,,NaN,,,,,,false,,,,758465,758465,,758464,,758359,8,400,,,
break_continue,html.Screen,4_110_2,2023-08-30T14:57:34.092Z,,0,,,NaN,,,,,,false,,,,758466,758466,,758466,,758359,8,400,,,
sequence,flow.Sequence,4_110,2023-08-30T14:57:34.093Z,,0,,,3424,completion,,,,,false,,,,758466,758466,755026,755154,755042,758359,8,400,,,
trial,html.Screen,4_111_0,2023-08-30T14:57:36.979Z,,0,3,,2992,response,ISIC_0010782.JPG,9,ISIC_6486856.JPG,ISIC_6486856.JPG,false,0,keypress(z),500,761351,761351,758342,758466,758359,761242,8,400,12,,ISIC_0010782.JPG
break,html.Screen,4_111_1,2023-08-30T14:57:36.980Z,,0,,,NaN,,,,,,false,,,,761353,761353,,761352,,761242,8,400,,,
break_continue,html.Screen,4_111_2,2023-08-30T14:57:36.980Z,,0,,,NaN,,,,,,false,,,,761354,761353,,761353,,761242,8,400,,,
sequence,flow.Sequence,4_111,2023-08-30T14:57:36.981Z,,0,,,2994,completion,,,,,false,,,,761354,761353,758342,758466,758359,761242,8,400,,,
trial,html.Screen,4_112_0,2023-08-30T14:57:39.962Z,,0,3,,3093,response,ISIC_9690371.JPG,9,ISIC_0065513.JPG,ISIC_9690371.JPG,false,1,keypress(m),500,764335,764335,761225,761354,761242,764225,8,400,13,,ISIC_0065513.JPG
break,html.Screen,4_112_1,2023-08-30T14:57:39.963Z,,0,,,NaN,,,,,,false,,,,764336,764335,,764335,,764225,8,400,,,
break_continue,html.Screen,4_112_2,2023-08-30T14:57:39.963Z,,0,,,NaN,,,,,,false,,,,764336,764336,,764336,,764225,8,400,,,
sequence,flow.Sequence,4_112,2023-08-30T14:57:39.963Z,,0,,,3094,completion,,,,,false,,,,764336,764336,761225,761354,761242,764225,8,400,,,
trial,html.Screen,4_113_0,2023-08-30T14:57:43.258Z,,0,3,,3406,response,ISIC_5907931.JPG,11,ISIC_3372750.JPG,ISIC_3372750.JPG,false,0,keypress(z),500,767631,767631,764209,764336,764225,767525,8,400,14,,ISIC_5907931.JPG
break,html.Screen,4_113_1,2023-08-30T14:57:43.260Z,,0,,,NaN,,,,,,false,,,,767633,767632,,767632,,767525,8,400,,,
break_continue,html.Screen,4_113_2,2023-08-30T14:57:43.260Z,,0,,,NaN,,,,,,false,,,,767633,767633,,767633,,767525,8,400,,,
sequence,flow.Sequence,4_113,2023-08-30T14:57:43.260Z,,0,,,3408,completion,,,,,false,,,,767633,767633,764209,764336,764225,767525,8,400,,,
trial,html.Screen,4_114_0,2023-08-30T14:57:46.291Z,,0,3,,3139,response,ISIC_6208107.JPG,9,ISIC_0053541.JPG,ISIC_6208107.JPG,false,1,keypress(m),500,770664,770664,767508,767633,767525,770558,8,400,15,,ISIC_0053541.JPG
break,html.Screen,4_114_1,2023-08-30T14:57:46.292Z,,0,,,NaN,,,,,,false,,,,770665,770665,,770665,,770558,8,400,,,
break_continue,html.Screen,4_114_2,2023-08-30T14:57:46.292Z,,0,,,NaN,,,,,,false,,,,770666,770666,,770665,,770558,8,400,,,
sequence,flow.Sequence,4_114,2023-08-30T14:57:46.293Z,,0,,,3141,completion,,,,,false,,,,770666,770666,767508,767633,767525,770558,8,400,,,
trial,html.Screen,4_115_0,2023-08-30T14:57:49.058Z,,0,3,,2874,response,ISIC_0010611.JPG,8,ISIC_0339930.JPG,ISIC_0339930.JPG,false,0,keypress(z),500,773432,773432,770542,770666,770558,773325,8,400,16,,ISIC_0010611.JPG
break,html.Screen,4_115_1,2023-08-30T14:57:49.060Z,,0,,,NaN,,,,,,false,,,,773433,773433,,773432,,773325,8,400,,,
break_continue,html.Screen,4_115_2,2023-08-30T14:57:49.060Z,,0,,,NaN,,,,,,false,,,,773434,773433,,773433,,773325,8,400,,,
sequence,flow.Sequence,4_115,2023-08-30T14:57:49.060Z,,0,,,2875,completion,,,,,false,,,,773434,773433,770542,770666,770558,773325,8,400,,,
trial,html.Screen,4_116_0,2023-08-30T14:57:57.403Z,,0,3,,8451,response,ISIC_0027479.JPG,9,ISIC_6983970.JPG,ISIC_6983970.JPG,false,0,keypress(z),500,781776,781776,773308,773434,773325,781674,8,400,17,,ISIC_0027479.JPG
break,html.Screen,4_116_1,2023-08-30T14:57:57.404Z,,0,,,NaN,,,,,,false,,,,781777,781777,,781776,,781674,8,400,,,
break_continue,html.Screen,4_116_2,2023-08-30T14:57:57.404Z,,0,,,NaN,,,,,,false,,,,781777,781777,,781777,,781674,8,400,,,
sequence,flow.Sequence,4_116,2023-08-30T14:57:57.404Z,,0,,,8452,completion,,,,,false,,,,781778,781777,773308,773434,773325,781674,8,400,,,
trial,html.Screen,4_117_0,2023-08-30T14:58:00.754Z,,0,3,,3454,response,ISIC_1475598.JPG,9,ISIC_4532303.JPG,ISIC_1475598.JPG,false,1,keypress(m),500,785128,785128,781658,781778,781674,785024,8,400,18,,ISIC_4532303.JPG
break,html.Screen,4_117_1,2023-08-30T14:58:00.756Z,,0,,,NaN,,,,,,false,,,,785129,785129,,785129,,785024,8,400,,,
break_continue,html.Screen,4_117_2,2023-08-30T14:58:00.757Z,,0,,,NaN,,,,,,false,,,,785130,785130,,785129,,785024,8,400,,,
sequence,flow.Sequence,4_117,2023-08-30T14:58:00.757Z,,0,,,3456,completion,,,,,false,,,,785130,785130,781658,781778,781674,785024,8,400,,,
trial,html.Screen,4_118_0,2023-08-30T14:58:04.002Z,,0,3,,3352,response,ISIC_0579047.JPG,8,ISIC_0473135.JPG,ISIC_0579047.JPG,false,1,keypress(m),500,788376,788376,785008,785130,785024,788274,8,400,19,,ISIC_0473135.JPG
break,html.Screen,4_118_1,2023-08-30T14:58:04.004Z,,0,,,NaN,,,,,,false,,,,788377,788376,,788376,,788274,8,400,,,
break_continue,html.Screen,4_118_2,2023-08-30T14:58:04.004Z,,0,,,NaN,,,,,,false,,,,788378,788378,,788377,,788274,8,400,,,
sequence,flow.Sequence,4_118,2023-08-30T14:58:04.004Z,,0,,,3354,completion,,,,,false,,,,788378,788378,785008,785130,785024,788274,8,400,,,
trial,html.Screen,4_119_0,2023-08-30T14:58:07.802Z,,0,3,,3902,response,ISIC_0024496.JPG,9,ISIC_0013636.JPG,ISIC_0024496.JPG,false,1,keypress(m),500,792176,792176,788258,788378,788274,792074,8,400,20,,ISIC_0013636.JPG
break,html.Screen,4_119_1,2023-08-30T14:58:07.804Z,,0,,,NaN,,,,,,false,,,,792177,792177,,792176,,792074,8,400,,,
break_continue,html.Screen,4_119_2,2023-08-30T14:58:07.805Z,,0,,,NaN,,,,,,false,,,,792178,792178,,792177,,792074,8,400,,,
sequence,flow.Sequence,4_119,2023-08-30T14:58:07.805Z,,0,,,3904,completion,,,,,false,,,,792178,792178,788258,788378,788274,792074,8,400,,,
trial,html.Screen,4_120_0,2023-08-30T14:58:11.587Z,,0,3,,3885,response,ISIC_2953279.JPG,8,ISIC_0012758.JPG,ISIC_0012758.JPG,false,0,keypress(z),500,795960,795959,792057,792178,792074,795857,8,400,21,,ISIC_2953279.JPG
break,html.Screen,4_120_1,2023-08-30T14:58:11.588Z,,0,,,NaN,,,,,,false,,,,795961,795961,,795961,,795857,8,400,,,
break_continue,html.Screen,4_120_2,2023-08-30T14:58:11.589Z,,0,,,NaN,,,,,,false,,,,795962,795961,,795961,,795857,8,400,,,
sequence,flow.Sequence,4_120,2023-08-30T14:58:11.589Z,,0,,,3887,completion,,,,,false,,,,795962,795961,792057,792178,792074,795857,8,400,,,
trial,html.Screen,4_121_0,2023-08-30T14:58:14.987Z,,0,3,,3502,response,ISIC_0029244.JPG,9,ISIC_9469284.JPG,ISIC_9469284.JPG,false,0,keypress(z),500,799360,799359,795841,795962,795857,799257,8,400,22,,ISIC_0029244.JPG
break,html.Screen,4_121_1,2023-08-30T14:58:14.987Z,,0,,,NaN,,,,,,false,,,,799361,799361,,799360,,799257,8,400,,,
break_continue,html.Screen,4_121_2,2023-08-30T14:58:14.988Z,,0,,,NaN,,,,,,false,,,,799361,799361,,799361,,799257,8,400,,,
sequence,flow.Sequence,4_121,2023-08-30T14:58:14.988Z,,0,,,3504,completion,,,,,false,,,,799361,799361,795841,795962,795857,799257,8,400,,,
trial,html.Screen,4_122_0,2023-08-30T14:58:17.890Z,,0,3,,3006,response,ISIC_0758797.JPG,9,ISIC_3789239.JPG,ISIC_3789239.JPG,false,0,keypress(z),500,802263,802263,799240,799361,799257,802157,8,400,23,,ISIC_0758797.JPG
break,html.Screen,4_122_1,2023-08-30T14:58:17.892Z,,0,,,NaN,,,,,,false,,,,802265,802265,,802264,,802157,8,400,,,
break_continue,html.Screen,4_122_2,2023-08-30T14:58:17.892Z,,0,,,NaN,,,,,,false,,,,802266,802266,,802266,,802157,8,400,,,
sequence,flow.Sequence,4_122,2023-08-30T14:58:17.892Z,,0,,,3009,completion,,,,,false,,,,802266,802266,799240,799361,799257,802157,8,400,,,
trial,html.Screen,4_123_0,2023-08-30T14:58:21.803Z,,0,3,,4019,response,ISIC_0055797.JPG,9,ISIC_0000144.JPG,ISIC_0000144.JPG,false,0,keypress(z),500,806176,806176,802140,802266,802157,806073,8,400,24,,ISIC_0055797.JPG
break,html.Screen,4_123_1,2023-08-30T14:58:21.804Z,,0,,,NaN,,,,,,false,,,,806178,806177,,806176,,806073,8,400,,,
break_continue,html.Screen,4_123_2,2023-08-30T14:58:21.804Z,,0,,,NaN,,,,,,false,,,,806178,806178,,806178,,806073,8,400,,,
sequence,flow.Sequence,4_123,2023-08-30T14:58:21.805Z,,0,,,4021,completion,,,,,false,,,,806178,806178,802140,802266,802157,806073,8,400,,,
trial,html.Screen,4_124_0,2023-08-30T14:58:24.691Z,,0,3,,2991,response,ISIC_0058730.JPG,8,ISIC_3561065.JPG,ISIC_0058730.JPG,false,1,keypress(m),500,809064,809064,806057,806178,806073,808957,8,400,25,,ISIC_3561065.JPG
break,html.Screen,4_124_1,2023-08-30T14:58:24.692Z,,0,,,NaN,,,,,,false,,,,809065,809065,,809064,,808957,8,400,,,
break_continue,html.Screen,4_124_2,2023-08-30T14:58:24.692Z,,0,,,NaN,,,,,,false,,,,809066,809065,,809065,,808957,8,400,,,
sequence,flow.Sequence,4_124,2023-08-30T14:58:24.693Z,,0,,,2992,completion,,,,,false,,,,809066,809065,806057,806178,806073,808957,8,400,,,
trial,html.Screen,4_125_0,2023-08-30T14:58:27.691Z,,0,3,,3106,response,ISIC_0026982.JPG,8,ISIC_0010306.JPG,ISIC_0026982.JPG,false,1,keypress(m),500,812064,812063,808940,809066,808957,811957,8,400,26,,ISIC_0010306.JPG
break,html.Screen,4_125_1,2023-08-30T14:58:27.692Z,,0,,,NaN,,,,,,false,,,,812065,812065,,812064,,811957,8,400,,,
break_continue,html.Screen,4_125_2,2023-08-30T14:58:27.692Z,,0,,,NaN,,,,,,false,,,,812065,812065,,812065,,811957,8,400,,,
sequence,flow.Sequence,4_125,2023-08-30T14:58:27.693Z,,0,,,3108,completion,,,,,false,,,,812066,812065,808940,809066,808957,811957,8,400,,,
trial,html.Screen,4_126_0,2023-08-30T14:58:30.562Z,,0,3,,2978,response,ISIC_4871616.JPG,7,ISIC_0061624.JPG,ISIC_4871616.JPG,false,1,keypress(m),500,814935,814935,811940,812066,811957,814823,8,400,27,,ISIC_0061624.JPG
break,html.Screen,4_126_1,2023-08-30T14:58:30.563Z,,0,,,NaN,,,,,,false,,,,814937,814937,,814936,,814823,8,400,,,
break_continue,html.Screen,4_126_2,2023-08-30T14:58:30.564Z,,0,,,NaN,,,,,,false,,,,814938,814938,,814937,,814823,8,400,,,
sequence,flow.Sequence,4_126,2023-08-30T14:58:30.564Z,,0,,,2981,completion,,,,,false,,,,814938,814938,811940,812066,811957,814823,8,400,,,
trial,html.Screen,4_127_0,2023-08-30T14:58:34.234Z,,0,3,,3784,response,ISIC_0027408.JPG,10,ISIC_0066740.JPG,ISIC_0066740.JPG,false,0,keypress(z),500,818608,818607,814806,814938,814823,818506,8,400,28,,ISIC_0027408.JPG
break,html.Screen,4_127_1,2023-08-30T14:58:34.236Z,,0,,,NaN,,,,,,false,,,,818609,818609,,818608,,818506,8,400,,,
break_continue,html.Screen,4_127_2,2023-08-30T14:58:34.236Z,,0,,,NaN,,,,,,false,,,,818610,818610,,818610,,818506,8,400,,,
sequence,flow.Sequence,4_127,2023-08-30T14:58:34.237Z,,0,,,3787,completion,,,,,false,,,,818610,818610,814806,814938,814823,818506,8,400,,,
trial,html.Screen,4_128_0,2023-08-30T14:58:42.314Z,,0,3,,8181,response,ISIC_0027659.JPG,9,ISIC_4793961.JPG,ISIC_4793961.JPG,false,0,keypress(z),500,826687,826687,818490,818610,818506,826589,8,400,29,,ISIC_0027659.JPG
break,html.Screen,4_128_1,2023-08-30T14:58:42.315Z,,0,,,NaN,,,,,,false,,,,826689,826688,,826687,,826589,8,400,,,
break_continue,html.Screen,4_128_2,2023-08-30T14:58:42.315Z,,0,,,NaN,,,,,,false,,,,826689,826689,,826689,,826589,8,400,,,
sequence,flow.Sequence,4_128,2023-08-30T14:58:42.315Z,,0,,,8183,completion,,,,,false,,,,826689,826689,818490,818610,818506,826589,8,400,,,
trial,html.Screen,4_129_0,2023-08-30T14:58:46.546Z,,0,3,,4330,response,ISIC_0033692.JPG,10,ISIC_0011498.JPG,ISIC_0033692.JPG,false,1,keypress(m),500,830919,830919,826573,826689,826589,830823,8,400,30,,ISIC_0011498.JPG
break,html.Screen,4_129_1,2023-08-30T14:58:46.547Z,,0,,,NaN,,,,,,false,,,,830920,830920,,830920,,830823,8,400,,,
break_continue,html.Screen,4_129_2,2023-08-30T14:58:46.548Z,,0,,,NaN,,,,,,false,,,,830922,830922,,830921,,830823,8,400,,,
sequence,flow.Sequence,4_129,2023-08-30T14:58:46.548Z,,0,,,4333,completion,,,,,false,,,,830922,830922,826573,826689,826589,830823,8,400,,,
trial,html.Screen,4_130_0,2023-08-30T14:58:56.234Z,,0,3,,9784,response,ISIC_6111078.JPG,9,ISIC_7503950.JPG,ISIC_6111078.JPG,false,1,keypress(m),500,840607,840607,830806,830922,830823,840505,8,400,31,,ISIC_7503950.JPG
break,html.Screen,4_130_1,2023-08-30T14:58:56.236Z,,0,,,NaN,,,,,,false,,,,840609,840609,,840608,,840505,8,400,,,
break_continue,html.Screen,4_130_2,2023-08-30T14:58:56.236Z,,0,,,NaN,,,,,,false,,,,840610,840610,,840610,,840505,8,400,,,
sequence,flow.Sequence,4_130,2023-08-30T14:58:56.236Z,,0,,,9787,completion,,,,,false,,,,840610,840610,830806,830922,830823,840505,8,400,,,
trial,html.Screen,4_131_0,2023-08-30T14:58:59.251Z,,0,3,,3119,response,ISIC_0059671.JPG,9,ISIC_5044438.JPG,ISIC_5044438.JPG,false,0,keypress(z),500,843624,843624,840489,840610,840505,843522,8,400,32,,ISIC_0059671.JPG
break,html.Screen,4_131_1,2023-08-30T14:58:59.252Z,,0,,,NaN,,,,,,false,,,,843625,843625,,843624,,843522,8,400,,,
break_continue,html.Screen,4_131_2,2023-08-30T14:58:59.252Z,,0,,,NaN,,,,,,false,,,,843626,843626,,843626,,843522,8,400,,,
sequence,flow.Sequence,4_131,2023-08-30T14:58:59.253Z,,0,,,3121,completion,,,,,false,,,,843626,843626,840489,840610,840505,843522,8,400,,,
trial,html.Screen,4_132_0,2023-08-30T14:59:03.178Z,,0,3,,4029,response,ISIC_0059866.JPG,9,ISIC_0066674.JPG,ISIC_0059866.JPG,false,1,keypress(m),500,847552,847551,843505,843626,843522,847455,8,400,33,,ISIC_0066674.JPG
break,html.Screen,4_132_1,2023-08-30T14:59:03.180Z,,0,,,NaN,,,,,,false,,,,847554,847553,,847552,,847455,8,400,,,
break_continue,html.Screen,4_132_2,2023-08-30T14:59:03.180Z,,0,,,NaN,,,,,,false,,,,847554,847554,,847554,,847455,8,400,,,
sequence,flow.Sequence,4_132,2023-08-30T14:59:03.181Z,,0,,,4032,completion,,,,,false,,,,847554,847554,843505,843626,843522,847455,8,400,,,
trial,html.Screen,4_133_0,2023-08-30T14:59:07.946Z,,0,3,,4864,response,ISIC_4961708.JPG,9,ISIC_0031070.JPG,ISIC_4961708.JPG,false,1,keypress(m),500,852319,852319,847439,847554,847455,852222,8,400,34,,ISIC_0031070.JPG
break,html.Screen,4_133_1,2023-08-30T14:59:07.947Z,,0,,,NaN,,,,,,false,,,,852321,852321,,852319,,852222,8,400,,,
break_continue,html.Screen,4_133_2,2023-08-30T14:59:07.948Z,,0,,,NaN,,,,,,false,,,,852321,852321,,852321,,852222,8,400,,,
sequence,flow.Sequence,4_133,2023-08-30T14:59:07.948Z,,0,,,4866,completion,,,,,false,,,,852321,852321,847439,847554,847455,852222,8,400,,,
trial,html.Screen,4_134_0,2023-08-30T14:59:13.882Z,,0,3,,6033,response,ISIC_0061029.JPG,9,ISIC_0010719.JPG,ISIC_0061029.JPG,false,1,keypress(m),500,858256,858255,852205,852321,852222,858155,8,400,35,,ISIC_0010719.JPG
break,html.Screen,4_134_1,2023-08-30T14:59:13.884Z,,0,,,NaN,,,,,,false,,,,858257,858257,,858256,,858155,8,400,,,
break_continue,html.Screen,4_134_2,2023-08-30T14:59:13.885Z,,0,,,NaN,,,,,,false,,,,858258,858258,,858258,,858155,8,400,,,
sequence,flow.Sequence,4_134,2023-08-30T14:59:13.885Z,,0,,,6036,completion,,,,,false,,,,858258,858258,852205,852321,852222,858155,8,400,,,
trial,html.Screen,4_135_0,2023-08-30T14:59:25.258Z,,0,3,,11366,timeout,ISIC_0015041.JPG,8,ISIC_0011949.JPG,ISIC_0015041.JPG,false,,,500,869631,869631,858138,858258,858155,869521,8,400,36,,ISIC_0011949.JPG
break,html.Screen,4_135_1,2023-08-30T14:59:25.260Z,,0,,,NaN,,,,,,false,,,,869633,869633,,869632,,869521,8,400,,,
break_continue,html.Screen,4_135_2,2023-08-30T14:59:25.260Z,,0,,,NaN,,,,,,false,,,,869634,869633,,869633,,869521,8,400,,,
sequence,flow.Sequence,4_135,2023-08-30T14:59:25.260Z,,0,,,11478,completion,,,,,false,,,,869634,869633,858138,858258,858155,869521,8,400,,,
trial,html.Screen,4_136_0,2023-08-30T14:59:31.338Z,,0,3,,6190,response,ISIC_0031582.JPG,9,ISIC_4434803.JPG,ISIC_0031582.JPG,false,1,keypress(m),500,875712,875711,869504,869634,869521,875604,8,400,37,,ISIC_4434803.JPG
break,html.Screen,4_136_1,2023-08-30T14:59:31.340Z,,0,,,NaN,,,,,,false,,,,875713,875713,,875712,,875604,8,400,,,
break_continue,html.Screen,4_136_2,2023-08-30T14:59:31.340Z,,0,,,NaN,,,,,,false,,,,875713,875713,,875713,,875604,8,400,,,
sequence,flow.Sequence,4_136,2023-08-30T14:59:31.341Z,,0,,,6192,completion,,,,,false,,,,875714,875713,869504,869634,869521,875604,8,400,,,
trial,html.Screen,4_137_0,2023-08-30T14:59:35.810Z,,0,3,,4580,response,ISIC_3288342.JPG,9,ISIC_7507286.JPG,ISIC_3288342.JPG,false,1,keypress(m),500,880184,880184,875587,875714,875604,880087,8,400,38,,ISIC_7507286.JPG
break,html.Screen,4_137_1,2023-08-30T14:59:35.812Z,,0,,,NaN,,,,,,false,,,,880186,880185,,880184,,880087,8,400,,,
break_continue,html.Screen,4_137_2,2023-08-30T14:59:35.812Z,,0,,,NaN,,,,,,false,,,,880186,880186,,880186,,880087,8,400,,,
sequence,flow.Sequence,4_137,2023-08-30T14:59:35.812Z,,0,,,4582,completion,,,,,false,,,,880186,880186,875587,875714,875604,880087,8,400,,,
trial,html.Screen,4_138_0,2023-08-30T14:59:38.946Z,,0,3,,3232,response,ISIC_0030552.JPG,9,ISIC_0013777.JPG,ISIC_0013777.JPG,false,0,keypress(z),500,883319,883319,880071,880186,880087,883220,8,400,39,,ISIC_0030552.JPG
break,html.Screen,4_138_1,2023-08-30T14:59:38.947Z,,0,,,NaN,,,,,,false,,,,883321,883320,,883319,,883220,8,400,,,
break_continue,html.Screen,4_138_2,2023-08-30T14:59:38.948Z,,0,,,NaN,,,,,,false,,,,883322,883322,,883321,,883220,8,400,,,
sequence,flow.Sequence,4_138,2023-08-30T14:59:38.948Z,,0,,,3235,completion,,,,,false,,,,883322,883322,880071,880186,880087,883220,8,400,,,
trial,html.Screen,4_139_0,2023-08-30T14:59:44.035Z,,0,3,,5187,response,ISIC_5363229.JPG,9,ISIC_0026392.JPG,ISIC_5363229.JPG,false,1,keypress(m),500,888408,888407,883204,883322,883220,888304,8,400,40,,ISIC_0026392.JPG
break,html.Screen,4_139_1,2023-08-30T14:59:44.036Z,,0,,,NaN,,,,,,false,,,,888410,888409,,888409,,888304,8,400,,,
break_continue,html.Screen,4_139_2,2023-08-30T14:59:44.036Z,,0,,,NaN,,,,,,false,,,,888410,888410,,888410,,888304,8,400,,,
sequence,flow.Sequence,4_139,2023-08-30T14:59:44.037Z,,0,,,5190,completion,,,,,false,,,,888410,888410,883204,883322,883220,888304,8,400,,,
trial,html.Screen,4_140_0,2023-08-30T14:59:46.810Z,,0,3,,2879,response,ISIC_0000046.JPG,9,ISIC_8433608.JPG,ISIC_8433608.JPG,false,0,keypress(z),500,891183,891183,888287,888410,888304,891087,8,400,41,,ISIC_0000046.JPG
break,html.Screen,4_140_1,2023-08-30T14:59:46.812Z,,0,,,NaN,,,,,,false,,,,891185,891185,,891184,,891087,8,400,,,
break_continue,html.Screen,4_140_2,2023-08-30T14:59:46.812Z,,0,,,NaN,,,,,,false,,,,891186,891185,,891185,,891087,8,400,,,
sequence,flow.Sequence,4_140,2023-08-30T14:59:46.813Z,,0,,,2881,completion,,,,,false,,,,891186,891185,888287,888410,888304,891087,8,400,,,
trial,html.Screen,4_141_0,2023-08-30T14:59:49.954Z,,0,3,,3240,response,ISIC_0065260.JPG,9,ISIC_4780727.JPG,ISIC_4780727.JPG,false,0,keypress(z),500,894327,894327,891070,891186,891087,894220,8,400,42,,ISIC_0065260.JPG
break,html.Screen,4_141_1,2023-08-30T14:59:49.956Z,,0,,,NaN,,,,,,false,,,,894329,894329,,894328,,894220,8,400,,,
break_continue,html.Screen,4_141_2,2023-08-30T14:59:49.956Z,,0,,,NaN,,,,,,false,,,,894330,894330,,894329,,894220,8,400,,,
sequence,flow.Sequence,4_141,2023-08-30T14:59:49.956Z,,0,,,3243,completion,,,,,false,,,,894330,894330,891070,891186,891087,894220,8,400,,,
trial,html.Screen,4_142_0,2023-08-30T14:59:53.026Z,,0,3,,3180,response,ISIC_0000239.JPG,9,ISIC_0010653.JPG,ISIC_0000239.JPG,false,1,keypress(m),500,897400,897400,894203,894330,894220,897303,8,400,43,,ISIC_0010653.JPG
break,html.Screen,4_142_1,2023-08-30T14:59:53.028Z,,0,,,NaN,,,,,,false,,,,897401,897401,,897400,,897303,8,400,,,
break_continue,html.Screen,4_142_2,2023-08-30T14:59:53.028Z,,0,,,NaN,,,,,,false,,,,897402,897402,,897402,,897303,8,400,,,
sequence,flow.Sequence,4_142,2023-08-30T14:59:53.028Z,,0,,,3182,completion,,,,,false,,,,897402,897402,894203,894330,894220,897303,8,400,,,
trial,html.Screen,4_143_0,2023-08-30T14:59:56.642Z,,0,3,,3713,response,ISIC_7875959.JPG,9,ISIC_0066476.JPG,ISIC_7875959.JPG,false,1,keypress(m),500,901016,901016,897287,897402,897303,900903,8,400,44,,ISIC_0066476.JPG
break,html.Screen,4_143_1,2023-08-30T14:59:56.643Z,,0,,,NaN,,,,,,false,,,,901016,901016,,901016,,900903,8,400,,,
break_continue,html.Screen,4_143_2,2023-08-30T14:59:56.643Z,,0,,,NaN,,,,,,false,,,,901016,901016,,901016,,900903,8,400,,,
sequence,flow.Sequence,4_143,2023-08-30T14:59:56.643Z,,0,,,3713,completion,,,,,false,,,,901016,901016,897287,897402,897303,900903,8,400,,,
trial,html.Screen,4_144_0,2023-08-30T14:59:59.874Z,,0,3,,3344,response,ISIC_0011752.JPG,11,ISIC_0872145.JPG,ISIC_0872145.JPG,false,0,keypress(z),500,904247,904247,900886,901016,900903,904136,8,400,45,,ISIC_0011752.JPG
break,html.Screen,4_144_1,2023-08-30T14:59:59.875Z,,0,,,NaN,,,,,,false,,,,904248,904248,,904247,,904136,8,400,,,
break_continue,html.Screen,4_144_2,2023-08-30T14:59:59.875Z,,0,,,NaN,,,,,,false,,,,904248,904248,,904248,,904136,8,400,,,
sequence,flow.Sequence,4_144,2023-08-30T14:59:59.875Z,,0,,,3345,completion,,,,,false,,,,904248,904248,900886,901016,900903,904136,8,400,,,
trial,html.Screen,4_145_0,2023-08-30T15:00:02.770Z,,0,3,,3007,response,ISIC_0033696.JPG,11,ISIC_2151856.JPG,ISIC_0033696.JPG,false,1,keypress(m),500,907144,907143,904120,904248,904136,907036,8,400,46,,ISIC_2151856.JPG
break,html.Screen,4_145_1,2023-08-30T15:00:02.771Z,,0,,,NaN,,,,,,false,,,,907144,907144,,907144,,907036,8,400,,,
break_continue,html.Screen,4_145_2,2023-08-30T15:00:02.771Z,,0,,,NaN,,,,,,false,,,,907144,907144,,907144,,907036,8,400,,,
sequence,flow.Sequence,4_145,2023-08-30T15:00:02.771Z,,0,,,3008,completion,,,,,false,,,,907144,907144,904120,904248,904136,907036,8,400,,,
trial,html.Screen,4_146_0,2023-08-30T15:00:07.115Z,,0,3,,4451,response,ISIC_4393521.JPG,11,ISIC_2365588.JPG,ISIC_2365588.JPG,false,0,keypress(z),500,911488,911487,907019,907144,907036,911386,8,400,47,,ISIC_4393521.JPG
break,html.Screen,4_146_1,2023-08-30T15:00:07.116Z,,0,,,NaN,,,,,,false,,,,911489,911489,,911489,,911386,8,400,,,
break_continue,html.Screen,4_146_2,2023-08-30T15:00:07.116Z,,0,,,NaN,,,,,,false,,,,911489,911489,,911489,,911386,8,400,,,
sequence,flow.Sequence,4_146,2023-08-30T15:00:07.117Z,,0,,,4453,completion,,,,,false,,,,911490,911489,907019,907144,907036,911386,8,400,,,
trial,html.Screen,4_147_0,2023-08-30T15:00:10.538Z,,0,3,,3525,response,ISIC_7246852.JPG,8,ISIC_4568425.JPG,ISIC_4568425.JPG,false,0,keypress(z),500,914912,914911,911369,911491,911386,914802,8,400,48,,ISIC_7246852.JPG
break,html.Screen,4_147_1,2023-08-30T15:00:10.540Z,,0,,,NaN,,,,,,false,,,,914913,914913,,914912,,914802,8,400,,,
break_continue,html.Screen,4_147_2,2023-08-30T15:00:10.540Z,,0,,,NaN,,,,,,false,,,,914914,914913,,914913,,914802,8,400,,,
sequence,flow.Sequence,4_147,2023-08-30T15:00:10.540Z,,0,,,3527,completion,,,,,false,,,,914914,914913,911369,911490,911386,914802,8,400,,,
trial,html.Screen,4_148_0,2023-08-30T15:00:13.490Z,,0,3,,3061,response,ISIC_0071740.JPG,9,ISIC_3886458.JPG,ISIC_3886458.JPG,false,0,keypress(z),500,917863,917863,914786,914914,914802,917752,8,400,49,,ISIC_0071740.JPG
break,html.Screen,4_148_1,2023-08-30T15:00:13.492Z,,0,,,NaN,,,,,,false,,,,917865,917865,,917864,,917752,8,400,,,
break_continue,html.Screen,4_148_2,2023-08-30T15:00:13.492Z,,0,,,NaN,,,,,,false,,,,917865,917865,,917865,,917752,8,400,,,
sequence,flow.Sequence,4_148,2023-08-30T15:00:13.493Z,,0,,,3063,completion,,,,,false,,,,917866,917865,914786,914914,914802,917752,8,400,,,
trial,html.Screen,4_149_0,2023-08-30T15:00:17.083Z,,0,3,,3703,response,ISIC_3000569.JPG,9,ISIC_8257549.JPG,ISIC_8257549.JPG,false,0,keypress(z),500,921456,921455,917736,917866,917752,921352,8,400,50,,ISIC_3000569.JPG
break,html.Screen,4_149_1,2023-08-30T15:00:22.078Z,,0,,,5000,timeout,,,,,false,,,,926450,926335,921336,921456,921352,926352,8,400,,,
break_continue,html.Screen,4_149_2,2023-08-30T15:00:52.074Z,,0,,,30072,response,,,,,false,continue,keypress(Space),,956447,956424,926335,926452,926352,956334,8,400,,,
sequence,flow.Sequence,4_149,2023-08-30T15:00:52.074Z,,0,,,38672,completion,,,,,false,,,,956447,956424,917736,917866,917752,956334,8,400,,,
trial,html.Screen,4_150_0,2023-08-30T15:00:55.922Z,,0,4,,3962,response,ISIC_9449365.JPG,12,ISIC_0010068.JPG,ISIC_9449365.JPG,false,1,keypress(m),500,960296,960296,956317,956447,956334,960184,8,400,1,,ISIC_0010068.JPG
break,html.Screen,4_150_1,2023-08-30T15:00:55.924Z,,0,,,NaN,,,,,,false,,,,960297,960297,,960296,,960184,8,400,,,
break_continue,html.Screen,4_150_2,2023-08-30T15:00:55.924Z,,0,,,NaN,,,,,,false,,,,960298,960298,,960297,,960184,8,400,,,
sequence,flow.Sequence,4_150,2023-08-30T15:00:55.924Z,,0,,,3964,completion,,,,,false,,,,960298,960298,956317,956447,956334,960184,8,400,,,
trial,html.Screen,4_151_0,2023-08-30T15:00:59.314Z,,0,4,,3503,response,ISIC_0072195.JPG,9,ISIC_9072309.JPG,ISIC_9072309.JPG,false,0,keypress(z),500,963687,963687,960167,960298,960184,963584,8,400,2,,ISIC_0072195.JPG
break,html.Screen,4_151_1,2023-08-30T15:00:59.316Z,,0,,,NaN,,,,,,false,,,,963689,963688,,963688,,963584,8,400,,,
break_continue,html.Screen,4_151_2,2023-08-30T15:00:59.316Z,,0,,,NaN,,,,,,false,,,,963690,963690,,963689,,963584,8,400,,,
sequence,flow.Sequence,4_151,2023-08-30T15:00:59.316Z,,0,,,3506,completion,,,,,false,,,,963690,963690,960167,960298,960184,963584,8,400,,,
trial,html.Screen,4_152_0,2023-08-30T15:01:02.066Z,,0,4,,2855,response,ISIC_0030150.JPG,9,ISIC_7335659.JPG,ISIC_7335659.JPG,false,0,keypress(z),500,966439,966439,963567,963690,963584,966334,8,400,3,,ISIC_0030150.JPG
break,html.Screen,4_152_1,2023-08-30T15:01:02.068Z,,0,,,NaN,,,,,,false,,,,966441,966441,,966439,,966334,8,400,,,
break_continue,html.Screen,4_152_2,2023-08-30T15:01:02.068Z,,0,,,NaN,,,,,,false,,,,966441,966441,,966441,,966334,8,400,,,
sequence,flow.Sequence,4_152,2023-08-30T15:01:02.068Z,,0,,,2857,completion,,,,,false,,,,966441,966441,963567,963690,963584,966334,8,400,,,
trial,html.Screen,4_153_0,2023-08-30T15:01:06.378Z,,0,4,,4417,response,ISIC_0010295.JPG,9,ISIC_0054317.JPG,ISIC_0010295.JPG,false,1,keypress(m),500,970751,970751,966317,966442,966334,970650,8,400,4,,ISIC_0054317.JPG
break,html.Screen,4_153_1,2023-08-30T15:01:06.380Z,,0,,,NaN,,,,,,false,,,,970752,970752,,970752,,970650,8,400,,,
break_continue,html.Screen,4_153_2,2023-08-30T15:01:06.380Z,,0,,,NaN,,,,,,false,,,,970754,970754,,970753,,970650,8,400,,,
sequence,flow.Sequence,4_153,2023-08-30T15:01:06.380Z,,0,,,4420,completion,,,,,false,,,,970754,970754,966317,966442,966334,970650,8,400,,,
trial,html.Screen,4_154_0,2023-08-30T15:01:09.194Z,,0,4,,2917,response,ISIC_3564136.JPG,9,ISIC_0066750.JPG,ISIC_3564136.JPG,false,1,keypress(m),500,973568,973567,970634,970754,970650,973467,8,400,5,,ISIC_0066750.JPG
break,html.Screen,4_154_1,2023-08-30T15:01:09.196Z,,0,,,NaN,,,,,,false,,,,973569,973569,,973568,,973467,8,400,,,
break_continue,html.Screen,4_154_2,2023-08-30T15:01:09.196Z,,0,,,NaN,,,,,,false,,,,973570,973570,,973569,,973467,8,400,,,
sequence,flow.Sequence,4_154,2023-08-30T15:01:09.196Z,,0,,,2920,completion,,,,,false,,,,973570,973570,970634,970754,970650,973467,8,400,,,
trial,html.Screen,4_155_0,2023-08-30T15:01:12.930Z,,0,4,,3836,response,ISIC_0014423.JPG,9,ISIC_0028467.JPG,ISIC_0028467.JPG,false,0,keypress(z),500,977304,977303,973450,973570,973467,977200,8,400,6,,ISIC_0014423.JPG
break,html.Screen,4_155_1,2023-08-30T15:01:12.932Z,,0,,,NaN,,,,,,false,,,,977305,977305,,977304,,977200,8,400,,,
break_continue,html.Screen,4_155_2,2023-08-30T15:01:12.932Z,,0,,,NaN,,,,,,false,,,,977306,977306,,977305,,977200,8,400,,,
sequence,flow.Sequence,4_155,2023-08-30T15:01:12.932Z,,0,,,3839,completion,,,,,false,,,,977306,977306,973450,973570,973467,977200,8,400,,,
trial,html.Screen,4_156_0,2023-08-30T15:01:16.259Z,,0,4,,3431,response,ISIC_0032671.JPG,9,ISIC_0000173.JPG,ISIC_0032671.JPG,false,1,keypress(m),500,980632,980631,977183,977306,977200,980533,8,400,7,,ISIC_0000173.JPG
break,html.Screen,4_156_1,2023-08-30T15:01:16.260Z,,0,,,NaN,,,,,,false,,,,980633,980633,,980633,,980533,8,400,,,
break_continue,html.Screen,4_156_2,2023-08-30T15:01:16.260Z,,0,,,NaN,,,,,,false,,,,980634,980634,,980633,,980533,8,400,,,
sequence,flow.Sequence,4_156,2023-08-30T15:01:16.261Z,,0,,,3434,completion,,,,,false,,,,980634,980634,977183,977306,977200,980533,8,400,,,
trial,html.Screen,4_157_0,2023-08-30T15:01:22.491Z,,0,4,,6330,response,ISIC_0698821.JPG,9,ISIC_0033164.JPG,ISIC_0698821.JPG,false,1,keypress(m),500,986864,986863,980517,980634,980533,986766,8,400,8,,ISIC_0033164.JPG
break,html.Screen,4_157_1,2023-08-30T15:01:22.492Z,,0,,,NaN,,,,,,false,,,,986866,986865,,986864,,986766,8,400,,,
break_continue,html.Screen,4_157_2,2023-08-30T15:01:22.493Z,,0,,,NaN,,,,,,false,,,,986866,986866,,986866,,986766,8,400,,,
sequence,flow.Sequence,4_157,2023-08-30T15:01:22.493Z,,0,,,6333,completion,,,,,false,,,,986866,986866,980517,980634,980533,986766,8,400,,,
trial,html.Screen,4_158_0,2023-08-30T15:01:26.186Z,,0,4,,3793,response,ISIC_0034074.JPG,8,ISIC_9317483.JPG,ISIC_0034074.JPG,false,1,keypress(m),500,990560,990559,986750,986866,986766,990449,8,400,9,,ISIC_9317483.JPG
break,html.Screen,4_158_1,2023-08-30T15:01:26.188Z,,0,,,NaN,,,,,,false,,,,990562,990561,,990560,,990449,8,400,,,
break_continue,html.Screen,4_158_2,2023-08-30T15:01:26.188Z,,0,,,NaN,,,,,,false,,,,990562,990562,,990562,,990449,8,400,,,
sequence,flow.Sequence,4_158,2023-08-30T15:01:26.189Z,,0,,,3796,completion,,,,,false,,,,990562,990562,986750,986866,986766,990449,8,400,,,
trial,html.Screen,4_159_0,2023-08-30T15:01:28.867Z,,0,4,,2791,response,ISIC_0011696.JPG,9,ISIC_0058186.JPG,ISIC_0058186.JPG,false,0,keypress(z),500,993240,993240,990433,990562,990449,993133,8,400,10,,ISIC_0011696.JPG
break,html.Screen,4_159_1,2023-08-30T15:01:28.868Z,,0,,,NaN,,,,,,false,,,,993241,993241,,993241,,993133,8,400,,,
break_continue,html.Screen,4_159_2,2023-08-30T15:01:28.868Z,,0,,,NaN,,,,,,false,,,,993241,993241,,993241,,993133,8,400,,,
sequence,flow.Sequence,4_159,2023-08-30T15:01:28.869Z,,0,,,2792,completion,,,,,false,,,,993242,993241,990433,990562,990449,993133,8,400,,,
trial,html.Screen,4_160_0,2023-08-30T15:01:32.666Z,,0,4,,3906,response,ISIC_0011209.JPG,9,ISIC_8785329.JPG,ISIC_8785329.JPG,false,0,keypress(z),500,997039,997039,993116,993242,993133,996933,8,400,11,,ISIC_0011209.JPG
break,html.Screen,4_160_1,2023-08-30T15:01:32.667Z,,0,,,NaN,,,,,,false,,,,997040,997040,,997040,,996933,8,400,,,
break_continue,html.Screen,4_160_2,2023-08-30T15:01:32.668Z,,0,,,NaN,,,,,,false,,,,997041,997041,,997041,,996933,8,400,,,
sequence,flow.Sequence,4_160,2023-08-30T15:01:32.668Z,,0,,,3908,completion,,,,,false,,,,997041,997041,993116,993242,993133,996933,8,400,,,
trial,html.Screen,4_161_0,2023-08-30T15:01:35.763Z,,0,4,,3203,response,ISIC_0014290.JPG,10,ISIC_1037945.JPG,ISIC_1037945.JPG,false,0,keypress(z),500,1000136,1000136,996916,997041,996933,1000032,8,400,12,,ISIC_0014290.JPG
break,html.Screen,4_161_1,2023-08-30T15:01:35.764Z,,0,,,NaN,,,,,,false,,,,1000137,1000137,,1000136,,1000032,8,400,,,
break_continue,html.Screen,4_161_2,2023-08-30T15:01:35.765Z,,0,,,NaN,,,,,,false,,,,1000138,1000138,,1000138,,1000032,8,400,,,
sequence,flow.Sequence,4_161,2023-08-30T15:01:35.765Z,,0,,,3205,completion,,,,,false,,,,1000138,1000138,996916,997041,996933,1000032,8,400,,,
trial,html.Screen,4_162_0,2023-08-30T15:01:38.922Z,,0,4,,3263,response,ISIC_5101111.JPG,8,ISIC_0056679.JPG,ISIC_5101111.JPG,false,1,keypress(m),500,1003296,1003295,1000016,1000138,1000032,1003199,8,400,13,,ISIC_0056679.JPG
break,html.Screen,4_162_1,2023-08-30T15:01:38.924Z,,0,,,NaN,,,,,,false,,,,1003297,1003296,,1003296,,1003199,8,400,,,
break_continue,html.Screen,4_162_2,2023-08-30T15:01:38.924Z,,0,,,NaN,,,,,,false,,,,1003297,1003297,,1003297,,1003199,8,400,,,
sequence,flow.Sequence,4_162,2023-08-30T15:01:38.925Z,,0,,,3265,completion,,,,,false,,,,1003298,1003297,1000016,1000138,1000032,1003199,8,400,,,
trial,html.Screen,4_163_0,2023-08-30T15:01:42.171Z,,0,4,,3345,response,ISIC_3392433.JPG,8,ISIC_0058950.JPG,ISIC_3392433.JPG,false,1,keypress(m),500,1006544,1006544,1003182,1003298,1003199,1006432,8,400,14,,ISIC_0058950.JPG
break,html.Screen,4_163_1,2023-08-30T15:01:42.172Z,,0,,,NaN,,,,,,false,,,,1006546,1006546,,1006545,,1006432,8,400,,,
