sender,sender_type,sender_id,timestamp,meta,,blockNo,condition,duration,ended_on,img_left,img_reveal,img_right,loser,practice,response,response_action,selection_duration,time_commit,time_end,time_render,time_run,time_show,time_switch,total_blocks,total_trials,trialNo,url,winner
informed_consent,html.Screen,0,2023-09-12T00:35:46.541Z,"{""labjs_version"":""20.2.4"",""labjs_build"":{""flavor"":""development"",""commit"":""f5b4a49f956347addd546a832a3327688c2c0fef""},""location"":""https://labjs.felixhenninger.com/api/labjs_preview/index.html"",""userAgent"":""Mozilla/5.0 (Windows NT 10.0; Win64; x64) AppleWebKit/537.36 (KHTML, like Gecko) Chrome/116.0.0.0 Safari/537.36"",""platform"":""Win32"",""language"":""en-AU"",""locale"":""en-US"",""timeZone"":""America/Chicago"",""timezoneOffset"":300,""screen_width"":1680,""screen_height"":1050,""scroll_width"":1296,""scroll_height"":688,""window_innerWidth"":1296,""window_innerHeight"":736,""devicePixelRatio"":1}",,,,102139.56699980926,response,,,,,,consent,click button,,102722.19999980927,102721.19999980927,564.938,575.6999998092651,581.633,102747.134,,,,{},
Welcome,html.Screen,1,2023-09-12T00:35:46.702Z,,,,symmetry,135.9659999046271,response,,,,,,continue,click button,,102883.69999980927,102883.09999990463,102730.437,102722.5,102747.134,102897.345,,,,,
trial,html.Screen,2_0_0,2023-09-12T00:35:53.394Z,,0,0,,6678.254999904631,response,ISIC_6997061.JPG,,ISIC_0069348.JPG,ISIC_0069348.JPG,true,0,keypress(z),500,109575.80000019073,109575.59999990463,102880.776,102883.90000009537,102897.345,109577.011,1,6,1,,ISIC_6997061.JPG
sequence,flow.Sequence,2_0,2023-09-12T00:35:53.395Z,,0,,,6678.254999904631,completion,,,,,true,,,,109576,109575.59999990463,102880.776,102883.90000009537,102897.345,109577.011,1,6,,,
trial,html.Screen,2_1_0,2023-09-12T00:35:56.947Z,,0,0,,3551.7890001907363,response,ISIC_0057368.JPG,,ISIC_0009529.JPG,ISIC_0009529.JPG,true,0,keypress(z),500,113129,113128.80000019073,109560.389,109576.09999990463,109577.011,113133.885,1,6,2,,ISIC_0057368.JPG
sequence,flow.Sequence,2_1,2023-09-12T00:35:56.948Z,,0,,,3551.7890001907363,completion,,,,,true,,,,113129.09999990463,113128.80000019073,109560.389,109576.09999990463,109577.011,113133.885,1,6,,,
trial,html.Screen,2_2_0,2023-09-12T00:36:01.398Z,,0,0,,4444.91500019074,response,ISIC_9758671.JPG,,ISIC_0064954.JPG,ISIC_0064954.JPG,true,0,keypress(z),500,117579.09999990463,117578.80000019073,113117.217,113129.30000019073,113133.885,117592.65,1,6,3,,ISIC_9758671.JPG
sequence,flow.Sequence,2_2,2023-09-12T00:36:01.398Z,,0,,,4444.91500019074,completion,,,,,true,,,,117579.5,117578.80000019073,113117.217,113129.30000019073,113133.885,117592.65,1,6,,,
trial,html.Screen,2_3_0,2023-09-12T00:36:05.561Z,,0,0,,4149.650000190741,response,ISIC_0000080.JPG,,ISIC_0005785.JPG,ISIC_0005785.JPG,true,0,keypress(z),500,121742.40000009537,121742.30000019073,117575.877,117579.90000009537,117592.65,121750.684,1,6,4,,ISIC_0000080.JPG
sequence,flow.Sequence,2_3,2023-09-12T00:36:05.561Z,,0,,,4149.650000190741,completion,,,,,true,,,,121742.59999990463,121742.30000019073,117575.877,117579.80000019073,117592.65,121750.684,1,6,,,
trial,html.Screen,2_4_0,2023-09-12T00:36:09.355Z,,0,0,,3785.5159998092713,response,ISIC_7944028.JPG,,ISIC_5390060.JPG,ISIC_5390060.JPG,true,0,keypress(z),500,125536.59999990463,125536.19999980927,121734.121,121742.69999980927,121750.684,125541.403,1,6,5,,ISIC_7944028.JPG
sequence,flow.Sequence,2_4,2023-09-12T00:36:09.355Z,,0,,,3785.5159998092713,completion,,,,,true,,,,125536.80000019073,125536.19999980927,121734.121,121742.69999980927,121750.684,125541.403,1,6,,,
trial,html.Screen,2_5_0,2023-09-12T00:36:12.958Z,,0,0,,3598.2969998092594,response,ISIC_0010188.JPG,,ISIC_0794216.JPG,ISIC_0010188.JPG,true,1,keypress(m),500,129139.90000009537,129139.69999980927,125524.87,125537,125541.403,129148.443,1,6,6,,ISIC_0794216.JPG
sequence,flow.Sequence,2_5,2023-09-12T00:36:12.959Z,,0,,,3598.2969998092594,completion,,,,,true,,,,129140.19999980927,129139.69999980927,125524.87,125537,125541.403,129148.443,1,6,,,
loop,flow.Loop,2,2023-09-12T00:36:12.959Z,,,,,26242.354999809264,completion,,,,,true,,,,129140.40000009537,129139.69999980927,102880.776,102883.90000009537,102897.345,129148.443,1,6,,,
exp_instructions,html.Screen,3,2023-09-12T00:36:20.118Z,,,,,7151.156999904633,response,,,,,,continue,keypress(Space),,136299.90000009537,136299.59999990463,129131.782,129140.5,129148.443,136329.058,,,,,
trial,html.Screen,4_0_0,2023-09-12T00:36:26.047Z,,0,1,,5899.641999809275,response,ISIC_0030597.JPG,4,ISIC_0071508.JPG,ISIC_0030597.JPG,false,1,keypress(m),500,142228.80000019073,142228.69999980927,136312.316,136300.09999990463,136329.058,142240.625,8,400,1,,ISIC_0071508.JPG
break,html.Screen,4_0_1,2023-09-12T00:36:26.048Z,,0,,,NaN,,,,,,false,,,,142229.30000019073,142229.19999980927,,142228.90000009537,,142240.625,8,400,,,
break_continue,html.Screen,4_0_2,2023-09-12T00:36:26.048Z,,0,,,NaN,,,,,,false,,,,142229.59999990463,142229.5,,142229.40000009537,,142240.625,8,400,,,
sequence,flow.Sequence,4_0,2023-09-12T00:36:26.048Z,,0,,,5900.44200000001,completion,,,,,false,,,,142229.59999990463,142229.5,136312.316,136300.09999990463,136329.058,142240.625,8,400,,,
trial,html.Screen,4_1_0,2023-09-12T00:36:31.430Z,,0,1,,5370.775000095367,response,ISIC_0032413.JPG,4,ISIC_0064014.JPG,ISIC_0032413.JPG,false,1,keypress(m),500,147611.69999980927,147611.40000009537,142223.939,142229.59999990463,142240.625,147617.778,8,400,2,,ISIC_0064014.JPG
break,html.Screen,4_1_1,2023-09-12T00:36:31.432Z,,0,,,NaN,,,,,,false,,,,147613.09999990463,147612.69999980927,,147612,,147617.778,8,400,,,
break_continue,html.Screen,4_1_2,2023-09-12T00:36:31.432Z,,0,,,NaN,,,,,,false,,,,147613.69999980927,147613.59999990463,,147613.30000019073,,147617.778,8,400,,,
sequence,flow.Sequence,4_1,2023-09-12T00:36:31.433Z,,0,,,5372.974999904633,completion,,,,,false,,,,147614,147613.59999990463,142223.939,142229.59999990463,142240.625,147617.778,8,400,,,
trial,html.Screen,4_2_0,2023-09-12T00:36:36.460Z,,0,1,,5023.522000190744,response,ISIC_0069264.JPG,5,ISIC_6620377.JPG,ISIC_0069264.JPG,false,1,keypress(m),500,152641.5,152641.30000019073,147601.06,147614.30000019073,147617.778,152644.17,8,400,3,,ISIC_6620377.JPG
break,html.Screen,4_2_1,2023-09-12T00:36:36.461Z,,0,,,NaN,,,,,,false,,,,152642.59999990463,152642.40000009537,,152641.80000019073,,152644.17,8,400,,,
break_continue,html.Screen,4_2_2,2023-09-12T00:36:36.461Z,,0,,,NaN,,,,,,false,,,,152643.09999990463,152642.90000009537,,152642.69999980927,,152644.17,8,400,,,
sequence,flow.Sequence,4_2,2023-09-12T00:36:36.462Z,,0,,,5025.122000095376,completion,,,,,false,,,,152643.09999990463,152642.90000009537,147601.06,147614.19999980927,147617.778,152644.17,8,400,,,
trial,html.Screen,4_3_0,2023-09-12T00:36:40.982Z,,0,1,,4518.730000095355,response,ISIC_0059905.JPG,5,ISIC_0067226.JPG,ISIC_0059905.JPG,false,1,keypress(m),500,157163,157162.90000009537,152627.483,152643.30000019073,152644.17,157169.667,8,400,4,,ISIC_0067226.JPG
break,html.Screen,4_3_1,2023-09-12T00:36:40.982Z,,0,,,NaN,,,,,,false,,,,157163.80000019073,157163.59999990463,,157163.19999980927,,157169.667,8,400,,,
break_continue,html.Screen,4_3_2,2023-09-12T00:36:40.983Z,,0,,,NaN,,,,,,false,,,,157164.09999990463,157164,,157163.90000009537,,157169.667,8,400,,,
sequence,flow.Sequence,4_3,2023-09-12T00:36:40.983Z,,0,,,4519.829999999987,completion,,,,,false,,,,157164.19999980927,157164,152627.483,152643.30000019073,152644.17,157169.667,8,400,,,
trial,html.Screen,4_4_0,2023-09-12T00:36:45.672Z,,0,1,,4683.633000190748,response,ISIC_8253317.JPG,5,ISIC_0783513.JPG,ISIC_8253317.JPG,false,1,keypress(m),500,161853.5,161853.30000019073,157152.914,157164.30000019073,157169.667,161862.17,8,400,5,,ISIC_0783513.JPG
break,html.Screen,4_4_1,2023-09-12T00:36:45.672Z,,0,,,NaN,,,,,,false,,,,161853.90000009537,161853.69999980927,,161853.59999990463,,161862.17,8,400,,,
break_continue,html.Screen,4_4_2,2023-09-12T00:36:45.672Z,,0,,,NaN,,,,,,false,,,,161854,161854,,161853.90000009537,,161862.17,8,400,,,
sequence,flow.Sequence,4_4,2023-09-12T00:36:45.673Z,,0,,,4684.333000000013,completion,,,,,false,,,,161854.09999990463,161854,157152.914,157164.30000019073,157169.667,161862.17,8,400,,,
trial,html.Screen,4_5_0,2023-09-12T00:36:50.458Z,,0,1,,4777.42999990462,response,ISIC_2463014.JPG,5,ISIC_0033517.JPG,ISIC_0033517.JPG,false,0,keypress(z),500,166639.69999980927,166639.59999990463,161845.386,161854.09999990463,161862.17,166654.789,8,400,6,,ISIC_2463014.JPG
break,html.Screen,4_5_1,2023-09-12T00:36:50.459Z,,0,,,NaN,,,,,,false,,,,166640.40000009537,166640.19999980927,,166639.80000019073,,166654.789,8,400,,,
break_continue,html.Screen,4_5_2,2023-09-12T00:36:50.459Z,,0,,,NaN,,,,,,false,,,,166640.69999980927,166640.69999980927,,166640.59999990463,,166654.789,8,400,,,
sequence,flow.Sequence,4_5,2023-09-12T00:36:50.459Z,,0,,,4778.529999809252,completion,,,,,false,,,,166640.80000019073,166640.69999980927,161845.386,161854.09999990463,161862.17,166654.789,8,400,,,
trial,html.Screen,4_6_0,2023-09-12T00:36:55.220Z,,0,1,,4746.21100000001,response,ISIC_1504257.JPG,4,ISIC_2513018.JPG,ISIC_2513018.JPG,false,0,keypress(z),500,171401.19999980927,171401,166638.053,166641,166654.789,171414.164,8,400,7,,ISIC_1504257.JPG
break,html.Screen,4_6_1,2023-09-12T00:36:55.220Z,,0,,,NaN,,,,,,false,,,,171401.69999980927,171401.5,,171401.30000019073,,171414.164,8,400,,,
break_continue,html.Screen,4_6_2,2023-09-12T00:36:55.220Z,,0,,,NaN,,,,,,false,,,,171401.80000019073,171401.80000019073,,171401.80000019073,,171414.164,8,400,,,
sequence,flow.Sequence,4_6,2023-09-12T00:36:55.221Z,,0,,,4747.011000190745,completion,,,,,false,,,,171402.09999990463,171401.80000019073,166638.053,166640.90000009537,166654.789,171414.164,8,400,,,
trial,html.Screen,4_7_0,2023-09-12T00:36:59.975Z,,0,1,,4741.636000190745,response,ISIC_4642695.JPG,5,ISIC_1937197.JPG,ISIC_4642695.JPG,false,1,keypress(m),500,176156,176155.80000019073,171397.442,171402.09999990463,171414.164,176173.332,8,400,8,,ISIC_1937197.JPG
break,html.Screen,4_7_1,2023-09-12T00:36:59.975Z,,0,,,NaN,,,,,,false,,,,176156.80000019073,176156.30000019073,,176156.09999990463,,176173.332,8,400,,,
break_continue,html.Screen,4_7_2,2023-09-12T00:36:59.976Z,,0,,,NaN,,,,,,false,,,,176157.09999990463,176157.09999990463,,176156.90000009537,,176173.332,8,400,,,
sequence,flow.Sequence,4_7,2023-09-12T00:36:59.976Z,,0,,,4742.935999904643,completion,,,,,false,,,,176157.30000019073,176157.09999990463,171397.442,171402.09999990463,171414.164,176173.332,8,400,,,
trial,html.Screen,4_8_0,2023-09-12T00:37:04.302Z,,0,1,,4309.668000000005,response,ISIC_7171090.JPG,5,ISIC_0054185.JPG,ISIC_0054185.JPG,false,0,keypress(z),500,180483.19999980927,180483,176156.531,176157.40000009537,176173.332,180498.382,8,400,9,,ISIC_7171090.JPG
break,html.Screen,4_8_1,2023-09-12T00:37:04.303Z,,0,,,NaN,,,,,,false,,,,180483.90000009537,180483.5,,180483.30000019073,,180498.382,8,400,,,
break_continue,html.Screen,4_8_2,2023-09-12T00:37:04.303Z,,0,,,NaN,,,,,,false,,,,180484.30000019073,180484.19999980927,,180484,,180498.382,8,400,,,
sequence,flow.Sequence,4_8,2023-09-12T00:37:04.303Z,,0,,,4310.86799980927,completion,,,,,false,,,,180484.30000019073,180484.19999980927,176156.531,176157.30000019073,176173.332,180498.382,8,400,,,
trial,html.Screen,4_9_0,2023-09-12T00:37:11.057Z,,0,1,,6739.4180001907225,response,ISIC_0026470.JPG,5,ISIC_8249565.JPG,ISIC_0026470.JPG,false,1,keypress(m),500,187238,187237.80000019073,180481.676,180484.40000009537,180498.382,187244.793,8,400,10,,ISIC_8249565.JPG
break,html.Screen,4_9_1,2023-09-12T00:37:11.057Z,,0,,,NaN,,,,,,false,,,,187238.5,187238.30000019073,,187238.09999990463,,187244.793,8,400,,,
break_continue,html.Screen,4_9_2,2023-09-12T00:37:11.057Z,,0,,,NaN,,,,,,false,,,,187238.59999990463,187238.59999990463,,187238.5,,187244.793,8,400,,,
sequence,flow.Sequence,4_9,2023-09-12T00:37:11.057Z,,0,,,6740.21799990462,completion,,,,,false,,,,187238.69999980927,187238.59999990463,180481.676,180484.40000009537,180498.382,187244.793,8,400,,,
trial,html.Screen,4_10_0,2023-09-12T00:37:16.531Z,,0,1,,5467.00700019073,response,ISIC_9302863.JPG,5,ISIC_5367118.JPG,ISIC_9302863.JPG,false,1,keypress(m),500,192712,192711.80000019073,187228.137,187238.80000019073,187244.793,192722.139,8,400,11,,ISIC_5367118.JPG
break,html.Screen,4_10_1,2023-09-12T00:37:16.531Z,,0,,,NaN,,,,,,false,,,,192712.40000009537,192712.30000019073,,192712,,192722.139,8,400,,,
break_continue,html.Screen,4_10_2,2023-09-12T00:37:16.531Z,,0,,,NaN,,,,,,false,,,,192712.59999990463,192712.59999990463,,192712.40000009537,,192722.139,8,400,,,
sequence,flow.Sequence,4_10,2023-09-12T00:37:16.531Z,,0,,,5467.806999904627,completion,,,,,false,,,,192712.69999980927,192712.59999990463,187228.137,187238.69999980927,187244.793,192722.139,8,400,,,
trial,html.Screen,4_11_0,2023-09-12T00:37:22.982Z,,0,1,,6440.661000190739,response,ISIC_0000031.JPG,5,ISIC_3253098.JPG,ISIC_0000031.JPG,false,1,keypress(m),500,199163.09999990463,199162.80000019073,192705.446,192712.69999980927,192722.139,199168.017,8,400,12,,ISIC_3253098.JPG
break,html.Screen,4_11_1,2023-09-12T00:37:22.982Z,,0,,,NaN,,,,,,false,,,,199163.90000009537,199163.59999990463,,199163.19999980927,,199168.017,8,400,,,
break_continue,html.Screen,4_11_2,2023-09-12T00:37:22.983Z,,0,,,NaN,,,,,,false,,,,199164.09999990463,199164,,199163.90000009537,,199168.017,8,400,,,
sequence,flow.Sequence,4_11,2023-09-12T00:37:22.983Z,,0,,,6441.861000000004,completion,,,,,false,,,,199164.19999980927,199164,192705.446,192712.69999980927,192722.139,199168.017,8,400,,,
trial,html.Screen,4_12_0,2023-09-12T00:37:28.745Z,,0,1,,5757.783000190742,response,ISIC_2513933.JPG,5,ISIC_7748144.JPG,ISIC_2513933.JPG,false,1,keypress(m),500,204926,204925.80000019073,199151.387,199164.19999980927,199168.017,204929.229,8,400,13,,ISIC_7748144.JPG
break,html.Screen,4_12_1,2023-09-12T00:37:28.746Z,,0,,,NaN,,,,,,false,,,,204926.90000009537,204926.69999980927,,204926.19999980927,,204929.229,8,400,,,
break_continue,html.Screen,4_12_2,2023-09-12T00:37:28.746Z,,0,,,NaN,,,,,,false,,,,204927.30000019073,204927.19999980927,,204927.09999990463,,204929.229,8,400,,,
sequence,flow.Sequence,4_12,2023-09-12T00:37:28.746Z,,0,,,5759.182999809273,completion,,,,,false,,,,204927.5,204927.19999980927,199151.387,199164.19999980927,199168.017,204929.229,8,400,,,
trial,html.Screen,4_13_0,2023-09-12T00:37:34.076Z,,0,1,,5327.8709999046405,response,ISIC_8666446.JPG,6,ISIC_4966148.JPG,ISIC_8666446.JPG,false,1,keypress(m),500,210257.19999980927,210257.09999990463,204912.495,204927.69999980927,204929.229,210272.97,8,400,14,,ISIC_4966148.JPG
break,html.Screen,4_13_1,2023-09-12T00:37:34.076Z,,0,,,NaN,,,,,,false,,,,210257.59999990463,210257.5,,210257.30000019073,,210272.97,8,400,,,
break_continue,html.Screen,4_13_2,2023-09-12T00:37:34.076Z,,0,,,NaN,,,,,,false,,,,210257.80000019073,210257.69999980927,,210257.69999980927,,210272.97,8,400,,,
sequence,flow.Sequence,4_13,2023-09-12T00:37:34.077Z,,0,,,5328.470999809273,completion,,,,,false,,,,210257.90000009537,210257.69999980927,204912.495,204927.5,204929.229,210272.97,8,400,,,
trial,html.Screen,4_14_0,2023-09-12T00:37:39.782Z,,0,1,,5690.330000190734,response,ISIC_0519386.JPG,6,ISIC_9406755.JPG,ISIC_9406755.JPG,false,0,keypress(z),500,215963.40000009537,215963.30000019073,210256.323,210258,210272.97,215967.346,8,400,15,,ISIC_0519386.JPG
break,html.Screen,4_14_1,2023-09-12T00:37:39.783Z,,0,,,NaN,,,,,,false,,,,215964.5,215964,,215963.59999990463,,215967.346,8,400,,,
break_continue,html.Screen,4_14_2,2023-09-12T00:37:39.783Z,,0,,,NaN,,,,,,false,,,,215964.80000019073,215964.69999980927,,215964.59999990463,,215967.346,8,400,,,
sequence,flow.Sequence,4_14,2023-09-12T00:37:39.784Z,,0,,,5691.729999809264,completion,,,,,false,,,,215964.90000009537,215964.69999980927,210256.323,210258,210272.97,215967.346,8,400,,,
trial,html.Screen,4_15_0,2023-09-12T00:37:45.274Z,,0,1,,5487.454000190744,response,ISIC_7835257.JPG,5,ISIC_5017874.JPG,ISIC_5017874.JPG,false,0,keypress(z),500,221455,221454.80000019073,215950.751,215965.09999990463,215967.346,221461.377,8,400,16,,ISIC_7835257.JPG
break,html.Screen,4_15_1,2023-09-12T00:37:45.274Z,,0,,,NaN,,,,,,false,,,,221455.69999980927,221455.40000009537,,221455.09999990463,,221461.377,8,400,,,
break_continue,html.Screen,4_15_2,2023-09-12T00:37:45.275Z,,0,,,NaN,,,,,,false,,,,221456.09999990463,221456,,221455.80000019073,,221461.377,8,400,,,
sequence,flow.Sequence,4_15,2023-09-12T00:37:45.275Z,,0,,,5488.65400000001,completion,,,,,false,,,,221456.19999980927,221456,215950.751,215965.09999990463,215967.346,221461.377,8,400,,,
trial,html.Screen,4_16_0,2023-09-12T00:37:51.651Z,,0,1,,6370.222999904625,response,ISIC_0003132.JPG,5,ISIC_0013499.JPG,ISIC_0003132.JPG,false,1,keypress(m),500,227831.80000019073,227831.59999990463,221444.844,221456.30000019073,221461.377,227840.475,8,400,17,,ISIC_0013499.JPG
break,html.Screen,4_16_1,2023-09-12T00:37:51.652Z,,0,,,NaN,,,,,,false,,,,227832.40000009537,227832.19999980927,,227831.90000009537,,227840.475,8,400,,,
break_continue,html.Screen,4_16_2,2023-09-12T00:37:51.652Z,,0,,,NaN,,,,,,false,,,,227832.59999990463,227832.59999990463,,227832.40000009537,,227840.475,8,400,,,
sequence,flow.Sequence,4_16,2023-09-12T00:37:51.652Z,,0,,,6371.222999904625,completion,,,,,false,,,,227832.69999980927,227832.59999990463,221444.844,221456.30000019073,221461.377,227840.475,8,400,,,
trial,html.Screen,4_17_0,2023-09-12T00:37:57.733Z,,0,1,,6073.224999809259,response,ISIC_9473492.JPG,5,ISIC_0034188.JPG,ISIC_9473492.JPG,false,1,keypress(m),500,233913.80000019073,233913.69999980927,227823.816,227832.69999980927,227840.475,233919.025,8,400,18,,ISIC_0034188.JPG
break,html.Screen,4_17_1,2023-09-12T00:37:57.734Z,,0,,,NaN,,,,,,false,,,,233914.30000019073,233914.09999990463,,233913.80000019073,,233919.025,8,400,,,
break_continue,html.Screen,4_17_2,2023-09-12T00:37:57.734Z,,0,,,NaN,,,,,,false,,,,233914.40000009537,233914.30000019073,,233914.30000019073,,233919.025,8,400,,,
sequence,flow.Sequence,4_17,2023-09-12T00:37:57.734Z,,0,,,6073.825000190729,completion,,,,,false,,,,233914.5,233914.30000019073,227823.816,227832.69999980927,227840.475,233919.025,8,400,,,
trial,html.Screen,4_18_0,2023-09-12T00:38:02.456Z,,0,1,,4717.775000190741,response,ISIC_0029086.JPG,5,ISIC_0054568.JPG,ISIC_0029086.JPG,false,1,keypress(m),500,238636.90000009537,238636.80000019073,233902.21,233914.5,233919.025,238644.804,8,400,19,,ISIC_0054568.JPG
break,html.Screen,4_18_1,2023-09-12T00:38:02.457Z,,0,,,NaN,,,,,,false,,,,238637.80000019073,238637.5,,238637.19999980927,,238644.804,8,400,,,
break_continue,html.Screen,4_18_2,2023-09-12T00:38:02.457Z,,0,,,NaN,,,,,,false,,,,238638.09999990463,238638,,238637.90000009537,,238644.804,8,400,,,
sequence,flow.Sequence,4_18,2023-09-12T00:38:02.458Z,,0,,,4718.975000000006,completion,,,,,false,,,,238638.19999980927,238638,233902.21,233914.5,233919.025,238644.804,8,400,,,
trial,html.Screen,4_19_0,2023-09-12T00:38:08.942Z,,0,1,,6477.496000190731,response,ISIC_9713706.JPG,5,ISIC_0046635.JPG,ISIC_9713706.JPG,false,1,keypress(m),500,245122.5,245122.30000019073,238628.199,238638.30000019073,238644.804,245124.083,8,400,20,,ISIC_0046635.JPG
break,html.Screen,4_19_1,2023-09-12T00:38:08.942Z,,0,,,NaN,,,,,,false,,,,245122.90000009537,245122.80000019073,,245122.59999990463,,245124.083,8,400,,,
break_continue,html.Screen,4_19_2,2023-09-12T00:38:08.942Z,,0,,,NaN,,,,,,false,,,,245123.09999990463,245123,,245123,,245124.083,8,400,,,
sequence,flow.Sequence,4_19,2023-09-12T00:38:08.942Z,,0,,,6478.195999999996,completion,,,,,false,,,,245123.19999980927,245123,238628.199,238638.30000019073,238644.804,245124.083,8,400,,,
trial,html.Screen,4_20_0,2023-09-12T00:38:14.646Z,,0,1,,5702.516999904619,response,ISIC_0029686.JPG,5,ISIC_8798059.JPG,ISIC_8798059.JPG,false,0,keypress(z),500,250826.80000019073,250826.59999990463,245107.452,245123.19999980927,245124.083,250835.181,8,400,21,,ISIC_0029686.JPG
break,html.Screen,4_20_1,2023-09-12T00:38:14.647Z,,0,,,NaN,,,,,,false,,,,250827.30000019073,250827.09999990463,,250826.90000009537,,250835.181,8,400,,,
break_continue,html.Screen,4_20_2,2023-09-12T00:38:14.647Z,,0,,,NaN,,,,,,false,,,,250827.5,250827.5,,250827.40000009537,,250835.181,8,400,,,
sequence,flow.Sequence,4_20,2023-09-12T00:38:14.647Z,,0,,,5703.416999999987,completion,,,,,false,,,,250827.69999980927,250827.5,245107.452,245123.19999980927,245124.083,250835.181,8,400,,,
trial,html.Screen,4_21_0,2023-09-12T00:38:19.434Z,,0,1,,4778.918999904621,response,ISIC_0003664.JPG,5,ISIC_5555140.JPG,ISIC_0003664.JPG,false,1,keypress(m),500,255614.19999980927,255614.09999990463,250818.51,250827.69999980927,250835.181,255627.888,8,400,22,,ISIC_5555140.JPG
break,html.Screen,4_21_1,2023-09-12T00:38:19.434Z,,0,,,NaN,,,,,,false,,,,255614.69999980927,255614.5,,255614.40000009537,,255627.888,8,400,,,
break_continue,html.Screen,4_21_2,2023-09-12T00:38:19.434Z,,0,,,NaN,,,,,,false,,,,255614.80000019073,255614.80000019073,,255614.69999980927,,255627.888,8,400,,,
sequence,flow.Sequence,4_21,2023-09-12T00:38:19.434Z,,0,,,4779.619000190723,completion,,,,,false,,,,255615,255614.80000019073,250818.51,250827.69999980927,250835.181,255627.888,8,400,,,
trial,html.Screen,4_22_0,2023-09-12T00:38:25.103Z,,0,1,,5655.611999999994,response,ISIC_3552245.JPG,4,ISIC_5852396.JPG,ISIC_3552245.JPG,false,1,keypress(m),500,261283.59999990463,261283.5,255611.234,255615,255627.888,261288.872,8,400,23,,ISIC_5852396.JPG
break,html.Screen,4_22_1,2023-09-12T00:38:25.103Z,,0,,,NaN,,,,,,false,,,,261284.09999990463,261284,,261283.80000019073,,261288.872,8,400,,,
break_continue,html.Screen,4_22_2,2023-09-12T00:38:25.104Z,,0,,,NaN,,,,,,false,,,,261284.30000019073,261284.30000019073,,261284.19999980927,,261288.872,8,400,,,
sequence,flow.Sequence,4_22,2023-09-12T00:38:25.104Z,,0,,,5656.412000190729,completion,,,,,false,,,,261284.40000009537,261284.30000019073,255611.234,255615,255627.888,261288.872,8,400,,,
trial,html.Screen,4_23_0,2023-09-12T00:38:30.929Z,,0,1,,5820.7279999046295,response,ISIC_0059686.JPG,4,ISIC_7937065.JPG,ISIC_0059686.JPG,false,1,keypress(m),500,267109.80000019073,267109.59999990463,261272.139,261284.5,261288.872,267117.007,8,400,24,,ISIC_7937065.JPG
break,html.Screen,4_23_1,2023-09-12T00:38:30.930Z,,0,,,NaN,,,,,,false,,,,267110.30000019073,267110.09999990463,,267109.80000019073,,267117.007,8,400,,,
break_continue,html.Screen,4_23_2,2023-09-12T00:38:30.930Z,,0,,,NaN,,,,,,false,,,,267110.59999990463,267110.5,,267110.40000009537,,267117.007,8,400,,,
sequence,flow.Sequence,4_23,2023-09-12T00:38:30.930Z,,0,,,5821.627999999997,completion,,,,,false,,,,267110.69999980927,267110.5,261272.139,261284.5,261288.872,267117.007,8,400,,,
trial,html.Screen,4_24_0,2023-09-12T00:38:36.308Z,,0,1,,5371.192999809282,response,ISIC_0025464.JPG,7,ISIC_0032823.JPG,ISIC_0032823.JPG,false,0,keypress(z),500,272488.40000009537,272488.19999980927,267100.197,267110.80000019073,267117.007,272494.041,8,400,25,,ISIC_0025464.JPG
break,html.Screen,4_24_1,2023-09-12T00:38:36.308Z,,0,,,NaN,,,,,,false,,,,272489,272488.80000019073,,272488.5,,272494.041,8,400,,,
break_continue,html.Screen,4_24_2,2023-09-12T00:38:36.308Z,,0,,,NaN,,,,,,false,,,,272489.19999980927,272489.09999990463,,272489,,272494.041,8,400,,,
sequence,flow.Sequence,4_24,2023-09-12T00:38:36.309Z,,0,,,5372.092999904649,completion,,,,,false,,,,272489.30000019073,272489.09999990463,267100.197,267110.80000019073,267117.007,272494.041,8,400,,,
trial,html.Screen,4_25_0,2023-09-12T00:38:41.053Z,,0,1,,4739.158999809239,response,ISIC_6913272.JPG,5,ISIC_3688362.JPG,ISIC_6913272.JPG,false,1,keypress(m),500,277233.40000009537,277233.19999980927,272477.347,272489.40000009537,272494.041,277236.65,8,400,26,,ISIC_3688362.JPG
break,html.Screen,4_25_1,2023-09-12T00:38:41.053Z,,0,,,NaN,,,,,,false,,,,277234.09999990463,277233.90000009537,,277233.5,,277236.65,8,400,,,
break_continue,html.Screen,4_25_2,2023-09-12T00:38:41.054Z,,0,,,NaN,,,,,,false,,,,277234.30000019073,277234.30000019073,,277234.09999990463,,277236.65,8,400,,,
sequence,flow.Sequence,4_25,2023-09-12T00:38:41.054Z,,0,,,4740.259000190708,completion,,,,,false,,,,277234.40000009537,277234.30000019073,272477.347,272489.30000019073,272494.041,277236.65,8,400,,,
trial,html.Screen,4_26_0,2023-09-12T00:38:46.278Z,,0,1,,5221.849999999977,response,ISIC_0061941.JPG,5,ISIC_0056425.JPG,ISIC_0061941.JPG,false,1,keypress(m),500,282458.69999980927,282458.5,277220.047,277234.59999990463,277236.65,282480.142,8,400,27,,ISIC_0056425.JPG
break,html.Screen,4_26_1,2023-09-12T00:38:46.279Z,,0,,,NaN,,,,,,false,,,,282459.5,282459.30000019073,,282458.90000009537,,282480.142,8,400,,,
break_continue,html.Screen,4_26_2,2023-09-12T00:38:46.279Z,,0,,,NaN,,,,,,false,,,,282460,282459.80000019073,,282459.69999980927,,282480.142,8,400,,,
sequence,flow.Sequence,4_26,2023-09-12T00:38:46.279Z,,0,,,5223.150000190712,completion,,,,,false,,,,282460.09999990463,282459.80000019073,277220.047,277234.59999990463,277236.65,282480.142,8,400,,,
trial,html.Screen,4_27_0,2023-09-12T00:38:52.505Z,,0,1,,6205.45799990464,response,ISIC_0030995.JPG,6,ISIC_0070679.JPG,ISIC_0030995.JPG,false,1,keypress(m),500,288685.69999980927,288685.59999990463,282463.455,282460.30000019073,282480.142,288692.202,8,400,28,,ISIC_0070679.JPG
break,html.Screen,4_27_1,2023-09-12T00:38:52.506Z,,0,,,NaN,,,,,,false,,,,288686.30000019073,288686.09999990463,,288685.90000009537,,288692.202,8,400,,,
break_continue,html.Screen,4_27_2,2023-09-12T00:38:52.506Z,,0,,,NaN,,,,,,false,,,,288686.5,288686.40000009537,,288686.30000019073,,288692.202,8,400,,,
sequence,flow.Sequence,4_27,2023-09-12T00:38:52.506Z,,0,,,6206.258000095375,completion,,,,,false,,,,288686.59999990463,288686.40000009537,282463.455,282460.19999980927,282480.142,288692.202,8,400,,,
trial,html.Screen,4_28_0,2023-09-12T00:38:58.587Z,,0,1,,6075.397999904642,response,ISIC_8073555.JPG,5,ISIC_0025409.JPG,ISIC_8073555.JPG,false,1,keypress(m),500,294767.80000019073,294767.59999990463,288675.553,288686.59999990463,288692.202,294770.721,8,400,29,,ISIC_0025409.JPG
break,html.Screen,4_28_1,2023-09-12T00:38:58.588Z,,0,,,NaN,,,,,,false,,,,294768.40000009537,294768.30000019073,,294767.90000009537,,294770.721,8,400,,,
break_continue,html.Screen,4_28_2,2023-09-12T00:38:58.588Z,,0,,,NaN,,,,,,false,,,,294768.69999980927,294768.69999980927,,294768.5,,294770.721,8,400,,,
sequence,flow.Sequence,4_28,2023-09-12T00:38:58.589Z,,0,,,6076.497999809275,completion,,,,,false,,,,294768.90000009537,294768.69999980927,288675.553,288686.59999990463,288692.202,294770.721,8,400,,,
trial,html.Screen,4_29_0,2023-09-12T00:39:03.216Z,,0,1,,4624.878999904613,response,ISIC_0593591.JPG,5,ISIC_5994007.JPG,ISIC_0593591.JPG,false,1,keypress(m),500,299395.80000019073,299395.59999990463,294754.016,294769,294770.721,299413.074,8,400,30,,ISIC_5994007.JPG
break,html.Screen,4_29_1,2023-09-12T00:39:03.217Z,,0,,,NaN,,,,,,false,,,,299396.90000009537,299396.59999990463,,299396.09999990463,,299413.074,8,400,,,
break_continue,html.Screen,4_29_2,2023-09-12T00:39:03.217Z,,0,,,NaN,,,,,,false,,,,299397.5,299397.30000019073,,299397.09999990463,,299413.074,8,400,,,
sequence,flow.Sequence,4_29,2023-09-12T00:39:03.217Z,,0,,,4626.579000190715,completion,,,,,false,,,,299397.59999990463,299397.30000019073,294754.016,294769,294770.721,299413.074,8,400,,,
trial,html.Screen,4_30_0,2023-09-12T00:39:07.844Z,,0,1,,4611.125999809243,response,ISIC_8545097.JPG,5,ISIC_0006116.JPG,ISIC_0006116.JPG,false,0,keypress(z),500,304024.30000019073,304024.19999980927,299396.395,299397.80000019073,299413.074,304038.756,8,400,31,,ISIC_8545097.JPG
break,html.Screen,4_30_1,2023-09-12T00:39:07.844Z,,0,,,NaN,,,,,,false,,,,304024.80000019073,304024.69999980927,,304024.5,,304038.756,8,400,,,
break_continue,html.Screen,4_30_2,2023-09-12T00:39:07.845Z,,0,,,NaN,,,,,,false,,,,304025,304025,,304024.90000009537,,304038.756,8,400,,,
sequence,flow.Sequence,4_30,2023-09-12T00:39:07.845Z,,0,,,4611.925999999978,completion,,,,,false,,,,304025,304025,299396.395,299397.80000019073,299413.074,304038.756,8,400,,,
trial,html.Screen,4_31_0,2023-09-12T00:39:13.383Z,,0,1,,5524.1440000953735,response,ISIC_0060659.JPG,4,ISIC_0029716.JPG,ISIC_0060659.JPG,false,1,keypress(m),500,309563,309562.90000009537,304022.067,304025,304038.756,309566.185,8,400,32,,ISIC_0029716.JPG
break,html.Screen,4_31_1,2023-09-12T00:39:13.383Z,,0,,,NaN,,,,,,false,,,,309563.5,309563.40000009537,,309563.19999980927,,309566.185,8,400,,,
break_continue,html.Screen,4_31_2,2023-09-12T00:39:13.384Z,,0,,,NaN,,,,,,false,,,,309563.90000009537,309563.80000019073,,309563.59999990463,,309566.185,8,400,,,
sequence,flow.Sequence,4_31,2023-09-12T00:39:13.384Z,,0,,,5525.044000190741,completion,,,,,false,,,,309564,309563.80000019073,304022.067,304025,304038.756,309566.185,8,400,,,
trial,html.Screen,4_32_0,2023-09-12T00:39:18.537Z,,0,1,,5150.815000000002,response,ISIC_0678758.JPG,5,ISIC_0011434.JPG,ISIC_0011434.JPG,false,0,keypress(z),500,314717.09999990463,314717,309549.658,309564.09999990463,309566.185,314726.275,8,400,33,,ISIC_0678758.JPG
break,html.Screen,4_32_1,2023-09-12T00:39:18.537Z,,0,,,NaN,,,,,,false,,,,314717.69999980927,314717.5,,314717.19999980927,,314726.275,8,400,,,
break_continue,html.Screen,4_32_2,2023-09-12T00:39:18.538Z,,0,,,NaN,,,,,,false,,,,314718.09999990463,314718,,314717.80000019073,,314726.275,8,400,,,
sequence,flow.Sequence,4_32,2023-09-12T00:39:18.538Z,,0,,,5151.815000000002,completion,,,,,false,,,,314718.19999980927,314718,309549.658,309564.09999990463,309566.185,314726.275,8,400,,,
trial,html.Screen,4_33_0,2023-09-12T00:39:22.828Z,,0,1,,4282.125000095344,response,ISIC_0025217.JPG,6,ISIC_9622250.JPG,ISIC_0025217.JPG,false,1,keypress(m),500,319008.5,319008.40000009537,314709.589,314718.30000019073,314726.275,319017.873,8,400,34,,ISIC_9622250.JPG
break,html.Screen,4_33_1,2023-09-12T00:39:22.829Z,,0,,,NaN,,,,,,false,,,,319009,319008.90000009537,,319008.59999990463,,319017.873,8,400,,,
break_continue,html.Screen,4_33_2,2023-09-12T00:39:22.829Z,,0,,,NaN,,,,,,false,,,,319009.09999990463,319009.09999990463,,319009,,319017.873,8,400,,,
sequence,flow.Sequence,4_33,2023-09-12T00:39:22.829Z,,0,,,4282.824999904609,completion,,,,,false,,,,319009.19999980927,319009.09999990463,314709.589,314718.30000019073,314726.275,319017.873,8,400,,,
trial,html.Screen,4_34_0,2023-09-12T00:39:28.465Z,,0,1,,5627.027000095346,response,ISIC_0046672.JPG,5,ISIC_0064034.JPG,ISIC_0046672.JPG,false,1,keypress(m),500,324645,324644.90000009537,319001.185,319009.30000019073,319017.873,324662.186,8,400,35,,ISIC_0064034.JPG
break,html.Screen,4_34_1,2023-09-12T00:39:28.465Z,,0,,,NaN,,,,,,false,,,,324645.59999990463,324645.40000009537,,324645.09999990463,,324662.186,8,400,,,
break_continue,html.Screen,4_34_2,2023-09-12T00:39:28.466Z,,0,,,NaN,,,,,,false,,,,324646,324646,,324645.80000019073,,324662.186,8,400,,,
sequence,flow.Sequence,4_34,2023-09-12T00:39:28.466Z,,0,,,5628.126999999979,completion,,,,,false,,,,324646.09999990463,324646,319001.185,319009.30000019073,319017.873,324662.186,8,400,,,
trial,html.Screen,4_35_0,2023-09-12T00:39:34.026Z,,0,1,,5544.2140000953805,response,ISIC_0032226.JPG,5,ISIC_0032797.JPG,ISIC_0032797.JPG,false,0,keypress(z),500,330206.5,330206.40000009537,324645.539,324646.09999990463,324662.186,330239.902,8,400,36,,ISIC_0032226.JPG
break,html.Screen,4_35_1,2023-09-12T00:39:34.027Z,,0,,,NaN,,,,,,false,,,,330207,330206.80000019073,,330206.59999990463,,330239.902,8,400,,,
break_continue,html.Screen,4_35_2,2023-09-12T00:39:34.027Z,,0,,,NaN,,,,,,false,,,,330207.19999980927,330207.19999980927,,330207.09999990463,,330239.902,8,400,,,
sequence,flow.Sequence,4_35,2023-09-12T00:39:34.027Z,,0,,,5545.013999809278,completion,,,,,false,,,,330207.30000019073,330207.19999980927,324645.539,324646.09999990463,324662.186,330239.902,8,400,,,
trial,html.Screen,4_36_0,2023-09-12T00:39:38.669Z,,0,1,,4608.898000190733,response,ISIC_1436929.JPG,5,ISIC_7518524.JPG,ISIC_1436929.JPG,false,1,keypress(m),500,334848.90000009537,334848.80000019073,330223.022,330207.30000019073,330239.902,334865.44,8,400,37,,ISIC_7518524.JPG
break,html.Screen,4_36_1,2023-09-12T00:39:38.669Z,,0,,,NaN,,,,,,false,,,,334849.5,334849.30000019073,,334849,,334865.44,8,400,,,
break_continue,html.Screen,4_36_2,2023-09-12T00:39:38.669Z,,0,,,NaN,,,,,,false,,,,334849.69999980927,334849.69999980927,,334849.59999990463,,334865.44,8,400,,,
sequence,flow.Sequence,4_36,2023-09-12T00:39:38.669Z,,0,,,4609.797999809263,completion,,,,,false,,,,334849.90000009537,334849.69999980927,330223.022,330207.30000019073,330239.902,334865.44,8,400,,,
trial,html.Screen,4_37_0,2023-09-12T00:39:44.551Z,,0,1,,5865.3600001907325,response,ISIC_0032635.JPG,6,ISIC_0032121.JPG,ISIC_0032121.JPG,false,0,keypress(z),500,340731.09999990463,340730.80000019073,334848.68,334849.90000009537,334865.44,340760.214,8,400,38,,ISIC_0032635.JPG
break,html.Screen,4_37_1,2023-09-12T00:39:44.551Z,,0,,,NaN,,,,,,false,,,,340731.5,340731.40000009537,,340731.19999980927,,340760.214,8,400,,,
break_continue,html.Screen,4_37_2,2023-09-12T00:39:44.551Z,,0,,,NaN,,,,,,false,,,,340731.69999980927,340731.69999980927,,340731.59999990463,,340760.214,8,400,,,
sequence,flow.Sequence,4_37,2023-09-12T00:39:44.551Z,,0,,,5866.259999809263,completion,,,,,false,,,,340731.80000019073,340731.69999980927,334848.68,334849.90000009537,334865.44,340760.214,8,400,,,
trial,html.Screen,4_38_0,2023-09-12T00:39:49.066Z,,0,1,,4485.385999904654,response,ISIC_2067576.JPG,4,ISIC_0011696.JPG,ISIC_0011696.JPG,false,0,keypress(z),500,345245.80000019073,345245.59999990463,340743.516,340731.90000009537,340760.214,345252.344,8,400,39,,ISIC_2067576.JPG
break,html.Screen,4_38_1,2023-09-12T00:39:49.066Z,,0,,,NaN,,,,,,false,,,,345246.30000019073,345246.19999980927,,345245.90000009537,,345252.344,8,400,,,
break_continue,html.Screen,4_38_2,2023-09-12T00:39:49.066Z,,0,,,NaN,,,,,,false,,,,345246.5,345246.5,,345246.40000009537,,345252.344,8,400,,,
sequence,flow.Sequence,4_38,2023-09-12T00:39:49.067Z,,0,,,4486.286000000022,completion,,,,,false,,,,345246.59999990463,345246.5,340743.516,340731.90000009537,340760.214,345252.344,8,400,,,
trial,html.Screen,4_39_0,2023-09-12T00:39:55.276Z,,0,1,,6203.355999809282,response,ISIC_4071825.JPG,4,ISIC_9417004.JPG,ISIC_4071825.JPG,false,1,keypress(m),500,351455.80000019073,351455.69999980927,345235.663,345246.69999980927,345252.344,351464.519,8,400,40,,ISIC_9417004.JPG
break,html.Screen,4_39_1,2023-09-12T00:39:55.276Z,,0,,,NaN,,,,,,false,,,,351456.40000009537,351456.19999980927,,351456,,351464.519,8,400,,,
break_continue,html.Screen,4_39_2,2023-09-12T00:39:55.277Z,,0,,,NaN,,,,,,false,,,,351456.80000019073,351456.69999980927,,351456.5,,351464.519,8,400,,,
sequence,flow.Sequence,4_39,2023-09-12T00:39:55.277Z,,0,,,6204.355999809282,completion,,,,,false,,,,351456.90000009537,351456.69999980927,345235.663,345246.69999980927,345252.344,351464.519,8,400,,,
trial,html.Screen,4_40_0,2023-09-12T00:39:59.987Z,,0,1,,4702.481000000029,response,ISIC_9023152.JPG,5,ISIC_0385633.JPG,ISIC_9023152.JPG,false,1,keypress(m),500,356167.30000019073,356167,351447.818,351456.90000009537,351464.519,356173.596,8,400,41,,ISIC_0385633.JPG
break,html.Screen,4_40_1,2023-09-12T00:39:59.989Z,,0,,,NaN,,,,,,false,,,,356168.69999980927,356168.30000019073,,356167.69999980927,,356173.596,8,400,,,
break_continue,html.Screen,4_40_2,2023-09-12T00:39:59.989Z,,0,,,NaN,,,,,,false,,,,356169.5,356169.19999980927,,356168.90000009537,,356173.596,8,400,,,
sequence,flow.Sequence,4_40,2023-09-12T00:39:59.990Z,,0,,,4704.680999809294,completion,,,,,false,,,,356169.80000019073,356169.19999980927,351447.818,351456.90000009537,351464.519,356173.596,8,400,,,
trial,html.Screen,4_41_0,2023-09-12T00:40:05.321Z,,0,1,,5327.40399999998,response,ISIC_0046670.JPG,6,ISIC_7215375.JPG,ISIC_0046670.JPG,false,1,keypress(m),500,361501.19999980927,361501,356156.997,356170.09999990463,356173.596,361517.326,8,400,42,,ISIC_7215375.JPG
break,html.Screen,4_41_1,2023-09-12T00:40:05.322Z,,0,,,NaN,,,,,,false,,,,361502.30000019073,361502.09999990463,,361501.5,,361517.326,8,400,,,
break_continue,html.Screen,4_41_2,2023-09-12T00:40:05.323Z,,0,,,NaN,,,,,,false,,,,361502.59999990463,361502.59999990463,,361502.5,,361517.326,8,400,,,
sequence,flow.Sequence,4_41,2023-09-12T00:40:05.323Z,,0,,,5329.003999904613,completion,,,,,false,,,,361502.90000009537,361502.59999990463,356156.997,356170,356173.596,361517.326,8,400,,,
trial,html.Screen,4_42_0,2023-09-12T00:40:09.964Z,,0,1,,4626.673999999999,response,ISIC_0058071.JPG,4,ISIC_8629635.JPG,ISIC_0058071.JPG,false,1,keypress(m),500,366144.19999980927,366144,361500.65,361503,361517.326,366176.364,8,400,43,,ISIC_8629635.JPG
break,html.Screen,4_42_1,2023-09-12T00:40:09.965Z,,0,,,NaN,,,,,,false,,,,366144.69999980927,366144.59999990463,,366144.30000019073,,366176.364,8,400,,,
break_continue,html.Screen,4_42_2,2023-09-12T00:40:09.965Z,,0,,,NaN,,,,,,false,,,,366144.90000009537,366144.80000019073,,366144.69999980927,,366176.364,8,400,,,
sequence,flow.Sequence,4_42,2023-09-12T00:40:09.965Z,,0,,,4627.474000190734,completion,,,,,false,,,,366145,366144.80000019073,361500.65,361502.90000009537,361517.326,366176.364,8,400,,,
trial,html.Screen,4_43_0,2023-09-12T00:40:15.615Z,,0,1,,5618.635999999999,response,ISIC_7161002.JPG,6,ISIC_0026982.JPG,ISIC_0026982.JPG,false,0,keypress(z),500,371795.19999980927,371795,366159.62,366145.09999990463,366176.364,371803.965,8,400,44,,ISIC_7161002.JPG
break,html.Screen,4_43_1,2023-09-12T00:40:15.616Z,,0,,,NaN,,,,,,false,,,,371796.19999980927,371796,,371795.5,,371803.965,8,400,,,
break_continue,html.Screen,4_43_2,2023-09-12T00:40:15.617Z,,0,,,NaN,,,,,,false,,,,371796.69999980927,371796.59999990463,,371796.40000009537,,371803.965,8,400,,,
sequence,flow.Sequence,4_43,2023-09-12T00:40:15.617Z,,0,,,5620.235999904631,completion,,,,,false,,,,371796.90000009537,371796.59999990463,366159.62,366145.09999990463,366176.364,371803.965,8,400,,,
trial,html.Screen,4_44_0,2023-09-12T00:40:20.972Z,,0,1,,5347.534999999974,response,ISIC_2937407.JPG,5,ISIC_4882123.JPG,ISIC_2937407.JPG,false,1,keypress(m),500,377151.69999980927,377151.5,371787.403,371797,371803.965,377164.535,8,400,45,,ISIC_4882123.JPG
break,html.Screen,4_44_1,2023-09-12T00:40:20.973Z,,0,,,NaN,,,,,,false,,,,377152.59999990463,377152.30000019073,,377151.80000019073,,377164.535,8,400,,,
break_continue,html.Screen,4_44_2,2023-09-12T00:40:20.973Z,,0,,,NaN,,,,,,false,,,,377153,377152.90000009537,,377152.69999980927,,377164.535,8,400,,,
sequence,flow.Sequence,4_44,2023-09-12T00:40:20.973Z,,0,,,5348.935000095342,completion,,,,,false,,,,377153.09999990463,377152.90000009537,371787.403,371797,371803.965,377164.535,8,400,,,
trial,html.Screen,4_45_0,2023-09-12T00:40:25.935Z,,0,1,,4950.164999809291,response,ISIC_2685523.JPG,5,ISIC_5568834.JPG,ISIC_2685523.JPG,false,1,keypress(m),500,382114.80000019073,382114.69999980927,377147.837,377153.30000019073,377164.535,382124.026,8,400,46,,ISIC_5568834.JPG
break,html.Screen,4_45_1,2023-09-12T00:40:25.936Z,,0,,,NaN,,,,,,false,,,,382115.59999990463,382115.40000009537,,382115.09999990463,,382124.026,8,400,,,
break_continue,html.Screen,4_45_2,2023-09-12T00:40:25.936Z,,0,,,NaN,,,,,,false,,,,382116,382115.90000009537,,382115.69999980927,,382124.026,8,400,,,
sequence,flow.Sequence,4_45,2023-09-12T00:40:25.936Z,,0,,,4951.365000095393,completion,,,,,false,,,,382116.09999990463,382115.90000009537,377147.837,377153.30000019073,377164.535,382124.026,8,400,,,
trial,html.Screen,4_46_0,2023-09-12T00:40:30.902Z,,0,1,,4958.07399990462,response,ISIC_0068107.JPG,5,ISIC_0029118.JPG,ISIC_0068107.JPG,false,1,keypress(m),500,387082.19999980927,387082.09999990463,382107.403,382116.30000019073,382124.026,387100.392,8,400,47,,ISIC_0029118.JPG
break,html.Screen,4_46_1,2023-09-12T00:40:30.902Z,,0,,,NaN,,,,,,false,,,,387082.59999990463,387082.5,,387082.30000019073,,387100.392,8,400,,,
break_continue,html.Screen,4_46_2,2023-09-12T00:40:30.903Z,,0,,,NaN,,,,,,false,,,,387082.69999980927,387082.69999980927,,387082.59999990463,,387100.392,8,400,,,
sequence,flow.Sequence,4_46,2023-09-12T00:40:30.903Z,,0,,,4958.673999809253,completion,,,,,false,,,,387082.80000019073,387082.69999980927,382107.403,382116.30000019073,382124.026,387100.392,8,400,,,
trial,html.Screen,4_47_0,2023-09-12T00:40:35.663Z,,0,1,,4742.108000000007,response,ISIC_5354202.JPG,5,ISIC_0029729.JPG,ISIC_5354202.JPG,false,1,keypress(m),500,391842.59999990463,391842.5,387083.802,387082.90000009537,387100.392,391859.686,8,400,48,,ISIC_0029729.JPG
break,html.Screen,4_47_1,2023-09-12T00:40:35.663Z,,0,,,NaN,,,,,,false,,,,391843.59999990463,391843.40000009537,,391842.80000019073,,391859.686,8,400,,,
break_continue,html.Screen,4_47_2,2023-09-12T00:40:35.664Z,,0,,,NaN,,,,,,false,,,,391844,391843.90000009537,,391843.69999980927,,391859.686,8,400,,,
sequence,flow.Sequence,4_47,2023-09-12T00:40:35.664Z,,0,,,4743.508000095375,completion,,,,,false,,,,391844.19999980927,391843.90000009537,387083.802,387082.90000009537,387100.392,391859.686,8,400,,,
trial,html.Screen,4_48_0,2023-09-12T00:40:42.833Z,,0,1,,7153.413999904646,response,ISIC_0055048.JPG,5,ISIC_0010322.JPG,ISIC_0055048.JPG,false,1,keypress(m),500,399013.30000019073,399013.09999990463,391843.112,391844.19999980927,391859.686,399023.58,8,400,49,,ISIC_0010322.JPG
break,html.Screen,4_48_1,2023-09-12T00:40:42.834Z,,0,,,NaN,,,,,,false,,,,399014,399013.90000009537,,399013.5,,399023.58,8,400,,,
break_continue,html.Screen,4_48_2,2023-09-12T00:40:42.834Z,,0,,,NaN,,,,,,false,,,,399014.40000009537,399014.30000019073,,399014.09999990463,,399023.58,8,400,,,
sequence,flow.Sequence,4_48,2023-09-12T00:40:42.834Z,,0,,,7154.614000190748,completion,,,,,false,,,,399014.40000009537,399014.30000019073,391843.112,391844.19999980927,391859.686,399023.58,8,400,,,
trial,html.Screen,4_49_0,2023-09-12T00:40:47.688Z,,0,1,,4844.419999999984,response,ISIC_0003150.JPG,5,ISIC_4679971.JPG,ISIC_0003150.JPG,false,1,keypress(m),500,403868.19999980927,403868,399006.904,399014.5,399023.58,403883.144,8,400,50,,ISIC_4679971.JPG
break,html.Screen,4_49_1,2023-09-12T00:40:57.690Z,,0,,,10002.786000000022,timeout,,,,,false,,,,413869.80000019073,413869.263,403866.571,403868.5,403883.144,413885.93,8,400,,,
break_continue,html.Screen,4_49_2,2023-09-12T00:40:59.476Z,,0,,,1764.070000000007,response,,,,,false,continue,keypress(Space),,415655.40000009537,415650,413869.263,413869.90000009537,413885.93,415672.666,8,400,,,
sequence,flow.Sequence,4_49,2023-09-12T00:40:59.476Z,,0,,,16626.419999999984,completion,,,,,false,,,,415655.59999990463,415650,399006.904,399014.5,399023.58,415672.666,8,400,,,
trial,html.Screen,4_50_0,2023-09-12T00:41:04.661Z,,0,2,,5168.3339999999735,response,ISIC_8978290.JPG,6,ISIC_0057702.JPG,ISIC_0057702.JPG,false,0,keypress(z),500,420841.19999980927,420841,415655.909,415655.69999980927,415672.666,420849.383,8,400,1,,ISIC_8978290.JPG
break,html.Screen,4_50_1,2023-09-12T00:41:04.662Z,,0,,,NaN,,,,,,false,,,,420842.09999990463,420841.80000019073,,420841.40000009537,,420849.383,8,400,,,
break_continue,html.Screen,4_50_2,2023-09-12T00:41:04.663Z,,0,,,NaN,,,,,,false,,,,420842.5,420842.40000009537,,420842.30000019073,,420849.383,8,400,,,
sequence,flow.Sequence,4_50,2023-09-12T00:41:04.663Z,,0,,,5169.734000095341,completion,,,,,false,,,,420842.59999990463,420842.40000009537,415655.909,415655.69999980927,415672.666,420849.383,8,400,,,
trial,html.Screen,4_51_0,2023-09-12T00:41:08.953Z,,0,2,,4283.517000095395,response,ISIC_2535382.JPG,6,ISIC_0026460.JPG,ISIC_0026460.JPG,false,0,keypress(z),500,425133,425132.90000009537,420832.71,420842.69999980927,420849.383,425141.051,8,400,2,,ISIC_2535382.JPG
break,html.Screen,4_51_1,2023-09-12T00:41:08.954Z,,0,,,NaN,,,,,,false,,,,425133.69999980927,425133.5,,425133.19999980927,,425141.051,8,400,,,
break_continue,html.Screen,4_51_2,2023-09-12T00:41:08.954Z,,0,,,NaN,,,,,,false,,,,425134.19999980927,425134.09999990463,,425134,,425141.051,8,400,,,
sequence,flow.Sequence,4_51,2023-09-12T00:41:08.955Z,,0,,,4284.71699990466,completion,,,,,false,,,,425134.30000019073,425134.09999990463,420832.71,420842.69999980927,420849.383,425141.051,8,400,,,
trial,html.Screen,4_52_0,2023-09-12T00:41:13.245Z,,0,2,,4283.34900009539,response,ISIC_0004932.JPG,6,ISIC_0000375.JPG,ISIC_0000375.JPG,false,0,keypress(z),500,429424.59999990463,429424.40000009537,425124.53,425134.5,425141.051,429432.75,8,400,3,,ISIC_0004932.JPG
break,html.Screen,4_52_1,2023-09-12T00:41:13.245Z,,0,,,NaN,,,,,,false,,,,429425.30000019073,429425,,429424.69999980927,,429432.75,8,400,,,
break_continue,html.Screen,4_52_2,2023-09-12T00:41:13.246Z,,0,,,NaN,,,,,,false,,,,429425.59999990463,429425.5,,429425.40000009537,,429432.75,8,400,,,
sequence,flow.Sequence,4_52,2023-09-12T00:41:13.246Z,,0,,,4284.449000000022,completion,,,,,false,,,,429425.69999980927,429425.5,425124.53,425134.5,425141.051,429432.75,8,400,,,
trial,html.Screen,4_53_0,2023-09-12T00:41:17.525Z,,0,2,,4272.050000190735,response,ISIC_0062158.JPG,5,ISIC_1004416.JPG,ISIC_0062158.JPG,false,1,keypress(m),500,433704.90000009537,433704.80000019073,429416.231,429425.80000019073,429432.75,433707.755,8,400,4,,ISIC_1004416.JPG
break,html.Screen,4_53_1,2023-09-12T00:41:17.526Z,,0,,,NaN,,,,,,false,,,,433705.69999980927,433705.5,,433705.09999990463,,433707.755,8,400,,,
break_continue,html.Screen,4_53_2,2023-09-12T00:41:17.526Z,,0,,,NaN,,,,,,false,,,,433705.90000009537,433705.90000009537,,433705.80000019073,,433707.755,8,400,,,
sequence,flow.Sequence,4_53,2023-09-12T00:41:17.526Z,,0,,,4273.150000095367,completion,,,,,false,,,,433706,433705.90000009537,429416.231,429425.80000019073,429432.75,433707.755,8,400,,,
trial,html.Screen,4_54_0,2023-09-12T00:41:23.785Z,,0,2,,6256.645000095363,response,ISIC_0055143.JPG,4,ISIC_0046900.JPG,ISIC_0046900.JPG,false,0,keypress(z),500,439964.5,439964.40000009537,433691.063,433706.19999980927,433707.755,439970.001,8,400,5,,ISIC_0055143.JPG
break,html.Screen,4_54_1,2023-09-12T00:41:23.785Z,,0,,,NaN,,,,,,false,,,,439964.90000009537,439964.80000019073,,439964.59999990463,,439970.001,8,400,,,
break_continue,html.Screen,4_54_2,2023-09-12T00:41:23.785Z,,0,,,NaN,,,,,,false,,,,439965.09999990463,439965.09999990463,,439964.90000009537,,439970.001,8,400,,,
sequence,flow.Sequence,4_54,2023-09-12T00:41:23.785Z,,0,,,6257.344999904628,completion,,,,,false,,,,439965.09999990463,439965.09999990463,433691.063,433706.09999990463,433707.755,439970.001,8,400,,,
trial,html.Screen,4_55_0,2023-09-12T00:41:28.046Z,,0,2,,4256.098999904643,response,ISIC_0011091.JPG,4,ISIC_0014221.JPG,ISIC_0011091.JPG,false,1,keypress(m),500,444226.19999980927,444226.09999990463,439953.247,439965.30000019073,439970.001,444228.248,8,400,6,,ISIC_0014221.JPG
break,html.Screen,4_55_1,2023-09-12T00:41:28.047Z,,0,,,NaN,,,,,,false,,,,444226.80000019073,444226.59999990463,,444226.40000009537,,444228.248,8,400,,,
break_continue,html.Screen,4_55_2,2023-09-12T00:41:28.047Z,,0,,,NaN,,,,,,false,,,,444227.19999980927,444227.09999990463,,444227,,444228.248,8,400,,,
sequence,flow.Sequence,4_55,2023-09-12T00:41:28.047Z,,0,,,4257.098999904643,completion,,,,,false,,,,444227.30000019073,444227.09999990463,439953.247,439965.19999980927,439970.001,444228.248,8,400,,,
trial,html.Screen,4_56_0,2023-09-12T00:41:32.721Z,,0,2,,4672.951999809244,response,ISIC_0000377.JPG,5,ISIC_4899386.JPG,ISIC_0000377.JPG,false,1,keypress(m),500,448901.30000019073,448901.19999980927,444211.533,444227.40000009537,444228.248,448903.957,8,400,7,,ISIC_4899386.JPG
break,html.Screen,4_56_1,2023-09-12T00:41:32.722Z,,0,,,NaN,,,,,,false,,,,448901.80000019073,448901.59999990463,,448901.40000009537,,448903.957,8,400,,,
break_continue,html.Screen,4_56_2,2023-09-12T00:41:32.722Z,,0,,,NaN,,,,,,false,,,,448902.09999990463,448902.09999990463,,448901.90000009537,,448903.957,8,400,,,
sequence,flow.Sequence,4_56,2023-09-12T00:41:32.722Z,,0,,,4673.851999904611,completion,,,,,false,,,,448902.30000019073,448902.09999990463,444211.533,444227.40000009537,444228.248,448903.957,8,400,,,
trial,html.Screen,4_57_0,2023-09-12T00:41:38.868Z,,0,2,,6143.543000000005,response,ISIC_2987579.JPG,5,ISIC_4320200.JPG,ISIC_2987579.JPG,false,1,keypress(m),500,455047.69999980927,455047.5,448887.375,448902.30000019073,448903.957,455049.286,8,400,8,,ISIC_4320200.JPG
break,html.Screen,4_57_1,2023-09-12T00:41:38.868Z,,0,,,NaN,,,,,,false,,,,455048.19999980927,455048.09999990463,,455047.80000019073,,455049.286,8,400,,,
break_continue,html.Screen,4_57_2,2023-09-12T00:41:38.869Z,,0,,,NaN,,,,,,false,,,,455048.5,455048.40000009537,,455048.30000019073,,455049.286,8,400,,,
sequence,flow.Sequence,4_57,2023-09-12T00:41:38.869Z,,0,,,6144.443000095373,completion,,,,,false,,,,455048.5,455048.40000009537,448887.375,448902.30000019073,448903.957,455049.286,8,400,,,
trial,html.Screen,4_58_0,2023-09-12T00:41:44.572Z,,0,2,,5702.114000095346,response,ISIC_3195720.JPG,5,ISIC_8176449.JPG,ISIC_3195720.JPG,false,1,keypress(m),500,460751.5,460751.40000009537,455032.618,455048.59999990463,455049.286,460760.396,8,400,9,,ISIC_8176449.JPG
break,html.Screen,4_58_1,2023-09-12T00:41:44.573Z,,0,,,NaN,,,,,,false,,,,460752.40000009537,460752.09999990463,,460751.59999990463,,460760.396,8,400,,,
break_continue,html.Screen,4_58_2,2023-09-12T00:41:44.573Z,,0,,,NaN,,,,,,false,,,,460752.90000009537,460752.69999980927,,460752.5,,460760.396,8,400,,,
sequence,flow.Sequence,4_58,2023-09-12T00:41:44.573Z,,0,,,5703.413999809243,completion,,,,,false,,,,460753.09999990463,460752.69999980927,455032.618,455048.59999990463,455049.286,460760.396,8,400,,,
trial,html.Screen,4_59_0,2023-09-12T00:41:48.479Z,,0,2,,3898.303999809257,response,ISIC_0032551.JPG,5,ISIC_0060446.JPG,ISIC_0060446.JPG,false,0,keypress(z),500,464658.80000019073,464658.69999980927,460743.837,460753.19999980927,460760.396,464668.162,8,400,10,,ISIC_0032551.JPG
break,html.Screen,4_59_1,2023-09-12T00:41:48.480Z,,0,,,NaN,,,,,,false,,,,464659.40000009537,464659.19999980927,,464659,,464668.162,8,400,,,
break_continue,html.Screen,4_59_2,2023-09-12T00:41:48.480Z,,0,,,NaN,,,,,,false,,,,464659.69999980927,464659.59999990463,,464659.5,,464668.162,8,400,,,
sequence,flow.Sequence,4_59,2023-09-12T00:41:48.480Z,,0,,,3899.2039999046247,completion,,,,,false,,,,464659.80000019073,464659.59999990463,460743.837,460753.19999980927,460760.396,464668.162,8,400,,,
trial,html.Screen,4_60_0,2023-09-12T00:41:53.506Z,,0,2,,5017.138000190724,response,ISIC_0015264.JPG,5,ISIC_0010934.JPG,ISIC_0010934.JPG,false,0,keypress(z),500,469685.40000009537,469685.30000019073,464651.302,464659.90000009537,464668.162,469694.395,8,400,11,,ISIC_0015264.JPG
break,html.Screen,4_60_1,2023-09-12T00:41:53.506Z,,0,,,NaN,,,,,,false,,,,469685.80000019073,469685.69999980927,,469685.5,,469694.395,8,400,,,
break_continue,html.Screen,4_60_2,2023-09-12T00:41:53.506Z,,0,,,NaN,,,,,,false,,,,469686,469686,,469685.80000019073,,469694.395,8,400,,,
sequence,flow.Sequence,4_60,2023-09-12T00:41:53.507Z,,0,,,5017.837999999989,completion,,,,,false,,,,469686,469686,464651.302,464659.90000009537,464668.162,469694.395,8,400,,,
trial,html.Screen,4_61_0,2023-09-12T00:41:58.196Z,,0,2,,4681.3049998092465,response,ISIC_0062323.JPG,5,ISIC_0060832.JPG,ISIC_0062323.JPG,false,1,keypress(m),500,474375.90000009537,474375.69999980927,469677.837,469686.09999990463,469694.395,474386.912,8,400,12,,ISIC_0060832.JPG
break,html.Screen,4_61_1,2023-09-12T00:41:58.197Z,,0,,,NaN,,,,,,false,,,,474376.19999980927,474376.19999980927,,474375.90000009537,,474386.912,8,400,,,
break_continue,html.Screen,4_61_2,2023-09-12T00:41:58.197Z,,0,,,NaN,,,,,,false,,,,474376.5,474376.40000009537,,474376.30000019073,,474386.912,8,400,,,
sequence,flow.Sequence,4_61,2023-09-12T00:41:58.197Z,,0,,,4682.005000095349,completion,,,,,false,,,,474376.59999990463,474376.40000009537,469677.837,469686.09999990463,469694.395,474386.912,8,400,,,
trial,html.Screen,4_62_0,2023-09-12T00:42:02.982Z,,0,2,,4774.587999999989,response,ISIC_0024294.JPG,5,ISIC_9140779.JPG,ISIC_9140779.JPG,false,0,keypress(z),500,479161.5,479161.5,474370.323,474376.59999990463,474386.912,479180.496,8,400,13,,ISIC_0024294.JPG
break,html.Screen,4_62_1,2023-09-12T00:42:02.983Z,,0,,,NaN,,,,,,false,,,,479162,479161.90000009537,,479161.69999980927,,479180.496,8,400,,,
break_continue,html.Screen,4_62_2,2023-09-12T00:42:02.983Z,,0,,,NaN,,,,,,false,,,,479162.19999980927,479162.19999980927,,479162,,479180.496,8,400,,,
sequence,flow.Sequence,4_62,2023-09-12T00:42:02.983Z,,0,,,4775.287999809254,completion,,,,,false,,,,479162.30000019073,479162.19999980927,474370.323,474376.59999990463,474386.912,479180.496,8,400,,,
trial,html.Screen,4_63_0,2023-09-12T00:42:08.425Z,,0,2,,5424.30400019075,response,ISIC_0031965.JPG,5,ISIC_0003438.JPG,ISIC_0031965.JPG,false,1,keypress(m),500,484604.90000009537,484604.80000019073,479146.274,479162.40000009537,479180.496,484606.799,8,400,14,,ISIC_0003438.JPG
break,html.Screen,4_63_1,2023-09-12T00:42:08.426Z,,0,,,NaN,,,,,,false,,,,484605.5,484605.19999980927,,484605.09999990463,,484606.799,8,400,,,
break_continue,html.Screen,4_63_2,2023-09-12T00:42:08.426Z,,0,,,NaN,,,,,,false,,,,484605.80000019073,484605.80000019073,,484605.59999990463,,484606.799,8,400,,,
sequence,flow.Sequence,4_63,2023-09-12T00:42:08.426Z,,0,,,5425.30400019075,completion,,,,,false,,,,484605.90000009537,484605.80000019073,479146.274,479162.30000019073,479180.496,484606.799,8,400,,,
trial,html.Screen,4_64_0,2023-09-12T00:42:13.106Z,,0,2,,4678.101000095368,response,ISIC_9482039.JPG,5,ISIC_8159779.JPG,ISIC_9482039.JPG,false,1,keypress(m),500,489285.19999980927,489284.90000009537,484590.176,484605.90000009537,484606.799,489299.325,8,400,15,,ISIC_8159779.JPG
break,html.Screen,4_64_1,2023-09-12T00:42:13.106Z,,0,,,NaN,,,,,,false,,,,489286,489285.69999980927,,489285.30000019073,,489299.325,8,400,,,
break_continue,html.Screen,4_64_2,2023-09-12T00:42:13.107Z,,0,,,NaN,,,,,,false,,,,489286.40000009537,489286.30000019073,,489286.09999990463,,489299.325,8,400,,,
sequence,flow.Sequence,4_64,2023-09-12T00:42:13.107Z,,0,,,4679.501000190736,completion,,,,,false,,,,489286.59999990463,489286.30000019073,484590.176,484605.90000009537,484606.799,489299.325,8,400,,,
trial,html.Screen,4_65_0,2023-09-12T00:42:17.893Z,,0,2,,4772.774999904621,response,ISIC_4229473.JPG,4,ISIC_3278303.JPG,ISIC_4229473.JPG,false,1,keypress(m),500,494072.19999980927,494072.09999990463,489282.624,489286.59999990463,489299.325,494075.188,8,400,16,,ISIC_3278303.JPG
break,html.Screen,4_65_1,2023-09-12T00:42:17.893Z,,0,,,NaN,,,,,,false,,,,494072.59999990463,494072.5,,494072.30000019073,,494075.188,8,400,,,
break_continue,html.Screen,4_65_2,2023-09-12T00:42:17.893Z,,0,,,NaN,,,,,,false,,,,494072.90000009537,494072.90000009537,,494072.69999980927,,494075.188,8,400,,,
sequence,flow.Sequence,4_65,2023-09-12T00:42:17.894Z,,0,,,4773.575000095356,completion,,,,,false,,,,494073.09999990463,494072.90000009537,489282.624,489286.59999990463,489299.325,494075.188,8,400,,,
trial,html.Screen,4_66_0,2023-09-12T00:42:23.017Z,,0,2,,5121.112000190711,response,ISIC_6201338.JPG,4,ISIC_6352730.JPG,ISIC_6201338.JPG,false,1,keypress(m),500,499196.40000009537,499196.30000019073,494058.628,494073.09999990463,494075.188,499218.542,8,400,17,,ISIC_6352730.JPG
break,html.Screen,4_66_1,2023-09-12T00:42:23.017Z,,0,,,NaN,,,,,,false,,,,499196.80000019073,499196.80000019073,,499196.40000009537,,499218.542,8,400,,,
break_continue,html.Screen,4_66_2,2023-09-12T00:42:23.018Z,,0,,,NaN,,,,,,false,,,,499197.09999990463,499197,,499196.90000009537,,499218.542,8,400,,,
sequence,flow.Sequence,4_66,2023-09-12T00:42:23.018Z,,0,,,5121.811999999976,completion,,,,,false,,,,499197.09999990463,499197,494058.628,494073.09999990463,494075.188,499218.542,8,400,,,
trial,html.Screen,4_67_0,2023-09-12T00:42:27.787Z,,0,2,,4747.358000095352,response,ISIC_1122023.JPG,6,ISIC_0008447.JPG,ISIC_1122023.JPG,false,1,keypress(m),500,503966.09999990463,503965.90000009537,499201.861,499197.19999980927,499218.542,503994.593,8,400,18,,ISIC_0008447.JPG
break,html.Screen,4_67_1,2023-09-12T00:42:27.787Z,,0,,,NaN,,,,,,false,,,,503966.90000009537,503966.59999990463,,503966.30000019073,,503994.593,8,400,,,
break_continue,html.Screen,4_67_2,2023-09-12T00:42:27.788Z,,0,,,NaN,,,,,,false,,,,503967.40000009537,503967.19999980927,,503967,,503994.593,8,400,,,
sequence,flow.Sequence,4_67,2023-09-12T00:42:27.788Z,,0,,,4748.657999809249,completion,,,,,false,,,,503967.5,503967.19999980927,499201.861,499197.19999980927,499218.542,503994.593,8,400,,,
trial,html.Screen,4_68_0,2023-09-12T00:42:34.238Z,,0,2,,6422.606999809272,response,ISIC_7319686.JPG,4,ISIC_0032036.JPG,ISIC_0032036.JPG,false,0,keypress(z),500,510417.30000019073,510417.19999980927,503977.87,503967.59999990463,503994.593,510423.772,8,400,19,,ISIC_7319686.JPG
break,html.Screen,4_68_1,2023-09-12T00:42:34.238Z,,0,,,NaN,,,,,,false,,,,510417.90000009537,510417.69999980927,,510417.5,,510423.772,8,400,,,
break_continue,html.Screen,4_68_2,2023-09-12T00:42:34.239Z,,0,,,NaN,,,,,,false,,,,510418.09999990463,510418,,510417.90000009537,,510423.772,8,400,,,
sequence,flow.Sequence,4_68,2023-09-12T00:42:34.239Z,,0,,,6423.4070000000065,completion,,,,,false,,,,510418.19999980927,510418,503977.87,503967.5,503994.593,510423.772,8,400,,,
trial,html.Screen,4_69_0,2023-09-12T00:42:39.905Z,,0,2,,5660.327999904635,response,ISIC_0011747.JPG,5,ISIC_0054767.JPG,ISIC_0011747.JPG,false,1,keypress(m),500,516084.80000019073,516084.09999990463,510407.074,510418.30000019073,510423.772,516101.442,8,400,20,,ISIC_0054767.JPG
break,html.Screen,4_69_1,2023-09-12T00:42:39.907Z,,0,,,NaN,,,,,,false,,,,516087,516086.5,,516085.40000009537,,516101.442,8,400,,,
break_continue,html.Screen,4_69_2,2023-09-12T00:42:39.908Z,,0,,,NaN,,,,,,false,,,,516087.80000019073,516087.59999990463,,516087.30000019073,,516101.442,8,400,,,
sequence,flow.Sequence,4_69,2023-09-12T00:42:39.909Z,,0,,,5663.827999904635,completion,,,,,false,,,,516088,516087.59999990463,510407.074,510418.19999980927,510423.772,516101.442,8,400,,,
trial,html.Screen,4_70_0,2023-09-12T00:42:44.124Z,,0,2,,4201.558000000019,response,ISIC_1910158.JPG,6,ISIC_0032903.JPG,ISIC_0032903.JPG,false,0,keypress(z),500,520303.09999990463,520303,516084.715,516088.30000019073,516101.442,520326.374,8,400,21,,ISIC_1910158.JPG
break,html.Screen,4_70_1,2023-09-12T00:42:44.124Z,,0,,,NaN,,,,,,false,,,,520303.69999980927,520303.5,,520303.30000019073,,520326.374,8,400,,,
break_continue,html.Screen,4_70_2,2023-09-12T00:42:44.124Z,,0,,,NaN,,,,,,false,,,,520304,520303.90000009537,,520303.80000019073,,520326.374,8,400,,,
sequence,flow.Sequence,4_70,2023-09-12T00:42:44.125Z,,0,,,4202.4580000953865,completion,,,,,false,,,,520304.19999980927,520303.90000009537,516084.715,516088.19999980927,516101.442,520326.374,8,400,,,
trial,html.Screen,4_71_0,2023-09-12T00:42:48.816Z,,0,2,,4668.926000190724,response,ISIC_7789452.JPG,6,ISIC_1135213.JPG,ISIC_7789452.JPG,false,1,keypress(m),500,524995.5,524995.3000001907,520309.661,520304.30000019073,520326.374,525002.058,8,400,22,,ISIC_1135213.JPG
break,html.Screen,4_71_1,2023-09-12T00:42:48.817Z,,0,,,NaN,,,,,,false,,,,524995.9000000954,524995.9000000954,,524995.5999999046,,525002.058,8,400,,,
break_continue,html.Screen,4_71_2,2023-09-12T00:42:48.817Z,,0,,,NaN,,,,,,false,,,,524996.0999999046,524996,,524996,,525002.058,8,400,,,
sequence,flow.Sequence,4_71,2023-09-12T00:42:48.817Z,,0,,,4669.625999999989,completion,,,,,false,,,,524996.0999999046,524996,520309.661,520304.19999980927,520326.374,525002.058,8,400,,,
trial,html.Screen,4_72_0,2023-09-12T00:42:53.634Z,,0,2,,4811.442000000039,response,ISIC_0014132.JPG,5,ISIC_0031763.JPG,ISIC_0014132.JPG,false,1,keypress(m),500,529813.5999999046,529813.5,524985.436,524996.1999998093,525002.058,529828.208,8,400,23,,ISIC_0031763.JPG
break,html.Screen,4_72_1,2023-09-12T00:42:53.635Z,,0,,,NaN,,,,,,false,,,,529814.3000001907,529814,,529813.8000001907,,529828.208,8,400,,,
break_continue,html.Screen,4_72_2,2023-09-12T00:42:53.635Z,,0,,,NaN,,,,,,false,,,,529814.5999999046,529814.5,,529814.4000000954,,529828.208,8,400,,,
sequence,flow.Sequence,4_72,2023-09-12T00:42:53.635Z,,0,,,4812.442000000039,completion,,,,,false,,,,529814.6999998093,529814.5,524985.436,524996.1999998093,525002.058,529828.208,8,400,,,
trial,html.Screen,4_73_0,2023-09-12T00:42:58.474Z,,0,2,,4824.491999809281,response,ISIC_2466892.JPG,4,ISIC_0026407.JPG,ISIC_0026407.JPG,false,0,keypress(z),500,534652.8000001907,534652.6999998093,529811.594,529814.6999998093,529828.208,534654.181,8,400,24,,ISIC_2466892.JPG
break,html.Screen,4_73_1,2023-09-12T00:42:58.474Z,,0,,,NaN,,,,,,false,,,,534653.3000001907,534653.3000001907,,534652.9000000954,,534654.181,8,400,,,
break_continue,html.Screen,4_73_2,2023-09-12T00:42:58.474Z,,0,,,NaN,,,,,,false,,,,534653.5999999046,534653.5,,534653.4000000954,,534654.181,8,400,,,
sequence,flow.Sequence,4_73,2023-09-12T00:42:58.474Z,,0,,,4825.292000000016,completion,,,,,false,,,,534653.8000001907,534653.5,529811.594,529814.6999998093,529828.208,534654.181,8,400,,,
trial,html.Screen,4_74_0,2023-09-12T00:43:03.037Z,,0,2,,4561.91899990465,response,ISIC_7429127.JPG,5,ISIC_0028087.JPG,ISIC_0028087.JPG,false,0,keypress(z),500,539216.1999998093,539216.0999999046,534637.566,534653.8000001907,534654.181,539229.823,8,400,25,,ISIC_7429127.JPG
break,html.Screen,4_74_1,2023-09-12T00:43:03.037Z,,0,,,NaN,,,,,,false,,,,539216.5999999046,539216.5,,539216.3000001907,,539229.823,8,400,,,
break_continue,html.Screen,4_74_2,2023-09-12T00:43:03.037Z,,0,,,NaN,,,,,,false,,,,539216.8000001907,539216.8000001907,,539216.6999998093,,539229.823,8,400,,,
sequence,flow.Sequence,4_74,2023-09-12T00:43:03.038Z,,0,,,4562.619000190753,completion,,,,,false,,,,539216.8000001907,539216.8000001907,534637.566,534653.8000001907,534654.181,539229.823,8,400,,,
trial,html.Screen,4_75_0,2023-09-12T00:43:08.255Z,,0,2,,5204.677000000025,response,ISIC_0031649.JPG,6,ISIC_0030194.JPG,ISIC_0031649.JPG,false,1,keypress(m),500,544434.8000001907,544434.5,539213.192,539217,539229.823,544439.925,8,400,26,,ISIC_0030194.JPG
break,html.Screen,4_75_1,2023-09-12T00:43:08.256Z,,0,,,NaN,,,,,,false,,,,544435.5999999046,544435.4000000954,,544434.9000000954,,544439.925,8,400,,,
break_continue,html.Screen,4_75_2,2023-09-12T00:43:08.257Z,,0,,,NaN,,,,,,false,,,,544436.0999999046,544435.9000000954,,544435.6999998093,,544439.925,8,400,,,
sequence,flow.Sequence,4_75,2023-09-12T00:43:08.257Z,,0,,,5206.077000095393,completion,,,,,false,,,,544436.1999998093,544435.9000000954,539213.192,539216.9000000954,539229.823,544439.925,8,400,,,
trial,html.Screen,4_76_0,2023-09-12T00:43:13.051Z,,0,2,,4789.875000190688,response,ISIC_1356715.JPG,5,ISIC_9756858.JPG,ISIC_1356715.JPG,false,1,keypress(m),500,549229.9000000954,549229.8000001907,544423.284,544436.4000000954,544439.925,549249.218,8,400,27,,ISIC_9756858.JPG
break,html.Screen,4_76_1,2023-09-12T00:43:13.051Z,,0,,,NaN,,,,,,false,,,,549230.4000000954,549230.1999998093,,549230,,549249.218,8,400,,,
break_continue,html.Screen,4_76_2,2023-09-12T00:43:13.051Z,,0,,,NaN,,,,,,false,,,,549230.5999999046,549230.5,,549230.5,,549249.218,8,400,,,
sequence,flow.Sequence,4_76,2023-09-12T00:43:13.051Z,,0,,,4790.574999999953,completion,,,,,false,,,,549230.5999999046,549230.5,544423.284,544436.3000001907,544439.925,549249.218,8,400,,,
trial,html.Screen,4_77_0,2023-09-12T00:43:17.646Z,,0,2,,4575.682000095374,response,ISIC_1655513.JPG,5,ISIC_0069121.JPG,ISIC_0069121.JPG,false,0,keypress(z),500,553825.1999998093,553824.9000000954,549232.548,549230.6999998093,549249.218,553841.534,8,400,28,,ISIC_1655513.JPG
break,html.Screen,4_77_1,2023-09-12T00:43:17.647Z,,0,,,NaN,,,,,,false,,,,553826.6999998093,553826.4000000954,,553825.6999998093,,553841.534,8,400,,,
break_continue,html.Screen,4_77_2,2023-09-12T00:43:17.648Z,,0,,,NaN,,,,,,false,,,,553827.3000001907,553827.0999999046,,553826.9000000954,,553841.534,8,400,,,
sequence,flow.Sequence,4_77,2023-09-12T00:43:17.648Z,,0,,,4577.881999904639,completion,,,,,false,,,,553827.3000001907,553827.0999999046,549232.548,549230.6999998093,549249.218,553841.534,8,400,,,
trial,html.Screen,4_78_0,2023-09-12T00:43:22.889Z,,0,2,,5226.366000095382,response,ISIC_8624049.JPG,5,ISIC_0002693.JPG,ISIC_0002693.JPG,false,0,keypress(z),500,559068.1999998093,559067.9000000954,553824.834,553827.5,553841.534,559085.037,8,400,29,,ISIC_8624049.JPG
break,html.Screen,4_78_1,2023-09-12T00:43:22.890Z,,0,,,NaN,,,,,,false,,,,559069.0999999046,559068.9000000954,,559068.3000001907,,559085.037,8,400,,,
break_continue,html.Screen,4_78_2,2023-09-12T00:43:22.890Z,,0,,,NaN,,,,,,false,,,,559069.9000000954,559069.6999998093,,559069.3000001907,,559085.037,8,400,,,
sequence,flow.Sequence,4_78,2023-09-12T00:43:22.891Z,,0,,,5228.16599980928,completion,,,,,false,,,,559070.0999999046,559069.6999998093,553824.834,553827.5,553841.534,559085.037,8,400,,,
trial,html.Screen,4_79_0,2023-09-12T00:43:27.725Z,,0,2,,4819.462999999989,response,ISIC_8133350.JPG,4,ISIC_8024841.JPG,ISIC_8133350.JPG,false,1,keypress(m),500,563904.5999999046,563904.5,559068.392,559070.3000001907,559085.037,563911.126,8,400,30,,ISIC_8024841.JPG
break,html.Screen,4_79_1,2023-09-12T00:43:27.726Z,,0,,,NaN,,,,,,false,,,,563905.0999999046,563905,,563904.6999998093,,563911.126,8,400,,,
break_continue,html.Screen,4_79_2,2023-09-12T00:43:27.726Z,,0,,,NaN,,,,,,false,,,,563905.3000001907,563905.3000001907,,563905.1999998093,,563911.126,8,400,,,
sequence,flow.Sequence,4_79,2023-09-12T00:43:27.726Z,,0,,,4820.263000190724,completion,,,,,false,,,,563905.4000000954,563905.3000001907,559068.392,559070.3000001907,559085.037,563911.126,8,400,,,
trial,html.Screen,4_80_0,2023-09-12T00:43:33.026Z,,0,2,,5293.674000190687,response,ISIC_0030666.JPG,6,ISIC_4049598.JPG,ISIC_4049598.JPG,false,0,keypress(z),500,569204.9000000954,569204.8000001907,563894.598,563905.5,563911.126,569221.456,8,400,31,,ISIC_0030666.JPG
break,html.Screen,4_80_1,2023-09-12T00:43:33.026Z,,0,,,NaN,,,,,,false,,,,569205.5999999046,569205.4000000954,,569205.0999999046,,569221.456,8,400,,,
break_continue,html.Screen,4_80_2,2023-09-12T00:43:33.027Z,,0,,,NaN,,,,,,false,,,,569205.8000001907,569205.8000001907,,569205.6999998093,,569221.456,8,400,,,
sequence,flow.Sequence,4_80,2023-09-12T00:43:33.027Z,,0,,,5294.674000190687,completion,,,,,false,,,,569206,569205.8000001907,563894.598,563905.4000000954,563911.126,569221.456,8,400,,,
trial,html.Screen,4_81_0,2023-09-12T00:43:38.154Z,,0,2,,5111.344000190729,response,ISIC_3157046.JPG,4,ISIC_1014075.JPG,ISIC_3157046.JPG,false,1,keypress(m),500,574332.9000000954,574332.8000001907,569204.763,569206.0999999046,569221.456,574348.1,8,400,32,,ISIC_1014075.JPG
break,html.Screen,4_81_1,2023-09-12T00:43:38.154Z,,0,,,NaN,,,,,,false,,,,574333.3000001907,574333.1999998093,,574333,,574348.1,8,400,,,
break_continue,html.Screen,4_81_2,2023-09-12T00:43:38.154Z,,0,,,NaN,,,,,,false,,,,574333.6999998093,574333.5999999046,,574333.5,,574348.1,8,400,,,
sequence,flow.Sequence,4_81,2023-09-12T00:43:38.154Z,,0,,,5112.143999904627,completion,,,,,false,,,,574333.8000001907,574333.5999999046,569204.763,569206.0999999046,569221.456,574348.1,8,400,,,
trial,html.Screen,4_82_0,2023-09-12T00:43:43.597Z,,0,2,,5428.200000190758,response,ISIC_0070551.JPG,5,ISIC_0011917.JPG,ISIC_0011917.JPG,false,0,keypress(z),500,579776.4000000954,579776.3000001907,574331.574,574333.9000000954,574348.1,579792.044,8,400,33,,ISIC_0070551.JPG
break,html.Screen,4_82_1,2023-09-12T00:43:43.598Z,,0,,,NaN,,,,,,false,,,,579776.9000000954,579776.8000001907,,579776.5999999046,,579792.044,8,400,,,
break_continue,html.Screen,4_82_2,2023-09-12T00:43:43.598Z,,0,,,NaN,,,,,,false,,,,579777.0999999046,579777,,579776.9000000954,,579792.044,8,400,,,
sequence,flow.Sequence,4_82,2023-09-12T00:43:43.598Z,,0,,,5428.900000000023,completion,,,,,false,,,,579777.1999998093,579777,574331.574,574333.8000001907,574348.1,579792.044,8,400,,,
trial,html.Screen,4_83_0,2023-09-12T00:43:48.501Z,,0,2,,4888.856000095373,response,ISIC_8389650.JPG,6,ISIC_0032637.JPG,ISIC_0032637.JPG,false,0,keypress(z),500,584681.0999999046,584680.9000000954,579775.345,579777.1999998093,579792.044,584684.862,8,400,34,,ISIC_8389650.JPG
break,html.Screen,4_83_1,2023-09-12T00:43:48.502Z,,0,,,NaN,,,,,,false,,,,584681.9000000954,584681.5999999046,,584681.1999998093,,584684.862,8,400,,,
break_continue,html.Screen,4_83_2,2023-09-12T00:43:48.502Z,,0,,,NaN,,,,,,false,,,,584682.1999998093,584682.1999998093,,584682,,584684.862,8,400,,,
sequence,flow.Sequence,4_83,2023-09-12T00:43:48.503Z,,0,,,4890.155999809271,completion,,,,,false,,,,584682.4000000954,584682.1999998093,579775.345,579777.1999998093,579792.044,584684.862,8,400,,,
trial,html.Screen,4_84_0,2023-09-12T00:43:52.526Z,,0,2,,4021.038000095403,response,ISIC_1971254.JPG,5,ISIC_0032637.JPG,ISIC_0032637.JPG,false,0,keypress(z),500,588706,588705.9000000954,584668.204,584682.4000000954,584684.862,588709.355,8,400,35,,ISIC_1971254.JPG
break,html.Screen,4_84_1,2023-09-12T00:43:52.527Z,,0,,,NaN,,,,,,false,,,,588706.4000000954,588706.3000001907,,588706.0999999046,,588709.355,8,400,,,
break_continue,html.Screen,4_84_2,2023-09-12T00:43:52.527Z,,0,,,NaN,,,,,,false,,,,588706.6999998093,588706.5999999046,,588706.5,,588709.355,8,400,,,
sequence,flow.Sequence,4_84,2023-09-12T00:43:52.527Z,,0,,,4021.737999904668,completion,,,,,false,,,,588706.8000001907,588706.5999999046,584668.204,584682.4000000954,584684.862,588709.355,8,400,,,
trial,html.Screen,4_85_0,2023-09-12T00:43:56.769Z,,0,2,,4239.645000000019,response,ISIC_0033561.JPG,6,ISIC_5323725.JPG,ISIC_0033561.JPG,false,1,keypress(m),500,592949.1999998093,592949,588692.667,588706.8000001907,588709.355,592950.949,8,400,36,,ISIC_5323725.JPG
break,html.Screen,4_85_1,2023-09-12T00:43:56.770Z,,0,,,NaN,,,,,,false,,,,592949.9000000954,592949.5999999046,,592949.3000001907,,592950.949,8,400,,,
break_continue,html.Screen,4_85_2,2023-09-12T00:43:56.770Z,,0,,,NaN,,,,,,false,,,,592950.3000001907,592950.1999998093,,592950,,592950.949,8,400,,,
sequence,flow.Sequence,4_85,2023-09-12T00:43:56.771Z,,0,,,4240.844999809284,completion,,,,,false,,,,592950.4000000954,592950.1999998093,588692.667,588706.8000001907,588709.355,592950.949,8,400,,,
trial,html.Screen,4_86_0,2023-09-12T00:44:02.309Z,,0,2,,5538.050999999978,response,ISIC_4564960.JPG,5,ISIC_0013501.JPG,ISIC_4564960.JPG,false,1,keypress(m),500,598489.1999998093,598489,592934.436,592950.5999999046,592950.949,598495.073,8,400,37,,ISIC_0013501.JPG
break,html.Screen,4_86_1,2023-09-12T00:44:02.310Z,,0,,,NaN,,,,,,false,,,,598489.6999998093,598489.5999999046,,598489.4000000954,,598495.073,8,400,,,
break_continue,html.Screen,4_86_2,2023-09-12T00:44:02.310Z,,0,,,NaN,,,,,,false,,,,598490,598489.9000000954,,598489.8000001907,,598495.073,8,400,,,
sequence,flow.Sequence,4_86,2023-09-12T00:44:02.310Z,,0,,,5538.951000095345,completion,,,,,false,,,,598490,598489.9000000954,592934.436,592950.5,592950.949,598495.073,8,400,,,
trial,html.Screen,4_87_0,2023-09-12T00:44:08.648Z,,0,2,,6332.62699980929,response,ISIC_0058418.JPG,5,ISIC_8173531.JPG,ISIC_0058418.JPG,false,1,keypress(m),500,604828,604827.6999998093,598478.436,598490.0999999046,598495.073,604840.826,8,400,38,,ISIC_8173531.JPG
break,html.Screen,4_87_1,2023-09-12T00:44:08.650Z,,0,,,NaN,,,,,,false,,,,604829.4000000954,604829,,604828.3000001907,,604840.826,8,400,,,
break_continue,html.Screen,4_87_2,2023-09-12T00:44:08.650Z,,0,,,NaN,,,,,,false,,,,604830.1999998093,604830,,604829.6999998093,,604840.826,8,400,,,
sequence,flow.Sequence,4_87,2023-09-12T00:44:08.651Z,,0,,,6334.927000000025,completion,,,,,false,,,,604830.5,604830,598478.436,598490,598495.073,604840.826,8,400,,,
trial,html.Screen,4_88_0,2023-09-12T00:44:13.636Z,,0,2,,4974.474000190734,response,ISIC_0058828.JPG,6,ISIC_0027101.JPG,ISIC_0027101.JPG,false,0,keypress(z),500,609815.5,609815.3000001907,604824.159,604830.8000001907,604840.826,609817.104,8,400,39,,ISIC_0058828.JPG
break,html.Screen,4_88_1,2023-09-12T00:44:13.636Z,,0,,,NaN,,,,,,false,,,,609815.8000001907,609815.8000001907,,609815.5999999046,,609817.104,8,400,,,
break_continue,html.Screen,4_88_2,2023-09-12T00:44:13.636Z,,0,,,NaN,,,,,,false,,,,609816,609815.9000000954,,609815.9000000954,,609817.104,8,400,,,
sequence,flow.Sequence,4_88,2023-09-12T00:44:13.636Z,,0,,,4975.0740000953665,completion,,,,,false,,,,609816.0999999046,609815.9000000954,604824.159,604830.8000001907,604840.826,609817.104,8,400,,,
trial,html.Screen,4_89_0,2023-09-12T00:44:19.565Z,,0,2,,5927.196000190685,response,ISIC_0056017.JPG,4,ISIC_0059485.JPG,ISIC_0059485.JPG,false,0,keypress(z),500,615744.6999998093,615744.3000001907,609800.493,609816.0999999046,609817.104,615762.043,8,400,40,,ISIC_0056017.JPG
break,html.Screen,4_89_1,2023-09-12T00:44:19.567Z,,0,,,NaN,,,,,,false,,,,615746.4000000954,615745.9000000954,,615745.0999999046,,615762.043,8,400,,,
break_continue,html.Screen,4_89_2,2023-09-12T00:44:19.567Z,,0,,,NaN,,,,,,false,,,,615747.1999998093,615747,,615746.5999999046,,615762.043,8,400,,,
sequence,flow.Sequence,4_89,2023-09-12T00:44:19.568Z,,0,,,5929.89599999995,completion,,,,,false,,,,615747.5999999046,615747,609800.493,609816.0999999046,609817.104,615762.043,8,400,,,
trial,html.Screen,4_90_0,2023-09-12T00:44:25.170Z,,0,2,,5587.656999809318,response,ISIC_0057344.JPG,6,ISIC_0428257.JPG,ISIC_0057344.JPG,false,1,keypress(m),500,621349.8000001907,621349.6999998093,615745.446,615747.8000001907,615762.043,621356.293,8,400,41,,ISIC_0428257.JPG
break,html.Screen,4_90_1,2023-09-12T00:44:25.170Z,,0,,,NaN,,,,,,false,,,,621350.1999998093,621350.0999999046,,621350,,621356.293,8,400,,,
break_continue,html.Screen,4_90_2,2023-09-12T00:44:25.171Z,,0,,,NaN,,,,,,false,,,,621350.4000000954,621350.4000000954,,621350.3000001907,,621356.293,8,400,,,
sequence,flow.Sequence,4_90,2023-09-12T00:44:25.171Z,,0,,,5588.3570000954205,completion,,,,,false,,,,621350.5,621350.4000000954,615745.446,615747.8000001907,615762.043,621356.293,8,400,,,
trial,html.Screen,4_91_0,2023-09-12T00:44:31.716Z,,0,2,,6539.007000190788,response,ISIC_0012740.JPG,5,ISIC_7039203.JPG,ISIC_7039203.JPG,false,0,keypress(z),500,627895.5,627895.3000001907,621339.522,621350.5,621356.293,627902.323,8,400,42,,ISIC_0012740.JPG
break,html.Screen,4_91_1,2023-09-12T00:44:31.716Z,,0,,,NaN,,,,,,false,,,,627896.1999998093,627896,,627895.6999998093,,627902.323,8,400,,,
break_continue,html.Screen,4_91_2,2023-09-12T00:44:31.717Z,,0,,,NaN,,,,,,false,,,,627896.5,627896.4000000954,,627896.3000001907,,627902.323,8,400,,,
sequence,flow.Sequence,4_91,2023-09-12T00:44:31.717Z,,0,,,6540.1070000954205,completion,,,,,false,,,,627896.5999999046,627896.4000000954,621339.522,621350.5,621356.293,627902.323,8,400,,,
trial,html.Screen,4_92_0,2023-09-12T00:44:37.303Z,,0,2,,5580.87699980929,response,ISIC_2717192.JPG,6,ISIC_2690597.JPG,ISIC_2717192.JPG,false,1,keypress(m),500,633483.3000001907,633483.1999998093,627885.777,627896.6999998093,627902.323,633496.744,8,400,43,,ISIC_2690597.JPG
break,html.Screen,4_92_1,2023-09-12T00:44:37.304Z,,0,,,NaN,,,,,,false,,,,633484.1999998093,633483.8000001907,,633483.5,,633496.744,8,400,,,
break_continue,html.Screen,4_92_2,2023-09-12T00:44:37.305Z,,0,,,NaN,,,,,,false,,,,633484.5,633484.5,,633484.3000001907,,633496.744,8,400,,,
sequence,flow.Sequence,4_92,2023-09-12T00:44:37.305Z,,0,,,5582.177000000025,completion,,,,,false,,,,633484.5999999046,633484.5,627885.777,627896.6999998093,627902.323,633496.744,8,400,,,
trial,html.Screen,4_93_0,2023-09-12T00:44:42.427Z,,0,2,,5110.056000190787,response,ISIC_1925590.JPG,5,ISIC_0072271.JPG,ISIC_1925590.JPG,false,1,keypress(m),500,638606.9000000954,638606.8000001907,633479.844,633484.6999998093,633496.744,638623.199,8,400,44,,ISIC_0072271.JPG
break,html.Screen,4_93_1,2023-09-12T00:44:42.428Z,,0,,,NaN,,,,,,false,,,,638607.6999998093,638607.5,,638607.0999999046,,638623.199,8,400,,,
break_continue,html.Screen,4_93_2,2023-09-12T00:44:42.428Z,,0,,,NaN,,,,,,false,,,,638608,638607.9000000954,,638607.6999998093,,638623.199,8,400,,,
sequence,flow.Sequence,4_93,2023-09-12T00:44:42.428Z,,0,,,5111.15600009542,completion,,,,,false,,,,638608.0999999046,638607.9000000954,633479.844,633484.6999998093,633496.744,638623.199,8,400,,,
trial,html.Screen,4_94_0,2023-09-12T00:44:47.935Z,,0,2,,5490.40099990461,response,ISIC_1475598.JPG,5,ISIC_0054982.JPG,ISIC_0054982.JPG,false,0,keypress(z),500,644113.6999998093,644113.5999999046,638606.517,638608.1999998093,638623.199,644117.192,8,400,45,,ISIC_1475598.JPG
break,html.Screen,4_94_1,2023-09-12T00:44:47.936Z,,0,,,NaN,,,,,,false,,,,644114.0999999046,644114.0999999046,,644113.8000001907,,644117.192,8,400,,,
break_continue,html.Screen,4_94_2,2023-09-12T00:44:47.936Z,,0,,,NaN,,,,,,false,,,,644114.3000001907,644114.3000001907,,644114.1999998093,,644117.192,8,400,,,
sequence,flow.Sequence,4_94,2023-09-12T00:44:47.936Z,,0,,,5491.1010001907125,completion,,,,,false,,,,644114.4000000954,644114.3000001907,638606.517,638608.0999999046,638623.199,644117.192,8,400,,,
trial,html.Screen,4_95_0,2023-09-12T00:44:52.389Z,,0,2,,4450.407999904593,response,ISIC_7196249.JPG,4,ISIC_0010235.JPG,ISIC_0010235.JPG,false,0,keypress(z),500,648567.5999999046,648567.5999999046,644100.543,644114.5,644117.192,648592.56,8,400,46,,ISIC_7196249.JPG
break,html.Screen,4_95_1,2023-09-12T00:44:52.389Z,,0,,,NaN,,,,,,false,,,,648568,648568,,648567.8000001907,,648592.56,8,400,,,
break_continue,html.Screen,4_95_2,2023-09-12T00:44:52.390Z,,0,,,NaN,,,,,,false,,,,648568.1999998093,648568.0999999046,,648568.0999999046,,648592.56,8,400,,,
sequence,flow.Sequence,4_95,2023-09-12T00:44:52.390Z,,0,,,4450.907999904593,completion,,,,,false,,,,648568.3000001907,648568.0999999046,644100.543,644114.4000000954,644117.192,648592.56,8,400,,,
trial,html.Screen,4_96_0,2023-09-12T00:44:58.438Z,,0,2,,6024.240000190679,response,ISIC_7215208.JPG,6,ISIC_9169586.JPG,ISIC_9169586.JPG,false,0,keypress(z),500,654616.9000000954,654616.8000001907,648575.891,648568.4000000954,648592.56,654621.286,8,400,47,,ISIC_7215208.JPG
break,html.Screen,4_96_1,2023-09-12T00:44:58.439Z,,0,,,NaN,,,,,,false,,,,654617.5999999046,654617.4000000954,,654617,,654621.286,8,400,,,
break_continue,html.Screen,4_96_2,2023-09-12T00:44:58.439Z,,0,,,NaN,,,,,,false,,,,654617.9000000954,654617.8000001907,,654617.6999998093,,654621.286,8,400,,,
sequence,flow.Sequence,4_96,2023-09-12T00:44:58.439Z,,0,,,6025.240000190679,completion,,,,,false,,,,654618,654617.8000001907,648575.891,648568.3000001907,648592.56,654621.286,8,400,,,
trial,html.Screen,4_97_0,2023-09-12T00:45:05.516Z,,0,2,,7073.014000190771,response,ISIC_0067120.JPG,6,ISIC_1929937.JPG,ISIC_0067120.JPG,false,1,keypress(m),500,661694.4000000954,661694.3000001907,654604.446,654618.0999999046,654621.286,661701.432,8,400,48,,ISIC_1929937.JPG
break,html.Screen,4_97_1,2023-09-12T00:45:05.516Z,,0,,,NaN,,,,,,false,,,,661694.9000000954,661694.8000001907,,661694.5,,661701.432,8,400,,,
break_continue,html.Screen,4_97_2,2023-09-12T00:45:05.517Z,,0,,,NaN,,,,,,false,,,,661695.0999999046,661695.0999999046,,661695,,661701.432,8,400,,,
sequence,flow.Sequence,4_97,2023-09-12T00:45:05.517Z,,0,,,7073.813999904669,completion,,,,,false,,,,661695.3000001907,661695.0999999046,654604.446,654618.0999999046,654621.286,661701.432,8,400,,,
trial,html.Screen,4_98_0,2023-09-12T00:45:11.201Z,,0,2,,5678.267999809235,response,ISIC_3747979.JPG,6,ISIC_0060832.JPG,ISIC_3747979.JPG,false,1,keypress(m),500,667380,667379.6999998093,661684.944,661695.3000001907,661701.432,667395.882,8,400,49,,ISIC_0060832.JPG
break,html.Screen,4_98_1,2023-09-12T00:45:11.203Z,,0,,,NaN,,,,,,false,,,,667381.4000000954,667381.1999998093,,667380.6999998093,,667395.882,8,400,,,
break_continue,html.Screen,4_98_2,2023-09-12T00:45:11.203Z,,0,,,NaN,,,,,,false,,,,667381.8000001907,667381.6999998093,,667381.5,,667395.882,8,400,,,
sequence,flow.Sequence,4_98,2023-09-12T00:45:11.203Z,,0,,,5680.267999809235,completion,,,,,false,,,,667381.9000000954,667381.6999998093,661684.944,661695.3000001907,661701.432,667395.882,8,400,,,
trial,html.Screen,4_99_0,2023-09-12T00:45:15.414Z,,0,2,,4197.018000095384,response,ISIC_4748605.JPG,6,ISIC_0067743.JPG,ISIC_0067743.JPG,false,0,keypress(z),500,671593.0999999046,671592.9000000954,667379.126,667382,667395.882,671620.849,8,400,50,,ISIC_4748605.JPG
break,html.Screen,4_99_1,2023-09-12T00:45:25.429Z,,0,,,10002.78899999999,timeout,,,,,false,,,,681607.6999998093,681607.029,671604.158,671593.1999998093,671620.849,681623.638,8,400,,,
break_continue,html.Screen,4_99_2,2023-09-12T00:45:25.863Z,,0,,,410.06199980922975,response,,,,,false,continue,keypress(Space),,682041.9000000954,682033.6999998093,681607.029,681607.8000001907,681623.638,682057.775,8,400,,,
sequence,flow.Sequence,4_99,2023-09-12T00:45:25.863Z,,0,,,14637.817999809282,completion,,,,,false,,,,682042.0999999046,682033.6999998093,667379.126,667382,667395.882,682057.775,8,400,,,
trial,html.Screen,4_100_0,2023-09-12T00:45:30.938Z,,0,3,,5058.224999999977,response,ISIC_8751106.JPG,4,ISIC_5167209.JPG,ISIC_8751106.JPG,false,1,keypress(m),500,687116.1999998093,687116,682041.078,682042.0999999046,682057.775,687117.57,8,400,1,,ISIC_5167209.JPG
break,html.Screen,4_100_1,2023-09-12T00:45:30.938Z,,0,,,NaN,,,,,,false,,,,687117.0999999046,687116.8000001907,,687116.3000001907,,687117.57,8,400,,,
break_continue,html.Screen,4_100_2,2023-09-12T00:45:30.939Z,,0,,,NaN,,,,,,false,,,,687117.9000000954,687117.5999999046,,687117.3000001907,,687117.57,8,400,,,
sequence,flow.Sequence,4_100,2023-09-12T00:45:30.940Z,,0,,,5059.824999904609,completion,,,,,false,,,,687118.3000001907,687117.5999999046,682041.078,682042.0999999046,682057.775,687117.57,8,400,,,
trial,html.Screen,4_101_0,2023-09-12T00:45:35.118Z,,0,3,,4179.230000190786,response,ISIC_5081382.JPG,5,ISIC_0056849.JPG,ISIC_0056849.JPG,false,0,keypress(z),500,691296.9000000954,691296.8000001907,687100.879,687118.4000000954,687117.57,691309.116,8,400,2,,ISIC_5081382.JPG
break,html.Screen,4_101_1,2023-09-12T00:45:35.119Z,,0,,,NaN,,,,,,false,,,,691297.5,691297.3000001907,,691297.0999999046,,691309.116,8,400,,,
break_continue,html.Screen,4_101_2,2023-09-12T00:45:35.119Z,,0,,,NaN,,,,,,false,,,,691297.8000001907,691297.8000001907,,691297.6999998093,,691309.116,8,400,,,
sequence,flow.Sequence,4_101,2023-09-12T00:45:35.119Z,,0,,,4180.230000190786,completion,,,,,false,,,,691297.9000000954,691297.8000001907,687100.879,687118.3000001907,687117.57,691309.116,8,400,,,
trial,html.Screen,4_102_0,2023-09-12T00:45:39.969Z,,0,3,,4838.784000095329,response,ISIC_1504257.JPG,5,ISIC_3922602.JPG,ISIC_3922602.JPG,false,0,keypress(z),500,696148,696147.9000000954,691292.425,691297.9000000954,691309.116,696151.78,8,400,3,,ISIC_1504257.JPG
break,html.Screen,4_102_1,2023-09-12T00:45:39.970Z,,0,,,NaN,,,,,,false,,,,696148.5,696148.4000000954,,696148.0999999046,,696151.78,8,400,,,
break_continue,html.Screen,4_102_2,2023-09-12T00:45:39.970Z,,0,,,NaN,,,,,,false,,,,696148.5999999046,696148.5999999046,,696148.5,,696151.78,8,400,,,
sequence,flow.Sequence,4_102,2023-09-12T00:45:39.970Z,,0,,,4839.483999904594,completion,,,,,false,,,,696148.6999998093,696148.5999999046,691292.425,691297.9000000954,691309.116,696151.78,8,400,,,
trial,html.Screen,4_103_0,2023-09-12T00:45:45.083Z,,0,3,,5109.520000190707,response,ISIC_6531118.JPG,6,ISIC_7984646.JPG,ISIC_7984646.JPG,false,0,keypress(z),500,701261.4000000954,701261.3000001907,696135.315,696148.8000001907,696151.78,701278.54,8,400,4,,ISIC_6531118.JPG
break,html.Screen,4_103_1,2023-09-12T00:45:45.084Z,,0,,,NaN,,,,,,false,,,,701262.1999998093,701261.8000001907,,701261.5,,701278.54,8,400,,,
break_continue,html.Screen,4_103_2,2023-09-12T00:45:45.084Z,,0,,,NaN,,,,,,false,,,,701262.5999999046,701262.5,,701262.4000000954,,701278.54,8,400,,,
sequence,flow.Sequence,4_103,2023-09-12T00:45:45.084Z,,0,,,5110.719999999972,completion,,,,,false,,,,701262.6999998093,701262.5,696135.315,696148.8000001907,696151.78,701278.54,8,400,,,
trial,html.Screen,4_104_0,2023-09-12T00:45:49.537Z,,0,3,,4436.659999809228,response,ISIC_6777714.JPG,5,ISIC_0034210.JPG,ISIC_0034210.JPG,false,0,keypress(z),500,705715.3000001907,705715.1999998093,701261.785,701262.6999998093,701278.54,705720.421,8,400,5,,ISIC_6777714.JPG
break,html.Screen,4_104_1,2023-09-12T00:45:49.537Z,,0,,,NaN,,,,,,false,,,,705715.8000001907,705715.6999998093,,705715.4000000954,,705720.421,8,400,,,
break_continue,html.Screen,4_104_2,2023-09-12T00:45:49.538Z,,0,,,NaN,,,,,,false,,,,705716,705715.9000000954,,705715.9000000954,,705720.421,8,400,,,
sequence,flow.Sequence,4_104,2023-09-12T00:45:49.538Z,,0,,,4437.36000009533,completion,,,,,false,,,,705716.0999999046,705715.9000000954,701261.785,701262.6999998093,701278.54,705720.421,8,400,,,
trial,html.Screen,4_105_0,2023-09-12T00:45:54.116Z,,0,3,,4574.079000000027,response,ISIC_6737771.JPG,5,ISIC_2100640.JPG,ISIC_2100640.JPG,false,0,keypress(z),500,710294.5999999046,710294.5,705703.732,705716.1999998093,705720.421,710296.013,8,400,6,,ISIC_6737771.JPG
break,html.Screen,4_105_1,2023-09-12T00:45:54.117Z,,0,,,NaN,,,,,,false,,,,710295.1999998093,710295,,710294.8000001907,,710296.013,8,400,,,
break_continue,html.Screen,4_105_2,2023-09-12T00:45:54.117Z,,0,,,NaN,,,,,,false,,,,710295.5,710295.4000000954,,710295.1999998093,,710296.013,8,400,,,
sequence,flow.Sequence,4_105,2023-09-12T00:45:54.117Z,,0,,,4574.979000095394,completion,,,,,false,,,,710295.5,710295.4000000954,705703.732,705716.1999998093,705720.421,710296.013,8,400,,,
trial,html.Screen,4_106_0,2023-09-12T00:45:59.703Z,,0,3,,5585.387000095332,response,ISIC_5111521.JPG,6,ISIC_2002605.JPG,ISIC_5111521.JPG,false,1,keypress(m),500,715881.6999998093,715881.4000000954,710279.391,710295.5999999046,710296.013,715890.333,8,400,7,,ISIC_2002605.JPG
break,html.Screen,4_106_1,2023-09-12T00:45:59.706Z,,0,,,NaN,,,,,,false,,,,715884.5999999046,715883.6999998093,,715882.4000000954,,715890.333,8,400,,,
break_continue,html.Screen,4_106_2,2023-09-12T00:45:59.708Z,,0,,,NaN,,,,,,false,,,,715886,715885.5999999046,,715885,,715890.333,8,400,,,
sequence,flow.Sequence,4_106,2023-09-12T00:45:59.708Z,,0,,,5589.586999904597,completion,,,,,false,,,,715886.5999999046,715885.5999999046,710279.391,710295.5999999046,710296.013,715890.333,8,400,,,
trial,html.Screen,4_107_0,2023-09-12T00:46:04.544Z,,0,3,,4831.766999904648,response,ISIC_0031096.JPG,6,ISIC_1525284.JPG,ISIC_0031096.JPG,false,1,keypress(m),500,720722.0999999046,720722.0999999046,715873.504,715887.0999999046,715890.333,720732.975,8,400,8,,ISIC_1525284.JPG
break,html.Screen,4_107_1,2023-09-12T00:46:04.544Z,,0,,,NaN,,,,,,false,,,,720722.5,720722.4000000954,,720722.1999998093,,720732.975,8,400,,,
break_continue,html.Screen,4_107_2,2023-09-12T00:46:04.544Z,,0,,,NaN,,,,,,false,,,,720722.6999998093,720722.6999998093,,720722.5999999046,,720732.975,8,400,,,
sequence,flow.Sequence,4_107,2023-09-12T00:46:04.544Z,,0,,,4832.366999809281,completion,,,,,false,,,,720722.6999998093,720722.6999998093,715873.504,715886.9000000954,715890.333,720732.975,8,400,,,
trial,html.Screen,4_108_0,2023-09-12T00:46:10.482Z,,0,3,,5927.624999904656,response,ISIC_6759173.JPG,5,ISIC_9894782.JPG,ISIC_6759173.JPG,false,1,keypress(m),500,726660.8000001907,726660.5999999046,720716.27,720722.9000000954,720732.975,726694.665,8,400,9,,ISIC_9894782.JPG
break,html.Screen,4_108_1,2023-09-12T00:46:10.483Z,,0,,,NaN,,,,,,false,,,,726661.8000001907,726661.4000000954,,726661.0999999046,,726694.665,8,400,,,
break_continue,html.Screen,4_108_2,2023-09-12T00:46:10.484Z,,0,,,NaN,,,,,,false,,,,726662.1999998093,726662.0999999046,,726662,,726694.665,8,400,,,
sequence,flow.Sequence,4_108,2023-09-12T00:46:10.484Z,,0,,,5929.124999904656,completion,,,,,false,,,,726662.4000000954,726662.0999999046,720716.27,720722.8000001907,720732.975,726694.665,8,400,,,
trial,html.Screen,4_109_0,2023-09-12T00:46:15.894Z,,0,3,,5377.23500009533,response,ISIC_7145788.JPG,5,ISIC_0067458.JPG,ISIC_0067458.JPG,false,0,keypress(z),500,732072,732071.9000000954,726677.928,726662.4000000954,726694.665,732105.117,8,400,10,,ISIC_7145788.JPG
break,html.Screen,4_109_1,2023-09-12T00:46:15.894Z,,0,,,NaN,,,,,,false,,,,732072.5999999046,732072.5,,732072.1999998093,,732105.117,8,400,,,
break_continue,html.Screen,4_109_2,2023-09-12T00:46:15.894Z,,0,,,NaN,,,,,,false,,,,732073,732072.9000000954,,732072.6999998093,,732105.117,8,400,,,
sequence,flow.Sequence,4_109,2023-09-12T00:46:15.895Z,,0,,,5378.23500009533,completion,,,,,false,,,,732073.0999999046,732072.9000000954,726677.928,726662.4000000954,726694.665,732105.117,8,400,,,
trial,html.Screen,4_110_0,2023-09-12T00:46:20.922Z,,0,3,,4995.482999904663,response,ISIC_0006118.JPG,5,ISIC_6448312.JPG,ISIC_6448312.JPG,false,0,keypress(z),500,737100.8000001907,737100.5999999046,732088.435,732073.3000001907,732105.117,737114.92,8,400,11,,ISIC_0006118.JPG
break,html.Screen,4_110_1,2023-09-12T00:46:20.923Z,,0,,,NaN,,,,,,false,,,,737101.8000001907,737101.4000000954,,737101,,737114.92,8,400,,,
break_continue,html.Screen,4_110_2,2023-09-12T00:46:20.924Z,,0,,,NaN,,,,,,false,,,,737102.0999999046,737102,,737101.9000000954,,737114.92,8,400,,,
sequence,flow.Sequence,4_110,2023-09-12T00:46:20.924Z,,0,,,4996.883000000031,completion,,,,,false,,,,737102.4000000954,737102,732088.435,732073.3000001907,732105.117,737114.92,8,400,,,
trial,html.Screen,4_111_0,2023-09-12T00:46:25.999Z,,0,3,,5062.179999904591,response,ISIC_7110699.JPG,5,ISIC_4907595.JPG,ISIC_7110699.JPG,false,1,keypress(m),500,742177.3000001907,742177.0999999046,737098.177,737102.5,737114.92,742191.367,8,400,12,,ISIC_4907595.JPG
break,html.Screen,4_111_1,2023-09-12T00:46:25.999Z,,0,,,NaN,,,,,,false,,,,742177.5999999046,742177.5999999046,,742177.3000001907,,742191.367,8,400,,,
break_continue,html.Screen,4_111_2,2023-09-12T00:46:25.999Z,,0,,,NaN,,,,,,false,,,,742177.9000000954,742177.9000000954,,742177.8000001907,,742191.367,8,400,,,
sequence,flow.Sequence,4_111,2023-09-12T00:46:25.999Z,,0,,,5062.9800000953255,completion,,,,,false,,,,742178,742177.9000000954,737098.177,737102.5,737114.92,742191.367,8,400,,,
trial,html.Screen,4_112_0,2023-09-12T00:46:30.727Z,,0,3,,4713.933000190766,response,ISIC_0032960.JPG,5,ISIC_8024841.JPG,ISIC_0032960.JPG,false,1,keypress(m),500,746905.5,746905.3000001907,742174.907,742178,742191.367,746917.349,8,400,13,,ISIC_8024841.JPG
break,html.Screen,4_112_1,2023-09-12T00:46:30.727Z,,0,,,NaN,,,,,,false,,,,746906,746905.8000001907,,746905.5999999046,,746917.349,8,400,,,
break_continue,html.Screen,4_112_2,2023-09-12T00:46:30.728Z,,0,,,NaN,,,,,,false,,,,746906.0999999046,746906.0999999046,,746906,,746917.349,8,400,,,
sequence,flow.Sequence,4_112,2023-09-12T00:46:30.728Z,,0,,,4714.732999904663,completion,,,,,false,,,,746906.1999998093,746906.0999999046,742174.907,742178,742191.367,746917.349,8,400,,,
trial,html.Screen,4_113_0,2023-09-12T00:46:36.042Z,,0,3,,5302.951000190689,response,ISIC_0059093.JPG,6,ISIC_0061300.JPG,ISIC_0059093.JPG,false,1,keypress(m),500,752220.4000000954,752220.3000001907,746900.648,746906.1999998093,746917.349,752244.247,8,400,14,,ISIC_0061300.JPG
break,html.Screen,4_113_1,2023-09-12T00:46:36.042Z,,0,,,NaN,,,,,,false,,,,752220.9000000954,752220.6999998093,,752220.4000000954,,752244.247,8,400,,,
break_continue,html.Screen,4_113_2,2023-09-12T00:46:36.043Z,,0,,,NaN,,,,,,false,,,,752221.1999998093,752221.0999999046,,752221,,752244.247,8,400,,,
sequence,flow.Sequence,4_113,2023-09-12T00:46:36.043Z,,0,,,5303.750999904587,completion,,,,,false,,,,752221.4000000954,752221.0999999046,746900.648,746906.1999998093,746917.349,752244.247,8,400,,,
trial,html.Screen,4_114_0,2023-09-12T00:46:40.124Z,,0,3,,4057.753000000026,response,ISIC_0070927.JPG,5,ISIC_3820669.JPG,ISIC_0070927.JPG,false,1,keypress(m),500,756302.3000001907,756302,752227.664,752221.4000000954,752244.247,756318.861,8,400,15,,ISIC_3820669.JPG
break,html.Screen,4_114_1,2023-09-12T00:46:40.124Z,,0,,,NaN,,,,,,false,,,,756302.9000000954,756302.8000001907,,756302.4000000954,,756318.861,8,400,,,
break_continue,html.Screen,4_114_2,2023-09-12T00:46:40.125Z,,0,,,NaN,,,,,,false,,,,756303.1999998093,756303.1999998093,,756303.0999999046,,756318.861,8,400,,,
sequence,flow.Sequence,4_114,2023-09-12T00:46:40.125Z,,0,,,4058.952999809291,completion,,,,,false,,,,756303.4000000954,756303.1999998093,752227.664,752221.4000000954,752244.247,756318.861,8,400,,,
trial,html.Screen,4_115_0,2023-09-12T00:46:44.910Z,,0,3,,4769.838999809232,response,ISIC_0024261.JPG,5,ISIC_0502582.JPG,ISIC_0502582.JPG,false,0,keypress(z),500,761088.8000001907,761088.6999998093,756302.195,756303.5,756318.861,761094.85,8,400,16,,ISIC_0024261.JPG
break,html.Screen,4_115_1,2023-09-12T00:46:44.911Z,,0,,,NaN,,,,,,false,,,,761089.0999999046,761089.0999999046,,761088.9000000954,,761094.85,8,400,,,
break_continue,html.Screen,4_115_2,2023-09-12T00:46:44.911Z,,0,,,NaN,,,,,,false,,,,761089.3000001907,761089.3000001907,,761089.3000001907,,761094.85,8,400,,,
sequence,flow.Sequence,4_115,2023-09-12T00:46:44.911Z,,0,,,4770.439000190701,completion,,,,,false,,,,761089.4000000954,761089.3000001907,756302.195,756303.5,756318.861,761094.85,8,400,,,
trial,html.Screen,4_116_0,2023-09-12T00:46:51.233Z,,0,3,,6316.150000000023,response,ISIC_2975167.JPG,6,ISIC_8714502.JPG,ISIC_2975167.JPG,false,1,keypress(m),500,767411,767411,761078.515,761089.5,761094.85,767423.782,8,400,17,,ISIC_8714502.JPG
break,html.Screen,4_116_1,2023-09-12T00:46:51.233Z,,0,,,NaN,,,,,,false,,,,767411.5,767411.4000000954,,767411.0999999046,,767423.782,8,400,,,
break_continue,html.Screen,4_116_2,2023-09-12T00:46:51.234Z,,0,,,NaN,,,,,,false,,,,767411.8000001907,767411.6999998093,,767411.5999999046,,767423.782,8,400,,,
sequence,flow.Sequence,4_116,2023-09-12T00:46:51.234Z,,0,,,6316.849999809288,completion,,,,,false,,,,767412,767411.6999998093,761078.515,761089.5,761094.85,767423.782,8,400,,,
trial,html.Screen,4_117_0,2023-09-12T00:46:56.579Z,,0,3,,5333.7179999999935,response,ISIC_0056055.JPG,5,ISIC_6298228.JPG,ISIC_0056055.JPG,false,1,keypress(m),500,772757.5999999046,772757.5,767407.127,767412.0999999046,767423.782,772767.552,8,400,18,,ISIC_6298228.JPG
break,html.Screen,4_117_1,2023-09-12T00:46:56.580Z,,0,,,NaN,,,,,,false,,,,772758.0999999046,772757.9000000954,,772757.6999998093,,772767.552,8,400,,,
break_continue,html.Screen,4_117_2,2023-09-12T00:46:56.580Z,,0,,,NaN,,,,,,false,,,,772758.3000001907,772758.1999998093,,772758.0999999046,,772767.552,8,400,,,
sequence,flow.Sequence,4_117,2023-09-12T00:46:56.580Z,,0,,,5334.417999809259,completion,,,,,false,,,,772758.3000001907,772758.1999998093,767407.127,767412,767423.782,772767.552,8,400,,,
trial,html.Screen,4_118_0,2023-09-12T00:47:01.258Z,,0,3,,4668.047999904607,response,ISIC_0002622.JPG,5,ISIC_1615485.JPG,ISIC_0002622.JPG,false,1,keypress(m),500,777435.6999998093,777435.5999999046,772750.961,772758.4000000954,772767.552,777443.422,8,400,19,,ISIC_1615485.JPG
break,html.Screen,4_118_1,2023-09-12T00:47:01.258Z,,0,,,NaN,,,,,,false,,,,777436.1999998093,777436.0999999046,,777435.8000001907,,777443.422,8,400,,,
break_continue,html.Screen,4_118_2,2023-09-12T00:47:01.258Z,,0,,,NaN,,,,,,false,,,,777436.5,777436.4000000954,,777436.3000001907,,777443.422,8,400,,,
sequence,flow.Sequence,4_118,2023-09-12T00:47:01.258Z,,0,,,4668.848000095342,completion,,,,,false,,,,777436.5999999046,777436.4000000954,772750.961,772758.4000000954,772767.552,777443.422,8,400,,,
trial,html.Screen,4_119_0,2023-09-12T00:47:06.141Z,,0,3,,4875.277999809245,response,ISIC_0028114.JPG,5,ISIC_0011848.JPG,ISIC_0011848.JPG,false,0,keypress(z),500,782318.8000001907,782318.6999998093,777426.667,777436.5999999046,777443.422,782336.145,8,400,20,,ISIC_0028114.JPG
break,html.Screen,4_119_1,2023-09-12T00:47:06.142Z,,0,,,NaN,,,,,,false,,,,782319.8000001907,782319.4000000954,,782319,,782336.145,8,400,,,
break_continue,html.Screen,4_119_2,2023-09-12T00:47:06.142Z,,0,,,NaN,,,,,,false,,,,782320.5,782320.4000000954,,782320,,782336.145,8,400,,,
sequence,flow.Sequence,4_119,2023-09-12T00:47:06.142Z,,0,,,4876.978000095347,completion,,,,,false,,,,782320.6999998093,782320.4000000954,777426.667,777436.5999999046,777443.422,782336.145,8,400,,,
trial,html.Screen,4_120_0,2023-09-12T00:47:11.504Z,,0,3,,5346.0549998092465,response,ISIC_0027152.JPG,5,ISIC_5376036.JPG,ISIC_0027152.JPG,false,1,keypress(m),500,787682.4000000954,787682.1999998093,782319.568,782320.8000001907,782336.145,787696.748,8,400,21,,ISIC_5376036.JPG
break,html.Screen,4_120_1,2023-09-12T00:47:11.505Z,,0,,,NaN,,,,,,false,,,,787683.0999999046,787682.9000000954,,787682.5,,787696.748,8,400,,,
break_continue,html.Screen,4_120_2,2023-09-12T00:47:11.505Z,,0,,,NaN,,,,,,false,,,,787683.5,787683.4000000954,,787683.1999998093,,787696.748,8,400,,,
sequence,flow.Sequence,4_120,2023-09-12T00:47:11.505Z,,0,,,5347.255000095349,completion,,,,,false,,,,787683.5999999046,787683.4000000954,782319.568,782320.6999998093,782336.145,787696.748,8,400,,,
trial,html.Screen,4_121_0,2023-09-12T00:47:16.389Z,,0,3,,4870.552000190713,response,ISIC_0024756.JPG,5,ISIC_2779787.JPG,ISIC_2779787.JPG,false,0,keypress(z),500,792567.4000000954,792567.3000001907,787680.088,787683.6999998093,787696.748,792572.834,8,400,22,,ISIC_0024756.JPG
break,html.Screen,4_121_1,2023-09-12T00:47:16.390Z,,0,,,NaN,,,,,,false,,,,792568.1999998093,792567.8000001907,,792567.5,,792572.834,8,400,,,
break_continue,html.Screen,4_121_2,2023-09-12T00:47:16.390Z,,0,,,NaN,,,,,,false,,,,792568.5999999046,792568.5,,792568.3000001907,,792572.834,8,400,,,
sequence,flow.Sequence,4_121,2023-09-12T00:47:16.391Z,,0,,,4871.751999999979,completion,,,,,false,,,,792568.6999998093,792568.5,787680.088,787683.6999998093,787696.748,792572.834,8,400,,,
trial,html.Screen,4_122_0,2023-09-12T00:47:20.872Z,,0,3,,4477.566000095336,response,ISIC_0058206.JPG,5,ISIC_0016094.JPG,ISIC_0058206.JPG,false,1,keypress(m),500,797050.5,797050.4000000954,792556.225,792568.8000001907,792572.834,797064.857,8,400,23,,ISIC_0016094.JPG
break,html.Screen,4_122_1,2023-09-12T00:47:20.873Z,,0,,,NaN,,,,,,false,,,,797051,797050.9000000954,,797050.6999998093,,797064.857,8,400,,,
break_continue,html.Screen,4_122_2,2023-09-12T00:47:20.873Z,,0,,,NaN,,,,,,false,,,,797051.1999998093,797051.0999999046,,797051.0999999046,,797064.857,8,400,,,
sequence,flow.Sequence,4_122,2023-09-12T00:47:20.873Z,,0,,,4478.265999904601,completion,,,,,false,,,,797051.3000001907,797051.0999999046,792556.225,792568.8000001907,792572.834,797064.857,8,400,,,
trial,html.Screen,4_123_0,2023-09-12T00:47:25.665Z,,0,3,,4777.742999904673,response,ISIC_4177043.JPG,5,ISIC_9713706.JPG,ISIC_4177043.JPG,false,1,keypress(m),500,801842.9000000954,801842.5999999046,797048.104,797051.4000000954,797064.857,801857.547,8,400,24,,ISIC_9713706.JPG
break,html.Screen,4_123_1,2023-09-12T00:47:25.666Z,,0,,,NaN,,,,,,false,,,,801843.9000000954,801843.5,,801843.0999999046,,801857.547,8,400,,,
break_continue,html.Screen,4_123_2,2023-09-12T00:47:25.666Z,,0,,,NaN,,,,,,false,,,,801844.3000001907,801844.1999998093,,801844,,801857.547,8,400,,,
sequence,flow.Sequence,4_123,2023-09-12T00:47:25.666Z,,0,,,4779.342999809305,completion,,,,,false,,,,801844.5,801844.1999998093,797048.104,797051.3000001907,797064.857,801857.547,8,400,,,
trial,html.Screen,4_124_0,2023-09-12T00:47:30.568Z,,0,3,,4888.253000190714,response,ISIC_3045939.JPG,6,ISIC_7278885.JPG,ISIC_3045939.JPG,false,1,keypress(m),500,806745.9000000954,806745.8000001907,801840.896,801844.6999998093,801857.547,806750.404,8,400,25,,ISIC_7278885.JPG
break,html.Screen,4_124_1,2023-09-12T00:47:30.568Z,,0,,,NaN,,,,,,false,,,,806746.3000001907,806746.1999998093,,806746,,806750.404,8,400,,,
break_continue,html.Screen,4_124_2,2023-09-12T00:47:30.568Z,,0,,,NaN,,,,,,false,,,,806746.5,806746.4000000954,,806746.4000000954,,806750.404,8,400,,,
sequence,flow.Sequence,4_124,2023-09-12T00:47:30.568Z,,0,,,4888.853000095347,completion,,,,,false,,,,806746.5999999046,806746.4000000954,801840.896,801844.5999999046,801857.547,806750.404,8,400,,,
trial,html.Screen,4_125_0,2023-09-12T00:47:35.902Z,,0,3,,5329.396000190754,response,ISIC_0006717.JPG,5,ISIC_0033181.JPG,ISIC_0033181.JPG,false,0,keypress(z),500,812080,812079.8000001907,806733.755,806746.5999999046,806750.404,812094.076,8,400,26,,ISIC_0006717.JPG
break,html.Screen,4_125_1,2023-09-12T00:47:35.903Z,,0,,,NaN,,,,,,false,,,,812080.8000001907,812080.5,,812080.1999998093,,812094.076,8,400,,,
break_continue,html.Screen,4_125_2,2023-09-12T00:47:35.903Z,,0,,,NaN,,,,,,false,,,,812081.0999999046,812081.0999999046,,812080.9000000954,,812094.076,8,400,,,
