sender,sender_type,sender_id,timestamp,meta,,blockNo,condition,duration,ended_on,img_left,img_reveal,img_right,loser,practice,response,response_action,selection_duration,time_commit,time_end,time_render,time_run,time_show,time_switch,total_blocks,total_trials,trialNo,url,winner
informed_consent,html.Screen,0,2023-09-07T23:19:07.665Z,"{""labjs_version"":""20.2.4"",""labjs_build"":{""flavor"":""development"",""commit"":""f5b4a49f956347addd546a832a3327688c2c0fef""},""location"":""https://labjs.felixhenninger.com/api/labjs_preview/index.html"",""userAgent"":""Mozilla/5.0 (Windows NT 10.0; Win64; x64) AppleWebKit/537.36 (KHTML, like Gecko) Chrome/116.0.0.0 Safari/537.36"",""platform"":""Win32"",""language"":""en-AU"",""locale"":""en-US"",""timeZone"":""America/Chicago"",""timezoneOffset"":300,""screen_width"":2560,""screen_height"":1440,""scroll_width"":1296,""scroll_height"":688,""window_innerWidth"":1296,""window_innerHeight"":736,""devicePixelRatio"":1}",,,,5389.5260001430515,response,,,,,,consent,click button,,6046.400000095367,6045.600000143051,639.415,856.4000000953674,656.074,5849.521,,,,{},
Welcome,html.Screen,1,2023-09-07T23:19:09.275Z,,,,irregular,1806.179000047684,response,,,,,,continue,click button,,7656.400000095367,7655.700000047684,5832.837,6046.600000143051,5849.521,7452.703,,,,,
trial,html.Screen,2_0_0,2023-09-07T23:19:14.964Z,,0,0,,5892.497000047683,response,ISIC_4679428.JPG,,ISIC_0061792.JPG,ISIC_0061792.JPG,true,0,keypress(z),500,13345.300000190735,13345.200000047684,7435.929,7656.5,7452.703,13130.427,1,6,1,,ISIC_4679428.JPG
sequence,flow.Sequence,2_0,2023-09-07T23:19:14.964Z,,0,,,5892.497000047683,completion,,,,,true,,,,13345.700000047684,13345.200000047684,7435.929,7656.5,7452.703,13130.427,1,6,,,
trial,html.Screen,2_1_0,2023-09-07T23:19:18.022Z,,0,0,,3272.6730001430515,response,ISIC_0776486.JPG,,ISIC_5199497.JPG,ISIC_0776486.JPG,true,1,keypress(m),500,16403.300000190735,16403.10000014305,13113.672,13345.800000190735,13130.427,16186.246,1,6,2,,ISIC_5199497.JPG
sequence,flow.Sequence,2_1,2023-09-07T23:19:18.022Z,,0,,,3272.6730001430515,completion,,,,,true,,,,16403.60000014305,16403.10000014305,13113.672,13345.800000190735,13130.427,16186.246,1,6,,,
trial,html.Screen,2_2_0,2023-09-07T23:19:21.771Z,,0,0,,3966.1540000953682,response,ISIC_2556187.JPG,,ISIC_8575776.JPG,ISIC_8575776.JPG,true,0,keypress(z),500,20152.60000014305,20152.400000095367,16169.745,16403.800000190735,16186.246,19943.693,1,6,3,,ISIC_2556187.JPG
sequence,flow.Sequence,2_2,2023-09-07T23:19:21.771Z,,0,,,3966.1540000953682,completion,,,,,true,,,,20152.700000047684,20152.400000095367,16169.745,16403.700000047684,16186.246,19943.693,1,6,,,
trial,html.Screen,2_3_0,2023-09-07T23:19:25.523Z,,0,0,,3960.907000143052,response,ISIC_9238366.JPG,,ISIC_8141769.JPG,ISIC_9238366.JPG,true,1,keypress(m),500,23904.700000047684,23904.60000014305,19927.056,20152.800000190735,19943.693,23700.925,1,6,4,,ISIC_8141769.JPG
sequence,flow.Sequence,2_3,2023-09-07T23:19:25.523Z,,0,,,3960.907000143052,completion,,,,,true,,,,23904.900000095367,23904.60000014305,19927.056,20152.800000190735,19943.693,23700.925,1,6,,,
trial,html.Screen,2_4_0,2023-09-07T23:19:28.488Z,,0,0,,3168.675000143052,response,ISIC_9959593.JPG,,ISIC_8949026.JPG,ISIC_8949026.JPG,true,0,keypress(z),500,26869.800000190735,26869.60000014305,23684.174,23905.10000014305,23700.925,26656.682,1,6,5,,ISIC_9959593.JPG
sequence,flow.Sequence,2_4,2023-09-07T23:19:28.488Z,,0,,,3168.675000143052,completion,,,,,true,,,,26869.900000095367,26869.60000014305,23684.174,23905,23700.925,26656.682,1,6,,,
trial,html.Screen,2_5_0,2023-09-07T23:19:33.145Z,,0,0,,4870.518000047683,response,ISIC_0460240.JPG,,ISIC_0010479.JPG,ISIC_0460240.JPG,true,1,keypress(m),500,31527.400000095367,31527.200000047684,26640.143,26870,26656.682,31315.741,1,6,6,,ISIC_0010479.JPG
sequence,flow.Sequence,2_5,2023-09-07T23:19:33.146Z,,0,,,4870.518000047683,completion,,,,,true,,,,31527.400000095367,31527.200000047684,26640.143,26870,26656.682,31315.741,1,6,,,
loop,flow.Loop,2,2023-09-07T23:19:33.146Z,,,,,24074.497000047682,completion,,,,,true,,,,31527.60000014305,31527.200000047684,7435.929,7656.5,7452.703,31315.741,1,6,,,
exp_instructions,html.Screen,3,2023-09-07T23:19:35.342Z,,,,,2407.459000047682,response,,,,,,continue,keypress(Space),,33723.700000047684,33723.200000047684,31299.045,31527.60000014305,31315.741,33520.062,,,,,
trial,html.Screen,4_0_0,2023-09-07T23:19:38.275Z,,0,1,,3136.938000000002,response,ISIC_2276141.JPG,6,ISIC_5170766.JPG,ISIC_5170766.JPG,false,0,keypress(z),500,36657.10000014305,36657,33503.392,33723.90000009537,33520.062,36442.388,8,400,1,,ISIC_2276141.JPG
break,html.Screen,4_0_1,2023-09-07T23:19:38.276Z,,0,,,NaN,,,,,,false,,,,36657.700000047684,36657.5,,36657.200000047684,,36442.388,8,400,,,
break_continue,html.Screen,4_0_2,2023-09-07T23:19:38.276Z,,0,,,NaN,,,,,,false,,,,36657.90000009537,36657.90000009537,,36657.800000190735,,36442.388,8,400,,,
sequence,flow.Sequence,4_0,2023-09-07T23:19:38.276Z,,0,,,3137.8380000953694,completion,,,,,false,,,,36658,36657.90000009537,33503.392,33723.90000009537,33520.062,36442.388,8,400,,,
trial,html.Screen,4_1_0,2023-09-07T23:19:42.246Z,,0,1,,4185.712000143052,response,ISIC_0027971.JPG,4,ISIC_0002566.JPG,ISIC_0002566.JPG,false,0,keypress(z),500,40628.300000190735,40628.10000014305,36425.681,36658.10000014305,36442.388,40416.798,8,400,2,,ISIC_0027971.JPG
break,html.Screen,4_1_1,2023-09-07T23:19:42.247Z,,0,,,NaN,,,,,,false,,,,40628.700000047684,40628.5,,40628.300000190735,,40416.798,8,400,,,
break_continue,html.Screen,4_1_2,2023-09-07T23:19:42.247Z,,0,,,NaN,,,,,,false,,,,40629.300000190735,40628.800000190735,,40628.800000190735,,40416.798,8,400,,,
sequence,flow.Sequence,4_1,2023-09-07T23:19:42.248Z,,0,,,4186.412000190736,completion,,,,,false,,,,40629.40000009537,40628.800000190735,36425.681,36658.10000014305,36442.388,40416.798,8,400,,,
trial,html.Screen,4_2_0,2023-09-07T23:19:46.105Z,,0,1,,4069.602000095365,response,ISIC_0000180.JPG,4,ISIC_0066200.JPG,ISIC_0000180.JPG,false,1,keypress(m),500,44486.5,44486.40000009537,40400.293,40629.40000009537,40416.798,44291.097,8,400,3,,ISIC_0066200.JPG
break,html.Screen,4_2_1,2023-09-07T23:19:46.105Z,,0,,,NaN,,,,,,false,,,,44487,44486.800000190735,,44486.60000014305,,44291.097,8,400,,,
break_continue,html.Screen,4_2_2,2023-09-07T23:19:46.105Z,,0,,,NaN,,,,,,false,,,,44487.10000014305,44487,,44487,,44291.097,8,400,,,
sequence,flow.Sequence,4_2,2023-09-07T23:19:46.105Z,,0,,,4070.2019999999975,completion,,,,,false,,,,44487.200000047684,44487,40400.293,40629.40000009537,40416.798,44291.097,8,400,,,
trial,html.Screen,4_3_0,2023-09-07T23:19:50.107Z,,0,1,,4197.00300014305,response,ISIC_0028444.JPG,5,ISIC_2232442.JPG,ISIC_0028444.JPG,false,1,keypress(m),500,48488.200000047684,48488.10000014305,44274.392,44487.200000047684,44291.097,48282.093,8,400,4,,ISIC_2232442.JPG
break,html.Screen,4_3_1,2023-09-07T23:19:50.107Z,,0,,,NaN,,,,,,false,,,,48488.700000047684,48488.5,,48488.300000190735,,48282.093,8,400,,,
break_continue,html.Screen,4_3_2,2023-09-07T23:19:50.108Z,,0,,,NaN,,,,,,false,,,,48488.90000009537,48488.800000190735,,48488.800000190735,,48282.093,8,400,,,
sequence,flow.Sequence,4_3,2023-09-07T23:19:50.108Z,,0,,,4197.703000190733,completion,,,,,false,,,,48489,48488.800000190735,44274.392,44487.200000047684,44291.097,48282.093,8,400,,,
trial,html.Screen,4_4_0,2023-09-07T23:19:53.517Z,,0,1,,3616.3070000953667,response,ISIC_0000553.JPG,4,ISIC_6488658.JPG,ISIC_6488658.JPG,false,0,keypress(z),500,51898.5,51898.40000009537,48265.343,48489,48282.093,51688.853,8,400,5,,ISIC_0000553.JPG
break,html.Screen,4_4_1,2023-09-07T23:19:53.518Z,,0,,,NaN,,,,,,false,,,,51899.10000014305,51898.90000009537,,51898.700000047684,,51688.853,8,400,,,
break_continue,html.Screen,4_4_2,2023-09-07T23:19:53.518Z,,0,,,NaN,,,,,,false,,,,51899.5,51899.40000009537,,51899.200000047684,,51688.853,8,400,,,
sequence,flow.Sequence,4_4,2023-09-07T23:19:53.518Z,,0,,,3617.3070000953667,completion,,,,,false,,,,51899.60000014305,51899.40000009537,48265.343,48489,48282.093,51688.853,8,400,,,
trial,html.Screen,4_5_0,2023-09-07T23:19:57.199Z,,0,1,,3891.646999999997,response,ISIC_0033365.JPG,5,ISIC_4619789.JPG,ISIC_4619789.JPG,false,0,keypress(z),500,55580.700000047684,55580.5,51672.14,51899.60000014305,51688.853,55362.529,8,400,6,,ISIC_0033365.JPG
break,html.Screen,4_5_1,2023-09-07T23:19:57.200Z,,0,,,NaN,,,,,,false,,,,55581,55580.90000009537,,55580.700000047684,,55362.529,8,400,,,
break_continue,html.Screen,4_5_2,2023-09-07T23:19:57.200Z,,0,,,NaN,,,,,,false,,,,55581.200000047684,55581.10000014305,,55581,,55362.529,8,400,,,
sequence,flow.Sequence,4_5,2023-09-07T23:19:57.200Z,,0,,,3892.2470001430484,completion,,,,,false,,,,55581.300000190735,55581.10000014305,51672.14,51899.60000014305,51688.853,55362.529,8,400,,,
trial,html.Screen,4_6_0,2023-09-07T23:20:02.689Z,,0,1,,5707.671000047681,response,ISIC_0068234.JPG,5,ISIC_5152000.JPG,ISIC_5152000.JPG,false,0,keypress(z),500,61070.300000190735,61070.200000047684,55345.823,55581.40000009537,55362.529,60856.554,8,400,7,,ISIC_0068234.JPG
break,html.Screen,4_6_1,2023-09-07T23:20:02.689Z,,0,,,NaN,,,,,,false,,,,61070.700000047684,61070.700000047684,,61070.40000009537,,60856.554,8,400,,,
break_continue,html.Screen,4_6_2,2023-09-07T23:20:02.690Z,,0,,,NaN,,,,,,false,,,,61070.90000009537,61070.90000009537,,61070.700000047684,,60856.554,8,400,,,
sequence,flow.Sequence,4_6,2023-09-07T23:20:02.690Z,,0,,,5708.371000095365,completion,,,,,false,,,,61071,61070.90000009537,55345.823,55581.40000009537,55362.529,60856.554,8,400,,,
trial,html.Screen,4_7_0,2023-09-07T23:20:07.480Z,,0,1,,5004.646000047687,response,ISIC_5110133.JPG,5,ISIC_7503950.JPG,ISIC_7503950.JPG,false,0,keypress(z),500,65861.5,65861.20000004768,60840.029,61071,60856.554,65649.274,8,400,8,,ISIC_5110133.JPG
break,html.Screen,4_7_1,2023-09-07T23:20:07.482Z,,0,,,NaN,,,,,,false,,,,65863.10000014305,65862.60000014305,,65861.90000009537,,65649.274,8,400,,,
break_continue,html.Screen,4_7_2,2023-09-07T23:20:07.483Z,,0,,,NaN,,,,,,false,,,,65864,65863.80000019073,,65863.30000019073,,65649.274,8,400,,,
sequence,flow.Sequence,4_7,2023-09-07T23:20:07.483Z,,0,,,5007.246000190738,completion,,,,,false,,,,65864.20000004768,65863.80000019073,60840.029,61071,60856.554,65649.274,8,400,,,
trial,html.Screen,4_8_0,2023-09-07T23:20:11.230Z,,0,1,,3962.225999999995,response,ISIC_4347535.JPG,6,ISIC_0014932.JPG,ISIC_4347535.JPG,false,1,keypress(m),500,69611.60000014305,69611.5,65632.703,65864.40000009537,65649.274,69406.512,8,400,9,,ISIC_0014932.JPG
break,html.Screen,4_8_1,2023-09-07T23:20:11.231Z,,0,,,NaN,,,,,,false,,,,69612.20000004768,69612,,69611.70000004768,,69406.512,8,400,,,
break_continue,html.Screen,4_8_2,2023-09-07T23:20:11.231Z,,0,,,NaN,,,,,,false,,,,69612.40000009537,69612.30000019073,,69612.20000004768,,69406.512,8,400,,,
sequence,flow.Sequence,4_8,2023-09-07T23:20:11.231Z,,0,,,3963.02600019073,completion,,,,,false,,,,69612.5,69612.30000019073,65632.703,65864.40000009537,65649.274,69406.512,8,400,,,
trial,html.Screen,4_9_0,2023-09-07T23:20:14.976Z,,0,1,,3951.0880001430487,response,ISIC_0069481.JPG,5,ISIC_0032396.JPG,ISIC_0069481.JPG,false,1,keypress(m),500,73357.70000004768,73357.60000014305,69390.061,69612.60000014305,69406.512,73147.184,8,400,10,,ISIC_0032396.JPG
break,html.Screen,4_9_1,2023-09-07T23:20:14.977Z,,0,,,NaN,,,,,,false,,,,73358.5,73358.10000014305,,73357.90000009537,,73147.184,8,400,,,
break_continue,html.Screen,4_9_2,2023-09-07T23:20:14.978Z,,0,,,NaN,,,,,,false,,,,73358.80000019073,73358.80000019073,,73358.60000014305,,73147.184,8,400,,,
sequence,flow.Sequence,4_9,2023-09-07T23:20:14.978Z,,0,,,3952.2880001907324,completion,,,,,false,,,,73358.90000009537,73358.80000019073,69390.061,69612.60000014305,69406.512,73147.184,8,400,,,
trial,html.Screen,4_10_0,2023-09-07T23:20:18.812Z,,0,1,,4045.4160001430573,response,ISIC_0010521.JPG,6,ISIC_1388297.JPG,ISIC_1388297.JPG,false,0,keypress(z),500,77192.70000004768,77192.60000014305,73130.628,73359,73147.184,76987.941,8,400,11,,ISIC_0010521.JPG
break,html.Screen,4_10_1,2023-09-07T23:20:18.812Z,,0,,,NaN,,,,,,false,,,,77193.30000019073,77193.10000014305,,77192.90000009537,,76987.941,8,400,,,
break_continue,html.Screen,4_10_2,2023-09-07T23:20:18.812Z,,0,,,NaN,,,,,,false,,,,77193.5,77193.5,,77193.40000009537,,76987.941,8,400,,,
sequence,flow.Sequence,4_10,2023-09-07T23:20:18.812Z,,0,,,4046.316000000006,completion,,,,,false,,,,77193.5,77193.5,73130.628,73359,73147.184,76987.941,8,400,,,
trial,html.Screen,4_11_0,2023-09-07T23:20:23.310Z,,0,1,,4703.359000190729,response,ISIC_0001129.JPG,5,ISIC_0004352.JPG,ISIC_0004352.JPG,false,0,keypress(z),500,81691.40000009537,81691.30000019073,76971.218,77193.70000004768,76987.941,81480.173,8,400,12,,ISIC_0001129.JPG
break,html.Screen,4_11_1,2023-09-07T23:20:23.311Z,,0,,,NaN,,,,,,false,,,,81692.10000014305,81691.80000019073,,81691.5,,81480.173,8,400,,,
break_continue,html.Screen,4_11_2,2023-09-07T23:20:23.311Z,,0,,,NaN,,,,,,false,,,,81692.40000009537,81692.30000019073,,81692.20000004768,,81480.173,8,400,,,
sequence,flow.Sequence,4_11,2023-09-07T23:20:23.311Z,,0,,,4704.359000190729,completion,,,,,false,,,,81692.5,81692.30000019073,76971.218,77193.60000014305,76987.941,81480.173,8,400,,,
trial,html.Screen,4_12_0,2023-09-07T23:20:26.629Z,,0,1,,3529.6270001907396,response,ISIC_5233769.JPG,5,ISIC_0032940.JPG,ISIC_5233769.JPG,false,1,keypress(m),500,85009.90000009537,85009.80000019073,81463.557,81692.5,81480.173,84803.163,8,400,13,,ISIC_0032940.JPG
break,html.Screen,4_12_1,2023-09-07T23:20:26.629Z,,0,,,NaN,,,,,,false,,,,85010.40000009537,85010.30000019073,,85010,,84803.163,8,400,,,
break_continue,html.Screen,4_12_2,2023-09-07T23:20:26.629Z,,0,,,NaN,,,,,,false,,,,85010.70000004768,85010.60000014305,,85010.5,,84803.163,8,400,,,
sequence,flow.Sequence,4_12,2023-09-07T23:20:26.629Z,,0,,,3530.427000143056,completion,,,,,false,,,,85010.70000004768,85010.60000014305,81463.557,81692.5,81480.173,84803.163,8,400,,,
trial,html.Screen,4_13_0,2023-09-07T23:20:33.641Z,,0,1,,7219.037000047683,response,ISIC_0071508.JPG,5,ISIC_0010789.JPG,ISIC_0071508.JPG,false,1,keypress(m),500,92022.40000009537,92022.20000004768,84786.549,85010.70000004768,84803.163,91816.816,8,400,14,,ISIC_0010789.JPG
break,html.Screen,4_13_1,2023-09-07T23:20:33.642Z,,0,,,NaN,,,,,,false,,,,92022.80000019073,92022.80000019073,,92022.5,,91816.816,8,400,,,
break_continue,html.Screen,4_13_2,2023-09-07T23:20:33.642Z,,0,,,NaN,,,,,,false,,,,92023,92022.90000009537,,92022.90000009537,,91816.816,8,400,,,
sequence,flow.Sequence,4_13,2023-09-07T23:20:33.642Z,,0,,,7219.737000095367,completion,,,,,false,,,,92023.10000014305,92022.90000009537,84786.549,85010.70000004768,84803.163,91816.816,8,400,,,
trial,html.Screen,4_14_0,2023-09-07T23:20:36.525Z,,0,1,,3089.5840000953613,response,ISIC_0033099.JPG,5,ISIC_6517852.JPG,ISIC_6517852.JPG,false,0,keypress(z),500,94906.5,94906.40000009537,91800.166,92023.10000014305,91816.816,94689.082,8,400,15,,ISIC_0033099.JPG
break,html.Screen,4_14_1,2023-09-07T23:20:36.526Z,,0,,,NaN,,,,,,false,,,,94907.10000014305,94906.90000009537,,94906.70000004768,,94689.082,8,400,,,
break_continue,html.Screen,4_14_2,2023-09-07T23:20:36.527Z,,0,,,NaN,,,,,,false,,,,94907.90000009537,94907.80000019073,,94907.70000004768,,94689.082,8,400,,,
sequence,flow.Sequence,4_14,2023-09-07T23:20:36.527Z,,0,,,3090.9840001907287,completion,,,,,false,,,,94908,94907.80000019073,91800.166,92023.10000014305,91816.816,94689.082,8,400,,,
trial,html.Screen,4_15_0,2023-09-07T23:20:41.824Z,,0,1,,5515.71800019074,response,ISIC_3013468.JPG,5,ISIC_8725878.JPG,ISIC_3013468.JPG,false,1,keypress(m),500,100204.90000009537,100204.80000019073,94672.562,94908.10000014305,94689.082,99999.429,8,400,16,,ISIC_8725878.JPG
break,html.Screen,4_15_1,2023-09-07T23:20:41.824Z,,0,,,NaN,,,,,,false,,,,100205.40000009537,100205.30000019073,,100205,,99999.429,8,400,,,
break_continue,html.Screen,4_15_2,2023-09-07T23:20:41.824Z,,0,,,NaN,,,,,,false,,,,100205.60000014305,100205.60000014305,,100205.40000009537,,99999.429,8,400,,,
sequence,flow.Sequence,4_15,2023-09-07T23:20:41.824Z,,0,,,5516.518000143056,completion,,,,,false,,,,100205.70000004768,100205.60000014305,94672.562,94908,94689.082,99999.429,8,400,,,
trial,html.Screen,4_16_0,2023-09-07T23:20:45.506Z,,0,1,,3888.1710001430474,response,ISIC_0014782.JPG,5,ISIC_0057083.JPG,ISIC_0014782.JPG,false,1,keypress(m),500,103887.70000004768,103887.60000014305,99982.83,100205.80000019073,99999.429,103673.293,8,400,17,,ISIC_0057083.JPG
break,html.Screen,4_16_1,2023-09-07T23:20:45.507Z,,0,,,NaN,,,,,,false,,,,103888.30000019073,103888.10000014305,,103887.90000009537,,103673.293,8,400,,,
break_continue,html.Screen,4_16_2,2023-09-07T23:20:45.507Z,,0,,,NaN,,,,,,false,,,,103888.70000004768,103888.60000014305,,103888.40000009537,,103673.293,8,400,,,
sequence,flow.Sequence,4_16,2023-09-07T23:20:45.507Z,,0,,,3889.1710001430474,completion,,,,,false,,,,103888.70000004768,103888.60000014305,99982.83,100205.80000019073,99999.429,103673.293,8,400,,,
trial,html.Screen,4_17_0,2023-09-07T23:20:49.366Z,,0,1,,4073.5070001907297,response,ISIC_0062869.JPG,5,ISIC_3425388.JPG,ISIC_3425388.JPG,false,0,keypress(z),500,107747,107746.80000019073,103656.688,103888.70000004768,103673.293,107530.714,8,400,18,,ISIC_0062869.JPG
break,html.Screen,4_17_1,2023-09-07T23:20:49.367Z,,0,,,NaN,,,,,,false,,,,107747.80000019073,107747.5,,107747.10000014305,,107530.714,8,400,,,
break_continue,html.Screen,4_17_2,2023-09-07T23:20:49.367Z,,0,,,NaN,,,,,,false,,,,107748.20000004768,107748.10000014305,,107748,,107530.714,8,400,,,
sequence,flow.Sequence,4_17,2023-09-07T23:20:49.367Z,,0,,,4074.807000143046,completion,,,,,false,,,,107748.30000019073,107748.10000014305,103656.688,103888.70000004768,103673.293,107530.714,8,400,,,
trial,html.Screen,4_18_0,2023-09-07T23:20:52.153Z,,0,1,,3003.5860001907276,response,ISIC_5837098.JPG,4,ISIC_0027321.JPG,ISIC_0027321.JPG,false,0,keypress(z),500,110534.30000019073,110534.30000019073,107514.164,107748.40000009537,107530.714,110319.503,8,400,19,,ISIC_5837098.JPG
break,html.Screen,4_18_1,2023-09-07T23:20:52.154Z,,0,,,NaN,,,,,,false,,,,110534.80000019073,110534.70000004768,,110534.5,,110319.503,8,400,,,
break_continue,html.Screen,4_18_2,2023-09-07T23:20:52.154Z,,0,,,NaN,,,,,,false,,,,110534.90000009537,110534.90000009537,,110534.80000019073,,110319.503,8,400,,,
sequence,flow.Sequence,4_18,2023-09-07T23:20:52.154Z,,0,,,3004.18600009536,completion,,,,,false,,,,110535.10000014305,110534.90000009537,107514.164,107748.40000009537,107530.714,110319.503,8,400,,,
trial,html.Screen,4_19_0,2023-09-07T23:20:54.940Z,,0,1,,3001.097000143054,response,ISIC_0031726.JPG,5,ISIC_0057481.JPG,ISIC_0057481.JPG,false,0,keypress(z),500,113320.70000004768,113320.60000014305,110302.969,110535.10000014305,110319.503,113108.4,8,400,20,,ISIC_0031726.JPG
break,html.Screen,4_19_1,2023-09-07T23:20:54.940Z,,0,,,NaN,,,,,,false,,,,113321.5,113321.40000009537,,113321,,113108.4,8,400,,,
break_continue,html.Screen,4_19_2,2023-09-07T23:20:54.941Z,,0,,,NaN,,,,,,false,,,,113321.90000009537,113321.80000019073,,113321.60000014305,,113108.4,8,400,,,
sequence,flow.Sequence,4_19,2023-09-07T23:20:54.941Z,,0,,,3002.297000190738,completion,,,,,false,,,,113322,113321.80000019073,110302.969,110535.10000014305,110319.503,113108.4,8,400,,,
trial,html.Screen,4_20_0,2023-09-07T23:21:01.887Z,,0,1,,7159.700000143057,response,ISIC_0010773.JPG,5,ISIC_0064997.JPG,ISIC_0064997.JPG,false,0,keypress(z),500,120268.30000019073,120268.10000014305,113091.715,113322.10000014305,113108.4,120055.055,8,400,21,,ISIC_0010773.JPG
break,html.Screen,4_20_1,2023-09-07T23:21:01.888Z,,0,,,NaN,,,,,,false,,,,120268.80000019073,120268.70000004768,,120268.30000019073,,120055.055,8,400,,,
break_continue,html.Screen,4_20_2,2023-09-07T23:21:01.888Z,,0,,,NaN,,,,,,false,,,,120269.10000014305,120269.10000014305,,120269,,120055.055,8,400,,,
sequence,flow.Sequence,4_20,2023-09-07T23:21:01.888Z,,0,,,7160.700000143057,completion,,,,,false,,,,120269.20000004768,120269.10000014305,113091.715,113322.10000014305,113108.4,120055.055,8,400,,,
trial,html.Screen,4_21_0,2023-09-07T23:21:04.994Z,,0,1,,3319.945000000007,response,ISIC_5081382.JPG,5,ISIC_6618652.JPG,ISIC_6618652.JPG,false,0,keypress(z),500,123375.40000009537,123375,120038.359,120269.40000009537,120055.055,123161.216,8,400,22,,ISIC_5081382.JPG
break,html.Screen,4_21_1,2023-09-07T23:21:04.996Z,,0,,,NaN,,,,,,false,,,,123377.30000019073,123376.80000019073,,123375.70000004768,,123161.216,8,400,,,
break_continue,html.Screen,4_21_2,2023-09-07T23:21:04.997Z,,0,,,NaN,,,,,,false,,,,123378.10000014305,123377.90000009537,,123377.60000014305,,123161.216,8,400,,,
sequence,flow.Sequence,4_21,2023-09-07T23:21:04.997Z,,0,,,3322.8450000953744,completion,,,,,false,,,,123378.40000009537,123377.90000009537,120038.359,120269.40000009537,120055.055,123161.216,8,400,,,
trial,html.Screen,4_22_0,2023-09-07T23:21:09.531Z,,0,1,,4751.184000095367,response,ISIC_9011718.JPG,4,ISIC_0013499.JPG,ISIC_9011718.JPG,false,1,keypress(m),500,127912.60000014305,127912.40000009537,123144.455,123378.60000014305,123161.216,127703.325,8,400,23,,ISIC_0013499.JPG
break,html.Screen,4_22_1,2023-09-07T23:21:09.532Z,,0,,,NaN,,,,,,false,,,,127913.20000004768,127913.10000014305,,127912.70000004768,,127703.325,8,400,,,
break_continue,html.Screen,4_22_2,2023-09-07T23:21:09.532Z,,0,,,NaN,,,,,,false,,,,127913.5,127913.5,,127913.40000009537,,127703.325,8,400,,,
sequence,flow.Sequence,4_22,2023-09-07T23:21:09.533Z,,0,,,4752.284,completion,,,,,false,,,,127913.70000004768,127913.5,123144.455,123378.60000014305,123161.216,127703.325,8,400,,,
trial,html.Screen,4_23_0,2023-09-07T23:21:12.321Z,,0,1,,2998.275000143054,response,ISIC_0072976.JPG,5,ISIC_3074949.JPG,ISIC_3074949.JPG,false,0,keypress(z),500,130701.80000019073,130701.60000014305,127686.624,127913.70000004768,127703.325,130492.151,8,400,24,,ISIC_0072976.JPG
break,html.Screen,4_23_1,2023-09-07T23:21:12.321Z,,0,,,NaN,,,,,,false,,,,130702.20000004768,130702.10000014305,,130701.90000009537,,130492.151,8,400,,,
break_continue,html.Screen,4_23_2,2023-09-07T23:21:12.321Z,,0,,,NaN,,,,,,false,,,,130702.30000019073,130702.30000019073,,130702.20000004768,,130492.151,8,400,,,
sequence,flow.Sequence,4_23,2023-09-07T23:21:12.321Z,,0,,,2998.975000190738,completion,,,,,false,,,,130702.40000009537,130702.30000019073,127686.624,127913.70000004768,127703.325,130492.151,8,400,,,
trial,html.Screen,4_24_0,2023-09-07T23:21:15.539Z,,0,1,,3427.849000000002,response,ISIC_4568084.JPG,5,ISIC_0058054.JPG,ISIC_0058054.JPG,false,0,keypress(z),500,133920.10000014305,133920,130475.437,130702.5,130492.151,133714.992,8,400,25,,ISIC_4568084.JPG
break,html.Screen,4_24_1,2023-09-07T23:21:15.540Z,,0,,,NaN,,,,,,false,,,,133920.70000004768,133920.5,,133920.20000004768,,133714.992,8,400,,,
break_continue,html.Screen,4_24_2,2023-09-07T23:21:15.540Z,,0,,,NaN,,,,,,false,,,,133921,133920.90000009537,,133920.80000019073,,133714.992,8,400,,,
sequence,flow.Sequence,4_24,2023-09-07T23:21:15.540Z,,0,,,3428.7490000953694,completion,,,,,false,,,,133921.10000014305,133920.90000009537,130475.437,130702.5,130492.151,133714.992,8,400,,,
trial,html.Screen,4_25_0,2023-09-07T23:21:18.694Z,,0,1,,3359.5080000000016,response,ISIC_8588033.JPG,5,ISIC_0001681.JPG,ISIC_0001681.JPG,false,0,keypress(z),500,137074.70000004768,137074.5,133698.277,133921.10000014305,133714.992,136871.156,8,400,26,,ISIC_8588033.JPG
break,html.Screen,4_25_1,2023-09-07T23:21:18.694Z,,0,,,NaN,,,,,,false,,,,137075.30000019073,137075.20000004768,,137074.80000019073,,136871.156,8,400,,,
break_continue,html.Screen,4_25_2,2023-09-07T23:21:18.694Z,,0,,,NaN,,,,,,false,,,,137075.5,137075.40000009537,,137075.40000009537,,136871.156,8,400,,,
sequence,flow.Sequence,4_25,2023-09-07T23:21:18.694Z,,0,,,3360.408000095369,completion,,,,,false,,,,137075.60000014305,137075.40000009537,133698.277,133921.10000014305,133714.992,136871.156,8,400,,,
trial,html.Screen,4_26_0,2023-09-07T23:21:22.031Z,,0,1,,3540.844000000012,response,ISIC_6595186.JPG,5,ISIC_8068693.JPG,ISIC_8068693.JPG,false,0,keypress(z),500,140412.10000014305,140412,136854.463,137075.60000014305,136871.156,140194.272,8,400,27,,ISIC_6595186.JPG
break,html.Screen,4_26_1,2023-09-07T23:21:22.031Z,,0,,,NaN,,,,,,false,,,,140412.60000014305,140412.40000009537,,140412.20000004768,,140194.272,8,400,,,
break_continue,html.Screen,4_26_2,2023-09-07T23:21:22.032Z,,0,,,NaN,,,,,,false,,,,140412.80000019073,140412.70000004768,,140412.70000004768,,140194.272,8,400,,,
sequence,flow.Sequence,4_26,2023-09-07T23:21:22.032Z,,0,,,3541.5440000476956,completion,,,,,false,,,,140412.90000009537,140412.70000004768,136854.463,137075.60000014305,136871.156,140194.272,8,400,,,
trial,html.Screen,4_27_0,2023-09-07T23:21:24.673Z,,0,1,,2860.0280001907377,response,ISIC_1520897.JPG,5,ISIC_6618943.JPG,ISIC_6618943.JPG,false,0,keypress(z),500,143054.5,143054.30000019073,140177.601,140412.90000009537,140194.272,142849.626,8,400,28,,ISIC_1520897.JPG
break,html.Screen,4_27_1,2023-09-07T23:21:24.674Z,,0,,,NaN,,,,,,false,,,,143054.90000009537,143054.70000004768,,143054.60000014305,,142849.626,8,400,,,
break_continue,html.Screen,4_27_2,2023-09-07T23:21:24.674Z,,0,,,NaN,,,,,,false,,,,143055.10000014305,143055,,143055,,142849.626,8,400,,,
sequence,flow.Sequence,4_27,2023-09-07T23:21:24.674Z,,0,,,2860.728000000003,completion,,,,,false,,,,143055.10000014305,143055,140177.601,140412.90000009537,140194.272,142849.626,8,400,,,
trial,html.Screen,4_28_0,2023-09-07T23:21:28.372Z,,0,1,,3903.3740000000107,response,ISIC_2500254.JPG,5,ISIC_0883408.JPG,ISIC_0883408.JPG,false,0,keypress(z),500,146753.30000019073,146753,142832.919,143055.20000004768,142849.626,146556.694,8,400,29,,ISIC_2500254.JPG
break,html.Screen,4_28_1,2023-09-07T23:21:28.373Z,,0,,,NaN,,,,,,false,,,,146754.10000014305,146753.90000009537,,146753.5,,146556.694,8,400,,,
break_continue,html.Screen,4_28_2,2023-09-07T23:21:28.373Z,,0,,,NaN,,,,,,false,,,,146754.40000009537,146754.40000009537,,146754.20000004768,,146556.694,8,400,,,
sequence,flow.Sequence,4_28,2023-09-07T23:21:28.373Z,,0,,,3904.774000095378,completion,,,,,false,,,,146754.5,146754.40000009537,142832.919,143055.20000004768,142849.626,146556.694,8,400,,,
trial,html.Screen,4_29_0,2023-09-07T23:21:32.904Z,,0,1,,4727.906000143063,response,ISIC_8897947.JPG,5,ISIC_7293697.JPG,ISIC_8897947.JPG,false,1,keypress(m),500,151284.90000009537,151284.60000014305,146540.014,146754.60000014305,146556.694,151082.128,8,400,30,,ISIC_7293697.JPG
break,html.Screen,4_29_1,2023-09-07T23:21:32.906Z,,0,,,NaN,,,,,,false,,,,151286.70000004768,151286,,151285.30000019073,,151082.128,8,400,,,
break_continue,html.Screen,4_29_2,2023-09-07T23:21:32.907Z,,0,,,NaN,,,,,,false,,,,151287.80000019073,151287.60000014305,,151287.20000004768,,151082.128,8,400,,,
sequence,flow.Sequence,4_29,2023-09-07T23:21:32.907Z,,0,,,4730.906000143063,completion,,,,,false,,,,151288.10000014305,151287.60000014305,146540.014,146754.60000014305,146556.694,151082.128,8,400,,,
trial,html.Screen,4_30_0,2023-09-07T23:21:36.707Z,,0,1,,4005.872000000003,response,ISIC_9087221.JPG,4,ISIC_0032152.JPG,ISIC_9087221.JPG,false,1,keypress(m),500,155088.10000014305,155088,151065.442,151288.5,151082.128,154872.885,8,400,31,,ISIC_0032152.JPG
break,html.Screen,4_30_1,2023-09-07T23:21:36.708Z,,0,,,NaN,,,,,,false,,,,155088.60000014305,155088.5,,155088.20000004768,,154872.885,8,400,,,
break_continue,html.Screen,4_30_2,2023-09-07T23:21:36.708Z,,0,,,NaN,,,,,,false,,,,155088.80000019073,155088.70000004768,,155088.60000014305,,154872.885,8,400,,,
sequence,flow.Sequence,4_30,2023-09-07T23:21:36.708Z,,0,,,4006.5720000476867,completion,,,,,false,,,,155088.80000019073,155088.70000004768,151065.442,151288.40000009537,151082.128,154872.885,8,400,,,
trial,html.Screen,4_31_0,2023-09-07T23:21:40.101Z,,0,1,,3608.8150000476744,response,ISIC_1790808.JPG,6,ISIC_0025072.JPG,ISIC_1790808.JPG,false,1,keypress(m),500,158482.10000014305,158481.70000004768,154856.327,155089,154872.885,158279.518,8,400,32,,ISIC_0025072.JPG
break,html.Screen,4_31_1,2023-09-07T23:21:40.103Z,,0,,,NaN,,,,,,false,,,,158483.80000019073,158483.20000004768,,158482.5,,158279.518,8,400,,,
break_continue,html.Screen,4_31_2,2023-09-07T23:21:40.104Z,,0,,,NaN,,,,,,false,,,,158484.60000014305,158484.40000009537,,158484,,158279.518,8,400,,,
sequence,flow.Sequence,4_31,2023-09-07T23:21:40.104Z,,0,,,3611.515000095358,completion,,,,,false,,,,158484.90000009537,158484.40000009537,154856.327,155088.90000009537,154872.885,158279.518,8,400,,,
trial,html.Screen,4_32_0,2023-09-07T23:21:43.514Z,,0,1,,3615.8820000953565,response,ISIC_0028070.JPG,4,ISIC_8747095.JPG,ISIC_0028070.JPG,false,1,keypress(m),500,161895.5,161895.40000009537,158262.782,158485.40000009537,158279.518,161686.111,8,400,33,,ISIC_8747095.JPG
break,html.Screen,4_32_1,2023-09-07T23:21:43.515Z,,0,,,NaN,,,,,,false,,,,161896.10000014305,161895.90000009537,,161895.70000004768,,161686.111,8,400,,,
break_continue,html.Screen,4_32_2,2023-09-07T23:21:43.515Z,,0,,,NaN,,,,,,false,,,,161896.30000019073,161896.20000004768,,161896.20000004768,,161686.111,8,400,,,
sequence,flow.Sequence,4_32,2023-09-07T23:21:43.515Z,,0,,,3616.682000047673,completion,,,,,false,,,,161896.30000019073,161896.20000004768,158262.782,158485.30000019073,158279.518,161686.111,8,400,,,
trial,html.Screen,4_33_0,2023-09-07T23:21:47.852Z,,0,1,,4547.289000095363,response,ISIC_0027797.JPG,4,ISIC_4459528.JPG,ISIC_0027797.JPG,false,1,keypress(m),500,166233.5,166233.40000009537,161669.507,161896.40000009537,161686.111,166027.938,8,400,34,,ISIC_4459528.JPG
break,html.Screen,4_33_1,2023-09-07T23:21:47.852Z,,0,,,NaN,,,,,,false,,,,166234.20000004768,166234,,166233.60000014305,,166027.938,8,400,,,
break_continue,html.Screen,4_33_2,2023-09-07T23:21:47.853Z,,0,,,NaN,,,,,,false,,,,166234.5,166234.5,,166234.30000019073,,166027.938,8,400,,,
sequence,flow.Sequence,4_33,2023-09-07T23:21:47.853Z,,0,,,4548.388999999996,completion,,,,,false,,,,166234.60000014305,166234.5,161669.507,161896.40000009537,161686.111,166027.938,8,400,,,
trial,html.Screen,4_34_0,2023-09-07T23:21:53.105Z,,0,1,,5458.562000000005,response,ISIC_0025508.JPG,5,ISIC_0028031.JPG,ISIC_0028031.JPG,false,0,keypress(z),500,171486.70000004768,171486.5,166011.341,166234.70000004768,166027.938,171271.455,8,400,35,,ISIC_0025508.JPG
break,html.Screen,4_34_1,2023-09-07T23:21:53.106Z,,0,,,NaN,,,,,,false,,,,171487.5,171487.20000004768,,171486.80000019073,,171271.455,8,400,,,
break_continue,html.Screen,4_34_2,2023-09-07T23:21:53.106Z,,0,,,NaN,,,,,,false,,,,171487.80000019073,171487.80000019073,,171487.60000014305,,171271.455,8,400,,,
sequence,flow.Sequence,4_34,2023-09-07T23:21:53.106Z,,0,,,5459.86200019074,completion,,,,,false,,,,171488,171487.80000019073,166011.341,166234.70000004768,166027.938,171271.455,8,400,,,
trial,html.Screen,4_35_0,2023-09-07T23:21:56.040Z,,0,1,,3149.4450000953802,response,ISIC_4964478.JPG,5,ISIC_0024781.JPG,ISIC_0024781.JPG,false,0,keypress(z),500,174421.30000019073,174420.90000009537,171254.83,171488.10000014305,171271.455,174210.588,8,400,36,,ISIC_4964478.JPG
break,html.Screen,4_35_1,2023-09-07T23:21:56.041Z,,0,,,NaN,,,,,,false,,,,174422.90000009537,174422.40000009537,,174421.80000019073,,174210.588,8,400,,,
break_continue,html.Screen,4_35_2,2023-09-07T23:21:56.042Z,,0,,,NaN,,,,,,false,,,,174423.60000014305,174423.40000009537,,174423.10000014305,,174210.588,8,400,,,
sequence,flow.Sequence,4_35,2023-09-07T23:21:56.044Z,,0,,,3151.9450000953802,completion,,,,,false,,,,174425.60000014305,174423.40000009537,171254.83,171488,171271.455,174210.588,8,400,,,
trial,html.Screen,4_36_0,2023-09-07T23:22:00.703Z,,0,1,,4874.112000047695,response,ISIC_0030194.JPG,6,ISIC_2748736.JPG,ISIC_2748736.JPG,false,0,keypress(z),500,179084.70000004768,179084.70000004768,174193.795,174426,174210.588,178869.583,8,400,37,,ISIC_0030194.JPG
break,html.Screen,4_36_1,2023-09-07T23:22:00.704Z,,0,,,NaN,,,,,,false,,,,179085.70000004768,179085.30000019073,,179084.90000009537,,178869.583,8,400,,,
break_continue,html.Screen,4_36_2,2023-09-07T23:22:00.704Z,,0,,,NaN,,,,,,false,,,,179086,179086,,179085.80000019073,,178869.583,8,400,,,
sequence,flow.Sequence,4_36,2023-09-07T23:22:00.704Z,,0,,,4875.412000000011,completion,,,,,false,,,,179086.10000014305,179086,174193.795,174425.90000009537,174210.588,178869.583,8,400,,,
trial,html.Screen,4_37_0,2023-09-07T23:22:03.474Z,,0,1,,2986.4169999999867,response,ISIC_0014183.JPG,5,ISIC_6547707.JPG,ISIC_6547707.JPG,false,0,keypress(z),500,181856.10000014305,181856,178852.843,179086.20000004768,178869.583,181641.681,8,400,38,,ISIC_0014183.JPG
break,html.Screen,4_37_1,2023-09-07T23:22:03.475Z,,0,,,NaN,,,,,,false,,,,181856.5,181856.5,,181856.20000004768,,181641.681,8,400,,,
break_continue,html.Screen,4_37_2,2023-09-07T23:22:03.475Z,,0,,,NaN,,,,,,false,,,,181856.70000004768,181856.70000004768,,181856.60000014305,,181641.681,8,400,,,
sequence,flow.Sequence,4_37,2023-09-07T23:22:03.475Z,,0,,,2987.1170000476704,completion,,,,,false,,,,181856.80000019073,181856.70000004768,178852.843,179086.20000004768,178869.583,181641.681,8,400,,,
trial,html.Screen,4_38_0,2023-09-07T23:22:08.374Z,,0,1,,5113.119000190723,response,ISIC_6732560.JPG,5,ISIC_9232153.JPG,ISIC_6732560.JPG,false,1,keypress(m),500,186755.40000009537,186754.80000019073,181624.929,181856.80000019073,181641.681,186551.143,8,400,39,,ISIC_9232153.JPG
break,html.Screen,4_38_1,2023-09-07T23:22:08.376Z,,0,,,NaN,,,,,,false,,,,186757.70000004768,186757,,186756,,186551.143,8,400,,,
break_continue,html.Screen,4_38_2,2023-09-07T23:22:08.377Z,,0,,,NaN,,,,,,false,,,,186758.5,186758.40000009537,,186758,,186551.143,8,400,,,
sequence,flow.Sequence,4_38,2023-09-07T23:22:08.377Z,,0,,,5116.719000095356,completion,,,,,false,,,,186758.60000014305,186758.40000009537,181624.929,181856.80000019073,181641.681,186551.143,8,400,,,
trial,html.Screen,4_39_0,2023-09-07T23:22:11.360Z,,0,1,,3190.856999999989,response,ISIC_0032532.JPG,6,ISIC_0024574.JPG,ISIC_0024574.JPG,false,0,keypress(z),500,189742.10000014305,189742,186534.548,186758.80000019073,186551.143,189541.289,8,400,40,,ISIC_0032532.JPG
break,html.Screen,4_39_1,2023-09-07T23:22:11.361Z,,0,,,NaN,,,,,,false,,,,189742.70000004768,189742.5,,189742.20000004768,,189541.289,8,400,,,
break_continue,html.Screen,4_39_2,2023-09-07T23:22:11.361Z,,0,,,NaN,,,,,,false,,,,189743,189742.90000009537,,189742.80000019073,,189541.289,8,400,,,
sequence,flow.Sequence,4_39,2023-09-07T23:22:11.361Z,,0,,,3191.7570000953565,completion,,,,,false,,,,189743.10000014305,189742.90000009537,186534.548,186758.70000004768,186551.143,189541.289,8,400,,,
trial,html.Screen,4_40_0,2023-09-07T23:22:13.912Z,,0,1,,2752.011000190745,response,ISIC_0064907.JPG,6,ISIC_7948290.JPG,ISIC_7948290.JPG,false,0,keypress(z),500,192293.40000009537,192293.30000019073,189506.925,189743.20000004768,189541.289,192078.588,8,400,41,,ISIC_0064907.JPG
break,html.Screen,4_40_1,2023-09-07T23:22:13.912Z,,0,,,NaN,,,,,,false,,,,192294,192293.80000019073,,192293.5,,192078.588,8,400,,,
break_continue,html.Screen,4_40_2,2023-09-07T23:22:13.913Z,,0,,,NaN,,,,,,false,,,,192294.30000019073,192294.20000004768,,192294.20000004768,,192078.588,8,400,,,
sequence,flow.Sequence,4_40,2023-09-07T23:22:13.913Z,,0,,,2752.911000047694,completion,,,,,false,,,,192294.5,192294.20000004768,189506.925,189743.10000014305,189541.289,192078.588,8,400,,,
trial,html.Screen,4_41_0,2023-09-07T23:22:17.131Z,,0,1,,3433.712000190746,response,ISIC_8765068.JPG,4,ISIC_0030211.JPG,ISIC_8765068.JPG,false,1,keypress(m),500,195512.5,195512.30000019073,192061.985,192294.5,192078.588,195301.652,8,400,42,,ISIC_0030211.JPG
break,html.Screen,4_41_1,2023-09-07T23:22:17.132Z,,0,,,NaN,,,,,,false,,,,195513.40000009537,195513.20000004768,,195512.70000004768,,195301.652,8,400,,,
break_continue,html.Screen,4_41_2,2023-09-07T23:22:17.132Z,,0,,,NaN,,,,,,false,,,,195513.70000004768,195513.60000014305,,195513.5,,195301.652,8,400,,,
sequence,flow.Sequence,4_41,2023-09-07T23:22:17.132Z,,0,,,3435.0120001430623,completion,,,,,false,,,,195513.80000019073,195513.60000014305,192061.985,192294.5,192078.588,195301.652,8,400,,,
trial,html.Screen,4_42_0,2023-09-07T23:22:21.806Z,,0,1,,4885.948000143049,response,ISIC_3474609.JPG,5,ISIC_1795529.JPG,ISIC_1795529.JPG,false,0,keypress(z),500,200187.80000019073,200187.60000014305,195284.804,195513.90000009537,195301.652,199977.372,8,400,43,,ISIC_3474609.JPG
break,html.Screen,4_42_1,2023-09-07T23:22:21.807Z,,0,,,NaN,,,,,,false,,,,200188.40000009537,200188.20000004768,,200187.90000009537,,199977.372,8,400,,,
break_continue,html.Screen,4_42_2,2023-09-07T23:22:21.807Z,,0,,,NaN,,,,,,false,,,,200188.80000019073,200188.70000004768,,200188.5,,199977.372,8,400,,,
sequence,flow.Sequence,4_42,2023-09-07T23:22:21.807Z,,0,,,4887.048000047682,completion,,,,,false,,,,200188.80000019073,200188.70000004768,195284.804,195513.90000009537,195301.652,199977.372,8,400,,,
trial,html.Screen,4_43_0,2023-09-07T23:22:26.034Z,,0,1,,4438.627999999997,response,ISIC_1531204.JPG,5,ISIC_0066321.JPG,ISIC_1531204.JPG,false,1,keypress(m),500,204416.20000004768,204416,199960.621,200188.90000009537,199977.372,204202.188,8,400,44,,ISIC_0066321.JPG
break,html.Screen,4_43_1,2023-09-07T23:22:26.035Z,,0,,,NaN,,,,,,false,,,,204416.60000014305,204416.5,,204416.30000019073,,204202.188,8,400,,,
break_continue,html.Screen,4_43_2,2023-09-07T23:22:26.035Z,,0,,,NaN,,,,,,false,,,,204416.80000019073,204416.70000004768,,204416.60000014305,,204202.188,8,400,,,
sequence,flow.Sequence,4_43,2023-09-07T23:22:26.035Z,,0,,,4439.328000047681,completion,,,,,false,,,,204416.80000019073,204416.70000004768,199960.621,200188.90000009537,199977.372,204202.188,8,400,,,
trial,html.Screen,4_44_0,2023-09-07T23:22:30.347Z,,0,1,,4526.61200019074,response,ISIC_5885403.JPG,5,ISIC_0061562.JPG,ISIC_0061562.JPG,false,0,keypress(z),500,208728.90000009537,208728.80000019073,204185.514,204416.90000009537,204202.188,208527.896,8,400,45,,ISIC_5885403.JPG
break,html.Screen,4_44_1,2023-09-07T23:22:30.348Z,,0,,,NaN,,,,,,false,,,,208729.5,208729.30000019073,,208729,,208527.896,8,400,,,
break_continue,html.Screen,4_44_2,2023-09-07T23:22:30.348Z,,0,,,NaN,,,,,,false,,,,208729.80000019073,208729.60000014305,,208729.5,,208527.896,8,400,,,
sequence,flow.Sequence,4_44,2023-09-07T23:22:30.348Z,,0,,,4527.4120001430565,completion,,,,,false,,,,208729.80000019073,208729.60000014305,204185.514,204416.90000009537,204202.188,208527.896,8,400,,,
trial,html.Screen,4_45_0,2023-09-07T23:22:34.158Z,,0,1,,4011.804000047676,response,ISIC_4222275.JPG,6,ISIC_0076742.JPG,ISIC_4222275.JPG,false,1,keypress(m),500,212539.80000019073,212539.70000004768,208493.9,208729.90000009537,208527.896,212334.782,8,400,46,,ISIC_0076742.JPG
break,html.Screen,4_45_1,2023-09-07T23:22:34.159Z,,0,,,NaN,,,,,,false,,,,212540.5,212540.30000019073,,212539.90000009537,,212334.782,8,400,,,
break_continue,html.Screen,4_45_2,2023-09-07T23:22:34.159Z,,0,,,NaN,,,,,,false,,,,212540.80000019073,212540.80000019073,,212540.60000014305,,212334.782,8,400,,,
sequence,flow.Sequence,4_45,2023-09-07T23:22:34.159Z,,0,,,4012.904000190727,completion,,,,,false,,,,212540.90000009537,212540.80000019073,208493.9,208729.90000009537,208527.896,212334.782,8,400,,,
trial,html.Screen,4_46_0,2023-09-07T23:22:41.332Z,,0,1,,7378.818000143045,response,ISIC_0056152.JPG,4,ISIC_0024292.JPG,ISIC_0024292.JPG,false,0,keypress(z),500,219713.70000004768,219713.60000014305,212317.977,212540.90000009537,212334.782,219498.679,8,400,47,,ISIC_0056152.JPG
break,html.Screen,4_46_1,2023-09-07T23:22:41.332Z,,0,,,NaN,,,,,,false,,,,219714.20000004768,219714,,219713.90000009537,,219498.679,8,400,,,
break_continue,html.Screen,4_46_2,2023-09-07T23:22:41.333Z,,0,,,NaN,,,,,,false,,,,219714.40000009537,219714.30000019073,,219714.20000004768,,219498.679,8,400,,,
sequence,flow.Sequence,4_46,2023-09-07T23:22:41.333Z,,0,,,7379.518000190728,completion,,,,,false,,,,219714.40000009537,219714.30000019073,212317.977,212540.90000009537,212334.782,219498.679,8,400,,,
trial,html.Screen,4_47_0,2023-09-07T23:22:44.678Z,,0,1,,3561.2210000953637,response,ISIC_5501795.JPG,6,ISIC_0030749.JPG,ISIC_0030749.JPG,false,0,keypress(z),500,223060,223059.90000009537,219481.895,219714.60000014305,219498.679,222855.141,8,400,48,,ISIC_5501795.JPG
break,html.Screen,4_47_1,2023-09-07T23:22:44.679Z,,0,,,NaN,,,,,,false,,,,223060.70000004768,223060.5,,223060.20000004768,,222855.141,8,400,,,
break_continue,html.Screen,4_47_2,2023-09-07T23:22:44.679Z,,0,,,NaN,,,,,,false,,,,223061.10000014305,223061,,223060.80000019073,,222855.141,8,400,,,
sequence,flow.Sequence,4_47,2023-09-07T23:22:44.679Z,,0,,,3562.3209999999963,completion,,,,,false,,,,223061.10000014305,223061,219481.895,219714.5,219498.679,222855.141,8,400,,,
trial,html.Screen,4_48_0,2023-09-07T23:22:48.859Z,,0,1,,4384.159000190732,response,ISIC_6618943.JPG,5,ISIC_9927221.JPG,ISIC_9927221.JPG,false,0,keypress(z),500,227239.5,227239.30000019073,222838.462,223061.20000004768,222855.141,227029.912,8,400,49,,ISIC_6618943.JPG
break,html.Screen,4_48_1,2023-09-07T23:22:48.859Z,,0,,,NaN,,,,,,false,,,,227240.10000014305,227239.90000009537,,227239.60000014305,,227029.912,8,400,,,
break_continue,html.Screen,4_48_2,2023-09-07T23:22:48.860Z,,0,,,NaN,,,,,,false,,,,227240.5,227240.30000019073,,227240.20000004768,,227029.912,8,400,,,
sequence,flow.Sequence,4_48,2023-09-07T23:22:48.860Z,,0,,,4385.159000190732,completion,,,,,false,,,,227240.60000014305,227240.30000019073,222838.462,223061.20000004768,222855.141,227029.912,8,400,,,
trial,html.Screen,4_49_0,2023-09-07T23:22:52.253Z,,0,1,,3603.4880000953563,response,ISIC_6882582.JPG,5,ISIC_5833015.JPG,ISIC_5833015.JPG,false,0,keypress(z),500,230633.60000014305,230633.40000009537,227013.255,227240.60000014305,227029.912,230419.853,8,400,50,,ISIC_6882582.JPG
break,html.Screen,4_49_1,2023-09-07T23:23:02.020Z,,0,,,9769.00099999999,timeout,,,,,false,,,,240400.70000004768,240400.5,230403.144,230633.80000019073,230419.853,240188.854,8,400,,,
break_continue,html.Screen,4_49_2,2023-09-07T23:23:04.826Z,,0,,,3012.5460000953753,response,,,,,false,continue,keypress(Space),,243206.70000004768,243201.40000009537,240400.5,240400.70000004768,240188.854,242994.368,8,400,,,
sequence,flow.Sequence,4_49,2023-09-07T23:23:04.826Z,,0,,,16171.488000095356,completion,,,,,false,,,,243206.80000019073,243201.40000009537,227013.255,227240.60000014305,227029.912,242994.368,8,400,,,
trial,html.Screen,4_50_0,2023-09-07T23:23:09.059Z,,0,2,,4444.932000190747,response,ISIC_4573624.JPG,5,ISIC_0032265.JPG,ISIC_4573624.JPG,false,1,keypress(m),500,247439.40000009537,247439.30000019073,242977.602,243206.80000019073,242994.368,247236.033,8,400,1,,ISIC_0032265.JPG
break,html.Screen,4_50_1,2023-09-07T23:23:09.059Z,,0,,,NaN,,,,,,false,,,,247440.10000014305,247439.90000009537,,247439.60000014305,,247236.033,8,400,,,
break_continue,html.Screen,4_50_2,2023-09-07T23:23:09.060Z,,0,,,NaN,,,,,,false,,,,247440.30000019073,247440.30000019073,,247440.20000004768,,247236.033,8,400,,,
sequence,flow.Sequence,4_50,2023-09-07T23:23:09.060Z,,0,,,4445.932000190747,completion,,,,,false,,,,247440.40000009537,247440.30000019073,242977.602,243206.80000019073,242994.368,247236.033,8,400,,,
trial,html.Screen,4_51_0,2023-09-07T23:23:12.244Z,,0,2,,3389.167000047688,response,ISIC_6806124.JPG,5,ISIC_3288342.JPG,ISIC_3288342.JPG,false,0,keypress(z),500,250625.30000019073,250625.20000004768,247219.238,247440.5,247236.033,250408.781,8,400,2,,ISIC_6806124.JPG
break,html.Screen,4_51_1,2023-09-07T23:23:12.245Z,,0,,,NaN,,,,,,false,,,,250625.90000009537,250625.70000004768,,250625.40000009537,,250408.781,8,400,,,
break_continue,html.Screen,4_51_2,2023-09-07T23:23:12.245Z,,0,,,NaN,,,,,,false,,,,250626.10000014305,250626.10000014305,,250626,,250408.781,8,400,,,
sequence,flow.Sequence,4_51,2023-09-07T23:23:12.245Z,,0,,,3390.0670001430553,completion,,,,,false,,,,250626.30000019073,250626.10000014305,247219.238,247440.5,247236.033,250408.781,8,400,,,
trial,html.Screen,4_52_0,2023-09-07T23:23:17.751Z,,0,2,,5723.319000143063,response,ISIC_0054355.JPG,5,ISIC_2528656.JPG,ISIC_2528656.JPG,false,0,keypress(z),500,256132.30000019073,256132.10000014305,250392.162,250626.30000019073,250408.781,255919.542,8,400,3,,ISIC_0054355.JPG
break,html.Screen,4_52_1,2023-09-07T23:23:17.752Z,,0,,,NaN,,,,,,false,,,,256132.90000009537,256132.70000004768,,256132.30000019073,,255919.542,8,400,,,
break_continue,html.Screen,4_52_2,2023-09-07T23:23:17.752Z,,0,,,NaN,,,,,,false,,,,256133.30000019073,256133.10000014305,,256133,,255919.542,8,400,,,
sequence,flow.Sequence,4_52,2023-09-07T23:23:17.753Z,,0,,,5724.319000143063,completion,,,,,false,,,,256133.40000009537,256133.10000014305,250392.162,250626.30000019073,250408.781,255919.542,8,400,,,
trial,html.Screen,4_53_0,2023-09-07T23:23:23.843Z,,0,2,,6303.658000047697,response,ISIC_4894929.JPG,5,ISIC_5993530.JPG,ISIC_5993530.JPG,false,0,keypress(z),500,262223.40000009537,262223.2000000477,255902.881,256133.40000009537,255919.542,262014.693,8,400,4,,ISIC_4894929.JPG
break,html.Screen,4_53_1,2023-09-07T23:23:23.843Z,,0,,,NaN,,,,,,false,,,,262224.10000014305,262223.80000019073,,262223.40000009537,,262014.693,8,400,,,
break_continue,html.Screen,4_53_2,2023-09-07T23:23:23.844Z,,0,,,NaN,,,,,,false,,,,262224.40000009537,262224.30000019073,,262224.2000000477,,262014.693,8,400,,,
sequence,flow.Sequence,4_53,2023-09-07T23:23:23.844Z,,0,,,6304.758000190748,completion,,,,,false,,,,262224.5,262224.30000019073,255902.881,256133.40000009537,255919.542,262014.693,8,400,,,
trial,html.Screen,4_54_0,2023-09-07T23:23:27.547Z,,0,2,,3912.6070001907356,response,ISIC_0057169.JPG,4,ISIC_0028612.JPG,ISIC_0028612.JPG,false,0,keypress(z),500,265927.5,265927.30000019073,261998.011,262224.5,262014.693,265721.97,8,400,5,,ISIC_0057169.JPG
break,html.Screen,4_54_1,2023-09-07T23:23:27.547Z,,0,,,NaN,,,,,,false,,,,265928.30000019073,265928,,265927.60000014305,,265721.97,8,400,,,
break_continue,html.Screen,4_54_2,2023-09-07T23:23:27.548Z,,0,,,NaN,,,,,,false,,,,265928.80000019073,265928.60000014305,,265928.40000009537,,265721.97,8,400,,,
sequence,flow.Sequence,4_54,2023-09-07T23:23:27.548Z,,0,,,3913.907000143052,completion,,,,,false,,,,265928.90000009537,265928.60000014305,261998.011,262224.5,262014.693,265721.97,8,400,,,
trial,html.Screen,4_55_0,2023-09-07T23:23:30.901Z,,0,2,,3559.7300000477117,response,ISIC_3509838.JPG,4,ISIC_0046635.JPG,ISIC_3509838.JPG,false,1,keypress(m),500,269281.80000019073,269281.7000000477,265705.182,265928.90000009537,265721.97,269078.549,8,400,6,,ISIC_0046635.JPG
break,html.Screen,4_55_1,2023-09-07T23:23:30.902Z,,0,,,NaN,,,,,,false,,,,269282.60000014305,269282.30000019073,,269281.90000009537,,269078.549,8,400,,,
break_continue,html.Screen,4_55_2,2023-09-07T23:23:30.902Z,,0,,,NaN,,,,,,false,,,,269282.80000019073,269282.80000019073,,269282.7000000477,,269078.549,8,400,,,
sequence,flow.Sequence,4_55,2023-09-07T23:23:30.902Z,,0,,,3560.830000190763,completion,,,,,false,,,,269282.90000009537,269282.80000019073,265705.182,265928.90000009537,265721.97,269078.549,8,400,,,
trial,html.Screen,4_56_0,2023-09-07T23:23:34.167Z,,0,2,,3469.551000143052,response,ISIC_0062639.JPG,6,ISIC_0011884.JPG,ISIC_0011884.JPG,false,0,keypress(z),500,272548.30000019073,272548.10000014305,269061.886,269282.90000009537,269078.549,272334.739,8,400,7,,ISIC_0062639.JPG
break,html.Screen,4_56_1,2023-09-07T23:23:34.168Z,,0,,,NaN,,,,,,false,,,,272548.80000019073,272548.7000000477,,272548.40000009537,,272334.739,8,400,,,
break_continue,html.Screen,4_56_2,2023-09-07T23:23:34.168Z,,0,,,NaN,,,,,,false,,,,272549.10000014305,272549.10000014305,,272548.90000009537,,272334.739,8,400,,,
sequence,flow.Sequence,4_56,2023-09-07T23:23:34.168Z,,0,,,3470.551000143052,completion,,,,,false,,,,272549.2000000477,272549.10000014305,269061.886,269282.90000009537,269078.549,272334.739,8,400,,,
trial,html.Screen,4_57_0,2023-09-07T23:23:37.151Z,,0,2,,3197.161000095366,response,ISIC_0054395.JPG,5,ISIC_8622204.JPG,ISIC_8622204.JPG,false,0,keypress(z),500,275532,275531.90000009537,272318.07,272549.2000000477,272334.739,275323.945,8,400,8,,ISIC_0054395.JPG
break,html.Screen,4_57_1,2023-09-07T23:23:37.152Z,,0,,,NaN,,,,,,false,,,,275532.60000014305,275532.5,,275532.10000014305,,275323.945,8,400,,,
break_continue,html.Screen,4_57_2,2023-09-07T23:23:37.152Z,,0,,,NaN,,,,,,false,,,,275532.80000019073,275532.80000019073,,275532.7000000477,,275323.945,8,400,,,
sequence,flow.Sequence,4_57,2023-09-07T23:23:37.152Z,,0,,,3198.0610001907335,completion,,,,,false,,,,275533,275532.80000019073,272318.07,272549.2000000477,272334.739,275323.945,8,400,,,
trial,html.Screen,4_58_0,2023-09-07T23:23:40.823Z,,0,2,,3879.9550000953604,response,ISIC_0064692.JPG,6,ISIC_4532303.JPG,ISIC_4532303.JPG,false,0,keypress(z),500,279204,279203.90000009537,275307.236,275533,275323.945,278997.798,8,400,9,,ISIC_0064692.JPG
break,html.Screen,4_58_1,2023-09-07T23:23:40.824Z,,0,,,NaN,,,,,,false,,,,279204.80000019073,279204.5,,279204.10000014305,,278997.798,8,400,,,
break_continue,html.Screen,4_58_2,2023-09-07T23:23:40.824Z,,0,,,NaN,,,,,,false,,,,279205.2000000477,279205.10000014305,,279205,,278997.798,8,400,,,
sequence,flow.Sequence,4_58,2023-09-07T23:23:40.824Z,,0,,,3881.155000143044,completion,,,,,false,,,,279205.30000019073,279205.10000014305,275307.236,275533,275323.945,278997.798,8,400,,,
trial,html.Screen,4_59_0,2023-09-07T23:23:45.007Z,,0,2,,4389.70199999999,response,ISIC_0033574.JPG,5,ISIC_0011959.JPG,ISIC_0011959.JPG,false,0,keypress(z),500,283387.60000014305,283387.5,278981.056,279205.30000019073,278997.798,283172.497,8,400,10,,ISIC_0033574.JPG
break,html.Screen,4_59_1,2023-09-07T23:23:45.008Z,,0,,,NaN,,,,,,false,,,,283388.40000009537,283388.10000014305,,283387.80000019073,,283172.497,8,400,,,
break_continue,html.Screen,4_59_2,2023-09-07T23:23:45.008Z,,0,,,NaN,,,,,,false,,,,283388.80000019073,283388.80000019073,,283388.60000014305,,283172.497,8,400,,,
sequence,flow.Sequence,4_59,2023-09-07T23:23:45.008Z,,0,,,4391.002000190725,completion,,,,,false,,,,283389,283388.80000019073,278981.056,279205.30000019073,278997.798,283172.497,8,400,,,
trial,html.Screen,4_60_0,2023-09-07T23:23:48.626Z,,0,2,,3833.603000143077,response,ISIC_8292179.JPG,4,ISIC_0063191.JPG,ISIC_8292179.JPG,false,1,keypress(m),500,287006.2000000477,287006.10000014305,283156.06,283389.10000014305,283172.497,286796.23,8,400,11,,ISIC_0063191.JPG
break,html.Screen,4_60_1,2023-09-07T23:23:48.626Z,,0,,,NaN,,,,,,false,,,,287006.90000009537,287006.60000014305,,287006.30000019073,,286796.23,8,400,,,
break_continue,html.Screen,4_60_2,2023-09-07T23:23:48.626Z,,0,,,NaN,,,,,,false,,,,287007.2000000477,287007.10000014305,,287007,,286796.23,8,400,,,
sequence,flow.Sequence,4_60,2023-09-07T23:23:48.627Z,,0,,,3834.603000143077,completion,,,,,false,,,,287007.30000019073,287007.10000014305,283156.06,283389,283172.497,286796.23,8,400,,,
trial,html.Screen,4_61_0,2023-09-07T23:23:53.076Z,,0,2,,4660.170000095386,response,ISIC_7205745.JPG,5,ISIC_0030769.JPG,ISIC_7205745.JPG,false,1,keypress(m),500,291456.5,291456.40000009537,286779.826,287007.30000019073,286796.23,291254.937,8,400,12,,ISIC_0030769.JPG
break,html.Screen,4_61_1,2023-09-07T23:23:53.076Z,,0,,,NaN,,,,,,false,,,,291457.10000014305,291456.90000009537,,291456.60000014305,,291254.937,8,400,,,
break_continue,html.Screen,4_61_2,2023-09-07T23:23:53.077Z,,0,,,NaN,,,,,,false,,,,291457.40000009537,291457.30000019073,,291457.2000000477,,291254.937,8,400,,,
sequence,flow.Sequence,4_61,2023-09-07T23:23:53.077Z,,0,,,4661.0700001907535,completion,,,,,false,,,,291457.60000014305,291457.30000019073,286779.826,287007.30000019073,286796.23,291254.937,8,400,,,
trial,html.Screen,4_62_0,2023-09-07T23:23:59.593Z,,0,2,,6718.663000143075,response,ISIC_0069330.JPG,5,ISIC_8485716.JPG,ISIC_0069330.JPG,false,1,keypress(m),500,297973.7000000477,297973.60000014305,291238.241,291457.60000014305,291254.937,297767.665,8,400,13,,ISIC_8485716.JPG
break,html.Screen,4_62_1,2023-09-07T23:23:59.594Z,,0,,,NaN,,,,,,false,,,,297974.30000019073,297974.10000014305,,297973.80000019073,,297767.665,8,400,,,
break_continue,html.Screen,4_62_2,2023-09-07T23:23:59.594Z,,0,,,NaN,,,,,,false,,,,297974.40000009537,297974.40000009537,,297974.30000019073,,297767.665,8,400,,,
sequence,flow.Sequence,4_62,2023-09-07T23:23:59.594Z,,0,,,6719.463000095391,completion,,,,,false,,,,297974.5,297974.40000009537,291238.241,291457.60000014305,291254.937,297767.665,8,400,,,
trial,html.Screen,4_63_0,2023-09-07T23:24:02.434Z,,0,2,,3046.435000143072,response,ISIC_3576000.JPG,5,ISIC_0034140.JPG,ISIC_3576000.JPG,false,1,keypress(m),500,300814.30000019073,300814.10000014305,297750.972,297974.5,297767.665,300606.468,8,400,14,,ISIC_0034140.JPG
break,html.Screen,4_63_1,2023-09-07T23:24:02.434Z,,0,,,NaN,,,,,,false,,,,300815.2000000477,300814.80000019073,,300814.40000009537,,300606.468,8,400,,,
break_continue,html.Screen,4_63_2,2023-09-07T23:24:02.435Z,,0,,,NaN,,,,,,false,,,,300815.40000009537,300815.40000009537,,300815.2000000477,,300606.468,8,400,,,
sequence,flow.Sequence,4_63,2023-09-07T23:24:02.435Z,,0,,,3047.7350000953884,completion,,,,,false,,,,300815.60000014305,300815.40000009537,297750.972,297974.5,297767.665,300606.468,8,400,,,
trial,html.Screen,4_64_0,2023-09-07T23:24:05.572Z,,0,2,,3346.432000095374,response,ISIC_0029017.JPG,5,ISIC_2858419.JPG,ISIC_0029017.JPG,false,1,keypress(m),500,303953,303952.90000009537,300589.788,300815.7000000477,300606.468,303745.87,8,400,15,,ISIC_2858419.JPG
break,html.Screen,4_64_1,2023-09-07T23:24:05.573Z,,0,,,NaN,,,,,,false,,,,303953.5,303953.40000009537,,303953.10000014305,,303745.87,8,400,,,
break_continue,html.Screen,4_64_2,2023-09-07T23:24:05.573Z,,0,,,NaN,,,,,,false,,,,303953.7000000477,303953.7000000477,,303953.60000014305,,303745.87,8,400,,,
sequence,flow.Sequence,4_64,2023-09-07T23:24:05.573Z,,0,,,3347.2320000476902,completion,,,,,false,,,,303953.80000019073,303953.7000000477,300589.788,300815.60000014305,300606.468,303745.87,8,400,,,
trial,html.Screen,4_65_0,2023-09-07T23:24:08.570Z,,0,2,,3204.9300001907395,response,ISIC_0008816.JPG,6,ISIC_0061624.JPG,ISIC_0008816.JPG,false,1,keypress(m),500,306951,306950.80000019073,303729.188,303953.90000009537,303745.87,306735.058,8,400,16,,ISIC_0061624.JPG
break,html.Screen,4_65_1,2023-09-07T23:24:08.571Z,,0,,,NaN,,,,,,false,,,,306951.7000000477,306951.40000009537,,306951.10000014305,,306735.058,8,400,,,
break_continue,html.Screen,4_65_2,2023-09-07T23:24:08.571Z,,0,,,NaN,,,,,,false,,,,306952,306951.90000009537,,306951.7000000477,,306735.058,8,400,,,
sequence,flow.Sequence,4_65,2023-09-07T23:24:08.571Z,,0,,,3206.030000095372,completion,,,,,false,,,,306952.10000014305,306951.90000009537,303729.188,303953.90000009537,303745.87,306735.058,8,400,,,
trial,html.Screen,4_66_0,2023-09-07T23:24:12.638Z,,0,2,,4283.342000095348,response,ISIC_2768150.JPG,5,ISIC_1488727.JPG,ISIC_2768150.JPG,false,1,keypress(m),500,311018.5,311018.40000009537,306718.514,306952.10000014305,306735.058,310809.645,8,400,17,,ISIC_1488727.JPG
break,html.Screen,4_66_1,2023-09-07T23:24:12.638Z,,0,,,NaN,,,,,,false,,,,311019.10000014305,311018.90000009537,,311018.60000014305,,310809.645,8,400,,,
break_continue,html.Screen,4_66_2,2023-09-07T23:24:12.639Z,,0,,,NaN,,,,,,false,,,,311019.40000009537,311019.40000009537,,311019.30000019073,,310809.645,8,400,,,
sequence,flow.Sequence,4_66,2023-09-07T23:24:12.639Z,,0,,,4284.342000095348,completion,,,,,false,,,,311019.5,311019.40000009537,306718.514,306952.10000014305,306735.058,310809.645,8,400,,,
trial,html.Screen,4_67_0,2023-09-07T23:24:15.969Z,,0,2,,3539.755000095349,response,ISIC_0033374.JPG,5,ISIC_0067621.JPG,ISIC_0033374.JPG,false,1,keypress(m),500,314349.5,314349.40000009537,310793.133,311019.5,310809.645,314132.757,8,400,18,,ISIC_0067621.JPG
break,html.Screen,4_67_1,2023-09-07T23:24:15.969Z,,0,,,NaN,,,,,,false,,,,314350,314349.90000009537,,314349.60000014305,,314132.757,8,400,,,
break_continue,html.Screen,4_67_2,2023-09-07T23:24:15.969Z,,0,,,NaN,,,,,,false,,,,314350.2000000477,314350.10000014305,,314350.10000014305,,314132.757,8,400,,,
sequence,flow.Sequence,4_67,2023-09-07T23:24:15.970Z,,0,,,3540.4550001430325,completion,,,,,false,,,,314350.30000019073,314350.10000014305,310793.133,311019.5,310809.645,314132.757,8,400,,,
trial,html.Screen,4_68_0,2023-09-07T23:24:18.771Z,,0,2,,3018.4430000477005,response,ISIC_5315125.JPG,5,ISIC_0011695.JPG,ISIC_5315125.JPG,false,1,keypress(m),500,317151.30000019073,317151.2000000477,314116.176,314350.30000019073,314132.757,316938.305,8,400,19,,ISIC_0011695.JPG
break,html.Screen,4_68_1,2023-09-07T23:24:18.771Z,,0,,,NaN,,,,,,false,,,,317152,317151.7000000477,,317151.5,,316938.305,8,400,,,
break_continue,html.Screen,4_68_2,2023-09-07T23:24:18.772Z,,0,,,NaN,,,,,,false,,,,317152.30000019073,317152.2000000477,,317152.10000014305,,316938.305,8,400,,,
sequence,flow.Sequence,4_68,2023-09-07T23:24:18.772Z,,0,,,3019.4430000477005,completion,,,,,false,,,,317152.40000009537,317152.2000000477,314116.176,314350.30000019073,314132.757,316938.305,8,400,,,
trial,html.Screen,4_69_0,2023-09-07T23:24:22.634Z,,0,2,,4076.695000000007,response,ISIC_0011789.JPG,4,ISIC_7642142.JPG,ISIC_7642142.JPG,false,0,keypress(z),500,321015.2000000477,321015,316921.568,317152.5,316938.305,320812.709,8,400,20,,ISIC_0011789.JPG
break,html.Screen,4_69_1,2023-09-07T23:24:22.636Z,,0,,,NaN,,,,,,false,,,,321016.80000019073,321016.40000009537,,321015.5,,320812.709,8,400,,,
break_continue,html.Screen,4_69_2,2023-09-07T23:24:22.637Z,,0,,,NaN,,,,,,false,,,,321017.40000009537,321017.30000019073,,321016.90000009537,,320812.709,8,400,,,
sequence,flow.Sequence,4_69,2023-09-07T23:24:22.637Z,,0,,,4078.995000190742,completion,,,,,false,,,,321017.7000000477,321017.30000019073,316921.568,317152.5,316938.305,320812.709,8,400,,,
trial,html.Screen,4_70_0,2023-09-07T23:24:26.463Z,,0,2,,4030.8910001430777,response,ISIC_1078854.JPG,6,ISIC_0012183.JPG,ISIC_1078854.JPG,false,1,keypress(m),500,324843.60000014305,324843.60000014305,320795.764,321017.80000019073,320812.709,324636.715,8,400,21,,ISIC_0012183.JPG
break,html.Screen,4_70_1,2023-09-07T23:24:26.464Z,,0,,,NaN,,,,,,false,,,,324844.30000019073,324844.10000014305,,324843.80000019073,,324636.715,8,400,,,
break_continue,html.Screen,4_70_2,2023-09-07T23:24:26.464Z,,0,,,NaN,,,,,,false,,,,324844.60000014305,324844.5,,324844.40000009537,,324636.715,8,400,,,
sequence,flow.Sequence,4_70,2023-09-07T23:24:26.464Z,,0,,,4031.7910000000265,completion,,,,,false,,,,324844.7000000477,324844.5,320795.764,321017.80000019073,320812.709,324636.715,8,400,,,
trial,html.Screen,4_71_0,2023-09-07T23:24:29.586Z,,0,2,,3330.0850001907093,response,ISIC_1328488.JPG,5,ISIC_0001137.JPG,ISIC_1328488.JPG,false,1,keypress(m),500,327966.90000009537,327966.80000019073,324620.029,324844.80000019073,324636.715,327759.264,8,400,22,,ISIC_0001137.JPG
break,html.Screen,4_71_1,2023-09-07T23:24:29.587Z,,0,,,NaN,,,,,,false,,,,327967.90000009537,327967.5,,327967.2000000477,,327759.264,8,400,,,
break_continue,html.Screen,4_71_2,2023-09-07T23:24:29.588Z,,0,,,NaN,,,,,,false,,,,327968.30000019073,327968.2000000477,,327967.90000009537,,327759.264,8,400,,,
sequence,flow.Sequence,4_71,2023-09-07T23:24:29.588Z,,0,,,3331.485000047658,completion,,,,,false,,,,327968.40000009537,327968.2000000477,324620.029,324844.80000019073,324636.715,327759.264,8,400,,,
trial,html.Screen,4_72_0,2023-09-07T23:24:32.918Z,,0,2,,3539.53600019071,response,ISIC_7951202.JPG,6,ISIC_6931712.JPG,ISIC_6931712.JPG,false,0,keypress(z),500,331299,331298.80000019073,327742.609,327968.5,327759.264,331082.462,8,400,23,,ISIC_7951202.JPG
break,html.Screen,4_72_1,2023-09-07T23:24:32.919Z,,0,,,NaN,,,,,,false,,,,331299.90000009537,331299.7000000477,,331299.2000000477,,331082.462,8,400,,,
break_continue,html.Screen,4_72_2,2023-09-07T23:24:32.920Z,,0,,,NaN,,,,,,false,,,,331300.30000019073,331300.2000000477,,331300,,331082.462,8,400,,,
sequence,flow.Sequence,4_72,2023-09-07T23:24:32.920Z,,0,,,3540.936000047659,completion,,,,,false,,,,331300.40000009537,331300.2000000477,327742.609,327968.5,327759.264,331082.462,8,400,,,
trial,html.Screen,4_73_0,2023-09-07T23:24:37.262Z,,0,2,,4559.738000047684,response,ISIC_2783450.JPG,5,ISIC_0069373.JPG,ISIC_2783450.JPG,false,1,keypress(m),500,335642.30000019073,335642.2000000477,331065.752,331300.5,331082.462,335440.9,8,400,24,,ISIC_0069373.JPG
break,html.Screen,4_73_1,2023-09-07T23:24:37.262Z,,0,,,NaN,,,,,,false,,,,335642.80000019073,335642.7000000477,,335642.40000009537,,335440.9,8,400,,,
break_continue,html.Screen,4_73_2,2023-09-07T23:24:37.262Z,,0,,,NaN,,,,,,false,,,,335643.10000014305,335643,,335642.90000009537,,335440.9,8,400,,,
sequence,flow.Sequence,4_73,2023-09-07T23:24:37.262Z,,0,,,4560.5380000000005,completion,,,,,false,,,,335643.2000000477,335643,331065.752,331300.5,331082.462,335440.9,8,400,,,
trial,html.Screen,4_74_0,2023-09-07T23:24:40.224Z,,0,2,,3163.700000143028,response,ISIC_0069370.JPG,5,ISIC_4634128.JPG,ISIC_4634128.JPG,false,0,keypress(z),500,338604.7000000477,338604.60000014305,335407.565,335643.30000019073,335440.9,338396.686,8,400,25,,ISIC_0069370.JPG
break,html.Screen,4_74_1,2023-09-07T23:24:40.225Z,,0,,,NaN,,,,,,false,,,,338605.40000009537,338605.2000000477,,338604.80000019073,,338396.686,8,400,,,
break_continue,html.Screen,4_74_2,2023-09-07T23:24:40.225Z,,0,,,NaN,,,,,,false,,,,338605.80000019073,338605.7000000477,,338605.5,,338396.686,8,400,,,
sequence,flow.Sequence,4_74,2023-09-07T23:24:40.225Z,,0,,,3164.8000000476604,completion,,,,,false,,,,338606,338605.7000000477,335407.565,335643.30000019073,335440.9,338396.686,8,400,,,
trial,html.Screen,4_75_0,2023-09-07T23:24:46.968Z,,0,2,,6951.814000000013,response,ISIC_7047780.JPG,5,ISIC_2930792.JPG,ISIC_7047780.JPG,false,1,keypress(m),500,345348.80000019073,345348.5,338380.182,338606.10000014305,338396.686,345143.148,8,400,26,,ISIC_2930792.JPG
break,html.Screen,4_75_1,2023-09-07T23:24:46.970Z,,0,,,NaN,,,,,,false,,,,345350.40000009537,345350,,345349.10000014305,,345143.148,8,400,,,
break_continue,html.Screen,4_75_2,2023-09-07T23:24:46.971Z,,0,,,NaN,,,,,,false,,,,345351.10000014305,345351,,345350.60000014305,,345143.148,8,400,,,
sequence,flow.Sequence,4_75,2023-09-07T23:24:46.971Z,,0,,,6954.314000000013,completion,,,,,false,,,,345351.5,345351,338380.182,338606,338396.686,345143.148,8,400,,,
trial,html.Screen,4_76_0,2023-09-07T23:24:50.111Z,,0,2,,3348.052000047697,response,ISIC_6487809.JPG,6,ISIC_1432058.JPG,ISIC_6487809.JPG,false,1,keypress(m),500,348491.30000019073,348491.2000000477,345126.486,345351.60000014305,345143.148,348282.657,8,400,27,,ISIC_1432058.JPG
break,html.Screen,4_76_1,2023-09-07T23:24:50.111Z,,0,,,NaN,,,,,,false,,,,348491.80000019073,348491.7000000477,,348491.40000009537,,348282.657,8,400,,,
break_continue,html.Screen,4_76_2,2023-09-07T23:24:50.111Z,,0,,,NaN,,,,,,false,,,,348492,348491.90000009537,,348491.80000019073,,348282.657,8,400,,,
sequence,flow.Sequence,4_76,2023-09-07T23:24:50.111Z,,0,,,3348.752000095381,completion,,,,,false,,,,348492.10000014305,348491.90000009537,345126.486,345351.60000014305,345143.148,348282.657,8,400,,,
trial,html.Screen,4_77_0,2023-09-07T23:24:52.914Z,,0,2,,3011.543000047677,response,ISIC_0059855.JPG,6,ISIC_0226072.JPG,ISIC_0226072.JPG,false,0,keypress(z),500,351294.30000019073,351294.2000000477,348265.851,348492.5,348282.657,351088.115,8,400,28,,ISIC_0059855.JPG
break,html.Screen,4_77_1,2023-09-07T23:24:52.915Z,,0,,,NaN,,,,,,false,,,,351295.2000000477,351294.80000019073,,351294.40000009537,,351088.115,8,400,,,
break_continue,html.Screen,4_77_2,2023-09-07T23:24:52.915Z,,0,,,NaN,,,,,,false,,,,351295.40000009537,351295.30000019073,,351295.2000000477,,351088.115,8,400,,,
sequence,flow.Sequence,4_77,2023-09-07T23:24:52.915Z,,0,,,3012.6430001907283,completion,,,,,false,,,,351295.5,351295.30000019073,348265.851,348492.5,348282.657,351088.115,8,400,,,
trial,html.Screen,4_78_0,2023-09-07T23:24:57.444Z,,0,2,,4736.585000047693,response,ISIC_0029150.JPG,5,ISIC_0027391.JPG,ISIC_0029150.JPG,false,1,keypress(m),500,355824.80000019073,355824.7000000477,351071.486,351295.60000014305,351088.115,355613.639,8,400,29,,ISIC_0027391.JPG
break,html.Screen,4_78_1,2023-09-07T23:24:57.445Z,,0,,,NaN,,,,,,false,,,,355825.40000009537,355825.30000019073,,355824.90000009537,,355613.639,8,400,,,
break_continue,html.Screen,4_78_2,2023-09-07T23:24:57.445Z,,0,,,NaN,,,,,,false,,,,355825.7000000477,355825.60000014305,,355825.5,,355613.639,8,400,,,
sequence,flow.Sequence,4_78,2023-09-07T23:24:57.445Z,,0,,,4737.4850001430605,completion,,,,,false,,,,355825.80000019073,355825.60000014305,351071.486,351295.60000014305,351088.115,355613.639,8,400,,,
trial,html.Screen,4_79_0,2023-09-07T23:25:03.303Z,,0,2,,6069.261000095343,response,ISIC_0027238.JPG,5,ISIC_3529778.JPG,ISIC_3529778.JPG,false,0,keypress(z),500,361683.10000014305,361682.90000009537,355596.908,355825.90000009537,355613.639,361474.894,8,400,30,,ISIC_0027238.JPG
break,html.Screen,4_79_1,2023-09-07T23:25:03.303Z,,0,,,NaN,,,,,,false,,,,361684,361683.7000000477,,361683.30000019073,,361474.894,8,400,,,
break_continue,html.Screen,4_79_2,2023-09-07T23:25:03.304Z,,0,,,NaN,,,,,,false,,,,361684.40000009537,361684.30000019073,,361684.10000014305,,361474.894,8,400,,,
sequence,flow.Sequence,4_79,2023-09-07T23:25:03.304Z,,0,,,6070.66100019071,completion,,,,,false,,,,361684.60000014305,361684.30000019073,355596.908,355825.90000009537,355613.639,361474.894,8,400,,,
trial,html.Screen,4_80_0,2023-09-07T23:25:08.796Z,,0,2,,5701.70600014308,response,ISIC_0061972.JPG,5,ISIC_0034193.JPG,ISIC_0034193.JPG,false,0,keypress(z),500,367176.80000019073,367176.60000014305,361458.35,361684.60000014305,361474.894,366969.093,8,400,31,,ISIC_0061972.JPG
break,html.Screen,4_80_1,2023-09-07T23:25:08.797Z,,0,,,NaN,,,,,,false,,,,367177.7000000477,367177.5,,367177,,366969.093,8,400,,,
break_continue,html.Screen,4_80_2,2023-09-07T23:25:08.798Z,,0,,,NaN,,,,,,false,,,,367178.10000014305,367178,,367177.80000019073,,366969.093,8,400,,,
sequence,flow.Sequence,4_80,2023-09-07T23:25:08.798Z,,0,,,5703.106000000029,completion,,,,,false,,,,367178.30000019073,367178,361458.35,361684.60000014305,361474.894,366969.093,8,400,,,
trial,html.Screen,4_81_0,2023-09-07T23:25:14.565Z,,0,2,,5976.807000095374,response,ISIC_0062133.JPG,6,ISIC_0028780.JPG,ISIC_0028780.JPG,false,0,keypress(z),500,372946.10000014305,372945.90000009537,366952.281,367178.40000009537,366969.093,372730.144,8,400,32,,ISIC_0062133.JPG
break,html.Screen,4_81_1,2023-09-07T23:25:14.566Z,,0,,,NaN,,,,,,false,,,,372946.90000009537,372946.5,,372946.2000000477,,372730.144,8,400,,,
break_continue,html.Screen,4_81_2,2023-09-07T23:25:14.567Z,,0,,,NaN,,,,,,false,,,,372947.10000014305,372947.10000014305,,372947,,372730.144,8,400,,,
sequence,flow.Sequence,4_81,2023-09-07T23:25:14.567Z,,0,,,5978.007000143058,completion,,,,,false,,,,372947.2000000477,372947.10000014305,366952.281,367178.40000009537,366969.093,372730.144,8,400,,,
trial,html.Screen,4_82_0,2023-09-07T23:25:18.136Z,,0,2,,3786.6560001907637,response,ISIC_0025941.JPG,5,ISIC_0028410.JPG,ISIC_0028410.JPG,false,0,keypress(z),500,376516.90000009537,376516.80000019073,372713.576,372947.2000000477,372730.144,376303.783,8,400,33,,ISIC_0025941.JPG
break,html.Screen,4_82_1,2023-09-07T23:25:18.137Z,,0,,,NaN,,,,,,false,,,,376517.40000009537,376517.30000019073,,376517.10000014305,,376303.783,8,400,,,
break_continue,html.Screen,4_82_2,2023-09-07T23:25:18.137Z,,0,,,NaN,,,,,,false,,,,376517.60000014305,376517.60000014305,,376517.5,,376303.783,8,400,,,
sequence,flow.Sequence,4_82,2023-09-07T23:25:18.137Z,,0,,,3787.45600014308,completion,,,,,false,,,,376517.7000000477,376517.60000014305,372713.576,372947.2000000477,372730.144,376303.783,8,400,,,
trial,html.Screen,4_83_0,2023-09-07T23:25:24.203Z,,0,2,,6279.317000143055,response,ISIC_0031891.JPG,5,ISIC_9263990.JPG,ISIC_0031891.JPG,false,1,keypress(m),500,382583.2000000477,382583.10000014305,376287.213,376517.7000000477,376303.783,382365.521,8,400,34,,ISIC_9263990.JPG
break,html.Screen,4_83_1,2023-09-07T23:25:24.203Z,,0,,,NaN,,,,,,false,,,,382583.90000009537,382583.7000000477,,382583.40000009537,,382365.521,8,400,,,
break_continue,html.Screen,4_83_2,2023-09-07T23:25:24.204Z,,0,,,NaN,,,,,,false,,,,382584.2000000477,382584.2000000477,,382584,,382365.521,8,400,,,
sequence,flow.Sequence,4_83,2023-09-07T23:25:24.204Z,,0,,,6280.417000047688,completion,,,,,false,,,,382584.30000019073,382584.2000000477,376287.213,376517.7000000477,376303.783,382365.521,8,400,,,
trial,html.Screen,4_84_0,2023-09-07T23:25:27.425Z,,0,2,,3440.3790000953595,response,ISIC_0074311.JPG,5,ISIC_0059435.JPG,ISIC_0074311.JPG,false,1,keypress(m),500,385806,385805.90000009537,382348.889,382584.40000009537,382365.521,385588.505,8,400,35,,ISIC_0059435.JPG
break,html.Screen,4_84_1,2023-09-07T23:25:27.426Z,,0,,,NaN,,,,,,false,,,,385806.60000014305,385806.40000009537,,385806.10000014305,,385588.505,8,400,,,
break_continue,html.Screen,4_84_2,2023-09-07T23:25:27.426Z,,0,,,NaN,,,,,,false,,,,385807,385806.90000009537,,385806.7000000477,,385588.505,8,400,,,
sequence,flow.Sequence,4_84,2023-09-07T23:25:27.427Z,,0,,,3441.3790000953595,completion,,,,,false,,,,385807.2000000477,385806.90000009537,382348.889,382584.30000019073,382365.521,385588.505,8,400,,,
trial,html.Screen,4_85_0,2023-09-07T23:25:30.469Z,,0,2,,3261.195000047679,response,ISIC_0029942.JPG,4,ISIC_3936223.JPG,ISIC_0029942.JPG,false,1,keypress(m),500,388849.90000009537,388849.7000000477,385571.766,385808,385588.505,388644.483,8,400,36,,ISIC_3936223.JPG
break,html.Screen,4_85_1,2023-09-07T23:25:30.470Z,,0,,,NaN,,,,,,false,,,,388850.60000014305,388850.30000019073,,388850,,388644.483,8,400,,,
break_continue,html.Screen,4_85_2,2023-09-07T23:25:30.470Z,,0,,,NaN,,,,,,false,,,,388850.90000009537,388850.80000019073,,388850.7000000477,,388644.483,8,400,,,
sequence,flow.Sequence,4_85,2023-09-07T23:25:30.470Z,,0,,,3262.29500019073,completion,,,,,false,,,,388851,388850.80000019073,385571.766,385808,385588.505,388644.483,8,400,,,
trial,html.Screen,4_86_0,2023-09-07T23:25:34.428Z,,0,2,,4164.016999999993,response,ISIC_0030703.JPG,5,ISIC_1384527.JPG,ISIC_0030703.JPG,false,1,keypress(m),500,392808.60000014305,392808.5,388627.746,388851,388644.483,392602.293,8,400,37,,ISIC_1384527.JPG
break,html.Screen,4_86_1,2023-09-07T23:25:34.429Z,,0,,,NaN,,,,,,false,,,,392809.30000019073,392809,,392808.7000000477,,392602.293,8,400,,,
break_continue,html.Screen,4_86_2,2023-09-07T23:25:34.429Z,,0,,,NaN,,,,,,false,,,,392809.60000014305,392809.60000014305,,392809.40000009537,,392602.293,8,400,,,
sequence,flow.Sequence,4_86,2023-09-07T23:25:34.429Z,,0,,,4165.117000143044,completion,,,,,false,,,,392809.7000000477,392809.60000014305,388627.746,388851,388644.483,392602.293,8,400,,,
trial,html.Screen,4_87_0,2023-09-07T23:25:38.255Z,,0,2,,4032.9070000476786,response,ISIC_0071586.JPG,6,ISIC_1488727.JPG,ISIC_1488727.JPG,false,0,keypress(z),500,396635.40000009537,396635.2000000477,392585.424,392809.80000019073,392602.293,396443.079,8,400,38,,ISIC_0071586.JPG
break,html.Screen,4_87_1,2023-09-07T23:25:38.256Z,,0,,,NaN,,,,,,false,,,,396636.30000019073,396636,,396635.60000014305,,396443.079,8,400,,,
break_continue,html.Screen,4_87_2,2023-09-07T23:25:38.256Z,,0,,,NaN,,,,,,false,,,,396636.80000019073,396636.7000000477,,396636.30000019073,,396443.079,8,400,,,
sequence,flow.Sequence,4_87,2023-09-07T23:25:38.256Z,,0,,,4034.4070000476786,completion,,,,,false,,,,396637,396636.7000000477,392585.424,392809.7000000477,392602.293,396443.079,8,400,,,
trial,html.Screen,4_88_0,2023-09-07T23:25:41.379Z,,0,2,,3316.221000190708,response,ISIC_9694020.JPG,6,ISIC_0193907.JPG,ISIC_0193907.JPG,false,0,keypress(z),500,399759.5,399759.30000019073,396426.218,396637.10000014305,396443.079,399549.078,8,400,39,,ISIC_9694020.JPG
break,html.Screen,4_88_1,2023-09-07T23:25:41.380Z,,0,,,NaN,,,,,,false,,,,399760.2000000477,399759.90000009537,,399759.60000014305,,399549.078,8,400,,,
break_continue,html.Screen,4_88_2,2023-09-07T23:25:41.380Z,,0,,,NaN,,,,,,false,,,,399760.40000009537,399760.40000009537,,399760.30000019073,,399549.078,8,400,,,
sequence,flow.Sequence,4_88,2023-09-07T23:25:41.380Z,,0,,,3317.3210000953404,completion,,,,,false,,,,399760.60000014305,399760.40000009537,396426.218,396637.10000014305,396443.079,399549.078,8,400,,,
trial,html.Screen,4_89_0,2023-09-07T23:25:49.383Z,,0,2,,8214.022000143072,response,ISIC_1768733.JPG,5,ISIC_6637542.JPG,ISIC_1768733.JPG,false,1,keypress(m),500,407763.30000019073,407763.10000014305,399532.466,399760.7000000477,399549.078,407547.903,8,400,40,,ISIC_6637542.JPG
break,html.Screen,4_89_1,2023-09-07T23:25:49.383Z,,0,,,NaN,,,,,,false,,,,407763.7000000477,407763.60000014305,,407763.30000019073,,407547.903,8,400,,,
break_continue,html.Screen,4_89_2,2023-09-07T23:25:49.383Z,,0,,,NaN,,,,,,false,,,,407763.90000009537,407763.90000009537,,407763.80000019073,,407547.903,8,400,,,
sequence,flow.Sequence,4_89,2023-09-07T23:25:49.384Z,,0,,,8214.822000095388,completion,,,,,false,,,,407764,407763.90000009537,399532.466,399760.60000014305,399549.078,407547.903,8,400,,,
trial,html.Screen,4_90_0,2023-09-07T23:25:52.735Z,,0,2,,3567.597000000009,response,ISIC_7558912.JPG,5,ISIC_0068525.JPG,ISIC_0068525.JPG,false,0,keypress(z),500,411115.60000014305,411115.5,407531.209,407764.10000014305,407547.903,410904.407,8,400,41,,ISIC_7558912.JPG
break,html.Screen,4_90_1,2023-09-07T23:25:52.736Z,,0,,,NaN,,,,,,false,,,,411116.10000014305,411116,,411115.7000000477,,410904.407,8,400,,,
break_continue,html.Screen,4_90_2,2023-09-07T23:25:52.736Z,,0,,,NaN,,,,,,false,,,,411116.30000019073,411116.30000019073,,411116.10000014305,,410904.407,8,400,,,
sequence,flow.Sequence,4_90,2023-09-07T23:25:52.736Z,,0,,,3568.3970001907437,completion,,,,,false,,,,411116.30000019073,411116.30000019073,407531.209,407764.10000014305,407547.903,410904.407,8,400,,,
trial,html.Screen,4_91_0,2023-09-07T23:25:55.832Z,,0,2,,3307.493000095361,response,ISIC_3463156.JPG,5,ISIC_4432898.JPG,ISIC_4432898.JPG,false,0,keypress(z),500,414212,414211.90000009537,410887.709,411116.5,410904.407,413993.803,8,400,42,,ISIC_3463156.JPG
break,html.Screen,4_91_1,2023-09-07T23:25:55.832Z,,0,,,NaN,,,,,,false,,,,414212.80000019073,414212.5,,414212.2000000477,,413993.803,8,400,,,
break_continue,html.Screen,4_91_2,2023-09-07T23:25:55.833Z,,0,,,NaN,,,,,,false,,,,414213.10000014305,414213,,414212.90000009537,,413993.803,8,400,,,
sequence,flow.Sequence,4_91,2023-09-07T23:25:55.833Z,,0,,,3308.5929999999935,completion,,,,,false,,,,414213.2000000477,414213,410887.709,411116.30000019073,410904.407,413993.803,8,400,,,
trial,html.Screen,4_92_0,2023-09-07T23:26:01.682Z,,0,2,,6068.696999999986,response,ISIC_0024987.JPG,5,ISIC_0031248.JPG,ISIC_0024987.JPG,false,1,keypress(m),500,420062.60000014305,420062.5,413977.074,414213.30000019073,413993.803,419871.891,8,400,43,,ISIC_0031248.JPG
break,html.Screen,4_92_1,2023-09-07T23:26:01.683Z,,0,,,NaN,,,,,,false,,,,420063.2000000477,420063,,420062.80000019073,,419871.891,8,400,,,
break_continue,html.Screen,4_92_2,2023-09-07T23:26:01.683Z,,0,,,NaN,,,,,,false,,,,420063.30000019073,420063.30000019073,,420063.2000000477,,419871.891,8,400,,,
sequence,flow.Sequence,4_92,2023-09-07T23:26:01.683Z,,0,,,6069.49700019072,completion,,,,,false,,,,420063.40000009537,420063.30000019073,413977.074,414213.30000019073,413993.803,419871.891,8,400,,,
trial,html.Screen,4_93_0,2023-09-07T23:26:05.700Z,,0,2,,4208.709000143048,response,ISIC_0005681.JPG,6,ISIC_0031835.JPG,ISIC_0005681.JPG,false,1,keypress(m),500,424080.7000000477,424080.60000014305,419855.319,420063.60000014305,419871.891,423879.683,8,400,44,,ISIC_0031835.JPG
break,html.Screen,4_93_1,2023-09-07T23:26:05.701Z,,0,,,NaN,,,,,,false,,,,424081.2000000477,424081.10000014305,,424080.80000019073,,423879.683,8,400,,,
break_continue,html.Screen,4_93_2,2023-09-07T23:26:05.701Z,,0,,,NaN,,,,,,false,,,,424081.40000009537,424081.30000019073,,424081.30000019073,,423879.683,8,400,,,
sequence,flow.Sequence,4_93,2023-09-07T23:26:05.701Z,,0,,,4209.409000190732,completion,,,,,false,,,,424081.60000014305,424081.30000019073,419855.319,420063.5,419871.891,423879.683,8,400,,,
trial,html.Screen,4_94_0,2023-09-07T23:26:09.062Z,,0,2,,3562.417000143032,response,ISIC_0034090.JPG,6,ISIC_0025964.JPG,ISIC_0025964.JPG,false,0,keypress(z),500,427442.30000019073,427442.10000014305,423862.996,424081.60000014305,423879.683,427236.19,8,400,45,,ISIC_0034090.JPG
break,html.Screen,4_94_1,2023-09-07T23:26:09.062Z,,0,,,NaN,,,,,,false,,,,427442.7000000477,427442.7000000477,,427442.40000009537,,427236.19,8,400,,,
break_continue,html.Screen,4_94_2,2023-09-07T23:26:09.063Z,,0,,,NaN,,,,,,false,,,,427443,427442.90000009537,,427442.80000019073,,427236.19,8,400,,,
sequence,flow.Sequence,4_94,2023-09-07T23:26:09.063Z,,0,,,3563.2170000953483,completion,,,,,false,,,,427443.2000000477,427442.90000009537,423862.996,424081.60000014305,423879.683,427236.19,8,400,,,
trial,html.Screen,4_95_0,2023-09-07T23:26:12.888Z,,0,2,,4032.410000143049,response,ISIC_6434210.JPG,6,ISIC_8366864.JPG,ISIC_8366864.JPG,false,0,keypress(z),500,431268.7000000477,431268.60000014305,427219.682,427443.30000019073,427236.19,431060.477,8,400,46,,ISIC_6434210.JPG
break,html.Screen,4_95_1,2023-09-07T23:26:12.889Z,,0,,,NaN,,,,,,false,,,,431269.40000009537,431269.10000014305,,431268.80000019073,,431060.477,8,400,,,
break_continue,html.Screen,4_95_2,2023-09-07T23:26:12.889Z,,0,,,NaN,,,,,,false,,,,431269.7000000477,431269.60000014305,,431269.5,,431060.477,8,400,,,
sequence,flow.Sequence,4_95,2023-09-07T23:26:12.889Z,,0,,,4033.410000143049,completion,,,,,false,,,,431269.7000000477,431269.60000014305,427219.682,427443.30000019073,427236.19,431060.477,8,400,,,
trial,html.Screen,4_96_0,2023-09-07T23:26:17.105Z,,0,2,,4423.923000095354,response,ISIC_3382231.JPG,5,ISIC_0031745.JPG,ISIC_0031745.JPG,false,0,keypress(z),500,435485.60000014305,435484.40000009537,431043.676,431269.80000019073,431060.477,435268.535,8,400,47,,ISIC_3382231.JPG
break,html.Screen,4_96_1,2023-09-07T23:26:17.106Z,,0,,,NaN,,,,,,false,,,,435486.5,435486.2000000477,,435485.80000019073,,435268.535,8,400,,,
break_continue,html.Screen,4_96_2,2023-09-07T23:26:17.106Z,,0,,,NaN,,,,,,false,,,,435486.80000019073,435486.7000000477,,435486.60000014305,,435268.535,8,400,,,
sequence,flow.Sequence,4_96,2023-09-07T23:26:17.106Z,,0,,,4426.22300004767,completion,,,,,false,,,,435486.90000009537,435486.7000000477,431043.676,431269.80000019073,431060.477,435268.535,8,400,,,
trial,html.Screen,4_97_0,2023-09-07T23:26:21.257Z,,0,2,,4368.665000047709,response,ISIC_2259861.JPG,5,ISIC_7152347.JPG,ISIC_2259861.JPG,false,1,keypress(m),500,439637.30000019073,439637.2000000477,435251.788,435487,435268.535,439426.6,8,400,48,,ISIC_7152347.JPG
break,html.Screen,4_97_1,2023-09-07T23:26:21.257Z,,0,,,NaN,,,,,,false,,,,439637.80000019073,439637.7000000477,,439637.40000009537,,439426.6,8,400,,,
break_continue,html.Screen,4_97_2,2023-09-07T23:26:21.258Z,,0,,,NaN,,,,,,false,,,,439638,439638,,439637.90000009537,,439426.6,8,400,,,
sequence,flow.Sequence,4_97,2023-09-07T23:26:21.258Z,,0,,,4369.465000000026,completion,,,,,false,,,,439638.10000014305,439638,435251.788,435487,435268.535,439426.6,8,400,,,
trial,html.Screen,4_98_0,2023-09-07T23:26:26.251Z,,0,2,,5204.600000047707,response,ISIC_9572152.JPG,5,ISIC_0060535.JPG,ISIC_0060535.JPG,false,0,keypress(z),500,444631.30000019073,444631.2000000477,439409.94,439638.2000000477,439426.6,444419.62,8,400,49,,ISIC_9572152.JPG
break,html.Screen,4_98_1,2023-09-07T23:26:26.252Z,,0,,,NaN,,,,,,false,,,,444632,444631.7000000477,,444631.5,,444419.62,8,400,,,
break_continue,html.Screen,4_98_2,2023-09-07T23:26:26.252Z,,0,,,NaN,,,,,,false,,,,444632.30000019073,444632.2000000477,,444632.10000014305,,444419.62,8,400,,,
sequence,flow.Sequence,4_98,2023-09-07T23:26:26.252Z,,0,,,5205.600000047707,completion,,,,,false,,,,444632.40000009537,444632.2000000477,439409.94,439638.10000014305,439426.6,444419.62,8,400,,,
trial,html.Screen,4_99_0,2023-09-07T23:26:29.199Z,,0,2,,3159.3800000000047,response,ISIC_0009913.JPG,6,ISIC_6054977.JPG,ISIC_6054977.JPG,false,0,keypress(z),500,447579.2000000477,447579,444403.165,444632.60000014305,444419.62,447375.375,8,400,50,,ISIC_0009913.JPG
break,html.Screen,4_99_1,2023-09-07T23:26:38.975Z,,0,,,9769.070999999996,timeout,,,,,false,,,,457355.40000009537,457355.2000000477,447358.676,447579.5,447375.375,457144.446,8,400,,,
break_continue,html.Screen,4_99_2,2023-09-07T23:26:51.809Z,,0,,,13030.454000095371,response,,,,,false,continue,keypress(Space),,470189.5,470174.90000009537,457355.2000000477,457355.60000014305,457144.446,469986.215,8,400,,,
sequence,flow.Sequence,4_99,2023-09-07T23:26:51.809Z,,0,,,25755.280000095372,completion,,,,,false,,,,470189.60000014305,470174.90000009537,444403.165,444632.5,444419.62,469986.215,8,400,,,
trial,html.Screen,4_100_0,2023-09-07T23:26:55.766Z,,0,3,,4159.985000047658,response,ISIC_0056141.JPG,5,ISIC_6507412.JPG,ISIC_6507412.JPG,false,0,keypress(z),500,474146.30000019073,474146.2000000477,469969.402,470189.60000014305,469986.215,473943.899,8,400,1,,ISIC_0056141.JPG
break,html.Screen,4_100_1,2023-09-07T23:26:55.767Z,,0,,,NaN,,,,,,false,,,,474147.30000019073,474147,,474146.5,,473943.899,8,400,,,
break_continue,html.Screen,4_100_2,2023-09-07T23:26:55.767Z,,0,,,NaN,,,,,,false,,,,474147.80000019073,474147.7000000477,,474147.5,,473943.899,8,400,,,
sequence,flow.Sequence,4_100,2023-09-07T23:26:55.768Z,,0,,,4161.485000047658,completion,,,,,false,,,,474148,474147.7000000477,469969.402,470189.60000014305,469986.215,473943.899,8,400,,,
trial,html.Screen,4_101_0,2023-09-07T23:26:59.258Z,,0,3,,3694.401000190759,response,ISIC_0009958.JPG,6,ISIC_3329255.JPG,ISIC_3329255.JPG,false,0,keypress(z),500,477638.5,477638.30000019073,473910.601,474148.10000014305,473943.899,477433.947,8,400,2,,ISIC_0009958.JPG
break,html.Screen,4_101_1,2023-09-07T23:26:59.259Z,,0,,,NaN,,,,,,false,,,,477639.10000014305,477639,,477638.60000014305,,477433.947,8,400,,,
break_continue,html.Screen,4_101_2,2023-09-07T23:26:59.259Z,,0,,,NaN,,,,,,false,,,,477639.60000014305,477639.40000009537,,477639.2000000477,,477433.947,8,400,,,
sequence,flow.Sequence,4_101,2023-09-07T23:26:59.259Z,,0,,,3695.5010000953916,completion,,,,,false,,,,477639.7000000477,477639.40000009537,473910.601,474148.10000014305,473943.899,477433.947,8,400,,,
trial,html.Screen,4_102_0,2023-09-07T23:27:02.370Z,,0,3,,3316.253000047698,response,ISIC_0030784.JPG,5,ISIC_0070782.JPG,ISIC_0070782.JPG,false,0,keypress(z),500,480750.30000019073,480750.2000000477,477417.17,477639.80000019073,477433.947,480539.966,8,400,3,,ISIC_0030784.JPG
break,html.Screen,4_102_1,2023-09-07T23:27:02.370Z,,0,,,NaN,,,,,,false,,,,480750.80000019073,480750.7000000477,,480750.40000009537,,480539.966,8,400,,,
break_continue,html.Screen,4_102_2,2023-09-07T23:27:02.371Z,,0,,,NaN,,,,,,false,,,,480751,480751,,480750.90000009537,,480539.966,8,400,,,
sequence,flow.Sequence,4_102,2023-09-07T23:27:02.371Z,,0,,,3317.0530000000144,completion,,,,,false,,,,480751.10000014305,480751,477417.17,477639.80000019073,477433.947,480539.966,8,400,,,
trial,html.Screen,4_103_0,2023-09-07T23:27:05.892Z,,0,3,,3732.4340000953525,response,ISIC_0034311.JPG,5,ISIC_3518299.JPG,ISIC_3518299.JPG,false,0,keypress(z),500,484272.5,484272.40000009537,480523.205,480751.10000014305,480539.966,484063.529,8,400,4,,ISIC_0034311.JPG
break,html.Screen,4_103_1,2023-09-07T23:27:05.893Z,,0,,,NaN,,,,,,false,,,,484273.5,484273.2000000477,,484272.7000000477,,484063.529,8,400,,,
break_continue,html.Screen,4_103_2,2023-09-07T23:27:05.893Z,,0,,,NaN,,,,,,false,,,,484273.80000019073,484273.80000019073,,484273.60000014305,,484063.529,8,400,,,
sequence,flow.Sequence,4_103,2023-09-07T23:27:05.894Z,,0,,,3733.83400019072,completion,,,,,false,,,,484274,484273.80000019073,480523.205,480751.10000014305,480539.966,484063.529,8,400,,,
trial,html.Screen,4_104_0,2023-09-07T23:27:08.893Z,,0,3,,3209.9710000000196,response,ISIC_7888672.JPG,5,ISIC_0024732.JPG,ISIC_7888672.JPG,false,1,keypress(m),500,487273.7000000477,487273.5,484046.805,484274.10000014305,484063.529,487069.324,8,400,5,,ISIC_0024732.JPG
break,html.Screen,4_104_1,2023-09-07T23:27:08.894Z,,0,,,NaN,,,,,,false,,,,487274.2000000477,487274,,487273.7000000477,,487069.324,8,400,,,
break_continue,html.Screen,4_104_2,2023-09-07T23:27:08.894Z,,0,,,NaN,,,,,,false,,,,487274.5,487274.5,,487274.30000019073,,487069.324,8,400,,,
sequence,flow.Sequence,4_104,2023-09-07T23:27:08.894Z,,0,,,3210.9710000000196,completion,,,,,false,,,,487274.60000014305,487274.5,484046.805,484274.10000014305,484063.529,487069.324,8,400,,,
trial,html.Screen,4_105_0,2023-09-07T23:27:14.017Z,,0,3,,5327.675999999978,response,ISIC_0054239.JPG,5,ISIC_6108795.JPG,ISIC_6108795.JPG,false,0,keypress(z),500,492397.2000000477,492397,487052.601,487274.60000014305,487069.324,492179.264,8,400,6,,ISIC_0054239.JPG
break,html.Screen,4_105_1,2023-09-07T23:27:14.017Z,,0,,,NaN,,,,,,false,,,,492397.7000000477,492397.5,,492397.30000019073,,492179.264,8,400,,,
break_continue,html.Screen,4_105_2,2023-09-07T23:27:14.018Z,,0,,,NaN,,,,,,false,,,,492397.90000009537,492397.80000019073,,492397.7000000477,,492179.264,8,400,,,
sequence,flow.Sequence,4_105,2023-09-07T23:27:14.018Z,,0,,,5328.4760001907125,completion,,,,,false,,,,492398,492397.80000019073,487052.601,487274.60000014305,487069.324,492179.264,8,400,,,
trial,html.Screen,4_106_0,2023-09-07T23:27:17.267Z,,0,3,,3468.436000047659,response,ISIC_0010933.JPG,4,ISIC_3084322.JPG,ISIC_3084322.JPG,false,0,keypress(z),500,495647.80000019073,495647.7000000477,492162.549,492398.10000014305,492179.264,495435.562,8,400,7,,ISIC_0010933.JPG
break,html.Screen,4_106_1,2023-09-07T23:27:17.268Z,,0,,,NaN,,,,,,false,,,,495648.40000009537,495648.30000019073,,495647.90000009537,,495435.562,8,400,,,
break_continue,html.Screen,4_106_2,2023-09-07T23:27:17.268Z,,0,,,NaN,,,,,,false,,,,495648.80000019073,495648.7000000477,,495648.60000014305,,495435.562,8,400,,,
sequence,flow.Sequence,4_106,2023-09-07T23:27:17.269Z,,0,,,3469.436000047659,completion,,,,,false,,,,495648.90000009537,495648.7000000477,492162.549,492398.10000014305,492179.264,495435.562,8,400,,,
trial,html.Screen,4_107_0,2023-09-07T23:27:20.198Z,,0,3,,3142.6380000477075,response,ISIC_6507412.JPG,5,ISIC_0030695.JPG,ISIC_6507412.JPG,false,1,keypress(m),500,498578.30000019073,498578.2000000477,495418.993,495649,495435.562,498374.636,8,400,8,,ISIC_0030695.JPG
break,html.Screen,4_107_1,2023-09-07T23:27:20.198Z,,0,,,NaN,,,,,,false,,,,498578.80000019073,498578.7000000477,,498578.40000009537,,498374.636,8,400,,,
break_continue,html.Screen,4_107_2,2023-09-07T23:27:20.199Z,,0,,,NaN,,,,,,false,,,,498579,498579,,498578.90000009537,,498374.636,8,400,,,
sequence,flow.Sequence,4_107,2023-09-07T23:27:20.199Z,,0,,,3143.4380000000237,completion,,,,,false,,,,498579.10000014305,498579,495418.993,495649,495435.562,498374.636,8,400,,,
trial,html.Screen,4_108_0,2023-09-07T23:27:23.544Z,,0,3,,3549.6640001907363,response,ISIC_5369000.JPG,5,ISIC_9167290.JPG,ISIC_9167290.JPG,false,0,keypress(z),500,501924.40000009537,501924.30000019073,498357.981,498579.10000014305,498374.636,501714.478,8,400,9,,ISIC_5369000.JPG
break,html.Screen,4_108_1,2023-09-07T23:27:23.545Z,,0,,,NaN,,,,,,false,,,,501925,501924.80000019073,,501924.60000014305,,501714.478,8,400,,,
break_continue,html.Screen,4_108_2,2023-09-07T23:27:23.545Z,,0,,,NaN,,,,,,false,,,,501925.2000000477,501925.10000014305,,501925.10000014305,,501714.478,8,400,,,
sequence,flow.Sequence,4_108,2023-09-07T23:27:23.545Z,,0,,,3550.4640001430525,completion,,,,,false,,,,501925.40000009537,501925.10000014305,498357.981,498579.10000014305,498374.636,501714.478,8,400,,,
trial,html.Screen,4_109_0,2023-09-07T23:27:28.314Z,,0,3,,4980.222000047681,response,ISIC_0034074.JPG,4,ISIC_0062208.JPG,ISIC_0062208.JPG,false,0,keypress(z),500,506694.90000009537,506694.7000000477,501697.795,501925.5,501714.478,506490.45,8,400,10,,ISIC_0034074.JPG
break,html.Screen,4_109_1,2023-09-07T23:27:28.315Z,,0,,,NaN,,,,,,false,,,,506695.40000009537,506695.30000019073,,506695,,506490.45,8,400,,,
break_continue,html.Screen,4_109_2,2023-09-07T23:27:28.315Z,,0,,,NaN,,,,,,false,,,,506695.7000000477,506695.60000014305,,506695.5,,506490.45,8,400,,,
sequence,flow.Sequence,4_109,2023-09-07T23:27:28.315Z,,0,,,4981.122000143048,completion,,,,,false,,,,506695.80000019073,506695.60000014305,501697.795,501925.40000009537,501714.478,506490.45,8,400,,,
trial,html.Screen,4_110_0,2023-09-07T23:27:31.885Z,,0,3,,3775.0499999999884,response,ISIC_6168754.JPG,5,ISIC_3565564.JPG,ISIC_6168754.JPG,false,1,keypress(m),500,510265.60000014305,510265.5,506473.771,506695.90000009537,506490.45,510047.343,8,400,11,,ISIC_3565564.JPG
break,html.Screen,4_110_1,2023-09-07T23:27:31.887Z,,0,,,NaN,,,,,,false,,,,510267.7000000477,510266.40000009537,,510265.90000009537,,510047.343,8,400,,,
break_continue,html.Screen,4_110_2,2023-09-07T23:27:31.888Z,,0,,,NaN,,,,,,false,,,,510268.2000000477,510268.10000014305,,510267.80000019073,,510047.343,8,400,,,
sequence,flow.Sequence,4_110,2023-09-07T23:27:31.888Z,,0,,,3777.6500001430395,completion,,,,,false,,,,510268.40000009537,510268.10000014305,506473.771,506695.80000019073,506490.45,510047.343,8,400,,,
trial,html.Screen,4_111_0,2023-09-07T23:27:35.491Z,,0,3,,3823.4570001907414,response,ISIC_8689112.JPG,5,ISIC_2260249.JPG,ISIC_2260249.JPG,false,0,keypress(z),500,513871,513870.80000019073,510030.748,510268.40000009537,510047.343,513671.082,8,400,12,,ISIC_8689112.JPG
break,html.Screen,4_111_1,2023-09-07T23:27:35.492Z,,0,,,NaN,,,,,,false,,,,513872,513871.7000000477,,513871.10000014305,,513671.082,8,400,,,
break_continue,html.Screen,4_111_2,2023-09-07T23:27:35.492Z,,0,,,NaN,,,,,,false,,,,513872.60000014305,513872.5,,513872.2000000477,,513671.082,8,400,,,
sequence,flow.Sequence,4_111,2023-09-07T23:27:35.492Z,,0,,,3825.1570000000065,completion,,,,,false,,,,513872.80000019073,513872.5,510030.748,510268.40000009537,510047.343,513671.082,8,400,,,
trial,html.Screen,4_112_0,2023-09-07T23:27:39.238Z,,0,3,,3946.71800019074,response,ISIC_3992223.JPG,5,ISIC_5787517.JPG,ISIC_5787517.JPG,false,0,keypress(z),500,517617.90000009537,517617.80000019073,513654.361,513872.90000009537,513671.082,517411.684,8,400,13,,ISIC_3992223.JPG
break,html.Screen,4_112_1,2023-09-07T23:27:39.238Z,,0,,,NaN,,,,,,false,,,,517618.5,517618.40000009537,,517618.10000014305,,517411.684,8,400,,,
break_continue,html.Screen,4_112_2,2023-09-07T23:27:39.238Z,,0,,,NaN,,,,,,false,,,,517618.7000000477,517618.7000000477,,517618.60000014305,,517411.684,8,400,,,
sequence,flow.Sequence,4_112,2023-09-07T23:27:39.238Z,,0,,,3947.618000047689,completion,,,,,false,,,,517618.7000000477,517618.7000000477,513654.361,513872.80000019073,513671.082,517411.684,8,400,,,
trial,html.Screen,4_113_0,2023-09-07T23:27:42.441Z,,0,3,,3409.1160001907265,response,ISIC_3256887.JPG,5,ISIC_0000517.JPG,ISIC_3256887.JPG,false,1,keypress(m),500,520821,520820.80000019073,517394.968,517618.80000019073,517411.684,520617.992,8,400,14,,ISIC_0000517.JPG
break,html.Screen,4_113_1,2023-09-07T23:27:42.442Z,,0,,,NaN,,,,,,false,,,,520821.90000009537,520821.60000014305,,520821.2000000477,,520617.992,8,400,,,
break_continue,html.Screen,4_113_2,2023-09-07T23:27:42.442Z,,0,,,NaN,,,,,,false,,,,520822.30000019073,520822.2000000477,,520822,,520617.992,8,400,,,
sequence,flow.Sequence,4_113,2023-09-07T23:27:42.442Z,,0,,,3410.5160000476753,completion,,,,,false,,,,520822.40000009537,520822.2000000477,517394.968,517618.80000019073,517411.684,520617.992,8,400,,,
trial,html.Screen,4_114_0,2023-09-07T23:27:49.277Z,,0,3,,7038.708000047656,response,ISIC_3649113.JPG,4,ISIC_0027839.JPG,ISIC_3649113.JPG,false,1,keypress(m),500,527656.8000001907,527656.7000000477,520601.316,520822.5,520617.992,527447.916,8,400,15,,ISIC_0027839.JPG
break,html.Screen,4_114_1,2023-09-07T23:27:49.277Z,,0,,,NaN,,,,,,false,,,,527657.600000143,527657.3000001907,,527657,,527447.916,8,400,,,
break_continue,html.Screen,4_114_2,2023-09-07T23:27:49.278Z,,0,,,NaN,,,,,,false,,,,527657.8000001907,527657.8000001907,,527657.8000001907,,527447.916,8,400,,,
sequence,flow.Sequence,4_114,2023-09-07T23:27:49.278Z,,0,,,7039.808000190707,completion,,,,,false,,,,527658,527657.8000001907,520601.316,520822.5,520617.992,527447.916,8,400,,,
trial,html.Screen,4_115_0,2023-09-07T23:27:55.668Z,,0,3,,6599.8840001907665,response,ISIC_0000144.JPG,6,ISIC_0004728.JPG,ISIC_0000144.JPG,false,1,keypress(m),500,534048,534047.8000001907,527431.2,527658,527447.916,533860.422,8,400,16,,ISIC_0004728.JPG
break,html.Screen,4_115_1,2023-09-07T23:27:55.668Z,,0,,,NaN,,,,,,false,,,,534048.5,534048.5,,534048.100000143,,533860.422,8,400,,,
break_continue,html.Screen,4_115_2,2023-09-07T23:27:55.669Z,,0,,,NaN,,,,,,false,,,,534048.8000001907,534048.8000001907,,534048.7000000477,,533860.422,8,400,,,
sequence,flow.Sequence,4_115,2023-09-07T23:27:55.669Z,,0,,,6600.8840001907665,completion,,,,,false,,,,534048.9000000954,534048.8000001907,527431.2,527658,527447.916,533860.422,8,400,,,
trial,html.Screen,4_116_0,2023-09-07T23:27:59.191Z,,0,3,,3710.1780001430307,response,ISIC_0014558.JPG,5,ISIC_0000042.JPG,ISIC_0000042.JPG,false,0,keypress(z),500,537570.8000001907,537570.600000143,533843.741,534048.9000000954,533860.422,537367.168,8,400,17,,ISIC_0014558.JPG
break,html.Screen,4_116_1,2023-09-07T23:27:59.191Z,,0,,,NaN,,,,,,false,,,,537571.5,537571.3000001907,,537570.9000000954,,537367.168,8,400,,,
break_continue,html.Screen,4_116_2,2023-09-07T23:27:59.191Z,,0,,,NaN,,,,,,false,,,,537571.7000000477,537571.7000000477,,537571.5,,537367.168,8,400,,,
sequence,flow.Sequence,4_116,2023-09-07T23:27:59.192Z,,0,,,3711.278000047663,completion,,,,,false,,,,537571.8000001907,537571.7000000477,533843.741,534048.9000000954,533860.422,537367.168,8,400,,,
trial,html.Screen,4_117_0,2023-09-07T23:28:03.885Z,,0,3,,4897.532000047737,response,ISIC_0028031.JPG,5,ISIC_0032903.JPG,ISIC_0028031.JPG,false,1,keypress(m),500,542264.8000001907,542264.7000000477,537350.585,537571.8000001907,537367.168,542059.776,8,400,18,,ISIC_0032903.JPG
break,html.Screen,4_117_1,2023-09-07T23:28:03.886Z,,0,,,NaN,,,,,,false,,,,542265.9000000954,542265.600000143,,542265,,542059.776,8,400,,,
break_continue,html.Screen,4_117_2,2023-09-07T23:28:03.886Z,,0,,,NaN,,,,,,false,,,,542266.4000000954,542266.3000001907,,542266.100000143,,542059.776,8,400,,,
sequence,flow.Sequence,4_117,2023-09-07T23:28:03.886Z,,0,,,4899.132000190788,completion,,,,,false,,,,542266.5,542266.3000001907,537350.585,537571.8000001907,537367.168,542059.776,8,400,,,
trial,html.Screen,4_118_0,2023-09-07T23:28:10.341Z,,0,3,,6661.624000095413,response,ISIC_7967397.JPG,5,ISIC_0296109.JPG,ISIC_0296109.JPG,false,0,keypress(z),500,548721.5,548721.4000000954,542043.012,542266.5,542059.776,548505.494,8,400,19,,ISIC_7967397.JPG
break,html.Screen,4_118_1,2023-09-07T23:28:10.342Z,,0,,,NaN,,,,,,false,,,,548722.3000001907,548721.9000000954,,548721.600000143,,548505.494,8,400,,,
break_continue,html.Screen,4_118_2,2023-09-07T23:28:10.342Z,,0,,,NaN,,,,,,false,,,,548722.600000143,548722.5,,548722.3000001907,,548505.494,8,400,,,
sequence,flow.Sequence,4_118,2023-09-07T23:28:10.342Z,,0,,,6662.724000000046,completion,,,,,false,,,,548722.600000143,548722.5,542043.012,542266.5,542059.776,548505.494,8,400,,,
trial,html.Screen,4_119_0,2023-09-07T23:28:14.456Z,,0,3,,4330.806000190787,response,ISIC_0874261.JPG,5,ISIC_6464772.JPG,ISIC_6464772.JPG,false,0,keypress(z),500,552836.5,552836.3000001907,548488.928,548722.7000000477,548505.494,552630.214,8,400,20,,ISIC_0874261.JPG
break,html.Screen,4_119_1,2023-09-07T23:28:14.457Z,,0,,,NaN,,,,,,false,,,,552837.3000001907,552837.100000143,,552836.600000143,,552630.214,8,400,,,
break_continue,html.Screen,4_119_2,2023-09-07T23:28:14.457Z,,0,,,NaN,,,,,,false,,,,552837.600000143,552837.600000143,,552837.4000000954,,552630.214,8,400,,,
sequence,flow.Sequence,4_119,2023-09-07T23:28:14.458Z,,0,,,4332.106000143103,completion,,,,,false,,,,552837.8000001907,552837.600000143,548488.928,548722.600000143,548505.494,552630.214,8,400,,,
trial,html.Screen,4_120_0,2023-09-07T23:28:19.037Z,,0,3,,4787.0860001906985,response,ISIC_0071180.JPG,5,ISIC_6483504.JPG,ISIC_6483504.JPG,false,0,keypress(z),500,557417.3000001907,557417.3000001907,552613.77,552837.9000000954,552630.214,557205.89,8,400,21,,ISIC_0071180.JPG
break,html.Screen,4_120_1,2023-09-07T23:28:19.038Z,,0,,,NaN,,,,,,false,,,,557418,557417.8000001907,,557417.5,,557205.89,8,400,,,
break_continue,html.Screen,4_120_2,2023-09-07T23:28:19.038Z,,0,,,NaN,,,,,,false,,,,557418.4000000954,557418.3000001907,,557418.2000000477,,557205.89,8,400,,,
sequence,flow.Sequence,4_120,2023-09-07T23:28:19.038Z,,0,,,4788.0860001906985,completion,,,,,false,,,,557418.4000000954,557418.3000001907,552613.77,552837.9000000954,552630.214,557205.89,8,400,,,
trial,html.Screen,4_121_0,2023-09-07T23:28:21.843Z,,0,3,,3016.710000143037,response,ISIC_0028306.JPG,4,ISIC_6326803.JPG,ISIC_6326803.JPG,false,0,keypress(z),500,560222.7000000477,560222.600000143,557189.257,557418.5,557205.89,560011.237,8,400,22,,ISIC_0028306.JPG
break,html.Screen,4_121_1,2023-09-07T23:28:21.843Z,,0,,,NaN,,,,,,false,,,,560223.5,560223.2000000477,,560222.8000001907,,560011.237,8,400,,,
break_continue,html.Screen,4_121_2,2023-09-07T23:28:21.843Z,,0,,,NaN,,,,,,false,,,,560223.8000001907,560223.7000000477,,560223.5,,560011.237,8,400,,,
sequence,flow.Sequence,4_121,2023-09-07T23:28:21.844Z,,0,,,3017.8100000476697,completion,,,,,false,,,,560223.8000001907,560223.7000000477,557189.257,557418.5,557205.89,560011.237,8,400,,,
trial,html.Screen,4_122_0,2023-09-07T23:28:26.220Z,,0,3,,4589.163000095403,response,ISIC_0011276.JPG,5,ISIC_0013674.JPG,ISIC_0013674.JPG,false,0,keypress(z),500,564600.600000143,564600.4000000954,559994.549,560223.8000001907,560011.237,564386.416,8,400,23,,ISIC_0011276.JPG
break,html.Screen,4_122_1,2023-09-07T23:28:26.221Z,,0,,,NaN,,,,,,false,,,,564601.3000001907,564601,,564600.7000000477,,564386.416,8,400,,,
break_continue,html.Screen,4_122_2,2023-09-07T23:28:26.221Z,,0,,,NaN,,,,,,false,,,,564601.600000143,564601.5,,564601.4000000954,,564386.416,8,400,,,
sequence,flow.Sequence,4_122,2023-09-07T23:28:26.221Z,,0,,,4590.263000000035,completion,,,,,false,,,,564601.7000000477,564601.5,559994.549,560223.8000001907,560011.237,564386.416,8,400,,,
trial,html.Screen,4_123_0,2023-09-07T23:28:30.213Z,,0,3,,4206.984000095399,response,ISIC_0011403.JPG,5,ISIC_2007034.JPG,ISIC_2007034.JPG,false,0,keypress(z),500,568593.4000000954,568593.4000000954,564369.847,564601.8000001907,564386.416,568377.501,8,400,24,,ISIC_0011403.JPG
break,html.Screen,4_123_1,2023-09-07T23:28:30.214Z,,0,,,NaN,,,,,,false,,,,568594.100000143,568593.9000000954,,568593.5,,568377.501,8,400,,,
break_continue,html.Screen,4_123_2,2023-09-07T23:28:30.214Z,,0,,,NaN,,,,,,false,,,,568594.4000000954,568594.3000001907,,568594.2000000477,,568377.501,8,400,,,
sequence,flow.Sequence,4_123,2023-09-07T23:28:30.214Z,,0,,,4207.8840001907665,completion,,,,,false,,,,568594.600000143,568594.3000001907,564369.847,564601.8000001907,564386.416,568377.501,8,400,,,
trial,html.Screen,4_124_0,2023-09-07T23:28:39.673Z,,0,3,,9675.799000190687,response,ISIC_0058837.JPG,4,ISIC_0012065.JPG,ISIC_0058837.JPG,false,1,keypress(m),500,578053.600000143,578053.3000001907,568360.899,568594.7000000477,568377.501,577862.835,8,400,25,,ISIC_0012065.JPG
break,html.Screen,4_124_1,2023-09-07T23:28:39.675Z,,0,,,NaN,,,,,,false,,,,578055.5,578055.2000000477,,578053.8000001907,,577862.835,8,400,,,
break_continue,html.Screen,4_124_2,2023-09-07T23:28:39.676Z,,0,,,NaN,,,,,,false,,,,578055.9000000954,578055.8000001907,,578055.5,,577862.835,8,400,,,
sequence,flow.Sequence,4_124,2023-09-07T23:28:39.676Z,,0,,,9678.299000190687,completion,,,,,false,,,,578056,578055.8000001907,568360.899,568594.600000143,568377.501,577862.835,8,400,,,
trial,html.Screen,4_125_0,2023-09-07T23:28:42.942Z,,0,3,,3459.1650000000373,response,ISIC_0033533.JPG,5,ISIC_0033325.JPG,ISIC_0033533.JPG,false,1,keypress(m),500,581322.100000143,581322,577846.106,578056.100000143,577862.835,581118.972,8,400,26,,ISIC_0033325.JPG
break,html.Screen,4_125_1,2023-09-07T23:28:42.943Z,,0,,,NaN,,,,,,false,,,,581322.9000000954,581322.7000000477,,581322.3000001907,,581118.972,8,400,,,
break_continue,html.Screen,4_125_2,2023-09-07T23:28:42.943Z,,0,,,NaN,,,,,,false,,,,581323.3000001907,581323.2000000477,,581323.100000143,,581118.972,8,400,,,
