sender,sender_type,sender_id,timestamp,meta,,blockNo,condition,duration,ended_on,img_left,img_reveal,img_right,loser,practice,response,response_action,selection_duration,time_commit,time_end,time_render,time_run,time_show,time_switch,total_blocks,total_trials,trialNo,url,winner
informed_consent,html.Screen,0,2023-09-11T19:04:08.772Z,"{""labjs_version"":""20.2.4"",""labjs_build"":{""flavor"":""development"",""commit"":""f5b4a49f956347addd546a832a3327688c2c0fef""},""location"":""https://labjs.felixhenninger.com/api/labjs_preview/index.html"",""userAgent"":""Mozilla/5.0 (Windows NT 10.0; Win64; x64) AppleWebKit/537.36 (KHTML, like Gecko) Chrome/116.0.0.0 Safari/537.36"",""platform"":""Win32"",""language"":""en-AU"",""locale"":""en-US"",""timeZone"":""America/Chicago"",""timezoneOffset"":300,""screen_width"":1680,""screen_height"":1050,""scroll_width"":1296,""scroll_height"":688,""window_innerWidth"":1296,""window_innerHeight"":736,""devicePixelRatio"":1}",,,,5179.126,response,,,,,,consent,click button,,6025.900000095367,6025,829.113,1001.3000001907349,845.874,5873.625,,,,{},
Welcome,html.Screen,1,2023-09-11T19:05:01.749Z,,,,colourful,53127.175000190735,response,,,,,,continue,click button,,59001.40000009537,59000.800000190735,5839.004,6026.199999809265,5873.625,58841.951,,,,,
trial,html.Screen,2_0_0,2023-09-11T19:05:08.633Z,,0,0,,7042.548999999999,response,ISIC_0063388.JPG,,ISIC_0025593.JPG,ISIC_0063388.JPG,true,1,keypress(m),500,65884.80000019073,65884.5,58825.306,59001.5,58841.951,65722.153,1,6,1,,ISIC_0025593.JPG
sequence,flow.Sequence,2_0,2023-09-11T19:05:08.633Z,,0,,,7042.548999999999,completion,,,,,true,,,,65885.09999990463,65884.5,58825.306,59001.5,58841.951,65722.153,1,6,,,
trial,html.Screen,2_1_0,2023-09-11T19:05:12.379Z,,0,0,,3909.0469998092594,response,ISIC_0028178.JPG,,ISIC_1309015.JPG,ISIC_1309015.JPG,true,0,keypress(z),500,69631.30000019073,69631.19999980927,65705.334,65885.19999980927,65722.153,69462.696,1,6,2,,ISIC_0028178.JPG
sequence,flow.Sequence,2_1,2023-09-11T19:05:12.380Z,,0,,,3909.0469998092594,completion,,,,,true,,,,69631.5,69631.19999980927,65705.334,65885.19999980927,65722.153,69462.696,1,6,,,
trial,html.Screen,2_2_0,2023-09-11T19:05:16.468Z,,0,0,,4257.403999904636,response,ISIC_0031128.JPG,,ISIC_3314853.JPG,ISIC_3314853.JPG,true,0,keypress(z),500,73720.30000019073,73720.09999990463,69446.054,69631.5,69462.696,73553.938,1,6,3,,ISIC_0031128.JPG
sequence,flow.Sequence,2_2,2023-09-11T19:05:16.469Z,,0,,,4257.403999904636,completion,,,,,true,,,,73720.59999990463,73720.09999990463,69446.054,69631.5,69462.696,73553.938,1,6,,,
trial,html.Screen,2_3_0,2023-09-11T19:05:19.598Z,,0,0,,3296.0620000000054,response,ISIC_0031612.JPG,,ISIC_8980141.JPG,ISIC_8980141.JPG,true,0,keypress(z),500,76850.19999980927,76850,73537.43,73720.69999980927,73553.938,76693.392,1,6,4,,ISIC_0031612.JPG
sequence,flow.Sequence,2_3,2023-09-11T19:05:19.598Z,,0,,,3296.0620000000054,completion,,,,,true,,,,76850.30000019073,76850,73537.43,73720.69999980927,73553.938,76693.392,1,6,,,
trial,html.Screen,2_4_0,2023-09-11T19:05:23.040Z,,0,0,,3598.7079999046255,response,ISIC_1197737.JPG,,ISIC_9721604.JPG,ISIC_9721604.JPG,true,0,keypress(z),500,80292.19999980927,80292.09999990463,76676.802,76850.5,76693.392,80133.44,1,6,5,,ISIC_1197737.JPG
sequence,flow.Sequence,2_4,2023-09-11T19:05:23.040Z,,0,,,3598.7079999046255,completion,,,,,true,,,,80292.40000009537,80292.09999990463,76676.802,76850.40000009537,76693.392,80133.44,1,6,,,
trial,html.Screen,2_5_0,2023-09-11T19:05:27.000Z,,0,0,,4118.65999990463,response,ISIC_0025346.JPG,,ISIC_0010681.JPG,ISIC_0025346.JPG,true,1,keypress(m),500,84252.30000019073,84252.09999990463,80116.799,80292.5,80133.44,84091.123,1,6,6,,ISIC_0010681.JPG
sequence,flow.Sequence,2_5,2023-09-11T19:05:27.001Z,,0,,,4118.65999990463,completion,,,,,true,,,,84252.5,84252.09999990463,80116.799,80292.5,80133.44,84091.123,1,6,,,
loop,flow.Loop,2,2023-09-11T19:05:27.001Z,,,,,25410.14899990463,completion,,,,,true,,,,84252.59999990463,84252.09999990463,58825.306,59001.5,58841.951,84091.123,1,6,,,
exp_instructions,html.Screen,3,2023-09-11T19:05:33.285Z,,,,,6445.076999809258,response,,,,,,continue,keypress(Space),,90536.59999990463,90536.19999980927,84074.44,84252.59999990463,84091.123,90370.021,,,,,
trial,html.Screen,4_0_0,2023-09-11T19:05:37.529Z,,0,1,,4410.879000095374,response,ISIC_4026019.JPG,5,ISIC_0024455.JPG,ISIC_0024455.JPG,false,0,keypress(z),500,94781.09999990463,94780.90000009537,90353.364,90536.80000019073,90370.021,94645.023,8,400,1,,ISIC_4026019.JPG
break,html.Screen,4_0_1,2023-09-11T19:05:37.531Z,,0,,,NaN,,,,,,false,,,,94782.59999990463,94782.19999980927,,94781.30000019073,,94645.023,8,400,,,
break_continue,html.Screen,4_0_2,2023-09-11T19:05:37.531Z,,0,,,NaN,,,,,,false,,,,94783.30000019073,94783.09999990463,,94782.80000019073,,94645.023,8,400,,,
sequence,flow.Sequence,4_0,2023-09-11T19:05:37.532Z,,0,,,4413.078999904639,completion,,,,,false,,,,94783.5,94783.09999990463,90353.364,90536.80000019073,90370.021,94645.023,8,400,,,
trial,html.Screen,4_1_0,2023-09-11T19:05:43.614Z,,0,1,,6220.277000190734,response,ISIC_0063181.JPG,5,ISIC_0057374.JPG,ISIC_0063181.JPG,false,1,keypress(m),500,100865.59999990463,100865.30000019073,94628.33,94783.59999990463,94645.023,100706.901,8,400,2,,ISIC_0057374.JPG
break,html.Screen,4_1_1,2023-09-11T19:05:43.615Z,,0,,,NaN,,,,,,false,,,,100866.5,100866.19999980927,,100865.69999980927,,100706.901,8,400,,,
break_continue,html.Screen,4_1_2,2023-09-11T19:05:43.615Z,,0,,,NaN,,,,,,false,,,,100866.90000009537,100866.80000019073,,100866.59999990463,,100706.901,8,400,,,
sequence,flow.Sequence,4_1,2023-09-11T19:05:43.615Z,,0,,,6221.777000190734,completion,,,,,false,,,,100867.19999980927,100866.80000019073,94628.33,94783.59999990463,94645.023,100706.901,8,400,,,
trial,html.Screen,4_2_0,2023-09-11T19:05:48.049Z,,0,1,,4593.899000190737,response,ISIC_0007740.JPG,6,ISIC_6990973.JPG,ISIC_0007740.JPG,false,1,keypress(m),500,105301,105300.80000019073,100690.173,100867.30000019073,100706.901,105132.069,8,400,3,,ISIC_6990973.JPG
break,html.Screen,4_2_1,2023-09-11T19:05:48.049Z,,0,,,NaN,,,,,,false,,,,105301.30000019073,105301.19999980927,,105301,,105132.069,8,400,,,
break_continue,html.Screen,4_2_2,2023-09-11T19:05:48.050Z,,0,,,NaN,,,,,,false,,,,105301.5,105301.5,,105301.40000009537,,105132.069,8,400,,,
sequence,flow.Sequence,4_2,2023-09-11T19:05:48.050Z,,0,,,4594.599000000002,completion,,,,,false,,,,105301.69999980927,105301.5,100690.173,100867.30000019073,100706.901,105132.069,8,400,,,
trial,html.Screen,4_3_0,2023-09-11T19:05:53.267Z,,0,1,,5387.030999904629,response,ISIC_0010958.JPG,4,ISIC_0054527.JPG,ISIC_0010958.JPG,false,1,keypress(m),500,110519.19999980927,110519.09999990463,105115.36,105301.69999980927,105132.069,110358.96,8,400,4,,ISIC_0054527.JPG
break,html.Screen,4_3_1,2023-09-11T19:05:53.268Z,,0,,,NaN,,,,,,false,,,,110519.90000009537,110519.59999990463,,110519.40000009537,,110358.96,8,400,,,
break_continue,html.Screen,4_3_2,2023-09-11T19:05:53.268Z,,0,,,NaN,,,,,,false,,,,110520.09999990463,110520.09999990463,,110520,,110358.96,8,400,,,
sequence,flow.Sequence,4_3,2023-09-11T19:05:53.268Z,,0,,,5388.030999904629,completion,,,,,false,,,,110520.19999980927,110520.09999990463,105115.36,105301.69999980927,105132.069,110358.96,8,400,,,
trial,html.Screen,4_4_0,2023-09-11T19:05:57.974Z,,0,1,,4866.639999904626,response,ISIC_9538419.JPG,5,ISIC_0056110.JPG,ISIC_9538419.JPG,false,1,keypress(m),500,115225.69999980927,115225.59999990463,110342.183,110520.30000019073,110358.96,115068.223,8,400,5,,ISIC_0056110.JPG
break,html.Screen,4_4_1,2023-09-11T19:05:57.974Z,,0,,,NaN,,,,,,false,,,,115226.30000019073,115226.09999990463,,115225.80000019073,,115068.223,8,400,,,
break_continue,html.Screen,4_4_2,2023-09-11T19:05:57.975Z,,0,,,NaN,,,,,,false,,,,115226.5,115226.5,,115226.40000009537,,115068.223,8,400,,,
sequence,flow.Sequence,4_4,2023-09-11T19:05:57.975Z,,0,,,4867.539999999994,completion,,,,,false,,,,115226.59999990463,115226.5,110342.183,110520.19999980927,110358.96,115068.223,8,400,,,
trial,html.Screen,4_5_0,2023-09-11T19:06:02.426Z,,0,1,,4608.577000190737,response,ISIC_0025316.JPG,6,ISIC_0034289.JPG,ISIC_0025316.JPG,false,1,keypress(m),500,119677,119676.80000019073,115051.376,115226.69999980927,115068.223,119510.034,8,400,6,,ISIC_0034289.JPG
break,html.Screen,4_5_1,2023-09-11T19:06:02.427Z,,0,,,NaN,,,,,,false,,,,119677.59999990463,119677.5,,119677.19999980927,,119510.034,8,400,,,
break_continue,html.Screen,4_5_2,2023-09-11T19:06:02.427Z,,0,,,NaN,,,,,,false,,,,119677.90000009537,119677.80000019073,,119677.69999980927,,119510.034,8,400,,,
sequence,flow.Sequence,4_5,2023-09-11T19:06:02.427Z,,0,,,4609.577000190737,completion,,,,,false,,,,119678,119677.80000019073,115051.376,115226.59999990463,115068.223,119510.034,8,400,,,
trial,html.Screen,4_6_0,2023-09-11T19:06:07.872Z,,0,1,,5612.866000095368,response,ISIC_1460249.JPG,4,ISIC_0026671.JPG,ISIC_0026671.JPG,false,0,keypress(z),500,125123.09999990463,125122.90000009537,119493.352,119678.09999990463,119510.034,124953.973,8,400,7,,ISIC_1460249.JPG
break,html.Screen,4_6_1,2023-09-11T19:06:07.873Z,,0,,,NaN,,,,,,false,,,,125123.59999990463,125123.40000009537,,125123.09999990463,,124953.973,8,400,,,
break_continue,html.Screen,4_6_2,2023-09-11T19:06:07.873Z,,0,,,NaN,,,,,,false,,,,125124,125123.90000009537,,125123.69999980927,,124953.973,8,400,,,
sequence,flow.Sequence,4_6,2023-09-11T19:06:07.873Z,,0,,,5613.866000095368,completion,,,,,false,,,,125124.09999990463,125123.90000009537,119493.352,119678.09999990463,119510.034,124953.973,8,400,,,
trial,html.Screen,4_7_0,2023-09-11T19:06:14.931Z,,0,1,,7227.527000000002,response,ISIC_0033384.JPG,4,ISIC_7141153.JPG,ISIC_7141153.JPG,false,0,keypress(z),500,132181.59999990463,132181.5,124937.496,125124.09999990463,124953.973,132017.785,8,400,8,,ISIC_0033384.JPG
break,html.Screen,4_7_1,2023-09-11T19:06:14.931Z,,0,,,NaN,,,,,,false,,,,132182.30000019073,132182.09999990463,,132181.80000019073,,132017.785,8,400,,,
break_continue,html.Screen,4_7_2,2023-09-11T19:06:14.932Z,,0,,,NaN,,,,,,false,,,,132182.59999990463,132182.5,,132182.40000009537,,132017.785,8,400,,,
sequence,flow.Sequence,4_7,2023-09-11T19:06:14.932Z,,0,,,7228.527000000002,completion,,,,,false,,,,132182.69999980927,132182.5,124937.496,125124.09999990463,124953.973,132017.785,8,400,,,
trial,html.Screen,4_8_0,2023-09-11T19:06:20.599Z,,0,1,,5831.314999904629,response,ISIC_0069124.JPG,6,ISIC_5768749.JPG,ISIC_5768749.JPG,false,0,keypress(z),500,137849.30000019073,137849.09999990463,132001.171,132182.80000019073,132017.785,137695.367,8,400,9,,ISIC_0069124.JPG
break,html.Screen,4_8_1,2023-09-11T19:06:20.600Z,,0,,,NaN,,,,,,false,,,,137850.59999990463,137850.19999980927,,137849.69999980927,,137695.367,8,400,,,
break_continue,html.Screen,4_8_2,2023-09-11T19:06:20.600Z,,0,,,NaN,,,,,,false,,,,137850.90000009537,137850.80000019073,,137850.59999990463,,137695.367,8,400,,,
sequence,flow.Sequence,4_8,2023-09-11T19:06:20.600Z,,0,,,5833.015000190731,completion,,,,,false,,,,137851.09999990463,137850.80000019073,132001.171,132182.80000019073,132017.785,137695.367,8,400,,,
trial,html.Screen,4_9_0,2023-09-11T19:06:25.869Z,,0,1,,5424.232999904634,response,ISIC_0010442.JPG,4,ISIC_4958006.JPG,ISIC_4958006.JPG,false,0,keypress(z),500,143119.69999980927,143119.59999990463,137678.748,137851.30000019073,137695.367,142955.624,8,400,10,,ISIC_0010442.JPG
break,html.Screen,4_9_1,2023-09-11T19:06:25.869Z,,0,,,NaN,,,,,,false,,,,143120.19999980927,143120.09999990463,,143119.80000019073,,142955.624,8,400,,,
break_continue,html.Screen,4_9_2,2023-09-11T19:06:25.870Z,,0,,,NaN,,,,,,false,,,,143120.30000019073,143120.30000019073,,143120.19999980927,,142955.624,8,400,,,
sequence,flow.Sequence,4_9,2023-09-11T19:06:25.870Z,,0,,,5424.9330001907365,completion,,,,,false,,,,143120.59999990463,143120.30000019073,137678.748,137851.19999980927,137695.367,142955.624,8,400,,,
trial,html.Screen,4_10_0,2023-09-11T19:06:30.836Z,,0,1,,5131.176000190724,response,ISIC_0032598.JPG,5,ISIC_0061623.JPG,ISIC_0032598.JPG,false,1,keypress(m),500,148087.09999990463,148086.80000019073,142938.973,143120.59999990463,142955.624,147931.995,8,400,11,,ISIC_0061623.JPG
break,html.Screen,4_10_1,2023-09-11T19:06:30.837Z,,0,,,NaN,,,,,,false,,,,148087.69999980927,148087.5,,148087.30000019073,,147931.995,8,400,,,
break_continue,html.Screen,4_10_2,2023-09-11T19:06:30.837Z,,0,,,NaN,,,,,,false,,,,148087.90000009537,148087.90000009537,,148087.69999980927,,147931.995,8,400,,,
sequence,flow.Sequence,4_10,2023-09-11T19:06:30.837Z,,0,,,5132.276000095357,completion,,,,,false,,,,148088.09999990463,148087.90000009537,142938.973,143120.59999990463,142955.624,147931.995,8,400,,,
trial,html.Screen,4_11_0,2023-09-11T19:06:35.803Z,,0,1,,5121.70499980927,response,ISIC_0071771.JPG,4,ISIC_7697022.JPG,ISIC_7697022.JPG,false,0,keypress(z),500,153053.90000009537,153053.69999980927,147915.447,148088.09999990463,147931.995,152891.693,8,400,12,,ISIC_0071771.JPG
break,html.Screen,4_11_1,2023-09-11T19:06:35.803Z,,0,,,NaN,,,,,,false,,,,153054.30000019073,153054.19999980927,,153054,,152891.693,8,400,,,
break_continue,html.Screen,4_11_2,2023-09-11T19:06:35.804Z,,0,,,NaN,,,,,,false,,,,153054.5,153054.40000009537,,153054.30000019073,,152891.693,8,400,,,
sequence,flow.Sequence,4_11,2023-09-11T19:06:35.804Z,,0,,,5122.405000095372,completion,,,,,false,,,,153054.5,153054.40000009537,147915.447,148088.09999990463,147931.995,152891.693,8,400,,,
trial,html.Screen,4_12_0,2023-09-11T19:06:41.756Z,,0,1,,6115.406999904633,response,ISIC_1578253.JPG,5,ISIC_0014127.JPG,ISIC_1578253.JPG,false,1,keypress(m),500,159007.19999980927,159007.09999990463,152875.042,153054.5,152891.693,158853.285,8,400,13,,ISIC_0014127.JPG
break,html.Screen,4_12_1,2023-09-11T19:06:41.757Z,,0,,,NaN,,,,,,false,,,,159007.80000019073,159007.59999990463,,159007.30000019073,,158853.285,8,400,,,
break_continue,html.Screen,4_12_2,2023-09-11T19:06:41.757Z,,0,,,NaN,,,,,,false,,,,159007.90000009537,159007.90000009537,,159007.80000019073,,158853.285,8,400,,,
sequence,flow.Sequence,4_12,2023-09-11T19:06:41.757Z,,0,,,6116.207000095368,completion,,,,,false,,,,159008,159007.90000009537,152875.042,153054.5,152891.693,158853.285,8,400,,,
trial,html.Screen,4_13_0,2023-09-11T19:06:47.058Z,,0,1,,5455.314999904629,response,ISIC_0028691.JPG,5,ISIC_0065714.JPG,ISIC_0028691.JPG,false,1,keypress(m),500,164308.69999980927,164308.59999990463,158836.598,159008.09999990463,158853.285,164163.665,8,400,14,,ISIC_0065714.JPG
break,html.Screen,4_13_1,2023-09-11T19:06:47.059Z,,0,,,NaN,,,,,,false,,,,164309.5,164309.30000019073,,164309,,164163.665,8,400,,,
break_continue,html.Screen,4_13_2,2023-09-11T19:06:47.059Z,,0,,,NaN,,,,,,false,,,,164309.80000019073,164309.80000019073,,164309.59999990463,,164163.665,8,400,,,
sequence,flow.Sequence,4_13,2023-09-11T19:06:47.059Z,,0,,,5456.515000190731,completion,,,,,false,,,,164309.90000009537,164309.80000019073,158836.598,159008.09999990463,158853.285,164163.665,8,400,,,
trial,html.Screen,4_14_0,2023-09-11T19:06:53.574Z,,0,1,,6660.934999904624,response,ISIC_0031013.JPG,5,ISIC_1205826.JPG,ISIC_1205826.JPG,false,0,keypress(z),500,170824.69999980927,170824.59999990463,164147.058,164310,164163.665,170659.576,8,400,15,,ISIC_0031013.JPG
break,html.Screen,4_14_1,2023-09-11T19:06:53.574Z,,0,,,NaN,,,,,,false,,,,170825.19999980927,170825.09999990463,,170824.80000019073,,170659.576,8,400,,,
break_continue,html.Screen,4_14_2,2023-09-11T19:06:53.575Z,,0,,,NaN,,,,,,false,,,,170825.5,170825.40000009537,,170825.40000009537,,170659.576,8,400,,,
sequence,flow.Sequence,4_14,2023-09-11T19:06:53.575Z,,0,,,6661.735000095359,completion,,,,,false,,,,170825.69999980927,170825.40000009537,164147.058,164310,164163.665,170659.576,8,400,,,
trial,html.Screen,4_15_0,2023-09-11T19:06:57.884Z,,0,1,,4474.623999809264,response,ISIC_6113524.JPG,5,ISIC_0033538.JPG,ISIC_6113524.JPG,false,1,keypress(m),500,175134.40000009537,175134.19999980927,170642.911,170825.80000019073,170659.576,174967.966,8,400,16,,ISIC_0033538.JPG
break,html.Screen,4_15_1,2023-09-11T19:06:57.884Z,,0,,,NaN,,,,,,false,,,,175135,175134.80000019073,,175134.5,,174967.966,8,400,,,
break_continue,html.Screen,4_15_2,2023-09-11T19:06:57.885Z,,0,,,NaN,,,,,,false,,,,175135.40000009537,175135.30000019073,,175135.09999990463,,174967.966,8,400,,,
sequence,flow.Sequence,4_15,2023-09-11T19:06:57.885Z,,0,,,4475.724000190734,completion,,,,,false,,,,175135.5,175135.30000019073,170642.911,170825.80000019073,170659.576,174967.966,8,400,,,
trial,html.Screen,4_16_0,2023-09-11T19:07:02.031Z,,0,1,,4313.034000000014,response,ISIC_0010772.JPG,6,ISIC_0552911.JPG,ISIC_0552911.JPG,false,0,keypress(z),500,179281.19999980927,179281,174951.278,175135.59999990463,174967.966,179126.116,8,400,17,,ISIC_0010772.JPG
break,html.Screen,4_16_1,2023-09-11T19:07:02.032Z,,0,,,NaN,,,,,,false,,,,179281.5,179281.40000009537,,179281.19999980927,,179126.116,8,400,,,
break_continue,html.Screen,4_16_2,2023-09-11T19:07:02.032Z,,0,,,NaN,,,,,,false,,,,179281.80000019073,179281.69999980927,,179281.59999990463,,179126.116,8,400,,,
sequence,flow.Sequence,4_16,2023-09-11T19:07:02.032Z,,0,,,4313.733999809279,completion,,,,,false,,,,179281.80000019073,179281.69999980927,174951.278,175135.59999990463,174967.966,179126.116,8,400,,,
trial,html.Screen,4_17_0,2023-09-11T19:07:08.289Z,,0,1,,6412.684000190726,response,ISIC_0033428.JPG,4,ISIC_4610600.JPG,ISIC_4610600.JPG,false,0,keypress(z),500,185538.90000009537,185538.80000019073,179109.453,179281.80000019073,179126.116,185371.525,8,400,18,,ISIC_0033428.JPG
break,html.Screen,4_17_1,2023-09-11T19:07:08.290Z,,0,,,NaN,,,,,,false,,,,185539.5,185539.30000019073,,185539,,185371.525,8,400,,,
break_continue,html.Screen,4_17_2,2023-09-11T19:07:08.290Z,,0,,,NaN,,,,,,false,,,,185539.80000019073,185539.69999980927,,185539.59999990463,,185371.525,8,400,,,
sequence,flow.Sequence,4_17,2023-09-11T19:07:08.290Z,,0,,,6413.583999809256,completion,,,,,false,,,,185539.80000019073,185539.69999980927,179109.453,179281.80000019073,179126.116,185371.525,8,400,,,
trial,html.Screen,4_18_0,2023-09-11T19:07:11.828Z,,0,1,,3705.5749999046384,response,ISIC_0033275.JPG,5,ISIC_0057716.JPG,ISIC_0033275.JPG,false,1,keypress(m),500,189077.40000009537,189077.09999990463,185355.024,185539.90000009537,185371.525,188911.777,8,400,19,,ISIC_0057716.JPG
break,html.Screen,4_18_1,2023-09-11T19:07:11.830Z,,0,,,NaN,,,,,,false,,,,189079.40000009537,189079,,189077.90000009537,,188911.777,8,400,,,
break_continue,html.Screen,4_18_2,2023-09-11T19:07:11.831Z,,0,,,NaN,,,,,,false,,,,189080.30000019073,189080,,189079.80000019073,,188911.777,8,400,,,
sequence,flow.Sequence,4_18,2023-09-11T19:07:11.831Z,,0,,,3708.475000000006,completion,,,,,false,,,,189080.5,189080,185355.024,185539.90000009537,185371.525,188911.777,8,400,,,
trial,html.Screen,4_19_0,2023-09-11T19:07:16.658Z,,0,1,,4995.822999904631,response,ISIC_8043299.JPG,5,ISIC_4193253.JPG,ISIC_4193253.JPG,false,0,keypress(z),500,193907.80000019073,193907.59999990463,188895.169,189080.80000019073,188911.777,193754.504,8,400,20,,ISIC_8043299.JPG
break,html.Screen,4_19_1,2023-09-11T19:07:16.659Z,,0,,,NaN,,,,,,false,,,,193908.19999980927,193908.19999980927,,193907.80000019073,,193754.504,8,400,,,
break_continue,html.Screen,4_19_2,2023-09-11T19:07:16.659Z,,0,,,NaN,,,,,,false,,,,193908.40000009537,193908.40000009537,,193908.30000019073,,193754.504,8,400,,,
sequence,flow.Sequence,4_19,2023-09-11T19:07:16.659Z,,0,,,4996.623000095366,completion,,,,,false,,,,193908.5,193908.40000009537,188895.169,189080.69999980927,188911.777,193754.504,8,400,,,
trial,html.Screen,4_20_0,2023-09-11T19:07:21.685Z,,0,1,,5179.595999904646,response,ISIC_4043580.JPG,5,ISIC_4011169.JPG,ISIC_4043580.JPG,false,1,keypress(m),500,198934.19999980927,198934.09999990463,193721.327,193908.5,193754.504,198780.972,8,400,21,,ISIC_4011169.JPG
break,html.Screen,4_20_1,2023-09-11T19:07:21.685Z,,0,,,NaN,,,,,,false,,,,198934.90000009537,198934.69999980927,,198934.30000019073,,198780.972,8,400,,,
break_continue,html.Screen,4_20_2,2023-09-11T19:07:21.686Z,,0,,,NaN,,,,,,false,,,,198935.30000019073,198935.19999980927,,198935,,198780.972,8,400,,,
sequence,flow.Sequence,4_20,2023-09-11T19:07:21.686Z,,0,,,5180.695999809279,completion,,,,,false,,,,198935.40000009537,198935.19999980927,193721.327,193908.5,193754.504,198780.972,8,400,,,
trial,html.Screen,4_21_0,2023-09-11T19:07:25.815Z,,0,1,,4283.328000190726,response,ISIC_9448281.JPG,5,ISIC_0012025.JPG,ISIC_9448281.JPG,false,1,keypress(m),500,203064.40000009537,203064.30000019073,198764.269,198935.5,198780.972,202905.742,8,400,22,,ISIC_0012025.JPG
break,html.Screen,4_21_1,2023-09-11T19:07:25.815Z,,0,,,NaN,,,,,,false,,,,203064.90000009537,203064.80000019073,,203064.5,,202905.742,8,400,,,
break_continue,html.Screen,4_21_2,2023-09-11T19:07:25.815Z,,0,,,NaN,,,,,,false,,,,203065.09999990463,203065,,203064.90000009537,,202905.742,8,400,,,
sequence,flow.Sequence,4_21,2023-09-11T19:07:25.816Z,,0,,,4284.027999999991,completion,,,,,false,,,,203065.19999980927,203065,198764.269,198935.5,198780.972,202905.742,8,400,,,
trial,html.Screen,4_22_0,2023-09-11T19:07:31.568Z,,0,1,,5911.658000095369,response,ISIC_6497135.JPG,5,ISIC_0053572.JPG,ISIC_6497135.JPG,false,1,keypress(m),500,208817.59999990463,208817.40000009537,202888.924,203065.30000019073,202905.742,208650.17,8,400,23,,ISIC_0053572.JPG
break,html.Screen,4_22_1,2023-09-11T19:07:31.568Z,,0,,,NaN,,,,,,false,,,,208818.19999980927,208818,,208817.69999980927,,208650.17,8,400,,,
break_continue,html.Screen,4_22_2,2023-09-11T19:07:31.569Z,,0,,,NaN,,,,,,false,,,,208818.40000009537,208818.30000019073,,208818.19999980927,,208650.17,8,400,,,
sequence,flow.Sequence,4_22,2023-09-11T19:07:31.569Z,,0,,,5912.5580001907365,completion,,,,,false,,,,208818.5,208818.30000019073,202888.924,203065.19999980927,202905.742,208650.17,8,400,,,
trial,html.Screen,4_23_0,2023-09-11T19:07:35.090Z,,0,1,,3689.5299998092523,response,ISIC_5382189.JPG,5,ISIC_3195720.JPG,ISIC_5382189.JPG,false,1,keypress(m),500,212339.80000019073,212339.69999980927,208633.602,208818.5,208650.17,212173.687,8,400,24,,ISIC_3195720.JPG
break,html.Screen,4_23_1,2023-09-11T19:07:35.091Z,,0,,,NaN,,,,,,false,,,,212340.59999990463,212340.30000019073,,212339.90000009537,,212173.687,8,400,,,
break_continue,html.Screen,4_23_2,2023-09-11T19:07:35.091Z,,0,,,NaN,,,,,,false,,,,212340.80000019073,212340.69999980927,,212340.59999990463,,212173.687,8,400,,,
sequence,flow.Sequence,4_23,2023-09-11T19:07:35.091Z,,0,,,3690.5299998092523,completion,,,,,false,,,,212340.90000009537,212340.69999980927,208633.602,208818.5,208650.17,212173.687,8,400,,,
trial,html.Screen,4_24_0,2023-09-11T19:07:39.476Z,,0,1,,4551.713000095362,response,ISIC_9499185.JPG,5,ISIC_0069986.JPG,ISIC_9499185.JPG,false,1,keypress(m),500,216725.5,216725.40000009537,212157.016,212340.90000009537,212173.687,216565.668,8,400,25,,ISIC_0069986.JPG
break,html.Screen,4_24_1,2023-09-11T19:07:39.476Z,,0,,,NaN,,,,,,false,,,,216725.90000009537,216725.80000019073,,216725.59999990463,,216565.668,8,400,,,
break_continue,html.Screen,4_24_2,2023-09-11T19:07:39.476Z,,0,,,NaN,,,,,,false,,,,216726.09999990463,216726,,216726,,216565.668,8,400,,,
sequence,flow.Sequence,4_24,2023-09-11T19:07:39.476Z,,0,,,4552.312999999995,completion,,,,,false,,,,216726.09999990463,216726,212157.016,212340.90000009537,212173.687,216565.668,8,400,,,
trial,html.Screen,4_25_0,2023-09-11T19:07:44.358Z,,0,1,,5041.732000095362,response,ISIC_4887874.JPG,5,ISIC_0046664.JPG,ISIC_4887874.JPG,false,1,keypress(m),500,221607.5,221607.40000009537,216548.91,216726.19999980927,216565.668,221441.748,8,400,26,,ISIC_0046664.JPG
break,html.Screen,4_25_1,2023-09-11T19:07:44.358Z,,0,,,NaN,,,,,,false,,,,221608,221607.80000019073,,221607.59999990463,,221441.748,8,400,,,
break_continue,html.Screen,4_25_2,2023-09-11T19:07:44.359Z,,0,,,NaN,,,,,,false,,,,221608.19999980927,221608.19999980927,,221608.09999990463,,221441.748,8,400,,,
sequence,flow.Sequence,4_25,2023-09-11T19:07:44.359Z,,0,,,5042.53199980926,completion,,,,,false,,,,221608.30000019073,221608.19999980927,216548.91,216726.09999990463,216565.668,221441.748,8,400,,,
trial,html.Screen,4_26_0,2023-09-11T19:07:48.024Z,,0,1,,3831.8519999046403,response,ISIC_3842916.JPG,6,ISIC_0031545.JPG,ISIC_3842916.JPG,false,1,keypress(m),500,225273.90000009537,225273.59999990463,221425.113,221608.5,221441.748,225115.528,8,400,27,,ISIC_0031545.JPG
break,html.Screen,4_26_1,2023-09-11T19:07:48.025Z,,0,,,NaN,,,,,,false,,,,225275,225274.69999980927,,225274.19999980927,,225115.528,8,400,,,
break_continue,html.Screen,4_26_2,2023-09-11T19:07:48.026Z,,0,,,NaN,,,,,,false,,,,225275.59999990463,225275.40000009537,,225275.09999990463,,225115.528,8,400,,,
sequence,flow.Sequence,4_26,2023-09-11T19:07:48.026Z,,0,,,3833.652000095375,completion,,,,,false,,,,225275.69999980927,225275.40000009537,221425.113,221608.40000009537,221441.748,225115.528,8,400,,,
trial,html.Screen,4_27_0,2023-09-11T19:07:52.883Z,,0,1,,5016.772000190744,response,ISIC_5611104.JPG,6,ISIC_0057259.JPG,ISIC_5611104.JPG,false,1,keypress(m),500,230132.40000009537,230132.30000019073,225098.955,225275.90000009537,225115.528,229975.08,8,400,28,,ISIC_0057259.JPG
break,html.Screen,4_27_1,2023-09-11T19:07:52.883Z,,0,,,NaN,,,,,,false,,,,230132.80000019073,230132.80000019073,,230132.5,,229975.08,8,400,,,
break_continue,html.Screen,4_27_2,2023-09-11T19:07:52.883Z,,0,,,NaN,,,,,,false,,,,230133.09999990463,230133.09999990463,,230132.90000009537,,229975.08,8,400,,,
sequence,flow.Sequence,4_27,2023-09-11T19:07:52.883Z,,0,,,5017.571999904641,completion,,,,,false,,,,230133.19999980927,230133.09999990463,225098.955,225275.90000009537,225115.528,229975.08,8,400,,,
trial,html.Screen,4_28_0,2023-09-11T19:07:57.557Z,,0,1,,4831.119999809278,response,ISIC_4099058.JPG,6,ISIC_0062208.JPG,ISIC_4099058.JPG,false,1,keypress(m),500,234806.30000019073,234806.19999980927,229958.352,230133.19999980927,229975.08,234650.789,8,400,29,,ISIC_0062208.JPG
break,html.Screen,4_28_1,2023-09-11T19:07:57.557Z,,0,,,NaN,,,,,,false,,,,234806.80000019073,234806.69999980927,,234806.5,,234650.789,8,400,,,
break_continue,html.Screen,4_28_2,2023-09-11T19:07:57.557Z,,0,,,NaN,,,,,,false,,,,234806.90000009537,234806.90000009537,,234806.90000009537,,234650.789,8,400,,,
sequence,flow.Sequence,4_28,2023-09-11T19:07:57.557Z,,0,,,4831.82000009538,completion,,,,,false,,,,234807,234806.90000009537,229958.352,230133.19999980927,229975.08,234650.789,8,400,,,
trial,html.Screen,4_29_0,2023-09-11T19:08:01.977Z,,0,1,,4574.410999809275,response,ISIC_8907232.JPG,6,ISIC_0012048.JPG,ISIC_8907232.JPG,false,1,keypress(m),500,239225.59999990463,239225.19999980927,234634.239,234807.19999980927,234650.789,239059.416,8,400,30,,ISIC_0012048.JPG
break,html.Screen,4_29_1,2023-09-11T19:08:01.979Z,,0,,,NaN,,,,,,false,,,,239227.09999990463,239226.69999980927,,239226,,239059.416,8,400,,,
break_continue,html.Screen,4_29_2,2023-09-11T19:08:01.979Z,,0,,,NaN,,,,,,false,,,,239227.90000009537,239227.69999980927,,239227.30000019073,,239059.416,8,400,,,
sequence,flow.Sequence,4_29,2023-09-11T19:08:01.980Z,,0,,,4576.910999809275,completion,,,,,false,,,,239228.19999980927,239227.69999980927,234634.239,234807.09999990463,234650.789,239059.416,8,400,,,
trial,html.Screen,4_30_0,2023-09-11T19:08:06.787Z,,0,1,,4975.884000190737,response,ISIC_0031074.JPG,5,ISIC_0062318.JPG,ISIC_0031074.JPG,false,1,keypress(m),500,244035.59999990463,244035.30000019073,239042.674,239228.40000009537,239059.416,243868.719,8,400,31,,ISIC_0062318.JPG
break,html.Screen,4_30_1,2023-09-11T19:08:06.789Z,,0,,,NaN,,,,,,false,,,,244037.69999980927,244037.19999980927,,244036.19999980927,,243868.719,8,400,,,
break_continue,html.Screen,4_30_2,2023-09-11T19:08:06.790Z,,0,,,NaN,,,,,,false,,,,244038.40000009537,244038.19999980927,,244037.90000009537,,243868.719,8,400,,,
sequence,flow.Sequence,4_30,2023-09-11T19:08:06.790Z,,0,,,4978.783999809268,completion,,,,,false,,,,244038.69999980927,244038.19999980927,239042.674,239228.40000009537,239059.416,243868.719,8,400,,,
trial,html.Screen,4_31_0,2023-09-11T19:08:12.768Z,,0,1,,6147.280999999988,response,ISIC_0069633.JPG,5,ISIC_7498132.JPG,ISIC_7498132.JPG,false,0,keypress(z),500,250016.09999990463,250016,243851.999,244039.59999990463,243868.719,249846.996,8,400,32,,ISIC_0069633.JPG
break,html.Screen,4_31_1,2023-09-11T19:08:12.768Z,,0,,,NaN,,,,,,false,,,,250016.5,250016.40000009537,,250016.19999980927,,249846.996,8,400,,,
break_continue,html.Screen,4_31_2,2023-09-11T19:08:12.768Z,,0,,,NaN,,,,,,false,,,,250016.69999980927,250016.69999980927,,250016.59999990463,,249846.996,8,400,,,
sequence,flow.Sequence,4_31,2023-09-11T19:08:12.768Z,,0,,,6147.980999809253,completion,,,,,false,,,,250016.80000019073,250016.69999980927,243851.999,244039.09999990463,243868.719,249846.996,8,400,,,
trial,html.Screen,4_32_0,2023-09-11T19:08:18.281Z,,0,1,,5682.203999809251,response,ISIC_0061643.JPG,5,ISIC_6324832.JPG,ISIC_6324832.JPG,false,0,keypress(z),500,255529.30000019073,255529.19999980927,249830.469,250016.80000019073,249846.996,255374.457,8,400,33,,ISIC_0061643.JPG
break,html.Screen,4_32_1,2023-09-11T19:08:18.281Z,,0,,,NaN,,,,,,false,,,,255529.69999980927,255529.69999980927,,255529.40000009537,,255374.457,8,400,,,
break_continue,html.Screen,4_32_2,2023-09-11T19:08:18.282Z,,0,,,NaN,,,,,,false,,,,255530,255529.90000009537,,255529.90000009537,,255374.457,8,400,,,
sequence,flow.Sequence,4_32,2023-09-11T19:08:18.282Z,,0,,,5682.904000095354,completion,,,,,false,,,,255530.09999990463,255529.90000009537,249830.469,250016.80000019073,249846.996,255374.457,8,400,,,
trial,html.Screen,4_33_0,2023-09-11T19:08:25.500Z,,0,1,,7374.142999904638,response,ISIC_0007029.JPG,5,ISIC_0011150.JPG,ISIC_0007029.JPG,false,1,keypress(m),500,262748.69999980927,262748.59999990463,255357.76,255530.19999980927,255374.457,262588.451,8,400,34,,ISIC_0011150.JPG
break,html.Screen,4_33_1,2023-09-11T19:08:25.501Z,,0,,,NaN,,,,,,false,,,,262749.09999990463,262748.90000009537,,262748.69999980927,,262588.451,8,400,,,
break_continue,html.Screen,4_33_2,2023-09-11T19:08:25.501Z,,0,,,NaN,,,,,,false,,,,262749.30000019073,262749.30000019073,,262749.09999990463,,262588.451,8,400,,,
sequence,flow.Sequence,4_33,2023-09-11T19:08:25.501Z,,0,,,7374.84300019074,completion,,,,,false,,,,262749.30000019073,262749.30000019073,255357.76,255530.09999990463,255374.457,262588.451,8,400,,,
trial,html.Screen,4_34_0,2023-09-11T19:08:32.431Z,,0,1,,7090.548999999999,response,ISIC_0031763.JPG,5,ISIC_3336353.JPG,ISIC_3336353.JPG,false,0,keypress(z),500,269679.09999990463,269679,262571.783,262749.40000009537,262588.451,269518.648,8,400,35,,ISIC_0031763.JPG
break,html.Screen,4_34_1,2023-09-11T19:08:32.431Z,,0,,,NaN,,,,,,false,,,,269679.40000009537,269679.40000009537,,269679.19999980927,,269518.648,8,400,,,
break_continue,html.Screen,4_34_2,2023-09-11T19:08:32.431Z,,0,,,NaN,,,,,,false,,,,269679.69999980927,269679.59999990463,,269679.5,,269518.648,8,400,,,
sequence,flow.Sequence,4_34,2023-09-11T19:08:32.431Z,,0,,,7091.148999904632,completion,,,,,false,,,,269679.69999980927,269679.59999990463,262571.783,262749.40000009537,262588.451,269518.648,8,400,,,
trial,html.Screen,4_35_0,2023-09-11T19:08:38.993Z,,0,1,,6722.3520000000135,response,ISIC_0028275.JPG,4,ISIC_0033332.JPG,ISIC_0033332.JPG,false,0,keypress(z),500,276241.19999980927,276241,269501.928,269679.80000019073,269518.648,276081.427,8,400,36,,ISIC_0028275.JPG
break,html.Screen,4_35_1,2023-09-11T19:08:38.993Z,,0,,,NaN,,,,,,false,,,,276241.69999980927,276241.59999990463,,276241.30000019073,,276081.427,8,400,,,
break_continue,html.Screen,4_35_2,2023-09-11T19:08:38.993Z,,0,,,NaN,,,,,,false,,,,276242,276241.90000009537,,276241.80000019073,,276081.427,8,400,,,
sequence,flow.Sequence,4_35,2023-09-11T19:08:38.994Z,,0,,,6723.252000095381,completion,,,,,false,,,,276242.09999990463,276241.90000009537,269501.928,269679.69999980927,269518.648,276081.427,8,400,,,
trial,html.Screen,4_36_0,2023-09-11T19:08:45.572Z,,0,1,,6738.77299980924,response,ISIC_6072777.JPG,4,ISIC_0072429.JPG,ISIC_6072777.JPG,false,1,keypress(m),500,282820.30000019073,282820.19999980927,276064.914,276242.09999990463,276081.427,282660.808,8,400,37,,ISIC_0072429.JPG
break,html.Screen,4_36_1,2023-09-11T19:08:45.573Z,,0,,,NaN,,,,,,false,,,,282821,282820.90000009537,,282820.40000009537,,282660.808,8,400,,,
break_continue,html.Screen,4_36_2,2023-09-11T19:08:45.573Z,,0,,,NaN,,,,,,false,,,,282821.30000019073,282821.30000019073,,282821.19999980927,,282660.808,8,400,,,
sequence,flow.Sequence,4_36,2023-09-11T19:08:45.573Z,,0,,,6739.87300019071,completion,,,,,false,,,,282821.40000009537,282821.30000019073,276064.914,276242.09999990463,276081.427,282660.808,8,400,,,
trial,html.Screen,4_37_0,2023-09-11T19:08:50.012Z,,0,1,,4599.2919999046135,response,ISIC_4552230.JPG,5,ISIC_0014541.JPG,ISIC_4552230.JPG,false,1,keypress(m),500,287260.19999980927,287260.09999990463,282644.329,282821.5,282660.808,287102.919,8,400,38,,ISIC_0014541.JPG
break,html.Screen,4_37_1,2023-09-11T19:08:50.012Z,,0,,,NaN,,,,,,false,,,,287260.69999980927,287260.59999990463,,287260.30000019073,,287102.919,8,400,,,
break_continue,html.Screen,4_37_2,2023-09-11T19:08:50.012Z,,0,,,NaN,,,,,,false,,,,287260.90000009537,287260.90000009537,,287260.80000019073,,287102.919,8,400,,,
sequence,flow.Sequence,4_37,2023-09-11T19:08:50.013Z,,0,,,4600.092000095348,completion,,,,,false,,,,287261,287260.90000009537,282644.329,282821.5,282660.808,287102.919,8,400,,,
trial,html.Screen,4_38_0,2023-09-11T19:08:54.245Z,,0,1,,4390.081000000006,response,ISIC_0057702.JPG,5,ISIC_0260316.JPG,ISIC_0057702.JPG,false,1,keypress(m),500,291493.30000019073,291493,287086.129,287261.09999990463,287102.919,291327.802,8,400,39,,ISIC_0260316.JPG
break,html.Screen,4_38_1,2023-09-11T19:08:54.246Z,,0,,,NaN,,,,,,false,,,,291494.30000019073,291494.09999990463,,291493.5,,291327.802,8,400,,,
break_continue,html.Screen,4_38_2,2023-09-11T19:08:54.246Z,,0,,,NaN,,,,,,false,,,,291494.80000019073,291494.69999980927,,291494.5,,291327.802,8,400,,,
sequence,flow.Sequence,4_38,2023-09-11T19:08:54.247Z,,0,,,4391.780999809271,completion,,,,,false,,,,291495.09999990463,291494.69999980927,287086.129,287261.09999990463,287102.919,291327.802,8,400,,,
trial,html.Screen,4_39_0,2023-09-11T19:08:59.481Z,,0,1,,5400.797999904607,response,ISIC_0013365.JPG,5,ISIC_0014264.JPG,ISIC_0014264.JPG,false,0,keypress(z),500,296728.69999980927,296728.59999990463,291311.132,291495.19999980927,291327.802,296571.255,8,400,40,,ISIC_0013365.JPG
break,html.Screen,4_39_1,2023-09-11T19:08:59.482Z,,0,,,NaN,,,,,,false,,,,296729.19999980927,296729.09999990463,,296728.80000019073,,296571.255,8,400,,,
break_continue,html.Screen,4_39_2,2023-09-11T19:08:59.482Z,,0,,,NaN,,,,,,false,,,,296729.5,296729.40000009537,,296729.30000019073,,296571.255,8,400,,,
sequence,flow.Sequence,4_39,2023-09-11T19:08:59.482Z,,0,,,5401.598000095342,completion,,,,,false,,,,296729.59999990463,296729.40000009537,291311.132,291495.19999980927,291327.802,296571.255,8,400,,,
trial,html.Screen,4_40_0,2023-09-11T19:09:04.428Z,,0,1,,5103.645000095363,response,ISIC_0068895.JPG,6,ISIC_9760652.JPG,ISIC_9760652.JPG,false,0,keypress(z),500,301675,301674.90000009537,296554.798,296729.69999980927,296571.255,301514.179,8,400,41,,ISIC_0068895.JPG
break,html.Screen,4_40_1,2023-09-11T19:09:04.428Z,,0,,,NaN,,,,,,false,,,,301675.80000019073,301675.59999990463,,301675.19999980927,,301514.179,8,400,,,
break_continue,html.Screen,4_40_2,2023-09-11T19:09:04.429Z,,0,,,NaN,,,,,,false,,,,301676.19999980927,301676.09999990463,,301675.90000009537,,301514.179,8,400,,,
sequence,flow.Sequence,4_40,2023-09-11T19:09:04.429Z,,0,,,5104.844999904628,completion,,,,,false,,,,301676.30000019073,301676.09999990463,296554.798,296729.59999990463,296571.255,301514.179,8,400,,,
trial,html.Screen,4_41_0,2023-09-11T19:09:11.109Z,,0,1,,6842.420999904629,response,ISIC_1287370.JPG,6,ISIC_5514594.JPG,ISIC_5514594.JPG,false,0,keypress(z),500,308356.69999980927,308356.59999990463,301497.531,301676.80000019073,301514.179,308193.953,8,400,42,,ISIC_1287370.JPG
break,html.Screen,4_41_1,2023-09-11T19:09:11.110Z,,0,,,NaN,,,,,,false,,,,308357.09999990463,308357,,308356.80000019073,,308193.953,8,400,,,
break_continue,html.Screen,4_41_2,2023-09-11T19:09:11.110Z,,0,,,NaN,,,,,,false,,,,308357.19999980927,308357.19999980927,,308357.09999990463,,308193.953,8,400,,,
sequence,flow.Sequence,4_41,2023-09-11T19:09:11.110Z,,0,,,6843.020999809261,completion,,,,,false,,,,308357.30000019073,308357.19999980927,301497.531,301676.69999980927,301514.179,308193.953,8,400,,,
trial,html.Screen,4_42_0,2023-09-11T19:09:18.376Z,,0,1,,7429.246999809286,response,ISIC_0071733.JPG,6,ISIC_0033625.JPG,ISIC_0071733.JPG,false,1,keypress(m),500,315623.30000019073,315623.19999980927,308177.364,308357.40000009537,308193.953,315458.036,8,400,43,,ISIC_0033625.JPG
break,html.Screen,4_42_1,2023-09-11T19:09:18.376Z,,0,,,NaN,,,,,,false,,,,315623.69999980927,315623.59999990463,,315623.40000009537,,315458.036,8,400,,,
break_continue,html.Screen,4_42_2,2023-09-11T19:09:18.376Z,,0,,,NaN,,,,,,false,,,,315623.90000009537,315623.90000009537,,315623.80000019073,,315458.036,8,400,,,
sequence,flow.Sequence,4_42,2023-09-11T19:09:18.377Z,,0,,,7429.947000095388,completion,,,,,false,,,,315624,315623.90000009537,308177.364,308357.40000009537,308193.953,315458.036,8,400,,,
trial,html.Screen,4_43_0,2023-09-11T19:09:22.398Z,,0,1,,4187.163999809243,response,ISIC_6808543.JPG,5,ISIC_7746479.JPG,ISIC_7746479.JPG,false,0,keypress(z),500,319645.59999990463,319645.19999980927,315441.41,315624.09999990463,315458.036,319482.683,8,400,44,,ISIC_6808543.JPG
break,html.Screen,4_43_1,2023-09-11T19:09:22.400Z,,0,,,NaN,,,,,,false,,,,319647,319646.59999990463,,319646,,319482.683,8,400,,,
break_continue,html.Screen,4_43_2,2023-09-11T19:09:22.400Z,,0,,,NaN,,,,,,false,,,,319647.80000019073,319647.59999990463,,319647.19999980927,,319482.683,8,400,,,
sequence,flow.Sequence,4_43,2023-09-11T19:09:22.401Z,,0,,,4189.563999904611,completion,,,,,false,,,,319648.09999990463,319647.59999990463,315441.41,315624.09999990463,315458.036,319482.683,8,400,,,
trial,html.Screen,4_44_0,2023-09-11T19:09:26.613Z,,0,1,,4378.016999809246,response,ISIC_6717322.JPG,4,ISIC_0060760.JPG,ISIC_6717322.JPG,false,1,keypress(m),500,323860.80000019073,323860.69999980927,319465.9,319648.40000009537,319482.683,323707.407,8,400,45,,ISIC_0060760.JPG
break,html.Screen,4_44_1,2023-09-11T19:09:26.614Z,,0,,,NaN,,,,,,false,,,,323861.59999990463,323861.40000009537,,323861,,323707.407,8,400,,,
break_continue,html.Screen,4_44_2,2023-09-11T19:09:26.614Z,,0,,,NaN,,,,,,false,,,,323861.80000019073,323861.80000019073,,323861.69999980927,,323707.407,8,400,,,
sequence,flow.Sequence,4_44,2023-09-11T19:09:26.614Z,,0,,,4379.117000190716,completion,,,,,false,,,,323861.90000009537,323861.80000019073,319465.9,319648.30000019073,319482.683,323707.407,8,400,,,
trial,html.Screen,4_45_0,2023-09-11T19:09:30.024Z,,0,1,,3563.993000095361,response,ISIC_7846309.JPG,5,ISIC_0029868.JPG,ISIC_7846309.JPG,false,1,keypress(m),500,327271.5,327271.40000009537,323690.817,323861.90000009537,323707.407,327114.078,8,400,46,,ISIC_0029868.JPG
break,html.Screen,4_45_1,2023-09-11T19:09:30.025Z,,0,,,NaN,,,,,,false,,,,327272,327271.90000009537,,327271.59999990463,,327114.078,8,400,,,
break_continue,html.Screen,4_45_2,2023-09-11T19:09:30.025Z,,0,,,NaN,,,,,,false,,,,327272.19999980927,327272.19999980927,,327272.09999990463,,327114.078,8,400,,,
sequence,flow.Sequence,4_45,2023-09-11T19:09:30.025Z,,0,,,3564.7929998092586,completion,,,,,false,,,,327272.40000009537,327272.19999980927,323690.817,323861.90000009537,323707.407,327114.078,8,400,,,
trial,html.Screen,4_46_0,2023-09-11T19:09:33.370Z,,0,1,,3503.021999904653,response,ISIC_0011994.JPG,6,ISIC_6895016.JPG,ISIC_6895016.JPG,false,0,keypress(z),500,330617.19999980927,330617.09999990463,327097.38,327272.5,327114.078,330453.988,8,400,47,,ISIC_0011994.JPG
break,html.Screen,4_46_1,2023-09-11T19:09:33.370Z,,0,,,NaN,,,,,,false,,,,330617.59999990463,330617.5,,330617.30000019073,,330453.988,8,400,,,
break_continue,html.Screen,4_46_2,2023-09-11T19:09:33.370Z,,0,,,NaN,,,,,,false,,,,330617.80000019073,330617.69999980927,,330617.69999980927,,330453.988,8,400,,,
sequence,flow.Sequence,4_46,2023-09-11T19:09:33.370Z,,0,,,3503.6219998092856,completion,,,,,false,,,,330617.90000009537,330617.69999980927,327097.38,327272.5,327114.078,330453.988,8,400,,,
trial,html.Screen,4_47_0,2023-09-11T19:09:38.475Z,,0,1,,5268.6119999046205,response,ISIC_6739241.JPG,5,ISIC_9509813.JPG,ISIC_6739241.JPG,false,1,keypress(m),500,335722.69999980927,335722.59999990463,330437.257,330617.90000009537,330453.988,335563.976,8,400,48,,ISIC_9509813.JPG
break,html.Screen,4_47_1,2023-09-11T19:09:38.476Z,,0,,,NaN,,,,,,false,,,,335723.09999990463,335723,,335722.90000009537,,335563.976,8,400,,,
break_continue,html.Screen,4_47_2,2023-09-11T19:09:38.476Z,,0,,,NaN,,,,,,false,,,,335723.40000009537,335723.19999980927,,335723.19999980927,,335563.976,8,400,,,
sequence,flow.Sequence,4_47,2023-09-11T19:09:38.476Z,,0,,,5269.211999809253,completion,,,,,false,,,,335723.40000009537,335723.19999980927,330437.257,330617.90000009537,330453.988,335563.976,8,400,,,
trial,html.Screen,4_48_0,2023-09-11T19:09:43.950Z,,0,1,,5633.824000190711,response,ISIC_4114269.JPG,5,ISIC_7901891.JPG,ISIC_4114269.JPG,false,1,keypress(m),500,341197.80000019073,341197.80000019073,335547.293,335723.40000009537,335563.976,341041.136,8,400,49,,ISIC_7901891.JPG
break,html.Screen,4_48_1,2023-09-11T19:09:43.951Z,,0,,,NaN,,,,,,false,,,,341198.40000009537,341198.19999980927,,341197.90000009537,,341041.136,8,400,,,
break_continue,html.Screen,4_48_2,2023-09-11T19:09:43.951Z,,0,,,NaN,,,,,,false,,,,341198.59999990463,341198.5,,341198.5,,341041.136,8,400,,,
sequence,flow.Sequence,4_48,2023-09-11T19:09:43.951Z,,0,,,5634.523999999976,completion,,,,,false,,,,341198.69999980927,341198.5,335547.293,335723.40000009537,335563.976,341041.136,8,400,,,
trial,html.Screen,4_49_0,2023-09-11T19:09:50.633Z,,0,1,,6838.864000000001,response,ISIC_0046672.JPG,5,ISIC_0031477.JPG,ISIC_0031477.JPG,false,0,keypress(z),500,347880.40000009537,347880,341024.413,341198.69999980927,341041.136,347720.82,8,400,50,,ISIC_0046672.JPG
break,html.Screen,4_49_1,2023-09-11T19:10:00.489Z,,0,,,9852.71100000001,timeout,,,,,false,,,,357734.80000019073,357734.40000009537,347704.303,347880.80000019073,347720.82,357573.531,8,400,,,
break_continue,html.Screen,4_49_2,2023-09-11T19:10:01.376Z,,0,,,1037.8690000953502,response,,,,,false,continue,keypress(Space),,358622.09999990463,358611.40000009537,357734.40000009537,357735.19999980927,357573.531,358458.519,8,400,,,
sequence,flow.Sequence,4_49,2023-09-11T19:10:01.376Z,,0,,,17570.26400009537,completion,,,,,false,,,,358622.30000019073,358611.40000009537,341024.413,341198.69999980927,341041.136,358458.519,8,400,,,
trial,html.Screen,4_50_0,2023-09-11T19:10:04.680Z,,0,2,,3467.3810000953963,response,ISIC_0974833.JPG,5,ISIC_4384861.JPG,ISIC_0974833.JPG,false,1,keypress(m),500,361926.30000019073,361925.90000009537,358441.781,358622.5,358458.519,361764.82,8,400,1,,ISIC_4384861.JPG
break,html.Screen,4_50_1,2023-09-11T19:10:04.682Z,,0,,,NaN,,,,,,false,,,,361928,361927.59999990463,,361926.80000019073,,361764.82,8,400,,,
break_continue,html.Screen,4_50_2,2023-09-11T19:10:04.683Z,,0,,,NaN,,,,,,false,,,,361928.90000009537,361928.59999990463,,361928.19999980927,,361764.82,8,400,,,
sequence,flow.Sequence,4_50,2023-09-11T19:10:04.683Z,,0,,,3470.0809999046614,completion,,,,,false,,,,361929.19999980927,361928.59999990463,358441.781,358622.40000009537,358458.519,361764.82,8,400,,,
trial,html.Screen,4_51_0,2023-09-11T19:10:11.510Z,,0,2,,6990.779999904626,response,ISIC_0010874.JPG,5,ISIC_0061705.JPG,ISIC_0061705.JPG,false,0,keypress(z),500,368755.80000019073,368755.59999990463,361748.14,361929.40000009537,361764.82,368594.781,8,400,2,,ISIC_0010874.JPG
break,html.Screen,4_51_1,2023-09-11T19:10:11.510Z,,0,,,NaN,,,,,,false,,,,368756.40000009537,368756.30000019073,,368755.90000009537,,368594.781,8,400,,,
break_continue,html.Screen,4_51_2,2023-09-11T19:10:11.511Z,,0,,,NaN,,,,,,false,,,,368756.69999980927,368756.59999990463,,368756.5,,368594.781,8,400,,,
sequence,flow.Sequence,4_51,2023-09-11T19:10:11.511Z,,0,,,6991.779999904626,completion,,,,,false,,,,368756.80000019073,368756.59999990463,361748.14,361929.30000019073,361764.82,368594.781,8,400,,,
trial,html.Screen,4_52_0,2023-09-11T19:10:15.450Z,,0,2,,4101.61900009535,response,ISIC_0046693.JPG,6,ISIC_0004848.JPG,ISIC_0004848.JPG,false,0,keypress(z),500,372696.5,372696.40000009537,368578.063,368756.90000009537,368594.781,372535.864,8,400,3,,ISIC_0046693.JPG
break,html.Screen,4_52_1,2023-09-11T19:10:15.451Z,,0,,,NaN,,,,,,false,,,,372697.19999980927,372697,,372696.69999980927,,372535.864,8,400,,,
break_continue,html.Screen,4_52_2,2023-09-11T19:10:15.451Z,,0,,,NaN,,,,,,false,,,,372697.59999990463,372697.40000009537,,372697.30000019073,,372535.864,8,400,,,
sequence,flow.Sequence,4_52,2023-09-11T19:10:15.452Z,,0,,,4102.61900009535,completion,,,,,false,,,,372697.59999990463,372697.40000009537,368578.063,368756.90000009537,368594.781,372535.864,8,400,,,
trial,html.Screen,4_53_0,2023-09-11T19:10:19.873Z,,0,2,,4582.536000095366,response,ISIC_8156101.JPG,5,ISIC_9738202.JPG,ISIC_8156101.JPG,false,1,keypress(m),500,377118.69999980927,377118.40000009537,372519.154,372697.69999980927,372535.864,376961.166,8,400,4,,ISIC_9738202.JPG
break,html.Screen,4_53_1,2023-09-11T19:10:19.874Z,,0,,,NaN,,,,,,false,,,,377120.40000009537,377119.90000009537,,377119,,376961.166,8,400,,,
break_continue,html.Screen,4_53_2,2023-09-11T19:10:19.875Z,,0,,,NaN,,,,,,false,,,,377121.5,377121.30000019073,,377120.69999980927,,376961.166,8,400,,,
sequence,flow.Sequence,4_53,2023-09-11T19:10:19.876Z,,0,,,4585.4360001907335,completion,,,,,false,,,,377121.90000009537,377121.30000019073,372519.154,372697.69999980927,372535.864,376961.166,8,400,,,
trial,html.Screen,4_54_0,2023-09-11T19:10:23.351Z,,0,2,,3635.6340001907083,response,ISIC_5548914.JPG,6,ISIC_0028326.JPG,ISIC_0028326.JPG,false,0,keypress(z),500,380596.90000009537,380596.80000019073,376944.365,377122.30000019073,376961.166,380434.524,8,400,5,,ISIC_5548914.JPG
break,html.Screen,4_54_1,2023-09-11T19:10:23.352Z,,0,,,NaN,,,,,,false,,,,380597.59999990463,380597.40000009537,,380597.09999990463,,380434.524,8,400,,,
break_continue,html.Screen,4_54_2,2023-09-11T19:10:23.352Z,,0,,,NaN,,,,,,false,,,,380597.90000009537,380597.80000019073,,380597.69999980927,,380434.524,8,400,,,
sequence,flow.Sequence,4_54,2023-09-11T19:10:23.352Z,,0,,,3636.6340001907083,completion,,,,,false,,,,380598.09999990463,380597.80000019073,376944.365,377122.19999980927,376961.166,380434.524,8,400,,,
trial,html.Screen,4_55_0,2023-09-11T19:10:28.890Z,,0,2,,5701.276000190759,response,ISIC_9906378.JPG,5,ISIC_1453146.JPG,ISIC_9906378.JPG,false,1,keypress(m),500,386135.90000009537,386135.80000019073,380417.831,380598.09999990463,380434.524,385978.62,8,400,6,,ISIC_1453146.JPG
break,html.Screen,4_55_1,2023-09-11T19:10:28.890Z,,0,,,NaN,,,,,,false,,,,386136.40000009537,386136.19999980927,,386136,,385978.62,8,400,,,
break_continue,html.Screen,4_55_2,2023-09-11T19:10:28.890Z,,0,,,NaN,,,,,,false,,,,386136.5,386136.5,,386136.40000009537,,385978.62,8,400,,,
sequence,flow.Sequence,4_55,2023-09-11T19:10:28.890Z,,0,,,5701.976000000024,completion,,,,,false,,,,386136.59999990463,386136.5,380417.831,380598.09999990463,380434.524,385978.62,8,400,,,
trial,html.Screen,4_56_0,2023-09-11T19:10:33.916Z,,0,2,,5183.780000095372,response,ISIC_3009877.JPG,5,ISIC_0331389.JPG,ISIC_0331389.JPG,false,0,keypress(z),500,391162.5,391162.40000009537,385961.865,386136.69999980927,385978.62,391005.127,8,400,7,,ISIC_3009877.JPG
break,html.Screen,4_56_1,2023-09-11T19:10:33.917Z,,0,,,NaN,,,,,,false,,,,391162.90000009537,391162.90000009537,,391162.59999990463,,391005.127,8,400,,,
break_continue,html.Screen,4_56_2,2023-09-11T19:10:33.917Z,,0,,,NaN,,,,,,false,,,,391163.09999990463,391163.09999990463,,391163,,391005.127,8,400,,,
sequence,flow.Sequence,4_56,2023-09-11T19:10:33.917Z,,0,,,5184.479999904637,completion,,,,,false,,,,391163.19999980927,391163.09999990463,385961.865,386136.69999980927,385978.62,391005.127,8,400,,,
trial,html.Screen,4_57_0,2023-09-11T19:10:40.654Z,,0,2,,6894.972999904654,response,ISIC_5476770.JPG,5,ISIC_0030110.JPG,ISIC_5476770.JPG,false,1,keypress(m),500,397900.19999980927,397900.09999990463,390988.501,391163.30000019073,391005.127,397734.779,8,400,8,,ISIC_0030110.JPG
break,html.Screen,4_57_1,2023-09-11T19:10:40.655Z,,0,,,NaN,,,,,,false,,,,397900.80000019073,397900.59999990463,,397900.30000019073,,397734.779,8,400,,,
break_continue,html.Screen,4_57_2,2023-09-11T19:10:40.655Z,,0,,,NaN,,,,,,false,,,,397901,397901,,397900.90000009537,,397734.779,8,400,,,
sequence,flow.Sequence,4_57,2023-09-11T19:10:40.655Z,,0,,,6895.873000000021,completion,,,,,false,,,,397901.19999980927,397901,390988.501,391163.19999980927,391005.127,397734.779,8,400,,,
trial,html.Screen,4_58_0,2023-09-11T19:10:45.953Z,,0,2,,5463.920999809285,response,ISIC_0057259.JPG,5,ISIC_0032341.JPG,ISIC_0032341.JPG,false,0,keypress(z),500,403198.90000009537,403198.69999980927,397718.213,397901.19999980927,397734.779,403045.241,8,400,9,,ISIC_0057259.JPG
break,html.Screen,4_58_1,2023-09-11T19:10:45.953Z,,0,,,NaN,,,,,,false,,,,403199.40000009537,403199.19999980927,,403199,,403045.241,8,400,,,
break_continue,html.Screen,4_58_2,2023-09-11T19:10:45.953Z,,0,,,NaN,,,,,,false,,,,403199.59999990463,403199.5,,403199.5,,403045.241,8,400,,,
sequence,flow.Sequence,4_58,2023-09-11T19:10:45.954Z,,0,,,5464.72100000002,completion,,,,,false,,,,403199.69999980927,403199.5,397718.213,397901.19999980927,397734.779,403045.241,8,400,,,
trial,html.Screen,4_59_0,2023-09-11T19:10:52.003Z,,0,2,,6203.25900000002,response,ISIC_0014325.JPG,5,ISIC_0025451.JPG,ISIC_0014325.JPG,false,1,keypress(m),500,409248.80000019073,409248.5,403028.521,403199.69999980927,403045.241,409090.188,8,400,10,,ISIC_0025451.JPG
break,html.Screen,4_59_1,2023-09-11T19:10:52.003Z,,0,,,NaN,,,,,,false,,,,409249.40000009537,409249.09999990463,,409248.80000019073,,409090.188,8,400,,,
break_continue,html.Screen,4_59_2,2023-09-11T19:10:52.004Z,,0,,,NaN,,,,,,false,,,,409249.80000019073,409249.69999980927,,409249.59999990463,,409090.188,8,400,,,
sequence,flow.Sequence,4_59,2023-09-11T19:10:52.004Z,,0,,,6204.458999809285,completion,,,,,false,,,,409250,409249.69999980927,403028.521,403199.69999980927,403045.241,409090.188,8,400,,,
trial,html.Screen,4_60_0,2023-09-11T19:10:57.515Z,,0,2,,5671.011999809241,response,ISIC_0011295.JPG,5,ISIC_0033287.JPG,ISIC_0011295.JPG,false,1,keypress(m),500,414761.40000009537,414761.19999980927,409073.532,409250.09999990463,409090.188,414600.933,8,400,11,,ISIC_0033287.JPG
break,html.Screen,4_60_1,2023-09-11T19:10:57.516Z,,0,,,NaN,,,,,,false,,,,414761.80000019073,414761.69999980927,,414761.40000009537,,414600.933,8,400,,,
break_continue,html.Screen,4_60_2,2023-09-11T19:10:57.516Z,,0,,,NaN,,,,,,false,,,,414762,414762,,414761.90000009537,,414600.933,8,400,,,
sequence,flow.Sequence,4_60,2023-09-11T19:10:57.516Z,,0,,,5671.811999999976,completion,,,,,false,,,,414762.09999990463,414762,409073.532,409250.09999990463,409090.188,414600.933,8,400,,,
trial,html.Screen,4_61_0,2023-09-11T19:11:03.714Z,,0,2,,6357.566999999981,response,ISIC_8479913.JPG,4,ISIC_9944714.JPG,ISIC_8479913.JPG,false,1,keypress(m),500,420958.69999980927,420958.5,414584.253,414762.30000019073,414600.933,420796.42,8,400,12,,ISIC_9944714.JPG
break,html.Screen,4_61_1,2023-09-11T19:11:03.715Z,,0,,,NaN,,,,,,false,,,,420959.59999990463,420959.40000009537,,420958.90000009537,,420796.42,8,400,,,
break_continue,html.Screen,4_61_2,2023-09-11T19:11:03.715Z,,0,,,NaN,,,,,,false,,,,420959.90000009537,420959.80000019073,,420959.69999980927,,420796.42,8,400,,,
sequence,flow.Sequence,4_61,2023-09-11T19:11:03.715Z,,0,,,6358.867000190716,completion,,,,,false,,,,420960,420959.80000019073,414584.253,414762.19999980927,414600.933,420796.42,8,400,,,
trial,html.Screen,4_62_0,2023-09-11T19:11:07.787Z,,0,2,,4235.880000190751,response,ISIC_0011344.JPG,4,ISIC_6605122.JPG,ISIC_0011344.JPG,false,1,keypress(m),500,425032.5,425032.30000019073,420779.735,420960.09999990463,420796.42,424870.931,8,400,13,,ISIC_6605122.JPG
break,html.Screen,4_62_1,2023-09-11T19:11:07.788Z,,0,,,NaN,,,,,,false,,,,425033,425032.80000019073,,425032.59999990463,,424870.931,8,400,,,
break_continue,html.Screen,4_62_2,2023-09-11T19:11:07.788Z,,0,,,NaN,,,,,,false,,,,425033.19999980927,425033.09999990463,,425033,,424870.931,8,400,,,
sequence,flow.Sequence,4_62,2023-09-11T19:11:07.788Z,,0,,,4236.679999904649,completion,,,,,false,,,,425033.30000019073,425033.09999990463,420779.735,420960.09999990463,420796.42,424870.931,8,400,,,
trial,html.Screen,4_63_0,2023-09-11T19:11:12.830Z,,0,2,,5203.469000095385,response,ISIC_9351418.JPG,4,ISIC_3439215.JPG,ISIC_3439215.JPG,false,0,keypress(z),500,430074.59999990463,430074.40000009537,424854.323,425033.40000009537,424870.931,429914.11,8,400,14,,ISIC_9351418.JPG
break,html.Screen,4_63_1,2023-09-11T19:11:12.830Z,,0,,,NaN,,,,,,false,,,,430075.5,430075.19999980927,,430074.69999980927,,429914.11,8,400,,,
break_continue,html.Screen,4_63_2,2023-09-11T19:11:12.831Z,,0,,,NaN,,,,,,false,,,,430075.80000019073,430075.69999980927,,430075.59999990463,,429914.11,8,400,,,
sequence,flow.Sequence,4_63,2023-09-11T19:11:12.831Z,,0,,,5204.768999809283,completion,,,,,false,,,,430076,430075.69999980927,424854.323,425033.30000019073,424870.931,429914.11,8,400,,,
trial,html.Screen,4_64_0,2023-09-11T19:11:17.762Z,,0,2,,5092.190000190749,response,ISIC_3445468.JPG,5,ISIC_1152559.JPG,ISIC_1152559.JPG,false,0,keypress(z),500,435006.69999980927,435006.30000019073,429897.402,430076.09999990463,429914.11,434857.085,8,400,15,,ISIC_3445468.JPG
break,html.Screen,4_64_1,2023-09-11T19:11:17.763Z,,0,,,NaN,,,,,,false,,,,435008,435007.69999980927,,435007,,434857.085,8,400,,,
break_continue,html.Screen,4_64_2,2023-09-11T19:11:17.764Z,,0,,,NaN,,,,,,false,,,,435008.80000019073,435008.59999990463,,435008.30000019073,,434857.085,8,400,,,
sequence,flow.Sequence,4_64,2023-09-11T19:11:17.764Z,,0,,,5094.4899999046465,completion,,,,,false,,,,435009.09999990463,435008.59999990463,429897.402,430076.09999990463,429914.11,434857.085,8,400,,,
trial,html.Screen,4_65_0,2023-09-11T19:11:24.617Z,,0,2,,7005.014999904612,response,ISIC_8145260.JPG,4,ISIC_0011858.JPG,ISIC_8145260.JPG,false,1,keypress(m),500,441862.09999990463,441862.09999990463,434840.451,435009.30000019073,434857.085,441703.772,8,400,16,,ISIC_0011858.JPG
break,html.Screen,4_65_1,2023-09-11T19:11:24.618Z,,0,,,NaN,,,,,,false,,,,441862.80000019073,441862.59999990463,,441862.30000019073,,441703.772,8,400,,,
break_continue,html.Screen,4_65_2,2023-09-11T19:11:24.618Z,,0,,,NaN,,,,,,false,,,,441863.09999990463,441863.09999990463,,441862.90000009537,,441703.772,8,400,,,
sequence,flow.Sequence,4_65,2023-09-11T19:11:24.618Z,,0,,,7006.014999904612,completion,,,,,false,,,,441863.19999980927,441863.09999990463,434840.451,435009.30000019073,434857.085,441703.772,8,400,,,
trial,html.Screen,4_66_0,2023-09-11T19:11:28.973Z,,0,2,,4514.228000000003,response,ISIC_1475598.JPG,4,ISIC_0000056.JPG,ISIC_1475598.JPG,false,1,keypress(m),500,446218.09999990463,446218,441687.033,441863.30000019073,441703.772,446062.206,8,400,17,,ISIC_0000056.JPG
break,html.Screen,4_66_1,2023-09-11T19:11:28.974Z,,0,,,NaN,,,,,,false,,,,446218.69999980927,446218.5,,446218.30000019073,,446062.206,8,400,,,
break_continue,html.Screen,4_66_2,2023-09-11T19:11:28.974Z,,0,,,NaN,,,,,,false,,,,446218.90000009537,446218.90000009537,,446218.80000019073,,446062.206,8,400,,,
sequence,flow.Sequence,4_66,2023-09-11T19:11:28.974Z,,0,,,4515.12800009537,completion,,,,,false,,,,446219,446218.90000009537,441687.033,441863.30000019073,441703.772,446062.206,8,400,,,
trial,html.Screen,4_67_0,2023-09-11T19:11:33.090Z,,0,2,,4272.793999999994,response,ISIC_0026700.JPG,4,ISIC_1819071.JPG,ISIC_1819071.JPG,false,0,keypress(z),500,450335.09999990463,450335,446045.45,446219.09999990463,446062.206,450170.139,8,400,18,,ISIC_0026700.JPG
break,html.Screen,4_67_1,2023-09-11T19:11:33.091Z,,0,,,NaN,,,,,,false,,,,450335.59999990463,450335.40000009537,,450335.09999990463,,450170.139,8,400,,,
break_continue,html.Screen,4_67_2,2023-09-11T19:11:33.091Z,,0,,,NaN,,,,,,false,,,,450335.80000019073,450335.80000019073,,450335.59999990463,,450170.139,8,400,,,
sequence,flow.Sequence,4_67,2023-09-11T19:11:33.091Z,,0,,,4273.594000190729,completion,,,,,false,,,,450335.90000009537,450335.80000019073,446045.45,446219.09999990463,446062.206,450170.139,8,400,,,
trial,html.Screen,4_68_0,2023-09-11T19:11:40.763Z,,0,2,,7838.0609998092405,response,ISIC_0002693.JPG,5,ISIC_0055781.JPG,ISIC_0002693.JPG,false,1,keypress(m),500,458008.30000019073,458008.19999980927,450153.49,450336,450170.139,457851.788,8,400,19,,ISIC_0055781.JPG
break,html.Screen,4_68_1,2023-09-11T19:11:40.764Z,,0,,,NaN,,,,,,false,,,,458009.19999980927,458009.09999990463,,458008.59999990463,,457851.788,8,400,,,
break_continue,html.Screen,4_68_2,2023-09-11T19:11:40.765Z,,0,,,NaN,,,,,,false,,,,458009.5,458009.40000009537,,458009.30000019073,,457851.788,8,400,,,
sequence,flow.Sequence,4_68,2023-09-11T19:11:40.765Z,,0,,,7839.261000095343,completion,,,,,false,,,,458009.69999980927,458009.40000009537,450153.49,450335.90000009537,450170.139,457851.788,8,400,,,
trial,html.Screen,4_69_0,2023-09-11T19:11:46.497Z,,0,2,,5890.411999809265,response,ISIC_2076902.JPG,6,ISIC_0032152.JPG,ISIC_2076902.JPG,false,1,keypress(m),500,463742.19999980927,463742.19999980927,457835.096,458009.69999980927,457851.788,463579.622,8,400,20,,ISIC_0032152.JPG
break,html.Screen,4_69_1,2023-09-11T19:11:46.498Z,,0,,,NaN,,,,,,false,,,,463742.69999980927,463742.59999990463,,463742.30000019073,,463579.622,8,400,,,
break_continue,html.Screen,4_69_2,2023-09-11T19:11:46.498Z,,0,,,NaN,,,,,,false,,,,463743,463742.90000009537,,463742.80000019073,,463579.622,8,400,,,
sequence,flow.Sequence,4_69,2023-09-11T19:11:46.498Z,,0,,,5891.112000095367,completion,,,,,false,,,,463743,463742.90000009537,457835.096,458009.69999980927,457851.788,463579.622,8,400,,,
trial,html.Screen,4_70_0,2023-09-11T19:11:51.109Z,,0,2,,4774.477999904659,response,ISIC_5278307.JPG,6,ISIC_4344870.JPG,ISIC_4344870.JPG,false,0,keypress(z),500,468354.19999980927,468354.09999990463,463562.914,463743.09999990463,463579.622,468188.582,8,400,21,,ISIC_5278307.JPG
break,html.Screen,4_70_1,2023-09-11T19:11:51.110Z,,0,,,NaN,,,,,,false,,,,468354.69999980927,468354.59999990463,,468354.40000009537,,468188.582,8,400,,,
break_continue,html.Screen,4_70_2,2023-09-11T19:11:51.110Z,,0,,,NaN,,,,,,false,,,,468354.90000009537,468354.80000019073,,468354.69999980927,,468188.582,8,400,,,
sequence,flow.Sequence,4_70,2023-09-11T19:11:51.110Z,,0,,,4775.178000190761,completion,,,,,false,,,,468354.90000009537,468354.80000019073,463562.914,463743,463579.622,468188.582,8,400,,,
trial,html.Screen,4_71_0,2023-09-11T19:11:54.575Z,,0,2,,3630.8180000953726,response,ISIC_8783066.JPG,5,ISIC_0009911.JPG,ISIC_8783066.JPG,false,1,keypress(m),500,471819.5,471819.40000009537,468172.082,468355,468188.582,471661.993,8,400,22,,ISIC_0009911.JPG
break,html.Screen,4_71_1,2023-09-11T19:11:54.576Z,,0,,,NaN,,,,,,false,,,,471820.69999980927,471820.40000009537,,471819.90000009537,,471661.993,8,400,,,
break_continue,html.Screen,4_71_2,2023-09-11T19:11:54.576Z,,0,,,NaN,,,,,,false,,,,471821.19999980927,471821.09999990463,,471820.80000019073,,471661.993,8,400,,,
sequence,flow.Sequence,4_71,2023-09-11T19:11:54.576Z,,0,,,3632.5179999046377,completion,,,,,false,,,,471821.30000019073,471821.09999990463,468172.082,468355,468188.582,471661.993,8,400,,,
trial,html.Screen,4_72_0,2023-09-11T19:11:59.125Z,,0,2,,4707.307000190718,response,ISIC_0025138.JPG,6,ISIC_0063180.JPG,ISIC_0025138.JPG,false,1,keypress(m),500,476369.59999990463,476369.30000019073,471645.483,471821.5,471661.993,476204.201,8,400,23,,ISIC_0063180.JPG
break,html.Screen,4_72_1,2023-09-11T19:11:59.125Z,,0,,,NaN,,,,,,false,,,,476370.40000009537,476370.09999990463,,476369.69999980927,,476204.201,8,400,,,
break_continue,html.Screen,4_72_2,2023-09-11T19:11:59.126Z,,0,,,NaN,,,,,,false,,,,476370.69999980927,476370.69999980927,,476370.5,,476204.201,8,400,,,
sequence,flow.Sequence,4_72,2023-09-11T19:11:59.126Z,,0,,,4708.706999809248,completion,,,,,false,,,,476370.90000009537,476370.69999980927,471645.483,471821.40000009537,471661.993,476204.201,8,400,,,
trial,html.Screen,4_73_0,2023-09-11T19:12:07.150Z,,0,2,,8189.998999809264,response,ISIC_3900049.JPG,5,ISIC_0026611.JPG,ISIC_3900049.JPG,false,1,keypress(m),500,484394.30000019073,484394.19999980927,476187.489,476371,476204.201,484236.451,8,400,24,,ISIC_0026611.JPG
break,html.Screen,4_73_1,2023-09-11T19:12:07.151Z,,0,,,NaN,,,,,,false,,,,484394.80000019073,484394.59999990463,,484394.40000009537,,484236.451,8,400,,,
break_continue,html.Screen,4_73_2,2023-09-11T19:12:07.151Z,,0,,,NaN,,,,,,false,,,,484395,484395,,484394.90000009537,,484236.451,8,400,,,
sequence,flow.Sequence,4_73,2023-09-11T19:12:07.151Z,,0,,,8190.798999999999,completion,,,,,false,,,,484395,484395,476187.489,476371,476204.201,484236.451,8,400,,,
trial,html.Screen,4_74_0,2023-09-11T19:12:12.129Z,,0,2,,5136.048999999999,response,ISIC_9196783.JPG,5,ISIC_0034118.JPG,ISIC_9196783.JPG,false,1,keypress(m),500,489372.59999990463,489372.5,484219.776,484395.09999990463,484236.451,489212.817,8,400,25,,ISIC_0034118.JPG
break,html.Screen,4_74_1,2023-09-11T19:12:12.129Z,,0,,,NaN,,,,,,false,,,,489373.30000019073,489373.09999990463,,489372.80000019073,,489212.817,8,400,,,
break_continue,html.Screen,4_74_2,2023-09-11T19:12:12.130Z,,0,,,NaN,,,,,,false,,,,489373.69999980927,489373.59999990463,,489373.40000009537,,489212.817,8,400,,,
sequence,flow.Sequence,4_74,2023-09-11T19:12:12.130Z,,0,,,5137.148999904632,completion,,,,,false,,,,489373.69999980927,489373.59999990463,484219.776,484395.09999990463,484236.451,489212.817,8,400,,,
trial,html.Screen,4_75_0,2023-09-11T19:12:16.676Z,,0,2,,4707.282999904652,response,ISIC_5439597.JPG,6,ISIC_6588982.JPG,ISIC_6588982.JPG,false,0,keypress(z),500,493920.30000019073,493920.09999990463,489196.148,489373.80000019073,489212.817,493754.989,8,400,26,,ISIC_5439597.JPG
break,html.Screen,4_75_1,2023-09-11T19:12:16.677Z,,0,,,NaN,,,,,,false,,,,493921.30000019073,493921,,493920.5,,493754.989,8,400,,,
break_continue,html.Screen,4_75_2,2023-09-11T19:12:16.678Z,,0,,,NaN,,,,,,false,,,,493921.69999980927,493921.59999990463,,493921.5,,493754.989,8,400,,,
sequence,flow.Sequence,4_75,2023-09-11T19:12:16.678Z,,0,,,4708.782999904652,completion,,,,,false,,,,493921.90000009537,493921.59999990463,489196.148,489373.80000019073,489212.817,493754.989,8,400,,,
trial,html.Screen,4_76_0,2023-09-11T19:12:21.831Z,,0,2,,5319.911000095366,response,ISIC_1744817.JPG,4,ISIC_1979534.JPG,ISIC_1744817.JPG,false,1,keypress(m),500,499075.09999990463,499074.90000009537,493738.377,493922,493754.989,498931.785,8,400,27,,ISIC_1979534.JPG
break,html.Screen,4_76_1,2023-09-11T19:12:21.832Z,,0,,,NaN,,,,,,false,,,,499075.80000019073,499075.5,,499075.19999980927,,498931.785,8,400,,,
break_continue,html.Screen,4_76_2,2023-09-11T19:12:21.832Z,,0,,,NaN,,,,,,false,,,,499076.09999990463,499076,,499075.90000009537,,498931.785,8,400,,,
sequence,flow.Sequence,4_76,2023-09-11T19:12:21.832Z,,0,,,5321.010999999999,completion,,,,,false,,,,499076.19999980927,499076,493738.377,493921.90000009537,493754.989,498931.785,8,400,,,
trial,html.Screen,4_77_0,2023-09-11T19:12:27.641Z,,0,2,,5953.215000000026,response,ISIC_0010240.JPG,5,ISIC_0062524.JPG,ISIC_0010240.JPG,false,1,keypress(m),500,504885.09999990463,504885,498915.038,499076.30000019073,498931.785,504726.339,8,400,28,,ISIC_0062524.JPG
break,html.Screen,4_77_1,2023-09-11T19:12:27.642Z,,0,,,NaN,,,,,,false,,,,504885.5,504885.40000009537,,504885.09999990463,,504726.339,8,400,,,
break_continue,html.Screen,4_77_2,2023-09-11T19:12:27.642Z,,0,,,NaN,,,,,,false,,,,504885.80000019073,504885.69999980927,,504885.59999990463,,504726.339,8,400,,,
sequence,flow.Sequence,4_77,2023-09-11T19:12:27.642Z,,0,,,5953.914999809291,completion,,,,,false,,,,504885.80000019073,504885.69999980927,498915.038,499076.30000019073,498931.785,504726.339,8,400,,,
trial,html.Screen,4_78_0,2023-09-11T19:12:32.028Z,,0,2,,4545.860999809287,response,ISIC_1091626.JPG,5,ISIC_5167209.JPG,ISIC_1091626.JPG,false,1,keypress(m),500,509272.40000009537,509272.19999980927,504709.622,504885.90000009537,504726.339,509118.228,8,400,29,,ISIC_5167209.JPG
break,html.Screen,4_78_1,2023-09-11T19:12:32.029Z,,0,,,NaN,,,,,,false,,,,509273,509272.80000019073,,509272.59999990463,,509118.228,8,400,,,
break_continue,html.Screen,4_78_2,2023-09-11T19:12:32.029Z,,0,,,NaN,,,,,,false,,,,509273.30000019073,509273.30000019073,,509273.09999990463,,509118.228,8,400,,,
sequence,flow.Sequence,4_78,2023-09-11T19:12:32.030Z,,0,,,4546.961000190757,completion,,,,,false,,,,509273.40000009537,509273.30000019073,504709.622,504885.90000009537,504726.339,509118.228,8,400,,,
trial,html.Screen,4_79_0,2023-09-11T19:12:37.890Z,,0,2,,6014.771999999997,response,ISIC_2293230.JPG,5,ISIC_8535943.JPG,ISIC_2293230.JPG,false,1,keypress(m),500,515133.40000009537,515133,509101.522,509273.5,509118.228,514979.604,8,400,30,,ISIC_8535943.JPG
break,html.Screen,4_79_1,2023-09-11T19:12:37.890Z,,0,,,NaN,,,,,,false,,,,515134.40000009537,515134.09999990463,,515133.80000019073,,514979.604,8,400,,,
break_continue,html.Screen,4_79_2,2023-09-11T19:12:37.891Z,,0,,,NaN,,,,,,false,,,,515134.69999980927,515134.59999990463,,515134.40000009537,,514979.604,8,400,,,
sequence,flow.Sequence,4_79,2023-09-11T19:12:37.891Z,,0,,,6016.37199990463,completion,,,,,false,,,,515134.80000019073,515134.59999990463,509101.522,509273.5,509118.228,514979.604,8,400,,,
trial,html.Screen,4_80_0,2023-09-11T19:12:42.710Z,,0,2,,4974.396000000008,response,ISIC_0065039.JPG,6,ISIC_9696502.JPG,ISIC_0065039.JPG,false,1,keypress(m),500,519954.09999990463,519954,514963.144,515134.90000009537,514979.604,519788.979,8,400,31,,ISIC_9696502.JPG
break,html.Screen,4_80_1,2023-09-11T19:12:42.711Z,,0,,,NaN,,,,,,false,,,,519954.80000019073,519954.5,,519954.19999980927,,519788.979,8,400,,,
break_continue,html.Screen,4_80_2,2023-09-11T19:12:42.711Z,,0,,,NaN,,,,,,false,,,,519955.19999980927,519955.09999990463,,519954.90000009537,,519788.979,8,400,,,
sequence,flow.Sequence,4_80,2023-09-11T19:12:42.711Z,,0,,,4975.4959999046405,completion,,,,,false,,,,519955.30000019073,519955.09999990463,514963.144,515134.90000009537,514979.604,519788.979,8,400,,,
trial,html.Screen,4_81_0,2023-09-11T19:12:48.233Z,,0,2,,5688.1209999046405,response,ISIC_8671662.JPG,6,ISIC_0028755.JPG,ISIC_8671662.JPG,false,1,keypress(m),500,525477.1999998093,525477.0999999046,519772.38,519955.30000019073,519788.979,525316.395,8,400,32,,ISIC_0028755.JPG
break,html.Screen,4_81_1,2023-09-11T19:12:48.234Z,,0,,,NaN,,,,,,false,,,,525477.5999999046,525477.5,,525477.3000001907,,525316.395,8,400,,,
break_continue,html.Screen,4_81_2,2023-09-11T19:12:48.234Z,,0,,,NaN,,,,,,false,,,,525477.9000000954,525477.8000001907,,525477.6999998093,,525316.395,8,400,,,
sequence,flow.Sequence,4_81,2023-09-11T19:12:48.234Z,,0,,,5688.821000190743,completion,,,,,false,,,,525477.9000000954,525477.8000001907,519772.38,519955.30000019073,519788.979,525316.395,8,400,,,
trial,html.Screen,4_82_0,2023-09-11T19:12:52.267Z,,0,2,,4194.704999904614,response,ISIC_0010306.JPG,5,ISIC_0014117.JPG,ISIC_0010306.JPG,false,1,keypress(m),500,529511.3000001907,529511.0999999046,525299.828,525478,525316.395,529357.8,8,400,33,,ISIC_0014117.JPG
break,html.Screen,4_82_1,2023-09-11T19:12:52.268Z,,0,,,NaN,,,,,,false,,,,529511.9000000954,529511.8000001907,,529511.5999999046,,529357.8,8,400,,,
break_continue,html.Screen,4_82_2,2023-09-11T19:12:52.268Z,,0,,,NaN,,,,,,false,,,,529512.0999999046,529512,,529512,,529357.8,8,400,,,
sequence,flow.Sequence,4_82,2023-09-11T19:12:52.268Z,,0,,,4195.604999999981,completion,,,,,false,,,,529512.0999999046,529512,525299.828,525478,525316.395,529357.8,8,400,,,
trial,html.Screen,4_83_0,2023-09-11T19:12:55.839Z,,0,2,,3724.6999999999534,response,ISIC_8353090.JPG,4,ISIC_0958701.JPG,ISIC_0958701.JPG,false,0,keypress(z),500,533082.6999998093,533082.5,529341.092,529512.1999998093,529357.8,532914.547,8,400,34,,ISIC_8353090.JPG
break,html.Screen,4_83_1,2023-09-11T19:12:55.839Z,,0,,,NaN,,,,,,false,,,,533083.3000001907,533083.0999999046,,533082.8000001907,,532914.547,8,400,,,
break_continue,html.Screen,4_83_2,2023-09-11T19:12:55.840Z,,0,,,NaN,,,,,,false,,,,533083.5999999046,533083.5,,533083.4000000954,,532914.547,8,400,,,
sequence,flow.Sequence,4_83,2023-09-11T19:12:55.840Z,,0,,,3725.6999999999534,completion,,,,,false,,,,533083.6999998093,533083.5,529341.092,529512.1999998093,529357.8,532914.547,8,400,,,
trial,html.Screen,4_84_0,2023-09-11T19:13:02.809Z,,0,2,,7136.753000190714,response,ISIC_1658623.JPG,6,ISIC_0015938.JPG,ISIC_1658623.JPG,false,1,keypress(m),500,540051.5999999046,540051.3000001907,532897.864,533083.8000001907,532914.547,539894.812,8,400,35,,ISIC_0015938.JPG
break,html.Screen,4_84_1,2023-09-11T19:13:02.810Z,,0,,,NaN,,,,,,false,,,,540053.1999998093,540052.5999999046,,540051.8000001907,,539894.812,8,400,,,
break_continue,html.Screen,4_84_2,2023-09-11T19:13:02.811Z,,0,,,NaN,,,,,,false,,,,540054.0999999046,540053.9000000954,,540053.4000000954,,539894.812,8,400,,,
sequence,flow.Sequence,4_84,2023-09-11T19:13:02.812Z,,0,,,7139.353000095347,completion,,,,,false,,,,540054.3000001907,540053.9000000954,532897.864,533083.8000001907,532914.547,539894.812,8,400,,,
trial,html.Screen,4_85_0,2023-09-11T19:13:08.126Z,,0,2,,5474.287999904598,response,ISIC_3519679.JPG,5,ISIC_0026347.JPG,ISIC_3519679.JPG,false,1,keypress(m),500,545369.1999998093,545369.0999999046,539878.084,540054.5999999046,539894.812,545205.108,8,400,36,,ISIC_0026347.JPG
break,html.Screen,4_85_1,2023-09-11T19:13:08.127Z,,0,,,NaN,,,,,,false,,,,545369.5999999046,545369.5,,545369.3000001907,,545205.108,8,400,,,
break_continue,html.Screen,4_85_2,2023-09-11T19:13:08.127Z,,0,,,NaN,,,,,,false,,,,545369.8000001907,545369.8000001907,,545369.8000001907,,545205.108,8,400,,,
sequence,flow.Sequence,4_85,2023-09-11T19:13:08.127Z,,0,,,5474.9880001907,completion,,,,,false,,,,545369.9000000954,545369.8000001907,539878.084,540054.5,539894.812,545205.108,8,400,,,
trial,html.Screen,4_86_0,2023-09-11T19:13:15.828Z,,0,2,,7865.391999999993,response,ISIC_7927525.JPG,4,ISIC_3207651.JPG,ISIC_3207651.JPG,false,0,keypress(z),500,553070.6999998093,553070.5,545188.615,545369.9000000954,545205.108,552903.399,8,400,37,,ISIC_7927525.JPG
break,html.Screen,4_86_1,2023-09-11T19:13:15.829Z,,0,,,NaN,,,,,,false,,,,553071.3000001907,553071.0999999046,,553070.8000001907,,552903.399,8,400,,,
break_continue,html.Screen,4_86_2,2023-09-11T19:13:15.829Z,,0,,,NaN,,,,,,false,,,,553071.5,553071.5,,553071.3000001907,,552903.399,8,400,,,
sequence,flow.Sequence,4_86,2023-09-11T19:13:15.829Z,,0,,,7866.391999999993,completion,,,,,false,,,,553071.5999999046,553071.5,545188.615,545369.9000000954,545205.108,552903.399,8,400,,,
trial,html.Screen,4_87_0,2023-09-11T19:13:22.503Z,,0,2,,6841.800999809289,response,ISIC_0025579.JPG,5,ISIC_0013688.JPG,ISIC_0013688.JPG,false,0,keypress(z),500,559745.3000001907,559745.1999998093,552886.764,553071.6999998093,552903.399,559583.071,8,400,38,,ISIC_0025579.JPG
break,html.Screen,4_87_1,2023-09-11T19:13:22.503Z,,0,,,NaN,,,,,,false,,,,559745.8000001907,559745.5999999046,,559745.4000000954,,559583.071,8,400,,,
break_continue,html.Screen,4_87_2,2023-09-11T19:13:22.503Z,,0,,,NaN,,,,,,false,,,,559745.9000000954,559745.9000000954,,559745.8000001907,,559583.071,8,400,,,
sequence,flow.Sequence,4_87,2023-09-11T19:13:22.503Z,,0,,,6842.501000095392,completion,,,,,false,,,,559746,559745.9000000954,552886.764,553071.5999999046,552903.399,559583.071,8,400,,,
trial,html.Screen,4_88_0,2023-09-11T19:13:26.969Z,,0,2,,4628.329000095371,response,ISIC_8412096.JPG,5,ISIC_6595186.JPG,ISIC_8412096.JPG,false,1,keypress(m),500,564211.5,564211.4000000954,559566.434,559746.0999999046,559583.071,564075.215,8,400,39,,ISIC_6595186.JPG
break,html.Screen,4_88_1,2023-09-11T19:13:26.969Z,,0,,,NaN,,,,,,false,,,,564212.1999998093,564211.9000000954,,564211.5999999046,,564075.215,8,400,,,
break_continue,html.Screen,4_88_2,2023-09-11T19:13:26.970Z,,0,,,NaN,,,,,,false,,,,564212.6999998093,564212.5999999046,,564212.4000000954,,564075.215,8,400,,,
sequence,flow.Sequence,4_88,2023-09-11T19:13:26.970Z,,0,,,4629.528999904636,completion,,,,,false,,,,564212.8000001907,564212.5999999046,559566.434,559746.0999999046,559583.071,564075.215,8,400,,,
trial,html.Screen,4_89_0,2023-09-11T19:13:35.295Z,,0,2,,8462.1850000954,response,ISIC_4781169.JPG,6,ISIC_0027749.JPG,ISIC_0027749.JPG,false,0,keypress(z),500,572537.5,572537.4000000954,564058.566,564212.8000001907,564075.215,572374.732,8,400,40,,ISIC_4781169.JPG
break,html.Screen,4_89_1,2023-09-11T19:13:35.295Z,,0,,,NaN,,,,,,false,,,,572538.0999999046,572537.9000000954,,572537.5999999046,,572374.732,8,400,,,
break_continue,html.Screen,4_89_2,2023-09-11T19:13:35.296Z,,0,,,NaN,,,,,,false,,,,572538.4000000954,572538.3000001907,,572538.1999998093,,572374.732,8,400,,,
sequence,flow.Sequence,4_89,2023-09-11T19:13:35.296Z,,0,,,8463.085000190767,completion,,,,,false,,,,572538.5,572538.3000001907,564058.566,564212.8000001907,564075.215,572374.732,8,400,,,
trial,html.Screen,4_90_0,2023-09-11T19:13:40.312Z,,0,2,,5179.967999809305,response,ISIC_0033341.JPG,4,ISIC_1473511.JPG,ISIC_1473511.JPG,false,0,keypress(z),500,577554.8000001907,577554.6999998093,572358.037,572538.5999999046,572374.732,577401.118,8,400,41,,ISIC_0033341.JPG
break,html.Screen,4_90_1,2023-09-11T19:13:40.312Z,,0,,,NaN,,,,,,false,,,,577555.1999998093,577555.0999999046,,577554.9000000954,,577401.118,8,400,,,
break_continue,html.Screen,4_90_2,2023-09-11T19:13:40.313Z,,0,,,NaN,,,,,,false,,,,577555.4000000954,577555.4000000954,,577555.1999998093,,577401.118,8,400,,,
sequence,flow.Sequence,4_90,2023-09-11T19:13:40.313Z,,0,,,5180.6680000954075,completion,,,,,false,,,,577555.5,577555.4000000954,572358.037,572538.5999999046,572374.732,577401.118,8,400,,,
trial,html.Screen,4_91_0,2023-09-11T19:13:45.633Z,,0,2,,5474.782000095351,response,ISIC_3529778.JPG,6,ISIC_0028612.JPG,ISIC_3529778.JPG,false,1,keypress(m),500,582876,582875.9000000954,577384.423,577555.5,577401.118,582711.431,8,400,42,,ISIC_0028612.JPG
break,html.Screen,4_91_1,2023-09-11T19:13:45.634Z,,0,,,NaN,,,,,,false,,,,582877.1999998093,582876.8000001907,,582876.3000001907,,582711.431,8,400,,,
break_continue,html.Screen,4_91_2,2023-09-11T19:13:45.635Z,,0,,,NaN,,,,,,false,,,,582877.9000000954,582877.8000001907,,582877.4000000954,,582711.431,8,400,,,
sequence,flow.Sequence,4_91,2023-09-11T19:13:45.635Z,,0,,,5476.682000190718,completion,,,,,false,,,,582878.0999999046,582877.8000001907,577384.423,577555.5,577401.118,582711.431,8,400,,,
trial,html.Screen,4_92_0,2023-09-11T19:13:49.532Z,,0,2,,4063.768999809283,response,ISIC_2136533.JPG,5,ISIC_3328295.JPG,ISIC_3328295.JPG,false,0,keypress(z),500,586775.1999998093,586775.1999998093,582694.844,582878.3000001907,582711.431,586619.116,8,400,43,,ISIC_2136533.JPG
break,html.Screen,4_92_1,2023-09-11T19:13:49.533Z,,0,,,NaN,,,,,,false,,,,586775.5999999046,586775.5999999046,,586775.3000001907,,586619.116,8,400,,,
break_continue,html.Screen,4_92_2,2023-09-11T19:13:49.533Z,,0,,,NaN,,,,,,false,,,,586775.8000001907,586775.6999998093,,586775.6999998093,,586619.116,8,400,,,
sequence,flow.Sequence,4_92,2023-09-11T19:13:49.533Z,,0,,,4064.268999809283,completion,,,,,false,,,,586775.9000000954,586775.6999998093,582694.844,582878.1999998093,582711.431,586619.116,8,400,,,
trial,html.Screen,4_93_0,2023-09-11T19:13:53.603Z,,0,2,,4226.184000190697,response,ISIC_9029813.JPG,5,ISIC_9079361.JPG,ISIC_9029813.JPG,false,1,keypress(m),500,590845.5,590845.3000001907,586602.375,586775.9000000954,586619.116,590676.915,8,400,44,,ISIC_9079361.JPG
break,html.Screen,4_93_1,2023-09-11T19:13:53.603Z,,0,,,NaN,,,,,,false,,,,590846,590845.8000001907,,590845.5999999046,,590676.915,8,400,,,
break_continue,html.Screen,4_93_2,2023-09-11T19:13:53.603Z,,0,,,NaN,,,,,,false,,,,590846.0999999046,590846,,590846,,590676.915,8,400,,,
sequence,flow.Sequence,4_93,2023-09-11T19:13:53.603Z,,0,,,4226.883999999962,completion,,,,,false,,,,590846.1999998093,590846,586602.375,586775.9000000954,586619.116,590676.915,8,400,,,
trial,html.Screen,4_94_0,2023-09-11T19:13:58.807Z,,0,2,,5372.885000190698,response,ISIC_0034162.JPG,4,ISIC_8169564.JPG,ISIC_8169564.JPG,false,0,keypress(z),500,596049.9000000954,596049.8000001907,590660.36,590846.3000001907,590676.915,595887.08,8,400,45,,ISIC_0034162.JPG
break,html.Screen,4_94_1,2023-09-11T19:13:58.808Z,,0,,,NaN,,,,,,false,,,,596050.5,596050.3000001907,,596050,,595887.08,8,400,,,
break_continue,html.Screen,4_94_2,2023-09-11T19:13:58.808Z,,0,,,NaN,,,,,,false,,,,596050.6999998093,596050.5999999046,,596050.5999999046,,595887.08,8,400,,,
sequence,flow.Sequence,4_94,2023-09-11T19:13:58.808Z,,0,,,5373.684999904595,completion,,,,,false,,,,596050.9000000954,596050.5999999046,590660.36,590846.3000001907,590676.915,595887.08,8,400,,,
trial,html.Screen,4_95_0,2023-09-11T19:14:03.514Z,,0,2,,4869.0199999046745,response,ISIC_0060656.JPG,5,ISIC_5789263.JPG,ISIC_5789263.JPG,false,0,keypress(z),500,600756.0999999046,600756.0999999046,595870.547,596050.9000000954,595887.08,600596.339,8,400,46,,ISIC_0060656.JPG
break,html.Screen,4_95_1,2023-09-11T19:14:03.514Z,,0,,,NaN,,,,,,false,,,,600756.5,600756.4000000954,,600756.1999998093,,600596.339,8,400,,,
break_continue,html.Screen,4_95_2,2023-09-11T19:14:03.515Z,,0,,,NaN,,,,,,false,,,,600756.6999998093,600756.5999999046,,600756.5999999046,,600596.339,8,400,,,
sequence,flow.Sequence,4_95,2023-09-11T19:14:03.515Z,,0,,,4869.5199999046745,completion,,,,,false,,,,600756.8000001907,600756.5999999046,595870.547,596050.9000000954,595887.08,600596.339,8,400,,,
trial,html.Screen,4_96_0,2023-09-11T19:14:08.316Z,,0,2,,4962.061000095331,response,ISIC_4654965.JPG,6,ISIC_2027392.JPG,ISIC_4654965.JPG,false,1,keypress(m),500,605558.5,605558.4000000954,600579.59,600756.8000001907,600596.339,605388.886,8,400,47,,ISIC_2027392.JPG
break,html.Screen,4_96_1,2023-09-11T19:14:08.317Z,,0,,,NaN,,,,,,false,,,,605558.9000000954,605558.8000001907,,605558.5999999046,,605388.886,8,400,,,
break_continue,html.Screen,4_96_2,2023-09-11T19:14:08.317Z,,0,,,NaN,,,,,,false,,,,605559.0999999046,605559,,605559,,605388.886,8,400,,,
sequence,flow.Sequence,4_96,2023-09-11T19:14:08.317Z,,0,,,4962.660999999964,completion,,,,,false,,,,605559.1999998093,605559,600579.59,600756.8000001907,600596.339,605388.886,8,400,,,
trial,html.Screen,4_97_0,2023-09-11T19:14:13.521Z,,0,2,,5373.813999809208,response,ISIC_0014541.JPG,5,ISIC_0002774.JPG,ISIC_0002774.JPG,false,0,keypress(z),500,610762.9000000954,610762.6999998093,605372.33,605559.1999998093,605388.886,610615.813,8,400,48,,ISIC_0014541.JPG
break,html.Screen,4_97_1,2023-09-11T19:14:13.521Z,,0,,,NaN,,,,,,false,,,,610763.3000001907,610763.1999998093,,610763,,610615.813,8,400,,,
break_continue,html.Screen,4_97_2,2023-09-11T19:14:13.521Z,,0,,,NaN,,,,,,false,,,,610763.5999999046,610763.5,,610763.4000000954,,610615.813,8,400,,,
sequence,flow.Sequence,4_97,2023-09-11T19:14:13.521Z,,0,,,5374.613999999943,completion,,,,,false,,,,610763.5999999046,610763.5,605372.33,605559.1999998093,605388.886,610615.813,8,400,,,
trial,html.Screen,4_98_0,2023-09-11T19:14:19.448Z,,0,2,,6073.987000190769,response,ISIC_7570343.JPG,5,ISIC_6497135.JPG,ISIC_7570343.JPG,false,1,keypress(m),500,616690,616689.8000001907,610599.033,610763.6999998093,610615.813,616527.326,8,400,49,,ISIC_6497135.JPG
break,html.Screen,4_98_1,2023-09-11T19:14:19.448Z,,0,,,NaN,,,,,,false,,,,616690.3000001907,616690.1999998093,,616690,,616527.326,8,400,,,
break_continue,html.Screen,4_98_2,2023-09-11T19:14:19.448Z,,0,,,NaN,,,,,,false,,,,616690.5,616690.5,,616690.4000000954,,616527.326,8,400,,,
sequence,flow.Sequence,4_98,2023-09-11T19:14:19.448Z,,0,,,6074.6870000000345,completion,,,,,false,,,,616690.5999999046,616690.5,610599.033,610763.6999998093,610615.813,616527.326,8,400,,,
trial,html.Screen,4_99_0,2023-09-11T19:14:25.561Z,,0,2,,6275.974000190734,response,ISIC_0054025.JPG,5,ISIC_5015378.JPG,ISIC_5015378.JPG,false,0,keypress(z),500,622803.4000000954,622803.3000001907,616510.629,616690.6999998093,616527.326,622639.205,8,400,50,,ISIC_0054025.JPG
break,html.Screen,4_99_1,2023-09-11T19:14:35.412Z,,0,,,9852.683000000077,timeout,,,,,false,,,,632654.4000000954,632654.0999999046,622622.422,622803.5,622639.205,632491.888,8,400,,,
break_continue,html.Screen,4_99_2,2023-09-11T19:14:38.503Z,,0,,,3235.9120001906995,response,,,,,false,continue,keypress(Space),,635745.3000001907,635727.8000001907,632654.0999999046,632654.6999998093,632491.888,635581.095,8,400,,,
sequence,flow.Sequence,4_99,2023-09-11T19:14:38.503Z,,0,,,19200.474000190734,completion,,,,,false,,,,635745.4000000954,635727.8000001907,616510.629,616690.6999998093,616527.326,635581.095,8,400,,,
trial,html.Screen,4_100_0,2023-09-11T19:14:42.921Z,,0,3,,4581.5049999046605,response,ISIC_4699989.JPG,5,ISIC_5490352.JPG,ISIC_4699989.JPG,false,1,keypress(m),500,640162.8000001907,640162.5999999046,635564.406,635745.5,635581.095,640006.286,8,400,1,,ISIC_5490352.JPG
break,html.Screen,4_100_1,2023-09-11T19:14:42.921Z,,0,,,NaN,,,,,,false,,,,640163.4000000954,640163.1999998093,,640162.9000000954,,640006.286,8,400,,,
break_continue,html.Screen,4_100_2,2023-09-11T19:14:42.921Z,,0,,,NaN,,,,,,false,,,,640163.5999999046,640163.5,,640163.5,,640006.286,8,400,,,
sequence,flow.Sequence,4_100,2023-09-11T19:14:42.922Z,,0,,,4582.405000000028,completion,,,,,false,,,,640163.8000001907,640163.5,635564.406,635745.5,635581.095,640006.286,8,400,,,
trial,html.Screen,4_101_0,2023-09-11T19:14:46.835Z,,0,3,,4070.813999904669,response,ISIC_0026659.JPG,5,ISIC_9029813.JPG,ISIC_9029813.JPG,false,0,keypress(z),500,644077.1999998093,644077.0999999046,639989.571,640163.9000000954,640006.286,643913.882,8,400,2,,ISIC_0026659.JPG
break,html.Screen,4_101_1,2023-09-11T19:14:46.836Z,,0,,,NaN,,,,,,false,,,,644077.8000001907,644077.6999998093,,644077.3000001907,,643913.882,8,400,,,
break_continue,html.Screen,4_101_2,2023-09-11T19:14:46.836Z,,0,,,NaN,,,,,,false,,,,644078.0999999046,644078.0999999046,,644077.9000000954,,643913.882,8,400,,,
sequence,flow.Sequence,4_101,2023-09-11T19:14:46.836Z,,0,,,4071.813999904669,completion,,,,,false,,,,644078.3000001907,644078.0999999046,639989.571,640163.9000000954,640006.286,643913.882,8,400,,,
trial,html.Screen,4_102_0,2023-09-11T19:14:51.226Z,,0,3,,4554.317999809282,response,ISIC_0065796.JPG,5,ISIC_0061021.JPG,ISIC_0065796.JPG,false,1,keypress(m),500,648468.5,648468.1999998093,643897.214,644078.3000001907,643913.882,648305.847,8,400,3,,ISIC_0061021.JPG
break,html.Screen,4_102_1,2023-09-11T19:14:51.228Z,,0,,,NaN,,,,,,false,,,,648470.3000001907,648469.8000001907,,648469,,648305.847,8,400,,,
break_continue,html.Screen,4_102_2,2023-09-11T19:14:51.229Z,,0,,,NaN,,,,,,false,,,,648471.0999999046,648470.9000000954,,648470.5999999046,,648305.847,8,400,,,
sequence,flow.Sequence,4_102,2023-09-11T19:14:51.229Z,,0,,,4557.018000095384,completion,,,,,false,,,,648471.4000000954,648470.9000000954,643897.214,644078.3000001907,643913.882,648305.847,8,400,,,
trial,html.Screen,4_103_0,2023-09-11T19:14:55.569Z,,0,3,,4505.553000095417,response,ISIC_0024980.JPG,5,ISIC_0032780.JPG,ISIC_0024980.JPG,false,1,keypress(m),500,652811.5999999046,652811.4000000954,648289.207,648471.6999998093,648305.847,652647.61,8,400,4,,ISIC_0032780.JPG
break,html.Screen,4_103_1,2023-09-11T19:14:55.570Z,,0,,,NaN,,,,,,false,,,,652812,652811.9000000954,,652811.6999998093,,652647.61,8,400,,,
break_continue,html.Screen,4_103_2,2023-09-11T19:14:55.570Z,,0,,,NaN,,,,,,false,,,,652812.3000001907,652812.3000001907,,652812.0999999046,,652647.61,8,400,,,
sequence,flow.Sequence,4_103,2023-09-11T19:14:55.570Z,,0,,,4506.453000190784,completion,,,,,false,,,,652812.3000001907,652812.3000001907,648289.207,648471.5999999046,648305.847,652647.61,8,400,,,
trial,html.Screen,4_104_0,2023-09-11T19:14:59.507Z,,0,3,,4101.690000190749,response,ISIC_0059065.JPG,4,ISIC_0027596.JPG,ISIC_0027596.JPG,false,0,keypress(z),500,656749.4000000954,656749.3000001907,652630.842,652812.4000000954,652647.61,656588.623,8,400,5,,ISIC_0059065.JPG
break,html.Screen,4_104_1,2023-09-11T19:14:59.508Z,,0,,,NaN,,,,,,false,,,,656749.9000000954,656749.9000000954,,656749.5999999046,,656588.623,8,400,,,
break_continue,html.Screen,4_104_2,2023-09-11T19:14:59.508Z,,0,,,NaN,,,,,,false,,,,656750.1999998093,656750.0999999046,,656750.0999999046,,656588.623,8,400,,,
sequence,flow.Sequence,4_104,2023-09-11T19:14:59.508Z,,0,,,4102.4899999046465,completion,,,,,false,,,,656750.1999998093,656750.0999999046,652630.842,652812.4000000954,652647.61,656588.623,8,400,,,
trial,html.Screen,4_105_0,2023-09-11T19:15:03.660Z,,0,3,,4312.476999904611,response,ISIC_0033980.JPG,6,ISIC_9187876.JPG,ISIC_9187876.JPG,false,0,keypress(z),500,660901.0999999046,660901.0999999046,656571.923,656750.3000001907,656588.623,660746.798,8,400,6,,ISIC_0033980.JPG
break,html.Screen,4_105_1,2023-09-11T19:15:03.661Z,,0,,,NaN,,,,,,false,,,,660901.8000001907,660901.5999999046,,660901.3000001907,,660746.798,8,400,,,
break_continue,html.Screen,4_105_2,2023-09-11T19:15:03.661Z,,0,,,NaN,,,,,,false,,,,660902.0999999046,660902.0999999046,,660901.9000000954,,660746.798,8,400,,,
sequence,flow.Sequence,4_105,2023-09-11T19:15:03.661Z,,0,,,4313.476999904611,completion,,,,,false,,,,660902.1999998093,660902.0999999046,656571.923,656750.3000001907,656588.623,660746.798,8,400,,,
trial,html.Screen,4_106_0,2023-09-11T19:15:07.374Z,,0,3,,3868.0020001907833,response,ISIC_9788174.JPG,6,ISIC_1216201.JPG,ISIC_1216201.JPG,false,0,keypress(z),500,664615,664614.8000001907,660730.016,660902.1999998093,660746.798,664453.908,8,400,7,,ISIC_9788174.JPG
break,html.Screen,4_106_1,2023-09-11T19:15:07.375Z,,0,,,NaN,,,,,,false,,,,664615.5999999046,664615.4000000954,,664615.0999999046,,664453.908,8,400,,,
break_continue,html.Screen,4_106_2,2023-09-11T19:15:07.375Z,,0,,,NaN,,,,,,false,,,,664615.9000000954,664615.9000000954,,664615.6999998093,,664453.908,8,400,,,
sequence,flow.Sequence,4_106,2023-09-11T19:15:07.375Z,,0,,,3869.102000095416,completion,,,,,false,,,,664616,664615.9000000954,660730.016,660902.1999998093,660746.798,664453.908,8,400,,,
trial,html.Screen,4_107_0,2023-09-11T19:15:12.820Z,,0,3,,5606.591999999946,response,ISIC_0032995.JPG,5,ISIC_7959386.JPG,ISIC_7959386.JPG,false,0,keypress(z),500,670060.8000001907,670060.5,664437.142,664616.0999999046,664453.908,669897.781,8,400,8,,ISIC_0032995.JPG
break,html.Screen,4_107_1,2023-09-11T19:15:12.822Z,,0,,,NaN,,,,,,false,,,,670062.4000000954,670062,,670061.0999999046,,669897.781,8,400,,,
break_continue,html.Screen,4_107_2,2023-09-11T19:15:12.823Z,,0,,,NaN,,,,,,false,,,,670063.3000001907,670063.0999999046,,670062.6999998093,,669897.781,8,400,,,
sequence,flow.Sequence,4_107,2023-09-11T19:15:12.823Z,,0,,,5609.191999904579,completion,,,,,false,,,,670063.6999998093,670063.0999999046,664437.142,664616.0999999046,664453.908,669897.781,8,400,,,
trial,html.Screen,4_108_0,2023-09-11T19:15:17.087Z,,0,3,,4429.418999809306,response,ISIC_3624318.JPG,4,ISIC_9527051.JPG,ISIC_3624318.JPG,false,1,keypress(m),500,674327.3000001907,674327.1999998093,669881.215,670064,669897.781,674172.787,8,400,9,,ISIC_9527051.JPG
break,html.Screen,4_108_1,2023-09-11T19:15:17.087Z,,0,,,NaN,,,,,,false,,,,674327.8000001907,674327.6999998093,,674327.4000000954,,674172.787,8,400,,,
break_continue,html.Screen,4_108_2,2023-09-11T19:15:17.087Z,,0,,,NaN,,,,,,false,,,,674328,674328,,674327.8000001907,,674172.787,8,400,,,
sequence,flow.Sequence,4_108,2023-09-11T19:15:17.087Z,,0,,,4430.219000000041,completion,,,,,false,,,,674328.0999999046,674328,669881.215,670063.9000000954,669897.781,674172.787,8,400,,,
trial,html.Screen,4_109_0,2023-09-11T19:15:21.809Z,,0,3,,4877.013000190724,response,ISIC_0006850.JPG,4,ISIC_6356522.JPG,ISIC_0006850.JPG,false,1,keypress(m),500,679049.8000001907,679049.8000001907,674156.019,674328.1999998093,674172.787,678881.928,8,400,10,,ISIC_6356522.JPG
break,html.Screen,4_109_1,2023-09-11T19:15:21.810Z,,0,,,NaN,,,,,,false,,,,679050.4000000954,679050.1999998093,,679050,,678881.928,8,400,,,
break_continue,html.Screen,4_109_2,2023-09-11T19:15:21.810Z,,0,,,NaN,,,,,,false,,,,679050.8000001907,679050.6999998093,,679050.5,,678881.928,8,400,,,
sequence,flow.Sequence,4_109,2023-09-11T19:15:21.810Z,,0,,,4877.912999809254,completion,,,,,false,,,,679050.9000000954,679050.6999998093,674156.019,674328.1999998093,674172.787,678881.928,8,400,,,
trial,html.Screen,4_110_0,2023-09-11T19:15:25.636Z,,0,3,,3994.271999809309,response,ISIC_5807112.JPG,6,ISIC_4554863.JPG,ISIC_5807112.JPG,false,1,keypress(m),500,682876.5,682876.1999998093,678865.301,679051,678881.928,682722.874,8,400,11,,ISIC_4554863.JPG
break,html.Screen,4_110_1,2023-09-11T19:15:25.637Z,,0,,,NaN,,,,,,false,,,,682877.3000001907,682877.0999999046,,682876.6999998093,,682722.874,8,400,,,
break_continue,html.Screen,4_110_2,2023-09-11T19:15:25.637Z,,0,,,NaN,,,,,,false,,,,682877.5999999046,682877.5,,682877.4000000954,,682722.874,8,400,,,
sequence,flow.Sequence,4_110,2023-09-11T19:15:25.637Z,,0,,,3995.5720000000438,completion,,,,,false,,,,682877.5999999046,682877.5,678865.301,679051,678881.928,682722.874,8,400,,,
trial,html.Screen,4_111_0,2023-09-11T19:15:29.384Z,,0,3,,3901.6260000000475,response,ISIC_6590303.JPG,5,ISIC_0046441.JPG,ISIC_6590303.JPG,false,1,keypress(m),500,686624.6999998093,686624.5,682706.118,682877.6999998093,682722.874,686463.32,8,400,12,,ISIC_0046441.JPG
break,html.Screen,4_111_1,2023-09-11T19:15:29.384Z,,0,,,NaN,,,,,,false,,,,686625.1999998093,686625,,686624.8000001907,,686463.32,8,400,,,
break_continue,html.Screen,4_111_2,2023-09-11T19:15:29.385Z,,0,,,NaN,,,,,,false,,,,686625.4000000954,686625.3000001907,,686625.1999998093,,686463.32,8,400,,,
sequence,flow.Sequence,4_111,2023-09-11T19:15:29.385Z,,0,,,3902.4260001907824,completion,,,,,false,,,,686625.4000000954,686625.3000001907,682706.118,682877.5999999046,682722.874,686463.32,8,400,,,
trial,html.Screen,4_112_0,2023-09-11T19:15:35.066Z,,0,3,,5843.080000095419,response,ISIC_6640753.JPG,5,ISIC_0011305.JPG,ISIC_6640753.JPG,false,1,keypress(m),500,692306.5999999046,692306.4000000954,686446.682,686625.5,686463.32,692141.065,8,400,13,,ISIC_0011305.JPG
break,html.Screen,4_112_1,2023-09-11T19:15:35.066Z,,0,,,NaN,,,,,,false,,,,692307,692306.9000000954,,692306.5999999046,,692141.065,8,400,,,
break_continue,html.Screen,4_112_2,2023-09-11T19:15:35.066Z,,0,,,NaN,,,,,,false,,,,692307.1999998093,692307.0999999046,,692307,,692141.065,8,400,,,
sequence,flow.Sequence,4_112,2023-09-11T19:15:35.067Z,,0,,,5843.779999904684,completion,,,,,false,,,,692307.1999998093,692307.0999999046,686446.682,686625.5,686463.32,692141.065,8,400,,,
trial,html.Screen,4_113_0,2023-09-11T19:15:39.532Z,,0,3,,4631.235000190791,response,ISIC_2147549.JPG,5,ISIC_5883331.JPG,ISIC_2147549.JPG,false,1,keypress(m),500,696772.4000000954,696772.3000001907,692124.429,692307.3000001907,692141.065,696616.519,8,400,14,,ISIC_5883331.JPG
break,html.Screen,4_113_1,2023-09-11T19:15:39.532Z,,0,,,NaN,,,,,,false,,,,696772.9000000954,696772.6999998093,,696772.5,,696616.519,8,400,,,
break_continue,html.Screen,4_113_2,2023-09-11T19:15:39.533Z,,0,,,NaN,,,,,,false,,,,696773.4000000954,696773.1999998093,,696773,,696616.519,8,400,,,
sequence,flow.Sequence,4_113,2023-09-11T19:15:39.533Z,,0,,,4632.134999809321,completion,,,,,false,,,,696773.4000000954,696773.1999998093,692124.429,692307.1999998093,692141.065,696616.519,8,400,,,
trial,html.Screen,4_114_0,2023-09-11T19:15:44.142Z,,0,3,,4765.781000190764,response,ISIC_0014392.JPG,5,ISIC_7594601.JPG,ISIC_7594601.JPG,false,0,keypress(z),500,701382.5,701382.3000001907,696599.895,696773.5,696616.519,701225.364,8,400,15,,ISIC_0014392.JPG
break,html.Screen,4_114_1,2023-09-11T19:15:44.143Z,,0,,,NaN,,,,,,false,,,,701383.1999998093,701382.9000000954,,701382.5999999046,,701225.364,8,400,,,
break_continue,html.Screen,4_114_2,2023-09-11T19:15:44.143Z,,0,,,NaN,,,,,,false,,,,701383.5,701383.3000001907,,701383.3000001907,,701225.364,8,400,,,
sequence,flow.Sequence,4_114,2023-09-11T19:15:44.143Z,,0,,,4766.781000190764,completion,,,,,false,,,,701383.5,701383.3000001907,696599.895,696773.5,696616.519,701225.364,8,400,,,
trial,html.Screen,4_115_0,2023-09-11T19:15:48.656Z,,0,3,,4670.735999904689,response,ISIC_4468148.JPG,5,ISIC_0065539.JPG,ISIC_4468148.JPG,false,1,keypress(m),500,705896.5,705896.0999999046,701208.738,701383.5999999046,701225.364,705734.194,8,400,16,,ISIC_0065539.JPG
break,html.Screen,4_115_1,2023-09-11T19:15:48.657Z,,0,,,NaN,,,,,,false,,,,705897.5999999046,705897.3000001907,,705896.8000001907,,705734.194,8,400,,,
break_continue,html.Screen,4_115_2,2023-09-11T19:15:48.657Z,,0,,,NaN,,,,,,false,,,,705898.1999998093,705898.0999999046,,705897.8000001907,,705734.194,8,400,,,
sequence,flow.Sequence,4_115,2023-09-11T19:15:48.658Z,,0,,,4672.735999904689,completion,,,,,false,,,,705898.4000000954,705898.0999999046,701208.738,701383.5999999046,701225.364,705734.194,8,400,,,
trial,html.Screen,4_116_0,2023-09-11T19:15:56.788Z,,0,3,,8294.106000190717,response,ISIC_0010306.JPG,5,ISIC_0008881.JPG,ISIC_0008881.JPG,false,0,keypress(z),500,714028.3000001907,714028.3000001907,705717.619,705898.5,705734.194,713866.751,8,400,17,,ISIC_0010306.JPG
break,html.Screen,4_116_1,2023-09-11T19:15:56.788Z,,0,,,NaN,,,,,,false,,,,714028.8000001907,714028.6999998093,,714028.5,,713866.751,8,400,,,
break_continue,html.Screen,4_116_2,2023-09-11T19:15:56.788Z,,0,,,NaN,,,,,,false,,,,714029,714028.9000000954,,714028.8000001907,,713866.751,8,400,,,
sequence,flow.Sequence,4_116,2023-09-11T19:15:56.788Z,,0,,,8294.70600009535,completion,,,,,false,,,,714029.0999999046,714028.9000000954,705717.619,705898.4000000954,705734.194,713866.751,8,400,,,
trial,html.Screen,4_117_0,2023-09-11T19:16:03.159Z,,0,3,,6531.7489999999525,response,ISIC_7620514.JPG,5,ISIC_0029906.JPG,ISIC_0029906.JPG,false,0,keypress(z),500,720398.5999999046,720398.5,713849.973,714029.0999999046,713866.751,720229.035,8,400,18,,ISIC_7620514.JPG
break,html.Screen,4_117_1,2023-09-11T19:16:03.159Z,,0,,,NaN,,,,,,false,,,,720399.1999998093,720399,,720398.6999998093,,720229.035,8,400,,,
break_continue,html.Screen,4_117_2,2023-09-11T19:16:03.160Z,,0,,,NaN,,,,,,false,,,,720399.6999998093,720399.5999999046,,720399.3000001907,,720229.035,8,400,,,
sequence,flow.Sequence,4_117,2023-09-11T19:16:03.160Z,,0,,,6532.848999904585,completion,,,,,false,,,,720399.9000000954,720399.5999999046,713849.973,714029.0999999046,713866.751,720229.035,8,400,,,
trial,html.Screen,4_118_0,2023-09-11T19:16:07.552Z,,0,3,,4562.365000095335,response,ISIC_7299650.JPG,5,ISIC_0070050.JPG,ISIC_7299650.JPG,false,1,keypress(m),500,724791.5,724791.4000000954,720212.427,720400,720229.035,724637.642,8,400,19,,ISIC_0070050.JPG
break,html.Screen,4_118_1,2023-09-11T19:16:07.552Z,,0,,,NaN,,,,,,false,,,,724792,724791.8000001907,,724791.6999998093,,724637.642,8,400,,,
break_continue,html.Screen,4_118_2,2023-09-11T19:16:07.552Z,,0,,,NaN,,,,,,false,,,,724792.1999998093,724792.0999999046,,724792,,724637.642,8,400,,,
sequence,flow.Sequence,4_118,2023-09-11T19:16:07.552Z,,0,,,4563.0649999046,completion,,,,,false,,,,724792.1999998093,724792.0999999046,720212.427,720399.9000000954,720229.035,724637.642,8,400,,,
trial,html.Screen,4_119_0,2023-09-11T19:16:11.842Z,,0,3,,4443.858000000007,response,ISIC_0010752.JPG,6,ISIC_5816399.JPG,ISIC_5816399.JPG,false,0,keypress(z),500,729081.5999999046,729081.5,724620.974,724792.1999998093,724637.642,728912.628,8,400,20,,ISIC_0010752.JPG
break,html.Screen,4_119_1,2023-09-11T19:16:11.843Z,,0,,,NaN,,,,,,false,,,,729082.3000001907,729082.0999999046,,729081.8000001907,,728912.628,8,400,,,
break_continue,html.Screen,4_119_2,2023-09-11T19:16:11.843Z,,0,,,NaN,,,,,,false,,,,729082.5999999046,729082.5999999046,,729082.5,,728912.628,8,400,,,
sequence,flow.Sequence,4_119,2023-09-11T19:16:11.843Z,,0,,,4444.95799990464,completion,,,,,false,,,,729082.9000000954,729082.5999999046,724620.974,724792.1999998093,724637.642,728912.628,8,400,,,
trial,html.Screen,4_120_0,2023-09-11T19:16:16.728Z,,0,3,,5055.4719999046065,response,ISIC_2729109.JPG,6,ISIC_6779421.JPG,ISIC_6779421.JPG,false,0,keypress(z),500,733968.1999998093,733968.0999999046,728896.004,729083,728912.628,733805.612,8,400,21,,ISIC_2729109.JPG
break,html.Screen,4_120_1,2023-09-11T19:16:16.729Z,,0,,,NaN,,,,,,false,,,,733968.9000000954,733968.6999998093,,733968.3000001907,,733805.612,8,400,,,
break_continue,html.Screen,4_120_2,2023-09-11T19:16:16.729Z,,0,,,NaN,,,,,,false,,,,733969.0999999046,733969.0999999046,,733968.9000000954,,733805.612,8,400,,,
sequence,flow.Sequence,4_120,2023-09-11T19:16:16.729Z,,0,,,5056.4719999046065,completion,,,,,false,,,,733969.1999998093,733969.0999999046,728896.004,729082.9000000954,728912.628,733805.612,8,400,,,
trial,html.Screen,4_121_0,2023-09-11T19:16:22.306Z,,0,3,,5739.5879998093005,response,ISIC_0056201.JPG,4,ISIC_8257549.JPG,ISIC_8257549.JPG,false,0,keypress(z),500,739545.5,739545.1999998093,733788.869,733969.3000001907,733805.612,739382.966,8,400,22,,ISIC_0056201.JPG
break,html.Screen,4_121_1,2023-09-11T19:16:22.307Z,,0,,,NaN,,,,,,false,,,,739546.5999999046,739546.3000001907,,739545.8000001907,,739382.966,8,400,,,
break_continue,html.Screen,4_121_2,2023-09-11T19:16:22.307Z,,0,,,NaN,,,,,,false,,,,739547.0999999046,739547,,739546.6999998093,,739382.966,8,400,,,
sequence,flow.Sequence,4_121,2023-09-11T19:16:22.308Z,,0,,,5741.388000000035,completion,,,,,false,,,,739547.3000001907,739547,733788.869,733969.3000001907,733805.612,739382.966,8,400,,,
trial,html.Screen,4_122_0,2023-09-11T19:16:28.361Z,,0,3,,6217.83400019072,response,ISIC_0033074.JPG,6,ISIC_0055498.JPG,ISIC_0033074.JPG,false,1,keypress(m),500,745600.9000000954,745600.8000001907,739366.374,739547.5,739382.966,745444.818,8,400,23,,ISIC_0055498.JPG
break,html.Screen,4_122_1,2023-09-11T19:16:28.362Z,,0,,,NaN,,,,,,false,,,,745601.3000001907,745601.3000001907,,745601,,745444.818,8,400,,,
break_continue,html.Screen,4_122_2,2023-09-11T19:16:28.362Z,,0,,,NaN,,,,,,false,,,,745601.5999999046,745601.5,,745601.4000000954,,745444.818,8,400,,,
sequence,flow.Sequence,4_122,2023-09-11T19:16:28.362Z,,0,,,6218.533999999985,completion,,,,,false,,,,745601.5999999046,745601.5,739366.374,739547.4000000954,739382.966,745444.818,8,400,,,
trial,html.Screen,4_123_0,2023-09-11T19:16:32.187Z,,0,3,,3981.4820001907647,response,ISIC_4161113.JPG,5,ISIC_0027391.JPG,ISIC_4161113.JPG,false,1,keypress(m),500,749426.5,749426.3000001907,745428.139,745601.6999998093,745444.818,749268.928,8,400,24,,ISIC_0027391.JPG
break,html.Screen,4_123_1,2023-09-11T19:16:32.187Z,,0,,,NaN,,,,,,false,,,,749427.0999999046,749426.9000000954,,749426.5999999046,,749268.928,8,400,,,
break_continue,html.Screen,4_123_2,2023-09-11T19:16:32.188Z,,0,,,NaN,,,,,,false,,,,749427.4000000954,749427.3000001907,,749427.1999998093,,749268.928,8,400,,,
sequence,flow.Sequence,4_123,2023-09-11T19:16:32.188Z,,0,,,3982.4820001907647,completion,,,,,false,,,,749427.5999999046,749427.3000001907,745428.139,745601.5999999046,745444.818,749268.928,8,400,,,
trial,html.Screen,4_124_0,2023-09-11T19:16:36.433Z,,0,3,,4403.771999809309,response,ISIC_0623284.JPG,5,ISIC_5879789.JPG,ISIC_0623284.JPG,false,1,keypress(m),500,753672.8000001907,753672.6999998093,749252.18,749427.5999999046,749268.928,753510.451,8,400,25,,ISIC_5879789.JPG
break,html.Screen,4_124_1,2023-09-11T19:16:36.434Z,,0,,,NaN,,,,,,false,,,,753673.5,753673.3000001907,,753673,,753510.451,8,400,,,
break_continue,html.Screen,4_124_2,2023-09-11T19:16:36.434Z,,0,,,NaN,,,,,,false,,,,753673.8000001907,753673.5999999046,,753673.5,,753510.451,8,400,,,
sequence,flow.Sequence,4_124,2023-09-11T19:16:36.434Z,,0,,,4404.671999904676,completion,,,,,false,,,,753673.9000000954,753673.5999999046,749252.18,749427.5999999046,749268.928,753510.451,8,400,,,
trial,html.Screen,4_125_0,2023-09-11T19:16:42.723Z,,0,3,,6452.4490000953665,response,ISIC_7066723.JPG,4,ISIC_0422299.JPG,ISIC_7066723.JPG,false,1,keypress(m),500,759963,759962.9000000954,753493.782,753673.9000000954,753510.451,759806.142,8,400,26,,ISIC_0422299.JPG
