sender,sender_type,sender_id,timestamp,meta,,blockNo,condition,duration,ended_on,img_left,img_reveal,img_right,loser,practice,response,response_action,selection_duration,time_commit,time_end,time_render,time_run,time_show,time_switch,total_blocks,total_trials,trialNo,url,winner
informed_consent,html.Screen,0,2023-09-13T15:46:01.617Z,"{""labjs_version"":""20.2.4"",""labjs_build"":{""flavor"":""development"",""commit"":""f5b4a49f956347addd546a832a3327688c2c0fef""},""location"":""https://labjs.felixhenninger.com/api/labjs_preview/index.html"",""userAgent"":""Mozilla/5.0 (Windows NT 10.0; Win64; x64) AppleWebKit/537.36 (KHTML, like Gecko) Chrome/116.0.0.0 Safari/537.36"",""platform"":""Win32"",""language"":""en-AU"",""locale"":""en-US"",""timeZone"":""America/Chicago"",""timezoneOffset"":300,""screen_width"":2560,""screen_height"":1440,""scroll_width"":1296,""scroll_height"":688,""window_innerWidth"":1296,""window_innerHeight"":736,""devicePixelRatio"":1}",,,,5296.8899999046325,response,,,,,,consent,click button,,5686.900000095367,5686.099999904633,372.598,383.69999980926514,389.21,5699.799,,,,{},
Welcome,html.Screen,1,2023-09-13T15:46:02.721Z,,,,asymmetry,1090.5010001907349,response,,,,,,continue,click button,,6790.800000190735,6790.300000190735,5682.82,5687.199999809265,5699.799,6801.776,,,,,
trial,html.Screen,2_0_0,2023-09-13T15:46:14.221Z,,0,0,,11522.300000000001,timeout,ISIC_6997061.JPG,,ISIC_0069348.JPG,,true,,,500,18291.400000095367,18291.199999809265,6785,6791,6801.776,18324.076,1,6,1,,
sequence,flow.Sequence,2_0,2023-09-13T15:46:14.222Z,,0,,,11489.423999809265,completion,,,,,true,,,,18291.599999904633,18291.199999809265,6785,6790.900000095367,6801.776,18324.076,1,6,,,
trial,html.Screen,2_1_0,2023-09-13T15:46:25.744Z,,0,0,,11522.494999999999,timeout,ISIC_0009529.JPG,,ISIC_0057368.JPG,,true,,,500,29814.099999904633,29813.800000190735,18307.42,18291.599999904633,18324.076,29846.571,1,6,2,,
sequence,flow.Sequence,2_1,2023-09-13T15:46:25.744Z,,0,,,11489.724000190734,completion,,,,,true,,,,29814.400000095367,29813.800000190735,18307.42,18291.599999904633,18324.076,29846.571,1,6,,,
trial,html.Screen,2_2_0,2023-09-13T15:46:37.268Z,,0,0,,11522.461,timeout,ISIC_0064954.JPG,,ISIC_9758671.JPG,,true,,,500,41336,41335.800000190735,29829.891,29814.699999809265,29846.571,41369.032,1,6,3,,
sequence,flow.Sequence,2_2,2023-09-13T15:46:37.268Z,,0,,,11489.229000190735,completion,,,,,true,,,,41336.300000190735,41335.800000190735,29829.891,29814.599999904633,29846.571,41369.032,1,6,,,
trial,html.Screen,2_3_0,2023-09-13T15:46:48.791Z,,0,0,,11522.432,timeout,ISIC_0005785.JPG,,ISIC_0000080.JPG,,true,,,500,52858.800000190735,52858.59999990463,41352.258,41336.5,41369.032,52891.464,1,6,4,,
sequence,flow.Sequence,2_3,2023-09-13T15:46:48.791Z,,0,,,11489.567999904633,completion,,,,,true,,,,52859.09999990463,52858.59999990463,41352.258,41336.40000009537,41369.032,52891.464,1,6,,,
trial,html.Screen,2_4_0,2023-09-13T15:46:58.618Z,,0,0,,9795.036,response,ISIC_5390060.JPG,,ISIC_7944028.JPG,ISIC_7944028.JPG,true,0,keypress(z),500,62686.699999809265,62686.5,52874.722,52859.300000190735,52891.464,62693.847,1,6,5,,ISIC_5390060.JPG
sequence,flow.Sequence,2_4,2023-09-13T15:46:58.619Z,,0,,,9795.036,completion,,,,,true,,,,62686.800000190735,62686.5,52874.722,52859.199999809265,52891.464,62693.847,1,6,,,
trial,html.Screen,2_5_0,2023-09-13T15:47:09.484Z,,0,0,,10857.953000190733,response,ISIC_0010188.JPG,,ISIC_0794216.JPG,ISIC_0794216.JPG,true,0,keypress(z),500,73551.90000009537,73551.80000019073,62677.188,62686.90000009537,62693.847,73581.742,1,6,6,,ISIC_0010188.JPG
sequence,flow.Sequence,2_5,2023-09-13T15:47:09.484Z,,0,,,10857.953000190733,completion,,,,,true,,,,73552.09999990463,73551.80000019073,62677.188,62686.90000009537,62693.847,73581.742,1,6,,,
loop,flow.Loop,2,2023-09-13T15:47:09.484Z,,,,,66750.02400019074,completion,,,,,true,,,,73552.19999980927,73551.80000019073,6785,6790.900000095367,6801.776,73581.742,1,6,,,
exp_instructions,html.Screen,3,2023-09-13T15:47:28.555Z,,,,,19041.357999904634,response,,,,,,continue,keypress(Space),,92623.40000009537,92623.09999990463,73564.973,73552.30000019073,73581.742,92652.096,,,,,
trial,html.Screen,4_0_0,2023-09-13T15:47:33.793Z,,0,1,,5209.20400019073,response,ISIC_2245709.JPG,5,ISIC_0055282.JPG,ISIC_0055282.JPG,false,0,keypress(z),500,97861.40000009537,97861.30000019073,92635.364,92623.59999990463,92652.096,97862.204,8,400,1,,ISIC_2245709.JPG
break,html.Screen,4_0_1,2023-09-13T15:47:33.794Z,,0,,,NaN,,,,,,false,,,,97861.90000009537,97861.80000019073,,97861.40000009537,,97862.204,8,400,,,
break_continue,html.Screen,4_0_2,2023-09-13T15:47:33.794Z,,0,,,NaN,,,,,,false,,,,97862.09999990463,97862,,97862,,97862.204,8,400,,,
sequence,flow.Sequence,4_0,2023-09-13T15:47:33.794Z,,0,,,5209.903999999995,completion,,,,,false,,,,97862.30000019073,97862,92635.364,92623.59999990463,92652.096,97862.204,8,400,,,
trial,html.Screen,4_1_0,2023-09-13T15:47:40.024Z,,0,1,,6228.395999904635,response,ISIC_0068897.JPG,6,ISIC_3073634.JPG,ISIC_3073634.JPG,false,0,keypress(z),500,104090.90000009537,104090.59999990463,97845.536,97862.30000019073,97862.204,104107.69,8,400,2,,ISIC_0068897.JPG
break,html.Screen,4_1_1,2023-09-13T15:47:40.025Z,,0,,,NaN,,,,,,false,,,,104091.80000019073,104091.5,,104091.09999990463,,104107.69,8,400,,,
break_continue,html.Screen,4_1_2,2023-09-13T15:47:40.026Z,,0,,,NaN,,,,,,false,,,,104092.19999980927,104092.09999990463,,104092,,104107.69,8,400,,,
sequence,flow.Sequence,4_1,2023-09-13T15:47:40.026Z,,0,,,6229.895999904635,completion,,,,,false,,,,104092.30000019073,104092.09999990463,97845.536,97862.30000019073,97862.204,104107.69,8,400,,,
trial,html.Screen,4_2_0,2023-09-13T15:47:47.995Z,,0,1,,7954.009999809263,response,ISIC_2211136.JPG,6,ISIC_4798962.JPG,ISIC_4798962.JPG,false,0,keypress(z),500,112061.80000019073,112061.69999980927,104091.059,104092.40000009537,104107.69,112073.322,8,400,3,,ISIC_2211136.JPG
break,html.Screen,4_2_1,2023-09-13T15:47:47.996Z,,0,,,NaN,,,,,,false,,,,112062.5,112062.30000019073,,112062,,112073.322,8,400,,,
break_continue,html.Screen,4_2_2,2023-09-13T15:47:47.996Z,,0,,,NaN,,,,,,false,,,,112062.90000009537,112062.80000019073,,112062.59999990463,,112073.322,8,400,,,
sequence,flow.Sequence,4_2,2023-09-13T15:47:47.996Z,,0,,,7955.1100001907325,completion,,,,,false,,,,112062.90000009537,112062.80000019073,104091.059,104092.40000009537,104107.69,112073.322,8,400,,,
trial,html.Screen,4_3_0,2023-09-13T15:47:54.895Z,,0,1,,6887.777999904632,response,ISIC_0024952.JPG,5,ISIC_5005961.JPG,ISIC_5005961.JPG,false,0,keypress(z),500,118961.59999990463,118961.09999990463,112056.515,112063.09999990463,112073.322,118970.093,8,400,4,,ISIC_0024952.JPG
break,html.Screen,4_3_1,2023-09-13T15:47:54.897Z,,0,,,NaN,,,,,,false,,,,118963.30000019073,118962.80000019073,,118962.09999990463,,118970.093,8,400,,,
break_continue,html.Screen,4_3_2,2023-09-13T15:47:54.897Z,,0,,,NaN,,,,,,false,,,,118964.09999990463,118963.90000009537,,118963.5,,118970.093,8,400,,,
sequence,flow.Sequence,4_3,2023-09-13T15:47:54.898Z,,0,,,6890.578000095367,completion,,,,,false,,,,118964.30000019073,118963.90000009537,112056.515,112063,112073.322,118970.093,8,400,,,
trial,html.Screen,4_4_0,2023-09-13T15:48:01.676Z,,0,1,,6772.106999809272,response,ISIC_0014049.JPG,5,ISIC_7945429.JPG,ISIC_7945429.JPG,false,0,keypress(z),500,125742.30000019073,125742.19999980927,118953.266,118964.59999990463,118970.093,125749.915,8,400,5,,ISIC_0014049.JPG
break,html.Screen,4_4_1,2023-09-13T15:48:01.676Z,,0,,,NaN,,,,,,false,,,,125742.90000009537,125742.69999980927,,125742.5,,125749.915,8,400,,,
break_continue,html.Screen,4_4_2,2023-09-13T15:48:01.677Z,,0,,,NaN,,,,,,false,,,,125743.19999980927,125743.09999990463,,125743,,125749.915,8,400,,,
sequence,flow.Sequence,4_4,2023-09-13T15:48:01.677Z,,0,,,6773.006999904639,completion,,,,,false,,,,125743.19999980927,125743.09999990463,118953.266,118964.5,118970.093,125749.915,8,400,,,
trial,html.Screen,4_5_0,2023-09-13T15:48:08.318Z,,0,1,,6634.2849998092715,response,ISIC_0068776.JPG,5,ISIC_1798471.JPG,ISIC_0068776.JPG,false,1,keypress(m),500,132384.40000009537,132384.19999980927,125733.138,125743.30000019073,125749.915,132396.101,8,400,6,,ISIC_1798471.JPG
break,html.Screen,4_5_1,2023-09-13T15:48:08.319Z,,0,,,NaN,,,,,,false,,,,132385.30000019073,132385,,132384.59999990463,,132396.101,8,400,,,
break_continue,html.Screen,4_5_2,2023-09-13T15:48:08.319Z,,0,,,NaN,,,,,,false,,,,132385.5,132385.40000009537,,132385.40000009537,,132396.101,8,400,,,
sequence,flow.Sequence,4_5,2023-09-13T15:48:08.319Z,,0,,,6635.485000095374,completion,,,,,false,,,,132385.69999980927,132385.40000009537,125733.138,125743.30000019073,125749.915,132396.101,8,400,,,
trial,html.Screen,4_6_0,2023-09-13T15:48:15.489Z,,0,1,,7159.299000095372,response,ISIC_6208107.JPG,5,ISIC_3009564.JPG,ISIC_6208107.JPG,false,1,keypress(m),500,139555.59999990463,139555.40000009537,132379.543,132385.69999980927,132396.101,139560.009,8,400,7,,ISIC_3009564.JPG
break,html.Screen,4_6_1,2023-09-13T15:48:15.490Z,,0,,,NaN,,,,,,false,,,,139556.19999980927,139556,,139555.69999980927,,139560.009,8,400,,,
break_continue,html.Screen,4_6_2,2023-09-13T15:48:15.490Z,,0,,,NaN,,,,,,false,,,,139556.5,139556.40000009537,,139556.30000019073,,139560.009,8,400,,,
sequence,flow.Sequence,4_6,2023-09-13T15:48:15.490Z,,0,,,7160.299000095372,completion,,,,,false,,,,139556.59999990463,139556.40000009537,132379.543,132385.69999980927,132396.101,139560.009,8,400,,,
trial,html.Screen,4_7_0,2023-09-13T15:48:20.634Z,,0,1,,5140.190999809274,response,ISIC_0033074.JPG,4,ISIC_8586909.JPG,ISIC_8586909.JPG,false,0,keypress(z),500,144700.30000019073,144700.19999980927,139543.356,139556.69999980927,139560.009,144703.375,8,400,8,,ISIC_0033074.JPG
break,html.Screen,4_7_1,2023-09-13T15:48:20.634Z,,0,,,NaN,,,,,,false,,,,144700.69999980927,144700.59999990463,,144700.40000009537,,144703.375,8,400,,,
break_continue,html.Screen,4_7_2,2023-09-13T15:48:20.634Z,,0,,,NaN,,,,,,false,,,,144700.90000009537,144700.90000009537,,144700.80000019073,,144703.375,8,400,,,
sequence,flow.Sequence,4_7,2023-09-13T15:48:20.634Z,,0,,,5140.8910000953765,completion,,,,,false,,,,144701,144700.90000009537,139543.356,139556.59999990463,139560.009,144703.375,8,400,,,
trial,html.Screen,4_8_0,2023-09-13T15:48:26.127Z,,0,1,,5490.525000095367,response,ISIC_2075372.JPG,5,ISIC_0068166.JPG,ISIC_2075372.JPG,false,1,keypress(m),500,150194,150193.90000009537,144686.651,144701.09999990463,144703.375,150214.076,8,400,9,,ISIC_0068166.JPG
break,html.Screen,4_8_1,2023-09-13T15:48:26.128Z,,0,,,NaN,,,,,,false,,,,150194.59999990463,150194.40000009537,,150194.09999990463,,150214.076,8,400,,,
break_continue,html.Screen,4_8_2,2023-09-13T15:48:26.128Z,,0,,,NaN,,,,,,false,,,,150194.90000009537,150194.80000019073,,150194.69999980927,,150214.076,8,400,,,
sequence,flow.Sequence,4_8,2023-09-13T15:48:26.128Z,,0,,,5491.425000190735,completion,,,,,false,,,,150194.90000009537,150194.80000019073,144686.651,144701,144703.375,150214.076,8,400,,,
trial,html.Screen,4_9_0,2023-09-13T15:48:32.372Z,,0,1,,6224.3240000953665,response,ISIC_8100185.JPG,4,ISIC_2489504.JPG,ISIC_2489504.JPG,false,0,keypress(z),500,156438.59999990463,156438.40000009537,150197.405,150195,150214.076,156442.956,8,400,10,,ISIC_8100185.JPG
break,html.Screen,4_9_1,2023-09-13T15:48:32.372Z,,0,,,NaN,,,,,,false,,,,156439,156438.90000009537,,156438.69999980927,,156442.956,8,400,,,
break_continue,html.Screen,4_9_2,2023-09-13T15:48:32.373Z,,0,,,NaN,,,,,,false,,,,156439.19999980927,156439.09999990463,,156439.09999990463,,156442.956,8,400,,,
sequence,flow.Sequence,4_9,2023-09-13T15:48:32.373Z,,0,,,6225.023999904632,completion,,,,,false,,,,156439.19999980927,156439.09999990463,150197.405,150194.90000009537,150214.076,156442.956,8,400,,,
trial,html.Screen,4_10_0,2023-09-13T15:48:38.043Z,,0,1,,5664.74399980926,response,ISIC_5261146.JPG,5,ISIC_0065260.JPG,ISIC_5261146.JPG,false,1,keypress(m),500,162107.90000009537,162107.69999980927,156426.168,156439.30000019073,156442.956,162120.61,8,400,11,,ISIC_0065260.JPG
break,html.Screen,4_10_1,2023-09-13T15:48:38.044Z,,0,,,NaN,,,,,,false,,,,162108.59999990463,162108.5,,162108,,162120.61,8,400,,,
break_continue,html.Screen,4_10_2,2023-09-13T15:48:38.044Z,,0,,,NaN,,,,,,false,,,,162109.09999990463,162109,,162108.80000019073,,162120.61,8,400,,,
sequence,flow.Sequence,4_10,2023-09-13T15:48:38.044Z,,0,,,5666.043999999994,completion,,,,,false,,,,162109.30000019073,162109,156426.168,156439.30000019073,156442.956,162120.61,8,400,,,
trial,html.Screen,4_11_0,2023-09-13T15:48:44.469Z,,0,1,,6413.290000095381,response,ISIC_0032960.JPG,5,ISIC_1390308.JPG,ISIC_1390308.JPG,false,0,keypress(z),500,168534,168533.90000009537,162103.873,162109.30000019073,162120.61,168549.823,8,400,12,,ISIC_0032960.JPG
break,html.Screen,4_11_1,2023-09-13T15:48:44.469Z,,0,,,NaN,,,,,,false,,,,168534.5,168534.40000009537,,168534.09999990463,,168549.823,8,400,,,
break_continue,html.Screen,4_11_2,2023-09-13T15:48:44.470Z,,0,,,NaN,,,,,,false,,,,168534.69999980927,168534.69999980927,,168534.5,,168549.823,8,400,,,
sequence,flow.Sequence,4_11,2023-09-13T15:48:44.470Z,,0,,,6414.089999809279,completion,,,,,false,,,,168534.80000019073,168534.69999980927,162103.873,162109.30000019073,162120.61,168549.823,8,400,,,
trial,html.Screen,4_12_0,2023-09-13T15:48:49.484Z,,0,1,,4999.0770000953635,response,ISIC_0009048.JPG,6,ISIC_0066429.JPG,ISIC_0009048.JPG,false,1,keypress(m),500,173549,173548.90000009537,168533.095,168534.80000019073,168549.823,173559.486,8,400,13,,ISIC_0066429.JPG
break,html.Screen,4_12_1,2023-09-13T15:48:49.484Z,,0,,,NaN,,,,,,false,,,,173549.40000009537,173549.30000019073,,173549.09999990463,,173559.486,8,400,,,
break_continue,html.Screen,4_12_2,2023-09-13T15:48:49.485Z,,0,,,NaN,,,,,,false,,,,173549.59999990463,173549.5,,173549.40000009537,,173559.486,8,400,,,
sequence,flow.Sequence,4_12,2023-09-13T15:48:49.485Z,,0,,,4999.676999999996,completion,,,,,false,,,,173549.69999980927,173549.5,168533.095,168534.80000019073,168549.823,173559.486,8,400,,,
trial,html.Screen,4_13_0,2023-09-13T15:48:57.102Z,,0,1,,7607.113999904628,response,ISIC_0034094.JPG,4,ISIC_0057048.JPG,ISIC_0034094.JPG,false,1,keypress(m),500,181166.90000009537,181166.59999990463,173542.874,173549.69999980927,173559.486,181174.382,8,400,14,,ISIC_0057048.JPG
break,html.Screen,4_13_1,2023-09-13T15:48:57.103Z,,0,,,NaN,,,,,,false,,,,181167.59999990463,181167.40000009537,,181167,,181174.382,8,400,,,
break_continue,html.Screen,4_13_2,2023-09-13T15:48:57.103Z,,0,,,NaN,,,,,,false,,,,181168,181167.90000009537,,181167.80000019073,,181174.382,8,400,,,
sequence,flow.Sequence,4_13,2023-09-13T15:48:57.103Z,,0,,,7608.414000095363,completion,,,,,false,,,,181168.09999990463,181167.90000009537,173542.874,173549.69999980927,173559.486,181174.382,8,400,,,
trial,html.Screen,4_14_0,2023-09-13T15:49:04.337Z,,0,1,,7227.21799990462,response,ISIC_0059041.JPG,5,ISIC_9126343.JPG,ISIC_9126343.JPG,false,0,keypress(z),500,188401.69999980927,188401.59999990463,181157.78,181168.30000019073,181174.382,188405.107,8,400,15,,ISIC_0059041.JPG
break,html.Screen,4_14_1,2023-09-13T15:49:04.337Z,,0,,,NaN,,,,,,false,,,,188402.09999990463,188402,,188401.80000019073,,188405.107,8,400,,,
break_continue,html.Screen,4_14_2,2023-09-13T15:49:04.337Z,,0,,,NaN,,,,,,false,,,,188402.30000019073,188402.30000019073,,188402.19999980927,,188405.107,8,400,,,
sequence,flow.Sequence,4_14,2023-09-13T15:49:04.337Z,,0,,,7227.9180001907225,completion,,,,,false,,,,188402.40000009537,188402.30000019073,181157.78,181168.19999980927,181174.382,188405.107,8,400,,,
trial,html.Screen,4_15_0,2023-09-13T15:49:10.147Z,,0,1,,5806.693000190746,response,ISIC_7268123.JPG,5,ISIC_0053473.JPG,ISIC_7268123.JPG,false,1,keypress(m),500,194211.80000019073,194211.80000019073,188388.455,188402.40000009537,188405.107,194216.345,8,400,16,,ISIC_0053473.JPG
break,html.Screen,4_15_1,2023-09-13T15:49:10.147Z,,0,,,NaN,,,,,,false,,,,194212.40000009537,194212.09999990463,,194211.90000009537,,194216.345,8,400,,,
break_continue,html.Screen,4_15_2,2023-09-13T15:49:10.148Z,,0,,,NaN,,,,,,false,,,,194212.5,194212.5,,194212.40000009537,,194216.345,8,400,,,
sequence,flow.Sequence,4_15,2023-09-13T15:49:10.148Z,,0,,,5807.393000000011,completion,,,,,false,,,,194212.69999980927,194212.5,188388.455,188402.40000009537,188405.107,194216.345,8,400,,,
trial,html.Screen,4_16_0,2023-09-13T15:49:17.113Z,,0,1,,6961.154999999999,response,ISIC_0009985.JPG,5,ISIC_0015071.JPG,ISIC_0009985.JPG,false,1,keypress(m),500,201177.80000019073,201177.5,194199.916,194212.69999980927,194216.345,201196.737,8,400,17,,ISIC_0015071.JPG
break,html.Screen,4_16_1,2023-09-13T15:49:17.114Z,,0,,,NaN,,,,,,false,,,,201179,201178.59999990463,,201178.09999990463,,201196.737,8,400,,,
break_continue,html.Screen,4_16_2,2023-09-13T15:49:17.114Z,,0,,,NaN,,,,,,false,,,,201179.40000009537,201179.30000019073,,201179.09999990463,,201196.737,8,400,,,
sequence,flow.Sequence,4_16,2023-09-13T15:49:17.115Z,,0,,,6962.955000190734,completion,,,,,false,,,,201179.59999990463,201179.30000019073,194199.916,194212.69999980927,194216.345,201196.737,8,400,,,
trial,html.Screen,4_17_0,2023-09-13T15:49:22.254Z,,0,1,,5121.763000000006,response,ISIC_0026996.JPG,5,ISIC_6990973.JPG,ISIC_6990973.JPG,false,0,keypress(z),500,206318.80000019073,206318.5,201180.041,201179.90000009537,201196.737,206323.324,8,400,18,,ISIC_0026996.JPG
break,html.Screen,4_17_1,2023-09-13T15:49:22.255Z,,0,,,NaN,,,,,,false,,,,206319.80000019073,206319.59999990463,,206319,,206323.324,8,400,,,
break_continue,html.Screen,4_17_2,2023-09-13T15:49:22.255Z,,0,,,NaN,,,,,,false,,,,206320.40000009537,206320.30000019073,,206320,,206323.324,8,400,,,
sequence,flow.Sequence,4_17,2023-09-13T15:49:22.256Z,,0,,,5123.563000190741,completion,,,,,false,,,,206320.59999990463,206320.30000019073,201180.041,201179.80000019073,201196.737,206323.324,8,400,,,
trial,html.Screen,4_18_0,2023-09-13T15:49:28.149Z,,0,1,,5890.076000095374,response,ISIC_1628539.JPG,5,ISIC_0014233.JPG,ISIC_0014233.JPG,false,0,keypress(z),500,212213.69999980927,212213.40000009537,206306.661,206320.80000019073,206323.324,212218.172,8,400,19,,ISIC_1628539.JPG
break,html.Screen,4_18_1,2023-09-13T15:49:28.150Z,,0,,,NaN,,,,,,false,,,,212214.90000009537,212214.59999990463,,212214,,212218.172,8,400,,,
break_continue,html.Screen,4_18_2,2023-09-13T15:49:28.150Z,,0,,,NaN,,,,,,false,,,,212215.5,212215.30000019073,,212215.09999990463,,212218.172,8,400,,,
sequence,flow.Sequence,4_18,2023-09-13T15:49:28.151Z,,0,,,5891.976000190742,completion,,,,,false,,,,212215.69999980927,212215.30000019073,206306.661,206320.80000019073,206323.324,212218.172,8,400,,,
trial,html.Screen,4_19_0,2023-09-13T15:49:34.010Z,,0,1,,5856.328000000009,response,ISIC_0011040.JPG,5,ISIC_0000533.JPG,ISIC_0011040.JPG,false,1,keypress(m),500,218074.5,218074.5,212201.432,212216,212218.172,218096.183,8,400,20,,ISIC_0000533.JPG
break,html.Screen,4_19_1,2023-09-13T15:49:34.010Z,,0,,,NaN,,,,,,false,,,,218075,218074.90000009537,,218074.69999980927,,218096.183,8,400,,,
break_continue,html.Screen,4_19_2,2023-09-13T15:49:34.010Z,,0,,,NaN,,,,,,false,,,,218075.19999980927,218075.19999980927,,218075.09999990463,,218096.183,8,400,,,
sequence,flow.Sequence,4_19,2023-09-13T15:49:34.010Z,,0,,,5857.027999809274,completion,,,,,false,,,,218075.30000019073,218075.19999980927,212201.432,212215.90000009537,212218.172,218096.183,8,400,,,
trial,html.Screen,4_20_0,2023-09-13T15:49:40.878Z,,0,1,,6845.617000190745,response,ISIC_0067798.JPG,7,ISIC_0033530.JPG,ISIC_0033530.JPG,false,0,keypress(z),500,224942,224941.80000019073,218079.519,218075.40000009537,218096.183,224942.876,8,400,21,,ISIC_0067798.JPG
break,html.Screen,4_20_1,2023-09-13T15:49:40.879Z,,0,,,NaN,,,,,,false,,,,224942.69999980927,224942.40000009537,,224942.09999990463,,224942.876,8,400,,,
break_continue,html.Screen,4_20_2,2023-09-13T15:49:40.879Z,,0,,,NaN,,,,,,false,,,,224942.90000009537,224942.90000009537,,224942.80000019073,,224942.876,8,400,,,
sequence,flow.Sequence,4_20,2023-09-13T15:49:40.880Z,,0,,,6846.717000095377,completion,,,,,false,,,,224943.19999980927,224942.90000009537,218079.519,218075.40000009537,218096.183,224942.876,8,400,,,
trial,html.Screen,4_21_0,2023-09-13T15:49:47.426Z,,0,1,,6546.524000095378,response,ISIC_2506200.JPG,5,ISIC_0202119.JPG,ISIC_2506200.JPG,false,1,keypress(m),500,231489.5,231489.40000009537,224926.26,224943.30000019073,224942.876,231505.647,8,400,22,,ISIC_0202119.JPG
break,html.Screen,4_21_1,2023-09-13T15:49:47.426Z,,0,,,NaN,,,,,,false,,,,231489.90000009537,231489.80000019073,,231489.59999990463,,231505.647,8,400,,,
break_continue,html.Screen,4_21_2,2023-09-13T15:49:47.427Z,,0,,,NaN,,,,,,false,,,,231490.09999990463,231490.09999990463,,231489.90000009537,,231505.647,8,400,,,
sequence,flow.Sequence,4_21,2023-09-13T15:49:47.427Z,,0,,,6547.223999904643,completion,,,,,false,,,,231490.19999980927,231490.09999990463,224926.26,224943.30000019073,224942.876,231505.647,8,400,,,
trial,html.Screen,4_22_0,2023-09-13T15:49:53.254Z,,0,1,,5811.75300009537,response,ISIC_9913573.JPG,6,ISIC_6017148.JPG,ISIC_6017148.JPG,false,0,keypress(z),500,237317.5,237317.40000009537,231488.975,231490.30000019073,231505.647,237333.627,8,400,23,,ISIC_9913573.JPG
break,html.Screen,4_22_1,2023-09-13T15:49:53.254Z,,0,,,NaN,,,,,,false,,,,237318,237317.90000009537,,237317.69999980927,,237333.627,8,400,,,
break_continue,html.Screen,4_22_2,2023-09-13T15:49:53.255Z,,0,,,NaN,,,,,,false,,,,237318.19999980927,237318.09999990463,,237318.09999990463,,237333.627,8,400,,,
sequence,flow.Sequence,4_22,2023-09-13T15:49:53.255Z,,0,,,5812.452999904635,completion,,,,,false,,,,237318.30000019073,237318.09999990463,231488.975,231490.30000019073,231505.647,237333.627,8,400,,,
trial,html.Screen,4_23_0,2023-09-13T15:49:58.890Z,,0,1,,5619.673000190727,response,ISIC_9167290.JPG,5,ISIC_0031908.JPG,ISIC_0031908.JPG,false,0,keypress(z),500,242953.30000019073,242953.30000019073,237317.173,237318.30000019073,237333.627,242961.248,8,400,24,,ISIC_9167290.JPG
break,html.Screen,4_23_1,2023-09-13T15:49:58.890Z,,0,,,NaN,,,,,,false,,,,242954,242953.69999980927,,242953.40000009537,,242961.248,8,400,,,
break_continue,html.Screen,4_23_2,2023-09-13T15:49:58.891Z,,0,,,NaN,,,,,,false,,,,242954.19999980927,242954.09999990463,,242954,,242961.248,8,400,,,
sequence,flow.Sequence,4_23,2023-09-13T15:49:58.891Z,,0,,,5620.472999904625,completion,,,,,false,,,,242954.30000019073,242954.09999990463,237317.173,237318.30000019073,237333.627,242961.248,8,400,,,
trial,html.Screen,4_24_0,2023-09-13T15:50:06.413Z,,0,1,,7515.35199990464,response,ISIC_0014211.JPG,5,ISIC_5468164.JPG,ISIC_0014211.JPG,false,1,keypress(m),500,250476.80000019073,250476.59999990463,242944.583,242954.30000019073,242961.248,250492.552,8,400,25,,ISIC_5468164.JPG
break,html.Screen,4_24_1,2023-09-13T15:50:06.414Z,,0,,,NaN,,,,,,false,,,,250477.69999980927,250477.5,,250477.09999990463,,250492.552,8,400,,,
break_continue,html.Screen,4_24_2,2023-09-13T15:50:06.415Z,,0,,,NaN,,,,,,false,,,,250478,250478,,250477.90000009537,,250492.552,8,400,,,
sequence,flow.Sequence,4_24,2023-09-13T15:50:06.415Z,,0,,,7516.752000000008,completion,,,,,false,,,,250478.19999980927,250478,242944.583,242954.30000019073,242961.248,250492.552,8,400,,,
trial,html.Screen,4_25_0,2023-09-13T15:50:10.966Z,,0,1,,4537.248000190739,response,ISIC_0011669.JPG,6,ISIC_3234908.JPG,ISIC_3234908.JPG,false,0,keypress(z),500,255029.90000009537,255029.80000019073,250475.87,250478.19999980927,250492.552,255034.718,8,400,26,,ISIC_0011669.JPG
break,html.Screen,4_25_1,2023-09-13T15:50:10.967Z,,0,,,NaN,,,,,,false,,,,255030.40000009537,255030.19999980927,,255030,,255034.718,8,400,,,
break_continue,html.Screen,4_25_2,2023-09-13T15:50:10.967Z,,0,,,NaN,,,,,,false,,,,255030.5,255030.40000009537,,255030.40000009537,,255034.718,8,400,,,
sequence,flow.Sequence,4_25,2023-09-13T15:50:10.967Z,,0,,,4537.848000095371,completion,,,,,false,,,,255030.59999990463,255030.40000009537,250475.87,250478.19999980927,250492.552,255034.718,8,400,,,
trial,html.Screen,4_26_0,2023-09-13T15:50:18.152Z,,0,1,,7180.981999809272,response,ISIC_6209119.JPG,6,ISIC_0612080.JPG,ISIC_6209119.JPG,false,1,keypress(m),500,262215.90000009537,262215.69999980927,255018.015,255030.59999990463,255034.718,262232.159,8,400,27,,ISIC_0612080.JPG
break,html.Screen,4_26_1,2023-09-13T15:50:18.153Z,,0,,,NaN,,,,,,false,,,,262216.80000019073,262216.69999980927,,262216.09999990463,,262232.159,8,400,,,
break_continue,html.Screen,4_26_2,2023-09-13T15:50:18.154Z,,0,,,NaN,,,,,,false,,,,262217.09999990463,262217.09999990463,,262216.90000009537,,262232.159,8,400,,,
sequence,flow.Sequence,4_26,2023-09-13T15:50:18.154Z,,0,,,7182.381999904639,completion,,,,,false,,,,262217.19999980927,262217.09999990463,255018.015,255030.59999990463,255034.718,262232.159,8,400,,,
trial,html.Screen,4_27_0,2023-09-13T15:50:23.515Z,,0,1,,5346.54099980928,response,ISIC_2244564.JPG,6,ISIC_0034193.JPG,ISIC_0034193.JPG,false,0,keypress(z),500,267578.80000019073,267578.69999980927,262215.555,262217.30000019073,262232.159,267592.477,8,400,28,,ISIC_2244564.JPG
break,html.Screen,4_27_1,2023-09-13T15:50:23.516Z,,0,,,NaN,,,,,,false,,,,267579.30000019073,267579.19999980927,,267578.90000009537,,267592.477,8,400,,,
break_continue,html.Screen,4_27_2,2023-09-13T15:50:23.516Z,,0,,,NaN,,,,,,false,,,,267579.5,267579.40000009537,,267579.30000019073,,267592.477,8,400,,,
sequence,flow.Sequence,4_27,2023-09-13T15:50:23.516Z,,0,,,5347.241000095382,completion,,,,,false,,,,267579.59999990463,267579.40000009537,262215.555,262217.30000019073,262232.159,267592.477,8,400,,,
trial,html.Screen,4_28_0,2023-09-13T15:50:28.403Z,,0,1,,4873.923000095354,response,ISIC_0061152.JPG,5,ISIC_8295306.JPG,ISIC_8295306.JPG,false,0,keypress(z),500,272466.80000019073,272466.40000009537,267575.999,267579.59999990463,267592.477,272468.673,8,400,29,,ISIC_0061152.JPG
break,html.Screen,4_28_1,2023-09-13T15:50:28.404Z,,0,,,NaN,,,,,,false,,,,272467.5,272467.30000019073,,272467,,272468.673,8,400,,,
break_continue,html.Screen,4_28_2,2023-09-13T15:50:28.404Z,,0,,,NaN,,,,,,false,,,,272467.80000019073,272467.69999980927,,272467.59999990463,,272468.673,8,400,,,
sequence,flow.Sequence,4_28,2023-09-13T15:50:28.404Z,,0,,,4875.222999809252,completion,,,,,false,,,,272467.90000009537,272467.69999980927,267575.999,267579.59999990463,267592.477,272468.673,8,400,,,
trial,html.Screen,4_29_0,2023-09-13T15:50:33.690Z,,0,1,,5284.926999904623,response,ISIC_0010098.JPG,5,ISIC_0013457.JPG,ISIC_0013457.JPG,false,0,keypress(z),500,277753.69999980927,277753.59999990463,272451.947,272468,272468.673,277762.437,8,400,30,,ISIC_0010098.JPG
break,html.Screen,4_29_1,2023-09-13T15:50:33.691Z,,0,,,NaN,,,,,,false,,,,277754.19999980927,277754,,277753.69999980927,,277762.437,8,400,,,
break_continue,html.Screen,4_29_2,2023-09-13T15:50:33.691Z,,0,,,NaN,,,,,,false,,,,277754.40000009537,277754.40000009537,,277754.19999980927,,277762.437,8,400,,,
sequence,flow.Sequence,4_29,2023-09-13T15:50:33.691Z,,0,,,5285.727000095358,completion,,,,,false,,,,277754.5,277754.40000009537,272451.947,272468,272468.673,277762.437,8,400,,,
trial,html.Screen,4_30_0,2023-09-13T15:50:38.437Z,,0,1,,4736.463000095391,response,ISIC_2124148.JPG,6,ISIC_0028275.JPG,ISIC_2124148.JPG,false,1,keypress(m),500,282499,282498.90000009537,277745.582,277754.59999990463,277762.437,282521.738,8,400,31,,ISIC_0028275.JPG
break,html.Screen,4_30_1,2023-09-13T15:50:38.437Z,,0,,,NaN,,,,,,false,,,,282499.40000009537,282499.40000009537,,282499.19999980927,,282521.738,8,400,,,
break_continue,html.Screen,4_30_2,2023-09-13T15:50:38.438Z,,0,,,NaN,,,,,,false,,,,282499.59999990463,282499.5,,282499.5,,282521.738,8,400,,,
sequence,flow.Sequence,4_30,2023-09-13T15:50:38.438Z,,0,,,4737.063000000024,completion,,,,,false,,,,282499.69999980927,282499.5,277745.582,277754.5,277762.437,282521.738,8,400,,,
trial,html.Screen,4_31_0,2023-09-13T15:50:43.886Z,,0,1,,5426.461999809253,response,ISIC_9465061.JPG,5,ISIC_0010036.JPG,ISIC_9465061.JPG,false,1,keypress(m),500,287948.30000019073,287948.19999980927,282504.874,282499.80000019073,282521.738,287948.747,8,400,32,,ISIC_0010036.JPG
break,html.Screen,4_31_1,2023-09-13T15:50:43.887Z,,0,,,NaN,,,,,,false,,,,287949,287948.69999980927,,287948.40000009537,,287948.747,8,400,,,
break_continue,html.Screen,4_31_2,2023-09-13T15:50:43.888Z,,0,,,NaN,,,,,,false,,,,287950,287949.80000019073,,287949.5,,287948.747,8,400,,,
sequence,flow.Sequence,4_31,2023-09-13T15:50:43.888Z,,0,,,5428.062000190723,completion,,,,,false,,,,287950.19999980927,287949.80000019073,282504.874,282499.80000019073,282521.738,287948.747,8,400,,,
trial,html.Screen,4_32_0,2023-09-13T15:50:49.032Z,,0,1,,5145.053000190761,response,ISIC_0034074.JPG,5,ISIC_0009955.JPG,ISIC_0009955.JPG,false,0,keypress(z),500,293094.09999990463,293093.80000019073,287932.343,287950.30000019073,287948.747,293108.824,8,400,33,,ISIC_0034074.JPG
break,html.Screen,4_32_1,2023-09-13T15:50:49.035Z,,0,,,NaN,,,,,,false,,,,293096.5,293095.59999990463,,293094.5,,293108.824,8,400,,,
break_continue,html.Screen,4_32_2,2023-09-13T15:50:49.036Z,,0,,,NaN,,,,,,false,,,,293098.09999990463,293097.59999990463,,293096.90000009537,,293108.824,8,400,,,
sequence,flow.Sequence,4_32,2023-09-13T15:50:49.037Z,,0,,,5148.852999904659,completion,,,,,false,,,,293098.5,293097.59999990463,287932.343,287950.19999980927,287948.747,293108.824,8,400,,,
trial,html.Screen,4_33_0,2023-09-13T15:50:55.717Z,,0,1,,6669.4760001907125,response,ISIC_0065351.JPG,6,ISIC_2565154.JPG,ISIC_2565154.JPG,false,0,keypress(z),500,299778.5,299778.30000019073,293092.144,293098.80000019073,293108.824,299788.563,8,400,34,,ISIC_0065351.JPG
break,html.Screen,4_33_1,2023-09-13T15:50:55.717Z,,0,,,NaN,,,,,,false,,,,299779.40000009537,299778.90000009537,,299778.69999980927,,299788.563,8,400,,,
break_continue,html.Screen,4_33_2,2023-09-13T15:50:55.718Z,,0,,,NaN,,,,,,false,,,,299779.69999980927,299779.59999990463,,299779.5,,299788.563,8,400,,,
sequence,flow.Sequence,4_33,2023-09-13T15:50:55.718Z,,0,,,6670.77599990461,completion,,,,,false,,,,299779.80000019073,299779.59999990463,293092.144,293098.80000019073,293108.824,299788.563,8,400,,,
trial,html.Screen,4_34_0,2023-09-13T15:51:02.119Z,,0,1,,6392.436999999976,response,ISIC_2854303.JPG,6,ISIC_0162967.JPG,ISIC_0162967.JPG,false,0,keypress(z),500,306181.09999990463,306181,299771.981,299780,299788.563,306184.351,8,400,35,,ISIC_2854303.JPG
break,html.Screen,4_34_1,2023-09-13T15:51:02.120Z,,0,,,NaN,,,,,,false,,,,306181.5,306181.40000009537,,306181.19999980927,,306184.351,8,400,,,
break_continue,html.Screen,4_34_2,2023-09-13T15:51:02.120Z,,0,,,NaN,,,,,,false,,,,306181.69999980927,306181.59999990463,,306181.5,,306184.351,8,400,,,
sequence,flow.Sequence,4_34,2023-09-13T15:51:02.120Z,,0,,,6393.036999904609,completion,,,,,false,,,,306181.69999980927,306181.59999990463,299771.981,299779.90000009537,299788.563,306184.351,8,400,,,
trial,html.Screen,4_35_0,2023-09-13T15:51:08.398Z,,0,1,,6275.949000190711,response,ISIC_0071367.JPG,4,ISIC_0032987.JPG,ISIC_0032987.JPG,false,0,keypress(z),500,312460.40000009537,312460.30000019073,306167.664,306181.69999980927,306184.351,312479.865,8,400,36,,ISIC_0071367.JPG
break,html.Screen,4_35_1,2023-09-13T15:51:08.399Z,,0,,,NaN,,,,,,false,,,,312461,312460.90000009537,,312460.59999990463,,312479.865,8,400,,,
break_continue,html.Screen,4_35_2,2023-09-13T15:51:08.399Z,,0,,,NaN,,,,,,false,,,,312461.30000019073,312461.19999980927,,312461.09999990463,,312479.865,8,400,,,
sequence,flow.Sequence,4_35,2023-09-13T15:51:08.399Z,,0,,,6276.848999809241,completion,,,,,false,,,,312461.30000019073,312461.19999980927,306167.664,306181.69999980927,306184.351,312479.865,8,400,,,
trial,html.Screen,4_36_0,2023-09-13T15:51:14.737Z,,0,1,,6319.035000095377,response,ISIC_1149693.JPG,4,ISIC_0000554.JPG,ISIC_1149693.JPG,false,1,keypress(m),500,318799.19999980927,318798.90000009537,312463.161,312461.40000009537,312479.865,318825.564,8,400,37,,ISIC_0000554.JPG
break,html.Screen,4_36_1,2023-09-13T15:51:14.738Z,,0,,,NaN,,,,,,false,,,,318800.09999990463,318799.90000009537,,318799.40000009537,,318825.564,8,400,,,
break_continue,html.Screen,4_36_2,2023-09-13T15:51:14.739Z,,0,,,NaN,,,,,,false,,,,318800.59999990463,318800.5,,318800.30000019073,,318825.564,8,400,,,
sequence,flow.Sequence,4_36,2023-09-13T15:51:14.739Z,,0,,,6320.635000000009,completion,,,,,false,,,,318800.80000019073,318800.5,312463.161,312461.40000009537,312479.865,318825.564,8,400,,,
trial,html.Screen,4_37_0,2023-09-13T15:51:20.661Z,,0,1,,5897.635999809252,response,ISIC_0056155.JPG,4,ISIC_0063745.JPG,ISIC_0056155.JPG,false,1,keypress(m),500,324723.30000019073,324723.19999980927,318808.916,318800.90000009537,318825.564,324737.137,8,400,38,,ISIC_0063745.JPG
break,html.Screen,4_37_1,2023-09-13T15:51:20.662Z,,0,,,NaN,,,,,,false,,,,324723.80000019073,324723.59999990463,,324723.40000009537,,324737.137,8,400,,,
break_continue,html.Screen,4_37_2,2023-09-13T15:51:20.662Z,,0,,,NaN,,,,,,false,,,,324723.90000009537,324723.90000009537,,324723.80000019073,,324737.137,8,400,,,
sequence,flow.Sequence,4_37,2023-09-13T15:51:20.662Z,,0,,,5898.336000095354,completion,,,,,false,,,,324724,324723.90000009537,318808.916,318800.90000009537,318825.564,324737.137,8,400,,,
trial,html.Screen,4_38_0,2023-09-13T15:51:26.264Z,,0,1,,5588.962999904645,response,ISIC_0004857.JPG,5,ISIC_7128007.JPG,ISIC_0004857.JPG,false,1,keypress(m),500,330326.19999980927,330326.09999990463,324720.368,324724.09999990463,324737.137,330331.351,8,400,39,,ISIC_7128007.JPG
break,html.Screen,4_38_1,2023-09-13T15:51:26.265Z,,0,,,NaN,,,,,,false,,,,330326.59999990463,330326.5,,330326.40000009537,,330331.351,8,400,,,
break_continue,html.Screen,4_38_2,2023-09-13T15:51:26.265Z,,0,,,NaN,,,,,,false,,,,330326.80000019073,330326.80000019073,,330326.69999980927,,330331.351,8,400,,,
sequence,flow.Sequence,4_38,2023-09-13T15:51:26.265Z,,0,,,5589.663000190747,completion,,,,,false,,,,330326.80000019073,330326.80000019073,324720.368,324724.09999990463,324737.137,330331.351,8,400,,,
trial,html.Screen,4_39_0,2023-09-13T15:51:31.933Z,,0,1,,5663.049000095343,response,ISIC_1251639.JPG,5,ISIC_9072034.JPG,ISIC_9072034.JPG,false,0,keypress(z),500,335994.59999990463,335994.40000009537,330314.59,330326.90000009537,330331.351,336025.735,8,400,40,,ISIC_1251639.JPG
break,html.Screen,4_39_1,2023-09-13T15:51:31.933Z,,0,,,NaN,,,,,,false,,,,335995,335994.90000009537,,335994.59999990463,,336025.735,8,400,,,
break_continue,html.Screen,4_39_2,2023-09-13T15:51:31.933Z,,0,,,NaN,,,,,,false,,,,335995.09999990463,335995.09999990463,,335995,,336025.735,8,400,,,
sequence,flow.Sequence,4_39,2023-09-13T15:51:31.933Z,,0,,,5663.748999904608,completion,,,,,false,,,,335995.19999980927,335995.09999990463,330314.59,330326.80000019073,330331.351,336025.735,8,400,,,
trial,html.Screen,4_40_0,2023-09-13T15:51:37.074Z,,0,1,,5108.165000095381,response,ISIC_0031561.JPG,5,ISIC_0072496.JPG,ISIC_0031561.JPG,false,1,keypress(m),500,341134,341133.90000009537,336009.12,335995.30000019073,336025.735,341152.316,8,400,41,,ISIC_0072496.JPG
break,html.Screen,4_40_1,2023-09-13T15:51:37.074Z,,0,,,NaN,,,,,,false,,,,341134.5,341134.40000009537,,341134.09999990463,,341152.316,8,400,,,
break_continue,html.Screen,4_40_2,2023-09-13T15:51:37.074Z,,0,,,NaN,,,,,,false,,,,341134.59999990463,341134.59999990463,,341134.5,,341152.316,8,400,,,
sequence,flow.Sequence,4_40,2023-09-13T15:51:37.074Z,,0,,,5108.8649999046465,completion,,,,,false,,,,341134.69999980927,341134.59999990463,336009.12,335995.30000019073,336025.735,341152.316,8,400,,,
trial,html.Screen,4_41_0,2023-09-13T15:51:43.188Z,,0,1,,6095.584000095376,response,ISIC_0465476.JPG,5,ISIC_0032672.JPG,ISIC_0465476.JPG,false,1,keypress(m),500,347248,347247.90000009537,341135.634,341134.80000019073,341152.316,347264.227,8,400,42,,ISIC_0032672.JPG
break,html.Screen,4_41_1,2023-09-13T15:51:43.188Z,,0,,,NaN,,,,,,false,,,,347248.59999990463,347248.5,,347248.09999990463,,347264.227,8,400,,,
break_continue,html.Screen,4_41_2,2023-09-13T15:51:43.188Z,,0,,,NaN,,,,,,false,,,,347249,347248.80000019073,,347248.69999980927,,347264.227,8,400,,,
sequence,flow.Sequence,4_41,2023-09-13T15:51:43.189Z,,0,,,6096.484000190743,completion,,,,,false,,,,347249,347248.80000019073,341135.634,341134.80000019073,341152.316,347264.227,8,400,,,
trial,html.Screen,4_42_0,2023-09-13T15:51:49.114Z,,0,1,,5909.673000095354,response,ISIC_0060749.JPG,5,ISIC_6208107.JPG,ISIC_0060749.JPG,false,1,keypress(m),500,353174,353173.90000009537,347247.494,347249.09999990463,347264.227,353175.73,8,400,43,,ISIC_6208107.JPG
break,html.Screen,4_42_1,2023-09-13T15:51:49.114Z,,0,,,NaN,,,,,,false,,,,353174.80000019073,353174.5,,353174.19999980927,,353175.73,8,400,,,
break_continue,html.Screen,4_42_2,2023-09-13T15:51:49.115Z,,0,,,NaN,,,,,,false,,,,353175,353174.90000009537,,353174.80000019073,,353175.73,8,400,,,
sequence,flow.Sequence,4_42,2023-09-13T15:51:49.115Z,,0,,,5910.673000095354,completion,,,,,false,,,,353175.09999990463,353174.90000009537,347247.494,347249,347264.227,353175.73,8,400,,,
trial,html.Screen,4_43_0,2023-09-13T15:51:53.404Z,,0,1,,4288.770000000019,response,ISIC_5065245.JPG,5,ISIC_5468164.JPG,ISIC_5468164.JPG,false,0,keypress(z),500,357464.59999990463,357464.5,353159.102,353175.19999980927,353175.73,357467.38,8,400,44,,ISIC_5065245.JPG
break,html.Screen,4_43_1,2023-09-13T15:51:53.405Z,,0,,,NaN,,,,,,false,,,,357465.09999990463,357464.90000009537,,357464.69999980927,,357467.38,8,400,,,
break_continue,html.Screen,4_43_2,2023-09-13T15:51:53.405Z,,0,,,NaN,,,,,,false,,,,357465.30000019073,357465.19999980927,,357465.09999990463,,357467.38,8,400,,,
sequence,flow.Sequence,4_43,2023-09-13T15:51:53.405Z,,0,,,4289.469999809284,completion,,,,,false,,,,357465.40000009537,357465.19999980927,353159.102,353175.19999980927,353175.73,357467.38,8,400,,,
trial,html.Screen,4_44_0,2023-09-13T15:51:58.882Z,,0,1,,5475.3199998092605,response,ISIC_3513367.JPG,5,ISIC_0952221.JPG,ISIC_0952221.JPG,false,0,keypress(z),500,362942.90000009537,362942.69999980927,357450.747,357465.5,357467.38,362944.745,8,400,45,,ISIC_3513367.JPG
break,html.Screen,4_44_1,2023-09-13T15:51:58.883Z,,0,,,NaN,,,,,,false,,,,362943.59999990463,362943.40000009537,,362943.09999990463,,362944.745,8,400,,,
break_continue,html.Screen,4_44_2,2023-09-13T15:51:58.884Z,,0,,,NaN,,,,,,false,,,,362944,362943.80000019073,,362943.80000019073,,362944.745,8,400,,,
sequence,flow.Sequence,4_44,2023-09-13T15:51:58.884Z,,0,,,5476.42000019073,completion,,,,,false,,,,362944.09999990463,362943.80000019073,357450.747,357465.40000009537,357467.38,362944.745,8,400,,,
trial,html.Screen,4_45_0,2023-09-13T15:52:03.530Z,,0,1,,4645.255000000005,response,ISIC_9397126.JPG,6,ISIC_0065735.JPG,ISIC_9397126.JPG,false,1,keypress(m),500,367590.19999980927,367590,362928.053,362944.19999980927,362944.745,367603.982,8,400,46,,ISIC_0065735.JPG
break,html.Screen,4_45_1,2023-09-13T15:52:03.530Z,,0,,,NaN,,,,,,false,,,,367590.59999990463,367590.5,,367590.19999980927,,367603.982,8,400,,,
break_continue,html.Screen,4_45_2,2023-09-13T15:52:03.530Z,,0,,,NaN,,,,,,false,,,,367590.80000019073,367590.69999980927,,367590.59999990463,,367603.982,8,400,,,
sequence,flow.Sequence,4_45,2023-09-13T15:52:03.530Z,,0,,,4645.95499980927,completion,,,,,false,,,,367590.80000019073,367590.69999980927,362928.053,362944.19999980927,362944.745,367603.982,8,400,,,
trial,html.Screen,4_46_0,2023-09-13T15:52:07.811Z,,0,1,,4267.418000095349,response,ISIC_7889838.JPG,5,ISIC_6381981.JPG,ISIC_6381981.JPG,false,0,keypress(z),500,371871.59999990463,371871.40000009537,367587.256,367591,367603.982,371878.791,8,400,47,,ISIC_7889838.JPG
break,html.Screen,4_46_1,2023-09-13T15:52:07.812Z,,0,,,NaN,,,,,,false,,,,371872.09999990463,371872,,371871.69999980927,,371878.791,8,400,,,
break_continue,html.Screen,4_46_2,2023-09-13T15:52:07.812Z,,0,,,NaN,,,,,,false,,,,371872.30000019073,371872.19999980927,,371872.19999980927,,371878.791,8,400,,,
sequence,flow.Sequence,4_46,2023-09-13T15:52:07.812Z,,0,,,4268.217999809247,completion,,,,,false,,,,371872.40000009537,371872.19999980927,367587.256,367590.90000009537,367603.982,371878.791,8,400,,,
trial,html.Screen,4_47_0,2023-09-13T15:52:14.681Z,,0,1,,6862.808999904606,response,ISIC_5662381.JPG,5,ISIC_6188469.JPG,ISIC_6188469.JPG,false,0,keypress(z),500,378741.69999980927,378741.59999990463,371862.078,371872.5,371878.791,378758.853,8,400,48,,ISIC_5662381.JPG
break,html.Screen,4_47_1,2023-09-13T15:52:14.682Z,,0,,,NaN,,,,,,false,,,,378742.59999990463,378742.09999990463,,378741.90000009537,,378758.853,8,400,,,
break_continue,html.Screen,4_47_2,2023-09-13T15:52:14.682Z,,0,,,NaN,,,,,,false,,,,378742.90000009537,378742.80000019073,,378742.69999980927,,378758.853,8,400,,,
sequence,flow.Sequence,4_47,2023-09-13T15:52:14.682Z,,0,,,6864.009000190708,completion,,,,,false,,,,378743,378742.80000019073,371862.078,371872.5,371878.791,378758.853,8,400,,,
trial,html.Screen,4_48_0,2023-09-13T15:52:22.156Z,,0,1,,7457.346999809262,response,ISIC_7800706.JPG,6,ISIC_7755096.JPG,ISIC_7755096.JPG,false,0,keypress(z),500,386216.30000019073,386216.19999980927,378742.162,378743,378758.853,386223.343,8,400,49,,ISIC_7800706.JPG
break,html.Screen,4_48_1,2023-09-13T15:52:22.156Z,,0,,,NaN,,,,,,false,,,,386216.80000019073,386216.59999990463,,386216.40000009537,,386223.343,8,400,,,
break_continue,html.Screen,4_48_2,2023-09-13T15:52:22.156Z,,0,,,NaN,,,,,,false,,,,386217,386216.90000009537,,386216.80000019073,,386223.343,8,400,,,
sequence,flow.Sequence,4_48,2023-09-13T15:52:22.157Z,,0,,,7458.047000095365,completion,,,,,false,,,,386217.09999990463,386216.90000009537,378742.162,378743,378758.853,386223.343,8,400,,,
trial,html.Screen,4_49_0,2023-09-13T15:52:27.727Z,,0,1,,5563.557000095374,response,ISIC_0002622.JPG,5,ISIC_0011521.JPG,ISIC_0002622.JPG,false,1,keypress(m),500,391787.5,391786.90000009537,386206.637,386217.19999980927,386223.343,391800.894,8,400,50,,ISIC_0011521.JPG
break,html.Screen,4_49_1,2023-09-13T15:52:37.729Z,,0,,,10002.953000000038,timeout,,,,,false,,,,401788.19999980927,401787.133,391784.237,391787.90000009537,391800.894,401803.847,8,400,,,
break_continue,html.Screen,4_49_2,2023-09-13T15:54:44.281Z,,0,,,126523.15299999999,response,,,,,false,continue,keypress(Space),,528338.3000001907,528327,401787.133,401788.30000019073,401803.847,528366.726,8,400,,,
sequence,flow.Sequence,4_49,2023-09-13T15:54:44.281Z,,0,,,142103.657,completion,,,,,false,,,,528338.4000000954,528327,386206.637,386217.19999980927,386223.343,528366.726,8,400,,,
trial,html.Screen,4_50_0,2023-09-13T15:54:49.052Z,,0,2,,4742.473999809241,response,ISIC_0033081.JPG,5,ISIC_0067427.JPG,ISIC_0067427.JPG,false,0,keypress(z),500,533109.6999998093,533109.1999998093,528349.932,528338.4000000954,528366.726,533125.919,8,400,1,,ISIC_0033081.JPG
break,html.Screen,4_50_1,2023-09-13T15:54:49.055Z,,0,,,NaN,,,,,,false,,,,533112.0999999046,533111.5,,533110.4000000954,,533125.919,8,400,,,
break_continue,html.Screen,4_50_2,2023-09-13T15:54:49.056Z,,0,,,NaN,,,,,,false,,,,533112.9000000954,533112.6999998093,,533112.3000001907,,533125.919,8,400,,,
sequence,flow.Sequence,4_50,2023-09-13T15:54:49.056Z,,0,,,4745.973999809241,completion,,,,,false,,,,533113.1999998093,533112.6999998093,528349.932,528338.4000000954,528366.726,533125.919,8,400,,,
trial,html.Screen,4_51_0,2023-09-13T15:54:54.214Z,,0,2,,5144.981000095373,response,ISIC_0033782.JPG,5,ISIC_7981097.JPG,ISIC_7981097.JPG,false,0,keypress(z),500,538271.1999998093,538270.9000000954,533109.219,533113.5,533125.919,538285.957,8,400,2,,ISIC_0033782.JPG
break,html.Screen,4_51_1,2023-09-13T15:54:54.214Z,,0,,,NaN,,,,,,false,,,,538271.5999999046,538271.5,,538271.3000001907,,538285.957,8,400,,,
break_continue,html.Screen,4_51_2,2023-09-13T15:54:54.214Z,,0,,,NaN,,,,,,false,,,,538271.6999998093,538271.6999998093,,538271.6999998093,,538285.957,8,400,,,
sequence,flow.Sequence,4_51,2023-09-13T15:54:54.214Z,,0,,,5145.780999809271,completion,,,,,false,,,,538271.8000001907,538271.6999998093,533109.219,533113.5,533125.919,538285.957,8,400,,,
trial,html.Screen,4_52_0,2023-09-13T15:54:59.832Z,,0,2,,5603.242999809212,response,ISIC_6639094.JPG,5,ISIC_7563949.JPG,ISIC_7563949.JPG,false,0,keypress(z),500,543889.3000001907,543889.1999998093,538269.246,538271.9000000954,538285.957,543896.886,8,400,3,,ISIC_6639094.JPG
break,html.Screen,4_52_1,2023-09-13T15:54:59.833Z,,0,,,NaN,,,,,,false,,,,543889.9000000954,543889.8000001907,,543889.5,,543896.886,8,400,,,
break_continue,html.Screen,4_52_2,2023-09-13T15:54:59.833Z,,0,,,NaN,,,,,,false,,,,543890.1999998093,543890.0999999046,,543890,,543896.886,8,400,,,
sequence,flow.Sequence,4_52,2023-09-13T15:54:59.833Z,,0,,,5604.1429999045795,completion,,,,,false,,,,543890.3000001907,543890.0999999046,538269.246,538271.8000001907,538285.957,543896.886,8,400,,,
trial,html.Screen,4_53_0,2023-09-13T15:55:05.489Z,,0,2,,5649.213999904576,response,ISIC_9169586.JPG,6,ISIC_0003333.JPG,ISIC_0003333.JPG,false,0,keypress(z),500,549546.4000000954,549546.0999999046,543880.163,543890.4000000954,543896.886,549557.882,8,400,4,,ISIC_9169586.JPG
break,html.Screen,4_53_1,2023-09-13T15:55:05.490Z,,0,,,NaN,,,,,,false,,,,549547,549546.9000000954,,549546.5,,549557.882,8,400,,,
break_continue,html.Screen,4_53_2,2023-09-13T15:55:05.490Z,,0,,,NaN,,,,,,false,,,,549547.4000000954,549547.3000001907,,549547.1999998093,,549557.882,8,400,,,
sequence,flow.Sequence,4_53,2023-09-13T15:55:05.490Z,,0,,,5650.414000190678,completion,,,,,false,,,,549547.5,549547.3000001907,543880.163,543890.4000000954,543896.886,549557.882,8,400,,,
trial,html.Screen,4_54_0,2023-09-13T15:55:10.746Z,,0,2,,5245.118000000017,response,ISIC_5938680.JPG,6,ISIC_2415803.JPG,ISIC_2415803.JPG,false,0,keypress(z),500,554803.1999998093,554803,549541.211,549547.5999999046,549557.882,554818.142,8,400,5,,ISIC_5938680.JPG
break,html.Screen,4_54_1,2023-09-13T15:55:10.747Z,,0,,,NaN,,,,,,false,,,,554804,554803.8000001907,,554803.4000000954,,554818.142,8,400,,,
break_continue,html.Screen,4_54_2,2023-09-13T15:55:10.747Z,,0,,,NaN,,,,,,false,,,,554804.4000000954,554804.3000001907,,554804.0999999046,,554818.142,8,400,,,
sequence,flow.Sequence,4_54,2023-09-13T15:55:10.747Z,,0,,,5246.418000190752,completion,,,,,false,,,,554804.4000000954,554804.3000001907,549541.211,549547.5999999046,549557.882,554818.142,8,400,,,
trial,html.Screen,4_55_0,2023-09-13T15:55:15.153Z,,0,2,,4389.95799990464,response,ISIC_3805025.JPG,5,ISIC_0059891.JPG,ISIC_3805025.JPG,false,1,keypress(m),500,559208.4000000954,559208.0999999046,554801.566,554804.5999999046,554818.142,559210.092,8,400,6,,ISIC_0059891.JPG
break,html.Screen,4_55_1,2023-09-13T15:55:15.155Z,,0,,,NaN,,,,,,false,,,,559210.4000000954,559209.6999998093,,559208.8000001907,,559210.092,8,400,,,
break_continue,html.Screen,4_55_2,2023-09-13T15:55:15.157Z,,0,,,NaN,,,,,,false,,,,559212.3000001907,559212,,559211.4000000954,,559210.092,8,400,,,
sequence,flow.Sequence,4_55,2023-09-13T15:55:15.158Z,,0,,,4393.858000000007,completion,,,,,false,,,,559212.6999998093,559212,554801.566,554804.5,554818.142,559210.092,8,400,,,
trial,html.Screen,4_56_0,2023-09-13T15:55:20.348Z,,0,2,,5192.607999809319,response,ISIC_5813642.JPG,6,ISIC_8685259.JPG,ISIC_5813642.JPG,false,1,keypress(m),500,564402.8000001907,564402.6999998093,559193.283,559212.9000000954,559210.092,564403.419,8,400,7,,ISIC_8685259.JPG
break,html.Screen,4_56_1,2023-09-13T15:55:20.348Z,,0,,,NaN,,,,,,false,,,,564403.3000001907,564403.1999998093,,564402.9000000954,,564403.419,8,400,,,
break_continue,html.Screen,4_56_2,2023-09-13T15:55:20.348Z,,0,,,NaN,,,,,,false,,,,564403.4000000954,564403.3000001907,,564403.3000001907,,564403.419,8,400,,,
sequence,flow.Sequence,4_56,2023-09-13T15:55:20.348Z,,0,,,5193.208000190789,completion,,,,,false,,,,564403.5,564403.3000001907,559193.283,559212.8000001907,559210.092,564403.419,8,400,,,
trial,html.Screen,4_57_0,2023-09-13T15:55:25.633Z,,0,2,,5284.280999809271,response,ISIC_7047780.JPG,5,ISIC_0058926.JPG,ISIC_7047780.JPG,false,1,keypress(m),500,569687.8000001907,569687.6999998093,564386.821,564403.5999999046,564403.419,569697.165,8,400,8,,ISIC_0058926.JPG
break,html.Screen,4_57_1,2023-09-13T15:55:25.633Z,,0,,,NaN,,,,,,false,,,,569688.1999998093,569688.0999999046,,569687.9000000954,,569697.165,8,400,,,
break_continue,html.Screen,4_57_2,2023-09-13T15:55:25.633Z,,0,,,NaN,,,,,,false,,,,569688.5,569688.4000000954,,569688.4000000954,,569697.165,8,400,,,
sequence,flow.Sequence,4_57,2023-09-13T15:55:25.633Z,,0,,,5284.981000095373,completion,,,,,false,,,,569688.5,569688.4000000954,564386.821,564403.5,564403.419,569697.165,8,400,,,
trial,html.Screen,4_58_0,2023-09-13T15:55:30.826Z,,0,2,,5183.73500009533,response,ISIC_6271218.JPG,4,ISIC_0032701.JPG,ISIC_6271218.JPG,false,1,keypress(m),500,574881.0999999046,574880.9000000954,569680.379,569688.5999999046,569697.165,574890.524,8,400,9,,ISIC_0032701.JPG
break,html.Screen,4_58_1,2023-09-13T15:55:30.827Z,,0,,,NaN,,,,,,false,,,,574881.6999998093,574881.5999999046,,574881.3000001907,,574890.524,8,400,,,
break_continue,html.Screen,4_58_2,2023-09-13T15:55:30.827Z,,0,,,NaN,,,,,,false,,,,574882.0999999046,574882,,574881.9000000954,,574890.524,8,400,,,
sequence,flow.Sequence,4_58,2023-09-13T15:55:30.827Z,,0,,,5184.834999999963,completion,,,,,false,,,,574882.1999998093,574882,569680.379,569688.5,569697.165,574890.524,8,400,,,
trial,html.Screen,4_59_0,2023-09-13T15:55:35.373Z,,0,2,,4537.575999904657,response,ISIC_4408559.JPG,5,ISIC_0033386.JPG,ISIC_4408559.JPG,false,1,keypress(m),500,579428.3000001907,579428.0999999046,574873.942,574882.3000001907,574890.524,579432.712,8,400,10,,ISIC_0033386.JPG
break,html.Screen,4_59_1,2023-09-13T15:55:35.374Z,,0,,,NaN,,,,,,false,,,,579429.1999998093,579429,,579428.5999999046,,579432.712,8,400,,,
break_continue,html.Screen,4_59_2,2023-09-13T15:55:35.375Z,,0,,,NaN,,,,,,false,,,,579429.5999999046,579429.5,,579429.3000001907,,579432.712,8,400,,,
sequence,flow.Sequence,4_59,2023-09-13T15:55:35.375Z,,0,,,4538.976000000024,completion,,,,,false,,,,579429.9000000954,579429.5,574873.942,574882.3000001907,574890.524,579432.712,8,400,,,
trial,html.Screen,4_60_0,2023-09-13T15:55:40.962Z,,0,2,,5583.787999999942,response,ISIC_0032672.JPG,4,ISIC_0962121.JPG,ISIC_0962121.JPG,false,0,keypress(z),500,585016.5999999046,585016.5,579416.159,579430,579432.712,585026.922,8,400,11,,ISIC_0032672.JPG
break,html.Screen,4_60_1,2023-09-13T15:55:40.962Z,,0,,,NaN,,,,,,false,,,,585017.0999999046,585017,,585016.8000001907,,585026.922,8,400,,,
break_continue,html.Screen,4_60_2,2023-09-13T15:55:40.962Z,,0,,,NaN,,,,,,false,,,,585017.4000000954,585017.3000001907,,585017.1999998093,,585026.922,8,400,,,
sequence,flow.Sequence,4_60,2023-09-13T15:55:40.962Z,,0,,,5584.588000190677,completion,,,,,false,,,,585017.4000000954,585017.3000001907,579416.159,579429.9000000954,579432.712,585026.922,8,400,,,
trial,html.Screen,4_61_0,2023-09-13T15:55:45.973Z,,0,2,,5000.277999809245,response,ISIC_0072041.JPG,5,ISIC_2930792.JPG,ISIC_0072041.JPG,false,1,keypress(m),500,590027.5999999046,590027.1999998093,585010.316,585017.5,585026.922,590036.772,8,400,12,,ISIC_2930792.JPG
break,html.Screen,4_61_1,2023-09-13T15:55:45.975Z,,0,,,NaN,,,,,,false,,,,590029.6999998093,590029.3000001907,,590028.1999998093,,590036.772,8,400,,,
break_continue,html.Screen,4_61_2,2023-09-13T15:55:45.976Z,,0,,,NaN,,,,,,false,,,,590030.5999999046,590030.4000000954,,590030.0999999046,,590036.772,8,400,,,
sequence,flow.Sequence,4_61,2023-09-13T15:55:45.976Z,,0,,,5003.478000095347,completion,,,,,false,,,,590031,590030.4000000954,585010.316,585017.5,585026.922,590036.772,8,400,,,
trial,html.Screen,4_62_0,2023-09-13T15:55:51.089Z,,0,2,,5107.12800009537,response,ISIC_5367118.JPG,6,ISIC_4477599.JPG,ISIC_4477599.JPG,false,0,keypress(z),500,595144,595143.9000000954,590020.144,590031.3000001907,590036.772,595163.458,8,400,13,,ISIC_5367118.JPG
break,html.Screen,4_62_1,2023-09-13T15:55:51.089Z,,0,,,NaN,,,,,,false,,,,595144.5,595144.4000000954,,595144.1999998093,,595163.458,8,400,,,
break_continue,html.Screen,4_62_2,2023-09-13T15:55:51.090Z,,0,,,NaN,,,,,,false,,,,595144.6999998093,595144.5999999046,,595144.5999999046,,595163.458,8,400,,,
sequence,flow.Sequence,4_62,2023-09-13T15:55:51.090Z,,0,,,5107.827999904635,completion,,,,,false,,,,595144.6999998093,595144.5999999046,590020.144,590031.1999998093,590036.772,595163.458,8,400,,,
trial,html.Screen,4_63_0,2023-09-13T15:55:55.668Z,,0,2,,4559.641999904648,response,ISIC_4079108.JPG,5,ISIC_0061252.JPG,ISIC_4079108.JPG,false,1,keypress(m),500,599723.1999998093,599723.0999999046,595146.639,595144.8000001907,595163.458,599738.937,8,400,14,,ISIC_0061252.JPG
break,html.Screen,4_63_1,2023-09-13T15:55:55.669Z,,0,,,NaN,,,,,,false,,,,599723.6999998093,599723.5999999046,,599723.3000001907,,599738.937,8,400,,,
break_continue,html.Screen,4_63_2,2023-09-13T15:55:55.669Z,,0,,,NaN,,,,,,false,,,,599724,599723.8000001907,,599723.8000001907,,599738.937,8,400,,,
sequence,flow.Sequence,4_63,2023-09-13T15:55:55.669Z,,0,,,4560.342000190751,completion,,,,,false,,,,599724,599723.8000001907,595146.639,595144.8000001907,595163.458,599738.937,8,400,,,
trial,html.Screen,4_64_0,2023-09-13T15:56:01.926Z,,0,2,,6242.262999809231,response,ISIC_7748144.JPG,5,ISIC_0054973.JPG,ISIC_7748144.JPG,false,1,keypress(m),500,605981.3000001907,605981.1999998093,599722.186,599724,599738.937,605984.394,8,400,15,,ISIC_0054973.JPG
break,html.Screen,4_64_1,2023-09-13T15:56:01.927Z,,0,,,NaN,,,,,,false,,,,605982.0999999046,605981.8000001907,,605981.4000000954,,605984.394,8,400,,,
break_continue,html.Screen,4_64_2,2023-09-13T15:56:01.927Z,,0,,,NaN,,,,,,false,,,,605982.4000000954,605982.4000000954,,605982.1999998093,,605984.394,8,400,,,
sequence,flow.Sequence,4_64,2023-09-13T15:56:01.927Z,,0,,,6243.463000095333,completion,,,,,false,,,,605982.5,605982.4000000954,599722.186,599724,599738.937,605984.394,8,400,,,
trial,html.Screen,4_65_0,2023-09-13T15:56:06.955Z,,0,2,,5025.906000190764,response,ISIC_4810485.JPG,4,ISIC_2379908.JPG,ISIC_2379908.JPG,false,0,keypress(z),500,611010.5,611010.3000001907,605967.695,605982.5999999046,605984.394,611027.658,8,400,16,,ISIC_4810485.JPG
break,html.Screen,4_65_1,2023-09-13T15:56:06.957Z,,0,,,NaN,,,,,,false,,,,611011.6999998093,611011.3000001907,,611010.6999998093,,611027.658,8,400,,,
break_continue,html.Screen,4_65_2,2023-09-13T15:56:06.957Z,,0,,,NaN,,,,,,false,,,,611012.0999999046,611012,,611011.6999998093,,611027.658,8,400,,,
sequence,flow.Sequence,4_65,2023-09-13T15:56:06.957Z,,0,,,5027.606000000029,completion,,,,,false,,,,611012.3000001907,611012,605967.695,605982.5999999046,605984.394,611027.658,8,400,,,
trial,html.Screen,4_66_0,2023-09-13T15:56:12.063Z,,0,2,,5090.142000190681,response,ISIC_2558816.JPG,5,ISIC_8759207.JPG,ISIC_8759207.JPG,false,0,keypress(z),500,616118,616117.8000001907,611010.91,611012.5,611027.658,616120.815,8,400,17,,ISIC_2558816.JPG
break,html.Screen,4_66_1,2023-09-13T15:56:12.064Z,,0,,,NaN,,,,,,false,,,,616118.8000001907,616118.5999999046,,616118.1999998093,,616120.815,8,400,,,
break_continue,html.Screen,4_66_2,2023-09-13T15:56:12.064Z,,0,,,NaN,,,,,,false,,,,616119.1999998093,616119.0999999046,,616118.9000000954,,616120.815,8,400,,,
sequence,flow.Sequence,4_66,2023-09-13T15:56:12.064Z,,0,,,5091.441999904579,completion,,,,,false,,,,616119.4000000954,616119.0999999046,611010.91,611012.4000000954,611027.658,616120.815,8,400,,,
trial,html.Screen,4_67_0,2023-09-13T15:56:17.082Z,,0,2,,5014.985000190791,response,ISIC_0011801.JPG,7,ISIC_0032779.JPG,ISIC_0032779.JPG,false,0,keypress(z),500,621136,621135.8000001907,616104.112,616119.5,616120.815,621147.276,8,400,18,,ISIC_0011801.JPG
break,html.Screen,4_67_1,2023-09-13T15:56:17.083Z,,0,,,NaN,,,,,,false,,,,621136.5,621136.1999998093,,621136.0999999046,,621147.276,8,400,,,
break_continue,html.Screen,4_67_2,2023-09-13T15:56:17.083Z,,0,,,NaN,,,,,,false,,,,621136.8000001907,621136.6999998093,,621136.5999999046,,621147.276,8,400,,,
sequence,flow.Sequence,4_67,2023-09-13T15:56:17.083Z,,0,,,5015.884999809321,completion,,,,,false,,,,621137,621136.6999998093,616104.112,616119.4000000954,616120.815,621147.276,8,400,,,
trial,html.Screen,4_68_0,2023-09-13T15:56:23.516Z,,0,2,,6422.423999809311,response,ISIC_0002213.JPG,5,ISIC_1964243.JPG,ISIC_1964243.JPG,false,0,keypress(z),500,627569.8000001907,627569.6999998093,621130.629,621137,621147.276,627576.465,8,400,19,,ISIC_0002213.JPG
break,html.Screen,4_68_1,2023-09-13T15:56:23.517Z,,0,,,NaN,,,,,,false,,,,627570.0999999046,627570,,627569.9000000954,,627576.465,8,400,,,
break_continue,html.Screen,4_68_2,2023-09-13T15:56:23.517Z,,0,,,NaN,,,,,,false,,,,627570.3000001907,627570.1999998093,,627570.1999998093,,627576.465,8,400,,,
sequence,flow.Sequence,4_68,2023-09-13T15:56:23.517Z,,0,,,6422.923999809311,completion,,,,,false,,,,627570.5,627570.1999998093,621130.629,621137,621147.276,627576.465,8,400,,,
trial,html.Screen,4_69_0,2023-09-13T15:56:28.302Z,,0,2,,4779.035000000033,response,ISIC_0030219.JPG,6,ISIC_1477056.JPG,ISIC_0030219.JPG,false,1,keypress(m),500,632355.5999999046,632355.5,627559.711,627570.5,627576.465,632369.034,8,400,20,,ISIC_1477056.JPG
break,html.Screen,4_69_1,2023-09-13T15:56:28.302Z,,0,,,NaN,,,,,,false,,,,632356,632355.9000000954,,632355.8000001907,,632369.034,8,400,,,
break_continue,html.Screen,4_69_2,2023-09-13T15:56:28.303Z,,0,,,NaN,,,,,,false,,,,632356.1999998093,632356.0999999046,,632356.0999999046,,632369.034,8,400,,,
sequence,flow.Sequence,4_69,2023-09-13T15:56:28.303Z,,0,,,4779.634999904665,completion,,,,,false,,,,632356.1999998093,632356.0999999046,627559.711,627570.5,627576.465,632369.034,8,400,,,
trial,html.Screen,4_70_0,2023-09-13T15:56:32.848Z,,0,2,,4532.76600019075,response,ISIC_3098750.JPG,5,ISIC_0011227.JPG,ISIC_0011227.JPG,false,0,keypress(z),500,636901.9000000954,636901.8000001907,632352.397,632356.3000001907,632369.034,636911.357,8,400,21,,ISIC_3098750.JPG
break,html.Screen,4_70_1,2023-09-13T15:56:32.849Z,,0,,,NaN,,,,,,false,,,,636902.8000001907,636902.5,,636902.1999998093,,636911.357,8,400,,,
break_continue,html.Screen,4_70_2,2023-09-13T15:56:32.850Z,,0,,,NaN,,,,,,false,,,,636903.1999998093,636903.0999999046,,636902.8000001907,,636911.357,8,400,,,
sequence,flow.Sequence,4_70,2023-09-13T15:56:32.850Z,,0,,,4534.0659999046475,completion,,,,,false,,,,636903.3000001907,636903.0999999046,632352.397,632356.3000001907,632369.034,636911.357,8,400,,,
trial,html.Screen,4_71_0,2023-09-13T15:56:39.284Z,,0,2,,6425.64300000004,response,ISIC_0011136.JPG,5,ISIC_0024280.JPG,ISIC_0024280.JPG,false,0,keypress(z),500,643337.1999998093,643337,636894.503,636903.4000000954,636911.357,643340.421,8,400,22,,ISIC_0011136.JPG
break,html.Screen,4_71_1,2023-09-13T15:56:39.284Z,,0,,,NaN,,,,,,false,,,,643338,643337.8000001907,,643337.4000000954,,643340.421,8,400,,,
break_continue,html.Screen,4_71_2,2023-09-13T15:56:39.285Z,,0,,,NaN,,,,,,false,,,,643338.3000001907,643338.1999998093,,643338.0999999046,,643340.421,8,400,,,
sequence,flow.Sequence,4_71,2023-09-13T15:56:39.285Z,,0,,,6426.842999809305,completion,,,,,false,,,,643338.5,643338.1999998093,636894.503,636903.4000000954,636911.357,643340.421,8,400,,,
trial,html.Screen,4_72_0,2023-09-13T15:56:44.839Z,,0,2,,5552.079000000027,response,ISIC_0624779.JPG,6,ISIC_2134975.JPG,ISIC_0624779.JPG,false,1,keypress(m),500,648892.5999999046,648892.5,643323.697,643338.5999999046,643340.421,648901.323,8,400,23,,ISIC_2134975.JPG
break,html.Screen,4_72_1,2023-09-13T15:56:44.839Z,,0,,,NaN,,,,,,false,,,,648893,648892.9000000954,,648892.6999998093,,648901.323,8,400,,,
break_continue,html.Screen,4_72_2,2023-09-13T15:56:44.840Z,,0,,,NaN,,,,,,false,,,,648893.0999999046,648893.0999999046,,648893,,648901.323,8,400,,,
sequence,flow.Sequence,4_72,2023-09-13T15:56:44.840Z,,0,,,5552.67899990466,completion,,,,,false,,,,648893.3000001907,648893.0999999046,643323.697,643338.5999999046,643340.421,648901.323,8,400,,,
trial,html.Screen,4_73_0,2023-09-13T15:56:49.561Z,,0,2,,4712.776999904658,response,ISIC_5787517.JPG,5,ISIC_4436342.JPG,ISIC_4436342.JPG,false,0,keypress(z),500,653614.3000001907,653614.0999999046,648884.554,648893.3000001907,648901.323,653627.088,8,400,24,,ISIC_5787517.JPG
break,html.Screen,4_73_1,2023-09-13T15:56:49.561Z,,0,,,NaN,,,,,,false,,,,653614.8000001907,653614.6999998093,,653614.3000001907,,653627.088,8,400,,,
break_continue,html.Screen,4_73_2,2023-09-13T15:56:49.561Z,,0,,,NaN,,,,,,false,,,,653615.0999999046,653615,,653614.9000000954,,653627.088,8,400,,,
sequence,flow.Sequence,4_73,2023-09-13T15:56:49.562Z,,0,,,4713.677000000025,completion,,,,,false,,,,653615.0999999046,653615,648884.554,648893.3000001907,648901.323,653627.088,8,400,,,
trial,html.Screen,4_74_0,2023-09-13T15:56:56.155Z,,0,2,,6581.511999904644,response,ISIC_0072828.JPG,6,ISIC_4874581.JPG,ISIC_4874581.JPG,false,0,keypress(z),500,660208.8000001907,660208.5999999046,653610.424,653615.0999999046,653627.088,660223.414,8,400,25,,ISIC_0072828.JPG
break,html.Screen,4_74_1,2023-09-13T15:56:56.156Z,,0,,,NaN,,,,,,false,,,,660209.4000000954,660209.3000001907,,660208.9000000954,,660223.414,8,400,,,
break_continue,html.Screen,4_74_2,2023-09-13T15:56:56.156Z,,0,,,NaN,,,,,,false,,,,660209.5999999046,660209.5999999046,,660209.5,,660223.414,8,400,,,
sequence,flow.Sequence,4_74,2023-09-13T15:56:56.156Z,,0,,,6582.511999904644,completion,,,,,false,,,,660209.6999998093,660209.5999999046,653610.424,653615.0999999046,653627.088,660223.414,8,400,,,
trial,html.Screen,4_75_0,2023-09-13T15:57:02.192Z,,0,2,,6021.685999904643,response,ISIC_0399220.JPG,4,ISIC_0060937.JPG,ISIC_0060937.JPG,false,0,keypress(z),500,666245.3000001907,666245.0999999046,660206.543,660209.6999998093,660223.414,666251.648,8,400,26,,ISIC_0399220.JPG
break,html.Screen,4_75_1,2023-09-13T15:57:02.192Z,,0,,,NaN,,,,,,false,,,,666245.8000001907,666245.6999998093,,666245.4000000954,,666251.648,8,400,,,
break_continue,html.Screen,4_75_2,2023-09-13T15:57:02.192Z,,0,,,NaN,,,,,,false,,,,666246,666246,,666245.9000000954,,666251.648,8,400,,,
sequence,flow.Sequence,4_75,2023-09-13T15:57:02.192Z,,0,,,6022.58600000001,completion,,,,,false,,,,666246.0999999046,666246,660206.543,660209.6999998093,660223.414,666251.648,8,400,,,
trial,html.Screen,4_76_0,2023-09-13T15:57:06.610Z,,0,2,,4411.951999904588,response,ISIC_6385296.JPG,5,ISIC_7637091.JPG,ISIC_6385296.JPG,false,1,keypress(m),500,670663.8000001907,670663.5999999046,666234.993,666246.0999999046,666251.648,670676.925,8,400,27,,ISIC_7637091.JPG
break,html.Screen,4_76_1,2023-09-13T15:57:06.611Z,,0,,,NaN,,,,,,false,,,,670664.1999998093,670664.0999999046,,670663.8000001907,,670676.925,8,400,,,
break_continue,html.Screen,4_76_2,2023-09-13T15:57:06.611Z,,0,,,NaN,,,,,,false,,,,670664.4000000954,670664.4000000954,,670664.1999998093,,670676.925,8,400,,,
sequence,flow.Sequence,4_76,2023-09-13T15:57:06.611Z,,0,,,4412.752000095323,completion,,,,,false,,,,670664.4000000954,670664.4000000954,666234.993,666246.0999999046,666251.648,670676.925,8,400,,,
trial,html.Screen,4_77_0,2023-09-13T15:57:13.877Z,,0,2,,7252.174999904586,response,ISIC_3429835.JPG,5,ISIC_4645995.JPG,ISIC_4645995.JPG,false,0,keypress(z),500,677929.1999998093,677929.0999999046,670660.333,670664.5,670676.925,677941.151,8,400,28,,ISIC_3429835.JPG
break,html.Screen,4_77_1,2023-09-13T15:57:13.878Z,,0,,,NaN,,,,,,false,,,,677929.8000001907,677929.6999998093,,677929.3000001907,,677941.151,8,400,,,
break_continue,html.Screen,4_77_2,2023-09-13T15:57:13.878Z,,0,,,NaN,,,,,,false,,,,677930,677930,,677929.9000000954,,677941.151,8,400,,,
sequence,flow.Sequence,4_77,2023-09-13T15:57:13.878Z,,0,,,7253.074999999953,completion,,,,,false,,,,677930.0999999046,677930,670660.333,670664.5,670676.925,677941.151,8,400,,,
trial,html.Screen,4_78_0,2023-09-13T15:57:19.464Z,,0,2,,5574.548999809311,response,ISIC_9409255.JPG,5,ISIC_0006821.JPG,ISIC_0006821.JPG,false,0,keypress(z),500,683515.9000000954,683515.6999998093,677924.345,677930.1999998093,677941.151,683518.55,8,400,29,,ISIC_9409255.JPG
break,html.Screen,4_78_1,2023-09-13T15:57:19.464Z,,0,,,NaN,,,,,,false,,,,683516.3000001907,683516.1999998093,,683516,,683518.55,8,400,,,
break_continue,html.Screen,4_78_2,2023-09-13T15:57:19.464Z,,0,,,NaN,,,,,,false,,,,683516.4000000954,683516.4000000954,,683516.3000001907,,683518.55,8,400,,,
sequence,flow.Sequence,4_78,2023-09-13T15:57:19.464Z,,0,,,5575.249000095413,completion,,,,,false,,,,683516.5,683516.4000000954,677924.345,677930.1999998093,677941.151,683518.55,8,400,,,
trial,html.Screen,4_79_0,2023-09-13T15:57:23.659Z,,0,2,,4192.049999904586,response,ISIC_3429835.JPG,5,ISIC_6324832.JPG,ISIC_6324832.JPG,false,0,keypress(z),500,687710.8000001907,687710.5999999046,683501.894,683516.5999999046,683518.55,687743.549,8,400,30,,ISIC_3429835.JPG
break,html.Screen,4_79_1,2023-09-13T15:57:23.659Z,,0,,,NaN,,,,,,false,,,,687711.3000001907,687711.1999998093,,687710.9000000954,,687743.549,8,400,,,
break_continue,html.Screen,4_79_2,2023-09-13T15:57:23.659Z,,0,,,NaN,,,,,,false,,,,687711.5999999046,687711.5,,687711.4000000954,,687743.549,8,400,,,
sequence,flow.Sequence,4_79,2023-09-13T15:57:23.659Z,,0,,,4192.949999999953,completion,,,,,false,,,,687711.6999998093,687711.5,683501.894,683516.5999999046,683518.55,687743.549,8,400,,,
trial,html.Screen,4_80_0,2023-09-13T15:57:28.830Z,,0,2,,5138.0509999046335,response,ISIC_0000450.JPG,5,ISIC_0014480.JPG,ISIC_0014480.JPG,false,0,keypress(z),500,692881.5999999046,692881.5999999046,687726.837,687711.6999998093,687743.549,692886.789,8,400,31,,ISIC_0000450.JPG
break,html.Screen,4_80_1,2023-09-13T15:57:28.830Z,,0,,,NaN,,,,,,false,,,,692882.0999999046,692882,,692881.8000001907,,692886.789,8,400,,,
break_continue,html.Screen,4_80_2,2023-09-13T15:57:28.830Z,,0,,,NaN,,,,,,false,,,,692882.3000001907,692882.3000001907,,692882.3000001907,,692886.789,8,400,,,
sequence,flow.Sequence,4_80,2023-09-13T15:57:28.830Z,,0,,,5138.751000190736,completion,,,,,false,,,,692882.4000000954,692882.3000001907,687726.837,687711.6999998093,687743.549,692886.789,8,400,,,
trial,html.Screen,4_81_0,2023-09-13T15:57:32.965Z,,0,2,,4130.511000190745,response,ISIC_0033121.JPG,5,ISIC_0009230.JPG,ISIC_0009230.JPG,false,0,keypress(z),500,697017.5,697017.3000001907,692870.293,692882.5,692886.789,697028.203,8,400,32,,ISIC_0033121.JPG
break,html.Screen,4_81_1,2023-09-13T15:57:32.966Z,,0,,,NaN,,,,,,false,,,,697018.4000000954,697018.1999998093,,697017.6999998093,,697028.203,8,400,,,
break_continue,html.Screen,4_81_2,2023-09-13T15:57:32.967Z,,0,,,NaN,,,,,,false,,,,697019,697018.8000001907,,697018.5999999046,,697028.203,8,400,,,
sequence,flow.Sequence,4_81,2023-09-13T15:57:32.967Z,,0,,,4132.011000190745,completion,,,,,false,,,,697019.1999998093,697018.8000001907,692870.293,692882.5,692886.789,697028.203,8,400,,,
trial,html.Screen,4_82_0,2023-09-13T15:57:38.093Z,,0,2,,5116.197000095388,response,ISIC_9618489.JPG,5,ISIC_0034162.JPG,ISIC_9618489.JPG,false,1,keypress(m),500,702144.8000001907,702144.4000000954,697011.543,697019.4000000954,697028.203,702154.958,8,400,33,,ISIC_0034162.JPG
break,html.Screen,4_82_1,2023-09-13T15:57:38.094Z,,0,,,NaN,,,,,,false,,,,702145.9000000954,702145.5999999046,,702145,,702154.958,8,400,,,
break_continue,html.Screen,4_82_2,2023-09-13T15:57:38.094Z,,0,,,NaN,,,,,,false,,,,702146.5999999046,702146.4000000954,,702146.0999999046,,702154.958,8,400,,,
sequence,flow.Sequence,4_82,2023-09-13T15:57:38.095Z,,0,,,5118.197000095388,completion,,,,,false,,,,702146.8000001907,702146.4000000954,697011.543,697019.3000001907,697028.203,702154.958,8,400,,,
trial,html.Screen,4_83_0,2023-09-13T15:57:42.580Z,,0,2,,4476.942000095383,response,ISIC_0065807.JPG,5,ISIC_0024481.JPG,ISIC_0024481.JPG,false,0,keypress(z),500,706632,706631.9000000954,702138.19,702147,702154.958,706647,8,400,34,,ISIC_0065807.JPG
break,html.Screen,4_83_1,2023-09-13T15:57:42.580Z,,0,,,NaN,,,,,,false,,,,706632.5,706632.3000001907,,706632.0999999046,,706647,8,400,,,
break_continue,html.Screen,4_83_2,2023-09-13T15:57:42.581Z,,0,,,NaN,,,,,,false,,,,706632.6999998093,706632.6999998093,,706632.5999999046,,706647,8,400,,,
sequence,flow.Sequence,4_83,2023-09-13T15:57:42.581Z,,0,,,4477.741999809281,completion,,,,,false,,,,706632.8000001907,706632.6999998093,702138.19,702147,702154.958,706647,8,400,,,
trial,html.Screen,4_84_0,2023-09-13T15:57:47.830Z,,0,2,,5234.599999904633,response,ISIC_6184891.JPG,5,ISIC_8462070.JPG,ISIC_6184891.JPG,false,1,keypress(m),500,711881.8000001907,711881.5999999046,706630.227,706632.9000000954,706647,711890.514,8,400,35,,ISIC_8462070.JPG
break,html.Screen,4_84_1,2023-09-13T15:57:47.830Z,,0,,,NaN,,,,,,false,,,,711882.5999999046,711882.4000000954,,711882,,711890.514,8,400,,,
break_continue,html.Screen,4_84_2,2023-09-13T15:57:47.831Z,,0,,,NaN,,,,,,false,,,,711883,711882.9000000954,,711882.6999998093,,711890.514,8,400,,,
sequence,flow.Sequence,4_84,2023-09-13T15:57:47.831Z,,0,,,5235.900000095367,completion,,,,,false,,,,711883.0999999046,711882.9000000954,706630.227,706632.8000001907,706647,711890.514,8,400,,,
trial,html.Screen,4_85_0,2023-09-13T15:57:53.291Z,,0,2,,5452.085999904666,response,ISIC_0010067.JPG,4,ISIC_9772383.JPG,ISIC_9772383.JPG,false,0,keypress(z),500,717342.8000001907,717342.5999999046,711873.764,711883.3000001907,711890.514,717351.139,8,400,36,,ISIC_0010067.JPG
break,html.Screen,4_85_1,2023-09-13T15:57:53.291Z,,0,,,NaN,,,,,,false,,,,717343.4000000954,717343.1999998093,,717342.9000000954,,717351.139,8,400,,,
break_continue,html.Screen,4_85_2,2023-09-13T15:57:53.292Z,,0,,,NaN,,,,,,false,,,,717343.6999998093,717343.5999999046,,717343.4000000954,,717351.139,8,400,,,
sequence,flow.Sequence,4_85,2023-09-13T15:57:53.292Z,,0,,,5453.085999904666,completion,,,,,false,,,,717343.8000001907,717343.5999999046,711873.764,711883.1999998093,711890.514,717351.139,8,400,,,
trial,html.Screen,4_86_0,2023-09-13T15:57:59.789Z,,0,2,,6490.060999809299,response,ISIC_0006158.JPG,5,ISIC_5585279.JPG,ISIC_0006158.JPG,false,1,keypress(m),500,723841.3000001907,723841.1999998093,717334.439,717344,717351.139,723847.156,8,400,37,,ISIC_5585279.JPG
break,html.Screen,4_86_1,2023-09-13T15:57:59.790Z,,0,,,NaN,,,,,,false,,,,723841.6999998093,723841.5999999046,,723841.4000000954,,723847.156,8,400,,,
break_continue,html.Screen,4_86_2,2023-09-13T15:57:59.790Z,,0,,,NaN,,,,,,false,,,,723841.9000000954,723841.9000000954,,723841.8000001907,,723847.156,8,400,,,
sequence,flow.Sequence,4_86,2023-09-13T15:57:59.790Z,,0,,,6490.761000095401,completion,,,,,false,,,,723841.9000000954,723841.9000000954,717334.439,717343.9000000954,717351.139,723847.156,8,400,,,
trial,html.Screen,4_87_0,2023-09-13T15:58:07.086Z,,0,2,,7291.244000095408,response,ISIC_0014129.JPG,5,ISIC_5179503.JPG,ISIC_5179503.JPG,false,0,keypress(z),500,731138.5999999046,731138.4000000954,723830.444,723842,723847.156,731161.319,8,400,38,,ISIC_0014129.JPG
break,html.Screen,4_87_1,2023-09-13T15:58:07.087Z,,0,,,NaN,,,,,,false,,,,731139,731138.9000000954,,731138.5999999046,,731161.319,8,400,,,
break_continue,html.Screen,4_87_2,2023-09-13T15:58:07.087Z,,0,,,NaN,,,,,,false,,,,731139.1999998093,731139.0999999046,,731139.0999999046,,731161.319,8,400,,,
sequence,flow.Sequence,4_87,2023-09-13T15:58:07.087Z,,0,,,7291.943999904674,completion,,,,,false,,,,731139.1999998093,731139.0999999046,723830.444,723842,723847.156,731161.319,8,400,,,
trial,html.Screen,4_88_0,2023-09-13T15:58:13.586Z,,0,2,,6475.280999904615,response,ISIC_0062133.JPG,5,ISIC_5194705.JPG,ISIC_5194705.JPG,false,0,keypress(z),500,737636.8000001907,737636.5999999046,731144.584,731139.1999998093,731161.319,737640.546,8,400,39,,ISIC_0062133.JPG
break,html.Screen,4_88_1,2023-09-13T15:58:13.587Z,,0,,,NaN,,,,,,false,,,,737637.3000001907,737637.0999999046,,737636.8000001907,,737640.546,8,400,,,
break_continue,html.Screen,4_88_2,2023-09-13T15:58:13.587Z,,0,,,NaN,,,,,,false,,,,737637.5999999046,737637.5999999046,,737637.5,,737640.546,8,400,,,
sequence,flow.Sequence,4_88,2023-09-13T15:58:13.587Z,,0,,,6476.280999904615,completion,,,,,false,,,,737637.6999998093,737637.5999999046,731144.584,731139.1999998093,731161.319,737640.546,8,400,,,
trial,html.Screen,4_89_0,2023-09-13T15:58:19.125Z,,0,2,,5534.55399990466,response,ISIC_0032635.JPG,5,ISIC_0005686.JPG,ISIC_0005686.JPG,false,0,keypress(z),500,743175.3000001907,743175.0999999046,737623.961,737637.6999998093,737640.546,743201.465,8,400,40,,ISIC_0032635.JPG
break,html.Screen,4_89_1,2023-09-13T15:58:19.125Z,,0,,,NaN,,,,,,false,,,,743175.6999998093,743175.5999999046,,743175.4000000954,,743201.465,8,400,,,
break_continue,html.Screen,4_89_2,2023-09-13T15:58:19.125Z,,0,,,NaN,,,,,,false,,,,743175.9000000954,743175.9000000954,,743175.8000001907,,743201.465,8,400,,,
sequence,flow.Sequence,4_89,2023-09-13T15:58:19.125Z,,0,,,5535.354000095394,completion,,,,,false,,,,743176,743175.9000000954,737623.961,737637.6999998093,737640.546,743201.465,8,400,,,
trial,html.Screen,4_90_0,2023-09-13T15:58:26.776Z,,0,2,,7624.8350001907675,response,ISIC_9716860.JPG,6,ISIC_3800974.JPG,ISIC_3800974.JPG,false,0,keypress(z),500,750826.4000000954,750826.3000001907,743184.712,743176,743201.465,750832.931,8,400,41,,ISIC_9716860.JPG
break,html.Screen,4_90_1,2023-09-13T15:58:26.776Z,,0,,,NaN,,,,,,false,,,,750827,750826.8000001907,,750826.5999999046,,750832.931,8,400,,,
break_continue,html.Screen,4_90_2,2023-09-13T15:58:26.777Z,,0,,,NaN,,,,,,false,,,,750827.3000001907,750827.1999998093,,750827.0999999046,,750832.931,8,400,,,
sequence,flow.Sequence,4_90,2023-09-13T15:58:26.777Z,,0,,,7625.734999809298,completion,,,,,false,,,,750827.4000000954,750827.1999998093,743184.712,743176,743201.465,750832.931,8,400,,,
trial,html.Screen,4_91_0,2023-09-13T15:58:31.714Z,,0,2,,4931.369000190753,response,ISIC_0000179.JPG,6,ISIC_0054651.JPG,ISIC_0000179.JPG,false,1,keypress(m),500,755764.4000000954,755764.3000001907,750816.222,750827.4000000954,750832.931,755775.856,8,400,42,,ISIC_0054651.JPG
break,html.Screen,4_91_1,2023-09-13T15:58:31.714Z,,0,,,NaN,,,,,,false,,,,755765.0999999046,755764.9000000954,,755764.5,,755775.856,8,400,,,
break_continue,html.Screen,4_91_2,2023-09-13T15:58:31.715Z,,0,,,NaN,,,,,,false,,,,755765.3000001907,755765.1999998093,,755765.1999998093,,755775.856,8,400,,,
sequence,flow.Sequence,4_91,2023-09-13T15:58:31.715Z,,0,,,4932.268999809283,completion,,,,,false,,,,755765.5,755765.1999998093,750816.222,750827.4000000954,750832.931,755775.856,8,400,,,
trial,html.Screen,4_92_0,2023-09-13T15:58:38.443Z,,0,2,,6717.743999904604,response,ISIC_6209119.JPG,6,ISIC_0156642.JPG,ISIC_6209119.JPG,false,1,keypress(m),500,762493.8000001907,762493.5999999046,755759.162,755765.5999999046,755775.856,762505.591,8,400,43,,ISIC_0156642.JPG
break,html.Screen,4_92_1,2023-09-13T15:58:38.444Z,,0,,,NaN,,,,,,false,,,,762494.9000000954,762494.5999999046,,762494,,762505.591,8,400,,,
break_continue,html.Screen,4_92_2,2023-09-13T15:58:38.445Z,,0,,,NaN,,,,,,false,,,,762495.1999998093,762495.0999999046,,762494.9000000954,,762505.591,8,400,,,
sequence,flow.Sequence,4_92,2023-09-13T15:58:38.445Z,,0,,,6719.243999904604,completion,,,,,false,,,,762495.3000001907,762495.0999999046,755759.162,755765.5999999046,755775.856,762505.591,8,400,,,
trial,html.Screen,4_93_0,2023-09-13T15:58:43.456Z,,0,2,,5000.60899980925,response,ISIC_0064344.JPG,5,ISIC_5982769.JPG,ISIC_5982769.JPG,false,0,keypress(z),500,767506.3000001907,767506.1999998093,762488.962,762495.3000001907,762505.591,767532.09,8,400,44,,ISIC_0064344.JPG
break,html.Screen,4_93_1,2023-09-13T15:58:43.456Z,,0,,,NaN,,,,,,false,,,,767506.9000000954,767506.6999998093,,767506.3000001907,,767532.09,8,400,,,
break_continue,html.Screen,4_93_2,2023-09-13T15:58:43.456Z,,0,,,NaN,,,,,,false,,,,767507.0999999046,767507.0999999046,,767506.9000000954,,767532.09,8,400,,,
sequence,flow.Sequence,4_93,2023-09-13T15:58:43.457Z,,0,,,5001.508999904618,completion,,,,,false,,,,767507.1999998093,767507.0999999046,762488.962,762495.3000001907,762505.591,767532.09,8,400,,,
trial,html.Screen,4_94_0,2023-09-13T15:58:49.044Z,,0,2,,5561.910000000033,response,ISIC_9422630.JPG,5,ISIC_0046504.JPG,ISIC_9422630.JPG,false,1,keypress(m),500,773094.1999998093,773094,767515.42,767507.3000001907,767532.09,773109.597,8,400,45,,ISIC_0046504.JPG
break,html.Screen,4_94_1,2023-09-13T15:58:49.044Z,,0,,,NaN,,,,,,false,,,,773094.8000001907,773094.6999998093,,773094.4000000954,,773109.597,8,400,,,
break_continue,html.Screen,4_94_2,2023-09-13T15:58:49.044Z,,0,,,NaN,,,,,,false,,,,773095.0999999046,773095,,773094.9000000954,,773109.597,8,400,,,
sequence,flow.Sequence,4_94,2023-09-13T15:58:49.045Z,,0,,,5562.910000000033,completion,,,,,false,,,,773095.1999998093,773095,767515.42,767507.3000001907,767532.09,773109.597,8,400,,,
trial,html.Screen,4_95_0,2023-09-13T15:58:54.310Z,,0,2,,5250.703000190784,response,ISIC_9826778.JPG,6,ISIC_5366657.JPG,ISIC_9826778.JPG,false,1,keypress(m),500,778360.4000000954,778360.3000001907,773092.943,773095.3000001907,773109.597,778369.84,8,400,46,,ISIC_5366657.JPG
break,html.Screen,4_95_1,2023-09-13T15:58:54.310Z,,0,,,NaN,,,,,,false,,,,778361,778360.8000001907,,778360.5,,778369.84,8,400,,,
break_continue,html.Screen,4_95_2,2023-09-13T15:58:54.310Z,,0,,,NaN,,,,,,false,,,,778361.0999999046,778361,,778361,,778369.84,8,400,,,
sequence,flow.Sequence,4_95,2023-09-13T15:58:54.311Z,,0,,,5251.403000000049,completion,,,,,false,,,,778361.0999999046,778361,773092.943,773095.1999998093,773109.597,778369.84,8,400,,,
trial,html.Screen,4_96_0,2023-09-13T15:58:59.831Z,,0,2,,5512.0600000954,response,ISIC_0032181.JPG,6,ISIC_4967639.JPG,ISIC_4967639.JPG,false,0,keypress(z),500,783882.1999998093,783881.9000000954,778353.162,778361.3000001907,778369.84,783897.197,8,400,47,,ISIC_0032181.JPG
break,html.Screen,4_96_1,2023-09-13T15:58:59.832Z,,0,,,NaN,,,,,,false,,,,783882.8000001907,783882.5999999046,,783882.1999998093,,783897.197,8,400,,,
break_continue,html.Screen,4_96_2,2023-09-13T15:58:59.832Z,,0,,,NaN,,,,,,false,,,,783883.1999998093,783883,,783882.9000000954,,783897.197,8,400,,,
sequence,flow.Sequence,4_96,2023-09-13T15:58:59.833Z,,0,,,5513.160000000033,completion,,,,,false,,,,783883.1999998093,783883,778353.162,778361.3000001907,778369.84,783897.197,8,400,,,
trial,html.Screen,4_97_0,2023-09-13T15:59:06.176Z,,0,2,,6329.703000095324,response,ISIC_0013411.JPG,4,ISIC_6038355.JPG,ISIC_0013411.JPG,false,1,keypress(m),500,790227.0999999046,790226.9000000954,783880.531,783883.3000001907,783897.197,790242.957,8,400,48,,ISIC_6038355.JPG
break,html.Screen,4_97_1,2023-09-13T15:59:06.177Z,,0,,,NaN,,,,,,false,,,,790228.0999999046,790227.8000001907,,790227.3000001907,,790242.957,8,400,,,
break_continue,html.Screen,4_97_2,2023-09-13T15:59:06.178Z,,0,,,NaN,,,,,,false,,,,790228.5,790228.3000001907,,790228.1999998093,,790242.957,8,400,,,
sequence,flow.Sequence,4_97,2023-09-13T15:59:06.178Z,,0,,,6331.103000190691,completion,,,,,false,,,,790228.5999999046,790228.3000001907,783880.531,783883.3000001907,783897.197,790242.957,8,400,,,
trial,html.Screen,4_98_0,2023-09-13T15:59:11.012Z,,0,2,,4819.443000095314,response,ISIC_0030653.JPG,5,ISIC_0061918.JPG,ISIC_0030653.JPG,false,1,keypress(m),500,795062.5999999046,795062.4000000954,790226.2,790228.5999999046,790242.957,795068.949,8,400,49,,ISIC_0061918.JPG
break,html.Screen,4_98_1,2023-09-13T15:59:11.013Z,,0,,,NaN,,,,,,false,,,,795063.1999998093,795063,,795062.6999998093,,795068.949,8,400,,,
break_continue,html.Screen,4_98_2,2023-09-13T15:59:11.013Z,,0,,,NaN,,,,,,false,,,,795063.4000000954,795063.4000000954,,795063.3000001907,,795068.949,8,400,,,
sequence,flow.Sequence,4_98,2023-09-13T15:59:11.013Z,,0,,,4820.443000095314,completion,,,,,false,,,,795063.5,795063.4000000954,790226.2,790228.5999999046,790242.957,795068.949,8,400,,,
trial,html.Screen,4_99_0,2023-09-13T15:59:16.457Z,,0,2,,5436.750999809243,response,ISIC_0011136.JPG,6,ISIC_6460137.JPG,ISIC_6460137.JPG,false,0,keypress(z),500,800505.9000000954,800505.6999998093,795052.327,795063.5999999046,795068.949,800512.935,8,400,50,,ISIC_0011136.JPG
break,html.Screen,4_99_1,2023-09-13T15:59:26.451Z,,0,,,10002.886999999988,timeout,,,,,false,,,,810499.8000001907,810499.139,800496.208,800506,800512.935,810515.822,8,400,,,
break_continue,html.Screen,4_99_2,2023-09-13T16:00:22.657Z,,0,,,56163.677999999956,response,,,,,false,continue,keypress(Space),,866704.8000001907,866679.5,810499.139,810499.9000000954,810515.822,866708.347,8,400,,,
sequence,flow.Sequence,4_99,2023-09-13T16:00:22.657Z,,0,,,71610.55099999998,completion,,,,,false,,,,866705,866679.5,795052.327,795063.5999999046,795068.949,866708.347,8,400,,,
trial,html.Screen,4_100_0,2023-09-13T16:00:28.952Z,,0,3,,6291.153000000049,response,ISIC_0029591.JPG,5,ISIC_0010912.JPG,ISIC_0010912.JPG,false,0,keypress(z),500,872999.6999998093,872999.5,866691.853,866705.0999999046,866708.347,873003.981,8,400,1,,ISIC_0029591.JPG
break,html.Screen,4_100_1,2023-09-13T16:00:28.952Z,,0,,,NaN,,,,,,false,,,,873000.0999999046,873000,,872999.8000001907,,873003.981,8,400,,,
break_continue,html.Screen,4_100_2,2023-09-13T16:00:28.952Z,,0,,,NaN,,,,,,false,,,,873000.3000001907,873000.3000001907,,873000.0999999046,,873003.981,8,400,,,
sequence,flow.Sequence,4_100,2023-09-13T16:00:28.953Z,,0,,,6291.953000190784,completion,,,,,false,,,,873000.4000000954,873000.3000001907,866691.853,866705.0999999046,866708.347,873003.981,8,400,,,
trial,html.Screen,4_101_0,2023-09-13T16:00:35.674Z,,0,3,,6717.319000190706,response,ISIC_0024735.JPG,5,ISIC_0069056.JPG,ISIC_0069056.JPG,false,0,keypress(z),500,879721.4000000954,879721.3000001907,872987.369,873000.4000000954,873003.981,879733.763,8,400,2,,ISIC_0024735.JPG
break,html.Screen,4_101_1,2023-09-13T16:00:35.674Z,,0,,,NaN,,,,,,false,,,,879721.9000000954,879721.8000001907,,879721.5,,879733.763,8,400,,,
break_continue,html.Screen,4_101_2,2023-09-13T16:00:35.674Z,,0,,,NaN,,,,,,false,,,,879722.1999998093,879722.0999999046,,879722,,879733.763,8,400,,,
sequence,flow.Sequence,4_101,2023-09-13T16:00:35.674Z,,0,,,6718.118999904604,completion,,,,,false,,,,879722.3000001907,879722.0999999046,872987.369,873000.4000000954,873003.981,879733.763,8,400,,,
trial,html.Screen,4_102_0,2023-09-13T16:00:41.775Z,,0,3,,6088.637000095332,response,ISIC_3087402.JPG,5,ISIC_0025812.JPG,ISIC_3087402.JPG,false,1,keypress(m),500,885822.5,885822.4000000954,879717.056,879722.4000000954,879733.763,885845.627,8,400,3,,ISIC_0025812.JPG
break,html.Screen,4_102_1,2023-09-13T16:00:41.775Z,,0,,,NaN,,,,,,false,,,,885822.9000000954,885822.8000001907,,885822.5,,885845.627,8,400,,,
break_continue,html.Screen,4_102_2,2023-09-13T16:00:41.775Z,,0,,,NaN,,,,,,false,,,,885823,885823,,885822.9000000954,,885845.627,8,400,,,
sequence,flow.Sequence,4_102,2023-09-13T16:00:41.775Z,,0,,,6089.236999999965,completion,,,,,false,,,,885823.0999999046,885823,879717.056,879722.3000001907,879733.763,885845.627,8,400,,,
trial,html.Screen,4_103_0,2023-09-13T16:00:47.184Z,,0,3,,5386.273000095389,response,ISIC_5581931.JPG,5,ISIC_4724660.JPG,ISIC_4724660.JPG,false,0,keypress(z),500,891232.0999999046,891231.9000000954,885828.966,885823.0999999046,885845.627,891239.552,8,400,4,,ISIC_5581931.JPG
break,html.Screen,4_103_1,2023-09-13T16:00:47.185Z,,0,,,NaN,,,,,,false,,,,891232.5999999046,891232.5,,891232.1999998093,,891239.552,8,400,,,
break_continue,html.Screen,4_103_2,2023-09-13T16:00:47.185Z,,0,,,NaN,,,,,,false,,,,891232.9000000954,891232.8000001907,,891232.6999998093,,891239.552,8,400,,,
sequence,flow.Sequence,4_103,2023-09-13T16:00:47.185Z,,0,,,5387.173000190756,completion,,,,,false,,,,891233,891232.8000001907,885828.966,885823.0999999046,885845.627,891239.552,8,400,,,
trial,html.Screen,4_104_0,2023-09-13T16:00:53.090Z,,0,3,,5898.547999904607,response,ISIC_0059273.JPG,4,ISIC_3826102.JPG,ISIC_3826102.JPG,false,0,keypress(z),500,897138.1999998093,897138.0999999046,891222.937,891233,891239.552,897167.69,8,400,5,,ISIC_0059273.JPG
break,html.Screen,4_104_1,2023-09-13T16:00:53.091Z,,0,,,NaN,,,,,,false,,,,897138.8000001907,897138.6999998093,,897138.4000000954,,897167.69,8,400,,,
break_continue,html.Screen,4_104_2,2023-09-13T16:00:53.091Z,,0,,,NaN,,,,,,false,,,,897139,897138.9000000954,,897138.8000001907,,897167.69,8,400,,,
sequence,flow.Sequence,4_104,2023-09-13T16:00:53.091Z,,0,,,5899.348000095342,completion,,,,,false,,,,897139.0999999046,897138.9000000954,891222.937,891233,891239.552,897167.69,8,400,,,
trial,html.Screen,4_105_0,2023-09-13T16:01:02.069Z,,0,3,,8949.009999809321,response,ISIC_0004848.JPG,5,ISIC_0776189.JPG,ISIC_0004848.JPG,false,1,keypress(m),500,906116.8000001907,906116.6999998093,897150.951,897139.1999998093,897167.69,906118.461,8,400,6,,ISIC_0776189.JPG
break,html.Screen,4_105_1,2023-09-13T16:01:02.070Z,,0,,,NaN,,,,,,false,,,,906117.5,906117.3000001907,,906116.9000000954,,906118.461,8,400,,,
break_continue,html.Screen,4_105_2,2023-09-13T16:01:02.070Z,,0,,,NaN,,,,,,false,,,,906117.8000001907,906117.6999998093,,906117.5,,906118.461,8,400,,,
sequence,flow.Sequence,4_105,2023-09-13T16:01:02.070Z,,0,,,8950.009999809321,completion,,,,,false,,,,906117.9000000954,906117.6999998093,897150.951,897139.1999998093,897167.69,906118.461,8,400,,,
trial,html.Screen,4_106_0,2023-09-13T16:01:08.380Z,,0,3,,6309.738999809255,response,ISIC_8485716.JPG,5,ISIC_2936321.JPG,ISIC_8485716.JPG,false,1,keypress(m),500,912428.3000001907,912428.1999998093,906101.899,906117.9000000954,906118.461,912430.735,8,400,7,,ISIC_2936321.JPG
break,html.Screen,4_106_1,2023-09-13T16:01:08.381Z,,0,,,NaN,,,,,,false,,,,912429,912428.8000001907,,912428.4000000954,,912430.735,8,400,,,
break_continue,html.Screen,4_106_2,2023-09-13T16:01:08.381Z,,0,,,NaN,,,,,,false,,,,912429.1999998093,912429.1999998093,,912429.0999999046,,912430.735,8,400,,,
sequence,flow.Sequence,4_106,2023-09-13T16:01:08.382Z,,0,,,6310.738999809255,completion,,,,,false,,,,912429.4000000954,912429.1999998093,906101.899,906117.9000000954,906118.461,912430.735,8,400,,,
trial,html.Screen,4_107_0,2023-09-13T16:01:13.664Z,,0,3,,5281.065000190749,response,ISIC_6392461.JPG,5,ISIC_0016094.JPG,ISIC_6392461.JPG,false,1,keypress(m),500,917712,917711.8000001907,912414.101,912429.5,912430.735,917724.402,8,400,8,,ISIC_0016094.JPG
break,html.Screen,4_107_1,2023-09-13T16:01:13.665Z,,0,,,NaN,,,,,,false,,,,917712.8000001907,917712.6999998093,,917712.1999998093,,917724.402,8,400,,,
break_continue,html.Screen,4_107_2,2023-09-13T16:01:13.665Z,,0,,,NaN,,,,,,false,,,,917713.3000001907,917713.0999999046,,917713,,917724.402,8,400,,,
sequence,flow.Sequence,4_107,2023-09-13T16:01:13.666Z,,0,,,5282.3649999046465,completion,,,,,false,,,,917713.4000000954,917713.0999999046,912414.101,912429.5,912430.735,917724.402,8,400,,,
trial,html.Screen,4_108_0,2023-09-13T16:01:18.676Z,,0,3,,4999.697999904631,response,ISIC_3065032.JPG,5,ISIC_0071944.JPG,ISIC_3065032.JPG,false,1,keypress(m),500,922724.0999999046,922724.0999999046,917707.723,917713.5,917724.402,922750.825,8,400,9,,ISIC_0071944.JPG
break,html.Screen,4_108_1,2023-09-13T16:01:18.677Z,,0,,,NaN,,,,,,false,,,,922724.8000001907,922724.5999999046,,922724.3000001907,,922750.825,8,400,,,
break_continue,html.Screen,4_108_2,2023-09-13T16:01:18.677Z,,0,,,NaN,,,,,,false,,,,922725,922725,,922724.9000000954,,922750.825,8,400,,,
sequence,flow.Sequence,4_108,2023-09-13T16:01:18.677Z,,0,,,5000.597999999998,completion,,,,,false,,,,922725.1999998093,922725,917707.723,917713.5,917724.402,922750.825,8,400,,,
trial,html.Screen,4_109_0,2023-09-13T16:01:24.456Z,,0,3,,5751.575000095414,response,ISIC_0351547.JPG,5,ISIC_4533833.JPG,ISIC_0351547.JPG,false,1,keypress(m),500,928502.5,928502.4000000954,922734.088,922725.1999998093,922750.825,928512.111,8,400,10,,ISIC_4533833.JPG
break,html.Screen,4_109_1,2023-09-13T16:01:24.457Z,,0,,,NaN,,,,,,false,,,,928502.9000000954,928502.8000001907,,928502.5999999046,,928512.111,8,400,,,
break_continue,html.Screen,4_109_2,2023-09-13T16:01:24.457Z,,0,,,NaN,,,,,,false,,,,928503,928503,,928502.9000000954,,928512.111,8,400,,,
sequence,flow.Sequence,4_109,2023-09-13T16:01:24.457Z,,0,,,5752.175000000047,completion,,,,,false,,,,928503,928503,922734.088,922725.1999998093,922750.825,928512.111,8,400,,,
trial,html.Screen,4_110_0,2023-09-13T16:01:29.339Z,,0,3,,4872.588999809232,response,ISIC_1009042.JPG,4,ISIC_0028156.JPG,ISIC_1009042.JPG,false,1,keypress(m),500,933384.9000000954,933384.6999998093,928495.342,928503.1999998093,928512.111,933388.164,8,400,11,,ISIC_0028156.JPG
break,html.Screen,4_110_1,2023-09-13T16:01:29.340Z,,0,,,NaN,,,,,,false,,,,933385.8000001907,933385.4000000954,,933385.0999999046,,933388.164,8,400,,,
break_continue,html.Screen,4_110_2,2023-09-13T16:01:29.340Z,,0,,,NaN,,,,,,false,,,,933386.0999999046,933386.0999999046,,933385.9000000954,,933388.164,8,400,,,
sequence,flow.Sequence,4_110,2023-09-13T16:01:29.340Z,,0,,,4873.988999904599,completion,,,,,false,,,,933386.3000001907,933386.0999999046,928495.342,928503.0999999046,928512.111,933388.164,8,400,,,
trial,html.Screen,4_111_0,2023-09-13T16:01:33.760Z,,0,3,,4418.236000095378,response,ISIC_0069970.JPG,5,ISIC_0033724.JPG,ISIC_0033724.JPG,false,0,keypress(z),500,937806.5,937806.4000000954,933371.425,933386.4000000954,933388.164,937813.484,8,400,12,,ISIC_0069970.JPG
break,html.Screen,4_111_1,2023-09-13T16:01:33.761Z,,0,,,NaN,,,,,,false,,,,937807,937806.8000001907,,937806.6999998093,,937813.484,8,400,,,
break_continue,html.Screen,4_111_2,2023-09-13T16:01:33.761Z,,0,,,NaN,,,,,,false,,,,937807.1999998093,937807.0999999046,,937807,,937813.484,8,400,,,
sequence,flow.Sequence,4_111,2023-09-13T16:01:33.761Z,,0,,,4418.935999904643,completion,,,,,false,,,,937807.1999998093,937807.0999999046,933371.425,933386.3000001907,933388.164,937813.484,8,400,,,
trial,html.Screen,4_112_0,2023-09-13T16:01:38.563Z,,0,3,,4795.9160000953125,response,ISIC_0025832.JPG,5,ISIC_0066470.JPG,ISIC_0066470.JPG,false,0,keypress(z),500,942609.5999999046,942609.4000000954,937796.904,937807.3000001907,937813.484,942622.888,8,400,13,,ISIC_0025832.JPG
break,html.Screen,4_112_1,2023-09-13T16:01:38.564Z,,0,,,NaN,,,,,,false,,,,942609.9000000954,942609.9000000954,,942609.6999998093,,942622.888,8,400,,,
break_continue,html.Screen,4_112_2,2023-09-13T16:01:38.564Z,,0,,,NaN,,,,,,false,,,,942610.0999999046,942610.0999999046,,942610,,942622.888,8,400,,,
sequence,flow.Sequence,4_112,2023-09-13T16:01:38.564Z,,0,,,4796.615999904578,completion,,,,,false,,,,942610.1999998093,942610.0999999046,937796.904,937807.3000001907,937813.484,942622.888,8,400,,,
trial,html.Screen,4_113_0,2023-09-13T16:01:44.150Z,,0,3,,5573.512000095332,response,ISIC_5732374.JPG,5,ISIC_9204678.JPG,ISIC_9204678.JPG,false,0,keypress(z),500,948196.5,948196.4000000954,942606.107,942610.1999998093,942622.888,948200.32,8,400,14,,ISIC_5732374.JPG
break,html.Screen,4_113_1,2023-09-13T16:01:44.151Z,,0,,,NaN,,,,,,false,,,,948197,948196.9000000954,,948196.5999999046,,948200.32,8,400,,,
break_continue,html.Screen,4_113_2,2023-09-13T16:01:44.151Z,,0,,,NaN,,,,,,false,,,,948197.1999998093,948197.1999998093,,948197.0999999046,,948200.32,8,400,,,
sequence,flow.Sequence,4_113,2023-09-13T16:01:44.151Z,,0,,,5574.31199980923,completion,,,,,false,,,,948197.3000001907,948197.1999998093,942606.107,942610.1999998093,942622.888,948200.32,8,400,,,
trial,html.Screen,4_114_0,2023-09-13T16:01:50.368Z,,0,3,,6213.279999904684,response,ISIC_0029562.JPG,6,ISIC_8505243.JPG,ISIC_0029562.JPG,false,1,keypress(m),500,954414.5,954413.5999999046,948183.606,948197.3000001907,948200.32,954429.164,8,400,15,,ISIC_8505243.JPG
break,html.Screen,4_114_1,2023-09-13T16:01:50.373Z,,0,,,NaN,,,,,,false,,,,954419.0999999046,954416.3000001907,,954415.0999999046,,954429.164,8,400,,,
break_continue,html.Screen,4_114_2,2023-09-13T16:01:50.374Z,,0,,,NaN,,,,,,false,,,,954420.1999998093,954419.8000001907,,954419.5,,954429.164,8,400,,,
sequence,flow.Sequence,4_114,2023-09-13T16:01:50.374Z,,0,,,6219.480000190786,completion,,,,,false,,,,954420.5,954419.8000001907,948183.606,948197.3000001907,948200.32,954429.164,8,400,,,
trial,html.Screen,4_115_0,2023-09-13T16:01:56.576Z,,0,3,,6192.236000095378,response,ISIC_0014013.JPG,5,ISIC_0024421.JPG,ISIC_0024421.JPG,false,0,keypress(z),500,960621.9000000954,960621.4000000954,954412.435,954420.6999998093,954429.164,960624.511,8,400,16,,ISIC_0014013.JPG
break,html.Screen,4_115_1,2023-09-13T16:01:56.577Z,,0,,,NaN,,,,,,false,,,,960623,960622.6999998093,,960622.3000001907,,960624.511,8,400,,,
break_continue,html.Screen,4_115_2,2023-09-13T16:01:56.577Z,,0,,,NaN,,,,,,false,,,,960623.5,960623.4000000954,,960623.1999998093,,960624.511,8,400,,,
sequence,flow.Sequence,4_115,2023-09-13T16:01:56.577Z,,0,,,6194.236000095378,completion,,,,,false,,,,960623.6999998093,960623.4000000954,954412.435,954420.5999999046,954429.164,960624.511,8,400,,,
trial,html.Screen,4_116_0,2023-09-13T16:02:02.650Z,,0,3,,6071.188999809208,response,ISIC_9024529.JPG,4,ISIC_0014765.JPG,ISIC_0014765.JPG,false,0,keypress(z),500,966695.9000000954,966695.6999998093,960607.778,960623.9000000954,960624.511,966703.082,8,400,17,,ISIC_9024529.JPG
break,html.Screen,4_116_1,2023-09-13T16:02:02.650Z,,0,,,NaN,,,,,,false,,,,966696.3000001907,966696.1999998093,,966696,,966703.082,8,400,,,
break_continue,html.Screen,4_116_2,2023-09-13T16:02:02.650Z,,0,,,NaN,,,,,,false,,,,966696.4000000954,966696.4000000954,,966696.4000000954,,966703.082,8,400,,,
sequence,flow.Sequence,4_116,2023-09-13T16:02:02.650Z,,0,,,6071.889000095311,completion,,,,,false,,,,966696.6999998093,966696.4000000954,960607.778,960623.8000001907,960624.511,966703.082,8,400,,,
trial,html.Screen,4_117_0,2023-09-13T16:02:08.796Z,,0,3,,6139.5179999045795,response,ISIC_0004564.JPG,5,ISIC_7599444.JPG,ISIC_0004564.JPG,false,1,keypress(m),500,972842.6999998093,972842.5999999046,966686.402,966696.6999998093,966703.082,972848.399,8,400,18,,ISIC_7599444.JPG
break,html.Screen,4_117_1,2023-09-13T16:02:08.797Z,,0,,,NaN,,,,,,false,,,,972843.3000001907,972843.0999999046,,972842.9000000954,,972848.399,8,400,,,
break_continue,html.Screen,4_117_2,2023-09-13T16:02:08.797Z,,0,,,NaN,,,,,,false,,,,972843.5999999046,972843.5,,972843.4000000954,,972848.399,8,400,,,
sequence,flow.Sequence,4_117,2023-09-13T16:02:08.797Z,,0,,,6140.417999999947,completion,,,,,false,,,,972843.6999998093,972843.5,966686.402,966696.6999998093,966703.082,972848.399,8,400,,,
trial,html.Screen,4_118_0,2023-09-13T16:02:13.252Z,,0,3,,4449.601000000024,response,ISIC_1768733.JPG,4,ISIC_9337870.JPG,ISIC_1768733.JPG,false,1,keypress(m),500,977298.0999999046,977298,972831.609,972843.8000001907,972848.399,977306.932,8,400,19,,ISIC_9337870.JPG
break,html.Screen,4_118_1,2023-09-13T16:02:13.252Z,,0,,,NaN,,,,,,false,,,,977298.5,977298.4000000954,,977298.1999998093,,977306.932,8,400,,,
break_continue,html.Screen,4_118_2,2023-09-13T16:02:13.252Z,,0,,,NaN,,,,,,false,,,,977298.6999998093,977298.5999999046,,977298.5999999046,,977306.932,8,400,,,
sequence,flow.Sequence,4_118,2023-09-13T16:02:13.252Z,,0,,,4450.200999904657,completion,,,,,false,,,,977298.8000001907,977298.5999999046,972831.609,972843.6999998093,972848.399,977306.932,8,400,,,
trial,html.Screen,4_119_0,2023-09-13T16:02:18.631Z,,0,3,,5369.767999809235,response,ISIC_2924968.JPG,5,ISIC_0026231.JPG,ISIC_0026231.JPG,false,0,keypress(z),500,982676.8000001907,982676.6999998093,977290.247,977298.8000001907,977306.932,982700.781,8,400,20,,ISIC_2924968.JPG
break,html.Screen,4_119_1,2023-09-13T16:02:18.631Z,,0,,,NaN,,,,,,false,,,,982677.4000000954,982677.1999998093,,982677,,982700.781,8,400,,,
break_continue,html.Screen,4_119_2,2023-09-13T16:02:18.632Z,,0,,,NaN,,,,,,false,,,,982677.9000000954,982677.6999998093,,982677.5999999046,,982700.781,8,400,,,
sequence,flow.Sequence,4_119,2023-09-13T16:02:18.632Z,,0,,,5370.767999809235,completion,,,,,false,,,,982678.0999999046,982677.6999998093,977290.247,977298.8000001907,977306.932,982700.781,8,400,,,
trial,html.Screen,4_120_0,2023-09-13T16:02:25.536Z,,0,3,,6879.418999809306,response,ISIC_0033463.JPG,4,ISIC_0032133.JPG,ISIC_0033463.JPG,false,1,keypress(m),500,989580.4000000954,989580.1999998093,982684.086,982678.3000001907,982700.781,989614.254,8,400,21,,ISIC_0032133.JPG
break,html.Screen,4_120_1,2023-09-13T16:02:25.536Z,,0,,,NaN,,,,,,false,,,,989581.0999999046,989580.8000001907,,989580.5,,989614.254,8,400,,,
break_continue,html.Screen,4_120_2,2023-09-13T16:02:25.537Z,,0,,,NaN,,,,,,false,,,,989581.5999999046,989581.5,,989581.3000001907,,989614.254,8,400,,,
sequence,flow.Sequence,4_120,2023-09-13T16:02:25.537Z,,0,,,6880.719000000041,completion,,,,,false,,,,989581.6999998093,989581.5,982684.086,982678.1999998093,982700.781,989614.254,8,400,,,
trial,html.Screen,4_121_0,2023-09-13T16:02:34.067Z,,0,3,,8497.046000190778,response,ISIC_9895220.JPG,6,ISIC_1337726.JPG,ISIC_1337726.JPG,false,0,keypress(z),500,998111.4000000954,998111.3000001907,989597.549,989581.8000001907,989614.254,998114.082,8,400,22,,ISIC_9895220.JPG
break,html.Screen,4_121_1,2023-09-13T16:02:34.067Z,,0,,,NaN,,,,,,false,,,,998111.9000000954,998111.8000001907,,998111.4000000954,,998114.082,8,400,,,
break_continue,html.Screen,4_121_2,2023-09-13T16:02:34.068Z,,0,,,NaN,,,,,,false,,,,998112.4000000954,998112.4000000954,,998112.0999999046,,998114.082,8,400,,,
sequence,flow.Sequence,4_121,2023-09-13T16:02:34.068Z,,0,,,8498.14600009541,completion,,,,,false,,,,998112.5,998112.4000000954,989597.549,989581.8000001907,989614.254,998114.082,8,400,,,
trial,html.Screen,4_122_0,2023-09-13T16:02:39.910Z,,0,3,,5840.117999809212,response,ISIC_2331656.JPG,5,ISIC_0011498.JPG,ISIC_2331656.JPG,false,1,keypress(m),500,1003954.4000000954,1003954.1999998093,998097.525,998112.5,998114.082,1003958.807,8,400,23,,ISIC_0011498.JPG
break,html.Screen,4_122_1,2023-09-13T16:02:39.910Z,,0,,,NaN,,,,,,false,,,,1003954.9000000954,1003954.6999998093,,1003954.5,,1003958.807,8,400,,,
break_continue,html.Screen,4_122_2,2023-09-13T16:02:39.910Z,,0,,,NaN,,,,,,false,,,,1003955.0999999046,1003955.0999999046,,1003955,,1003958.807,8,400,,,
sequence,flow.Sequence,4_122,2023-09-13T16:02:39.910Z,,0,,,5841.0179999045795,completion,,,,,false,,,,1003955.1999998093,1003955.0999999046,998097.525,998112.5,998114.082,1003958.807,8,400,,,
trial,html.Screen,4_123_0,2023-09-13T16:02:46.649Z,,0,3,,6734.493000190705,response,ISIC_4554863.JPG,5,ISIC_0945844.JPG,ISIC_4554863.JPG,false,1,keypress(m),500,1010693.4000000954,1010693.3000001907,1003942.115,1003955.3000001907,1003958.807,1010705.312,8,400,24,,ISIC_0945844.JPG
break,html.Screen,4_123_1,2023-09-13T16:02:46.649Z,,0,,,NaN,,,,,,false,,,,1010693.8000001907,1010693.8000001907,,1010693.5999999046,,1010705.312,8,400,,,
break_continue,html.Screen,4_123_2,2023-09-13T16:02:46.649Z,,0,,,NaN,,,,,,false,,,,1010694,1010694,,1010693.8000001907,,1010705.312,8,400,,,
sequence,flow.Sequence,4_123,2023-09-13T16:02:46.649Z,,0,,,6735.19299999997,completion,,,,,false,,,,1010694.0999999046,1010694,1003942.115,1003955.3000001907,1003958.807,1010705.312,8,400,,,
trial,html.Screen,4_124_0,2023-09-13T16:02:52.379Z,,0,3,,5718.588000095333,response,ISIC_5409902.JPG,5,ISIC_0027654.JPG,ISIC_5409902.JPG,false,1,keypress(m),500,1016424,1016423.9000000954,1010688.67,1010694.1999998093,1010705.312,1016433.238,8,400,25,,ISIC_0027654.JPG
break,html.Screen,4_124_1,2023-09-13T16:02:52.380Z,,0,,,NaN,,,,,,false,,,,1016424.6999998093,1016424.4000000954,,1016424.1999998093,,1016433.238,8,400,,,
break_continue,html.Screen,4_124_2,2023-09-13T16:02:52.380Z,,0,,,NaN,,,,,,false,,,,1016424.9000000954,1016424.9000000954,,1016424.8000001907,,1016433.238,8,400,,,
sequence,flow.Sequence,4_124,2023-09-13T16:02:52.380Z,,0,,,5719.588000095333,completion,,,,,false,,,,1016425.0999999046,1016424.9000000954,1010688.67,1010694.0999999046,1010705.312,1016433.238,8,400,,,
trial,html.Screen,4_125_0,2023-09-13T16:03:00.190Z,,0,3,,7801.8619999046205,response,ISIC_5921777.JPG,5,ISIC_0069620.JPG,ISIC_5921777.JPG,false,1,keypress(m),500,1024235.1999998093,1024235.0999999046,1016416.485,1016425.0999999046,1016433.238,1024248.386,8,400,26,,ISIC_0069620.JPG
break,html.Screen,4_125_1,2023-09-13T16:03:00.191Z,,0,,,NaN,,,,,,false,,,,1024235.6999998093,1024235.5,,1024235.3000001907,,1024248.386,8,400,,,
break_continue,html.Screen,4_125_2,2023-09-13T16:03:00.191Z,,0,,,NaN,,,,,,false,,,,1024235.9000000954,1024235.9000000954,,1024235.8000001907,,1024248.386,8,400,,,
sequence,flow.Sequence,4_125,2023-09-13T16:03:00.191Z,,0,,,7802.662000095355,completion,,,,,false,,,,1024236,1024235.9000000954,1016416.485,1016425.0999999046,1016433.238,1024248.386,8,400,,,
trial,html.Screen,4_126_0,2023-09-13T16:03:05.425Z,,0,3,,5221.213999904576,response,ISIC_0030575.JPG,4,ISIC_0010746.JPG,ISIC_0030575.JPG,false,1,keypress(m),500,1029469.8000001907,1029469.5999999046,1024231.594,1024236.0999999046,1024248.386,1029475.132,8,400,27,,ISIC_0010746.JPG
